Timestamp,AccX,AccY,AccZ,GyroX,GyroY,GyroZ,MagnX,MagnY,MagnZ
0.0,-9.265,-1.318,-3.34,-9.301,-1.127,-3.288,3.36,1.33,0.07
,-9.371,-1.074,-3.3,-9.318,-1.22,-3.309,4.69,1.47,0.21
,-9.423,-0.955,-3.257,-9.265,-1.302,-3.271,4.13,1.05,0.28
,-9.356,-0.976,-3.297,-9.296,-1.218,-3.257,2.59,0.98,0.07
76.0,-9.356,-1.098,-3.245,-9.256,-1.127,-3.23,4.13,1.4,0.35
,-9.375,-1.151,-3.235,-9.337,-1.094,-3.415,3.71,1.4,0.42
,-9.289,-1.053,-3.202,-9.414,-1.153,-3.403,3.5,1.47,0.49
,-9.253,-1.091,-3.254,-9.311,-1.12,-3.47,3.01,1.61,0.56
152.0,-9.191,-1.141,-3.436,-9.368,-1.106,-3.3,2.59,1.12,0.35
,-9.263,-1.153,-3.372,-9.349,-1.151,-3.345,3.08,0.98,0.42
,-9.287,-1.094,-3.455,-9.335,-1.141,-3.372,3.71,0.63,0.35
,-9.265,-1.108,-3.398,-9.308,-1.163,-3.233,3.64,0.63,0.49
227.0,-9.275,-1.173,-3.226,-9.363,-1.127,-3.285,3.71,0.63,0.63
,-9.232,-1.134,-3.209,-9.39,-1.127,-3.125,3.71,0.63,0.63
,-9.304,-1.177,-3.151,-9.351,-1.106,-3.214,3.15,0.63,0.63
,-9.284,-1.196,-3.144,-9.313,-1.134,-3.235,3.22,1.05,0.7
302.0,-9.342,-1.094,-3.271,-9.256,-1.163,-3.386,2.94,1.26,0.63
,-9.385,-1.082,-3.257,-9.28,-1.199,-3.4,3.01,1.54,0.63
,-9.34,-1.101,-3.352,-9.241,-1.208,-3.29,2.8,1.26,0.49
,-9.258,-1.144,-3.324,-9.282,-1.127,-3.269,3.08,1.26,0.63
378.0,-9.313,-1.161,-3.283,-9.32,-1.187,-3.218,3.22,1.05,0.7
,-9.282,-1.127,-3.216,-9.28,-1.251,-3.209,2.87,0.77,0.77
,-9.335,-1.127,-3.24,-9.33,-1.161,-3.19,2.52,0.98,0.77
,-9.335,-1.134,-3.233,-9.344,-1.103,-3.216,2.17,0.77,0.7
454.0,-9.304,-1.11,-3.185,-9.342,-1.089,-3.381,2.24,1.19,0.77
,-9.332,-1.127,-3.257,-9.234,-1.182,-3.405,1.68,1.26,0.77
,-9.316,-1.24,-3.252,-9.251,-1.28,-3.362,1.75,0.91,0.77
,-9.383,-1.184,-3.307,-9.232,-1.307,-3.36,2.31,0.98,0.7
530.0,-9.316,-1.235,-3.326,-9.371,-1.05,-3.099,5.18,0.84,0.98
,-9.258,-1.108,-3.166,-9.328,-1.041,-3.065,5.39,0.77,1.19
,-9.304,-1.11,-3.144,-9.387,-0.943,-3.206,4.62,0.77,1.12
,-9.325,-1.055,-3.139,-9.323,-1.125,-3.082,4.48,1.19,1.26
606.0,-9.292,-1.242,-3.29,-9.366,-1.144,-3.343,0.91,1.19,0.7
,-9.232,-1.338,-3.197,-9.313,-1.005,-3.314,1.54,1.26,0.84
,-9.273,-1.309,-3.269,-9.261,-1.094,-3.326,2.59,1.26,0.91
,-9.268,-1.271,-3.364,-9.229,-1.153,-3.343,3.36,1.26,1.19
681.0,-9.325,-1.158,-3.369,-9.328,-1.062,-3.149,3.71,1.05,1.12
,-9.361,-1.149,-3.266,-9.282,-1.074,-3.147,4.55,0.84,1.05
,-9.368,-1.058,-3.254,-9.301,-1.149,-3.075,5.04,0.84,0.98
,-9.301,-1.101,-3.18,-9.349,-1.127,-3.137,4.9,0.84,0.98
757.0,-9.304,-1.153,-3.192,-9.356,-1.086,-3.123,1.61,0.98,0.35
,-9.275,-1.18,-3.192,-9.38,-1.031,-3.147,1.26,1.19,0.56
,-9.33,-1.271,-3.24,-9.428,-1.134,-3.039,1.82,1.4,0.77
,-9.351,-1.208,-3.238,-9.311,-1.156,-3.329,2.73,1.4,0.63
833.0,-9.237,-1.285,-3.209,-9.368,-0.995,-3.159,1.47,1.75,0.63
,-9.273,-1.354,-3.171,-9.361,-1.039,-3.247,2.59,1.89,0.7
,-9.32,-1.194,-3.183,-9.299,-1.144,-3.228,4.2,1.82,0.77
,-9.328,-1.065,-3.161,-9.27,-1.182,-3.3,4.34,1.96,0.98
909.0,-9.27,-1.251,-3.25,-9.359,-1.065,-3.283,2.94,1.96,0.91
,-9.258,-1.228,-3.192,-9.344,-1.053,-3.326,3.43,2.1,0.91
,-9.289,-1.23,-3.211,-9.335,-1.029,-3.381,3.29,2.24,1.05
,-9.344,-1.206,-3.183,-9.268,-1.129,-3.343,3.29,2.1,1.19
984.0,-9.253,-1.232,-3.278,-9.344,-1.106,-3.235,2.03,1.68,0.91
,-9.316,-1.18,-3.271,-9.332,-1.132,-3.331,3.01,1.61,0.84
,-9.363,-1.098,-3.226,-9.28,-1.168,-3.331,3.08,1.68,0.91
,-9.354,-1.144,-3.226,-9.249,-1.125,-3.336,2.52,1.75,0.84
1060.0,-9.249,-1.129,-3.262,-9.33,-1.11,-3.147,2.45,1.4,0.7
,-9.323,-1.177,-3.202,-9.316,-1.204,-3.159,3.01,1.33,0.7
,-9.356,-1.039,-3.206,-9.342,-1.242,-3.305,3.22,1.47,0.77
,-9.308,-1.086,-3.142,-9.256,-1.165,-3.367,2.45,1.68,0.7
1135.0,-9.227,-1.113,-3.321,-9.335,-1.153,-3.23,2.31,1.54,0.77
,-9.299,-1.144,-3.35,-9.251,-1.156,-3.228,2.31,1.68,0.91
,-9.292,-1.17,-3.36,-9.311,-1.204,-3.309,2.52,1.61,0.91
,-9.332,-1.115,-3.283,-9.344,-1.146,-3.269,2.73,1.68,0.91
1211.0,-9.316,-1.091,-3.29,-9.296,-1.242,-3.149,2.94,1.47,0.91
,-9.34,-1.108,-3.326,-9.33,-1.182,-3.104,2.87,1.4,0.77
,-9.294,-1.084,-3.317,-9.359,-1.11,-3.116,2.52,1.33,0.77
,-9.284,-1.127,-3.247,-9.342,-1.039,-3.104,2.59,1.61,0.84
1287.0,-9.311,-1.055,-3.197,-9.301,-1.22,-3.271,1.4,2.03,0.7
,-9.323,-1.156,-3.19,-9.296,-1.177,-3.228,0.98,1.96,0.56
,-9.313,-1.206,-3.18,-9.304,-1.151,-3.247,1.26,1.89,0.49
,-9.294,-1.139,-3.25,-9.294,-1.127,-3.254,2.03,2.03,0.63
1363.0,-9.325,-1.074,-3.266,-9.261,-1.208,-3.372,3.36,2.17,0.77
,-9.323,-1.058,-3.293,-9.287,-1.256,-3.252,2.94,2.1,0.63
,-9.251,-1.132,-3.163,-9.292,-1.211,-3.276,1.19,2.03,0.49
,-9.311,-1.127,-3.431,-9.344,-1.196,-3.175,2.03,1.82,0.35
1438.0,-9.351,-1.094,-3.252,-9.296,-1.199,-3.319,2.45,1.75,0.77
,-9.332,-1.089,-3.233,-9.258,-1.168,-3.357,1.96,1.89,0.7
,-9.335,-1.053,-3.221,-9.28,-1.153,-3.357,1.33,1.96,0.56
,-9.299,-1.141,-3.312,-9.275,-1.077,-3.343,0.91,1.89,0.49
1514.0,-9.33,-1.043,-3.273,-9.28,-1.297,-3.209,2.17,1.61,0.56
,-9.265,-1.108,-3.23,-9.306,-1.304,-3.159,1.54,1.4,0.42
,-9.282,-1.139,-3.226,-9.378,-1.213,-3.173,0.98,1.4,0.28
,-9.277,-1.177,-3.221,-9.311,-1.144,-3.192,0.42,1.4,0.21
1590.0,-9.313,-1.06,-3.247,-9.275,-1.137,-3.417,1.75,1.96,0.63
,-9.251,-1.103,-3.352,-9.251,-1.141,-3.393,0.98,1.89,0.7
,-9.265,-1.103,-3.391,-9.203,-1.17,-3.388,0.84,1.61,0.56
,-9.273,-1.103,-3.427,-9.275,-1.216,-3.295,1.05,1.61,0.42
1666.0,-9.354,-1.192,-3.252,-9.342,-1.079,-3.211,2.66,1.4,0.84
,-9.301,-1.158,-3.228,-9.366,-1.094,-3.262,2.66,1.4,0.84
,-9.296,-1.096,-3.214,-9.342,-1.062,-3.338,2.24,1.47,0.77
,-9.263,-1.108,-3.178,-9.287,-1.096,-3.451,2.03,1.68,0.84
1742.0,-9.304,-1.18,-3.441,-9.337,-1.07,-3.259,1.96,1.26,0.56
,-9.246,-1.168,-3.443,-9.282,-1.077,-3.266,2.17,1.12,0.56
,-9.227,-1.211,-3.422,-9.277,-1.079,-3.18,2.8,1.26,0.63
,-9.296,-1.168,-3.333,-9.27,-1.22,-3.168,3.57,1.12,0.63
1817.0,-9.234,-1.216,-3.223,-9.311,-1.096,-3.19,3.36,1.4,0.84
,-9.294,-1.122,-3.168,-9.316,-1.223,-3.297,4.13,1.68,0.84
,-9.392,-1.079,-3.216,-9.215,-1.273,-3.321,3.85,1.47,0.56
,-9.34,-1.05,-3.185,-9.206,-1.232,-3.247,2.8,1.68,0.56
1893.0,-9.287,-1.144,-3.29,-9.282,-1.134,-3.374,3.57,1.82,0.98
,-9.33,-1.082,-3.307,-9.256,-1.213,-3.398,3.64,1.82,0.98
,-9.368,-1.034,-3.312,-9.296,-1.235,-3.376,2.94,1.61,0.84
,-9.342,-1.05,-3.348,-9.275,-1.151,-3.305,2.17,1.54,0.63
1968.0,-9.28,-1.149,-3.228,-9.289,-1.103,-3.324,3.57,1.47,0.7
,-9.318,-1.163,-3.228,-9.268,-1.141,-3.326,2.94,1.54,0.7
,-9.301,-1.11,-3.214,-9.198,-1.266,-3.319,2.38,1.4,0.63
,-9.344,-1.101,-3.295,-9.265,-1.263,-3.266,1.82,1.12,0.49
2044.0,-9.294,-1.153,-3.252,-9.261,-1.228,-3.309,4.41,1.75,0.91
,-9.335,-0.991,-3.319,-9.282,-1.199,-3.336,4.27,1.68,0.77
,-9.306,-0.983,-3.266,-9.289,-1.149,-3.29,2.73,1.47,0.63
,-9.292,-1.106,-3.338,-9.299,-1.153,-3.214,1.4,1.47,0.56
2120.0,-9.366,-1.127,-3.254,-9.263,-1.223,-3.34,3.15,1.26,0.77
,-9.323,-1.134,-3.257,-9.261,-1.225,-3.319,2.59,1.4,0.7
,-9.241,-1.101,-3.317,-9.265,-1.223,-3.252,1.96,1.33,0.49
,-9.246,-1.177,-3.336,-9.306,-1.182,-3.23,1.54,1.26,0.49
2196.0,-9.335,-1.132,-3.218,-9.167,-1.285,-3.412,3.01,1.47,1.05
,-9.375,-1.067,-3.307,-9.273,-1.295,-3.393,2.66,1.26,0.84
,-9.337,-1.062,-3.367,-9.335,-1.129,-3.336,1.75,1.12,0.63
,-9.213,-1.173,-3.348,-9.249,-1.129,-3.262,1.4,1.12,0.7
2271.0,-9.282,-1.12,-3.154,-9.206,-1.259,-3.309,4.2,1.4,1.26
,-9.308,-1.125,-3.19,-9.206,-1.168,-3.367,3.78,1.19,1.12
,-9.34,-1.07,-3.13,-9.287,-1.24,-3.202,3.22,1.12,0.91
,-9.232,-1.254,-3.017,-9.363,-1.089,-3.3,0.0,0.84,0.49
2347.0,-9.342,-1.012,-3.288,-9.275,-1.307,-3.238,3.5,1.19,0.91
,-9.335,-1.074,-3.271,-9.282,-1.311,-3.178,2.94,1.4,0.91
,-9.273,-1.082,-3.297,-9.356,-1.218,-3.168,2.59,1.33,0.7
,-9.22,-1.182,-3.309,-9.359,-1.007,-3.144,2.17,1.33,0.77
2423.0,-9.347,-0.976,-3.25,-9.208,-1.173,-3.391,2.24,1.68,0.77
,-9.301,-1.065,-3.281,-9.289,-1.168,-3.283,1.05,1.47,0.56
,-9.237,-1.146,-3.357,-9.289,-1.189,-3.185,0.56,1.26,0.35
,-9.253,-1.18,-3.391,-9.375,-1.127,-3.163,1.33,1.54,0.42
2499.0,-9.368,-1.101,-3.156,-9.241,-1.28,-3.352,1.89,1.89,0.63
,-9.349,-1.153,-3.269,-9.27,-1.228,-3.343,1.05,1.68,0.49
,-9.304,-1.132,-3.305,-9.316,-1.115,-3.35,0.7,1.75,0.49
,-9.237,-1.206,-3.343,-9.287,-1.07,-3.309,0.7,1.82,0.49
2575.0,-9.311,-1.117,-3.319,-9.284,-1.194,-3.36,2.17,1.82,0.77
,-9.323,-1.144,-3.367,-9.268,-1.077,-3.348,1.61,1.47,0.56
,-9.301,-1.184,-3.345,-9.351,-1.11,-3.35,1.75,1.54,0.63
,-9.229,-1.208,-3.338,-9.294,-1.108,-3.355,2.31,1.33,0.7
2650.0,-9.232,-1.256,-3.276,-9.383,-1.039,-3.25,2.1,1.4,0.7
,-9.182,-1.292,-3.242,-9.32,-1.015,-3.307,2.45,1.4,0.77
,-9.277,-1.237,-3.23,-9.277,-1.153,-3.374,3.36,1.54,0.84
,-9.368,-1.117,-3.206,-9.253,-1.18,-3.417,3.64,1.61,0.84
2726.0,-9.263,-1.223,-3.415,-9.33,-1.184,-3.269,2.17,1.4,0.49
,-9.229,-1.168,-3.451,-9.287,-1.18,-3.149,3.01,1.19,0.56
,-9.241,-1.108,-3.388,-9.325,-1.115,-3.199,3.43,1.05,0.7
,-9.304,-1.139,-3.362,-9.33,-1.108,-3.209,3.71,1.26,0.84
2801.0,-9.318,-1.089,-3.228,-9.273,-1.247,-3.206,2.59,1.26,0.56
,-9.263,-1.101,-3.288,-9.299,-1.208,-3.247,2.17,1.19,0.63
,-9.265,-1.146,-3.245,-9.301,-1.125,-3.273,2.24,1.47,0.7
,-9.299,-1.149,-3.214,-9.277,-1.113,-3.288,2.45,1.61,0.63
2877.0,-9.273,-1.184,-3.269,-9.337,-1.027,-3.343,2.1,1.61,0.7
,-9.287,-1.254,-3.206,-9.32,-1.086,-3.388,2.66,1.89,0.84
,-9.344,-1.132,-3.271,-9.299,-1.177,-3.46,3.36,1.89,0.77
,-9.363,-1.06,-3.266,-9.239,-1.23,-3.46,3.08,1.75,0.63
2953.0,-9.182,-1.273,-3.41,-9.292,-1.156,-3.197,2.24,1.19,0.56
,-9.251,-1.24,-3.35,-9.32,-1.206,-3.204,3.15,1.19,0.63
,-9.292,-1.134,-3.317,-9.311,-1.182,-3.206,3.36,1.05,0.7
,-9.299,-1.091,-3.269,-9.32,-1.122,-3.281,2.8,1.12,0.84
3029.0,-9.296,-1.141,-3.352,-9.27,-1.156,-3.396,2.03,1.26,0.63
,-9.268,-1.213,-3.348,-9.268,-1.132,-3.362,2.45,1.33,0.77
,-9.284,-1.18,-3.348,-9.313,-1.108,-3.319,3.01,1.4,0.84
,-9.273,-1.127,-3.381,-9.258,-1.194,-3.273,3.43,1.4,0.91
3104.0,-9.289,-1.208,-3.228,-9.344,-1.12,-3.257,2.94,1.19,0.91
,-9.311,-1.18,-3.214,-9.308,-1.156,-3.271,2.8,1.33,0.84
,-9.304,-1.175,-3.209,-9.308,-1.141,-3.338,2.87,1.33,0.84
,-9.296,-1.096,-3.247,-9.234,-1.156,-3.367,2.59,1.4,0.7
3180.0,-9.268,-1.165,-3.321,-9.313,-1.208,-3.266,2.52,1.12,0.84
,-9.301,-1.18,-3.374,-9.296,-1.204,-3.247,2.73,1.19,0.77
,-9.32,-1.22,-3.355,-9.342,-1.077,-3.264,2.8,1.05,0.84
,-9.311,-1.23,-3.338,-9.304,-1.12,-3.204,2.94,0.98,0.98
3255.0,-9.304,-1.108,-3.276,-9.222,-1.232,-3.364,2.38,1.12,0.84
,-9.311,-1.122,-3.393,-9.249,-1.244,-3.278,2.59,1.26,0.77
,-9.294,-1.175,-3.364,-9.282,-1.113,-3.216,2.8,1.19,0.77
,-9.275,-1.175,-3.412,-9.354,-1.086,-3.163,3.01,1.05,0.84
3331.0,-9.332,-1.091,-3.187,-9.332,-1.144,-3.266,2.31,1.05,0.84
,-9.27,-1.204,-3.175,-9.292,-1.213,-3.271,1.96,1.05,0.84
,-9.342,-1.201,-3.137,-9.265,-1.173,-3.326,2.38,1.26,0.98
,-9.313,-1.18,-3.154,-9.251,-1.173,-3.357,2.8,1.47,0.91
3407.0,-9.273,-1.096,-3.364,-9.273,-1.302,-3.214,2.8,1.26,0.84
,-9.268,-1.137,-3.333,-9.273,-1.268,-3.235,2.52,1.4,0.91
,-9.292,-1.156,-3.35,-9.318,-1.199,-3.175,2.38,1.19,0.7
,-9.284,-1.249,-3.283,-9.332,-1.041,-3.156,2.17,1.05,0.84
3483.0,-9.335,-0.974,-3.161,-9.282,-1.165,-3.331,2.59,1.47,0.91
,-9.335,-1.012,-3.159,-9.311,-1.094,-3.329,1.4,1.61,0.7
,-9.296,-1.151,-3.25,-9.27,-1.072,-3.367,0.56,1.47,0.56
,-9.27,-1.23,-3.281,-9.275,-1.115,-3.326,0.98,1.61,0.63
3559.0,-9.246,-1.161,-3.345,-9.282,-1.314,-3.195,1.26,1.4,0.35
,-9.275,-1.223,-3.285,-9.282,-1.22,-3.288,1.05,1.33,0.28
,-9.296,-1.218,-3.247,-9.296,-1.122,-3.199,1.12,1.26,0.28
,-9.253,-1.307,-3.23,-9.354,-1.101,-3.336,1.54,1.33,0.56
3634.0,-9.292,-1.127,-3.317,-9.347,-1.041,-3.333,1.47,1.68,0.63
,-9.249,-1.177,-3.338,-9.292,-1.072,-3.343,1.75,1.61,0.91
,-9.284,-1.199,-3.362,-9.263,-1.151,-3.262,2.17,1.26,0.7
,-9.34,-1.141,-3.36,-9.332,-1.189,-3.264,3.22,1.47,0.77
3710.0,-9.292,-1.204,-3.266,-9.308,-1.122,-3.245,2.45,1.26,0.49
,-9.318,-1.165,-3.273,-9.318,-1.149,-3.288,2.52,1.26,0.56
,-9.296,-1.134,-3.216,-9.227,-1.156,-3.324,2.73,1.26,0.7
,-9.277,-1.117,-3.199,-9.244,-1.206,-3.376,3.15,1.4,0.63
3786.0,-9.292,-1.271,-3.338,-9.308,-1.163,-3.123,2.73,1.33,0.56
,-9.251,-1.235,-3.309,-9.318,-1.175,-3.099,3.01,1.26,0.7
,-9.253,-1.182,-3.283,-9.354,-1.149,-3.108,3.29,1.54,0.77
,-9.253,-1.165,-3.197,-9.34,-1.149,-3.108,3.22,1.54,0.63
3862.0,-9.328,-1.151,-3.233,-9.179,-1.273,-3.482,1.26,1.82,0.63
,-9.289,-1.168,-3.336,-9.239,-1.28,-3.486,1.47,1.68,0.63
,-9.308,-1.12,-3.41,-9.232,-1.24,-3.4,1.68,1.68,0.63
,-9.275,-1.151,-3.467,-9.328,-1.161,-3.381,1.61,1.61,0.56
3937.0,-9.344,-1.06,-3.228,-9.287,-1.228,-3.159,4.13,1.12,0.84
,-9.328,-0.981,-3.187,-9.287,-1.208,-3.211,3.22,1.12,0.7
,-9.332,-1.007,-3.228,-9.258,-1.24,-3.242,2.38,1.19,0.63
,-9.287,-1.161,-3.144,-9.301,-1.196,-3.343,1.4,1.33,0.56
4013.0,-9.296,-1.187,-3.333,-9.284,-1.163,-3.412,1.26,1.47,0.56
,-9.265,-1.149,-3.343,-9.265,-1.199,-3.443,1.12,1.47,0.77
,-9.263,-1.194,-3.415,-9.289,-1.194,-3.369,1.05,1.54,0.77
,-9.296,-1.165,-3.434,-9.268,-1.122,-3.331,1.47,1.4,0.84
4088.0,-9.328,-1.077,-3.317,-9.299,-1.17,-3.156,3.99,0.91,0.91
,-9.268,-1.216,-3.223,-9.354,-1.094,-3.202,3.57,1.19,0.98
,-9.306,-1.256,-3.156,-9.299,-1.163,-3.247,3.71,1.19,1.12
,-9.292,-1.165,-3.154,-9.263,-1.137,-3.278,3.92,1.12,0.98
4164.0,-9.332,-1.11,-3.36,-9.328,-1.278,-3.3,2.52,1.19,0.91
,-9.359,-1.129,-3.34,-9.311,-1.201,-3.305,2.45,1.19,0.77
,-9.34,-1.125,-3.295,-9.304,-1.184,-3.281,2.24,1.19,0.91
,-9.21,-1.161,-3.29,-9.265,-1.106,-3.348,2.1,0.91,0.77
4240.0,-9.308,-1.137,-3.314,-9.296,-1.194,-3.348,2.94,1.05,0.98
,-9.301,-1.163,-3.317,-9.27,-1.249,-3.269,2.94,0.91,0.98
,-9.292,-1.196,-3.309,-9.308,-1.208,-3.223,3.08,0.91,0.98
,-9.258,-1.175,-3.348,-9.311,-1.153,-3.223,3.15,0.91,0.98
4316.0,-9.32,-1.072,-3.206,-9.253,-1.117,-3.163,3.15,0.98,0.91
,-9.328,-1.05,-3.159,-9.304,-1.263,-3.113,3.08,0.98,0.98
,-9.34,-1.05,-3.233,-9.337,-1.266,-3.156,2.73,1.05,0.84
,-9.308,-1.046,-3.206,-9.351,-1.149,-3.171,2.31,1.12,0.77
4392.0,-9.34,-1.062,-3.183,-9.287,-1.247,-3.309,2.45,1.54,0.56
,-9.294,-1.046,-3.276,-9.311,-1.165,-3.29,1.75,1.4,0.49
,-9.287,-1.103,-3.381,-9.311,-1.146,-3.264,1.47,1.47,0.42
,-9.301,-1.216,-3.333,-9.287,-1.165,-3.293,1.68,1.54,0.49
4467.0,-9.284,-1.225,-3.309,-9.33,-1.173,-3.147,2.66,1.26,0.49
,-9.275,-1.235,-3.319,-9.323,-1.077,-3.166,2.66,1.26,0.56
,-9.311,-1.249,-3.269,-9.344,-1.094,-3.178,2.87,1.4,0.7
,-9.316,-1.213,-3.221,-9.361,-1.141,-3.309,3.36,1.4,0.77
4543.0,-9.304,-1.168,-3.362,-9.342,-1.11,-3.336,1.89,1.4,0.49
,-9.253,-1.225,-3.393,-9.323,-1.12,-3.254,2.1,1.54,0.7
,-9.273,-1.259,-3.388,-9.306,-1.216,-3.183,2.73,1.54,0.7
,-9.251,-1.213,-3.388,-9.323,-1.196,-3.226,3.64,1.47,0.77
4619.0,-9.294,-1.158,-3.245,-9.294,-1.161,-3.166,3.29,0.98,0.56
,-9.268,-1.184,-3.252,-9.292,-1.151,-3.278,3.29,1.19,0.63
,-9.32,-1.146,-3.235,-9.299,-1.211,-3.271,3.15,1.4,0.84
,-9.301,-1.173,-3.223,-9.256,-1.218,-3.307,3.15,1.4,0.77
4695.0,-9.28,-1.244,-3.372,-9.354,-1.151,-3.293,2.66,1.26,0.77
,-9.239,-1.213,-3.307,-9.232,-1.134,-3.293,2.87,1.4,0.84
,-9.323,-1.208,-3.285,-9.232,-1.199,-3.29,2.94,1.05,0.84
,-9.347,-1.149,-3.314,-9.335,-1.17,-3.305,3.15,1.26,0.98
4770.0,-9.275,-1.208,-3.333,-9.275,-1.196,-3.252,2.59,0.91,0.84
,-9.292,-1.134,-3.355,-9.246,-1.213,-3.233,3.01,0.91,0.84
,-9.294,-1.165,-3.329,-9.284,-1.228,-3.168,3.15,0.63,0.77
,-9.282,-1.225,-3.326,-9.363,-1.115,-3.132,3.15,0.63,0.91
4846.0,-9.335,-1.225,-3.037,-9.304,-1.125,-3.252,2.94,1.26,1.05
,-9.33,-1.232,-3.01,-9.249,-1.144,-3.273,3.01,1.4,1.19
,-9.366,-1.165,-3.135,-9.292,-1.18,-3.288,3.08,1.33,1.12
,-9.373,-1.173,-3.159,-9.356,-1.117,-3.29,2.8,1.54,1.05
4921.0,-9.311,-1.106,-3.312,-9.249,-1.283,-3.305,3.01,1.61,0.84
,-9.366,-1.113,-3.331,-9.249,-1.383,-3.281,2.73,1.4,0.77
,-9.282,-1.173,-3.3,-9.27,-1.278,-3.185,2.52,1.33,0.7
,-9.287,-1.189,-3.369,-9.359,-1.129,-3.139,2.24,1.19,0.7
4997.0,-9.342,-0.995,-3.168,-9.239,-1.24,-3.269,3.22,1.26,0.91
,-9.313,-1.055,-3.132,-9.34,-1.22,-3.185,1.75,1.26,0.84
,-9.325,-1.151,-3.183,-9.337,-1.113,-3.245,1.26,1.26,0.84
,-9.351,-1.218,-3.312,-9.33,-1.101,-3.228,1.4,1.33,0.91
5073.0,-9.296,-1.184,-3.204,-9.206,-1.156,-3.312,1.54,1.54,0.77
,-9.299,-1.206,-3.166,-9.234,-1.237,-3.273,1.61,1.47,0.91
,-9.347,-1.261,-3.214,-9.22,-1.335,-3.269,2.38,1.47,0.84
,-9.328,-1.187,-3.29,-9.282,-1.517,-3.285,3.08,1.4,0.91
5149.0,-9.273,-1.304,-3.173,-9.316,-0.861,-3.173,5.88,1.96,2.03
,-9.299,-1.062,-3.367,-9.323,-1.015,-3.206,6.65,1.75,1.82
,-9.316,-1.01,-3.017,-9.28,-1.158,-3.209,5.6,2.03,1.61
,-9.407,-0.759,-3.218,-9.316,-1.263,-3.238,4.41,1.82,1.26
5225.0,-9.347,-1.125,-3.305,-9.311,-1.311,-3.41,1.47,1.75,0.21
,-9.32,-1.046,-3.324,-9.253,-1.266,-3.439,1.47,1.75,0.42
,-9.28,-1.082,-3.281,-9.261,-1.168,-3.441,0.7,1.68,0.21
,-9.246,-1.216,-3.343,-9.349,-1.184,-3.388,0.42,1.4,0.14
5300.0,-9.263,-1.196,-3.271,-9.27,-1.117,-3.262,2.38,1.12,0.49
,-9.273,-1.208,-3.226,-9.273,-1.106,-3.247,2.59,0.98,0.56
,-9.251,-1.204,-3.178,-9.275,-1.213,-3.206,2.8,1.26,0.56
,-9.28,-1.173,-3.192,-9.268,-1.275,-3.19,2.87,1.12,0.63
5376.0,-9.32,-1.237,-3.163,-9.325,-1.175,-3.309,3.08,1.4,0.84
,-9.304,-1.129,-3.168,-9.294,-1.173,-3.336,3.15,1.47,0.91
,-9.299,-1.129,-3.192,-9.294,-1.271,-3.367,2.66,1.4,0.91
,-9.304,-1.163,-3.221,-9.241,-1.328,-3.35,2.24,1.4,0.77
5452.0,-9.306,-1.278,-3.269,-9.363,-1.196,-3.128,3.85,1.26,1.19
,-9.347,-1.089,-3.29,-9.306,-1.17,-3.132,4.27,1.12,1.05
,-9.32,-1.031,-3.144,-9.335,-1.117,-3.302,3.64,1.33,0.98
,-9.347,-1.043,-3.072,-9.28,-1.115,-3.362,2.45,1.47,0.98
5528.0,-9.273,-1.237,-3.434,-9.32,-1.082,-3.233,1.26,1.33,0.7
,-9.227,-1.323,-3.417,-9.311,-1.091,-3.206,1.75,1.4,0.91
,-9.244,-1.268,-3.388,-9.296,-1.165,-3.142,3.01,1.33,1.05
,-9.306,-1.177,-3.331,-9.328,-1.206,-3.12,3.71,1.19,0.98
5603.0,-9.375,-1.168,-3.101,-9.217,-1.297,-3.319,2.94,1.33,0.91
,-9.332,-1.096,-3.173,-9.251,-1.295,-3.233,3.08,1.19,0.91
,-9.287,-1.072,-3.223,-9.34,-1.192,-3.233,2.45,1.19,0.77
,-9.263,-1.216,-3.276,-9.313,-1.062,-3.235,1.89,1.12,0.77
5679.0,-9.325,-1.003,-3.269,-9.277,-1.206,-3.197,3.08,1.26,1.05
,-9.337,-1.058,-3.273,-9.371,-1.161,-3.259,2.1,1.12,0.98
,-9.296,-1.228,-3.293,-9.361,-1.101,-3.199,1.82,1.26,0.84
,-9.28,-1.216,-3.388,-9.378,-1.058,-3.113,2.8,1.26,0.77
5755.0,-9.332,-1.091,-3.135,-9.32,-1.199,-3.288,1.26,0.98,0.56
,-9.284,-1.156,-3.233,-9.337,-1.199,-3.281,0.77,1.05,0.42
,-9.284,-1.256,-3.226,-9.323,-1.208,-3.293,0.91,1.19,0.42
,-9.296,-1.266,-3.338,-9.325,-1.182,-3.25,1.54,1.26,0.63
5831.0,-9.249,-1.199,-3.281,-9.289,-1.096,-3.163,2.66,1.33,0.77
,-9.246,-1.163,-3.257,-9.299,-1.165,-3.144,3.08,1.47,0.84
,-9.328,-1.074,-3.278,-9.304,-1.223,-3.135,3.43,1.33,0.91
,-9.273,-1.086,-3.295,-9.325,-1.244,-3.128,3.15,1.33,0.84
5906.0,-9.292,-1.275,-3.128,-9.344,-1.129,-3.254,2.31,1.68,0.91
,-9.351,-1.256,-3.183,-9.287,-1.058,-3.551,2.38,1.89,0.91
,-9.292,-1.163,-3.242,-9.32,-1.094,-3.348,2.38,1.96,0.98
,-9.261,-1.082,-3.309,-9.323,-1.125,-3.4,2.31,2.1,1.05
5982.0,-9.253,-1.189,-3.422,-9.32,-1.041,-3.187,1.89,1.4,0.77
,-9.21,-1.357,-3.281,-9.299,-1.134,-3.183,2.66,1.54,0.98
,-9.332,-1.249,-3.247,-9.277,-1.237,-3.13,3.57,1.47,1.05
,-9.325,-1.108,-3.24,-9.34,-1.251,-3.168,3.64,1.4,0.98
6058.0,-9.354,-1.163,-3.19,-9.273,-1.177,-3.415,2.31,1.89,0.91
,-9.359,-1.041,-3.204,-9.239,-1.251,-3.453,2.24,1.75,0.91
,-9.354,-1.062,-3.285,-9.241,-1.275,-3.458,1.75,1.61,0.63
,-9.306,-1.06,-3.357,-9.249,-1.206,-3.398,1.26,1.47,0.56
6133.0,-9.277,-1.086,-3.317,-9.304,-1.18,-3.099,3.92,0.98,0.98
,-9.316,-1.043,-3.214,-9.258,-1.249,-3.12,3.85,1.12,0.91
,-9.318,-1.096,-3.156,-9.308,-1.259,-3.151,3.01,1.12,0.84
,-9.335,-1.11,-3.163,-9.287,-1.192,-3.139,2.45,1.19,0.63
6209.0,-9.342,-1.108,-3.18,-9.375,-1.156,-3.415,2.38,1.61,0.84
,-9.275,-1.096,-3.139,-9.268,-1.228,-3.405,1.82,1.68,0.84
,-9.313,-1.101,-3.262,-9.234,-1.275,-3.419,1.33,1.54,0.63
,-9.354,-1.103,-3.376,-9.277,-1.287,-3.345,1.33,1.47,0.49
6285.0,-9.373,-1.177,-3.329,-9.359,-1.096,-3.312,4.13,1.26,0.77
,-9.275,-1.196,-3.254,-9.289,-1.074,-3.3,3.99,1.33,0.98
,-9.284,-1.242,-3.173,-9.237,-1.189,-3.183,3.78,1.19,1.12
,-9.34,-1.137,-3.257,-9.284,-1.218,-3.128,3.99,1.19,0.98
6361.0,-9.308,-1.146,-3.061,-9.32,-1.165,-3.178,4.06,1.54,0.91
,-9.335,-1.065,-3.013,-9.325,-1.168,-3.307,3.08,1.68,0.91
,-9.375,-1.096,-2.991,-9.34,-1.187,-3.403,1.96,1.89,0.84
,-9.361,-1.098,-3.065,-9.213,-1.204,-3.53,0.98,1.89,0.56
6436.0,-9.306,-1.137,-3.506,-9.308,-1.213,-3.151,2.59,1.54,0.63
,-9.225,-1.163,-3.448,-9.308,-1.204,-3.178,3.22,1.54,0.77
,-9.34,-1.129,-3.419,-9.296,-1.184,-3.137,3.36,1.33,0.7
,-9.282,-1.175,-3.295,-9.296,-1.156,-3.084,3.29,1.26,0.7
6512.0,-9.301,-1.125,-3.111,-9.34,-1.146,-3.4,1.4,1.4,0.63
,-9.323,-1.151,-3.144,-9.306,-1.12,-3.374,1.12,1.68,0.7
,-9.294,-1.141,-3.216,-9.318,-1.134,-3.477,0.98,1.68,0.7
,-9.323,-1.187,-3.293,-9.265,-1.211,-3.494,1.05,1.68,0.77
6588.0,-9.256,-1.29,-3.443,-9.292,-1.067,-3.123,2.38,1.26,0.91
,-9.292,-1.299,-3.352,-9.299,-1.113,-3.137,3.57,1.12,1.05
,-9.311,-1.134,-3.281,-9.251,-1.251,-3.144,4.62,1.12,1.05
,-9.332,-1.062,-3.218,-9.292,-1.211,-3.183,4.41,1.26,1.05
6664.0,-9.306,-1.137,-3.23,-9.253,-1.151,-3.288,2.8,1.54,0.84
,-9.304,-1.153,-3.25,-9.299,-1.189,-3.283,2.59,1.54,0.77
,-9.282,-1.084,-3.271,-9.361,-1.175,-3.338,2.1,1.47,0.84
,-9.306,-1.127,-3.333,-9.325,-1.184,-3.362,1.54,1.4,0.7
6739.0,-9.253,-1.247,-3.307,-9.356,-1.146,-3.269,2.73,1.26,0.98
,-9.241,-1.208,-3.305,-9.289,-1.149,-3.242,3.5,1.26,0.98
,-9.299,-1.196,-3.269,-9.301,-1.153,-3.281,3.92,1.4,0.98
,-9.354,-1.11,-3.221,-9.292,-1.177,-3.326,3.92,1.33,0.91
6815.0,-9.239,-1.187,-3.326,-9.349,-1.134,-3.13,2.73,1.12,0.98
,-9.206,-1.23,-3.305,-9.306,-1.082,-3.156,3.15,1.19,1.12
,-9.299,-1.151,-3.262,-9.27,-1.089,-3.118,3.78,1.26,1.19
,-9.328,-1.151,-3.204,-9.32,-1.067,-3.187,4.06,1.33,1.19
6890.0,-9.299,-1.108,-3.23,-9.335,-1.141,-3.128,2.45,1.47,0.63
,-9.323,-1.127,-3.266,-9.332,-1.199,-3.108,2.52,1.47,0.7
,-9.33,-1.218,-3.216,-9.375,-1.134,-3.118,2.8,1.68,0.63
,-9.306,-1.175,-3.149,-9.34,-1.046,-3.259,3.15,1.68,0.7
6966.0,-9.28,-1.151,-3.367,-9.311,-1.031,-3.369,1.33,1.75,0.35
,-9.215,-1.249,-3.417,-9.306,-1.01,-3.329,1.47,1.82,0.49
,-9.229,-1.311,-3.408,-9.301,-1.194,-3.269,2.59,1.82,0.56
,-9.287,-1.196,-3.427,-9.239,-1.254,-3.183,3.71,1.75,0.63
7042.0,-9.277,-1.321,-3.163,-9.347,-1.098,-3.178,2.59,1.75,0.7
,-9.34,-1.235,-3.132,-9.296,-1.156,-3.211,2.94,1.61,0.7
,-9.34,-1.139,-3.125,-9.366,-1.117,-3.36,2.8,1.61,0.7
,-9.335,-1.117,-3.099,-9.273,-1.122,-3.482,2.17,1.96,0.7
7118.0,-9.201,-1.208,-3.51,-9.347,-1.173,-3.154,0.91,1.68,0.35
,-9.234,-1.254,-3.506,-9.349,-1.132,-3.087,1.96,1.75,0.63
,-9.287,-1.285,-3.424,-9.383,-1.137,-3.142,3.29,1.82,0.77
,-9.323,-1.225,-3.288,-9.289,-1.175,-3.168,4.27,1.61,0.84
7194.0,-9.234,-1.213,-3.111,-9.27,-1.122,-3.403,1.75,1.82,0.49
,-9.268,-1.247,-3.204,-9.289,-1.165,-3.396,2.24,2.1,0.84
,-9.294,-1.182,-3.218,-9.275,-1.228,-3.486,2.52,2.31,0.98
,-9.28,-1.094,-3.312,-9.198,-1.333,-3.23,2.59,2.1,0.91
7269.0,-9.325,-1.228,-3.388,-9.337,-1.101,-3.168,3.43,1.68,0.84
,-9.313,-1.22,-3.376,-9.275,-1.108,-3.209,3.71,1.75,0.98
,-9.375,-1.177,-3.166,-9.289,-1.232,-3.293,3.71,1.54,0.98
,-9.332,-1.034,-3.262,-9.273,-1.208,-3.288,3.64,1.4,0.98
7345.0,-9.215,-1.134,-3.333,-9.265,-1.266,-3.271,2.66,1.47,0.7
,-9.311,-1.158,-3.343,-9.308,-1.213,-3.281,2.45,1.54,0.77
,-9.347,-1.12,-3.317,-9.294,-1.091,-3.283,1.89,1.26,0.63
,-9.246,-1.165,-3.319,-9.318,-1.074,-3.281,1.47,1.19,0.7
7421.0,-9.256,-1.156,-3.307,-9.275,-1.163,-3.173,1.61,1.47,0.56
,-9.306,-1.24,-3.3,-9.318,-1.192,-3.235,1.75,1.33,0.49
,-9.268,-1.175,-3.297,-9.294,-1.204,-3.273,2.24,1.33,0.49
,-9.335,-1.144,-3.221,-9.273,-1.163,-3.29,2.52,1.47,0.49
7497.0,-9.277,-1.213,-3.278,-9.335,-1.101,-3.396,1.96,1.4,0.63
,-9.244,-1.201,-3.25,-9.239,-1.211,-3.362,2.17,1.61,0.7
,-9.287,-1.237,-3.285,-9.265,-1.247,-3.36,2.59,1.75,0.84
,-9.299,-1.144,-3.326,-9.268,-1.292,-3.36,2.73,1.75,0.84
7572.0,-9.263,-1.216,-3.281,-9.308,-1.125,-3.23,4.13,1.54,1.12
,-9.325,-1.204,-3.257,-9.284,-1.17,-3.238,3.85,1.54,1.26
,-9.32,-1.125,-3.187,-9.261,-1.194,-3.281,3.64,1.47,1.12
,-9.308,-1.122,-3.233,-9.306,-1.165,-3.281,2.87,1.26,1.05
7648.0,-9.311,-1.108,-3.238,-9.249,-1.173,-3.257,2.03,1.61,0.84
,-9.308,-1.137,-3.369,-9.299,-1.175,-3.307,1.61,1.4,0.7
,-9.325,-1.182,-3.338,-9.323,-1.113,-3.238,1.54,1.26,0.63
,-9.256,-1.235,-3.312,-9.289,-1.072,-3.264,1.82,1.33,0.91
7723.0,-9.313,-1.134,-3.228,-9.17,-1.213,-3.324,2.8,1.54,0.91
,-9.311,-1.216,-3.257,-9.249,-1.283,-3.257,2.52,1.61,0.84
,-9.241,-1.163,-3.343,-9.383,-1.228,-3.252,2.87,1.54,0.77
,-9.28,-1.146,-3.393,-9.361,-1.137,-3.238,2.8,1.47,0.77
7799.0,-9.299,-0.983,-3.197,-9.28,-1.156,-3.367,2.87,1.47,0.84
,-9.318,-1.053,-3.269,-9.155,-1.199,-3.357,2.17,1.61,0.84
,-9.265,-1.156,-3.285,-9.258,-1.175,-3.4,1.75,1.54,0.77
,-9.332,-1.218,-3.34,-9.34,-1.134,-3.403,2.03,1.26,0.63
7875.0,-9.301,-1.163,-3.252,-9.296,-1.175,-3.214,2.94,1.33,0.77
,-9.323,-1.192,-3.23,-9.256,-1.206,-3.254,2.87,1.4,0.77
,-9.344,-1.192,-3.233,-9.284,-1.247,-3.242,2.87,1.26,0.63
,-9.296,-1.134,-3.233,-9.21,-1.22,-3.238,2.8,1.19,0.56
7951.0,-9.308,-1.237,-3.195,-9.263,-1.137,-3.307,3.36,2.03,0.77
,-9.301,-1.17,-3.211,-9.232,-1.18,-3.348,3.36,1.89,0.77
,-9.304,-1.091,-3.199,-9.316,-1.187,-3.319,2.94,1.96,0.77
,-9.342,-1.074,-3.269,-9.311,-1.17,-3.29,2.03,1.82,0.63
8027.0,-9.316,-1.125,-3.235,-9.184,-1.228,-3.527,2.73,1.96,0.42
,-9.356,-1.137,-3.247,-9.208,-1.328,-3.467,2.59,1.89,0.49
,-9.359,-1.12,-3.348,-9.22,-1.287,-3.388,1.96,1.75,0.28
,-9.289,-1.141,-3.364,-9.28,-1.242,-3.348,1.4,1.68,0.28
8102.0,-9.277,-1.184,-3.333,-9.284,-1.182,-3.367,3.29,1.33,0.7
,-9.304,-1.12,-3.283,-9.244,-1.182,-3.343,2.87,1.26,0.56
,-9.347,-1.146,-3.254,-9.217,-1.273,-3.348,2.24,1.05,0.63
,-9.323,-1.182,-3.324,-9.253,-1.24,-3.293,1.96,1.05,0.56
8178.0,-9.335,-1.144,-3.264,-9.308,-1.225,-3.204,3.78,0.98,0.77
,-9.289,-1.122,-3.259,-9.32,-1.168,-3.3,3.08,0.98,0.77
,-9.27,-1.213,-3.19,-9.296,-1.187,-3.319,2.24,1.05,0.77
,-9.275,-1.297,-3.154,-9.275,-1.223,-3.348,2.38,0.91,0.7
8254.0,-9.249,-1.256,-3.364,-9.325,-1.149,-3.147,2.59,0.98,0.77
,-9.234,-1.287,-3.338,-9.273,-1.122,-3.175,2.94,1.05,0.91
,-9.275,-1.228,-3.278,-9.294,-1.086,-3.178,2.8,1.05,0.98
,-9.277,-1.18,-3.223,-9.299,-1.127,-3.305,3.01,1.12,0.98
8330.0,-9.299,-1.201,-3.314,-9.268,-1.216,-3.23,1.75,1.19,0.77
,-9.287,-1.249,-3.376,-9.399,-1.122,-3.233,2.1,1.4,0.91
,-9.273,-1.213,-3.326,-9.361,-1.115,-3.259,2.73,1.4,0.98
,-9.196,-1.24,-3.319,-9.277,-1.139,-3.285,3.15,1.4,0.91
8405.0,-9.273,-1.184,-3.331,-9.335,-1.196,-3.226,1.89,1.33,0.91
,-9.22,-1.263,-3.319,-9.308,-1.151,-3.223,2.38,1.54,0.91
,-9.203,-1.163,-3.307,-9.275,-1.129,-3.206,2.94,1.4,0.91
,-9.323,-1.144,-3.281,-9.222,-1.113,-3.209,3.01,1.4,0.98
8481.0,-9.289,-1.129,-3.221,-9.33,-1.208,-3.197,1.61,1.47,0.56
,-9.311,-1.158,-3.173,-9.354,-1.149,-3.259,1.47,1.75,0.63
,-9.318,-1.24,-3.159,-9.28,-1.129,-3.384,1.68,1.96,0.84
,-9.368,-1.263,-3.195,-9.299,-1.151,-3.479,2.24,2.17,0.84
8556.0,-9.256,-1.216,-3.51,-9.284,-1.053,-3.259,1.96,1.82,0.63
,-9.227,-1.273,-3.563,-9.368,-1.043,-3.216,2.73,1.54,0.7
,-9.182,-1.244,-3.522,-9.32,-1.086,-3.183,3.64,1.4,0.91
,-9.275,-1.141,-3.458,-9.265,-1.247,-3.175,4.48,1.47,1.05
8632.0,-9.306,-1.266,-3.19,-9.282,-1.213,-3.269,1.82,1.26,0.7
,-9.313,-1.216,-3.242,-9.32,-1.144,-3.319,2.17,1.33,0.77
,-9.28,-1.156,-3.259,-9.306,-1.132,-3.372,2.1,1.4,0.7
,-9.275,-1.18,-3.24,-9.261,-1.163,-3.384,1.75,1.61,0.84
8708.0,-9.239,-1.149,-3.393,-9.304,-1.232,-3.3,2.45,1.19,0.63
,-9.28,-1.132,-3.403,-9.265,-1.275,-3.211,2.94,1.12,0.56
,-9.289,-1.156,-3.396,-9.292,-1.223,-3.273,2.94,0.77,0.42
,-9.32,-1.151,-3.307,-9.306,-1.184,-3.297,2.66,0.98,0.49
8784.0,-9.258,-1.173,-3.338,-9.294,-1.182,-3.271,2.24,0.63,0.7
,-9.244,-1.196,-3.4,-9.332,-1.103,-3.271,2.03,0.49,0.7
,-9.239,-1.247,-3.326,-9.363,-1.153,-3.238,2.31,0.42,0.7
,-9.258,-1.165,-3.305,-9.275,-1.23,-3.185,2.66,0.56,0.84
8860.0,-9.304,-1.113,-3.099,-9.318,-1.218,-3.25,2.45,0.98,0.84
,-9.287,-1.022,-3.161,-9.239,-1.206,-3.168,2.52,1.05,0.77
,-9.316,-1.153,-3.218,-9.237,-1.177,-3.183,2.24,0.84,0.42
,-9.275,-1.18,-3.216,-9.328,-1.189,-3.199,2.1,0.84,0.42
8935.0,-9.313,-1.18,-3.068,-9.342,-1.163,-3.218,2.31,1.47,0.77
,-9.313,-1.237,-3.118,-9.265,-1.22,-3.283,1.89,1.47,0.77
,-9.263,-1.292,-3.128,-9.256,-1.208,-3.317,1.75,1.68,0.77
,-9.332,-1.211,-3.159,-9.311,-1.17,-3.384,2.31,1.89,0.91
9011.0,-9.294,-1.113,-3.52,-9.33,-1.153,-3.343,3.08,1.61,0.91
,-9.229,-1.18,-3.448,-9.344,-1.07,-3.266,3.15,1.54,0.91
,-9.208,-1.283,-3.412,-9.294,-1.12,-3.183,3.64,1.54,1.05
,-9.244,-1.216,-3.396,-9.287,-1.218,-3.065,4.34,1.4,1.12
9087.0,-9.282,-1.192,-3.089,-9.241,-1.173,-3.379,3.22,1.47,1.26
,-9.366,-1.232,-3.132,-9.263,-1.184,-3.405,3.36,1.47,1.26
,-9.368,-1.137,-3.23,-9.277,-1.125,-3.429,3.15,1.47,1.12
,-9.292,-1.125,-3.29,-9.304,-1.113,-3.376,2.8,1.47,1.05
9163.0,-9.301,-1.168,-3.305,-9.318,-1.165,-3.113,2.73,0.98,0.77
,-9.268,-1.163,-3.211,-9.351,-1.17,-3.108,2.59,1.19,0.91
,-9.294,-1.211,-3.175,-9.299,-1.201,-3.197,2.66,1.26,0.84
,-9.325,-1.192,-3.113,-9.287,-1.196,-3.238,3.01,1.4,0.91
9238.0,-9.316,-1.168,-3.297,-9.251,-1.141,-3.441,1.68,1.54,0.63
,-9.282,-1.151,-3.345,-9.265,-1.251,-3.41,1.68,1.54,0.63
,-9.323,-1.165,-3.448,-9.237,-1.263,-3.317,1.75,1.4,0.56
,-9.273,-1.101,-3.427,-9.33,-1.165,-3.314,1.89,1.19,0.56
9314.0,-9.316,-1.146,-3.245,-9.33,-1.127,-3.151,4.34,1.05,0.98
,-9.265,-1.156,-3.209,-9.313,-1.144,-3.175,3.92,1.05,1.05
,-9.296,-1.184,-3.132,-9.371,-1.127,-3.209,3.64,1.19,0.98
,-9.282,-1.196,-3.13,-9.296,-1.149,-3.283,3.5,1.26,0.84
9389.0,-9.258,-1.161,-3.324,-9.249,-1.249,-3.307,1.54,1.54,0.63
,-9.282,-1.156,-3.388,-9.251,-1.206,-3.247,1.96,1.33,0.56
,-9.299,-1.113,-3.417,-9.34,-1.299,-3.171,2.31,1.33,0.63
,-9.251,-1.137,-3.355,-9.349,-1.283,-3.156,2.52,1.33,0.77
9465.0,-9.296,-1.206,-3.139,-9.292,-1.213,-3.283,3.5,1.61,0.91
,-9.265,-1.175,-3.202,-9.282,-1.208,-3.223,3.29,1.54,0.98
,-9.251,-1.108,-3.235,-9.28,-1.275,-3.192,2.73,1.68,0.91
,-9.308,-1.192,-3.223,-9.337,-1.225,-3.262,1.96,1.54,0.77
9541.0,-9.356,-1.199,-3.297,-9.275,-1.077,-3.494,1.54,1.68,1.05
,-9.311,-1.201,-3.35,-9.249,-1.199,-3.393,1.68,1.68,1.19
,-9.296,-1.062,-3.46,-9.253,-1.259,-3.321,2.03,1.61,0.98
,-9.301,-1.017,-3.496,-9.311,-1.168,-3.254,2.17,1.47,0.77
9617.0,-9.311,-1.101,-3.183,-9.344,-1.208,-3.061,4.2,1.12,0.98
,-9.33,-1.11,-3.099,-9.373,-1.132,-3.144,3.43,1.33,1.05
,-9.261,-1.206,-3.068,-9.268,-1.134,-3.156,2.8,1.33,0.98
,-9.287,-1.271,-3.015,-9.287,-1.146,-3.223,2.87,1.54,0.84
9693.0,-9.277,-1.125,-3.297,-9.282,-1.153,-3.305,1.33,1.82,0.63
,-9.289,-1.161,-3.376,-9.299,-1.182,-3.336,1.75,1.89,0.63
,-9.258,-1.089,-3.419,-9.265,-1.206,-3.329,2.1,1.75,0.56
,-9.287,-1.137,-3.381,-9.292,-1.397,-3.101,2.24,1.68,0.49
9768.0,-9.308,-1.17,-3.23,-9.217,-1.182,-3.118,4.06,1.82,0.84
,-9.284,-1.165,-3.037,-9.253,-1.232,-3.302,3.92,1.89,0.91
,-9.349,-0.979,-3.269,-9.289,-1.364,-3.254,3.71,1.96,0.7
,-9.304,-1.077,-3.154,-9.306,-1.29,-3.166,2.17,1.89,0.49
