Timestamp,AccX,AccY,AccZ,GyroX,GyroY,GyroZ,MagnX,MagnY,MagnZ
0.0,-9.332,-0.742,-3.319,-9.325,-0.725,-3.317,2.94,1.05,0.7
,-9.301,-0.73,-3.372,-9.316,-0.751,-3.302,3.01,1.19,0.77
,-9.301,-0.766,-3.34,-9.289,-0.737,-3.262,3.01,1.26,0.7
,-9.316,-0.768,-3.302,-9.32,-0.732,-3.278,3.01,1.19,0.77
76.0,-9.366,-0.759,-3.257,-9.347,-0.708,-3.4,2.94,1.47,0.77
,-9.33,-0.739,-3.3,-9.304,-0.708,-3.364,3.01,1.61,0.77
,-9.335,-0.72,-3.288,-9.344,-0.694,-3.393,2.8,1.4,0.77
,-9.335,-0.706,-3.362,-9.337,-0.694,-3.357,2.8,1.33,0.84
152.0,-9.316,-0.735,-3.345,-9.335,-0.727,-3.357,2.45,1.47,0.56
,-9.335,-0.692,-3.364,-9.316,-0.742,-3.367,2.45,1.4,0.56
,-9.277,-0.718,-3.343,-9.313,-0.766,-3.355,2.59,1.19,0.7
,-9.313,-0.754,-3.317,-9.318,-0.761,-3.319,2.66,1.19,0.7
228.0,-9.359,-0.739,-3.297,-9.335,-0.739,-3.262,3.01,1.12,0.77
,-9.301,-0.737,-3.276,-9.328,-0.696,-3.324,3.01,1.12,0.91
,-9.359,-0.792,-3.259,-9.287,-0.72,-3.293,3.08,1.19,0.91
,-9.354,-0.766,-3.264,-9.323,-0.696,-3.352,3.08,1.4,0.98
304.0,-9.282,-0.689,-3.357,-9.299,-0.718,-3.367,2.52,1.47,0.77
,-9.306,-0.696,-3.403,-9.289,-0.665,-3.388,2.38,1.33,0.77
,-9.313,-0.706,-3.348,-9.246,-0.718,-3.36,2.38,1.19,0.7
,-9.32,-0.73,-3.384,-9.325,-0.73,-3.326,2.45,1.26,0.77
380.0,-9.361,-0.706,-3.333,-9.323,-0.761,-3.302,2.24,1.26,0.77
,-9.344,-0.73,-3.321,-9.304,-0.727,-3.283,2.24,1.19,0.7
,-9.328,-0.737,-3.262,-9.371,-0.711,-3.297,2.24,1.33,0.77
,-9.332,-0.763,-3.319,-9.275,-0.768,-3.336,2.45,1.4,0.84
456.0,-9.284,-0.749,-3.324,-9.33,-0.725,-3.324,2.59,1.4,0.84
,-9.287,-0.732,-3.34,-9.292,-0.756,-3.324,2.66,1.47,0.84
,-9.328,-0.715,-3.317,-9.294,-0.723,-3.283,2.59,1.26,0.84
,-9.325,-0.72,-3.3,-9.292,-0.759,-3.343,2.66,1.19,0.84
532.0,-9.347,-0.763,-3.324,-9.337,-0.732,-3.293,2.17,1.19,0.7
,-9.361,-0.749,-3.317,-9.373,-0.725,-3.297,2.31,1.26,0.7
,-9.323,-0.761,-3.29,-9.342,-0.739,-3.307,2.45,1.33,0.84
,-9.325,-0.744,-3.29,-9.313,-0.708,-3.278,2.31,1.47,0.91
608.0,-9.337,-0.727,-3.307,-9.328,-0.759,-3.362,2.45,1.4,0.77
,-9.337,-0.725,-3.319,-9.239,-0.723,-3.374,2.45,1.54,0.77
,-9.323,-0.756,-3.278,-9.387,-0.68,-3.348,2.38,1.47,0.77
,-9.337,-0.747,-3.309,-9.328,-0.696,-3.369,2.45,1.4,0.77
684.0,-9.287,-0.727,-3.331,-9.308,-0.696,-3.317,2.8,1.26,0.84
,-9.318,-0.725,-3.36,-9.311,-0.742,-3.269,3.01,1.19,0.84
,-9.332,-0.704,-3.348,-9.347,-0.744,-3.223,3.29,1.05,0.77
,-9.335,-0.727,-3.362,-9.344,-0.668,-3.297,3.5,1.19,0.84
760.0,-9.34,-0.768,-3.214,-9.349,-0.706,-3.269,3.22,1.4,0.91
,-9.344,-0.756,-3.218,-9.354,-0.747,-3.185,3.15,1.33,0.84
,-9.411,-0.751,-3.25,-9.366,-0.797,-3.4,3.01,1.33,0.77
,-9.375,-0.68,-3.24,-9.304,-0.701,-3.403,2.87,1.4,0.77
836.0,-9.325,-0.704,-3.412,-9.282,-0.727,-3.281,2.73,1.61,0.77
,-9.337,-0.696,-3.374,-9.323,-0.732,-3.324,2.38,1.68,0.77
,-9.337,-0.718,-3.372,-9.311,-0.706,-3.35,2.24,1.54,0.84
,-9.34,-0.761,-3.314,-9.337,-0.718,-3.352,2.31,1.4,0.7
912.0,-9.323,-0.711,-3.293,-9.296,-0.737,-3.276,2.94,1.33,0.7
,-9.304,-0.751,-3.34,-9.344,-0.766,-3.273,2.94,1.4,0.84
,-9.301,-0.689,-3.3,-9.328,-0.723,-3.285,3.01,1.33,0.7
,-9.371,-0.727,-3.295,-9.32,-0.73,-3.288,2.94,1.33,0.77
988.0,-9.342,-0.713,-3.257,-9.299,-0.79,-3.329,3.08,1.4,0.7
,-9.373,-0.763,-3.278,-9.28,-0.735,-3.305,3.08,1.33,0.77
,-9.316,-0.737,-3.29,-9.323,-0.72,-3.326,3.15,1.54,0.91
,-9.335,-0.756,-3.276,-9.325,-0.766,-3.319,3.01,1.68,0.98
1064.0,-9.32,-0.711,-3.362,-9.308,-0.735,-3.345,2.73,1.68,0.84
,-9.323,-0.732,-3.35,-9.318,-0.773,-3.36,2.66,1.54,0.84
,-9.316,-0.751,-3.391,-9.299,-0.749,-3.35,2.73,1.4,0.77
,-9.308,-0.756,-3.381,-9.299,-0.732,-3.329,2.8,1.33,0.77
1140.0,-9.284,-0.742,-3.329,-9.318,-0.756,-3.295,2.8,1.05,0.84
,-9.354,-0.732,-3.312,-9.335,-0.711,-3.307,2.73,1.12,0.84
,-9.287,-0.727,-3.317,-9.335,-0.739,-3.259,2.73,0.98,0.77
,-9.325,-0.732,-3.329,-9.308,-0.718,-3.288,2.52,0.84,0.77
1216.0,-9.316,-0.749,-3.257,-9.323,-0.754,-3.278,2.45,1.19,0.77
,-9.289,-0.742,-3.262,-9.306,-0.744,-3.285,2.38,1.19,0.7
,-9.34,-0.735,-3.3,-9.325,-0.73,-3.314,2.45,1.26,0.77
,-9.332,-0.751,-3.297,-9.38,-0.725,-3.324,2.45,1.33,0.7
1292.0,-9.351,-0.725,-3.312,-9.273,-0.744,-3.333,2.52,1.26,0.84
,-9.284,-0.715,-3.348,-9.361,-0.737,-3.329,2.31,0.98,0.77
,-9.282,-0.749,-3.355,-9.356,-0.739,-3.281,2.38,1.05,0.7
,-9.361,-0.751,-3.35,-9.373,-0.739,-3.266,2.59,1.19,0.91
1368.0,-9.335,-0.79,-3.242,-9.308,-0.713,-3.307,2.52,1.19,0.91
,-9.304,-0.749,-3.3,-9.347,-0.737,-3.29,2.73,1.12,0.91
,-9.32,-0.742,-3.3,-9.325,-0.787,-3.283,3.01,1.05,0.98
,-9.304,-0.735,-3.329,-9.289,-0.749,-3.293,2.94,1.12,0.84
1444.0,-9.332,-0.72,-3.273,-9.359,-0.727,-3.276,2.66,0.98,0.84
,-9.342,-0.682,-3.307,-9.363,-0.72,-3.23,2.52,0.84,0.77
,-9.311,-0.732,-3.288,-9.34,-0.747,-3.252,2.31,0.91,0.7
,-9.32,-0.713,-3.305,-9.363,-0.747,-3.214,2.24,0.84,0.63
1520.0,-9.359,-0.742,-3.221,-9.311,-0.747,-3.312,2.45,1.26,0.77
,-9.371,-0.725,-3.252,-9.304,-0.747,-3.388,2.24,1.47,0.84
,-9.347,-0.687,-3.242,-9.311,-0.665,-3.384,2.31,1.4,0.84
,-9.299,-0.727,-3.312,-9.308,-0.687,-3.34,2.24,1.33,0.77
1596.0,-9.335,-0.713,-3.35,-9.371,-0.723,-3.362,2.17,1.26,0.77
,-9.361,-0.723,-3.321,-9.359,-0.737,-3.336,2.1,1.19,0.84
,-9.296,-0.739,-3.355,-9.304,-0.797,-3.338,2.31,1.05,0.84
,-9.344,-0.727,-3.326,-9.328,-0.759,-3.307,2.59,0.98,0.84
1672.0,-9.33,-0.773,-3.266,-9.368,-0.759,-3.254,2.8,0.91,0.84
,-9.335,-0.704,-3.252,-9.337,-0.73,-3.269,2.94,0.77,0.91
,-9.349,-0.72,-3.257,-9.356,-0.754,-3.221,2.87,0.91,0.91
,-9.344,-0.727,-3.259,-9.342,-0.723,-3.283,2.73,0.91,0.63
1748.0,-9.344,-0.73,-3.245,-9.335,-0.723,-3.309,3.01,1.05,0.77
,-9.325,-0.768,-3.271,-9.347,-0.723,-3.283,3.01,1.12,0.84
,-9.289,-0.739,-3.254,-9.325,-0.711,-3.245,2.94,1.05,0.84
,-9.332,-0.723,-3.242,-9.32,-0.744,-3.264,2.94,1.26,0.84
1824.0,-9.368,-0.759,-3.269,-9.354,-0.751,-3.278,2.38,1.05,0.77
,-9.351,-0.723,-3.321,-9.318,-0.737,-3.273,2.66,1.19,0.77
,-9.311,-0.723,-3.3,-9.342,-0.785,-3.278,2.66,1.4,0.84
,-9.32,-0.749,-3.283,-9.318,-0.732,-3.218,2.52,1.19,0.77
1900.0,-9.323,-0.73,-3.295,-9.378,-0.699,-3.24,2.59,1.19,0.77
,-9.318,-0.756,-3.29,-9.34,-0.699,-3.23,2.73,1.33,0.91
,-9.363,-0.723,-3.242,-9.359,-0.766,-3.307,2.73,1.19,0.7
,-9.342,-0.723,-3.273,-9.328,-0.766,-3.295,2.8,1.19,0.84
1976.0,-9.313,-0.756,-3.3,-9.378,-0.72,-3.262,2.8,1.05,0.7
,-9.34,-0.725,-3.338,-9.311,-0.715,-3.245,2.66,1.12,0.84
,-9.318,-0.744,-3.319,-9.323,-0.73,-3.254,2.73,1.05,0.84
,-9.337,-0.727,-3.266,-9.325,-0.749,-3.223,2.59,1.12,0.7
2052.0,-9.342,-0.694,-3.192,-9.354,-0.768,-3.19,2.87,1.05,0.91
,-9.32,-0.739,-3.226,-9.337,-0.751,-3.235,2.8,1.33,0.91
,-9.342,-0.78,-3.216,-9.323,-0.742,-3.283,2.66,1.05,0.91
,-9.373,-0.744,-3.23,-9.323,-0.725,-3.29,2.66,1.26,0.91
2128.0,-9.301,-0.739,-3.29,-9.33,-0.72,-3.336,2.73,1.4,0.98
,-9.354,-0.739,-3.283,-9.306,-0.756,-3.295,2.73,1.33,0.91
,-9.308,-0.727,-3.257,-9.34,-0.739,-3.297,2.87,1.19,0.84
,-9.337,-0.73,-3.271,-9.32,-0.771,-3.295,3.08,1.05,0.84
2204.0,-9.354,-0.694,-3.262,-9.344,-0.732,-3.206,2.8,0.98,0.77
,-9.359,-0.735,-3.252,-9.328,-0.759,-3.202,2.8,0.77,0.7
,-9.342,-0.747,-3.264,-9.404,-0.737,-3.24,2.59,0.7,0.77
,-9.335,-0.704,-3.257,-9.361,-0.704,-3.211,2.66,0.91,0.77
2280.0,-9.316,-0.751,-3.252,-9.301,-0.744,-3.324,2.87,1.12,0.77
,-9.335,-0.761,-3.25,-9.366,-0.701,-3.302,2.73,1.05,0.77
,-9.361,-0.706,-3.293,-9.361,-0.701,-3.278,2.87,1.05,0.84
,-9.342,-0.749,-3.242,-9.347,-0.756,-3.276,3.01,1.33,0.98
2356.0,-9.325,-0.723,-3.23,-9.349,-0.787,-3.288,2.73,0.98,0.84
,-9.335,-0.727,-3.199,-9.33,-0.747,-3.23,2.8,0.98,0.77
,-9.337,-0.763,-3.295,-9.373,-0.756,-3.259,2.66,0.91,0.84
,-9.344,-0.742,-3.235,-9.347,-0.708,-3.235,2.8,1.05,0.84
2432.0,-9.335,-0.706,-3.238,-9.296,-0.692,-3.254,2.66,0.91,0.84
,-9.349,-0.706,-3.288,-9.354,-0.694,-3.245,2.66,1.19,0.98
,-9.311,-0.699,-3.242,-9.325,-0.73,-3.25,2.8,1.12,0.98
,-9.313,-0.699,-3.23,-9.32,-0.718,-3.269,2.8,1.12,0.84
2508.0,-9.301,-0.711,-3.276,-9.308,-0.773,-3.211,2.52,0.98,0.7
,-9.325,-0.704,-3.202,-9.349,-0.763,-3.252,2.59,1.05,0.77
,-9.332,-0.749,-3.216,-9.39,-0.747,-3.228,2.66,1.19,0.77
,-9.323,-0.771,-3.276,-9.354,-0.749,-3.23,2.66,1.05,0.7
2584.0,-9.347,-0.744,-3.259,-9.342,-0.754,-3.18,2.52,1.12,0.77
,-9.328,-0.718,-3.183,-9.335,-0.735,-3.242,2.52,1.19,0.77
,-9.356,-0.751,-3.171,-9.337,-0.727,-3.247,2.59,1.26,0.77
,-9.392,-0.72,-3.228,-9.294,-0.72,-3.23,2.59,1.19,0.84
2660.0,-9.354,-0.72,-3.228,-9.318,-0.72,-3.264,2.38,1.54,0.84
,-9.373,-0.718,-3.252,-9.359,-0.727,-3.281,2.38,1.61,0.91
,-9.368,-0.699,-3.278,-9.344,-0.718,-3.281,2.45,1.54,0.84
,-9.344,-0.759,-3.262,-9.361,-0.744,-3.209,2.52,1.61,0.84
2736.0,-9.342,-0.732,-3.247,-9.383,-0.735,-3.259,2.45,1.4,0.84
,-9.356,-0.747,-3.259,-9.318,-0.723,-3.271,2.52,1.4,0.91
,-9.375,-0.754,-3.254,-9.335,-0.763,-3.257,2.59,1.4,0.84
,-9.39,-0.699,-3.269,-9.371,-0.732,-3.312,2.52,1.12,0.77
2812.0,-9.328,-0.742,-3.264,-9.318,-0.744,-3.25,2.52,1.4,0.91
,-9.349,-0.713,-3.264,-9.332,-0.763,-3.276,2.45,1.4,0.84
,-9.332,-0.725,-3.273,-9.347,-0.739,-3.226,2.31,1.19,0.77
,-9.363,-0.756,-3.25,-9.347,-0.708,-3.245,2.24,1.12,0.63
2888.0,-9.347,-0.725,-3.257,-9.354,-0.727,-3.24,2.52,1.12,0.7
,-9.351,-0.704,-3.228,-9.347,-0.701,-3.262,2.52,1.26,0.84
,-9.337,-0.718,-3.238,-9.359,-0.708,-3.202,2.45,1.19,0.77
,-9.342,-0.759,-3.293,-9.335,-0.732,-3.211,2.45,1.19,0.7
2964.0,-9.344,-0.763,-3.171,-9.383,-0.739,-3.23,1.96,1.33,0.7
,-9.328,-0.735,-3.233,-9.342,-0.725,-3.235,2.1,1.33,0.7
,-9.33,-0.737,-3.269,-9.351,-0.735,-3.242,2.38,1.26,0.7
,-9.337,-0.735,-3.226,-9.337,-0.727,-3.245,2.52,1.4,0.91
3040.0,-9.347,-0.696,-3.252,-9.368,-0.699,-3.288,2.87,1.47,0.77
,-9.332,-0.713,-3.293,-9.368,-0.708,-3.25,2.87,1.47,0.84
,-9.332,-0.732,-3.283,-9.328,-0.761,-3.247,2.87,1.47,0.84
,-9.347,-0.701,-3.226,-9.399,-0.665,-3.29,2.87,1.33,0.84
3116.0,-9.383,-0.749,-3.269,-9.342,-0.804,-3.173,2.52,1.19,0.84
,-9.311,-0.725,-3.235,-9.328,-0.735,-3.199,2.66,1.33,0.84
,-9.306,-0.711,-3.206,-9.349,-0.749,-3.159,2.59,1.19,0.77
,-9.33,-0.708,-3.228,-9.354,-0.737,-3.216,2.52,1.33,0.91
3192.0,-9.318,-0.718,-3.18,-9.34,-0.699,-3.264,2.45,1.4,0.7
,-9.316,-0.715,-3.24,-9.373,-0.759,-3.245,2.38,1.47,0.7
,-9.351,-0.696,-3.209,-9.354,-0.723,-3.252,2.31,1.54,0.7
,-9.354,-0.715,-3.221,-9.347,-0.715,-3.25,2.31,1.47,0.77
3268.0,-9.294,-0.756,-3.264,-9.375,-0.72,-3.254,2.52,1.75,0.84
,-9.361,-0.79,-3.266,-9.335,-0.744,-3.242,2.52,1.75,0.84
,-9.34,-0.735,-3.19,-9.363,-0.718,-3.242,2.45,1.61,0.63
,-9.332,-0.739,-3.25,-9.38,-0.763,-3.281,2.52,1.54,0.63
3344.0,-9.32,-0.718,-3.247,-9.34,-0.737,-3.24,2.31,1.47,0.7
,-9.342,-0.73,-3.262,-9.33,-0.704,-3.257,2.24,1.68,0.77
,-9.335,-0.732,-3.245,-9.371,-0.732,-3.257,2.31,1.68,0.84
,-9.332,-0.754,-3.228,-9.349,-0.701,-3.283,2.45,1.82,0.91
3420.0,-9.33,-0.704,-3.235,-9.325,-0.737,-3.314,2.38,1.61,0.77
,-9.38,-0.713,-3.273,-9.306,-0.773,-3.314,2.1,1.68,0.7
,-9.342,-0.754,-3.254,-9.335,-0.735,-3.262,1.96,1.61,0.63
,-9.347,-0.771,-3.295,-9.351,-0.706,-3.245,2.1,1.61,0.63
3496.0,-9.373,-0.766,-3.242,-9.337,-0.715,-3.24,2.24,1.68,0.77
,-9.335,-0.725,-3.247,-9.34,-0.747,-3.238,2.31,1.61,0.77
,-9.342,-0.711,-3.259,-9.306,-0.725,-3.23,2.31,1.47,0.77
,-9.335,-0.689,-3.238,-9.344,-0.737,-3.252,2.38,1.61,0.7
3572.0,-9.311,-0.701,-3.23,-9.34,-0.689,-3.324,2.87,1.82,0.77
,-9.337,-0.706,-3.223,-9.328,-0.715,-3.293,2.59,1.96,0.77
,-9.335,-0.739,-3.259,-9.325,-0.715,-3.314,2.59,1.96,0.77
,-9.347,-0.66,-3.307,-9.282,-0.766,-3.312,2.38,1.89,0.77
3648.0,-9.378,-0.732,-3.266,-9.323,-0.692,-3.273,2.59,1.68,0.91
,-9.328,-0.708,-3.247,-9.371,-0.725,-3.281,2.59,1.82,0.91
,-9.359,-0.759,-3.266,-9.351,-0.73,-3.285,2.59,1.75,0.84
,-9.301,-0.727,-3.221,-9.349,-0.723,-3.29,2.73,1.61,0.77
3724.0,-9.325,-0.756,-3.29,-9.316,-0.715,-3.317,2.66,1.61,0.7
,-9.311,-0.713,-3.264,-9.359,-0.756,-3.3,2.45,1.54,0.63
,-9.349,-0.668,-3.276,-9.313,-0.732,-3.302,2.45,1.47,0.7
,-9.34,-0.713,-3.309,-9.328,-0.727,-3.295,2.66,1.54,0.7
3800.0,-9.323,-0.763,-3.278,-9.33,-0.744,-3.295,2.66,1.33,0.77
,-9.347,-0.756,-3.259,-9.359,-0.744,-3.283,2.8,1.4,0.84
,-9.342,-0.751,-3.271,-9.351,-0.727,-3.269,2.8,1.47,0.77
,-9.33,-0.754,-3.273,-9.311,-0.713,-3.266,2.66,1.47,0.7
3876.0,-9.366,-0.704,-3.264,-9.33,-0.739,-3.273,2.59,1.47,0.77
,-9.316,-0.711,-3.276,-9.306,-0.747,-3.331,2.73,1.54,0.77
,-9.292,-0.718,-3.295,-9.347,-0.737,-3.331,2.59,1.47,0.77
,-9.344,-0.742,-3.29,-9.289,-0.701,-3.309,2.73,1.54,0.7
3952.0,-9.318,-0.742,-3.247,-9.349,-0.725,-3.226,2.59,1.4,0.63
,-9.323,-0.708,-3.276,-9.332,-0.763,-3.29,2.73,1.33,0.77
,-9.423,-0.756,-3.254,-9.351,-0.725,-3.281,2.73,1.33,0.7
,-9.313,-0.684,-3.25,-9.342,-0.749,-3.25,2.66,1.12,0.63
4028.0,-9.328,-0.735,-3.259,-9.308,-0.782,-3.269,2.8,1.47,0.7
,-9.385,-0.763,-3.262,-9.337,-0.694,-3.276,2.94,1.47,0.7
,-9.308,-0.699,-3.264,-9.328,-0.699,-3.333,2.94,1.54,0.84
,-9.342,-0.715,-3.262,-9.337,-0.677,-3.281,2.94,1.54,0.84
4104.0,-9.318,-0.713,-3.312,-9.347,-0.687,-3.305,2.73,1.54,0.77
,-9.323,-0.754,-3.348,-9.304,-0.735,-3.283,2.8,1.33,0.63
,-9.32,-0.692,-3.333,-9.34,-0.778,-3.302,2.73,1.26,0.7
,-9.311,-0.725,-3.276,-9.347,-0.699,-3.257,2.66,1.26,0.63
4180.0,-9.325,-0.706,-3.288,-9.337,-0.773,-3.238,2.52,1.4,0.7
,-9.344,-0.682,-3.202,-9.385,-0.727,-3.235,2.52,1.19,0.63
,-9.366,-0.778,-3.221,-9.318,-0.761,-3.276,2.38,1.4,0.63
,-9.363,-0.763,-3.202,-9.323,-0.706,-3.223,2.59,1.61,0.7
4256.0,-9.356,-0.759,-3.309,-9.292,-0.682,-3.348,2.17,1.75,0.7
,-9.399,-0.749,-3.302,-9.325,-0.73,-3.355,2.31,1.89,0.77
,-9.308,-0.732,-3.312,-9.306,-0.744,-3.336,2.31,1.68,0.77
,-9.304,-0.696,-3.297,-9.311,-0.737,-3.343,2.31,1.54,0.77
4332.0,-9.335,-0.744,-3.355,-9.328,-0.715,-3.273,2.59,1.33,0.77
,-9.32,-0.763,-3.34,-9.342,-0.785,-3.278,2.59,1.19,0.7
,-9.311,-0.713,-3.297,-9.332,-0.739,-3.266,2.52,1.19,0.7
,-9.344,-0.756,-3.264,-9.383,-0.732,-3.24,2.59,1.26,0.77
4408.0,-9.397,-0.737,-3.242,-9.335,-0.704,-3.295,2.59,1.4,0.7
,-9.337,-0.735,-3.25,-9.301,-0.759,-3.317,2.59,1.4,0.84
,-9.354,-0.715,-3.285,-9.306,-0.756,-3.29,2.66,1.33,0.84
,-9.354,-0.763,-3.23,-9.316,-0.682,-3.336,2.66,1.4,0.84
4484.0,-9.306,-0.708,-3.297,-9.328,-0.701,-3.321,2.52,1.4,0.84
,-9.347,-0.699,-3.331,-9.328,-0.718,-3.305,2.66,1.47,0.91
,-9.328,-0.742,-3.331,-9.34,-0.802,-3.295,2.59,1.33,0.91
,-9.356,-0.73,-3.288,-9.368,-0.771,-3.288,2.59,1.26,0.91
4560.0,-9.351,-0.751,-3.295,-9.342,-0.737,-3.262,2.59,1.05,0.84
,-9.308,-0.715,-3.305,-9.351,-0.715,-3.266,2.59,1.19,0.84
,-9.323,-0.72,-3.302,-9.328,-0.754,-3.259,2.45,1.12,0.84
,-9.344,-0.723,-3.293,-9.371,-0.737,-3.23,2.52,1.12,0.84
4636.0,-9.361,-0.761,-3.235,-9.335,-0.725,-3.285,2.45,1.26,0.91
,-9.328,-0.706,-3.238,-9.311,-0.737,-3.271,2.52,1.33,0.84
,-9.347,-0.713,-3.257,-9.318,-0.759,-3.314,2.52,1.33,0.77
,-9.366,-0.72,-3.25,-9.378,-0.761,-3.3,2.59,1.26,0.84
4712.0,-9.313,-0.694,-3.305,-9.332,-0.749,-3.297,2.87,1.4,0.84
,-9.304,-0.696,-3.333,-9.373,-0.682,-3.293,2.87,1.47,0.77
,-9.328,-0.72,-3.319,-9.325,-0.696,-3.281,2.8,1.4,0.77
,-9.306,-0.718,-3.266,-9.342,-0.72,-3.238,2.73,1.19,0.84
4788.0,-9.356,-0.739,-3.259,-9.323,-0.751,-3.214,2.59,1.26,0.84
,-9.363,-0.696,-3.202,-9.313,-0.73,-3.307,2.59,1.33,0.91
,-9.32,-0.766,-3.235,-9.323,-0.718,-3.257,2.59,1.54,0.84
,-9.363,-0.739,-3.242,-9.328,-0.72,-3.283,2.52,1.61,0.77
4864.0,-9.349,-0.742,-3.293,-9.34,-0.749,-3.348,2.59,1.61,0.84
,-9.356,-0.713,-3.324,-9.347,-0.744,-3.331,2.52,1.4,0.84
,-9.311,-0.689,-3.374,-9.351,-0.668,-3.326,2.31,0.98,0.7
,-9.311,-0.766,-3.35,-9.304,-0.66,-3.329,2.38,1.26,0.77
4940.0,-9.34,-0.725,-3.281,-9.335,-0.727,-3.238,2.66,0.77,0.7
,-9.332,-0.749,-3.295,-9.356,-0.701,-3.211,2.73,0.91,0.77
,-9.344,-0.711,-3.24,-9.316,-0.727,-3.252,2.8,0.98,0.77
,-9.332,-0.742,-3.271,-9.351,-0.73,-3.262,2.73,0.98,0.7
5016.0,-9.344,-0.761,-3.211,-9.325,-0.739,-3.276,2.17,1.12,0.63
,-9.328,-0.706,-3.25,-9.349,-0.742,-3.297,2.1,1.4,0.7
,-9.351,-0.754,-3.228,-9.33,-0.696,-3.293,2.1,1.4,0.7
,-9.318,-0.725,-3.211,-9.337,-0.715,-3.283,2.1,1.47,0.7
5092.0,-9.337,-0.715,-3.312,-9.342,-0.725,-3.319,1.82,1.47,0.56
,-9.351,-0.732,-3.321,-9.344,-0.715,-3.307,1.89,1.4,0.56
,-9.311,-0.763,-3.271,-9.371,-0.72,-3.307,1.96,1.33,0.63
,-9.275,-0.677,-3.34,-9.342,-0.761,-3.262,2.1,1.19,0.7
5168.0,-9.361,-0.73,-3.245,-9.325,-0.744,-3.283,2.45,1.33,0.91
,-9.311,-0.747,-3.209,-9.366,-0.696,-3.266,2.31,1.26,0.84
,-9.306,-0.763,-3.271,-9.313,-0.715,-3.242,2.52,1.33,0.91
,-9.294,-0.792,-3.273,-9.325,-0.708,-3.23,2.8,1.33,0.84
5244.0,-9.356,-0.72,-3.278,-9.337,-0.668,-3.319,2.8,1.61,0.84
,-9.318,-0.713,-3.302,-9.332,-0.708,-3.3,2.59,1.47,0.84
,-9.361,-0.708,-3.297,-9.311,-0.713,-3.326,2.59,1.61,0.98
,-9.342,-0.723,-3.314,-9.342,-0.737,-3.25,2.59,1.54,0.98
5320.0,-9.342,-0.744,-3.293,-9.33,-0.692,-3.24,2.73,1.26,0.91
,-9.33,-0.735,-3.295,-9.332,-0.761,-3.221,2.8,1.26,0.77
,-9.328,-0.766,-3.25,-9.371,-0.704,-3.245,2.8,1.05,0.7
,-9.368,-0.727,-3.218,-9.392,-0.704,-3.245,2.8,1.26,0.77
5396.0,-9.359,-0.742,-3.223,-9.32,-0.727,-3.257,2.8,1.4,0.98
,-9.328,-0.665,-3.254,-9.347,-0.739,-3.302,2.66,1.4,0.91
,-9.318,-0.737,-3.257,-9.32,-0.696,-3.281,2.52,1.61,0.91
,-9.337,-0.747,-3.254,-9.323,-0.718,-3.338,2.66,1.47,0.84
5472.0,-9.325,-0.699,-3.329,-9.308,-0.682,-3.307,2.66,1.33,0.84
,-9.313,-0.672,-3.357,-9.342,-0.739,-3.273,2.59,1.4,0.91
,-9.323,-0.694,-3.345,-9.311,-0.694,-3.285,2.8,1.26,0.84
,-9.335,-0.727,-3.309,-9.344,-0.73,-3.245,2.8,1.19,0.77
5548.0,-9.323,-0.732,-3.24,-9.351,-0.749,-3.288,2.45,1.19,0.7
,-9.332,-0.761,-3.206,-9.316,-0.754,-3.309,2.45,1.26,0.77
,-9.337,-0.711,-3.235,-9.34,-0.711,-3.245,2.52,1.33,0.77
,-9.359,-0.718,-3.214,-9.316,-0.713,-3.288,2.59,1.26,0.7
5624.0,-9.304,-0.72,-3.3,-9.344,-0.72,-3.307,2.31,1.61,0.7
,-9.344,-0.704,-3.297,-9.325,-0.715,-3.273,2.17,1.47,0.63
,-9.368,-0.718,-3.312,-9.34,-0.677,-3.314,2.1,1.33,0.7
,-9.34,-0.735,-3.29,-9.34,-0.718,-3.309,2.17,1.47,0.7
5700.0,-9.335,-0.692,-3.3,-9.39,-0.749,-3.254,2.38,1.26,0.7
,-9.33,-0.694,-3.324,-9.337,-0.751,-3.247,2.59,1.19,0.84
,-9.316,-0.708,-3.252,-9.337,-0.735,-3.257,2.66,1.26,0.84
,-9.337,-0.794,-3.3,-9.325,-0.713,-3.254,2.59,1.12,0.77
5776.0,-9.292,-0.723,-3.278,-9.32,-0.723,-3.24,2.87,1.33,0.7
,-9.32,-0.742,-3.281,-9.337,-0.72,-3.264,3.01,1.4,0.77
,-9.32,-0.689,-3.297,-9.313,-0.735,-3.266,2.94,1.47,0.91
,-9.409,-0.706,-3.281,-9.34,-0.763,-3.271,2.87,1.33,0.91
5852.0,-9.316,-0.723,-3.297,-9.34,-0.782,-3.276,2.73,1.26,0.7
,-9.359,-0.737,-3.343,-9.296,-0.739,-3.269,2.87,1.19,0.7
,-9.325,-0.711,-3.288,-9.32,-0.692,-3.324,2.8,1.26,0.7
,-9.354,-0.715,-3.247,-9.366,-0.735,-3.309,2.73,1.26,0.63
5928.0,-9.335,-0.782,-3.281,-9.347,-0.713,-3.235,2.73,1.05,0.63
,-9.34,-0.732,-3.295,-9.347,-0.742,-3.199,3.01,1.05,0.7
,-9.342,-0.639,-3.324,-9.359,-0.723,-3.195,2.94,1.26,0.77
,-9.337,-0.665,-3.235,-9.363,-0.766,-3.226,2.94,1.26,0.77
6004.0,-9.332,-0.725,-3.245,-9.337,-0.744,-3.257,2.66,1.4,0.63
,-9.371,-0.737,-3.257,-9.344,-0.751,-3.288,2.66,1.47,0.7
,-9.332,-0.708,-3.302,-9.313,-0.739,-3.29,2.59,1.4,0.77
,-9.347,-0.732,-3.283,-9.337,-0.704,-3.314,2.45,1.4,0.77
6080.0,-9.308,-0.708,-3.288,-9.306,-0.739,-3.273,2.66,1.33,0.77
,-9.337,-0.711,-3.321,-9.32,-0.766,-3.295,2.59,1.19,0.77
,-9.368,-0.727,-3.29,-9.32,-0.725,-3.288,2.59,1.26,0.7
,-9.373,-0.727,-3.324,-9.294,-0.737,-3.257,2.66,1.05,0.63
6156.0,-9.356,-0.751,-3.281,-9.349,-0.742,-3.235,2.8,1.05,0.7
,-9.368,-0.737,-3.216,-9.366,-0.771,-3.297,2.94,1.05,0.77
,-9.296,-0.754,-3.281,-9.308,-0.749,-3.228,2.87,1.19,0.84
,-9.342,-0.715,-3.221,-9.337,-0.725,-3.223,2.94,1.26,0.77
6232.0,-9.349,-0.727,-3.24,-9.301,-0.718,-3.295,2.8,1.47,0.77
,-9.351,-0.742,-3.262,-9.301,-0.708,-3.288,2.66,1.4,0.91
,-9.33,-0.72,-3.266,-9.332,-0.706,-3.3,2.66,1.4,0.91
,-9.34,-0.682,-3.252,-9.351,-0.759,-3.305,2.45,1.68,0.84
6308.0,-9.366,-0.699,-3.302,-9.347,-0.727,-3.214,2.17,1.33,0.77
,-9.368,-0.723,-3.242,-9.34,-0.739,-3.238,2.31,1.26,0.7
,-9.356,-0.754,-3.238,-9.337,-0.751,-3.269,2.45,1.4,0.84
,-9.318,-0.739,-3.257,-9.344,-0.771,-3.293,2.45,1.4,0.84
6384.0,-9.375,-0.725,-3.288,-9.354,-0.723,-3.285,2.73,1.19,0.91
,-9.366,-0.708,-3.288,-9.296,-0.742,-3.357,2.87,1.4,0.98
,-9.323,-0.73,-3.262,-9.306,-0.732,-3.307,2.8,1.4,0.98
,-9.344,-0.744,-3.264,-9.337,-0.727,-3.29,2.66,1.4,0.91
6460.0,-9.282,-0.684,-3.336,-9.337,-0.737,-3.195,2.94,1.26,0.84
,-9.356,-0.701,-3.266,-9.354,-0.754,-3.262,2.8,1.19,0.77
,-9.359,-0.701,-3.238,-9.354,-0.684,-3.273,2.73,1.05,0.77
,-9.32,-0.704,-3.276,-9.363,-0.735,-3.226,2.8,1.05,0.77
6536.0,-9.351,-0.761,-3.226,-9.34,-0.723,-3.214,2.31,1.12,0.7
,-9.351,-0.689,-3.25,-9.366,-0.715,-3.257,2.24,1.26,0.63
,-9.368,-0.754,-3.199,-9.373,-0.739,-3.259,2.17,1.47,0.7
,-9.368,-0.706,-3.247,-9.318,-0.696,-3.329,2.31,1.68,0.77
6612.0,-9.325,-0.747,-3.321,-9.299,-0.711,-3.319,2.52,1.75,0.98
,-9.349,-0.725,-3.317,-9.289,-0.713,-3.288,2.45,1.68,0.98
,-9.359,-0.706,-3.329,-9.328,-0.737,-3.331,2.45,1.47,0.77
,-9.337,-0.684,-3.345,-9.368,-0.747,-3.305,2.45,1.54,0.91
6688.0,-9.344,-0.723,-3.338,-9.332,-0.739,-3.259,2.73,1.19,0.91
,-9.32,-0.742,-3.29,-9.318,-0.723,-3.264,2.66,1.05,0.77
,-9.308,-0.713,-3.297,-9.347,-0.67,-3.233,2.59,1.12,0.84
,-9.342,-0.735,-3.312,-9.344,-0.718,-3.216,2.73,1.05,0.84
6764.0,-9.366,-0.708,-3.228,-9.34,-0.713,-3.235,2.45,1.26,0.91
,-9.34,-0.727,-3.197,-9.344,-0.739,-3.305,2.45,1.19,0.77
,-9.39,-0.727,-3.23,-9.354,-0.732,-3.264,2.38,1.05,0.7
,-9.351,-0.692,-3.245,-9.306,-0.723,-3.252,2.45,1.12,0.7
6840.0,-9.337,-0.732,-3.3,-9.354,-0.696,-3.242,2.45,1.26,0.77
,-9.349,-0.739,-3.314,-9.354,-0.715,-3.264,2.66,1.19,0.7
,-9.378,-0.653,-3.288,-9.328,-0.689,-3.302,2.73,1.19,0.84
,-9.344,-0.708,-3.3,-9.318,-0.73,-3.254,2.87,1.4,1.05
6916.0,-9.328,-0.73,-3.228,-9.356,-0.732,-3.247,2.87,1.4,0.91
,-9.33,-0.704,-3.266,-9.318,-0.694,-3.288,2.73,1.47,0.91
,-9.306,-0.706,-3.233,-9.33,-0.694,-3.247,2.52,1.4,0.91
,-9.306,-0.725,-3.214,-9.335,-0.725,-3.293,2.66,1.47,0.91
6992.0,-9.366,-0.715,-3.252,-9.32,-0.749,-3.238,2.52,1.33,0.77
,-9.306,-0.715,-3.245,-9.375,-0.718,-3.271,2.45,1.47,0.77
,-9.347,-0.754,-3.266,-9.344,-0.694,-3.3,2.38,1.4,0.7
,-9.318,-0.687,-3.317,-9.349,-0.687,-3.293,2.45,1.33,0.63
7068.0,-9.344,-0.72,-3.259,-9.351,-0.735,-3.259,2.52,1.33,0.7
,-9.292,-0.737,-3.259,-9.356,-0.749,-3.221,2.73,1.61,0.77
,-9.318,-0.718,-3.285,-9.373,-0.739,-3.242,2.73,1.33,0.77
,-9.313,-0.708,-3.264,-9.354,-0.704,-3.24,2.66,1.4,0.77
7144.0,-9.359,-0.68,-3.257,-9.366,-0.73,-3.25,2.59,1.33,0.77
,-9.366,-0.687,-3.216,-9.373,-0.727,-3.233,2.59,1.54,0.77
,-9.337,-0.684,-3.247,-9.349,-0.747,-3.252,2.45,1.54,0.7
,-9.306,-0.694,-3.221,-9.34,-0.754,-3.321,2.45,1.4,0.77
7220.0,-9.335,-0.737,-3.331,-9.304,-0.751,-3.352,2.59,1.75,0.77
,-9.351,-0.672,-3.333,-9.308,-0.725,-3.333,2.45,1.68,0.7
,-9.313,-0.766,-3.338,-9.311,-0.723,-3.321,2.31,1.75,0.7
,-9.366,-0.735,-3.338,-9.347,-0.737,-3.367,2.45,1.4,0.7
7296.0,-9.323,-0.735,-3.283,-9.304,-0.73,-3.252,2.66,0.98,0.84
,-9.347,-0.732,-3.259,-9.371,-0.708,-3.257,2.73,0.98,0.84
,-9.304,-0.715,-3.252,-9.351,-0.749,-3.228,2.8,0.84,0.84
,-9.344,-0.704,-3.233,-9.354,-0.704,-3.228,2.73,0.98,0.7
7372.0,-9.301,-0.751,-3.262,-9.325,-0.732,-3.266,2.8,1.19,0.7
,-9.34,-0.718,-3.228,-9.337,-0.732,-3.271,2.87,1.26,0.84
,-9.359,-0.732,-3.288,-9.308,-0.727,-3.254,2.94,1.26,0.77
,-9.33,-0.72,-3.269,-9.287,-0.725,-3.271,2.8,1.33,0.77
7448.0,-9.351,-0.72,-3.281,-9.351,-0.699,-3.309,2.59,1.4,0.77
,-9.351,-0.759,-3.293,-9.332,-0.708,-3.295,2.45,1.47,0.84
,-9.375,-0.701,-3.271,-9.342,-0.711,-3.269,2.31,1.19,0.77
,-9.347,-0.687,-3.305,-9.351,-0.668,-3.266,2.38,1.4,0.77
7524.0,-9.351,-0.742,-3.252,-9.387,-0.737,-3.3,2.31,1.26,0.7
,-9.313,-0.747,-3.247,-9.311,-0.725,-3.264,2.45,1.12,0.77
,-9.325,-0.78,-3.264,-9.354,-0.711,-3.24,2.59,1.33,0.91
,-9.354,-0.73,-3.305,-9.344,-0.696,-3.245,2.94,1.54,0.98
7600.0,-9.375,-0.704,-3.283,-9.299,-0.68,-3.309,2.52,1.47,0.91
,-9.33,-0.704,-3.331,-9.33,-0.747,-3.324,2.59,1.26,0.77
,-9.332,-0.687,-3.305,-9.328,-0.759,-3.293,2.59,1.19,0.77
,-9.356,-0.68,-3.29,-9.33,-0.708,-3.314,2.45,1.33,0.91
7676.0,-9.361,-0.699,-3.302,-9.349,-0.73,-3.223,2.87,1.12,0.77
,-9.301,-0.708,-3.238,-9.361,-0.68,-3.235,2.8,1.12,0.77
,-9.359,-0.747,-3.23,-9.387,-0.739,-3.245,2.73,1.12,0.63
,-9.354,-0.742,-3.242,-9.368,-0.73,-3.218,2.73,1.12,0.77
7752.0,-9.399,-0.699,-3.183,-9.34,-0.747,-3.254,2.45,1.54,0.84
,-9.33,-0.706,-3.185,-9.308,-0.73,-3.305,2.38,1.61,0.84
,-9.375,-0.708,-3.156,-9.335,-0.742,-3.312,2.1,1.68,0.91
,-9.33,-0.742,-3.199,-9.33,-0.727,-3.319,1.96,1.89,0.84
7828.0,-9.306,-0.742,-3.364,-9.323,-0.725,-3.331,2.17,1.82,0.77
,-9.304,-0.668,-3.367,-9.342,-0.689,-3.336,2.1,1.68,0.77
,-9.342,-0.715,-3.35,-9.332,-0.761,-3.276,2.24,1.54,0.77
,-9.325,-0.775,-3.396,-9.356,-0.73,-3.329,2.38,1.47,0.77
7904.0,-9.304,-0.737,-3.276,-9.356,-0.713,-3.226,2.66,1.33,0.7
,-9.323,-0.739,-3.245,-9.342,-0.701,-3.233,2.66,1.4,0.63
,-9.32,-0.706,-3.245,-9.375,-0.682,-3.23,2.59,1.26,0.63
,-9.344,-0.715,-3.269,-9.354,-0.739,-3.23,2.59,1.4,0.7
7980.0,-9.337,-0.737,-3.247,-9.328,-0.727,-3.257,2.45,1.47,0.63
,-9.351,-0.744,-3.25,-9.354,-0.704,-3.307,2.59,1.4,0.7
,-9.306,-0.763,-3.288,-9.349,-0.715,-3.276,2.38,1.47,0.7
,-9.287,-0.744,-3.317,-9.311,-0.737,-3.276,2.45,1.75,0.84
8056.0,-9.316,-0.737,-3.281,-9.311,-0.735,-3.281,1.96,1.54,0.7
,-9.325,-0.749,-3.281,-9.363,-0.759,-3.312,2.03,1.68,0.77
,-9.28,-0.701,-3.338,-9.32,-0.713,-3.257,2.17,1.61,0.77
,-9.294,-0.73,-3.317,-9.316,-0.711,-3.264,2.1,1.54,0.7
8132.0,-9.304,-0.699,-3.259,-9.335,-0.711,-3.293,2.87,1.54,0.98
,-9.332,-0.711,-3.364,-9.375,-0.687,-3.281,2.8,1.61,0.91
,-9.351,-0.742,-3.271,-9.354,-0.744,-3.285,2.8,1.4,0.77
,-9.347,-0.708,-3.312,-9.318,-0.771,-3.355,2.94,1.54,0.84
8208.0,-9.306,-0.708,-3.345,-9.351,-0.751,-3.257,3.01,1.4,0.91
,-9.325,-0.704,-3.345,-9.371,-0.704,-3.254,2.94,1.19,0.77
,-9.337,-0.725,-3.324,-9.354,-0.718,-3.283,2.94,1.33,0.84
,-9.296,-0.689,-3.317,-9.359,-0.735,-3.257,2.87,1.26,0.91
8284.0,-9.313,-0.742,-3.195,-9.387,-0.713,-3.233,2.59,1.33,0.84
,-9.318,-0.708,-3.214,-9.354,-0.727,-3.206,2.66,1.33,0.77
,-9.371,-0.72,-3.269,-9.363,-0.711,-3.238,2.59,1.33,0.7
,-9.347,-0.67,-3.202,-9.323,-0.718,-3.23,2.45,1.33,0.63
8360.0,-9.32,-0.699,-3.264,-9.32,-0.72,-3.345,2.52,1.61,0.91
,-9.387,-0.718,-3.312,-9.344,-0.715,-3.348,2.52,1.68,0.91
,-9.277,-0.725,-3.305,-9.33,-0.713,-3.329,2.52,1.82,0.91
,-9.32,-0.749,-3.305,-9.296,-0.682,-3.367,2.59,1.68,0.91
8436.0,-9.33,-0.715,-3.343,-9.335,-0.706,-3.352,2.31,1.54,0.77
,-9.316,-0.689,-3.352,-9.299,-0.694,-3.297,2.24,1.61,0.77
,-9.299,-0.677,-3.362,-9.32,-0.715,-3.314,2.52,1.47,0.7
,-9.277,-0.704,-3.381,-9.316,-0.766,-3.29,2.52,1.26,0.7
8512.0,-9.323,-0.742,-3.264,-9.332,-0.72,-3.259,2.59,0.98,0.63
,-9.33,-0.744,-3.235,-9.361,-0.72,-3.324,2.73,1.26,0.77
,-9.347,-0.715,-3.264,-9.375,-0.684,-3.288,2.66,1.12,0.77
,-9.344,-0.723,-3.211,-9.342,-0.682,-3.314,2.73,1.26,0.7
8588.0,-9.375,-0.725,-3.321,-9.375,-0.754,-3.302,2.52,1.33,0.7
,-9.318,-0.713,-3.262,-9.335,-0.759,-3.321,2.38,1.26,0.7
,-9.344,-0.749,-3.281,-9.349,-0.706,-3.297,2.38,1.47,0.7
,-9.32,-0.737,-3.259,-9.342,-0.725,-3.285,2.38,1.4,0.77
8664.0,-9.32,-0.699,-3.312,-9.32,-0.737,-3.345,2.38,1.47,0.77
,-9.292,-0.718,-3.331,-9.356,-0.737,-3.352,2.45,1.4,0.7
,-9.344,-0.73,-3.305,-9.32,-0.725,-3.293,2.38,1.12,0.63
,-9.328,-0.701,-3.324,-9.316,-0.711,-3.329,2.45,1.19,0.63
8740.0,-9.292,-0.747,-3.314,-9.337,-0.747,-3.293,2.59,1.12,0.7
,-9.294,-0.739,-3.297,-9.311,-0.723,-3.309,2.8,1.26,0.84
,-9.306,-0.739,-3.324,-9.323,-0.727,-3.269,2.94,1.26,0.98
,-9.368,-0.756,-3.319,-9.342,-0.739,-3.317,2.94,1.26,0.84
8816.0,-9.28,-0.706,-3.278,-9.351,-0.73,-3.242,2.8,1.4,0.98
,-9.306,-0.704,-3.288,-9.368,-0.725,-3.285,2.73,1.33,0.84
,-9.335,-0.689,-3.3,-9.349,-0.771,-3.273,2.59,1.47,0.84
,-9.328,-0.701,-3.338,-9.308,-0.711,-3.309,2.66,1.19,0.77
8892.0,-9.311,-0.711,-3.266,-9.32,-0.708,-3.285,2.66,1.26,0.63
,-9.351,-0.744,-3.226,-9.38,-0.704,-3.221,2.59,1.26,0.7
,-9.316,-0.747,-3.257,-9.351,-0.725,-3.206,2.59,1.26,0.77
,-9.323,-0.684,-3.305,-9.373,-0.723,-3.228,2.73,1.33,0.84
8968.0,-9.33,-0.715,-3.25,-9.318,-0.742,-3.331,2.66,1.75,0.98
,-9.337,-0.706,-3.228,-9.328,-0.704,-3.355,2.52,1.75,1.05
,-9.332,-0.735,-3.271,-9.349,-0.715,-3.34,2.45,1.54,0.84
,-9.335,-0.687,-3.278,-9.318,-0.704,-3.338,2.45,1.54,0.84
9044.0,-9.277,-0.723,-3.345,-9.342,-0.699,-3.312,2.59,1.47,0.7
,-9.313,-0.759,-3.352,-9.316,-0.754,-3.305,2.73,1.05,0.7
,-9.33,-0.715,-3.367,-9.351,-0.696,-3.235,2.8,0.98,0.77
,-9.294,-0.699,-3.34,-9.301,-0.737,-3.245,2.87,1.26,0.91
9120.0,-9.361,-0.732,-3.266,-9.332,-0.723,-3.266,2.87,1.26,0.84
,-9.349,-0.711,-3.233,-9.349,-0.72,-3.25,2.8,1.33,0.84
,-9.292,-0.739,-3.24,-9.337,-0.727,-3.247,2.87,1.4,0.91
,-9.308,-0.711,-3.262,-9.325,-0.725,-3.233,2.87,1.26,0.84
9196.0,-9.292,-0.725,-3.24,-9.337,-0.756,-3.312,2.59,1.54,0.84
,-9.296,-0.742,-3.295,-9.361,-0.718,-3.355,2.52,1.61,0.84
,-9.308,-0.775,-3.343,-9.299,-0.725,-3.297,2.52,1.54,0.84
,-9.316,-0.699,-3.319,-9.34,-0.742,-3.266,2.59,1.61,0.91
9272.0,-9.342,-0.715,-3.319,-9.316,-0.694,-3.333,2.66,1.54,0.84
,-9.337,-0.689,-3.309,-9.361,-0.711,-3.309,2.87,1.61,0.91
,-9.337,-0.73,-3.355,-9.284,-0.723,-3.278,2.8,1.54,0.98
,-9.33,-0.67,-3.319,-9.289,-0.711,-3.269,2.8,1.54,0.91
9348.0,-9.296,-0.72,-3.314,-9.318,-0.706,-3.317,2.94,1.19,0.91
,-9.296,-0.715,-3.331,-9.299,-0.708,-3.262,3.01,1.19,0.91
,-9.347,-0.708,-3.34,-9.356,-0.727,-3.254,2.94,1.12,0.91
,-9.313,-0.749,-3.297,-9.347,-0.742,-3.309,3.01,1.19,0.84
9424.0,-9.313,-0.749,-3.331,-9.304,-0.692,-3.336,2.38,1.19,0.84
,-9.347,-0.684,-3.302,-9.306,-0.735,-3.247,2.59,1.19,0.91
,-9.344,-0.706,-3.317,-9.277,-0.696,-3.307,2.45,0.98,0.91
,-9.34,-0.713,-3.302,-9.306,-0.694,-3.305,2.45,0.91,0.84
9500.0,-9.313,-0.715,-3.357,-9.32,-0.742,-3.264,2.31,1.05,0.7
,-9.318,-0.73,-3.266,-9.304,-0.739,-3.238,2.17,1.19,0.77
,-9.335,-0.742,-3.269,-9.299,-0.684,-3.209,2.31,1.12,0.77
,-9.328,-0.744,-3.283,-9.332,-0.694,-3.218,2.45,1.19,0.77
9576.0,-9.356,-0.715,-3.221,-9.337,-0.696,-3.266,2.38,1.33,0.77
,-9.337,-0.735,-3.23,-9.347,-0.701,-3.319,2.24,1.54,0.84
,-9.323,-0.735,-3.233,-9.344,-0.699,-3.309,2.24,1.68,0.91
,-9.32,-0.751,-3.266,-9.344,-0.694,-3.307,2.38,1.75,0.91
9652.0,-9.344,-0.735,-3.297,-9.282,-0.701,-3.305,1.89,1.47,0.63
,-9.308,-0.715,-3.297,-9.323,-0.727,-3.281,2.1,1.47,0.63
,-9.347,-0.742,-3.29,-9.328,-0.732,-3.271,2.17,1.33,0.77
,-9.289,-0.747,-3.331,-9.284,-0.756,-3.278,2.17,1.19,0.77
9728.0,-9.328,-0.737,-3.281,-9.395,-0.706,-3.266,2.45,1.12,0.77
,-9.356,-0.744,-3.321,-9.354,-0.804,-3.259,2.59,1.26,0.84
,-9.356,-0.677,-3.252,-9.308,-0.775,-3.25,2.59,1.26,0.91
,-9.313,-0.689,-3.264,-9.328,-0.708,-3.29,2.24,1.12,0.77
9804.0,-9.318,-0.67,-3.278,-9.344,-0.713,-3.266,2.59,1.4,0.91
,-9.32,-0.747,-3.252,-9.301,-0.715,-3.266,2.45,1.4,0.98
,-9.347,-0.699,-3.273,-9.325,-0.771,-3.305,2.38,1.33,0.91
,-9.342,-0.706,-3.302,-9.34,-0.73,-3.288,2.38,1.4,0.91
