Timestamp,AccX,AccY,AccZ,GyroX,GyroY,GyroZ,MagnX,MagnY,MagnZ
0.0,-9.139,0.151,-3.884,-9.127,0.029,-3.888,2.66,1.05,0.28
,-9.1,0.072,-3.862,-9.129,0.089,-3.884,2.38,1.12,0.28
,-9.086,0.069,-4.097,-9.16,0.026,-3.845,2.38,1.19,0.28
,-9.076,0.091,-3.951,-9.17,0.0,-3.812,2.17,1.19,0.35
75.0,-9.189,0.053,-3.841,-9.062,0.165,-4.085,2.03,1.47,0.42
,-9.148,0.077,-3.903,-9.091,0.175,-4.101,2.03,1.54,0.42
,-9.124,0.055,-3.987,-9.074,0.16,-4.039,2.1,1.47,0.49
,-9.06,0.079,-4.056,-9.095,0.11,-4.02,2.17,1.54,0.49
150.0,-9.088,0.122,-4.011,-9.148,-0.017,-3.726,2.45,0.84,0.35
,-9.091,0.127,-3.924,-9.177,0.029,-3.75,2.52,0.7,0.42
,-9.115,0.045,-3.865,-9.177,0.017,-3.833,2.52,0.63,0.49
,-9.115,0.005,-3.79,-9.148,0.029,-3.886,2.59,0.84,0.49
226.0,-9.119,0.014,-3.955,-9.088,0.089,-3.879,2.03,1.54,0.7
,-9.048,0.103,-4.001,-9.146,0.105,-3.888,2.31,1.61,0.7
,-9.107,0.115,-3.984,-9.141,0.091,-3.927,2.52,1.68,0.84
,-9.112,0.098,-3.965,-9.103,0.077,-3.92,2.45,1.61,0.91
302.0,-9.11,0.134,-3.927,-9.107,0.086,-3.946,1.96,1.33,0.56
,-9.067,0.089,-4.003,-9.167,0.105,-3.862,2.1,1.26,0.63
,-9.088,0.06,-3.941,-9.158,0.096,-3.92,2.31,1.54,0.91
,-9.098,0.067,-3.965,-9.083,0.096,-3.941,2.45,1.33,0.84
378.0,-9.091,0.101,-3.987,-9.119,0.081,-3.91,2.24,1.33,0.7
,-9.112,0.122,-3.982,-9.103,-0.01,-3.869,2.66,1.19,0.77
,-9.122,0.103,-3.967,-9.088,0.029,-3.845,2.52,1.26,0.77
,-9.107,0.12,-3.917,-9.119,0.002,-3.879,2.52,1.4,0.84
453.0,-9.127,0.065,-3.92,-9.048,0.122,-3.948,2.1,1.47,0.77
,-9.119,0.069,-3.934,-9.064,0.074,-3.975,2.17,1.33,0.77
,-9.131,0.057,-3.941,-9.091,0.012,-3.977,2.17,1.33,0.7
,-9.115,0.144,-4.003,-9.103,0.086,-3.946,2.1,1.19,0.63
529.0,-9.127,0.12,-3.898,-9.141,0.175,-3.745,1.26,0.91,0.21
,-9.146,0.084,-3.91,-9.225,0.043,-3.728,1.19,0.91,0.28
,-9.146,0.091,-3.891,-9.141,0.007,-3.924,1.47,0.91,0.35
,-9.124,0.208,-3.862,-9.117,-0.022,-3.979,1.68,0.91,0.42
605.0,-9.05,0.0,-3.946,-9.112,0.093,-3.893,0.63,0.63,0.07
,-9.026,0.148,-4.032,-9.088,-0.072,-3.843,1.05,0.56,0.14
,-9.062,0.201,-3.994,-9.064,-0.081,-3.884,0.91,0.49,0.28
,-9.136,0.134,-3.972,-9.112,-0.029,-3.946,0.42,0.28,0.21
681.0,-9.088,0.079,-3.953,-9.086,0.045,-3.872,2.17,0.21,0.7
,-9.095,0.029,-3.915,-9.105,0.055,-3.874,2.03,-0.07,0.77
,-9.11,0.074,-3.948,-9.1,0.124,-3.743,1.75,-0.14,0.77
,-9.081,0.034,-3.946,-9.134,0.101,-3.738,1.54,-0.21,0.84
757.0,-9.141,-0.005,-3.821,-9.095,0.146,-4.082,0.77,-0.07,0.91
,-9.112,-0.067,-3.79,-9.048,0.163,-4.159,0.77,0.21,1.12
,-9.139,-0.072,-3.869,-9.043,0.16,-4.188,1.05,0.0,0.98
,-9.143,0.038,-3.934,-9.083,0.175,-4.226,1.68,-0.28,1.12
832.0,-9.086,0.23,-4.075,-9.031,-0.072,-3.613,2.94,-1.75,1.33
,-9.06,0.302,-4.066,-9.115,-0.005,-3.577,3.22,-2.17,1.19
,-9.081,0.163,-3.884,-9.189,0.014,-3.611,2.87,-2.1,1.33
,-9.045,0.055,-3.764,-9.17,-0.053,-3.62,2.73,-2.17,1.4
908.0,-9.124,-0.055,-3.685,-9.155,0.045,-3.467,0.07,-1.19,1.4
,-9.067,-0.014,-3.635,-9.184,0.014,-3.427,0.63,-0.7,1.96
,-9.043,-0.098,-3.537,-9.241,0.117,-3.561,0.98,-0.49,2.17
,-9.1,0.029,-3.479,-9.227,0.132,-3.582,1.47,0.07,2.45
983.0,-9.206,0.12,-3.575,-9.289,0.034,-3.601,1.19,2.03,3.01
,-9.213,0.089,-3.455,-9.234,0.041,-3.819,0.84,2.24,3.29
,-9.256,0.045,-3.369,-9.067,0.022,-3.843,0.7,2.59,3.5
,-9.273,0.077,-3.51,-9.057,0.031,-3.833,0.56,3.08,3.57
1059.0,-9.11,0.077,-3.903,-9.174,0.014,-3.664,2.24,3.78,4.27
,-9.117,0.256,-3.972,-9.275,0.311,-3.946,2.66,3.57,3.99
,-9.11,0.328,-3.999,-9.172,0.57,-4.073,2.03,3.5,3.85
,-9.086,0.089,-3.685,-9.182,0.55,-4.283,1.05,3.64,4.13
1135.0,-9.031,0.304,-4.104,-9.11,0.67,-4.389,-3.22,2.8,1.61
,-9.062,0.105,-3.68,-9.019,0.488,-4.176,-3.36,2.87,1.89
,-9.229,0.306,-3.996,-9.117,0.213,-3.845,-2.24,2.45,1.4
,-9.201,0.651,-4.283,-9.249,0.129,-3.539,-2.17,1.47,0.63
1211.0,-9.249,0.23,-3.427,-9.028,0.091,-3.932,-3.22,0.98,1.47
,-9.342,0.357,-3.769,-9.0,-0.022,-3.496,-4.55,1.05,1.12
,-9.244,0.409,-3.908,-9.162,0.074,-3.644,-6.86,0.77,0.56
,-9.184,0.213,-3.999,-9.098,0.139,-3.699,-8.26,0.56,0.28
1286.0,-9.095,0.048,-3.374,-9.076,0.861,-4.573,-5.18,2.59,1.19
,-9.201,-0.079,-2.922,-8.957,0.347,-4.609,-4.48,3.08,1.68
,-9.225,0.266,-3.216,-8.911,-0.34,-4.295,-2.87,3.08,1.19
,-9.229,0.838,-4.221,-9.007,-0.486,-3.735,-3.85,1.75,-0.7
1362.0,-9.038,-0.043,-3.9,-9.268,-0.816,-1.735,5.18,2.52,3.01
,-9.019,0.256,-3.642,-9.464,-0.426,-2.206,5.88,2.59,2.59
,-9.107,0.055,-3.379,-9.392,0.637,-3.206,4.97,3.29,3.15
,-9.21,-0.62,-2.917,-9.273,1.321,-4.056,5.67,4.76,4.83
1438.0,-8.911,0.823,-4.384,-9.112,0.711,-4.293,3.43,6.23,4.62
,-8.768,0.172,-4.068,-9.251,0.419,-4.427,3.71,7.07,5.46
,-8.859,0.053,-3.975,-9.081,-0.151,-3.676,9.52,7.42,6.16
,-8.93,0.459,-4.29,-9.086,-0.395,-2.927,13.37,6.93,5.67
1514.0,-9.014,0.199,-3.604,-8.811,-0.311,-3.522,21.84,8.82,7.49
,-9.162,0.794,-4.027,-8.818,-0.127,-3.704,20.44,7.63,7.0
,-9.117,0.704,-4.281,-9.244,0.215,-3.975,14.42,7.28,7.28
,-8.916,0.086,-4.07,-9.45,0.519,-4.066,10.5,8.05,7.98
1590.0,-9.024,0.704,-3.879,-9.124,1.141,-3.116,10.64,9.87,7.42
,-8.811,0.637,-3.491,-9.127,1.235,-3.412,9.87,11.83,7.28
,-8.796,0.835,-3.005,-9.021,1.132,-3.477,10.5,13.51,6.65
,-8.871,0.974,-2.668,-8.89,1.201,-3.386,10.64,14.63,5.88
1665.0,-8.94,1.359,-3.396,-8.447,0.294,-4.432,3.71,17.43,1.68
,-9.16,1.493,-3.845,-8.452,-0.897,-3.991,3.15,16.66,-0.91
,-9.217,1.527,-4.3,-8.832,-1.204,-3.991,0.49,15.82,-2.66
,-8.899,1.266,-4.499,-9.083,-1.003,-4.123,-3.78,15.89,-2.94
1741.0,-9.091,-0.529,-4.164,-8.799,1.007,-4.439,4.76,21.14,2.45
,-8.885,0.014,-4.255,-8.918,0.711,-4.695,6.37,21.35,3.78
,-8.634,0.443,-4.099,-8.933,0.273,-4.791,7.21,21.42,4.48
,-8.722,0.878,-4.19,-8.713,-0.074,-4.824,6.58,20.93,4.13
1816.0,-8.547,-0.285,-4.819,-8.679,0.565,-5.25,5.32,18.9,4.9
,-8.854,-0.263,-4.891,-8.634,0.993,-5.418,8.61,18.13,5.32
,-8.849,-0.043,-5.049,-8.514,1.232,-5.504,11.13,17.15,5.88
,-8.732,0.239,-5.126,-8.48,1.082,-5.339,11.06,16.66,6.51
1892.0,-8.686,0.94,-5.214,-8.378,0.136,-5.157,0.14,13.86,3.43
,-8.72,0.739,-5.434,-8.287,-0.211,-5.173,-0.42,13.3,2.73
,-8.806,0.534,-5.319,-8.492,-0.282,-5.188,0.42,12.04,2.38
,-8.605,0.483,-5.422,-8.725,-0.476,-5.042,1.4,10.85,2.1
1968.0,-8.811,-0.385,-5.284,-8.492,-0.043,-5.25,6.02,8.4,7.56
,-8.356,-0.172,-5.485,-8.406,0.168,-5.279,7.28,7.56,7.49
,-8.392,-0.16,-5.683,-8.433,0.409,-4.975,6.23,6.44,6.44
,-8.342,-0.151,-5.513,-8.547,0.732,-4.771,4.62,5.88,7.28
2044.0,-8.603,1.28,-4.853,-8.447,2.216,-4.944,5.74,2.24,7.28
,-8.576,1.548,-4.874,-8.303,1.484,-4.81,4.9,2.31,5.95
,-8.701,1.39,-4.977,-8.248,1.608,-5.059,5.46,3.01,4.9
,-8.631,1.936,-4.692,-8.232,0.656,-5.13,7.14,3.57,3.15
2119.0,-8.808,0.402,-5.461,-8.88,0.17,-4.951,4.9,5.39,3.08
,-8.677,-0.179,-5.281,-9.002,0.428,-4.791,6.3,5.32,3.36
,-8.928,-0.565,-4.903,-8.77,1.065,-4.826,6.58,4.69,4.13
,-8.918,0.187,-5.118,-8.363,1.235,-5.123,10.71,3.92,3.64
2195.0,-8.256,1.586,-5.255,-9.074,0.646,-5.327,6.58,3.64,0.35
,-8.15,1.261,-5.044,-8.875,0.282,-5.363,5.39,4.27,0.21
,-8.409,0.838,-5.281,-8.574,-0.014,-5.181,4.9,5.39,0.28
,-8.787,0.38,-4.982,-8.612,-0.022,-5.695,5.32,5.88,0.35
2271.0,-8.614,-0.347,-5.42,-8.102,0.816,-5.604,14.07,3.36,2.66
,-8.303,0.323,-5.286,-8.119,0.045,-5.58,16.38,2.31,2.87
,-8.263,1.168,-5.626,-8.514,-0.352,-5.654,18.41,0.56,1.68
,-8.332,1.261,-5.836,-8.54,-0.522,-5.358,15.19,-0.49,0.63
2347.0,-8.672,-0.366,-5.47,-8.756,0.459,-5.327,12.67,-2.38,2.87
,-8.344,-0.287,-5.506,-8.928,0.656,-5.284,13.09,-2.66,3.29
,-8.332,-0.268,-5.394,-8.792,0.586,-5.095,10.64,-1.96,4.9
,-8.507,-0.196,-5.212,-8.679,0.61,-5.032,11.13,-1.75,5.67
2423.0,-8.583,0.426,-4.874,-8.631,0.663,-4.836,7.49,-2.94,4.34
,-8.282,0.57,-4.972,-8.746,0.584,-4.7,7.98,-2.17,4.9
,-8.234,0.601,-4.984,-8.804,0.627,-4.745,8.33,-1.4,5.39
,-8.397,0.634,-4.901,-8.713,0.885,-4.917,9.03,-0.63,5.32
2498.0,-8.612,1.079,-4.879,-8.839,0.517,-5.212,11.9,3.99,4.27
,-8.495,1.273,-5.066,-8.792,0.476,-5.291,9.73,2.66,4.2
,-8.287,0.998,-5.178,-8.579,0.354,-5.231,6.86,3.22,3.71
,-8.44,0.639,-5.13,-8.349,0.421,-5.384,4.83,3.85,3.36
2574.0,-8.119,0.029,-5.154,-8.583,0.134,-5.36,-3.08,5.18,3.43
,-8.179,0.168,-5.25,-8.248,-0.146,-5.24,-2.73,5.11,4.06
,-8.536,0.383,-5.367,-8.1,-0.045,-5.327,-2.17,4.97,4.27
,-8.725,0.507,-5.525,-8.449,0.302,-5.331,-2.31,4.55,4.55
2649.0,-8.655,0.644,-5.48,-8.49,0.759,-5.071,-2.03,5.25,8.61
,-8.832,0.692,-5.492,-8.739,0.845,-4.944,-3.92,4.48,8.4
,-8.792,0.644,-5.346,-8.861,1.328,-5.104,-5.18,4.48,8.47
,-8.485,0.608,-5.15,-8.77,1.567,-5.3,-5.32,5.04,8.47
2725.0,-8.837,1.421,-5.147,-8.27,1.244,-5.439,-5.32,6.72,4.41
,-8.734,1.127,-5.233,-8.354,0.926,-5.552,-6.72,6.16,3.36
,-8.574,1.146,-5.047,-8.528,0.735,-5.698,-7.21,4.97,2.52
,-8.311,1.113,-5.092,-8.471,0.151,-5.714,-7.77,4.34,2.66
2801.0,-8.624,0.431,-6.018,-8.5,0.409,-5.757,-7.35,2.1,3.22
,-8.344,-0.038,-5.879,-8.394,0.491,-5.841,-5.74,1.12,3.71
,-8.358,0.017,-5.903,-8.471,0.749,-5.858,-4.06,-0.56,3.64
,-8.313,0.069,-5.626,-8.397,0.522,-5.834,-4.55,-1.89,3.57
2877.0,-8.373,0.555,-5.738,-8.349,1.383,-5.329,-4.48,-6.16,3.99
,-8.531,0.694,-5.669,-8.33,1.539,-5.128,-2.24,-6.51,3.99
,-8.76,0.842,-5.427,-8.524,1.62,-5.178,0.21,-7.56,3.5
,-8.586,1.182,-5.463,-8.61,1.67,-5.37,2.38,-8.68,3.15
2952.0,-8.794,1.285,-5.207,-8.555,0.885,-5.286,3.71,-10.71,-0.21
,-8.775,1.098,-5.2,-8.423,0.957,-5.212,2.59,-11.76,-1.33
,-8.471,1.024,-5.248,-8.282,0.986,-5.173,3.01,-12.11,-1.75
,-8.593,0.811,-5.288,-8.215,0.955,-5.181,3.22,-12.74,-1.96
3028.0,-8.325,0.931,-4.972,-8.796,1.108,-4.489,2.03,-15.96,-1.47
,-8.392,0.845,-4.752,-8.741,1.232,-4.41,4.13,-15.33,-1.12
,-8.629,0.809,-4.582,-8.849,1.663,-4.774,6.79,-14.91,-1.05
,-8.768,0.861,-4.549,-8.727,1.079,-4.645,9.38,-14.77,-1.12
3104.0,-8.964,0.806,-4.676,-8.588,1.259,-4.587,9.52,-15.54,-3.01
,-8.751,1.129,-4.637,-8.691,1.005,-4.511,8.05,-16.24,-4.13
,-8.622,1.218,-4.757,-8.705,0.78,-4.355,4.2,-17.08,-5.11
,-8.54,1.397,-4.692,-8.713,0.541,-4.288,0.0,-17.36,-6.51
3180.0,-8.806,0.541,-4.374,-8.722,0.852,-4.499,-0.35,-16.52,-7.49
,-8.959,0.617,-4.374,-8.748,0.778,-4.35,3.15,-16.38,-7.28
,-8.976,0.771,-4.396,-8.598,0.782,-4.463,6.16,-15.96,-7.21
,-8.861,0.84,-4.353,-8.413,0.83,-4.317,7.49,-15.4,-7.0
3255.0,-8.772,0.67,-4.08,-8.945,0.44,-3.714,0.49,-16.94,-8.4
,-9.024,0.512,-3.771,-8.849,0.481,-3.869,1.54,-16.38,-8.19
,-9.16,0.486,-3.805,-8.871,0.321,-3.551,2.45,-16.17,-8.47
,-9.201,0.555,-3.833,-9.143,0.282,-3.496,1.82,-15.82,-9.1
3331.0,-9.249,0.495,-3.604,-8.672,0.261,-3.403,6.79,-13.93,-7.56
,-9.414,0.548,-3.637,-8.897,0.081,-3.455,5.18,-13.58,-8.82
,-9.139,0.395,-3.472,-9.115,0.01,-3.372,1.68,-13.44,-10.15
,-8.947,0.464,-3.611,-9.256,-0.019,-3.276,-2.31,-13.3,-11.34
3407.0,-9.052,-0.141,-3.056,-9.32,0.285,-3.484,-0.35,-9.59,-8.47
,-8.995,-0.292,-3.216,-9.438,0.672,-3.652,1.68,-8.75,-7.35
,-8.99,-0.436,-3.142,-9.167,0.945,-3.455,4.34,-8.47,-6.16
,-9.014,-0.191,-2.931,-9.069,0.924,-3.862,8.33,-7.98,-4.34
3482.0,-8.961,0.672,-3.498,-9.421,0.361,-3.29,-3.08,-7.21,-8.96
,-9.067,0.397,-3.484,-9.301,0.215,-3.338,-3.64,-6.86,-9.03
,-9.284,0.309,-3.594,-9.172,0.105,-3.29,-2.52,-6.58,-9.38
,-9.313,0.309,-3.228,-9.139,0.12,-3.91,-0.98,-6.09,-8.89
3558.0,-9.172,0.273,-3.666,-9.368,0.136,-3.276,5.11,-4.9,-7.35
,-9.206,0.316,-3.965,-9.418,0.345,-3.704,5.88,-4.9,-6.65
,-9.146,0.074,-3.62,-9.301,0.4,-3.745,6.44,-4.69,-6.02
,-9.234,-0.026,-3.317,-9.246,0.225,-3.551,7.49,-4.13,-5.18
3634.0,-9.227,-0.079,-3.35,-9.361,-0.079,-3.025,2.73,-4.69,-6.58
,-9.237,-0.335,-3.099,-9.495,0.031,-3.326,4.2,-3.99,-5.67
,-9.165,-0.278,-3.094,-9.287,0.06,-3.506,6.02,-3.36,-5.11
,-9.196,-0.168,-3.18,-9.189,0.048,-3.63,6.37,-3.08,-4.83
3710.0,-9.1,-0.089,-3.723,-9.452,-0.345,-3.501,-0.56,-3.5,-5.81
,-9.095,-0.438,-3.484,-9.268,-0.172,-3.498,-0.7,-3.08,-5.11
,-9.229,-0.62,-3.252,-9.201,0.029,-3.821,0.98,-2.66,-4.34
,-9.414,-0.495,-3.238,-9.055,-0.019,-3.764,2.52,-2.87,-4.13
3785.0,-9.038,-0.139,-3.41,-9.337,-0.223,-3.269,1.33,-3.64,-3.57
,-9.237,-0.211,-3.403,-9.232,-0.395,-3.161,1.75,-3.5,-3.22
,-9.433,-0.282,-3.405,-9.263,-0.38,-3.209,1.68,-3.78,-3.64
,-9.442,-0.275,-3.24,-9.246,-0.383,-2.982,1.89,-3.85,-3.64
3861.0,-9.332,-0.421,-2.704,-9.407,-0.369,-2.819,6.72,-1.68,-1.05
,-9.471,-0.361,-2.568,-9.474,-0.354,-3.128,7.0,-0.91,-0.77
,-9.457,-0.266,-2.697,-9.438,-0.347,-3.336,6.72,-0.21,-0.91
,-9.301,-0.285,-2.606,-9.332,-0.258,-3.609,5.32,0.91,-0.77
3937.0,-9.158,-0.227,-3.613,-9.351,0.091,-3.664,6.37,2.17,0.07
,-9.162,-0.179,-3.625,-9.296,0.084,-3.721,7.0,1.96,0.42
,-9.268,-0.156,-3.589,-9.244,-0.208,-3.618,7.42,1.75,0.63
,-9.375,0.055,-3.759,-9.385,-0.438,-3.769,7.14,1.26,0.21
4013.0,-9.421,-0.223,-3.824,-9.287,-0.27,-3.245,3.85,-0.77,-2.03
,-9.246,0.062,-3.68,-9.349,-0.175,-3.068,3.57,-1.05,-2.38
,-9.196,0.129,-3.573,-9.366,-0.194,-3.089,1.82,-1.4,-2.59
,-9.191,-0.201,-3.336,-9.397,-0.306,-3.175,0.56,-1.4,-2.24
4088.0,-9.299,-0.517,-3.017,-9.495,-0.385,-3.058,-1.05,-0.28,-1.54
,-9.296,-0.541,-2.984,-9.433,-0.23,-3.343,-0.21,0.28,-0.98
,-9.301,-0.51,-2.9,-9.294,-0.223,-3.355,0.0,0.91,-0.56
,-9.349,-0.474,-2.891,-9.301,-0.287,-3.302,0.07,1.33,-0.07
4164.0,-9.301,-0.201,-3.364,-9.296,-0.005,-3.513,2.24,1.47,1.33
,-9.301,-0.17,-3.36,-9.349,-0.148,-3.522,3.01,1.47,1.54
,-9.428,-0.136,-3.451,-9.282,-0.165,-3.637,2.94,1.4,1.47
,-9.495,-0.158,-3.527,-9.351,-0.168,-3.726,2.52,1.12,0.56
4240.0,-9.301,-0.074,-3.546,-9.438,-0.543,-2.948,-0.98,-0.35,-1.4
,-9.268,-0.232,-3.314,-9.397,-0.531,-2.931,-2.1,-0.28,-1.54
,-9.289,-0.397,-3.139,-9.383,-0.428,-3.053,-2.24,-0.14,-1.26
,-9.308,-0.495,-2.8,-9.325,-0.352,-3.068,-1.54,0.49,-0.49
4315.0,-9.275,-0.275,-3.082,-9.368,-0.012,-3.345,3.43,2.52,2.45
,-9.354,-0.23,-3.116,-9.337,-0.002,-3.367,4.2,2.8,3.15
,-9.32,-0.203,-3.159,-9.337,-0.172,-3.362,4.62,2.94,3.5
,-9.433,-0.172,-3.221,-9.354,-0.17,-3.417,4.9,3.01,3.64
4391.0,-9.378,-0.146,-3.441,-9.268,-0.299,-3.379,4.97,2.73,3.71
,-9.378,-0.122,-3.573,-9.289,-0.311,-3.352,5.46,2.59,3.64
,-9.325,-0.168,-3.604,-9.354,-0.203,-3.329,5.18,2.17,3.15
,-9.196,-0.177,-3.475,-9.371,-0.124,-3.4,4.62,2.1,2.94
4467.0,-9.39,-0.246,-3.314,-9.282,-0.029,-3.743,5.74,1.68,3.15
,-9.366,-0.16,-3.398,-9.284,-0.096,-3.611,5.88,1.61,3.29
,-9.387,-0.067,-3.594,-9.261,-0.091,-3.381,5.88,1.19,2.94
,-9.347,0.043,-3.728,-9.294,-0.086,-3.125,5.67,0.7,2.8
4543.0,-9.423,-0.163,-2.977,-9.351,-0.431,-2.771,3.01,0.63,2.24
,-9.43,-0.244,-2.876,-9.296,-0.699,-2.474,1.82,0.91,2.1
,-9.426,-0.251,-2.895,-9.328,-0.541,-2.355,0.7,1.26,1.89
,-9.351,-0.357,-2.833,-9.404,-0.23,-2.489,0.07,1.54,2.03
4618.0,-9.361,-0.239,-2.453,-9.383,-1.01,-1.828,-5.32,6.23,1.4
,-9.395,-0.232,-2.572,-9.387,-0.9,-1.661,-7.42,7.28,1.89
,-9.292,-0.524,-2.417,-9.521,-0.584,-2.221,-8.33,8.82,3.08
,-9.265,-0.809,-2.051,-9.574,-0.172,-2.953,-8.12,10.57,4.83
4694.0,-9.363,0.251,-3.46,-9.067,0.189,-3.065,-7.56,16.52,6.93
,-9.021,0.455,-3.908,-9.263,0.342,-3.515,-11.13,16.45,6.65
,-8.902,0.218,-3.515,-9.131,0.385,-3.329,-13.16,17.01,7.7
,-8.921,-0.014,-3.405,-9.148,0.285,-3.987,-11.2,17.71,8.54
4770.0,-8.954,-0.34,-3.381,-8.93,-0.395,-3.015,-18.62,17.78,6.02
,-9.244,-0.814,-3.903,-8.978,-0.182,-3.168,-13.79,18.83,8.82
,-9.127,-0.9,-3.506,-9.005,0.261,-2.68,-6.72,20.09,10.92
,-9.024,-0.706,-3.508,-9.28,0.744,-3.008,0.49,21.35,12.18
4846.0,-9.177,1.484,-4.106,-8.875,-0.682,-3.829,-1.61,21.91,9.94
,-9.074,1.388,-4.027,-9.031,-0.287,-3.862,-9.31,20.79,8.89
,-8.739,0.823,-4.415,-9.014,0.531,-4.36,-14.07,21.49,9.45
,-8.54,-0.153,-3.946,-8.94,1.141,-4.276,-12.46,23.59,11.06
4921.0,-8.89,1.196,-4.391,-8.701,1.785,-4.812,5.46,21.98,9.94
,-8.818,1.12,-4.235,-8.734,1.354,-4.618,4.9,22.12,10.29
,-8.89,1.17,-4.618,-8.772,0.711,-4.243,5.6,21.63,9.8
,-8.792,1.711,-4.673,-8.777,0.376,-4.47,5.81,20.72,8.54
4997.0,-8.911,0.318,-4.518,-8.72,-0.574,-4.767,-3.5,19.67,2.8
,-9.043,0.12,-4.81,-8.686,-0.139,-5.197,-2.73,19.6,3.64
,-9.016,-0.187,-4.841,-8.658,0.596,-5.645,-2.52,20.37,4.83
,-8.851,-0.512,-4.652,-8.571,1.07,-5.769,0.56,21.07,6.23
5072.0,-8.404,1.426,-5.721,-8.6,1.357,-5.252,11.69,14.7,7.63
,-8.562,1.223,-5.106,-8.614,0.706,-4.901,10.43,14.56,6.86
,-8.866,1.216,-5.197,-8.784,0.048,-4.59,9.73,13.65,5.53
,-8.811,1.441,-5.422,-8.988,-0.134,-4.81,8.54,11.97,4.2
5148.0,-8.796,-0.23,-5.15,-8.636,-0.436,-4.401,6.58,11.62,3.85
,-8.387,-0.416,-5.221,-8.732,0.156,-4.386,8.47,11.48,5.18
,-8.174,-0.538,-5.138,-9.036,0.495,-4.767,10.71,12.11,6.79
,-8.394,-0.706,-4.798,-9.086,0.782,-5.138,13.3,13.65,8.54
5224.0,-8.662,0.519,-5.032,-9.091,1.876,-4.803,8.89,9.31,11.13
,-7.834,0.517,-4.917,-9.387,2.259,-4.774,7.28,10.57,12.11
,-7.734,0.907,-4.745,-8.914,2.082,-4.884,10.29,12.11,12.25
,-8.327,1.426,-4.807,-8.521,1.366,-4.767,14.0,11.97,10.64
5300.0,-8.203,0.821,-4.793,-8.777,0.924,-4.783,-7.28,10.43,2.66
,-8.234,0.263,-4.721,-8.646,1.364,-5.018,-5.81,11.62,3.01
,-8.564,0.179,-4.635,-8.373,1.814,-5.068,-1.61,12.32,3.43
,-8.792,0.388,-4.618,-8.215,2.094,-5.24,1.75,12.32,3.08
5376.0,-8.346,2.063,-5.09,-8.358,-0.699,-5.209,0.84,11.06,-5.25
,-8.294,1.797,-4.843,-8.495,-1.512,-5.532,-1.54,10.99,-7.14
,-8.433,1.103,-4.968,-8.634,-2.563,-5.427,-4.2,11.27,-7.35
,-8.483,0.184,-5.166,-8.334,-2.223,-5.47,-6.37,11.55,-6.72
5451.0,-8.452,-2.024,-5.126,-8.105,2.714,-5.82,13.86,11.34,5.25
,-8.136,-0.29,-5.575,-8.382,2.678,-5.853,20.16,9.66,5.18
,-8.074,1.168,-5.908,-8.196,1.929,-5.863,22.05,7.7,4.62
,-7.964,2.072,-5.855,-8.423,0.761,-5.43,19.39,5.95,4.06
5527.0,-8.674,0.29,-5.552,-8.533,0.074,-5.212,-0.35,5.88,-0.56
,-8.744,-0.151,-5.427,-8.507,0.876,-5.549,2.66,5.46,0.14
,-8.263,0.23,-5.927,-8.392,1.543,-5.781,7.42,4.27,0.7
,-8.323,-0.122,-5.2,-8.315,2.053,-6.133,9.1,4.2,0.77
5603.0,-8.203,2.235,-6.451,-7.82,-0.189,-5.918,12.39,-0.98,-3.29
,-8.117,1.651,-6.36,-8.349,-0.699,-5.659,9.45,-1.82,-5.11
,-8.052,0.943,-6.009,-8.859,-0.916,-5.178,8.05,-1.96,-6.3
,-7.636,0.304,-5.839,-8.77,-0.905,-5.3,8.33,-2.66,-6.09
5679.0,-8.619,-0.27,-5.475,-8.332,0.242,-5.918,16.45,-3.22,0.14
,-8.579,0.316,-5.554,-7.961,-0.44,-5.832,15.33,-3.92,1.05
,-8.191,0.871,-5.75,-7.944,-0.794,-5.7,13.44,-4.27,0.42
,-8.473,0.404,-5.832,-8.239,-1.022,-5.578,9.87,-4.48,0.98
5754.0,-8.746,-1.522,-5.441,-8.681,1.084,-5.097,10.57,-3.01,8.12
,-8.885,-1.658,-5.061,-8.387,1.433,-5.054,13.86,-2.73,9.38
,-8.591,-0.756,-5.095,-8.303,1.852,-5.351,19.04,-2.73,10.36
,-8.526,0.4,-5.13,-8.323,1.989,-5.224,22.47,-2.24,10.5
5830.0,-8.363,1.826,-5.212,-8.349,0.658,-5.106,6.51,0.98,6.37
,-8.471,1.752,-5.248,-8.248,0.79,-5.248,3.5,1.61,5.11
,-8.567,1.498,-5.135,-8.303,0.828,-5.408,0.42,2.52,4.27
,-8.509,0.967,-5.075,-8.363,0.646,-5.406,-1.96,2.73,3.78
5905.0,-8.399,0.524,-5.621,-8.435,-0.648,-5.616,-7.84,4.13,3.36
,-8.485,0.299,-5.511,-8.406,-0.94,-5.542,-9.24,4.27,3.36
,-8.38,0.254,-5.729,-8.571,-0.845,-5.559,-10.15,3.92,3.78
,-8.337,-0.17,-5.75,-8.55,-0.68,-5.705,-11.34,4.55,4.97
5981.0,-8.203,-0.589,-5.674,-8.677,0.952,-5.54,-8.96,2.94,14.0
,-8.011,-0.782,-5.444,-8.684,1.326,-5.334,-8.75,3.36,15.26
,-8.33,-0.239,-5.317,-8.67,1.809,-5.255,-5.6,3.99,15.82
,-8.579,0.299,-5.398,-8.265,2.113,-5.214,-2.59,3.29,15.4
6057.0,-8.157,2.115,-5.059,-8.579,0.608,-5.298,-7.56,2.17,11.97
,-8.275,1.742,-5.027,-8.624,0.567,-5.449,-11.2,3.01,11.13
,-8.409,1.4,-5.159,-8.445,1.385,-5.769,-13.16,3.5,10.08
,-8.54,1.096,-5.207,-8.296,1.388,-5.717,-12.39,4.13,9.66
6133.0,-8.72,1.555,-5.475,-8.313,0.89,-5.432,0.0,1.96,6.09
,-8.411,1.29,-5.654,-8.327,1.031,-5.631,-1.4,-0.14,5.11
,-8.105,1.39,-5.822,-8.301,0.988,-5.554,-1.68,-0.28,4.76
,-8.055,1.161,-5.609,-8.39,0.775,-5.64,-3.22,0.14,4.69
6209.0,-8.404,0.881,-5.784,-8.179,1.094,-5.753,0.84,-2.59,2.59
,-8.33,0.909,-5.848,-8.129,1.096,-5.657,1.89,-2.66,3.01
,-8.418,0.842,-5.755,-8.363,1.053,-5.532,2.52,-3.01,2.87
,-8.382,0.895,-5.731,-8.26,1.498,-5.209,2.59,-4.83,2.45
6284.0,-8.43,1.488,-5.145,-8.291,1.342,-5.281,5.46,-7.28,2.1
,-8.521,1.61,-5.341,-8.246,1.18,-5.214,5.88,-7.56,1.61
,-8.629,1.51,-5.24,-8.33,1.086,-5.109,4.76,-8.4,0.56
,-8.514,1.385,-5.252,-8.55,1.275,-5.109,3.36,-9.45,-0.49
6360.0,-8.528,1.577,-5.195,-8.559,0.792,-5.054,8.4,-10.43,-2.03
,-8.373,1.651,-5.226,-8.631,1.094,-4.987,6.86,-10.71,-2.38
,-8.361,1.472,-5.25,-8.658,1.285,-4.994,3.92,-10.85,-2.52
,-8.37,1.187,-5.178,-8.504,1.567,-4.932,2.1,-10.71,-2.59
6436.0,-8.133,1.022,-4.704,-8.71,1.462,-4.704,-7.28,-14.84,-5.95
,-8.43,1.072,-4.616,-8.629,1.658,-4.685,-5.88,-14.35,-6.16
,-8.445,1.139,-4.757,-8.521,1.591,-4.712,-2.38,-14.0,-7.0
,-8.727,1.247,-4.743,-8.445,1.352,-4.585,-0.42,-13.65,-7.77
6512.0,-8.658,1.096,-4.712,-8.717,1.019,-4.587,-1.12,-11.9,-9.17
,-8.976,0.61,-5.918,-8.641,0.849,-4.372,-0.21,-12.04,-10.22
,-8.727,1.175,-4.882,-8.717,0.826,-4.532,1.19,-12.46,-11.34
,-8.792,1.177,-4.807,-8.67,0.794,-4.642,-0.84,-12.74,-12.32
6587.0,-8.576,0.648,-4.781,-8.894,0.057,-4.482,-7.14,-13.16,-12.6
,-8.593,0.395,-4.712,-8.801,-0.053,-4.542,-7.0,-13.16,-12.11
,-8.61,0.235,-4.685,-8.662,-0.053,-4.48,-4.13,-13.02,-11.41
,-8.82,0.129,-4.46,-8.715,-0.136,-4.642,-0.84,-12.74,-10.64
6663.0,-8.823,-0.16,-4.695,-8.935,0.625,-4.195,3.22,-14.07,-4.62
,-8.849,0.146,-4.46,-8.859,0.61,-4.185,4.76,-14.21,-4.48
,-8.725,0.534,-4.207,-8.804,0.565,-3.908,5.46,-14.35,-4.62
,-8.856,0.548,-4.154,-8.945,0.596,-3.843,4.62,-14.35,-4.9
6738.0,-9.033,0.943,-3.745,-8.981,0.56,-3.656,8.61,-12.53,-3.99
,-8.964,1.23,-3.793,-9.103,0.318,-3.606,8.54,-12.46,-5.11
,-8.875,1.228,-3.934,-9.04,0.73,-4.058,5.6,-12.46,-5.81
,-8.923,0.912,-3.855,-8.866,0.78,-3.905,2.59,-12.11,-5.74
6814.0,-8.847,0.794,-4.14,-9.086,0.488,-3.972,1.68,-10.99,-6.51
,-8.899,0.5,-4.393,-8.981,0.455,-3.731,0.07,-11.34,-6.16
,-9.014,0.261,-3.984,-8.993,0.364,-3.745,-0.07,-11.27,-6.16
,-9.091,0.34,-3.833,-8.99,0.156,-3.874,1.61,-10.99,-6.37
6890.0,-9.036,0.273,-3.714,-9.241,0.955,-3.575,3.15,-10.64,-6.44
,-9.072,0.421,-3.788,-9.174,1.127,-3.881,4.97,-10.5,-6.37
,-9.091,0.637,-3.74,-9.112,1.366,-4.367,5.88,-10.15,-6.16
,-9.182,0.883,-3.805,-8.99,1.287,-4.03,5.32,-9.8,-6.44
6966.0,-9.024,1.053,-4.539,-9.249,-0.663,-2.879,-3.92,-12.18,-11.34
,-8.981,0.644,-3.991,-9.241,-0.727,-2.608,-4.2,-12.25,-11.48
,-9.009,0.124,-3.697,-9.395,-0.62,-2.615,-2.52,-12.11,-10.57
,-9.232,-0.38,-3.163,-9.361,-0.622,-2.735,-1.33,-11.62,-9.8
7042.0,-9.289,-0.498,-2.642,-9.203,0.507,-3.391,5.25,-6.58,-5.67
,-9.28,-0.038,-3.19,-9.284,0.467,-3.659,7.21,-5.74,-5.11
,-9.337,0.357,-3.338,-9.229,0.546,-3.697,7.84,-5.39,-5.11
,-9.162,0.512,-3.367,-9.196,0.577,-3.783,7.07,-5.04,-5.11
7117.0,-9.143,0.325,-3.68,-9.363,-0.29,-2.682,7.77,-5.39,-5.81
,-9.098,0.057,-3.4,-9.435,-0.184,-2.761,7.35,-5.25,-5.53
,-9.15,-0.189,-3.218,-9.328,-0.172,-2.9,7.42,-5.04,-5.04
,-9.249,-0.213,-2.895,-9.316,-0.235,-3.142,7.42,-4.41,-4.83
7193.0,-9.253,-0.366,-3.374,-9.229,0.359,-4.195,3.57,-1.47,-3.85
,-9.208,-0.17,-3.743,-9.16,0.531,-4.156,4.9,-1.54,-3.78
,-9.134,0.007,-3.759,-9.225,0.632,-4.322,5.67,-1.82,-3.64
,-9.198,0.218,-3.982,-9.165,0.586,-3.963,5.95,-2.17,-3.64
7269.0,-9.227,0.447,-3.766,-9.435,-0.416,-2.793,5.46,-6.23,-5.74
,-9.203,0.203,-3.281,-9.512,-0.632,-2.972,4.97,-6.37,-5.88
,-9.359,0.029,-3.18,-9.325,-0.438,-2.754,4.69,-6.51,-5.95
,-9.44,-0.17,-2.982,-9.1,-0.428,-2.446,4.2,-6.3,-6.16
7345.0,-9.232,-0.675,-2.304,-9.517,-0.751,-2.28,3.78,-1.4,-4.13
,-9.378,-0.957,-2.127,-9.32,-0.591,-2.295,4.41,-0.14,-3.01
,-9.395,-1.113,-1.804,-9.313,-0.524,-2.548,5.53,1.54,-1.33
,-9.526,-1.041,-1.991,-9.426,-0.39,-2.881,6.93,3.29,-0.07
7420.0,-9.49,-0.024,-3.518,-9.103,0.476,-4.494,5.46,7.91,2.38
,-9.308,0.22,-3.833,-9.069,0.4,-4.429,3.92,7.28,1.96
,-9.296,0.342,-4.2,-9.172,0.227,-4.355,2.31,6.79,1.75
,-9.139,0.361,-4.405,-9.287,0.079,-4.233,1.68,5.81,1.4
7496.0,-9.354,0.103,-4.176,-9.21,-0.251,-3.324,3.5,-0.07,0.21
,-9.251,0.072,-4.104,-9.294,-0.237,-3.061,4.06,-0.84,-0.07
,-9.256,-0.139,-4.001,-9.387,-0.345,-2.816,4.48,-1.54,-0.14
,-9.198,-0.239,-3.738,-9.462,-0.364,-2.745,5.67,-1.96,-0.07
7571.0,-9.462,-0.433,-2.84,-9.335,0.041,-3.436,3.99,-0.35,0.42
,-9.332,-0.354,-2.967,-9.313,0.153,-3.649,3.71,0.21,0.63
,-9.344,-0.268,-3.08,-9.258,0.019,-3.735,3.64,0.63,0.84
,-9.378,-0.129,-3.228,-9.232,-0.022,-3.687,3.85,1.05,0.98
7647.0,-9.282,-0.115,-3.676,-9.375,-0.227,-3.123,3.01,0.07,0.42
,-9.287,-0.11,-3.589,-9.347,-0.203,-2.986,4.27,-0.21,0.42
,-9.313,-0.074,-3.374,-9.378,-0.196,-3.123,4.76,-0.42,0.49
,-9.311,-0.132,-3.223,-9.316,-0.321,-3.037,4.62,-0.49,0.56
7723.0,-9.342,-0.294,-3.113,-9.28,-0.139,-3.374,3.57,0.98,1.12
,-9.375,-0.225,-3.235,-9.366,-0.096,-3.537,3.99,1.4,1.26
,-9.282,-0.074,-3.398,-9.318,0.077,-3.546,3.78,1.61,1.26
,-9.253,-0.105,-3.419,-9.349,0.208,-3.611,3.15,1.54,1.4
7799.0,-9.349,0.146,-3.632,-9.354,-0.134,-3.228,0.35,0.35,0.14
,-9.296,-0.134,-3.491,-9.323,-0.287,-3.159,-0.84,0.21,-0.14
,-9.34,-0.156,-3.441,-9.316,-0.373,-3.082,-1.05,0.07,-0.77
,-9.34,-0.074,-3.338,-9.311,-0.345,-3.075,-0.84,0.07,-1.05
7874.0,-9.273,-0.304,-3.07,-9.375,-0.019,-3.259,1.54,1.4,0.77
,-9.263,-0.333,-3.015,-9.337,-0.12,-3.312,1.89,1.89,1.4
,-9.356,-0.27,-2.931,-9.287,-0.199,-3.434,2.03,2.24,1.68
,-9.407,-0.175,-3.096,-9.194,-0.215,-3.431,1.89,2.38,1.54
7950.0,-9.213,-0.213,-3.362,-9.325,-0.122,-3.087,0.56,2.87,1.96
,-9.335,-0.292,-3.252,-9.368,-0.129,-3.108,1.05,3.08,2.45
,-9.38,-0.299,-3.285,-9.39,-0.158,-3.195,1.68,3.29,2.45
,-9.407,-0.261,-3.089,-9.375,-0.077,-3.245,1.47,3.36,2.24
8026.0,-9.33,-0.136,-3.235,-9.435,-0.22,-2.603,-1.12,4.62,2.52
,-9.292,-0.235,-2.946,-9.421,-0.01,-2.754,-0.98,5.46,3.29
,-9.316,-0.309,-2.613,-9.366,0.158,-3.345,-0.77,6.16,4.06
,-9.409,-0.33,-2.613,-9.241,0.048,-3.484,-0.28,7.07,4.62
8102.0,-9.057,-0.227,-3.46,-9.548,-0.424,-2.656,-7.07,8.68,2.8
,-9.057,-0.67,-3.068,-9.56,-0.163,-3.151,-5.11,9.59,4.13
,-9.184,-0.943,-2.711,-9.246,0.079,-2.888,-0.63,10.64,5.95
,-9.356,-0.723,-2.623,-9.119,0.038,-3.166,3.78,11.48,6.79
8178.0,-9.117,-0.34,-2.778,-9.416,1.132,-4.334,-2.8,14.77,6.02
,-9.162,-0.316,-2.764,-9.014,1.199,-5.097,0.07,16.1,7.56
,-9.208,-0.163,-2.424,-8.792,0.641,-5.157,2.45,17.57,8.54
,-9.43,0.39,-3.106,-8.82,-0.053,-5.09,3.99,17.85,8.54
8253.0,-8.949,-0.352,-4.401,-9.194,0.66,-4.515,-3.85,12.25,5.95
,-9.162,0.16,-4.379,-9.057,0.459,-4.31,2.8,11.62,6.23
,-9.246,0.431,-4.214,-9.165,0.091,-4.018,4.41,10.99,5.32
,-9.32,0.5,-4.135,-9.213,0.117,-4.259,2.17,10.36,4.48
8329.0,-9.043,0.201,-4.092,-9.06,-0.246,-3.228,-3.08,7.35,4.13
,-9.076,0.299,-4.183,-9.251,-0.057,-3.563,-1.82,7.21,4.13
,-8.983,0.323,-4.037,-9.189,0.56,-3.611,-2.03,7.28,3.92
,-9.012,-0.041,-3.845,-9.208,0.838,-4.046,-2.38,7.84,4.27
8404.0,-8.961,0.785,-4.326,-9.117,-0.022,-3.549,-2.59,6.86,2.8
,-8.839,0.299,-3.917,-8.959,0.412,-3.709,-3.92,7.49,3.43
,-8.918,-0.153,-3.766,-9.031,0.366,-3.855,-1.82,8.89,4.62
,-9.043,-0.388,-3.008,-9.028,-0.38,-3.776,2.8,10.22,5.81
8480.0,-9.04,-0.797,-3.24,-9.287,1.742,-4.089,5.04,13.86,7.7
,-8.885,-0.28,-2.381,-8.954,1.139,-4.25,15.61,15.82,9.87
,-8.933,0.928,-3.266,-8.89,0.27,-4.513,20.09,15.26,8.26
,-9.167,1.718,-3.496,-8.82,-0.117,-4.846,15.26,13.58,4.97
8556.0,-8.588,-0.316,-4.762,-9.43,-0.235,-3.771,-1.89,13.86,4.55
,-8.447,-0.574,-4.058,-9.179,-0.091,-3.812,2.52,15.19,5.67
,-8.717,-0.548,-4.001,-9.019,-0.136,-3.91,5.67,15.82,5.32
,-9.146,-0.462,-3.503,-8.825,-0.041,-4.015,6.79,16.24,4.97
8632.0,-8.77,-0.144,-3.656,-8.634,1.608,-5.138,4.97,19.18,10.64
,-8.868,0.007,-3.97,-8.344,1.783,-4.989,8.82,18.97,10.99
,-8.823,0.67,-4.539,-8.588,1.529,-4.984,11.76,17.78,10.29
,-8.758,1.254,-4.669,-8.887,1.144,-5.2,13.44,17.36,10.43
8707.0,-9.124,0.62,-4.649,-8.485,-1.101,-4.274,4.76,15.61,3.64
,-9.16,0.474,-4.573,-8.524,-1.161,-4.642,6.02,16.52,3.36
,-8.885,0.034,-4.496,-8.696,-0.926,-4.774,5.81,17.92,4.13
,-8.612,-0.701,-4.08,-8.693,-0.665,-4.673,3.92,18.41,5.53
8783.0,-8.39,-0.16,-4.207,-8.813,1.881,-4.319,11.06,19.39,12.46
,-8.299,0.543,-4.058,-8.464,1.938,-4.329,13.02,20.37,13.23
,-8.648,1.12,-4.082,-8.421,1.962,-4.346,12.81,20.65,12.74
,-9.012,1.606,-4.159,-8.459,2.0,-4.279,9.87,20.16,11.55
8859.0,-8.732,2.127,-4.506,-8.425,0.392,-5.025,4.83,21.14,3.43
,-8.77,1.907,-4.788,-8.49,0.213,-5.099,4.06,21.84,1.75
,-8.559,1.424,-4.733,-8.363,0.201,-5.205,0.91,22.54,0.77
,-8.402,0.919,-4.81,-8.404,0.517,-5.494,-0.42,23.38,0.49
8935.0,-8.246,0.725,-5.506,-8.622,1.17,-5.614,2.87,20.37,-0.42
,-8.11,0.696,-5.506,-8.437,1.577,-5.961,0.63,19.39,-0.42
,-8.253,0.802,-5.48,-8.423,1.364,-5.97,-0.56,18.9,-1.05
,-8.485,0.852,-5.418,-8.162,1.101,-6.143,-0.42,18.62,-1.54
9011.0,-7.999,0.656,-6.267,-8.624,-1.582,-6.327,2.24,13.79,-5.18
,-7.858,-0.211,-6.214,-8.744,-1.4,-6.372,3.5,14.14,-3.15
,-7.911,-0.991,-6.277,-8.246,-1.39,-6.411,5.53,14.21,-1.33
,-8.177,-1.34,-6.365,-8.179,-0.388,-6.858,9.38,13.79,-0.21
9086.0,-7.528,-0.124,-6.741,-8.696,-0.385,-6.006,17.5,7.28,6.02
,-7.729,0.017,-6.849,-8.526,0.024,-5.86,17.08,6.02,7.56
,-7.798,-0.034,-6.59,-8.066,1.019,-5.669,15.82,4.83,8.61
,-8.471,-0.333,-6.126,-8.11,1.608,-5.547,15.82,3.43,9.66
9162.0,-8.196,2.182,-5.568,-8.016,1.039,-5.8,21.7,0.07,6.58
,-8.559,2.211,-5.702,-7.87,0.816,-5.688,19.46,0.49,4.2
,-8.636,1.689,-5.487,-8.095,0.328,-5.702,17.99,0.77,2.38
,-8.413,1.366,-5.494,-8.296,0.103,-5.702,16.73,-0.07,0.42
9237.0,-8.459,0.05,-5.662,-7.983,0.01,-5.573,16.38,-0.49,-0.28
,-8.416,0.124,-5.726,-7.863,0.258,-5.913,16.66,-0.98,-0.42
,-8.272,0.34,-5.779,-7.995,0.254,-5.956,16.03,-1.75,-0.91
,-8.203,0.203,-5.53,-8.598,0.101,-5.851,13.09,-2.73,-0.14
9313.0,-8.459,-0.263,-5.504,-8.179,-0.436,-5.528,4.9,-5.88,2.17
,-8.449,0.206,-5.755,-8.112,-0.179,-5.544,9.03,-5.46,2.31
,-8.076,-0.017,-5.75,-8.208,0.491,-5.693,9.66,-5.39,1.82
,-8.1,-0.031,-5.406,-8.399,0.495,-5.54,8.61,-5.6,2.73
9389.0,-8.6,0.529,-5.494,-8.583,0.45,-5.367,10.15,-4.69,4.69
,-8.473,0.483,-5.432,-8.435,0.861,-5.611,8.54,-4.13,5.04
,-8.507,0.519,-5.549,-8.222,0.79,-5.762,8.26,-3.29,5.74
,-8.55,0.488,-5.461,-8.186,0.529,-5.657,7.14,-2.73,5.39
9465.0,-8.26,0.29,-5.595,-8.349,0.687,-5.422,-0.91,-0.28,4.2
,-8.155,0.122,-5.757,-8.603,0.782,-5.444,-0.56,0.42,4.27
,-8.184,0.426,-5.676,-8.423,0.974,-5.384,0.49,0.84,3.99
,-8.234,0.548,-5.501,-8.251,0.936,-5.415,-0.07,1.19,3.99
9540.0,-8.22,0.905,-5.451,-8.751,0.194,-5.556,-10.15,1.54,3.36
,-8.143,0.392,-5.272,-8.382,0.596,-5.815,-12.39,2.24,3.64
,-8.153,0.225,-5.518,-8.1,0.258,-5.808,-13.23,3.08,4.27
,-8.531,0.263,-5.571,-8.327,-0.179,-5.549,-12.81,3.29,4.9
9616.0,-8.44,0.031,-5.485,-8.681,0.782,-5.451,-12.88,4.27,6.65
,-8.373,0.44,-5.461,-8.533,1.079,-5.418,-12.11,3.78,6.23
,-8.459,0.675,-5.547,-8.409,1.113,-5.571,-12.6,3.57,6.3
,-8.607,0.768,-5.59,-8.327,1.268,-5.552,-13.51,3.22,5.88
9691.0,-8.349,0.995,-5.523,-8.557,0.94,-6.193,-15.05,1.54,4.06
,-8.378,0.644,-5.542,-8.729,1.007,-6.102,-15.68,1.47,4.27
,-8.279,0.701,-5.774,-8.705,0.72,-5.954,-14.28,1.61,4.69
,-8.282,0.895,-5.977,-8.437,0.778,-5.836,-11.55,1.54,4.97
9767.0,-7.856,0.859,-6.073,-8.748,0.792,-6.04,-8.33,-4.76,-0.56
,-7.629,0.857,-5.999,-8.734,0.663,-5.97,-8.82,-4.62,-0.49
,-7.978,0.802,-5.903,-8.382,0.629,-5.906,-8.4,-4.69,-0.42
,-8.48,0.541,-5.889,-8.09,0.385,-5.872,-6.72,-5.67,-1.05
9843.0,-8.251,0.287,-5.846,-7.889,0.759,-5.611,2.1,-8.12,-2.1
,-8.521,0.266,-5.731,-8.354,0.474,-5.291,3.01,-10.01,-1.89
,-8.421,0.517,-5.87,-8.378,0.883,-5.525,2.73,-12.88,-1.61
,-8.031,0.711,-5.796,-8.356,1.084,-5.214,2.38,-13.72,-1.19
9919.0,-8.516,1.261,-5.075,-8.569,1.216,-4.688,10.99,-14.21,-0.49
,-8.598,1.46,-5.083,-8.617,1.098,-4.733,12.46,-14.28,-1.19
,-8.435,1.603,-4.968,-8.679,1.034,-4.752,13.02,-14.28,-2.1
,-8.423,1.366,-4.877,-8.672,1.048,-4.815,12.53,-14.07,-2.73
9995.0,-8.555,1.084,-4.791,-8.655,0.177,-4.769,5.04,-17.5,-7.21
,-8.306,0.962,-4.96,-8.507,0.218,-4.58,0.28,-18.13,-7.77
,-8.32,0.584,-4.838,-8.574,0.507,-4.57,-2.17,-18.06,-7.7
,-8.327,-0.115,-4.628,-8.588,0.687,-4.757,-1.05,-17.57,-8.12
10070.0,-8.643,0.584,-4.599,-8.636,0.826,-4.867,5.81,-16.66,-3.78
,-8.658,0.634,-4.791,-8.507,0.921,-4.733,5.74,-16.17,-3.71
,-8.794,0.567,-4.736,-8.38,0.931,-4.544,5.81,-16.24,-4.13
,-8.782,0.684,-4.908,-8.806,0.833,-4.503,6.37,-16.66,-4.48
10146.0,-9.014,0.782,-4.434,-8.653,0.23,-4.365,0.91,-17.92,-8.05
,-9.148,0.792,-4.578,-8.758,-0.002,-4.027,0.21,-18.62,-9.03
,-9.036,0.823,-4.499,-8.77,0.115,-4.405,-0.91,-19.04,-9.17
,-8.818,0.639,-4.535,-8.918,0.431,-4.429,-2.66,-18.9,-9.17
10222.0,-8.985,0.586,-4.183,-8.878,0.172,-3.711,2.59,-19.11,-8.05
,-8.854,0.57,-4.346,-8.863,0.562,-3.877,0.77,-19.11,-8.47
,-8.672,0.225,-4.011,-8.921,0.675,-3.836,-0.91,-18.62,-8.54
,-8.82,0.012,-3.771,-9.067,0.613,-3.865,0.07,-17.99,-8.05
10298.0,-8.993,0.28,-3.374,-9.038,-0.096,-3.405,-0.7,-17.22,-8.54
,-9.062,-0.036,-3.226,-9.127,-0.34,-3.166,0.77,-16.31,-8.4
,-8.99,-0.048,-3.288,-9.172,-0.572,-2.687,2.87,-15.82,-8.89
,-8.976,0.098,-3.309,-9.383,-0.455,-3.204,3.85,-15.47,-8.68
10373.0,-9.217,0.053,-3.374,-8.961,0.199,-3.049,5.95,-11.69,-5.81
,-9.172,0.165,-3.307,-9.241,0.421,-3.235,4.9,-11.06,-5.11
,-9.162,0.05,-3.616,-9.177,0.718,-3.003,3.36,-10.57,-5.46
,-9.012,0.086,-3.616,-9.206,0.948,-3.384,3.71,-10.36,-5.81
10449.0,-9.268,0.821,-3.247,-9.143,-0.481,-2.974,2.38,-7.7,-8.05
,-9.143,0.603,-3.408,-9.292,-0.361,-3.314,-0.21,-7.14,-9.03
,-9.182,0.074,-3.041,-9.378,-0.223,-3.293,-1.75,-6.16,-8.96
,-9.22,-0.342,-3.319,-9.378,-0.151,-3.096,-1.82,-5.18,-8.75
10524.0,-9.409,-0.39,-2.96,-9.344,-0.129,-3.309,-2.73,-2.94,-6.65
,-9.308,-0.412,-3.187,-9.253,0.141,-3.491,-2.03,-2.17,-6.44
,-9.117,-0.443,-2.936,-9.17,0.227,-3.606,-0.28,-1.68,-5.53
,-9.237,-0.436,-2.903,-9.04,0.067,-3.441,2.31,-0.84,-4.41
10600.0,-9.079,-0.201,-3.453,-9.27,-0.428,-3.369,1.89,0.21,-4.48
,-9.232,-0.278,-3.269,-9.215,-0.704,-3.118,1.96,0.77,-4.06
,-9.471,-0.227,-3.348,-9.395,-0.835,-3.017,2.24,1.05,-3.92
,-9.521,-0.278,-3.542,-9.428,-0.648,-3.082,1.12,0.98,-4.13
10676.0,-9.399,-0.347,-3.154,-9.124,0.156,-3.446,4.34,3.43,-0.07
,-9.335,-0.014,-3.254,-9.196,0.122,-3.501,4.48,3.85,0.07
,-9.21,0.215,-3.455,-9.289,-0.022,-3.654,4.34,4.06,-0.07
,-9.091,0.309,-3.52,-9.182,-0.093,-3.774,3.43,4.06,-0.28
10752.0,-9.124,-0.031,-4.142,-9.158,-0.555,-3.778,1.68,3.01,-2.03
,-8.88,-0.074,-4.441,-9.215,-0.407,-3.774,1.19,2.31,-2.24
,-8.725,-0.239,-4.362,-9.251,-0.261,-3.534,1.54,2.03,-1.68
,-8.854,-0.555,-3.944,-9.215,-0.187,-3.575,2.94,1.96,-0.7
10828.0,-9.17,-0.182,-3.563,-9.263,-0.548,-3.13,3.64,1.19,-0.35
,-9.253,-0.103,-3.644,-9.249,-0.603,-2.934,3.43,1.26,-0.28
,-9.136,-0.081,-3.558,-9.32,-0.467,-2.962,2.87,1.33,-0.42
,-9.177,-0.244,-3.254,-9.452,-0.079,-3.321,2.24,1.96,0.0
10903.0,-9.258,0.163,-3.494,-9.316,-0.136,-3.57,2.94,4.41,0.63
,-9.117,0.036,-3.501,-9.373,0.191,-3.891,-0.28,4.9,0.56
,-9.189,-0.244,-3.518,-9.182,0.244,-3.955,-2.03,5.32,0.56
,-9.28,-0.323,-3.472,-9.122,-0.12,-3.987,-1.89,5.6,0.63
10979.0,-9.119,-0.378,-3.932,-9.34,-0.045,-3.833,-3.85,4.41,0.14
,-9.117,-0.443,-3.891,-9.206,0.067,-4.03,-1.12,4.34,0.7
,-9.186,-0.426,-3.666,-9.16,0.038,-4.164,0.98,4.27,1.19
,-9.308,-0.258,-3.635,-9.067,-0.093,-4.154,2.17,4.55,1.61
11055.0,-9.179,-0.177,-4.073,-9.191,-0.034,-3.953,1.4,2.38,1.33
,-9.22,-0.096,-3.965,-9.095,-0.096,-3.958,1.89,2.03,1.26
,-9.229,-0.041,-3.97,-9.1,-0.026,-4.111,1.68,1.26,0.91
,-9.191,-0.069,-3.9,-9.091,-0.144,-3.924,0.84,0.84,0.63
11131.0,-9.16,-0.237,-3.743,-9.375,-0.282,-3.111,1.26,-0.7,0.84
,-9.189,-0.352,-3.455,-9.328,-0.072,-3.195,1.89,-0.42,1.19
,-9.253,-0.373,-3.29,-9.261,0.041,-3.386,2.59,-0.07,1.4
,-9.351,-0.366,-3.128,-9.174,-0.055,-3.446,2.38,0.63,1.54
11206.0,-9.182,-0.117,-3.618,-9.184,0.077,-3.874,-1.05,2.66,1.19
,-9.198,-0.041,-3.824,-9.191,0.163,-3.958,0.0,2.73,1.33
,-9.141,0.053,-3.848,-9.131,0.196,-3.994,0.49,2.66,1.33
,-9.122,0.01,-3.764,-9.117,-0.045,-3.848,0.77,2.59,1.47
11282.0,-9.158,-0.175,-3.743,-9.296,-0.057,-3.525,1.61,1.68,0.77
,-9.234,-0.153,-3.604,-9.22,0.041,-3.604,2.94,1.82,1.12
,-9.294,-0.108,-3.451,-9.17,-0.007,-3.802,3.43,1.82,1.12
,-9.359,-0.026,-3.408,-9.124,-0.014,-3.908,3.5,2.03,1.05
11357.0,-9.074,0.057,-3.97,-9.21,0.081,-3.934,2.31,2.24,0.21
,-9.083,0.002,-3.989,-9.165,0.048,-3.929,2.45,1.61,0.21
,-9.021,0.005,-3.888,-9.17,-0.105,-3.802,2.8,1.4,0.35
,-9.162,-0.038,-3.96,-9.196,-0.115,-3.814,3.43,1.19,0.42
11433.0,-9.155,-0.144,-3.704,-9.241,-0.11,-3.463,4.06,0.35,0.28
,-9.225,-0.153,-3.527,-9.263,-0.168,-3.451,3.99,0.49,0.28
,-9.261,-0.172,-3.489,-9.232,-0.242,-3.522,3.78,0.49,0.07
,-9.258,-0.146,-3.441,-9.186,-0.235,-3.62,3.5,0.63,0.0
11509.0,-9.222,-0.129,-3.781,-9.143,-0.057,-3.869,3.08,1.89,0.14
,-9.127,-0.031,-3.802,-9.182,-0.117,-3.85,2.87,1.68,0.14
,-9.088,-0.05,-3.912,-9.203,-0.187,-3.807,2.66,1.54,0.28
,-9.079,-0.048,-3.922,-9.22,-0.179,-3.692,2.66,1.47,0.14
11585.0,-9.131,-0.199,-3.647,-9.203,-0.17,-3.637,3.29,1.12,0.49
,-9.172,-0.211,-3.606,-9.213,-0.208,-3.702,2.87,1.05,0.56
,-9.172,-0.175,-3.563,-9.146,-0.201,-3.747,2.66,1.12,0.56
,-9.253,-0.168,-3.613,-9.086,-0.256,-3.592,2.31,1.12,0.49
11661.0,-9.172,-0.208,-3.673,-9.153,-0.225,-3.872,2.24,1.75,1.26
,-9.153,0.007,-3.757,-9.172,-0.261,-3.778,2.24,1.47,0.98
,-9.198,0.057,-3.841,-9.153,-0.168,-3.81,1.33,1.26,0.84
,-9.16,-0.089,-3.853,-9.115,-0.175,-3.659,0.7,1.19,0.84
11736.0,-9.162,-0.268,-3.53,-9.146,-0.218,-3.51,3.43,1.05,2.24
,-9.172,-0.297,-3.542,-9.16,-0.239,-3.489,3.85,1.33,2.52
,-9.201,-0.196,-3.594,-9.191,-0.268,-3.439,3.92,1.61,2.66
,-9.1,-0.165,-3.532,-9.28,-0.184,-3.403,3.78,1.82,2.8
11812.0,-9.361,0.002,-3.35,-9.146,-0.177,-3.75,2.73,3.71,3.08
,-9.311,0.117,-3.417,-9.026,-0.105,-3.879,1.4,3.85,2.73
,-9.275,-0.019,-3.321,-9.009,-0.29,-3.829,-0.77,4.27,2.52
,-9.282,-0.091,-3.656,-9.098,-0.541,-3.491,-2.17,4.62,2.1
11888.0,-9.122,-0.586,-3.056,-9.162,0.151,-3.759,-0.28,5.53,3.36
,-9.328,-0.443,-2.984,-9.069,-0.215,-3.659,0.21,6.23,3.57
,-9.435,-0.273,-3.087,-9.033,-0.605,-3.652,-0.84,6.51,3.01
,-9.361,0.029,-3.486,-9.072,-0.842,-3.238,-2.73,6.09,1.89
11964.0,-9.141,-0.67,-3.156,-9.038,0.486,-3.891,0.0,9.17,5.74
,-9.256,-0.215,-3.41,-8.978,-0.235,-3.489,2.87,9.1,5.88
,-9.155,0.586,-4.087,-8.995,-0.84,-2.704,2.52,8.26,4.34
,-9.026,0.866,-4.109,-9.32,-0.436,-3.108,-1.54,7.35,3.36
12039.0,-9.186,0.06,-3.319,-9.0,-0.538,-3.458,1.05,12.04,7.14
,-9.069,0.704,-3.623,-9.048,-0.589,-3.18,-0.7,10.85,5.25
,-9.083,0.751,-4.13,-8.949,-0.031,-3.398,-5.53,10.57,4.48
,-8.978,0.055,-3.707,-8.945,0.287,-3.446,-9.03,11.76,5.53
12115.0,-8.914,0.354,-3.125,-9.083,-0.041,-4.987,3.99,16.8,7.91
,-8.854,0.225,-3.891,-8.698,-0.328,-4.482,1.89,16.24,7.63
,-9.057,0.05,-4.111,-8.526,0.069,-4.439,-0.49,15.05,7.07
,-9.292,0.105,-4.958,-8.555,0.419,-4.35,-1.12,14.28,7.07
12190.0,-8.894,0.857,-4.489,-8.808,0.919,-3.929,12.18,15.19,7.63
,-9.055,1.098,-4.683,-8.753,1.323,-4.173,9.24,14.56,6.93
,-9.028,0.823,-4.635,-8.83,1.385,-4.824,5.11,15.05,7.28
,-8.971,0.62,-3.888,-8.935,0.916,-5.035,5.11,15.75,8.4
12266.0,-8.916,0.268,-4.927,-8.847,0.134,-5.104,-5.39,12.04,2.38
,-8.978,-0.124,-4.468,-8.538,-0.17,-4.992,-3.78,13.37,2.59
,-9.131,-0.165,-4.197,-8.435,-0.584,-4.582,0.0,13.72,2.52
,-9.16,-0.043,-4.762,-8.526,-0.912,-3.929,1.89,12.88,2.24
12342.0,-8.696,-0.897,-3.917,-8.617,0.811,-4.664,7.35,14.84,8.68
,-8.93,-0.488,-4.384,-8.547,0.771,-4.769,10.43,13.44,8.68
,-8.964,0.081,-4.795,-8.512,0.596,-5.02,11.83,11.76,9.1
,-8.799,0.526,-4.908,-8.581,0.361,-5.001,12.18,11.27,9.94
12418.0,-8.725,0.182,-4.843,-8.717,0.342,-4.446,8.61,11.76,10.29
,-8.875,0.148,-4.616,-8.894,0.433,-4.623,8.68,12.39,10.08
,-8.72,0.342,-4.439,-8.897,0.56,-4.786,8.26,13.02,9.66
,-8.526,0.342,-4.317,-8.88,1.067,-5.128,7.63,13.65,10.15
12494.0,-8.583,1.455,-5.248,-8.758,0.285,-4.41,6.65,10.08,8.47
,-8.287,1.508,-5.078,-9.153,0.201,-4.434,5.46,11.06,7.7
,-8.229,1.244,-4.757,-9.155,0.213,-4.537,2.03,11.55,7.14
,-8.339,0.723,-4.403,-8.952,0.522,-4.733,-0.49,12.6,7.07
12569.0,-8.454,0.579,-4.929,-8.528,0.902,-5.056,4.9,11.76,6.37
,-8.323,0.663,-5.025,-8.617,0.945,-4.992,5.25,11.83,5.88
,-8.461,0.706,-5.24,-8.634,1.28,-4.901,5.67,11.2,5.88
,-8.394,0.888,-5.252,-8.495,1.673,-4.953,5.11,11.27,5.67
12645.0,-8.464,1.754,-4.965,-8.203,0.031,-4.783,2.94,9.45,1.33
,-8.358,1.752,-4.905,-8.658,-0.524,-5.03,0.7,10.01,0.63
,-8.49,1.357,-4.757,-8.559,-0.591,-5.331,-2.45,10.15,-0.28
,-8.43,0.715,-4.692,-8.835,-0.56,-5.095,-5.53,10.5,-0.7
12721.0,-8.689,-0.309,-5.152,-8.004,1.283,-5.987,11.2,9.45,2.66
,-8.792,0.838,-5.384,-7.868,0.452,-6.004,16.17,8.47,0.84
,-8.686,1.61,-5.846,-8.11,-0.139,-6.133,16.52,7.42,-0.07
,-8.011,1.771,-5.836,-8.208,-0.66,-6.193,13.65,6.93,0.28
12797.0,-8.509,-1.297,-6.016,-8.363,-0.337,-5.312,5.81,5.39,6.51
,-8.71,-1.577,-5.913,-8.464,0.378,-5.456,10.01,5.18,7.91
,-8.935,-1.184,-5.731,-8.583,1.692,-5.75,14.7,4.48,9.38
,-8.729,-0.84,-5.564,-8.837,1.895,-5.485,17.57,3.29,10.5
12872.0,-8.827,1.651,-5.279,-7.724,1.122,-5.765,13.16,1.26,7.07
,-8.806,1.591,-5.339,-7.995,0.579,-5.501,13.44,1.19,4.69
,-8.48,1.625,-5.394,-8.351,0.443,-5.485,12.67,0.77,3.99
,-8.057,1.366,-5.544,-8.674,0.641,-5.401,10.5,-0.56,3.22
12948.0,-8.667,1.077,-5.071,-8.289,1.646,-5.52,19.11,-0.84,3.57
,-8.433,1.828,-5.099,-8.457,0.689,-5.535,18.97,-1.47,1.61
,-8.385,2.29,-5.19,-8.229,-0.266,-5.451,15.4,-2.03,-0.56
,-9.277,2.759,-5.712,-8.643,-0.459,-5.705,10.29,-2.87,-2.52
13023.0,-8.861,-0.589,-5.686,-8.325,-0.596,-5.382,7.98,-1.54,1.82
,-8.768,-0.806,-5.525,-8.519,0.103,-5.583,8.26,-1.96,2.38
,-8.399,-0.799,-5.583,-8.648,0.883,-5.461,8.82,-2.03,3.29
,-8.287,-0.857,-5.439,-8.547,1.089,-5.36,9.03,-2.31,4.69
13099.0,-8.39,1.192,-5.147,-8.708,1.146,-5.025,6.79,-2.52,4.48
,-8.334,1.29,-5.102,-8.83,1.115,-5.032,5.39,-2.17,4.13
,-8.263,1.192,-5.011,-8.471,1.141,-4.968,3.08,-1.96,3.99
,-8.406,1.084,-5.008,-8.086,1.228,-5.047,2.94,-1.4,3.92
13175.0,-8.021,1.18,-5.087,-8.727,0.172,-5.147,-1.96,0.35,1.4
,-8.346,1.065,-5.166,-8.6,-0.036,-5.037,-3.71,0.91,0.7
,-8.531,0.84,-5.114,-8.428,0.223,-5.092,-5.67,1.54,0.21
,-8.569,0.505,-5.15,-8.418,0.596,-5.31,-7.0,2.31,0.07
13251.0,-8.49,0.692,-5.08,-8.402,1.283,-5.116,-7.84,5.39,2.73
,-8.442,0.617,-4.836,-8.399,1.29,-5.185,-8.89,5.6,2.94
,-8.461,0.976,-4.913,-8.37,1.297,-5.116,-8.89,5.74,2.8
,-8.471,1.184,-5.02,-8.327,1.479,-5.348,-9.52,6.02,2.59
13326.0,-8.492,1.206,-5.231,-8.844,0.136,-5.401,-12.18,8.68,-0.14
,-8.746,1.189,-5.138,-8.748,-0.031,-5.53,-12.74,8.89,-0.77
,-8.737,0.938,-5.238,-8.504,0.251,-5.726,-13.58,9.24,-1.26
,-8.643,0.395,-5.324,-8.301,0.287,-5.729,-14.0,9.66,-1.19
13402.0,-8.303,0.5,-5.836,-8.483,0.804,-5.946,-10.85,4.76,0.0
,-8.311,0.826,-5.975,-8.428,0.677,-6.138,-9.87,3.85,-0.42
,-8.358,0.988,-5.992,-8.299,0.419,-5.884,-11.06,3.29,-0.21
,-8.37,0.653,-5.937,-8.366,0.4,-5.903,-12.74,2.73,0.21
13478.0,-8.208,0.402,-5.808,-8.248,0.797,-6.033,-4.48,0.63,-0.35
,-8.325,0.577,-6.016,-8.27,0.704,-5.899,-1.96,-0.07,0.0
,-8.397,0.464,-6.047,-8.308,0.857,-5.891,-1.05,-0.84,0.56
,-8.428,0.388,-5.922,-8.26,0.802,-5.741,-0.21,-2.24,0.42
13554.0,-8.215,0.826,-5.743,-8.311,1.56,-5.528,4.27,-5.67,0.49
,-8.354,0.447,-5.489,-8.327,1.527,-5.43,4.55,-6.37,1.19
,-8.784,0.45,-5.379,-8.579,1.491,-5.224,5.39,-8.33,0.91
,-8.614,1.161,-5.537,-8.277,1.594,-5.607,7.7,-9.8,0.56
13630.0,-8.346,1.335,-5.25,-8.629,1.311,-4.965,2.31,-13.09,-3.22
,-8.404,1.211,-5.195,-8.593,1.077,-4.951,1.61,-13.44,-3.78
,-8.492,1.232,-5.049,-8.531,0.751,-4.977,2.52,-14.07,-4.97
,-8.49,1.266,-5.054,-8.516,0.333,-5.166,3.57,-14.21,-5.88
13705.0,-8.545,0.024,-5.147,-8.327,0.467,-5.047,6.58,-14.28,-3.5
,-8.595,-0.179,-5.138,-8.311,0.433,-4.692,11.34,-14.63,-3.15
,-8.504,0.022,-5.087,-8.737,0.838,-4.549,15.47,-15.61,-3.08
,-8.339,0.29,-5.099,-8.71,0.785,-4.829,17.22,-16.31,-2.1
13781.0,-8.703,0.692,-4.623,-8.77,0.912,-4.29,5.74,-18.62,-1.96
,-8.603,0.658,-4.353,-8.717,0.881,-4.216,5.53,-18.13,-1.89
,-8.646,0.737,-4.472,-8.67,0.89,-4.233,6.86,-17.85,-2.03
,-8.703,0.828,-4.53,-8.796,0.897,-4.154,7.0,-18.34,-3.01
13856.0,-8.933,1.048,-4.19,-8.887,1.163,-4.164,7.7,-16.17,-4.41
,-8.806,1.23,-4.073,-8.859,1.074,-4.145,8.4,-16.1,-5.25
,-8.811,1.328,-4.233,-8.825,0.826,-4.037,7.14,-15.96,-5.81
,-8.914,1.287,-4.31,-8.77,0.763,-4.36,4.97,-15.54,-6.16
13932.0,-8.882,0.706,-4.168,-8.916,0.002,-3.951,2.87,-14.42,-8.82
,-8.823,0.704,-4.286,-9.002,0.067,-4.051,2.52,-14.63,-8.75
,-8.789,0.546,-4.078,-9.036,0.127,-3.898,1.12,-14.28,-8.54
,-8.926,0.304,-4.044,-9.062,-0.096,-3.857,-0.07,-13.86,-8.33
14008.0,-9.05,-0.127,-4.02,-9.081,0.194,-3.525,0.21,-13.51,-8.26
,-8.966,-0.249,-3.891,-9.105,0.433,-3.857,0.98,-13.23,-7.07
,-9.002,-0.292,-3.836,-8.863,0.426,-3.776,2.52,-13.02,-6.23
,-9.045,-0.074,-3.714,-8.911,0.211,-3.441,4.2,-12.46,-6.09
14084.0,-9.005,-0.065,-3.424,-9.057,1.096,-3.996,1.61,-10.57,-5.04
,-9.27,-0.055,-3.058,-8.961,0.9,-3.561,4.34,-9.94,-4.69
,-9.201,0.421,-3.556,-8.993,0.605,-3.434,7.07,-9.45,-5.32
,-9.057,0.9,-3.314,-9.086,0.227,-3.283,6.51,-9.38,-6.09
14159.0,-9.086,0.072,-3.271,-9.184,-0.141,-3.565,-1.82,-7.0,-8.33
,-9.158,0.06,-3.084,-9.182,0.031,-3.63,-1.96,-6.65,-8.75
,-9.354,-0.041,-3.446,-9.15,-0.029,-3.329,-2.87,-6.44,-9.03
,-9.239,-0.151,-3.415,-9.143,-0.084,-3.711,-3.64,-6.09,-8.75
14235.0,-9.04,-0.146,-3.475,-9.21,0.732,-4.164,-2.1,-3.5,-6.58
,-9.158,-0.101,-3.467,-9.124,0.725,-3.967,-1.19,-3.5,-6.02
,-9.28,0.115,-3.781,-9.038,0.311,-3.857,-0.21,-3.71,-6.23
,-9.246,0.457,-3.972,-9.064,-0.165,-3.52,1.4,-4.06,-6.44
14311.0,-9.196,-0.28,-3.3,-9.067,0.01,-3.52,2.03,-4.41,-6.3
,-9.28,-0.163,-3.235,-9.105,-0.404,-3.271,3.43,-4.34,-6.37
,-9.308,0.084,-3.577,-9.153,-0.546,-3.166,2.66,-4.41,-6.93
,-9.124,0.16,-3.692,-9.33,-0.421,-3.192,1.05,-4.34,-7.07
14387.0,-9.313,-0.256,-3.19,-9.112,-0.364,-3.364,2.17,-2.31,-4.34
,-9.351,-0.211,-3.391,-9.179,-0.177,-3.381,1.61,-1.89,-4.13
,-9.153,-0.261,-3.491,-9.241,0.022,-3.501,1.61,-1.68,-3.85
,-9.112,-0.378,-3.398,-9.194,0.029,-3.611,2.94,-1.05,-2.73
14463.0,-9.122,-0.134,-3.422,-9.363,-0.555,-3.273,3.15,-0.63,-1.96
,-9.184,-0.285,-3.63,-9.45,-0.57,-3.242,2.38,-0.49,-1.75
,-9.237,-0.436,-3.611,-9.363,-0.28,-3.321,2.1,-0.42,-1.47
,-9.155,-0.531,-3.34,-9.282,0.017,-3.62,2.45,-0.07,-0.7
14538.0,-9.246,0.275,-4.049,-9.33,-0.266,-3.223,4.76,0.0,-0.49
,-9.067,0.208,-4.013,-9.418,-0.206,-3.116,4.27,-0.14,-0.56
,-9.048,0.103,-3.721,-9.454,-0.007,-3.408,4.69,-0.35,0.0
,-9.146,-0.122,-3.396,-9.33,0.263,-3.812,5.95,0.0,0.63
14614.0,-9.007,0.11,-3.726,-9.447,-0.383,-3.149,4.34,-0.21,-0.56
,-9.083,-0.069,-3.75,-9.483,-0.292,-3.285,2.8,0.0,0.0
,-9.158,-0.28,-3.604,-9.385,-0.134,-3.34,2.8,0.0,0.35
,-9.253,-0.371,-3.295,-9.251,0.048,-3.625,3.15,-0.07,0.7
14689.0,-9.139,0.079,-3.872,-9.435,-0.311,-2.996,-0.14,0.35,-0.14
,-9.091,-0.141,-3.752,-9.521,0.124,-3.204,-0.7,0.42,0.35
,-9.098,-0.431,-3.374,-9.39,0.455,-3.68,-0.21,0.7,1.33
,-9.308,-0.519,-3.106,-9.15,0.34,-3.527,1.61,1.12,2.03
14765.0,-9.117,-0.065,-3.343,-9.502,-0.237,-3.233,-3.08,1.75,0.14
,-9.208,-0.297,-3.283,-9.294,-0.23,-3.271,-2.03,2.31,0.7
,-9.318,-0.323,-3.029,-9.196,-0.266,-3.472,-0.84,2.73,1.19
,-9.454,-0.261,-3.113,-9.076,-0.306,-3.52,-0.14,2.87,1.33
14841.0,-9.234,-0.313,-3.455,-9.237,0.395,-3.96,0.28,4.34,2.52
,-9.368,-0.232,-3.463,-9.064,0.352,-4.075,1.19,4.34,2.94
,-9.399,-0.041,-3.628,-9.1,0.251,-4.087,1.82,3.92,2.66
,-9.385,0.182,-3.771,-9.182,0.098,-3.888,2.17,3.64,2.31
14917.0,-9.263,-0.026,-3.671,-9.234,-0.06,-3.553,2.73,2.1,2.1
,-9.361,0.01,-3.594,-9.222,-0.112,-3.556,3.85,1.54,1.89
,-9.409,0.084,-3.618,-9.253,-0.112,-3.527,3.92,1.4,1.33
,-9.27,0.081,-3.498,-9.256,-0.177,-3.448,3.15,1.33,1.05
14992.0,-9.225,-0.268,-3.391,-9.17,0.024,-3.546,1.05,2.03,1.12
,-9.241,-0.258,-3.226,-9.115,0.029,-3.68,1.96,2.31,1.47
,-9.356,-0.043,-3.419,-9.153,0.05,-3.685,2.66,2.52,1.4
,-9.34,0.108,-3.513,-9.234,0.062,-3.726,2.38,2.38,1.12
15068.0,-9.244,0.053,-3.752,-9.213,-0.06,-3.613,2.31,2.17,1.26
,-9.227,0.101,-3.702,-9.28,-0.038,-3.68,2.38,2.03,0.98
,-9.237,0.043,-3.647,-9.189,-0.019,-3.582,2.03,1.82,0.91
,-9.263,-0.034,-3.668,-9.263,-0.098,-3.515,2.03,1.82,1.05
15144.0,-9.268,-0.163,-3.446,-9.148,0.01,-3.649,2.31,1.82,1.4
,-9.251,-0.227,-3.451,-9.182,-0.007,-3.745,2.52,2.17,1.47
,-9.289,-0.026,-3.606,-9.222,-0.048,-3.623,2.59,2.03,1.26
,-9.213,0.098,-3.69,-9.287,0.057,-3.577,2.24,2.1,1.12
15220.0,-9.299,0.086,-3.594,-9.15,-0.06,-3.745,2.03,1.68,1.26
,-9.253,-0.031,-3.501,-9.155,-0.108,-3.587,1.33,1.61,1.05
,-9.232,0.019,-3.704,-9.217,-0.098,-3.484,0.98,1.54,0.84
,-9.167,0.026,-3.735,-9.273,0.026,-3.477,0.7,1.4,0.7
15296.0,-9.316,0.172,-3.439,-9.189,0.05,-3.719,-0.28,1.47,0.28
,-9.33,0.129,-3.518,-9.179,0.27,-3.704,-1.89,1.4,-0.14
,-9.304,0.01,-3.647,-9.155,0.285,-3.496,-2.59,1.26,-0.56
,-9.359,-0.081,-3.769,-9.179,0.091,-3.297,-2.59,1.05,-0.91
15371.0,-9.284,-0.179,-3.175,-9.217,-0.431,-3.173,-3.5,1.89,-0.63
,-9.328,-0.414,-2.778,-9.119,-0.56,-3.144,-2.94,2.87,0.28
,-9.414,-0.445,-2.927,-9.103,-0.715,-3.022,-1.4,3.36,0.77
,-9.395,-0.44,-2.994,-9.198,-0.811,-2.814,-1.19,4.06,0.98
15447.0,-9.304,-0.591,-2.737,-9.014,-0.175,-3.503,3.08,8.61,5.95
,-9.301,-0.074,-2.938,-8.978,-0.392,-3.161,2.94,9.03,5.67
,-9.296,0.251,-3.415,-9.177,-0.424,-3.013,0.35,9.17,5.11
,-9.177,0.23,-3.561,-9.253,-0.146,-3.128,-3.43,9.38,5.04
15522.0,-9.32,-0.074,-2.525,-8.906,0.347,-4.671,-1.05,13.65,7.91
,-9.39,0.44,-3.355,-8.76,-0.589,-4.087,-2.17,13.23,7.0
,-9.249,0.969,-4.044,-8.782,-1.06,-3.699,-6.02,12.04,4.76
,-9.098,1.029,-4.57,-8.923,-1.024,-3.336,-10.29,11.34,3.92
15598.0,-9.129,-0.598,-3.376,-9.028,0.558,-4.161,8.33,15.05,10.36
,-9.282,-0.093,-3.312,-8.811,0.644,-4.149,9.94,14.42,10.29
,-9.363,0.191,-4.082,-8.863,1.297,-4.398,7.63,13.37,9.38
,-9.229,0.471,-4.336,-8.871,1.778,-4.807,6.79,12.88,9.31
15674.0,-8.739,1.663,-4.829,-9.107,-0.256,-3.491,-0.28,11.34,4.2
,-8.801,0.701,-4.549,-9.28,0.531,-3.807,-5.25,11.62,3.85
,-8.871,-0.294,-3.472,-9.258,1.082,-4.336,-4.34,12.46,4.62
,-9.091,-0.742,-3.226,-9.184,0.967,-4.281,2.24,13.58,5.81
15750.0,-8.985,0.627,-4.111,-8.818,1.357,-5.193,4.76,12.39,5.04
,-8.866,0.706,-4.482,-8.861,0.615,-4.788,4.06,11.55,3.15
,-8.897,1.18,-4.745,-8.768,0.103,-3.506,3.01,10.08,0.84
,-8.861,1.517,-5.193,-8.892,-0.089,-3.477,-0.14,9.17,-0.77
15825.0,-9.237,0.146,-3.726,-8.519,-0.505,-4.288,-1.54,10.92,-1.47
,-9.442,0.421,-4.111,-8.722,-0.361,-4.494,-1.12,9.66,-1.54
,-9.143,0.103,-4.527,-9.007,-0.237,-4.451,-2.52,10.15,-0.21
,-8.643,-0.275,-4.434,-8.909,-0.148,-4.542,-1.82,11.34,1.96
15901.0,-8.717,0.127,-4.427,-8.959,0.806,-4.867,13.09,11.06,5.88
,-8.701,0.383,-4.511,-8.815,0.826,-4.685,11.9,10.29,6.02
,-8.674,0.589,-4.719,-8.672,0.498,-4.329,9.94,9.24,5.39
,-8.897,0.711,-4.724,-8.641,0.093,-4.044,8.12,8.82,4.9
15977.0,-8.835,-0.285,-3.903,-8.844,0.132,-4.819,5.81,12.6,5.25
,-9.048,-0.455,-3.826,-8.545,0.196,-5.047,8.68,12.74,6.3
,-9.117,-0.22,-4.389,-8.311,0.156,-4.975,11.13,11.55,6.72
,-8.93,0.017,-4.604,-8.425,-0.045,-4.932,12.32,10.5,7.07
16053.0,-8.796,0.017,-5.013,-8.536,-0.108,-4.369,9.38,8.75,8.47
,-8.916,0.239,-4.937,-8.746,-0.213,-4.145,7.84,8.4,8.19
,-8.67,0.342,-4.872,-8.882,-0.029,-4.326,5.6,8.82,8.47
,-8.447,0.057,-4.539,-9.019,0.474,-4.721,4.13,10.08,9.59
16129.0,-8.827,0.905,-4.87,-8.617,0.861,-4.317,10.99,8.47,12.18
,-8.607,0.909,-4.683,-8.971,0.73,-4.281,10.43,9.1,11.69
,-8.536,1.113,-4.525,-8.885,0.9,-4.286,9.59,9.45,10.64
,-8.44,1.12,-4.446,-8.648,0.859,-4.482,8.4,10.22,9.94
16204.0,-8.557,1.024,-4.688,-8.658,2.194,-4.499,4.62,11.13,5.39
,-8.428,1.285,-4.688,-8.61,2.175,-4.508,6.23,11.06,4.83
,-8.502,1.737,-4.642,-8.624,1.517,-4.47,8.54,10.85,3.22
,-8.648,1.991,-4.537,-8.849,0.912,-4.092,9.03,10.85,0.77
16280.0,-8.626,0.27,-4.29,-7.913,-0.445,-6.107,0.63,11.97,-7.7
,-8.646,-0.053,-4.7,-7.98,-0.017,-5.726,2.59,12.74,-6.58
,-8.531,-0.05,-5.159,-7.72,-0.117,-5.401,4.62,13.65,-3.85
,-7.942,-0.928,-4.365,-8.358,-0.158,-5.566,-5.67,15.61,5.18
16355.0,-8.519,-0.522,-5.384,-8.524,-0.225,-5.434,1.82,11.06,0.35
,-8.739,-0.199,-5.556,-8.686,0.273,-5.992,3.15,10.01,0.42
,-8.729,-0.337,-5.53,-8.44,0.503,-5.729,5.18,9.31,0.63
,-8.646,-0.369,-5.607,-8.057,0.902,-5.877,5.67,8.96,0.49
16431.0,-7.763,1.144,-6.243,-8.787,0.158,-5.549,16.31,2.52,1.54
,-7.93,1.194,-6.446,-8.983,-0.041,-5.229,15.05,2.1,2.38
,-8.224,0.668,-6.131,-8.909,-0.175,-4.776,11.69,2.03,2.66
,-8.44,0.163,-5.556,-8.792,0.055,-5.176,10.43,2.17,3.15
16507.0,-8.61,0.086,-5.195,-8.351,1.467,-5.41,13.16,-0.56,2.1
,-8.263,0.369,-5.157,-8.337,1.644,-5.432,14.77,-0.84,1.05
,-8.543,0.828,-5.298,-8.186,1.479,-5.487,16.1,-0.77,0.56
,-8.394,0.845,-5.245,-8.27,0.83,-5.65,16.17,-1.61,0.0
16583.0,-8.421,0.486,-5.561,-8.739,-0.531,-5.176,6.79,-3.22,0.28
,-8.82,-0.256,-5.327,-8.447,-0.342,-5.284,8.19,-2.31,0.63
,-8.89,-0.359,-5.276,-8.105,-0.108,-5.518,10.08,-2.59,0.28
,-8.806,-0.495,-5.264,-8.485,0.445,-5.82,11.69,-2.17,0.63
16658.0,-8.681,0.572,-5.798,-8.538,-0.469,-5.339,11.55,-3.64,2.59
,-8.725,0.404,-5.707,-8.727,-0.189,-5.212,9.59,-4.41,2.8
,-8.177,0.005,-5.382,-8.543,0.237,-5.193,5.67,-4.69,3.78
,-8.014,-0.491,-5.511,-8.385,0.613,-5.209,3.99,-3.85,5.46
16734.0,-8.646,0.617,-5.097,-8.536,1.034,-4.85,3.29,-2.87,6.23
,-8.713,0.562,-4.891,-8.485,0.943,-4.92,3.29,-2.73,5.88
,-8.648,0.94,-4.867,-8.404,0.861,-5.075,3.29,-2.87,5.6
,-8.507,1.23,-4.946,-8.466,0.615,-4.956,1.33,-2.45,4.83
16810.0,-8.581,0.321,-4.958,-8.406,-0.007,-4.898,-7.84,0.98,4.34
,-8.595,0.256,-4.946,-8.399,0.211,-5.011,-7.14,1.61,4.62
,-8.646,0.134,-4.994,-8.638,0.392,-5.097,-7.77,2.03,5.32
,-8.617,-0.01,-4.915,-8.887,0.613,-4.889,-8.26,2.73,6.23
16886.0,-8.837,0.845,-4.932,-8.878,1.57,-4.745,-9.24,2.45,6.09
,-8.504,0.988,-4.987,-8.717,1.424,-4.783,-9.8,3.15,6.09
,-8.598,1.156,-4.903,-8.61,1.278,-4.901,-10.92,3.92,5.39
,-8.911,1.46,-4.783,-8.638,0.876,-4.968,-10.71,4.41,4.13
16961.0,-8.693,0.593,-4.96,-8.291,0.797,-5.458,-14.0,6.09,0.28
,-8.765,0.627,-5.073,-8.256,0.395,-5.207,-10.71,5.95,-0.14
,-8.777,0.694,-5.152,-8.224,0.115,-5.281,-8.33,5.11,-1.05
,-8.662,0.967,-5.274,-8.337,0.211,-5.43,-7.14,4.41,-1.4
17037.0,-8.454,-0.134,-5.164,-8.39,0.632,-5.233,-6.51,2.8,1.26
,-8.579,0.194,-5.487,-8.368,1.053,-5.485,-4.27,1.61,0.77
,-8.667,0.352,-5.487,-8.428,1.302,-5.439,-2.31,0.98,0.84
,-8.562,0.45,-5.398,-8.626,1.134,-5.305,-2.94,0.28,0.84
17113.0,-8.658,0.842,-5.217,-8.471,0.567,-5.267,-4.97,-0.56,0.35
,-8.66,0.617,-5.209,-8.433,0.426,-5.219,-4.48,0.0,0.14
,-8.591,0.615,-5.231,-8.734,0.438,-5.193,-2.8,-0.14,0.21
,-8.595,0.67,-5.346,-8.82,0.416,-5.238,-1.4,-0.84,-0.42
17188.0,-8.665,0.505,-5.401,-8.39,1.201,-5.276,3.92,-3.5,0.14
,-8.538,0.546,-5.432,-8.54,1.024,-4.908,4.27,-3.64,0.21
,-8.385,0.694,-5.016,-8.564,0.955,-4.846,3.01,-4.27,-0.07
,-8.378,0.993,-5.226,-8.665,1.036,-4.726,3.71,-5.18,-0.49
17264.0,-8.667,0.828,-4.688,-8.804,0.29,-4.812,0.77,-5.25,-1.54
,-8.662,0.558,-4.75,-8.677,0.787,-4.972,1.61,-5.25,-1.54
,-8.579,0.546,-4.905,-8.471,1.065,-5.013,3.22,-5.32,-1.54
,-8.603,0.4,-4.774,-8.373,0.876,-4.982,5.81,-5.04,-1.12
17340.0,-8.442,0.589,-4.896,-8.66,0.646,-4.956,1.4,-6.79,-0.7
,-8.497,0.313,-4.915,-8.435,0.414,-4.671,0.63,-6.58,-0.49
,-8.66,0.103,-4.963,-8.758,0.581,-4.757,1.82,-6.72,-0.21
,-8.806,0.203,-4.922,-8.5,0.629,-4.867,3.29,-7.28,0.0
17416.0,-8.492,0.634,-4.795,-8.765,1.039,-4.781,4.06,-8.33,0.91
,-8.612,0.579,-4.714,-8.665,1.189,-4.678,3.92,-8.4,1.26
,-8.777,0.644,-4.728,-8.684,1.323,-4.697,4.62,-8.68,0.91
,-8.844,0.775,-4.673,-8.624,1.261,-4.69,5.88,-8.4,0.49
17491.0,-8.751,1.094,-4.592,-8.897,1.074,-4.491,4.76,-7.77,-1.96
,-8.808,1.034,-4.64,-8.916,1.098,-4.413,3.99,-7.77,-2.73
,-8.681,0.952,-4.549,-8.885,1.058,-4.338,4.55,-7.7,-3.08
,-8.713,0.871,-4.523,-8.861,0.845,-4.585,5.81,-7.56,-3.29
17567.0,-8.722,0.584,-4.549,-8.811,0.474,-4.558,0.77,-7.56,-4.41
,-8.808,0.287,-4.616,-8.804,0.591,-4.525,0.07,-7.7,-3.99
,-8.78,0.242,-4.628,-8.859,0.285,-4.472,1.89,-7.77,-4.06
,-8.758,0.203,-4.537,-8.823,0.187,-4.367,3.92,-7.91,-4.48
17643.0,-8.624,0.371,-4.238,-8.899,0.297,-3.891,0.77,-9.1,-4.06
,-8.734,0.33,-4.027,-8.801,0.447,-4.298,1.4,-8.75,-4.13
,-8.957,0.258,-4.063,-8.772,0.558,-4.46,1.96,-8.19,-3.85
,-9.002,0.239,-3.853,-8.851,0.421,-4.611,2.8,-7.56,-3.43
17719.0,-8.94,0.084,-4.549,-8.894,0.333,-4.326,4.48,-8.4,-1.19
,-8.844,-0.359,-4.245,-8.983,0.591,-4.02,6.51,-7.91,-0.28
,-8.808,-0.481,-4.252,-9.033,0.692,-4.022,9.38,-7.7,0.77
,-8.827,-0.187,-4.441,-8.957,0.648,-3.853,11.27,-8.26,1.54
17794.0,-8.909,0.811,-3.917,-9.131,0.811,-3.515,2.1,-7.7,-1.05
,-8.861,1.01,-3.955,-9.026,0.876,-3.386,0.98,-7.84,-1.82
,-8.928,0.9,-3.836,-9.052,1.029,-3.412,0.49,-7.56,-2.03
,-9.06,0.811,-3.668,-9.064,1.027,-3.561,1.33,-6.72,-2.1
17870.0,-9.021,0.945,-3.776,-8.985,0.175,-3.774,-2.59,-4.34,-6.86
,-9.002,0.926,-3.963,-9.079,-0.251,-3.489,-3.85,-4.2,-7.63
,-8.933,0.83,-4.173,-9.043,-0.486,-3.247,-5.46,-3.99,-8.33
,-8.906,0.663,-4.125,-9.11,-0.165,-3.664,-7.0,-3.57,-8.54
17946.0,-9.055,0.536,-4.537,-9.031,-0.503,-3.965,-3.29,-2.59,-7.84
,-8.971,0.692,-4.748,-9.284,-0.153,-3.91,-5.67,-3.22,-7.98
,-8.799,0.328,-4.527,-9.301,0.483,-4.441,-7.63,-3.01,-6.65
,-8.861,-0.335,-4.121,-9.091,0.763,-4.645,-6.44,-2.31,-4.97
18022.0,-8.988,0.5,-4.314,-9.143,0.663,-4.152,0.98,-4.62,-4.2
,-8.973,0.349,-4.513,-9.186,0.299,-3.869,2.66,-4.83,-3.92
,-8.902,0.567,-4.554,-9.115,0.105,-3.769,5.18,-5.39,-4.34
,-8.942,0.778,-4.281,-9.062,-0.012,-3.58,5.95,-6.02,-4.83
18098.0,-9.119,0.05,-3.671,-9.103,0.163,-3.877,4.69,-6.09,-5.46
,-9.038,0.098,-3.503,-8.99,0.041,-3.829,4.69,-5.81,-5.18
,-9.124,0.089,-3.501,-9.131,-0.115,-3.884,4.41,-5.53,-4.62
,-9.177,0.065,-3.652,-9.038,-0.139,-3.759,3.85,-5.6,-4.83
18173.0,-9.074,-0.093,-3.585,-9.016,0.388,-3.826,4.13,-4.62,-3.15
,-9.208,0.081,-3.625,-8.985,-0.012,-3.501,4.06,-4.48,-3.29
,-9.234,0.292,-3.788,-9.146,-0.213,-3.396,3.5,-4.62,-3.71
,-9.227,0.464,-4.015,-9.239,-0.136,-3.254,1.96,-4.97,-4.41
18249.0,-9.354,-0.014,-3.305,-9.127,-0.459,-3.087,2.94,-3.29,-3.08
,-9.289,-0.005,-3.352,-9.253,-0.433,-2.833,2.03,-2.8,-3.15
,-9.17,-0.168,-3.319,-9.471,-0.201,-3.022,1.19,-2.31,-2.94
,-9.05,-0.388,-3.242,-9.421,-0.041,-3.07,1.4,-1.68,-2.24
18324.0,-9.323,0.168,-3.398,-9.179,0.014,-3.604,3.43,2.38,-0.28
,-9.074,0.165,-3.644,-9.306,0.041,-3.506,2.24,2.59,-0.42
,-9.007,0.077,-3.623,-9.409,-0.007,-3.544,1.89,2.94,-0.07
,-9.095,0.005,-3.697,-9.296,0.151,-3.865,2.24,2.94,0.21
18400.0,-9.167,0.278,-3.996,-9.062,-0.256,-3.805,2.94,3.5,0.14
,-9.069,0.371,-4.252,-9.196,-0.34,-3.506,2.24,2.94,-0.28
,-9.012,0.215,-4.238,-9.277,-0.335,-3.252,1.26,2.66,-0.35
,-9.031,0.007,-4.075,-9.347,-0.146,-3.24,0.77,2.45,-0.14
18476.0,-9.368,0.199,-3.716,-9.005,-0.148,-4.386,3.08,3.15,0.7
,-9.194,0.431,-4.152,-9.127,0.017,-4.35,1.26,2.52,-0.14
,-8.99,0.34,-4.453,-9.21,0.325,-4.221,-0.91,2.1,-0.49
,-8.926,0.048,-4.48,-9.189,0.311,-4.066,-1.19,1.82,0.14
18552.0,-9.194,0.347,-4.022,-9.261,-0.371,-3.171,5.25,-1.12,0.77
,-9.05,0.206,-3.855,-9.392,-0.33,-3.13,4.76,-1.26,0.77
,-9.069,0.103,-3.644,-9.306,-0.156,-3.209,4.2,-1.05,0.91
,-9.141,-0.163,-3.355,-9.27,0.199,-3.632,3.57,-0.49,1.12
18627.0,-9.17,0.373,-3.886,-9.098,0.278,-4.243,3.36,1.12,0.84
,-9.129,0.323,-4.03,-9.136,0.158,-3.984,2.1,1.05,0.77
,-9.167,0.261,-4.252,-9.179,-0.007,-3.575,2.24,0.63,0.63
,-9.088,0.302,-4.329,-9.258,0.057,-3.553,3.29,0.07,0.56
18703.0,-9.284,0.12,-3.4,-9.098,0.091,-3.877,4.83,-0.49,0.7
,-9.268,0.074,-3.436,-9.117,-0.029,-3.781,3.85,0.0,0.42
,-9.225,0.091,-3.518,-9.139,-0.213,-3.597,3.36,-0.14,0.14
,-9.129,0.132,-3.745,-9.232,-0.156,-3.475,3.22,-0.07,-0.07
18778.0,-9.217,-0.055,-3.386,-9.182,0.132,-3.967,6.44,0.98,1.4
,-9.268,0.175,-3.503,-9.129,0.22,-4.037,5.74,1.33,1.33
,-9.277,0.12,-3.58,-9.124,0.16,-3.972,4.27,1.26,0.91
,-9.198,0.117,-3.759,-9.134,0.139,-3.908,3.08,1.12,0.56
18854.0,-9.182,0.153,-3.836,-9.16,-0.136,-3.482,3.57,0.56,0.21
,-9.194,0.146,-3.778,-9.251,-0.134,-3.482,3.64,0.14,0.07
,-9.177,0.098,-3.731,-9.227,-0.057,-3.508,3.15,0.0,-0.07
,-9.117,-0.045,-3.604,-9.261,0.019,-3.477,3.08,0.21,0.0
18930.0,-9.263,0.045,-3.611,-9.095,-0.019,-3.714,2.8,0.98,0.21
,-9.184,0.017,-3.647,-9.165,-0.05,-3.786,2.38,1.19,0.21
,-9.141,-0.06,-3.716,-9.194,0.01,-3.829,2.52,1.26,0.42
,-9.141,-0.065,-3.776,-9.225,0.127,-4.025,3.29,1.12,0.56
19006.0,-9.127,0.122,-4.049,-9.229,-0.026,-3.632,4.13,0.07,0.21
,-9.086,0.014,-4.003,-9.294,0.0,-3.515,4.06,-0.35,0.28
,-9.136,-0.117,-3.9,-9.277,0.014,-3.563,4.9,-0.42,0.7
,-9.131,-0.034,-3.819,-9.229,0.022,-3.585,6.09,-0.42,0.84
19082.0,-9.165,0.029,-3.697,-9.282,-0.065,-3.568,5.11,-0.49,0.84
,-9.172,0.014,-3.687,-9.275,-0.124,-3.455,4.69,-0.28,1.12
,-9.225,-0.108,-3.64,-9.253,-0.187,-3.443,4.48,-0.14,1.26
,-9.217,-0.055,-3.58,-9.184,-0.175,-3.439,4.55,-0.07,1.33
19157.0,-9.143,-0.218,-3.364,-9.241,-0.048,-3.058,3.29,1.12,2.1
,-9.186,-0.27,-3.199,-9.229,0.0,-2.874,3.43,1.82,2.66
,-9.196,-0.345,-3.051,-9.325,0.002,-2.912,3.71,2.8,3.22
,-9.251,-0.273,-2.989,-9.349,0.089,-3.209,4.34,3.43,3.43
19233.0,-9.337,0.089,-3.482,-9.076,0.337,-4.212,0.35,6.58,3.64
,-9.304,0.144,-3.786,-9.119,0.225,-4.037,-1.19,6.65,2.73
,-9.069,0.359,-4.034,-9.17,0.235,-4.154,-2.66,6.23,1.82
,-8.988,0.464,-4.089,-9.237,0.239,-4.355,-3.5,5.53,1.47
19309.0,-9.191,0.342,-4.58,-9.234,-0.653,-3.431,-7.49,2.24,-1.12
,-9.005,0.39,-4.444,-9.263,-0.342,-3.599,-9.17,1.26,-1.54
,-8.988,0.156,-4.302,-9.208,0.014,-3.546,-10.29,0.84,-1.33
,-9.0,-0.45,-3.769,-9.256,0.096,-3.721,-9.66,1.12,0.07
19385.0,-9.21,0.105,-3.716,-9.091,0.218,-3.795,-4.2,1.26,1.61
,-9.15,-0.103,-3.575,-8.983,0.244,-3.924,-3.99,1.75,2.45
,-9.258,-0.139,-3.623,-9.045,0.036,-3.702,-2.03,1.96,3.29
,-9.189,0.122,-3.75,-9.122,-0.208,-3.252,-0.14,2.1,3.36
19460.0,-9.28,-0.196,-3.003,-9.088,0.115,-3.436,-0.91,3.5,3.29
,-9.354,-0.069,-3.439,-9.165,-0.177,-3.319,0.56,3.71,3.36
,-9.194,0.184,-3.573,-9.177,-0.227,-2.922,0.84,3.71,3.15
,-9.069,0.211,-3.604,-9.194,-0.041,-2.63,0.42,3.78,3.36
19536.0,-9.174,0.309,-2.704,-9.119,0.553,-3.886,5.39,8.19,5.04
,-9.256,0.517,-3.032,-8.945,0.385,-3.498,4.41,8.4,4.41
,-9.299,0.907,-3.611,-9.069,0.38,-3.654,1.4,8.54,3.29
,-9.284,0.751,-3.587,-9.079,0.553,-3.678,-1.89,9.17,3.22
19611.0,-8.995,0.534,-4.051,-9.086,-0.701,-3.254,-1.12,11.27,0.91
,-8.995,0.072,-3.716,-9.122,-0.491,-3.884,-3.08,12.04,1.54
,-9.122,-0.5,-3.441,-8.957,-0.144,-3.661,-1.4,12.81,3.15
,-9.012,-0.601,-3.594,-8.997,0.069,-4.058,2.31,13.44,3.85
19687.0,-9.014,0.493,-3.898,-8.866,0.242,-3.654,10.78,14.14,6.37
,-8.961,0.952,-4.168,-8.808,0.048,-3.754,9.59,14.21,6.02
,-8.851,1.228,-4.446,-9.007,0.141,-4.166,5.04,14.0,5.18
,-8.806,1.149,-4.334,-9.191,0.225,-4.271,-0.14,14.14,4.9
19763.0,-9.229,0.254,-4.219,-8.99,-0.905,-3.855,2.59,14.7,3.01
,-8.78,-0.105,-3.656,-9.031,-0.254,-4.154,2.1,16.31,4.41
,-8.603,-0.809,-3.515,-8.906,0.311,-4.357,2.59,17.85,6.23
,-8.653,-1.084,-3.585,-8.897,0.574,-4.221,4.9,17.85,7.49
19839.0,-8.727,1.139,-4.525,-8.938,0.402,-4.223,8.26,17.08,9.45
,-8.725,1.56,-4.482,-8.83,-0.048,-4.264,6.58,16.94,8.33
,-8.844,1.627,-4.642,-8.65,-0.184,-4.245,4.34,16.8,7.28
,-8.842,1.141,-4.779,-8.61,0.005,-4.168,0.49,17.15,6.44
19915.0,-8.732,0.211,-4.432,-8.574,0.804,-5.284,12.46,19.67,8.4
,-8.804,0.337,-4.396,-8.591,0.845,-5.286,14.35,19.32,8.4
,-8.748,0.479,-4.807,-8.689,0.732,-5.226,14.21,18.41,7.56
,-8.691,0.682,-4.97,-8.521,0.455,-5.238,11.62,17.57,6.44
19990.0,-8.497,0.086,-4.989,-8.662,0.749,-5.118,-1.05,15.82,6.02
,-8.524,0.146,-4.953,-8.571,0.687,-5.181,0.21,15.89,6.65
,-8.579,0.352,-5.037,-8.701,0.696,-5.135,2.8,14.63,6.79
,-8.734,0.608,-5.032,-8.681,0.744,-5.135,4.9,13.51,6.44
20066.0,-8.574,0.715,-5.236,-8.775,1.689,-4.944,5.46,11.06,5.39
,-8.478,0.821,-5.121,-8.643,2.058,-5.226,4.34,11.34,5.04
,-8.435,0.699,-4.733,-8.715,2.029,-5.269,3.99,12.11,5.04
,-8.751,1.015,-4.659,-8.49,1.759,-5.138,4.76,11.62,4.48
20142.0,-8.684,1.223,-4.984,-8.78,-0.486,-5.638,-2.31,9.45,-4.13
,-8.574,0.766,-5.023,-8.466,-0.505,-5.702,-2.45,9.45,-4.55
,-8.464,0.337,-4.982,-8.591,-0.558,-6.035,-1.82,9.24,-5.04
,-8.459,-0.065,-5.432,-8.385,-1.211,-5.654,1.19,8.82,-4.27
20218.0,-8.509,-0.577,-5.805,-8.423,1.321,-5.542,13.44,4.34,1.26
,-8.129,0.455,-5.832,-8.746,0.677,-5.233,16.45,2.66,1.19
,-8.162,1.316,-5.82,-8.772,-0.019,-4.989,16.1,1.47,0.14
,-8.258,1.814,-5.855,-8.552,-0.306,-5.111,11.76,0.98,-1.19
20293.0,-8.466,0.057,-5.25,-8.854,1.117,-5.059,6.23,1.12,0.35
,-8.574,0.005,-4.992,-8.66,1.299,-5.116,9.03,1.33,0.77
,-8.679,0.354,-4.972,-8.447,1.328,-5.281,11.97,1.61,0.7
,-8.926,0.893,-5.051,-8.299,1.586,-5.961,15.12,0.84,0.0
20369.0,-8.004,0.67,-5.657,-8.619,-1.067,-5.25,11.06,1.33,-4.06
,-7.94,-0.488,-5.444,-8.717,-0.747,-5.073,8.82,1.82,-2.73
,-8.327,-0.955,-5.501,-8.641,-0.4,-5.08,10.01,1.54,-1.12
,-8.641,-1.101,-5.607,-8.605,0.127,-5.585,13.86,1.54,0.35
20444.0,-8.402,0.254,-5.489,-8.459,-0.244,-5.48,13.02,-2.73,3.85
,-8.299,0.385,-5.875,-8.277,-0.562,-5.252,11.48,-3.08,4.06
,-8.411,0.156,-5.81,-8.162,-0.529,-5.09,11.13,-3.08,3.99
,-8.514,0.141,-5.733,-8.299,-0.091,-5.147,10.99,-3.15,4.34
20520.0,-8.665,0.529,-4.903,-8.94,1.852,-4.862,16.38,-2.1,7.98
,-8.768,1.682,-5.039,-8.729,1.084,-4.803,18.41,-2.17,6.86
,-8.787,2.266,-4.992,-8.196,0.349,-4.872,15.96,-2.03,5.32
,-8.832,2.254,-4.91,-8.081,-0.168,-4.865,11.27,-1.47,3.5
20596.0,-8.378,0.069,-4.915,-8.6,0.361,-5.418,0.7,2.31,2.73
,-8.591,0.392,-5.075,-8.595,0.251,-5.339,1.54,2.38,2.8
,-8.763,0.577,-5.293,-8.378,0.347,-5.441,0.56,2.1,2.03
,-8.713,0.404,-5.37,-8.057,0.294,-5.437,-1.47,2.59,1.54
20672.0,-8.212,-0.005,-5.384,-8.619,0.318,-5.48,-7.07,3.43,3.08
,-8.574,-0.043,-5.293,-8.54,0.179,-5.468,-7.35,3.36,4.06
,-8.82,0.081,-5.406,-8.478,0.261,-5.564,-7.56,3.22,5.18
,-8.782,0.239,-5.458,-8.562,0.292,-5.587,-6.02,3.01,5.88
20748.0,-8.576,0.199,-5.511,-8.806,0.859,-5.032,-11.48,0.35,7.28
,-8.502,0.431,-5.252,-8.789,1.067,-5.162,-10.71,1.19,6.72
,-8.514,0.766,-5.133,-8.789,1.156,-5.011,-10.43,1.68,5.88
,-8.638,0.952,-5.152,-8.784,1.412,-5.006,-10.71,1.75,5.11
20823.0,-8.583,1.271,-5.075,-8.603,0.735,-5.049,-10.29,1.61,2.1
,-8.471,1.046,-4.781,-8.665,0.287,-5.348,-11.48,1.61,1.12
,-8.473,1.017,-4.922,-8.61,0.292,-5.511,-11.13,1.26,0.56
,-8.55,0.893,-5.075,-8.495,-0.168,-5.133,-10.5,1.26,-0.07
20899.0,-8.44,0.124,-5.095,-8.373,0.658,-5.441,-2.66,-0.56,-1.75
,-8.334,0.67,-5.42,-8.356,0.28,-5.439,-1.33,-1.68,-2.31
,-8.524,0.914,-5.427,-8.382,-0.057,-5.382,-2.38,-2.52,-2.59
,-8.454,0.771,-5.492,-8.586,0.086,-5.267,-5.46,-3.64,-2.38
20975.0,-8.708,0.127,-5.221,-8.595,0.893,-5.236,1.33,-4.27,-0.84
,-8.612,0.579,-5.178,-8.368,0.842,-4.762,4.06,-4.9,-1.05
,-8.464,0.881,-5.183,-8.648,0.694,-5.027,4.83,-5.25,-0.49
,-8.555,0.916,-5.288,-8.722,0.931,-5.322,4.69,-5.74,0.0
21051.0,-8.653,0.845,-5.061,-8.576,0.491,-4.783,7.21,-7.42,-2.31
,-8.497,0.797,-4.85,-8.701,0.641,-4.836,5.46,-8.19,-2.59
,-8.275,0.828,-4.958,-8.693,0.579,-4.853,3.57,-8.96,-2.45
,-8.366,0.668,-4.934,-8.674,0.62,-4.781,1.54,-9.38,-2.31
21126.0,-8.631,0.725,-4.745,-8.693,0.629,-4.506,2.94,-9.59,-2.94
,-8.636,0.768,-4.657,-8.459,0.584,-4.578,3.99,-9.1,-2.87
,-8.727,0.723,-4.611,-8.49,0.493,-4.494,4.76,-9.24,-2.87
,-8.866,0.507,-4.585,-8.83,0.316,-4.367,4.27,-9.8,-3.29
21202.0,-8.887,0.529,-4.57,-8.658,0.457,-4.585,2.87,-9.03,-3.29
,-8.847,0.438,-4.551,-8.78,0.297,-4.544,3.29,-9.1,-3.57
,-8.634,0.45,-4.647,-8.988,0.201,-4.57,4.97,-9.24,-3.29
,-8.72,0.538,-4.681,-8.983,0.287,-4.597,5.81,-8.61,-3.15
21277.0,-8.916,0.309,-4.688,-8.71,0.823,-4.618,7.07,-9.1,-1.89
,-8.686,0.414,-4.759,-8.751,0.766,-4.398,6.16,-9.45,-2.31
,-8.567,0.694,-4.745,-8.827,0.593,-4.415,5.6,-10.08,-2.38
,-8.619,0.79,-4.793,-8.866,0.589,-4.453,5.04,-10.15,-2.38
21353.0,-8.914,0.531,-4.298,-9.04,0.919,-4.441,6.44,-8.47,-2.17
,-8.894,0.352,-4.188,-8.691,0.988,-4.515,8.33,-7.77,-1.82
,-8.93,0.337,-4.286,-8.894,0.56,-4.367,10.64,-7.77,-1.96
,-9.105,0.553,-4.283,-8.837,0.246,-4.207,11.9,-8.4,-2.94
21429.0,-8.739,0.134,-3.941,-8.99,0.493,-3.989,0.21,-9.24,-5.81
,-8.794,0.208,-4.133,-8.827,0.555,-4.166,0.84,-9.17,-6.23
,-8.875,0.23,-4.137,-8.854,0.402,-3.867,1.12,-8.82,-6.02
,-9.031,0.302,-4.152,-8.815,0.278,-4.099,2.24,-8.54,-5.53
21505.0,-8.949,0.443,-4.046,-9.007,-0.235,-3.439,6.86,-7.63,-4.9
,-8.981,0.38,-3.955,-9.115,-0.388,-3.702,6.65,-7.7,-4.97
,-9.16,0.328,-4.068,-9.153,-0.17,-3.862,5.11,-7.7,-5.6
,-9.024,0.115,-3.606,-9.117,0.127,-4.054,2.73,-6.93,-5.74
21581.0,-8.957,0.273,-4.183,-8.961,-0.144,-3.652,-0.35,-6.02,-4.97
,-8.909,0.182,-3.958,-9.105,0.199,-3.656,-0.98,-5.74,-4.55
,-8.892,-0.148,-3.647,-9.165,0.407,-3.721,-1.4,-5.18,-4.06
,-8.825,-0.282,-3.654,-9.093,0.371,-3.738,0.84,-4.41,-3.43
21656.0,-9.021,0.29,-3.783,-9.043,0.223,-4.066,1.05,-3.01,-3.08
,-8.983,0.163,-3.769,-9.127,0.376,-4.097,0.42,-2.66,-3.22
,-9.043,0.127,-3.75,-9.268,0.311,-3.879,0.77,-2.66,-3.57
,-9.095,0.055,-3.888,-9.107,0.141,-4.212,1.54,-2.45,-3.71
21732.0,-8.971,0.108,-4.125,-9.076,-0.347,-3.927,-3.08,-3.15,-5.11
,-8.993,-0.105,-4.054,-9.024,-0.031,-4.298,-3.08,-3.36,-4.76
,-9.167,-0.529,-3.723,-9.024,0.024,-4.027,-2.17,-3.08,-3.78
,-9.165,-0.452,-3.927,-9.117,-0.148,-3.831,0.28,-2.87,-3.08
21808.0,-9.191,-0.16,-3.716,-9.174,0.232,-3.542,4.55,-3.29,-1.26
,-9.146,-0.203,-3.307,-9.083,0.505,-3.877,5.6,-2.66,-0.77
,-9.22,0.086,-3.57,-9.031,0.498,-3.955,5.95,-2.24,-1.05
,-9.179,0.115,-3.384,-9.091,0.407,-4.073,5.18,-1.96,-1.33
21884.0,-9.095,0.206,-4.001,-9.217,-0.045,-3.958,2.31,-1.33,-2.59
,-9.036,-0.053,-3.824,-9.146,0.089,-4.101,1.54,-1.19,-2.59
,-9.179,-0.191,-3.752,-9.062,-0.081,-3.912,1.47,-1.12,-2.59
,-9.155,-0.12,-3.597,-9.131,-0.275,-4.044,1.4,-0.91,-2.66
21959.0,-9.052,-0.153,-4.078,-9.069,0.242,-3.999,2.24,-1.89,-2.31
,-9.021,-0.022,-3.941,-9.04,0.144,-3.989,4.41,-2.31,-1.96
,-9.115,0.072,-3.905,-9.028,0.007,-3.711,5.04,-2.73,-1.89
,-9.088,0.16,-4.003,-9.045,-0.237,-3.63,5.18,-3.01,-2.24
22035.0,-9.141,-0.62,-3.159,-9.301,-0.165,-2.91,2.17,-2.8,-1.89
,-9.249,-0.849,-2.819,-9.28,-0.036,-3.41,3.08,-1.82,-0.84
,-9.27,-0.79,-2.685,-9.043,-0.148,-3.597,4.55,-0.56,-0.21
,-9.277,-0.407,-2.718,-9.009,-0.292,-3.678,4.62,0.49,-0.28
22110.0,-9.076,-0.407,-3.534,-9.136,0.61,-4.841,-1.82,3.57,0.63
,-9.287,-0.436,-3.532,-8.88,0.486,-4.838,0.21,3.78,1.33
,-9.373,-0.05,-3.793,-8.842,0.23,-4.841,1.54,3.5,1.12
,-9.244,0.29,-4.159,-8.942,-0.141,-4.494,1.54,2.94,0.42
22186.0,-9.122,-0.383,-4.008,-9.268,0.273,-3.453,1.54,-1.05,0.07
,-9.27,-0.514,-3.436,-9.033,0.208,-3.472,3.01,-0.98,0.7
,-9.428,-0.586,-3.041,-8.945,-0.129,-3.472,4.34,-0.56,1.26
,-9.433,-0.187,-3.214,-9.083,-0.426,-3.439,5.39,-0.14,0.84
22262.0,-9.284,-0.531,-3.336,-9.009,0.029,-3.963,-0.63,2.03,1.12
,-9.399,-0.364,-3.503,-8.964,-0.239,-3.874,0.42,2.17,1.26
,-9.359,-0.093,-3.68,-9.105,-0.467,-3.774,0.77,2.03,0.84
,-9.184,0.081,-3.912,-9.292,-0.445,-3.752,-0.07,2.17,0.77
22338.0,-9.292,-0.127,-3.759,-9.119,-0.007,-3.805,2.45,2.38,2.59
,-9.179,0.091,-3.747,-9.261,-0.134,-3.726,2.52,2.31,2.52
,-9.112,0.117,-3.86,-9.299,-0.081,-3.635,1.89,2.31,2.31
,-9.081,0.065,-3.855,-9.256,0.122,-3.666,1.54,2.31,2.45
22413.0,-9.158,0.144,-3.609,-9.048,0.065,-4.08,3.78,2.8,2.59
,-9.217,0.163,-3.848,-9.1,0.045,-3.999,3.01,2.73,2.24
,-9.153,0.168,-4.03,-9.172,0.081,-4.073,2.31,2.45,1.75
,-9.107,0.105,-4.101,-9.15,0.055,-3.994,1.61,2.17,1.47
22489.0,-9.162,0.024,-3.848,-9.158,-0.043,-3.69,3.15,1.33,1.47
,-9.162,0.0,-3.778,-9.201,0.031,-3.738,3.43,1.12,1.33
,-9.17,-0.038,-3.769,-9.136,0.029,-3.757,3.71,1.12,1.33
,-9.201,-0.026,-3.733,-9.122,-0.091,-3.62,3.78,1.19,1.47
22565.0,-9.136,-0.139,-3.63,-9.191,-0.043,-3.781,2.24,2.03,1.61
,-9.203,-0.069,-3.676,-9.213,0.0,-4.018,2.38,2.03,1.47
,-9.198,0.029,-3.644,-9.17,0.105,-4.113,2.17,2.38,1.4
,-9.186,-0.022,-3.699,-9.129,0.163,-4.207,1.75,2.52,1.61
22641.0,-9.124,0.184,-4.233,-9.239,-0.005,-3.695,3.15,1.47,1.12
,-9.067,0.168,-4.154,-9.234,0.077,-3.659,3.78,0.98,1.19
,-9.1,-0.005,-3.984,-9.191,-0.05,-3.565,4.06,1.12,1.47
,-9.119,-0.062,-3.752,-9.127,-0.077,-3.632,4.62,0.91,1.68
22717.0,-9.107,0.005,-3.68,-9.229,-0.105,-3.589,3.64,1.82,1.26
,-9.129,0.034,-3.702,-9.21,-0.01,-3.582,3.5,1.96,1.33
,-9.107,-0.103,-3.649,-9.155,-0.019,-3.685,3.15,1.96,1.33
,-9.153,-0.101,-3.613,-9.186,-0.002,-3.812,2.94,2.45,1.47
22792.0,-9.15,0.112,-3.951,-9.146,0.129,-4.039,1.89,3.08,1.12
,-9.112,0.168,-4.013,-9.117,0.227,-3.977,1.61,2.87,0.98
,-9.067,0.12,-4.099,-9.158,0.17,-3.946,1.54,2.66,0.98
,-9.112,0.112,-4.133,-9.069,0.096,-3.908,2.45,2.38,0.98
22868.0,-9.115,-0.029,-3.893,-9.206,0.069,-3.778,1.4,1.26,0.21
,-9.136,-0.103,-3.853,-9.208,0.077,-3.833,1.19,1.4,0.14
,-9.234,-0.122,-3.81,-9.162,-0.012,-3.824,1.4,1.54,0.14
,-9.222,-0.026,-3.814,-9.043,-0.144,-3.855,1.33,1.4,0.14
22943.0,-8.988,-0.184,-3.826,-9.148,0.124,-3.977,0.49,1.54,0.35
,-9.091,-0.153,-3.888,-9.079,0.086,-4.147,1.75,1.33,0.7
,-9.16,-0.05,-3.91,-9.1,0.055,-4.164,2.45,1.33,0.98
,-9.172,0.093,-3.865,-9.064,0.055,-4.192,2.31,1.19,0.98
23019.0,-9.043,0.127,-4.178,-9.148,0.026,-3.774,3.01,-0.28,1.12
,-9.112,0.096,-4.125,-9.196,0.002,-3.764,3.5,-0.63,1.12
,-9.107,0.086,-3.967,-9.162,-0.069,-3.652,3.29,-0.77,1.12
,-9.148,0.01,-3.831,-9.182,-0.069,-3.618,3.08,-1.05,1.05
23095.0,-9.129,-0.041,-3.594,-9.249,-0.091,-3.53,4.9,-0.28,1.68
,-9.067,-0.065,-3.573,-9.206,-0.017,-3.649,5.39,0.0,1.75
,-9.091,-0.11,-3.498,-9.124,-0.141,-3.625,5.25,0.35,2.1
,-9.177,-0.096,-3.51,-9.16,-0.065,-3.798,5.11,0.91,2.38
23171.0,-9.153,-0.122,-3.79,-9.158,-0.022,-3.673,3.01,2.17,2.66
,-9.186,-0.153,-3.671,-9.177,0.067,-3.845,2.94,2.1,2.73
,-9.182,-0.151,-3.551,-9.158,-0.01,-4.013,2.66,2.45,3.08
,-9.213,-0.091,-3.544,-9.081,-0.134,-3.752,2.38,2.66,3.08
23246.0,-9.05,-0.282,-3.563,-9.11,0.194,-3.917,-0.77,3.43,3.08
,-9.127,-0.139,-3.513,-9.155,0.0,-3.795,-0.14,3.29,3.01
,-9.165,0.218,-3.946,-9.136,-0.029,-3.714,-0.28,3.08,2.38
,-9.134,0.412,-3.979,-9.072,0.211,-3.79,-2.24,2.52,1.61
23322.0,-9.105,0.402,-3.865,-9.258,-0.045,-2.965,-1.82,2.66,1.4
,-9.064,0.297,-3.771,-9.258,0.175,-3.051,-3.08,2.8,1.33
,-9.189,0.041,-3.585,-9.198,0.313,-3.168,-3.43,2.94,1.26
,-9.27,-0.191,-3.214,-9.186,0.445,-3.577,-2.31,3.99,1.68
23398.0,-9.038,0.479,-4.061,-8.985,-0.235,-3.642,-6.37,5.46,-0.21
,-8.983,0.29,-3.994,-9.088,-0.304,-3.699,-7.49,5.53,0.07
,-8.954,0.067,-4.032,-9.091,-0.421,-3.235,-6.37,5.95,1.12
,-8.921,-0.168,-3.865,-9.091,-0.29,-3.451,-4.2,6.09,1.54
23474.0,-9.239,-0.163,-3.183,-8.832,0.481,-4.434,0.63,8.33,3.15
,-9.325,-0.213,-3.451,-8.801,0.596,-4.484,0.98,9.03,4.27
,-9.191,-0.005,-3.965,-8.818,0.663,-4.044,1.47,9.31,4.41
,-9.005,0.251,-3.994,-8.878,0.869,-4.592,2.24,9.17,4.41
23550.0,-9.072,0.912,-4.458,-9.048,-0.847,-3.305,-0.42,6.02,-0.14
,-9.112,0.543,-4.429,-9.117,-0.804,-2.517,-3.57,6.23,-0.35
,-8.942,-0.153,-4.046,-9.062,-0.227,-2.735,-5.32,7.35,-0.07
,-8.868,-0.522,-3.635,-9.076,0.519,-3.532,-0.21,8.82,1.4
23625.0,-9.313,0.727,-3.214,-8.815,0.933,-5.413,6.58,11.41,3.36
,-9.232,1.005,-4.3,-8.612,0.158,-4.817,1.26,10.22,2.73
,-8.844,1.364,-5.214,-8.775,-0.651,-4.453,-3.15,9.1,1.75
,-8.765,1.228,-5.324,-8.794,-1.177,-4.066,-5.25,8.54,1.4
23701.0,-8.787,-1.357,-3.015,-9.368,0.089,-4.082,4.06,15.12,4.69
,-8.904,-0.964,-2.907,-9.067,0.416,-4.848,8.61,16.45,6.44
,-9.153,-0.536,-3.223,-8.674,0.428,-4.927,10.08,15.89,7.0
,-9.378,-0.266,-3.329,-8.229,0.751,-5.08,9.87,14.21,8.05
23776.0,-8.021,0.964,-4.826,-9.273,-0.337,-3.853,9.03,13.44,8.26
,-8.416,0.849,-4.247,-9.16,-0.617,-3.68,8.82,14.28,7.56
,-8.871,0.646,-4.022,-9.115,-0.665,-4.056,6.58,14.77,6.86
,-9.136,0.196,-3.927,-9.122,-0.44,-4.188,3.57,15.4,7.14
23852.0,-8.878,0.146,-4.791,-8.22,1.388,-5.133,13.86,12.95,10.43
,-8.586,0.682,-5.437,-8.598,1.251,-4.664,14.14,12.11,10.22
,-8.5,1.072,-5.58,-8.914,0.995,-4.477,12.74,11.83,9.87
,-8.248,1.24,-5.506,-8.859,0.503,-4.341,11.76,12.6,9.31
23928.0,-8.887,-0.014,-4.3,-8.976,1.017,-5.078,-0.84,14.28,5.67
,-8.748,-0.189,-4.336,-8.839,1.718,-5.075,0.07,14.56,7.0
,-8.643,-0.206,-4.348,-8.576,2.381,-5.073,3.99,14.77,8.19
,-8.825,0.275,-4.719,-8.437,2.745,-5.004,9.59,13.37,8.05
24004.0,-8.547,2.745,-5.032,-8.658,-0.146,-4.487,1.54,11.83,-1.89
,-8.677,2.247,-4.927,-8.67,-0.778,-4.298,-4.2,11.62,-4.62
,-8.758,1.4,-4.788,-8.576,-0.818,-4.202,-8.68,12.25,-6.23
,-8.825,0.445,-4.661,-8.277,-0.646,-4.724,-10.43,12.95,-6.44
24079.0,-8.22,-0.529,-4.937,-8.346,0.622,-5.43,4.41,12.18,0.0
,-8.382,-0.57,-5.087,-7.894,0.495,-5.25,6.44,11.62,0.77
,-8.746,0.223,-5.53,-8.066,0.261,-5.367,6.79,10.43,0.98
,-8.713,0.433,-5.425,-8.6,-0.517,-5.358,6.37,9.8,0.49
24155.0,-8.971,-0.431,-5.418,-8.643,0.201,-5.59,2.31,7.35,0.49
,-8.808,-0.579,-5.272,-8.622,0.574,-5.487,6.23,7.56,0.63
,-8.583,-0.203,-5.233,-8.098,1.424,-5.93,9.8,7.63,0.77
,-8.638,0.01,-5.365,-8.177,1.445,-6.224,12.95,7.42,0.7
24230.0,-8.306,0.869,-5.774,-8.806,-0.302,-4.917,12.81,4.55,0.21
,-8.562,-0.223,-5.453,-8.614,0.299,-5.02,7.98,5.04,1.05
,-8.875,-0.263,-5.339,-8.547,0.742,-5.123,8.47,5.18,1.19
,-9.033,-0.589,-5.066,-8.873,0.749,-5.078,10.5,4.2,1.61
24306.0,-8.83,0.907,-5.52,-7.854,0.704,-5.652,13.79,4.34,-1.12
,-8.679,0.586,-5.451,-8.67,0.345,-5.631,13.02,3.85,-1.05
,-7.825,0.782,-5.564,-9.258,0.196,-5.37,12.32,3.36,-1.12
,-7.679,0.962,-5.437,-9.012,-0.048,-5.293,14.14,3.57,-0.7
24382.0,-8.49,-0.16,-5.312,-8.397,-0.357,-5.631,9.24,1.82,-3.08
,-8.205,-0.242,-5.401,-8.327,-0.251,-5.559,9.17,2.1,-2.31
,-8.291,-0.266,-5.248,-8.081,-0.28,-5.642,8.33,2.17,-1.54
,-8.385,-0.565,-5.09,-8.153,-0.323,-5.552,6.79,2.45,-0.14
24458.0,-8.507,-0.215,-5.518,-8.459,0.388,-5.063,9.45,-0.84,4.69
,-8.66,-0.514,-5.116,-8.579,0.424,-5.03,9.45,-0.7,4.9
,-8.538,-0.33,-4.752,-8.653,0.503,-5.042,11.97,-0.7,4.83
,-8.378,0.244,-5.037,-8.681,0.625,-5.255,13.44,-0.42,4.76
24534.0,-8.866,0.67,-5.219,-8.33,0.294,-5.398,10.5,3.29,3.64
,-8.536,0.909,-5.267,-8.717,0.254,-5.358,8.19,2.59,3.15
,-7.988,0.708,-5.307,-8.732,0.235,-5.463,4.97,1.61,2.8
,-7.899,0.347,-5.434,-8.614,0.067,-5.47,3.15,2.1,2.94
24609.0,-8.356,-0.093,-5.705,-8.277,0.541,-5.841,-0.49,4.27,2.31
,-8.351,-0.041,-5.788,-8.203,0.089,-5.729,-0.35,4.13,2.8
,-8.473,0.299,-5.851,-8.339,-0.407,-5.418,0.07,4.13,3.43
,-8.504,0.73,-5.853,-8.325,-0.57,-5.561,-1.26,2.87,4.13
24685.0,-8.478,-0.294,-5.75,-8.543,0.704,-5.372,-10.36,1.96,8.47
,-8.619,0.55,-6.049,-8.703,0.483,-5.331,-7.7,1.26,8.54
,-8.619,0.95,-5.808,-8.672,0.366,-5.398,-9.45,0.56,8.19
,-8.562,0.672,-5.652,-8.751,0.479,-5.355,-12.74,0.0,7.84
24761.0,-8.686,0.95,-5.525,-8.437,0.651,-5.319,-12.53,-0.7,5.46
,-8.574,0.818,-5.432,-8.552,0.718,-5.331,-10.01,-0.49,4.27
,-8.521,0.838,-5.525,-8.55,0.694,-5.556,-9.24,-0.21,3.85
,-8.559,1.165,-5.48,-8.325,0.928,-5.559,-10.29,-0.35,3.71
24837.0,-8.413,0.79,-5.487,-8.643,-0.017,-5.394,-8.47,-2.31,1.33
,-8.392,0.916,-5.384,-8.658,0.223,-5.489,-6.3,-3.15,-0.42
,-8.533,0.835,-5.602,-8.301,0.098,-5.686,-6.02,-3.57,-1.89
,-8.705,0.574,-5.65,-8.074,0.211,-5.64,-6.51,-3.08,-2.31
24912.0,-8.215,0.294,-5.494,-8.452,0.562,-5.185,-1.96,-7.35,-0.91
,-8.313,0.364,-5.556,-8.55,0.854,-5.219,-0.7,-8.26,-1.05
,-8.421,0.445,-5.542,-8.614,0.907,-4.903,-0.91,-8.89,-0.98
,-8.461,0.431,-5.305,-8.914,0.84,-5.118,-1.82,-8.82,-0.7
24988.0,-8.99,0.933,-5.035,-8.519,0.416,-4.848,4.69,-9.87,-3.64
,-8.533,0.993,-4.92,-8.648,0.354,-4.843,2.31,-10.71,-3.92
,-8.124,1.007,-4.915,-8.71,0.349,-4.748,1.05,-10.99,-3.92
,-8.169,0.61,-4.831,-8.638,0.261,-4.745,0.49,-11.13,-4.34
25063.0,-8.55,0.225,-4.815,-8.545,-0.034,-4.695,5.67,-11.62,-3.01
,-8.461,0.225,-4.953,-8.334,0.05,-4.578,7.84,-11.48,-1.96
,-8.507,-0.067,-4.889,-8.54,0.194,-4.556,9.87,-11.2,-0.7
,-8.823,-0.455,-4.774,-8.691,0.601,-4.757,10.29,-11.83,-0.35
25139.0,-8.868,0.136,-4.494,-8.737,0.675,-4.52,8.75,-12.32,1.47
,-8.804,0.182,-4.439,-8.957,0.672,-4.602,8.89,-12.25,3.08
,-8.677,0.297,-4.494,-8.914,0.792,-4.532,10.5,-11.69,3.71
,-8.665,0.436,-4.465,-8.54,0.838,-4.48,12.25,-11.2,3.92
25215.0,-8.502,0.672,-4.319,-8.78,1.354,-4.391,4.55,-11.97,1.19
,-8.681,0.359,-4.185,-8.758,1.273,-4.317,4.27,-11.69,0.77
,-8.873,0.586,-4.13,-8.777,0.995,-4.145,6.79,-11.76,0.14
,-8.914,1.082,-4.367,-8.82,0.78,-4.156,7.91,-11.83,-0.7
25291.0,-8.985,0.486,-4.015,-8.777,0.541,-4.188,3.15,-8.61,-3.5
,-9.086,0.572,-4.14,-8.839,0.407,-4.197,5.39,-8.54,-3.64
,-9.036,0.823,-4.377,-8.926,0.227,-4.063,5.95,-8.89,-4.55
,-8.83,0.84,-4.401,-8.916,0.115,-3.963,4.27,-8.54,-5.32
25367.0,-8.976,0.122,-3.996,-8.856,0.249,-3.975,1.54,-6.79,-4.2
,-8.897,0.189,-4.156,-8.99,0.256,-3.912,1.47,-6.72,-3.99
,-8.827,0.069,-4.097,-9.217,0.098,-3.81,1.96,-6.65,-3.85
,-8.863,0.191,-4.202,-9.208,-0.007,-3.625,3.22,-6.44,-3.57
25442.0,-8.971,0.017,-3.606,-8.89,0.23,-3.824,1.47,-5.04,-3.71
,-8.885,0.292,-3.884,-8.871,0.163,-3.721,1.61,-4.9,-3.78
,-8.894,0.342,-4.164,-9.04,0.211,-3.735,1.47,-5.04,-4.13
,-8.983,0.268,-4.123,-9.232,0.292,-3.944,1.19,-4.69,-4.34
25518.0,-9.191,0.464,-4.171,-8.918,-0.007,-3.81,1.4,-3.92,-3.99
,-8.981,0.593,-4.252,-9.055,0.139,-4.049,0.35,-3.5,-4.48
,-8.756,0.282,-4.101,-9.21,0.213,-4.171,-0.77,-3.22,-4.48
,-8.784,-0.031,-4.008,-9.139,0.297,-4.298,-0.28,-2.87,-3.85
25594.0,-9.012,0.218,-3.891,-9.069,0.292,-4.066,-0.49,-3.64,-4.48
,-8.981,0.002,-3.63,-9.012,0.196,-4.104,-0.28,-3.08,-3.99
,-8.99,0.053,-3.817,-9.055,0.141,-3.929,0.84,-2.87,-3.85
,-9.057,0.302,-3.932,-9.095,0.237,-4.075,1.12,-3.01,-3.99
25670.0,-9.203,0.531,-4.343,-8.935,-0.218,-3.96,2.73,-2.94,-3.57
,-9.11,0.593,-4.489,-9.057,-0.309,-4.07,2.1,-3.5,-3.99
,-9.007,0.371,-4.326,-9.143,-0.029,-3.96,0.63,-3.43,-3.85
,-8.945,-0.007,-4.058,-9.136,0.132,-4.154,-0.21,-3.36,-3.29
25745.0,-9.072,0.029,-4.049,-9.16,-0.246,-3.632,1.82,-4.41,-2.38
,-9.074,-0.304,-3.8,-9.038,-0.105,-3.757,1.54,-4.13,-1.75
,-9.11,-0.565,-3.439,-9.0,-0.089,-3.549,2.73,-3.29,-0.77
,-9.198,-0.45,-3.644,-9.072,-0.165,-3.616,5.11,-3.15,-0.49
25821.0,-9.103,-0.072,-3.498,-9.119,-0.23,-3.427,6.02,-1.89,0.63
,-9.131,0.06,-3.439,-9.174,-0.227,-3.635,5.81,-1.4,0.91
,-9.134,0.122,-3.606,-9.124,0.005,-3.888,4.2,-1.19,0.35
,-9.033,0.002,-3.35,-9.095,0.254,-4.202,2.38,-0.63,0.28
25897.0,-9.014,0.177,-4.011,-9.332,0.16,-3.68,-0.07,-0.07,0.0
,-9.112,-0.134,-3.754,-9.153,0.287,-3.769,-0.63,0.28,0.56
,-9.112,-0.201,-3.465,-9.019,0.134,-3.867,-0.21,0.77,1.05
,-9.289,-0.055,-3.609,-8.911,-0.11,-3.556,0.84,0.91,0.77
25973.0,-9.024,-0.242,-3.381,-9.229,-0.153,-3.343,0.42,2.45,1.47
,-9.182,-0.28,-3.245,-9.172,0.043,-3.664,1.12,3.01,1.75
,-9.217,-0.282,-3.072,-9.103,0.101,-3.795,1.12,3.36,1.89
,-9.323,-0.122,-3.163,-9.064,0.146,-3.857,0.42,4.06,1.89
26048.0,-9.031,0.057,-3.683,-9.074,0.349,-4.58,-4.76,5.95,1.96
,-9.186,-0.084,-3.652,-8.878,0.462,-4.645,-4.13,6.37,2.45
,-9.229,0.014,-3.912,-8.825,0.567,-4.8,-3.22,6.3,2.1
,-9.119,0.223,-4.223,-8.887,0.672,-4.817,-2.24,5.81,1.82
26124.0,-8.921,0.574,-4.422,-9.086,0.158,-4.08,-2.24,2.66,0.49
,-9.086,0.421,-4.35,-9.06,0.11,-3.905,-2.8,2.17,0.14
,-9.165,0.239,-4.207,-9.11,0.139,-3.757,-2.73,1.4,-0.28
,-9.134,0.179,-4.13,-9.177,0.122,-3.719,-1.89,0.7,-0.35
26200.0,-9.244,0.062,-3.616,-8.945,0.045,-4.355,2.38,1.33,0.77
,-9.158,0.062,-3.764,-8.997,0.038,-4.18,2.73,1.61,0.77
,-9.127,0.148,-4.145,-9.067,0.129,-4.2,2.94,1.47,0.49
,-9.024,0.17,-4.348,-9.088,0.297,-4.116,3.08,1.12,0.42
26275.0,-9.083,0.464,-4.247,-9.095,0.002,-3.848,6.09,-0.56,0.77
,-9.019,0.337,-4.212,-9.119,0.012,-3.821,5.25,-0.63,0.49
,-9.086,0.12,-4.078,-9.115,-0.029,-3.623,4.83,-0.7,0.77
,-9.036,0.012,-4.018,-9.122,0.05,-3.678,5.88,-0.7,1.05
26351.0,-9.129,0.103,-3.637,-9.143,0.165,-3.635,6.02,0.28,1.26
,-9.088,0.144,-3.642,-9.129,0.232,-3.637,5.18,0.7,1.26
,-9.124,0.072,-3.685,-9.174,0.345,-3.893,4.55,0.91,1.33
,-9.153,0.041,-3.616,-9.162,0.361,-4.013,4.76,1.4,1.47
26427.0,-9.141,0.347,-4.087,-9.184,0.225,-4.149,2.66,1.75,0.14
,-9.064,0.158,-4.094,-9.086,0.352,-4.226,2.03,1.82,0.07
,-8.997,0.007,-4.008,-9.057,0.172,-4.097,2.59,1.75,0.28
,-9.098,0.034,-4.07,-9.06,0.014,-3.984,3.92,1.33,0.28
26503.0,-9.141,0.081,-3.896,-9.115,0.203,-3.953,5.95,0.84,0.56
,-9.158,0.093,-3.699,-9.072,0.294,-4.214,6.09,0.98,0.49
,-9.17,0.055,-3.695,-8.926,0.251,-4.31,5.25,0.91,0.42
,-9.194,0.041,-3.812,-8.904,0.139,-4.279,4.83,0.7,0.14
26578.0,-8.997,0.022,-4.111,-9.086,0.112,-3.884,3.64,0.07,-0.07
,-9.146,0.017,-3.951,-9.072,0.026,-4.003,4.69,-0.14,0.14
,-9.167,0.148,-3.908,-9.086,-0.026,-3.991,5.11,-0.35,-0.07
,-9.141,0.153,-3.843,-9.088,0.007,-3.941,4.83,-0.35,-0.21
26654.0,-9.062,-0.084,-3.831,-9.208,-0.002,-3.606,4.55,-0.21,-0.07
,-9.1,-0.048,-3.728,-9.153,0.136,-3.879,5.11,-0.07,0.21
,-9.17,-0.038,-3.609,-9.055,0.184,-4.011,5.46,0.07,0.35
,-9.225,0.002,-3.597,-8.971,0.165,-4.101,5.39,0.35,0.28
26730.0,-9.038,0.067,-4.123,-9.155,0.022,-3.905,3.36,0.28,-0.14
,-9.107,0.16,-4.166,-9.127,0.17,-4.008,4.06,-0.07,-0.14
,-9.076,0.112,-4.063,-9.186,0.139,-3.987,4.13,-0.42,-0.07
,-9.124,0.026,-3.929,-9.155,-0.022,-4.044,3.99,-0.35,0.07
26806.0,-9.095,-0.16,-3.893,-9.15,-0.072,-3.68,2.52,-1.05,-0.56
,-9.093,-0.12,-3.812,-9.203,0.086,-3.817,3.36,-1.26,-0.42
,-9.127,-0.065,-3.857,-9.115,0.215,-3.886,3.57,-1.26,-0.28
,-9.139,-0.11,-3.609,-9.153,0.134,-3.917,3.57,-0.84,-0.07
26881.0,-9.091,0.036,-4.025,-9.112,0.084,-3.888,0.84,-0.91,-0.56
,-9.074,0.012,-3.972,-9.124,-0.01,-3.754,1.26,-1.12,-0.35
,-9.064,0.048,-3.908,-9.11,-0.06,-3.783,1.54,-1.33,-0.35
,-9.115,0.098,-3.905,-9.139,-0.057,-3.771,1.68,-1.26,-0.28
26957.0,-9.162,-0.112,-3.68,-9.213,-0.101,-3.451,1.96,-0.91,0.49
,-9.194,-0.199,-3.503,-9.191,-0.005,-3.479,2.1,-0.77,0.91
,-9.186,-0.251,-3.419,-9.251,0.11,-3.525,2.59,-0.28,1.33
,-9.136,-0.17,-3.501,-9.234,0.211,-3.642,3.22,0.0,1.68
27033.0,-9.162,0.266,-4.015,-9.072,-0.146,-4.183,0.98,1.05,1.19
,-9.103,0.357,-4.322,-9.177,-0.321,-3.941,-0.14,0.42,0.56
,-9.045,0.213,-4.42,-9.251,-0.445,-3.503,-0.77,-0.07,0.35
,-9.024,0.024,-4.384,-9.265,-0.522,-2.967,-0.28,-0.56,0.56
27108.0,-9.306,-0.452,-2.647,-9.009,0.182,-3.376,0.98,0.56,1.05
,-9.407,-0.191,-2.642,-8.906,-0.208,-3.364,-0.84,1.47,0.42
,-9.351,0.029,-2.666,-8.961,-0.421,-3.206,-4.34,2.17,-0.49
,-9.239,0.285,-3.149,-9.112,-0.22,-2.998,-7.77,3.01,-1.4
27184.0,-9.203,0.249,-3.3,-9.136,0.404,-3.223,-0.77,7.63,2.17
,-9.241,0.309,-3.13,-9.237,0.225,-3.379,-1.61,7.84,2.03
,-9.143,0.524,-3.216,-9.217,0.136,-3.393,-4.62,8.12,1.12
,-8.981,0.558,-3.008,-9.117,0.211,-3.644,-7.84,8.75,0.7
27260.0,-9.057,0.278,-4.011,-9.06,-0.349,-3.96,-9.87,10.29,0.0
,-9.002,0.273,-4.154,-9.153,-0.132,-4.056,-9.38,10.22,-0.21
,-8.973,0.05,-4.133,-9.086,0.022,-4.288,-7.91,10.57,0.42
,-9.024,-0.201,-4.25,-8.959,-0.062,-4.329,-5.67,10.85,0.91
27336.0,-8.952,-0.366,-4.068,-9.117,0.481,-4.482,0.21,12.53,3.99
,-8.885,-0.589,-3.898,-8.89,1.237,-5.193,1.89,13.37,5.25
,-9.009,-0.615,-3.24,-8.823,1.194,-5.255,5.25,13.44,6.09
,-9.141,-0.091,-3.972,-8.851,0.94,-4.934,7.35,12.74,5.88
27411.0,-8.906,0.814,-4.92,-8.863,-1.591,-3.989,-0.56,6.93,1.33
,-8.938,0.565,-4.85,-9.04,-1.778,-4.046,0.56,6.51,0.84
,-8.94,-0.117,-4.444,-9.036,-1.675,-4.159,1.26,6.51,1.12
,-8.88,-0.986,-4.013,-8.988,-1.299,-3.963,3.57,7.07,2.52
27487.0,-8.894,-0.347,-4.381,-8.672,1.883,-5.209,25.97,6.44,13.72
,-8.784,0.864,-5.181,-8.961,1.35,-4.657,25.55,4.2,12.39
,-8.856,1.773,-5.465,-9.009,1.165,-4.159,19.6,2.38,10.71
,-8.748,2.07,-5.59,-8.978,1.05,-3.745,11.06,1.4,9.24
27563.0,-9.072,0.5,-3.333,-9.127,-0.668,-3.441,-2.87,3.71,0.56
,-9.146,-0.194,-3.094,-9.15,-0.38,-3.932,-2.8,5.11,0.49
,-9.296,-0.684,-2.702,-8.997,0.206,-4.527,-0.35,6.65,1.26
,-9.241,-0.945,-2.917,-8.863,0.771,-4.776,3.99,7.91,2.94
27639.0,-8.583,1.34,-4.798,-9.036,0.916,-4.128,11.41,6.09,5.39
,-8.538,1.651,-4.64,-8.983,0.507,-3.922,7.56,6.23,3.43
,-8.674,1.737,-4.463,-8.734,-0.065,-3.922,2.17,6.37,1.33
,-8.899,1.397,-4.42,-8.815,-0.854,-3.577,-3.85,6.72,-0.49
27715.0,-8.904,-1.01,-3.69,-8.449,-0.041,-4.424,-1.75,9.94,2.45
,-9.143,-0.811,-4.02,-8.543,-0.189,-4.216,5.04,9.03,3.57
,-9.246,-0.431,-4.264,-8.758,0.005,-4.346,9.66,8.54,4.34
,-8.904,-0.175,-4.403,-8.794,0.313,-4.436,11.34,9.24,4.9
27790.0,-8.868,0.29,-4.477,-8.796,0.203,-4.2,7.91,10.92,7.77
,-8.988,0.053,-4.331,-8.854,0.275,-4.575,5.53,11.97,8.26
,-9.019,-0.165,-4.171,-8.983,0.225,-4.621,5.53,12.81,8.75
,-8.894,0.005,-4.235,-8.713,0.206,-4.817,7.28,13.37,8.89
27865.0,-8.38,0.261,-4.752,-8.801,0.622,-4.298,9.17,12.39,10.08
,-8.524,0.431,-4.836,-8.954,0.299,-4.369,10.36,12.67,10.5
,-8.689,0.601,-4.755,-8.863,0.256,-4.448,11.62,12.81,9.94
,-8.71,0.775,-4.587,-8.55,0.5,-4.472,11.62,13.09,9.31
27941.0,-8.291,0.727,-4.472,-8.973,1.95,-4.214,5.39,11.76,7.98
,-8.492,1.663,-4.511,-8.964,1.555,-4.252,7.84,11.9,6.37
,-8.679,2.027,-4.307,-8.67,1.074,-4.515,7.98,12.6,4.9
,-8.835,1.998,-4.089,-8.545,0.397,-4.712,4.9,12.46,2.38
28017.0,-8.311,0.165,-5.298,-8.208,-0.699,-5.53,-3.57,12.25,-2.52
,-8.263,-0.287,-5.47,-8.595,-0.237,-5.621,0.35,13.16,-1.82
,-8.368,-0.763,-5.413,-8.485,-0.558,-5.501,3.85,12.53,-1.19
,-8.181,-0.534,-5.518,-8.758,-0.242,-5.444,7.77,10.99,-0.49
28093.0,-9.155,0.211,-5.652,-8.2,0.546,-5.099,10.22,5.74,2.31
,-8.815,-0.196,-5.319,-8.466,1.067,-5.413,9.45,5.39,2.03
,-8.605,-0.117,-5.363,-8.423,1.17,-5.351,8.82,5.74,2.38
,-8.598,0.256,-5.097,-8.588,1.467,-5.513,10.08,6.16,2.59
28169.0,-8.646,1.29,-5.126,-9.002,0.902,-4.984,13.51,4.2,1.26
,-8.67,1.388,-5.056,-8.894,0.459,-5.324,14.28,3.36,0.7
,-8.768,1.919,-5.406,-8.425,0.0,-4.831,16.03,2.38,-1.54
,-9.139,1.61,-5.358,-8.066,0.074,-5.3,13.65,2.52,-3.5
28244.0,-8.21,0.524,-5.64,-8.313,-0.486,-5.621,10.08,0.98,-4.62
,-8.354,0.744,-6.102,-8.459,-0.459,-5.43,11.76,0.21,-4.06
,-8.332,0.134,-5.843,-8.641,-0.445,-5.142,8.12,-0.14,-3.64
,-8.315,-0.313,-5.578,-8.844,-0.096,-5.073,4.97,-0.07,-2.38
28320.0,-8.885,0.086,-5.054,-8.799,0.589,-5.121,5.81,-2.17,0.98
,-8.871,-0.108,-5.126,-8.1,1.163,-5.212,5.67,-2.38,0.98
,-8.729,0.007,-5.188,-7.973,1.376,-5.207,6.72,-1.75,0.77
,-8.796,0.146,-5.217,-8.198,0.833,-5.19,9.52,-1.4,0.42
28396.0,-8.6,0.093,-5.329,-8.631,-0.598,-5.252,0.98,-1.26,0.56
,-8.981,-0.414,-5.279,-8.844,-0.172,-5.2,0.91,-1.05,1.47
,-8.811,-0.888,-5.238,-8.567,0.22,-5.217,1.47,-0.7,2.17
,-8.524,-0.967,-5.25,-8.339,0.144,-5.202,3.43,0.49,3.01
28472.0,-8.516,0.196,-5.188,-8.538,0.345,-4.85,0.28,-0.77,4.83
,-8.519,0.313,-5.147,-8.512,0.431,-4.774,-0.07,-0.28,5.67
,-8.571,0.455,-5.061,-8.454,0.373,-4.836,-1.26,0.21,5.88
,-8.488,0.493,-5.063,-8.545,0.421,-4.941,-2.1,1.05,5.74
28547.0,-8.787,0.637,-5.056,-8.605,-0.06,-4.903,-4.69,2.94,8.33
,-8.763,0.704,-5.147,-8.629,0.16,-5.097,-6.09,2.03,7.98
,-8.466,0.347,-5.288,-8.634,0.194,-5.162,-9.31,2.38,7.84
,-8.483,0.036,-4.996,-8.689,0.957,-5.279,-10.29,2.94,8.4
28623.0,-8.698,1.07,-5.068,-8.801,1.433,-4.994,-4.62,2.66,7.42
,-8.727,1.151,-5.027,-8.804,1.139,-4.965,-5.88,3.22,6.51
,-8.806,1.268,-4.922,-8.772,1.165,-5.035,-6.58,3.92,5.74
,-8.861,1.345,-4.793,-8.476,0.986,-5.097,-6.79,4.13,4.97
28698.0,-8.184,0.593,-5.25,-8.567,0.045,-5.14,-11.83,3.5,0.84
,-8.435,0.519,-5.477,-8.452,0.436,-5.365,-10.08,3.01,1.26
,-8.504,-0.036,-5.437,-8.583,0.828,-5.315,-9.03,1.96,2.17
,-8.483,-0.419,-5.248,-8.583,0.663,-5.173,-5.67,0.91,2.24
28774.0,-8.612,0.617,-5.061,-8.617,-0.038,-5.181,-5.04,-1.47,0.56
,-8.528,0.445,-5.116,-8.708,0.034,-5.226,-8.54,-1.82,0.98
,-8.512,0.27,-5.202,-8.696,0.134,-5.236,-8.82,-1.82,1.4
,-8.514,0.01,-5.15,-8.495,0.369,-5.252,-7.42,-1.89,1.96
28850.0,-8.421,0.498,-5.162,-8.516,0.608,-5.099,5.18,-3.92,3.5
,-8.488,0.574,-5.188,-8.507,0.727,-5.193,5.74,-4.41,3.36
,-8.672,0.581,-5.2,-8.567,0.814,-5.272,6.3,-5.04,3.22
,-8.55,0.725,-5.532,-8.538,0.833,-5.224,7.14,-5.46,3.01
28926.0,-8.658,0.763,-5.059,-8.607,0.799,-4.673,7.56,-6.58,3.29
,-8.748,0.857,-4.803,-8.777,0.998,-4.63,6.37,-7.49,2.87
,-8.497,0.988,-4.834,-8.799,1.242,-4.652,4.76,-8.19,2.59
,-8.399,0.926,-4.75,-8.691,1.184,-4.621,3.78,-8.12,2.66
29002.0,-8.705,1.106,-4.628,-8.65,0.749,-4.317,5.74,-7.14,0.35
,-8.579,1.015,-4.611,-8.6,0.725,-4.494,6.16,-6.65,0.35
,-8.756,0.632,-4.432,-8.76,0.66,-4.436,6.3,-6.51,0.14
,-8.691,0.68,-4.408,-8.787,0.864,-4.446,7.07,-7.21,-0.77
29077.0,-8.82,0.637,-4.432,-8.801,1.055,-4.472,5.32,-6.86,-1.33
,-8.698,0.893,-4.506,-8.808,1.07,-4.523,6.93,-6.79,-1.54
,-8.67,1.086,-4.558,-8.713,0.974,-4.42,6.72,-6.65,-1.89
,-8.691,1.048,-4.487,-8.605,0.972,-4.494,4.62,-6.37,-2.03
29153.0,-8.667,0.945,-4.46,-8.811,0.907,-4.326,0.56,-6.09,-4.27
,-8.835,1.005,-4.367,-8.626,0.881,-4.436,0.7,-6.02,-5.25
,-9.038,1.019,-4.36,-8.732,0.684,-4.42,0.56,-5.88,-5.95
,-9.069,0.94,-4.42,-8.82,0.577,-4.439,-0.91,-5.81,-6.79
29229.0,-8.806,0.601,-4.41,-8.796,0.246,-4.518,-2.87,-5.04,-8.4
,-8.815,0.541,-4.441,-8.856,-0.034,-4.398,-2.73,-4.9,-8.61
,-8.844,0.538,-4.403,-8.957,-0.16,-4.731,-2.8,-4.69,-8.47
,-8.789,0.414,-4.444,-8.859,-0.06,-4.515,-2.66,-4.55,-8.12
29305.0,-8.842,-0.072,-4.506,-8.76,0.235,-4.417,1.12,-4.41,-5.04
,-8.899,-0.148,-4.551,-8.844,0.034,-4.214,2.1,-4.83,-4.62
,-8.82,0.237,-4.597,-8.949,-0.024,-4.415,2.31,-5.67,-4.13
,-8.768,0.412,-4.544,-8.856,0.306,-4.609,1.54,-5.67,-3.71
29380.0,-8.741,0.61,-4.702,-8.887,-0.498,-3.934,7.0,-5.88,-1.26
,-8.748,0.72,-4.523,-9.06,-0.622,-4.018,7.7,-5.88,-0.98
,-8.772,0.407,-4.154,-9.227,-0.361,-4.293,7.77,-5.32,-0.77
,-8.813,-0.038,-4.015,-9.296,0.031,-4.456,7.14,-4.62,-0.14
29456.0,-8.875,0.816,-4.654,-9.026,1.242,-3.912,13.44,-6.23,3.01
,-8.564,1.101,-4.252,-9.043,1.022,-3.845,11.34,-5.74,2.66
,-8.679,1.263,-4.29,-9.024,0.775,-3.642,7.98,-5.39,1.05
,-8.887,1.309,-4.147,-8.973,0.682,-3.723,4.2,-5.39,-0.7
29531.0,-9.038,0.56,-3.618,-9.067,0.534,-3.92,-0.91,-3.92,-3.99
,-9.122,0.438,-3.465,-9.002,0.591,-4.216,0.07,-3.15,-3.5
,-9.086,0.349,-3.625,-8.861,0.378,-4.496,0.07,-2.59,-3.71
,-9.014,0.491,-3.824,-8.777,0.091,-4.484,-0.21,-2.17,-4.2
29607.0,-8.851,-0.108,-4.326,-9.105,0.227,-4.145,-2.17,-3.08,-3.64
,-8.945,-0.184,-4.329,-9.141,0.172,-4.001,0.14,-3.22,-3.08
,-8.935,-0.026,-4.298,-9.112,0.23,-4.056,2.31,-3.36,-2.87
,-9.009,0.28,-4.209,-9.081,0.258,-3.927,3.01,-3.57,-2.73
29683.0,-9.067,0.445,-4.094,-9.036,0.574,-4.269,2.38,-3.15,-2.45
,-8.988,0.495,-3.872,-9.036,0.392,-4.252,1.54,-3.01,-2.8
,-9.098,0.507,-4.07,-9.055,0.27,-4.209,0.77,-3.15,-3.15
,-9.005,0.603,-4.226,-9.0,0.359,-4.269,-0.07,-3.15,-3.64
29759.0,-8.988,0.328,-4.192,-9.091,-0.012,-4.384,0.14,-4.27,-4.34
,-9.095,0.242,-4.231,-8.995,-0.072,-4.401,-0.21,-4.83,-4.48
,-9.091,0.249,-4.302,-8.957,-0.05,-4.267,-0.28,-5.04,-4.41
,-9.045,0.067,-4.262,-9.086,0.122,-4.075,-0.07,-5.32,-4.13
29835.0,-9.103,0.385,-4.073,-9.155,0.254,-3.762,7.7,-7.21,-3.15
,-9.105,0.459,-3.759,-9.072,0.218,-3.769,6.93,-7.21,-3.36
,-9.081,0.426,-3.582,-9.088,0.266,-4.015,4.97,-7.0,-3.57
,-9.167,0.201,-3.525,-9.007,0.335,-4.171,3.22,-6.79,-3.85
29910.0,-8.964,0.153,-3.953,-9.325,0.079,-3.661,-1.75,-7.56,-5.32
,-9.064,-0.12,-3.654,-9.186,0.156,-3.697,-1.4,-7.14,-4.48
,-9.227,-0.258,-3.561,-9.072,0.141,-3.654,-0.28,-7.0,-3.99
,-9.246,-0.151,-3.561,-9.139,0.005,-3.62,1.26,-6.58,-3.85
29986.0,-9.141,-0.074,-3.599,-9.22,-0.139,-3.238,1.82,-5.74,-3.15
,-9.215,-0.077,-3.525,-9.237,-0.23,-3.041,2.52,-5.53,-2.87
,-9.234,-0.034,-3.477,-9.268,-0.172,-3.046,3.22,-5.11,-2.66
,-9.237,-0.091,-3.384,-9.234,-0.057,-3.051,3.78,-4.9,-2.31
30062.0,-9.227,0.034,-3.183,-9.275,-0.069,-3.659,6.65,-1.75,-0.63
,-9.277,-0.065,-3.156,-9.203,0.089,-3.702,5.81,-1.05,-0.42
,-9.261,-0.211,-3.262,-9.165,0.01,-3.707,5.39,-0.28,-0.14
,-9.217,-0.309,-3.149,-9.112,-0.187,-3.537,6.09,0.42,0.28
30138.0,-9.167,-0.292,-3.324,-9.033,0.318,-4.08,6.44,1.75,1.19
,-9.28,-0.165,-3.218,-9.031,0.029,-4.075,7.14,2.17,1.4
,-9.32,0.175,-3.79,-9.076,-0.053,-3.944,7.35,2.03,0.91
,-9.201,0.426,-4.006,-9.139,-0.156,-3.908,5.6,1.47,0.07
30213.0,-9.301,-0.067,-3.8,-9.227,-0.144,-3.4,4.2,0.0,0.77
,-9.299,0.139,-3.912,-9.27,-0.158,-3.381,3.92,-0.56,0.07
,-9.148,0.153,-3.709,-9.323,-0.213,-3.496,2.38,-0.91,-0.07
,-9.165,0.041,-3.599,-9.296,-0.11,-3.599,0.7,-0.56,0.0
30289.0,-9.22,-0.026,-3.635,-9.414,0.302,-3.912,0.49,0.0,0.42
,-9.119,-0.129,-3.513,-9.282,0.586,-4.097,0.91,0.35,0.84
,-9.165,-0.251,-3.436,-9.083,0.622,-3.989,2.1,0.77,1.33
,-9.316,-0.036,-3.577,-8.99,0.182,-3.759,3.71,0.77,1.4
30364.0,-9.124,-0.359,-3.386,-9.442,0.163,-3.273,-2.38,-0.35,-0.7
,-9.179,-0.416,-3.027,-9.258,0.191,-3.355,0.21,0.56,0.35
,-9.368,-0.282,-2.883,-9.174,0.098,-3.611,2.17,1.26,0.98
,-9.514,0.0,-3.113,-9.127,-0.053,-3.731,2.66,1.89,0.91
30440.0,-9.117,-0.041,-3.716,-9.134,0.211,-3.948,1.12,2.73,1.4
,-9.282,0.108,-3.944,-9.122,0.019,-3.888,2.45,2.73,1.54
,-9.311,0.242,-3.97,-9.146,-0.127,-3.618,2.94,2.17,1.26
,-9.215,0.416,-4.085,-9.234,-0.108,-3.546,2.24,1.54,0.91
30516.0,-9.335,-0.069,-3.369,-9.275,-0.05,-3.436,4.76,1.33,1.68
,-9.275,-0.072,-3.252,-9.196,-0.029,-3.618,4.06,1.54,1.54
,-9.316,-0.189,-3.199,-9.191,-0.002,-3.637,3.08,1.82,1.54
,-9.28,-0.112,-3.245,-9.16,0.0,-3.611,2.87,2.24,1.47
30592.0,-9.251,0.11,-3.58,-9.184,0.215,-3.915,3.15,2.87,1.61
,-9.349,0.201,-3.752,-9.112,0.117,-3.967,3.08,2.73,1.19
,-9.239,0.376,-3.819,-9.184,0.103,-3.845,2.24,2.38,0.7
,-9.177,0.383,-3.891,-9.182,-0.053,-3.817,0.63,2.31,0.28
30668.0,-9.215,-0.002,-3.774,-9.186,-0.041,-3.561,0.42,1.12,-0.07
,-9.241,0.005,-3.707,-9.182,-0.132,-3.486,0.84,0.98,-0.07
,-9.203,0.017,-3.699,-9.191,-0.211,-3.436,1.05,0.91,0.0
,-9.194,-0.012,-3.685,-9.294,-0.098,-3.484,1.33,0.77,0.0
30743.0,-9.275,0.067,-3.549,-9.179,0.007,-3.764,2.94,1.54,0.7
,-9.225,0.225,-3.774,-9.198,0.034,-3.683,2.45,1.54,0.49
,-9.139,0.127,-3.766,-9.239,0.0,-3.585,1.75,1.54,0.42
,-9.141,0.043,-3.731,-9.261,-0.084,-3.518,1.54,1.61,0.63
30819.0,-9.244,0.019,-3.568,-9.184,0.11,-3.723,2.87,1.75,0.84
,-9.217,0.11,-3.642,-9.22,0.079,-3.75,2.87,1.82,0.77
,-9.191,0.041,-3.68,-9.191,-0.01,-3.654,2.52,1.82,0.84
,-9.203,0.057,-3.678,-9.227,-0.067,-3.565,2.45,1.89,0.84
30895.0,-9.237,-0.06,-3.496,-9.122,0.007,-3.68,3.71,1.96,1.19
,-9.263,0.132,-3.64,-9.232,0.062,-3.754,3.92,1.89,1.05
,-9.215,0.177,-3.704,-9.241,0.139,-3.769,3.15,1.75,0.84
,-9.158,0.055,-3.632,-9.265,-0.019,-3.687,2.03,1.96,0.84
30971.0,-9.186,-0.048,-3.561,-9.186,0.132,-3.908,2.66,1.54,0.91
,-9.222,0.062,-3.711,-9.203,0.098,-3.975,3.36,1.68,0.84
,-9.234,0.175,-3.805,-9.177,0.132,-3.939,3.01,1.61,0.56
,-9.179,0.132,-3.845,-9.141,0.148,-3.905,2.38,1.4,0.42
31046.0,-9.208,0.22,-3.96,-9.225,-0.136,-3.625,3.01,-0.21,-0.14
,-9.194,0.108,-3.884,-9.208,-0.115,-3.518,2.38,-0.63,-0.21
,-9.213,0.055,-3.833,-9.203,-0.048,-3.419,2.24,-0.7,-0.21
,-9.167,-0.072,-3.685,-9.215,-0.038,-3.465,2.66,-0.56,-0.07
31122.0,-9.222,-0.017,-3.58,-9.213,-0.098,-3.652,3.64,-0.28,0.42
,-9.225,0.022,-3.637,-9.208,-0.117,-3.52,3.5,-0.35,0.35
,-9.191,0.043,-3.582,-9.289,-0.141,-3.484,3.08,-0.42,0.49
,-9.172,0.007,-3.673,-9.311,-0.072,-3.47,3.29,-0.35,0.49
31197.0,-9.194,0.029,-3.434,-9.294,-0.189,-3.161,3.64,0.21,0.56
,-9.172,-0.022,-3.326,-9.28,-0.139,-3.163,2.66,0.63,0.84
,-9.213,-0.191,-3.173,-9.323,-0.091,-3.29,2.17,1.33,1.26
,-9.249,-0.287,-3.101,-9.316,-0.098,-3.372,2.94,1.96,1.89
31273.0,-9.249,-0.079,-3.305,-9.22,0.34,-3.951,4.13,4.27,2.73
,-9.177,0.091,-3.295,-9.153,0.215,-4.054,3.78,4.69,2.59
,-9.222,0.199,-3.372,-9.093,0.01,-3.996,2.73,4.9,2.45
,-9.229,0.218,-3.501,-9.201,-0.067,-3.85,1.68,5.11,2.17
31349.0,-9.15,0.105,-3.69,-9.22,-0.318,-3.226,-3.08,3.71,-0.56
,-9.119,0.227,-3.35,-9.277,-0.625,-2.927,-4.27,3.78,-0.7
,-9.253,0.151,-3.556,-9.256,-0.629,-2.742,-5.74,3.85,-0.91
,-9.21,-0.024,-3.422,-9.335,-0.323,-2.828,-6.23,4.2,-0.63
31425.0,-9.366,0.153,-3.396,-8.954,-0.517,-3.58,0.84,7.84,1.96
,-9.21,0.476,-3.903,-9.194,-0.4,-3.288,-1.68,7.14,1.19
,-8.964,0.455,-4.197,-9.253,0.067,-3.491,-4.27,6.86,1.12
,-8.854,-0.084,-4.137,-9.22,0.445,-3.424,-5.25,6.93,1.96
31500.0,-9.167,0.622,-3.853,-9.308,-0.651,-3.331,-0.84,7.91,2.17
,-9.04,0.179,-3.8,-9.179,0.067,-3.379,-5.32,8.05,2.1
,-9.105,-0.627,-3.501,-9.045,0.857,-4.106,-5.53,9.1,3.64
,-9.22,-0.976,-2.955,-8.89,1.134,-4.743,-0.56,10.71,5.67
31576.0,-8.933,0.55,-4.592,-8.923,0.945,-4.415,-0.7,8.89,4.06
,-9.045,-0.12,-4.436,-8.926,0.859,-4.429,-2.1,9.66,5.25
,-9.031,-0.369,-3.649,-8.88,0.158,-4.391,1.47,10.43,6.3
,-9.117,0.098,-3.975,-8.902,-0.546,-3.329,6.02,9.8,4.97
31652.0,-9.002,-0.378,-3.417,-8.914,0.55,-4.704,3.36,10.92,4.83
,-9.162,0.299,-3.501,-8.698,-0.069,-4.444,7.91,9.73,3.5
,-9.409,0.916,-4.401,-8.713,0.0,-4.195,7.42,7.98,1.96
,-9.16,1.247,-5.02,-8.842,0.287,-4.13,1.96,6.86,1.33
31728.0,-8.911,0.637,-3.881,-9.332,-0.182,-3.226,10.71,9.38,2.87
,-9.009,0.687,-3.764,-9.158,-0.098,-3.427,7.42,9.66,2.03
,-9.05,0.38,-3.498,-8.985,-0.038,-3.795,3.5,9.87,1.33
,-9.296,-0.129,-3.458,-8.82,0.041,-3.802,1.19,9.94,0.91
31804.0,-8.772,0.141,-3.819,-8.792,0.163,-4.661,1.61,11.34,3.29
,-8.842,0.235,-4.226,-8.624,0.029,-4.432,1.05,11.06,2.87
,-9.083,0.187,-4.413,-8.758,-0.148,-4.369,0.77,10.43,2.17
,-9.122,0.199,-4.676,-8.832,-0.44,-4.346,0.56,10.43,2.17
31879.0,-8.878,-0.768,-4.044,-8.871,0.474,-4.439,7.77,12.18,5.67
,-8.868,-0.945,-3.994,-8.71,0.735,-4.554,10.43,12.81,7.42
,-8.973,-0.708,-4.046,-8.619,0.677,-4.69,13.51,12.88,8.47
,-9.043,-0.072,-4.111,-8.693,0.541,-4.623,16.1,12.39,9.17
31955.0,-8.813,0.562,-4.635,-8.708,0.022,-4.463,7.77,11.9,8.33
,-8.887,0.584,-4.523,-8.562,-0.261,-4.288,7.35,12.32,7.84
,-8.928,0.366,-4.551,-8.859,-0.316,-4.166,6.58,12.46,7.63
,-8.93,0.235,-4.604,-8.971,-0.034,-4.097,5.39,11.83,7.63
32030.0,-8.727,0.38,-4.078,-9.036,0.5,-4.597,11.27,13.86,8.19
,-8.646,0.704,-4.307,-8.66,0.653,-4.539,10.29,13.93,8.61
,-8.679,0.644,-4.621,-8.392,0.581,-4.458,7.49,13.86,8.47
,-8.983,0.596,-4.563,-8.612,0.668,-4.446,5.46,13.16,8.05
32106.0,-8.945,1.007,-4.539,-8.521,1.541,-5.03,6.02,14.77,5.25
,-8.878,1.393,-4.8,-8.38,1.51,-5.104,6.72,14.98,3.92
,-8.689,1.563,-4.984,-8.583,1.122,-5.056,6.16,15.54,2.38
,-8.713,1.709,-4.91,-8.756,0.785,-4.779,4.83,14.98,1.12
32182.0,-8.914,0.62,-4.946,-8.267,-0.34,-5.334,-2.31,12.25,-4.13
,-8.851,0.249,-5.004,-8.141,-0.782,-5.226,-2.31,11.48,-4.2
,-8.698,0.012,-5.145,-8.265,-0.431,-5.291,-2.45,10.71,-3.92
,-8.512,-0.06,-5.418,-8.246,-0.39,-5.207,-1.61,9.59,-3.92
32258.0,-8.368,-0.077,-5.123,-8.827,0.771,-4.762,9.87,9.24,-0.63
,-8.76,0.359,-5.025,-8.351,0.371,-4.953,9.66,8.68,-0.49
,-8.842,0.613,-4.958,-8.394,0.68,-5.315,7.35,7.91,-1.12
,-8.949,0.749,-4.977,-8.564,0.615,-5.305,6.3,7.7,-1.89
32333.0,-8.363,0.232,-5.377,-8.959,0.022,-5.8,6.37,7.0,-3.15
,-8.251,-0.194,-5.427,-8.677,-0.589,-5.353,6.23,7.35,-2.1
,-8.394,-0.622,-5.245,-8.959,-0.507,-5.762,8.4,7.42,-1.33
,-8.617,-0.258,-5.65,-8.792,-0.68,-5.511,12.32,6.37,-0.98
32409.0,-8.588,-0.062,-5.523,-8.215,0.9,-5.69,17.92,3.43,1.05
,-8.346,0.388,-5.623,-8.052,0.366,-5.686,18.34,3.15,0.84
,-8.586,0.909,-5.762,-8.057,-0.014,-5.702,16.87,2.66,-0.35
,-8.418,0.672,-5.619,-8.26,-0.246,-5.482,13.93,1.75,-0.7
32485.0,-8.674,-0.117,-5.597,-8.739,-0.543,-5.24,10.71,1.4,1.75
,-8.93,-0.45,-5.142,-8.449,-0.388,-5.355,11.2,0.35,1.68
,-8.918,-0.598,-5.099,-8.265,-0.474,-5.535,12.04,-0.49,2.1
,-8.926,-0.706,-5.114,-8.248,-0.191,-5.614,13.65,-1.26,2.24
32561.0,-8.148,0.431,-5.666,-8.624,-0.258,-4.759,16.17,-3.71,5.18
,-8.062,0.51,-5.508,-8.524,-0.232,-4.748,14.42,-3.71,5.67
,-8.222,0.361,-5.382,-8.792,0.074,-4.731,10.71,-3.64,5.88
,-8.557,0.139,-5.02,-8.765,0.503,-4.657,9.8,-3.29,5.81
32637.0,-8.547,0.792,-4.645,-8.569,0.72,-4.752,13.09,-1.82,4.27
,-8.519,0.976,-4.874,-8.581,0.45,-4.831,11.48,-1.26,3.71
,-8.734,0.711,-4.621,-8.502,-0.026,-4.688,8.82,-0.35,3.29
,-8.667,0.617,-4.616,-8.454,-0.05,-4.771,7.35,0.14,2.73
32712.0,-8.342,0.041,-4.939,-8.933,0.244,-5.068,1.33,3.36,2.38
,-8.382,0.124,-5.147,-8.732,-0.034,-5.025,1.26,3.71,2.31
,-8.574,0.414,-5.116,-8.433,0.091,-5.018,1.75,4.27,2.03
,-8.784,0.392,-5.08,-8.311,0.196,-4.946,0.98,4.76,1.61
32788.0,-8.404,0.371,-4.934,-8.631,-0.072,-5.334,-3.43,7.63,3.08
,-8.421,0.433,-5.173,-8.586,0.163,-5.506,-5.95,7.14,3.57
,-8.447,0.443,-5.329,-8.586,0.196,-5.595,-7.84,7.63,3.85
,-8.469,0.258,-5.331,-8.428,-0.105,-5.595,-10.08,7.84,4.06
32863.0,-8.418,-0.172,-5.518,-8.672,0.373,-5.609,-15.19,8.4,5.04
,-8.552,-0.139,-5.547,-8.423,0.457,-5.554,-14.21,8.33,5.39
,-8.701,-0.156,-5.568,-8.323,0.639,-5.372,-12.88,6.86,5.46
,-8.806,0.182,-5.683,-8.394,0.761,-5.346,-11.34,6.02,4.97
32939.0,-8.555,0.464,-5.346,-8.593,0.436,-5.937,-15.61,4.41,4.55
,-8.586,0.766,-5.406,-8.423,0.132,-5.848,-14.84,3.99,4.06
,-8.492,0.675,-5.372,-8.232,0.038,-5.439,-15.54,3.78,4.62
,-8.583,0.321,-5.666,-8.356,0.232,-5.516,-15.26,3.15,4.9
33015.0,-8.327,0.481,-5.662,-8.492,0.792,-5.604,-3.15,0.21,3.01
,-8.361,0.409,-5.432,-8.638,0.696,-5.465,-3.64,-0.35,3.22
,-8.452,0.304,-5.281,-8.66,0.558,-5.461,-5.18,-0.49,3.64
,-8.591,0.668,-5.487,-8.428,0.407,-5.607,-4.34,-0.77,3.99
33091.0,-8.2,0.168,-5.578,-8.516,0.711,-5.322,-5.32,-3.43,1.54
,-8.179,0.077,-5.564,-8.54,0.864,-5.296,-3.22,-4.27,2.73
,-8.296,0.371,-5.645,-8.756,0.972,-5.027,0.14,-5.46,2.73
,-8.399,0.584,-5.475,-8.717,1.125,-5.501,3.15,-5.95,2.17
33166.0,-8.66,0.993,-5.169,-8.165,0.428,-5.006,2.24,-6.16,0.28
,-8.48,0.842,-5.126,-8.22,0.574,-5.042,1.75,-5.88,-0.35
,-8.595,0.522,-5.197,-8.445,0.775,-5.157,1.4,-6.37,-1.12
,-8.545,0.404,-5.154,-8.605,0.972,-5.233,0.42,-8.05,-1.61
33242.0,-8.466,1.065,-5.207,-8.686,0.34,-4.712,2.03,-10.78,-1.54
,-8.457,0.735,-5.001,-8.713,0.548,-4.786,0.7,-10.15,-1.89
,-8.521,0.385,-4.726,-8.638,0.68,-4.968,0.84,-9.73,-2.24
,-8.588,0.352,-4.855,-8.437,0.29,-4.908,2.87,-9.38,-2.38
33317.0,-8.725,0.203,-4.681,-8.67,0.62,-4.695,4.41,-9.45,-1.47
,-8.416,0.431,-4.585,-8.617,0.524,-4.582,4.27,-10.08,-1.19
,-8.378,0.713,-4.8,-8.691,0.495,-4.518,3.85,-10.22,-1.26
,-8.588,0.629,-4.681,-8.744,0.493,-4.403,2.8,-10.29,-1.12
33393.0,-8.811,0.648,-4.422,-8.677,1.053,-4.692,5.18,-7.63,-1.19
,-8.777,0.938,-4.616,-8.751,0.912,-4.606,5.11,-7.7,-1.96
,-8.799,1.089,-4.594,-8.813,0.739,-4.743,3.85,-7.84,-2.73
,-8.78,1.158,-4.64,-8.686,0.658,-4.838,2.73,-7.91,-3.29
33469.0,-8.638,0.553,-4.795,-8.67,0.438,-4.628,-2.17,-8.12,-6.16
,-8.768,0.486,-4.769,-8.653,0.179,-4.448,-1.12,-8.26,-6.51
,-8.746,0.459,-4.786,-8.753,0.115,-4.592,0.07,-8.4,-7.07
,-8.655,0.51,-4.743,-8.763,0.091,-4.48,0.98,-8.4,-7.56
33545.0,-8.76,-0.036,-4.391,-8.835,0.223,-4.056,3.5,-7.91,-4.62
,-8.827,0.055,-4.434,-8.938,0.349,-4.166,4.83,-8.19,-4.48
,-8.849,0.266,-4.496,-8.949,0.491,-4.264,5.18,-8.4,-4.48
,-8.732,0.345,-4.252,-8.933,0.474,-4.178,5.32,-8.26,-4.06
33621.0,-8.78,0.546,-4.271,-8.935,0.345,-3.975,4.06,-7.14,-4.76
,-8.71,0.352,-3.884,-8.942,0.57,-4.113,2.66,-6.79,-4.83
,-8.748,0.213,-3.994,-8.954,0.486,-4.307,2.87,-6.3,-4.69
,-8.911,0.182,-3.896,-8.825,0.139,-4.192,3.99,-6.23,-4.62
33696.0,-8.871,-0.139,-4.051,-8.928,0.292,-4.238,-1.19,-5.04,-6.02
,-8.88,-0.139,-4.113,-8.894,0.299,-4.348,0.14,-4.62,-5.46
,-8.976,-0.055,-4.121,-8.856,0.211,-4.341,0.84,-4.41,-5.53
,-9.007,0.148,-4.118,-8.825,0.11,-4.058,0.49,-4.69,-5.32
33772.0,-8.93,0.065,-4.073,-8.959,-0.213,-4.161,-1.26,-4.06,-5.04
,-9.036,0.055,-4.013,-8.94,-0.421,-3.987,0.21,-3.92,-4.55
,-9.031,0.141,-4.319,-8.988,-0.337,-4.133,0.42,-4.13,-4.13
,-8.947,0.112,-4.188,-8.966,0.048,-4.46,0.0,-4.27,-3.92
33848.0,-8.988,0.079,-4.25,-8.871,0.397,-4.444,8.54,-3.92,-0.28
,-9.026,0.242,-4.511,-8.928,0.29,-4.413,7.35,-4.48,-0.28
,-8.957,0.39,-4.491,-8.928,0.27,-4.178,6.3,-4.55,-0.28
,-8.899,0.491,-4.532,-9.016,0.029,-3.944,4.83,-4.62,-0.84
33924.0,-9.009,-0.05,-3.781,-9.007,0.182,-3.666,2.17,-4.62,-1.89
,-9.1,0.045,-3.805,-8.973,0.177,-3.714,2.66,-4.27,-2.03
,-9.189,0.136,-3.549,-9.043,0.086,-3.884,1.82,-4.13,-2.38
,-9.249,0.077,-3.594,-8.949,-0.11,-3.692,0.63,-3.57,-2.45
33999.0,-9.076,-0.369,-3.747,-8.88,0.203,-4.381,-3.43,-1.4,-2.17
,-9.1,-0.397,-3.654,-8.813,-0.045,-4.156,-1.75,-0.91,-1.54
,-9.098,-0.196,-3.953,-8.911,-0.309,-4.027,-0.21,-1.26,-1.26
,-9.088,0.067,-4.226,-9.033,-0.397,-3.728,0.7,-1.61,-1.47
34075.0,-9.217,-0.189,-3.795,-9.122,-0.251,-3.439,4.76,-1.26,0.49
,-9.289,-0.101,-3.668,-9.16,0.168,-3.989,4.2,-1.12,0.35
,-9.107,-0.175,-3.422,-9.107,0.725,-4.547,2.8,-0.56,0.7
,-9.153,-0.223,-3.515,-8.899,1.0,-4.884,2.38,0.14,0.98
34150.0,-8.796,0.771,-4.987,-9.32,0.258,-4.214,1.68,-1.61,-1.19
,-8.76,0.426,-4.728,-9.201,0.335,-4.324,2.1,-1.96,-0.91
,-8.904,0.141,-4.372,-9.005,0.158,-4.14,4.06,-2.59,-0.63
,-9.139,0.11,-4.094,-8.909,0.05,-4.283,5.53,-3.01,-0.91
34226.0,-8.926,-0.096,-4.078,-9.213,-0.438,-2.898,3.36,-4.76,-2.24
,-9.055,-0.213,-3.802,-9.256,-0.445,-2.74,4.06,-4.48,-1.75
,-9.155,-0.335,-3.467,-9.27,-0.306,-2.843,4.41,-4.2,-1.33
,-9.177,-0.407,-3.18,-9.246,0.081,-3.259,5.04,-3.92,-1.05
34302.0,-9.05,0.175,-3.475,-9.246,-0.28,-3.355,2.24,1.19,-0.07
,-9.05,0.057,-3.616,-9.261,0.017,-3.415,1.33,2.03,0.49
,-9.076,-0.249,-3.589,-9.304,0.364,-3.843,1.82,2.87,1.12
,-9.1,-0.414,-3.319,-9.11,0.369,-4.085,3.29,3.5,2.03
34378.0,-8.983,0.127,-4.336,-9.146,0.0,-4.159,-1.4,4.48,0.63
,-8.966,-0.134,-4.322,-9.079,0.093,-4.216,-1.05,4.27,0.77
,-9.045,-0.215,-4.223,-9.081,0.187,-4.314,0.7,4.06,1.33
,-9.167,-0.034,-4.214,-9.007,0.297,-4.403,2.38,3.57,1.47
34454.0,-8.947,0.28,-4.372,-9.158,0.206,-4.118,2.87,1.68,0.98
,-8.993,0.081,-4.238,-9.024,0.354,-4.219,2.38,1.33,0.91
,-9.103,-0.098,-4.058,-9.016,0.235,-4.137,2.8,1.05,1.19
,-9.167,-0.034,-4.015,-8.993,-0.002,-4.032,3.78,0.84,1.19
34529.0,-9.045,-0.168,-3.86,-8.997,0.01,-3.958,2.87,-0.28,0.98
,-9.189,-0.141,-3.687,-8.978,-0.12,-3.934,4.34,-0.21,1.12
,-9.256,0.139,-3.812,-9.045,0.017,-3.958,4.83,0.0,0.77
,-9.16,0.175,-3.972,-9.153,0.053,-3.805,3.78,-0.14,0.35
34605.0,-9.201,-0.024,-3.656,-9.103,0.153,-3.893,3.5,0.49,0.98
,-9.184,-0.103,-3.57,-9.036,0.055,-3.929,3.57,0.98,1.12
,-9.16,0.048,-3.649,-9.072,0.129,-3.939,4.13,1.33,1.05
,-9.17,0.22,-3.793,-9.103,0.158,-3.91,3.5,1.33,0.56
34681.0,-9.079,0.127,-3.79,-8.983,-0.079,-4.204,0.63,1.96,0.0
,-9.095,0.034,-3.843,-8.971,-0.163,-4.178,0.14,2.1,-0.14
,-9.074,0.086,-4.032,-9.043,-0.103,-4.049,0.0,1.89,-0.42
,-9.076,0.038,-4.166,-9.139,-0.105,-3.955,-0.07,1.61,-0.35
34757.0,-9.117,-0.065,-3.716,-9.033,0.026,-4.147,2.03,1.68,0.7
,-9.229,-0.014,-3.884,-8.99,0.012,-4.176,1.96,1.47,0.63
,-9.093,0.12,-4.054,-9.057,0.055,-4.159,2.17,1.4,0.42
,-9.074,0.12,-4.121,-9.11,0.079,-4.034,1.68,1.19,0.35
34832.0,-9.098,0.103,-3.953,-9.119,-0.072,-3.786,3.57,0.42,0.77
,-9.098,0.041,-3.92,-9.141,-0.05,-3.841,2.87,0.35,0.56
,-9.095,-0.002,-3.896,-9.103,0.026,-3.807,2.24,0.28,0.56
,-9.143,-0.055,-3.874,-9.074,0.05,-3.81,1.82,0.49,0.63
34908.0,-9.098,0.079,-3.991,-9.086,-0.002,-4.011,2.17,1.05,0.77
,-9.048,0.036,-3.987,-9.208,0.019,-3.989,2.17,0.84,0.77
,-9.06,0.002,-4.022,-9.167,0.031,-3.972,2.31,0.84,0.91
,-9.105,-0.043,-3.996,-9.074,-0.005,-3.965,2.66,0.7,0.98
34983.0,-9.045,0.029,-4.008,-9.141,0.029,-3.908,2.31,0.28,0.63
,-9.105,0.026,-3.999,-9.131,0.072,-3.838,2.59,-0.07,0.63
,-9.115,0.022,-3.999,-9.103,0.086,-3.807,2.94,0.07,0.84
,-9.131,-0.007,-3.877,-9.155,0.105,-3.826,3.5,0.21,0.98
35059.0,-9.105,0.177,-3.979,-9.072,-0.17,-3.824,2.73,0.21,0.21
,-9.043,0.132,-3.991,-9.095,-0.151,-3.783,1.82,0.21,0.14
,-9.064,0.112,-4.032,-9.072,-0.041,-3.81,1.33,0.0,0.07
,-9.067,-0.103,-3.936,-9.122,0.024,-3.831,1.4,0.28,0.28
35135.0,-9.134,0.019,-3.917,-9.179,-0.065,-3.695,1.4,0.14,0.28
,-9.088,0.081,-3.97,-9.217,0.034,-3.726,0.98,0.35,0.28
,-9.086,-0.038,-3.903,-9.158,0.242,-3.855,0.49,0.42,0.35
,-9.11,-0.101,-3.831,-9.103,0.361,-3.979,0.56,0.56,0.56
35211.0,-9.069,0.27,-4.173,-8.938,0.01,-4.216,-2.1,0.49,-0.21
,-9.119,0.053,-4.209,-8.995,-0.079,-4.101,-3.43,0.07,-0.77
,-9.131,-0.01,-4.31,-9.043,-0.191,-3.865,-3.78,-0.56,-1.26
,-9.033,0.084,-4.36,-9.119,-0.258,-3.599,-3.36,-1.12,-1.26
35287.0,-9.153,-0.349,-3.475,-9.067,-0.036,-3.374,1.33,-1.26,1.82
,-9.196,-0.412,-3.396,-8.976,-0.22,-3.195,2.52,-0.84,2.17
,-9.237,-0.225,-3.475,-9.074,-0.316,-3.063,3.08,-0.7,1.96
,-9.194,-0.002,-3.451,-9.194,-0.191,-2.831,2.59,-0.35,1.89
35362.0,-9.304,0.158,-2.831,-9.098,-0.232,-3.661,-3.22,3.92,2.66
,-9.273,0.495,-2.953,-9.002,-0.371,-4.008,-7.35,4.48,1.54
,-9.227,0.397,-3.242,-8.811,-0.151,-4.396,-12.18,5.18,0.35
,-9.112,0.112,-3.24,-8.868,-0.146,-4.503,-15.33,5.95,0.0
35438.0,-8.997,-0.218,-4.381,-9.206,0.278,-3.848,-3.08,6.93,2.73
,-9.112,-0.342,-3.812,-9.16,0.541,-4.063,0.07,7.42,4.2
,-9.258,-0.254,-3.62,-9.038,0.562,-4.173,2.38,8.05,5.32
,-9.313,-0.163,-3.565,-8.88,0.464,-4.41,2.73,7.98,5.39
35514.0,-8.88,0.194,-4.269,-9.04,0.376,-3.994,-6.37,5.53,3.85
,-8.938,-0.002,-4.113,-9.007,0.335,-3.898,-4.2,5.6,4.62
,-9.086,-0.089,-3.754,-8.957,0.019,-3.879,-1.68,5.95,5.6
,-9.184,0.041,-3.893,-9.105,-0.342,-3.525,0.21,5.67,5.11
35590.0,-9.093,-0.481,-3.405,-8.885,0.263,-4.135,0.0,6.72,5.74
,-9.026,-0.287,-3.807,-8.906,0.39,-3.886,1.89,6.37,5.6
,-8.995,0.124,-4.259,-9.019,1.084,-4.018,2.24,5.74,5.04
,-8.988,0.392,-4.599,-9.139,1.838,-4.52,1.26,5.6,5.18
35665.0,-9.055,2.008,-4.87,-9.208,0.467,-3.743,1.4,4.06,0.98
,-8.933,1.206,-4.594,-9.201,0.625,-4.214,-5.04,4.62,0.56
,-8.973,0.101,-3.573,-9.043,0.17,-4.434,-6.51,5.95,0.98
,-9.028,-0.031,-3.515,-8.894,-0.833,-4.219,-1.12,6.37,0.77
35741.0,-8.806,-1.357,-3.697,-9.016,0.83,-4.011,0.91,8.47,4.83
,-8.842,-0.912,-3.539,-8.832,0.725,-3.762,7.63,8.96,5.67
,-8.964,-0.048,-3.814,-8.914,0.656,-3.494,11.69,8.89,5.88
,-9.033,0.704,-4.085,-9.033,0.735,-2.907,10.43,8.54,5.74
35816.0,-9.172,1.041,-3.489,-8.607,-0.23,-3.967,3.5,11.62,3.15
,-9.165,1.364,-4.204,-8.911,-0.45,-4.116,2.31,10.64,0.98
,-9.11,1.271,-4.544,-9.184,-0.244,-4.625,-0.7,10.78,0.63
,-8.741,0.447,-4.446,-9.189,-0.084,-4.901,-2.8,12.04,1.89
35892.0,-8.703,0.005,-4.937,-8.871,1.046,-4.427,9.45,11.69,4.62
,-8.404,0.148,-4.774,-8.949,1.244,-4.422,10.15,12.88,5.53
,-8.586,0.395,-4.64,-8.942,1.132,-4.609,11.76,13.02,5.6
,-8.768,0.665,-4.63,-8.775,0.948,-4.666,11.97,12.95,4.83
35968.0,-8.65,0.675,-4.709,-8.954,-0.682,-4.2,-0.7,10.29,2.03
,-8.698,0.172,-4.621,-8.861,-0.644,-4.353,0.28,10.01,2.24
,-8.856,-0.179,-4.408,-8.516,-0.45,-4.547,2.31,9.66,1.75
,-8.914,-0.452,-4.2,-8.457,-0.428,-4.544,5.25,10.08,1.4
36044.0,-8.847,-0.268,-4.3,-8.421,1.084,-4.764,11.13,12.39,7.77
,-8.949,0.426,-4.616,-8.531,0.981,-4.568,12.18,11.9,7.49
,-8.854,1.046,-4.932,-8.677,0.78,-4.47,10.22,10.92,6.86
,-8.612,1.273,-4.972,-8.804,0.404,-4.408,6.02,10.64,6.51
36120.0,-9.038,0.041,-4.331,-8.48,-0.251,-5.011,0.07,12.46,5.11
,-9.024,-0.201,-4.434,-8.516,0.208,-5.018,1.68,11.97,5.88
,-8.959,-0.455,-4.63,-8.258,0.885,-5.109,3.36,10.78,6.37
,-8.662,-0.498,-4.87,-8.26,1.359,-5.037,6.09,10.57,7.35
36195.0,-8.662,1.709,-5.001,-8.418,0.689,-4.41,11.27,8.96,5.67
,-8.605,1.974,-4.826,-8.471,0.11,-4.597,5.88,9.31,2.8
,-8.672,1.799,-4.597,-8.569,-0.053,-4.745,1.12,9.31,0.63
,-8.729,1.563,-4.57,-8.459,-0.108,-4.929,-2.87,9.1,-0.77
36271.0,-8.545,-0.349,-5.044,-8.442,1.036,-5.619,5.88,9.38,1.05
,-8.832,-0.313,-4.992,-8.167,0.534,-5.386,10.43,8.82,0.77
,-8.796,-0.096,-5.025,-8.308,0.641,-5.638,12.67,8.26,0.77
,-8.808,0.213,-5.133,-8.167,-0.048,-5.379,14.56,7.77,0.84
36347.0,-8.521,-0.069,-5.422,-9.043,0.749,-5.53,10.08,6.3,3.01
,-8.198,-0.218,-5.611,-8.978,0.981,-5.329,12.81,5.88,3.43
,-8.543,0.266,-5.482,-8.708,1.015,-5.451,16.24,5.6,3.5
,-8.703,0.598,-5.485,-8.119,0.928,-5.619,18.48,4.83,3.08
36423.0,-7.892,0.498,-5.566,-9.057,0.136,-5.291,8.82,3.36,0.35
,-8.086,0.103,-5.449,-8.923,0.392,-5.14,9.24,3.43,1.61
,-8.562,-0.072,-5.42,-8.464,0.462,-5.159,9.87,3.15,2.1
,-8.832,-0.122,-5.351,-8.54,0.778,-4.886,11.13,2.94,2.38
36498.0,-8.555,1.405,-5.111,-8.564,-0.105,-5.327,17.01,-0.28,-1.19
,-8.423,1.644,-5.138,-8.636,-0.608,-5.374,13.72,-0.42,-2.1
,-8.545,1.5,-5.083,-8.768,-0.933,-5.195,10.43,-0.56,-2.87
,-8.387,0.706,-5.255,-8.588,-0.771,-5.118,6.86,-1.19,-3.64
36574.0,-8.459,-0.254,-5.09,-8.519,0.833,-5.535,18.83,-0.42,0.42
,-8.378,0.223,-5.379,-8.476,0.292,-5.252,20.16,-0.84,0.56
,-8.399,0.596,-5.384,-8.777,0.158,-5.441,19.53,-0.91,0.56
,-8.483,0.766,-5.489,-8.547,-0.103,-5.13,17.78,-1.61,-0.14
36649.0,-8.469,-0.28,-4.941,-8.588,0.44,-5.037,11.9,1.33,1.26
,-8.569,-0.225,-5.126,-8.437,0.345,-5.276,13.23,0.98,1.33
,-8.875,-0.165,-4.987,-8.385,0.165,-5.054,13.93,0.91,1.61
,-8.787,0.215,-5.13,-8.313,0.263,-5.035,14.28,0.91,1.54
36725.0,-8.78,0.335,-5.128,-8.303,-0.045,-4.951,6.93,1.19,1.75
,-8.815,0.39,-5.102,-8.449,-0.323,-4.946,4.06,1.47,1.61
,-8.334,0.251,-5.008,-8.753,0.328,-4.932,1.54,1.89,1.54
,-8.22,0.392,-5.087,-8.832,0.787,-5.162,-0.21,2.38,1.68
36801.0,-8.686,0.744,-5.291,-8.629,-0.038,-5.382,-0.63,4.69,1.33
,-8.43,0.57,-5.403,-8.607,-0.196,-5.578,-2.94,5.46,1.4
,-8.48,0.388,-5.264,-8.497,-0.352,-5.607,-5.25,5.88,1.68
,-8.603,0.182,-5.221,-8.32,-0.455,-5.645,-7.35,6.02,2.17
36877.0,-8.385,-0.318,-5.707,-8.457,-0.225,-5.444,-12.6,3.57,6.51
,-8.634,-0.302,-5.767,-8.586,0.141,-5.372,-12.81,2.59,6.79
,-8.751,-0.376,-5.559,-8.634,0.538,-5.284,-13.44,1.89,6.72
,-8.576,-0.529,-5.453,-8.686,0.933,-5.408,-12.88,1.61,7.0
36952.0,-8.763,0.881,-5.226,-8.437,0.57,-5.355,-11.9,0.42,5.81
,-8.583,0.694,-5.284,-8.571,0.325,-5.205,-13.58,0.0,5.88
,-8.361,0.493,-5.224,-8.748,0.261,-5.118,-13.79,0.63,5.88
,-8.272,0.534,-5.162,-8.813,0.598,-4.977,-10.78,0.98,6.09
37028.0,-8.442,0.838,-5.272,-8.562,0.61,-5.434,-3.36,-1.89,3.57
,-8.251,0.522,-5.221,-8.471,0.641,-5.599,-4.69,-1.68,3.43
,-8.291,0.467,-5.195,-8.334,0.627,-5.583,-5.95,-2.45,2.8
,-8.583,0.675,-5.329,-8.466,0.378,-5.382,-4.83,-3.22,2.52
37104.0,-8.662,0.112,-5.264,-8.617,0.62,-5.188,-5.04,-3.78,0.7
,-8.861,0.084,-5.367,-8.648,0.766,-5.437,-2.31,-5.18,0.49
,-8.667,0.376,-5.437,-8.591,0.634,-5.207,-0.42,-6.86,0.42
,-8.437,0.591,-5.434,-8.526,0.725,-5.154,0.77,-7.42,0.63
37180.0,-8.43,0.806,-5.15,-8.684,0.514,-4.688,0.21,-10.43,-0.35
,-8.315,0.873,-5.109,-8.571,0.51,-4.738,-0.14,-10.43,-0.35
,-8.502,0.713,-4.824,-8.638,0.517,-4.69,-0.56,-10.43,-0.63
,-8.739,0.534,-4.752,-8.622,0.526,-4.745,-1.12,-10.78,-0.63
37256.0,-8.686,0.625,-4.673,-8.748,0.634,-4.503,4.2,-9.31,-0.35
,-8.732,0.704,-4.748,-8.851,0.589,-4.652,5.6,-9.8,-0.84
,-8.684,0.749,-4.63,-8.696,0.014,-4.451,6.02,-9.66,-1.26
,-8.619,0.735,-4.561,-8.794,0.172,-4.602,6.02,-9.45,-1.82
37331.0,-8.454,0.323,-4.714,-8.71,0.637,-4.441,0.91,-10.71,-1.26
,-8.433,0.447,-4.582,-8.772,0.682,-4.413,0.91,-10.5,-1.26
,-8.612,0.483,-4.53,-8.969,0.558,-4.398,1.19,-10.5,-1.05
,-8.746,0.546,-4.523,-8.985,0.548,-4.372,2.38,-9.87,-0.56
37407.0,-8.842,0.567,-4.386,-8.722,0.912,-4.302,9.52,-8.75,-0.49
,-8.739,0.565,-4.312,-8.868,0.809,-4.271,9.38,-8.82,-1.05
,-8.76,0.708,-4.178,-8.77,0.637,-4.276,6.72,-9.24,-2.1
,-8.614,1.039,-4.295,-8.844,0.488,-4.283,4.55,-9.38,-2.66
37482.0,-8.851,0.491,-4.259,-8.99,0.459,-4.013,-0.21,-7.7,-3.43
,-8.789,0.455,-4.188,-9.024,0.675,-4.097,1.26,-7.28,-3.22
,-8.825,0.416,-4.116,-8.985,0.775,-4.331,2.45,-6.79,-2.8
,-8.897,0.239,-3.936,-8.863,0.842,-4.319,4.06,-6.16,-2.52
37558.0,-8.756,0.68,-4.066,-8.739,-0.026,-4.008,0.7,-5.46,-3.57
,-8.863,0.328,-4.207,-9.005,-0.151,-3.855,-1.12,-5.6,-4.2
,-8.906,0.105,-4.185,-9.079,0.151,-3.932,-1.68,-5.67,-4.62
,-8.775,-0.026,-4.008,-8.923,0.543,-4.073,-0.91,-5.18,-3.99
37634.0,-8.875,0.596,-4.073,-9.086,0.098,-3.798,2.52,-4.27,-2.38
,-9.002,0.392,-3.898,-9.117,0.249,-3.616,0.49,-3.43,-2.52
,-9.0,0.187,-4.025,-9.093,0.577,-3.853,0.07,-2.66,-2.45
,-8.94,0.101,-3.769,-8.997,0.651,-4.264,0.91,-2.1,-2.17
37710.0,-8.997,0.483,-4.379,-9.048,0.158,-4.111,-2.03,-1.75,-2.66
,-8.844,0.258,-4.274,-9.074,0.462,-4.195,-2.24,-1.68,-2.24
,-8.665,0.237,-4.468,-9.067,0.61,-4.149,-0.7,-1.4,-2.03
,-8.837,0.184,-4.281,-9.007,0.476,-4.14,1.54,-1.19,-1.82
37785.0,-8.949,0.153,-4.288,-9.024,0.096,-4.125,-1.26,-2.52,-1.61
,-8.911,-0.079,-4.243,-9.038,0.419,-4.168,-0.35,-2.52,-1.05
,-8.942,-0.182,-4.13,-8.981,0.529,-4.487,1.54,-2.31,-0.35
,-8.993,-0.244,-4.121,-8.923,0.4,-4.513,3.57,-2.31,0.21
37861.0,-8.981,0.17,-4.326,-9.11,1.156,-4.326,1.75,-3.78,0.63
,-8.933,0.268,-4.317,-9.036,0.771,-3.75,3.71,-3.78,0.84
,-8.969,0.615,-4.207,-9.165,0.373,-3.532,5.95,-4.2,0.14
,-9.095,1.125,-4.439,-9.16,0.215,-3.743,6.09,-4.62,-0.91
37937.0,-9.098,0.495,-3.841,-8.88,0.043,-4.338,0.91,-4.06,-2.31
,-9.15,0.584,-4.314,-8.945,-0.151,-3.994,-0.21,-4.83,-3.15
,-8.93,0.5,-4.439,-9.031,-0.081,-3.845,-0.91,-5.53,-3.43
,-8.93,0.321,-4.472,-9.15,-0.115,-3.616,-0.56,-5.6,-3.29
38013.0,-9.227,-0.045,-3.666,-8.966,0.627,-3.912,2.1,-4.69,-1.96
,-9.189,0.156,-3.719,-9.076,0.457,-3.716,3.01,-4.69,-1.89
,-9.024,0.416,-3.862,-9.21,0.203,-3.558,3.78,-4.41,-1.89
,-8.911,0.656,-3.994,-9.256,0.086,-3.642,4.13,-4.62,-2.17
38089.0,-9.165,0.014,-3.489,-9.067,-0.388,-2.998,2.17,-2.8,-2.24
,-9.15,0.208,-3.707,-9.194,-0.323,-3.032,2.31,-2.66,-2.31
,-9.036,0.144,-3.58,-9.273,-0.077,-3.235,1.54,-2.38,-2.52
,-9.012,-0.057,-3.183,-9.21,0.196,-3.417,0.35,-1.19,-1.82
38164.0,-9.158,0.306,-3.534,-8.971,0.704,-4.556,1.4,2.31,-0.14
,-9.165,0.294,-3.841,-8.942,0.268,-4.441,0.63,2.45,-0.42
,-9.143,0.44,-4.092,-9.005,-0.292,-3.932,0.42,1.96,-0.84
,-9.043,0.747,-4.511,-9.122,-0.601,-3.534,0.28,1.47,-1.47
38240.0,-9.304,-0.302,-3.577,-9.002,0.469,-4.334,5.25,1.47,0.42
,-9.311,0.168,-3.683,-8.94,0.373,-4.271,6.16,1.26,0.35
,-9.17,0.471,-3.874,-9.038,0.194,-3.934,4.48,1.05,-0.07
,-9.043,0.44,-3.987,-9.153,0.014,-3.692,2.45,1.12,-0.21
38315.0,-9.301,0.115,-3.604,-9.134,-0.101,-3.391,5.11,0.56,0.07
,-9.316,0.141,-3.556,-9.208,-0.117,-3.403,4.83,0.63,0.0
,-9.162,0.156,-3.467,-9.186,0.127,-3.458,3.57,0.98,-0.14
,-9.081,0.108,-3.565,-9.141,0.333,-3.542,3.22,1.61,0.07
38391.0,-9.072,0.361,-3.563,-9.117,0.354,-4.159,2.45,4.2,0.35
,-9.048,0.16,-3.441,-9.067,0.342,-4.245,1.26,4.55,0.49
,-9.143,0.06,-3.733,-8.993,0.165,-4.204,1.68,4.76,0.7
,-9.174,0.168,-3.896,-9.045,-0.041,-3.896,2.87,4.83,0.84
38467.0,-9.088,-0.014,-3.798,-9.069,0.218,-4.142,5.11,4.55,1.61
,-9.153,0.108,-3.613,-8.959,0.055,-4.149,5.25,4.62,1.54
,-9.213,0.261,-3.743,-8.981,0.01,-4.255,3.99,4.41,1.05
,-9.155,0.304,-3.934,-9.048,0.05,-4.221,2.03,4.06,0.56
38543.0,-9.083,0.144,-4.269,-9.024,0.493,-4.508,3.36,3.08,1.54
,-9.105,0.29,-4.616,-9.091,0.407,-4.341,3.57,2.52,1.33
,-8.971,0.292,-4.527,-9.11,0.191,-4.121,3.71,1.82,1.19
,-8.971,0.345,-4.542,-9.155,0.043,-3.879,3.99,1.19,1.19
38618.0,-9.22,0.117,-3.788,-8.926,0.302,-4.252,5.25,-0.7,0.84
