Timestamp,AccX,AccY,AccZ,GyroX,GyroY,GyroZ,MagnX,MagnY,MagnZ
0.0,-9.323,-0.821,-3.285,-9.371,-0.804,-3.247,2.73,1.12,0.56
,-9.359,-0.871,-3.264,-9.363,-0.828,-3.221,3.01,1.19,0.63
,-9.354,-0.835,-3.259,-9.33,-0.847,-3.223,3.15,1.12,0.7
,-9.373,-0.878,-3.202,-9.361,-0.847,-3.235,3.01,1.05,0.77
76.0,-9.34,-0.869,-3.171,-9.378,-0.852,-3.154,3.08,0.98,0.7
,-9.347,-0.835,-3.173,-9.392,-0.83,-3.173,3.08,0.98,0.7
,-9.383,-0.835,-3.175,-9.354,-0.861,-3.123,2.87,0.91,0.7
,-9.356,-0.854,-3.132,-9.39,-0.866,-3.132,2.87,1.26,0.84
152.0,-9.347,-0.859,-3.168,-9.342,-0.818,-3.192,2.31,1.33,0.63
,-9.313,-0.873,-3.183,-9.328,-0.84,-3.218,2.45,1.47,0.7
,-9.325,-0.852,-3.235,-9.337,-0.854,-3.197,2.66,1.54,0.7
,-9.395,-0.854,-3.149,-9.347,-0.828,-3.221,2.8,1.47,0.84
227.0,-9.332,-0.83,-3.135,-9.313,-0.866,-3.171,2.45,1.26,0.7
,-9.366,-0.849,-3.183,-9.311,-0.885,-3.254,2.38,1.4,0.77
,-9.407,-0.828,-3.192,-9.378,-0.876,-3.288,2.24,1.47,0.56
,-9.363,-0.861,-3.175,-9.356,-0.866,-3.324,2.03,1.4,0.56
302.0,-9.332,-0.838,-3.283,-9.383,-0.828,-3.238,2.45,1.12,0.63
,-9.318,-0.869,-3.235,-9.359,-0.888,-3.238,2.59,1.26,0.77
,-9.292,-0.866,-3.19,-9.347,-0.823,-3.264,2.66,1.19,0.63
,-9.32,-0.859,-3.168,-9.342,-0.878,-3.259,2.59,1.33,0.7
378.0,-9.361,-0.828,-3.242,-9.39,-0.986,-3.245,3.29,1.19,0.91
,-9.397,-0.818,-3.206,-9.33,-0.737,-3.187,3.15,1.19,0.84
,-9.349,-0.854,-3.178,-9.397,-0.696,-3.106,2.66,0.98,0.7
,-9.313,-0.9,-3.101,-9.359,-0.799,-3.096,2.73,1.26,0.91
454.0,-9.421,-0.806,-3.113,-9.344,-0.833,-3.19,1.89,1.33,0.63
,-9.409,-0.826,-3.123,-9.342,-0.814,-3.235,1.96,1.4,0.49
,-9.335,-0.883,-3.096,-9.332,-0.835,-3.302,1.96,1.61,0.42
,-9.402,-0.943,-3.084,-9.313,-0.893,-3.285,2.45,1.82,0.56
530.0,-9.335,-0.857,-3.314,-9.368,-0.811,-3.211,2.17,1.61,0.56
,-9.366,-0.806,-3.293,-9.361,-0.838,-3.199,2.52,1.47,0.63
,-9.318,-0.833,-3.326,-9.359,-0.823,-3.209,2.87,1.33,0.63
,-9.363,-0.802,-3.214,-9.354,-0.869,-3.252,3.08,1.47,0.77
605.0,-9.34,-0.881,-3.216,-9.385,-0.893,-3.202,2.94,1.26,0.7
,-9.356,-0.866,-3.18,-9.395,-0.852,-3.137,3.01,1.19,0.77
,-9.375,-0.845,-3.226,-9.344,-0.835,-3.128,3.08,1.19,0.7
,-9.368,-0.79,-3.151,-9.371,-0.864,-3.147,2.87,1.12,0.63
681.0,-9.38,-0.888,-3.192,-9.349,-0.828,-3.24,2.8,1.19,0.63
,-9.371,-0.861,-3.187,-9.359,-0.806,-3.235,2.59,1.26,0.56
,-9.332,-0.857,-3.168,-9.335,-0.854,-3.185,2.38,1.33,0.49
,-9.33,-0.897,-3.204,-9.373,-0.845,-3.178,2.38,1.33,0.56
757.0,-9.347,-0.83,-3.202,-9.363,-0.873,-3.144,2.52,1.4,0.77
,-9.359,-0.785,-3.187,-9.373,-0.866,-3.19,2.38,1.26,0.63
,-9.385,-0.838,-3.151,-9.33,-0.878,-3.19,2.24,1.26,0.63
,-9.318,-0.878,-3.171,-9.246,-0.84,-3.18,2.45,1.47,0.7
833.0,-9.34,-0.847,-3.185,-9.368,-0.885,-3.183,2.17,1.54,0.63
,-9.383,-0.859,-3.216,-9.354,-0.849,-3.195,2.03,1.54,0.56
,-9.407,-0.857,-3.183,-9.366,-0.847,-3.197,2.1,1.68,0.56
,-9.363,-0.902,-3.185,-9.383,-0.885,-3.273,2.24,1.68,0.7
909.0,-9.342,-0.871,-3.252,-9.311,-0.83,-3.269,2.52,1.75,0.77
,-9.34,-0.878,-3.285,-9.371,-0.873,-3.25,2.8,1.82,0.84
,-9.292,-0.818,-3.293,-9.318,-0.852,-3.173,3.22,1.68,0.84
,-9.292,-0.818,-3.321,-9.328,-0.816,-3.139,3.08,1.54,0.84
984.0,-9.414,-0.823,-3.137,-9.366,-0.905,-3.171,2.66,1.4,0.77
,-9.363,-0.794,-3.089,-9.318,-0.89,-3.18,2.31,1.61,0.77
,-9.375,-0.847,-3.104,-9.304,-0.888,-3.197,1.96,1.61,0.7
,-9.363,-0.907,-3.178,-9.33,-0.842,-3.223,1.96,1.54,0.7
1060.0,-9.313,-0.845,-3.238,-9.313,-0.826,-3.29,2.31,1.82,0.77
,-9.351,-0.854,-3.23,-9.337,-0.857,-3.288,2.17,1.68,0.77
,-9.33,-0.828,-3.269,-9.39,-0.864,-3.309,2.17,1.61,0.7
,-9.316,-0.842,-3.228,-9.351,-0.897,-3.271,2.17,1.47,0.7
1135.0,-9.373,-0.876,-3.262,-9.351,-0.842,-3.046,2.45,1.26,0.84
,-9.33,-0.871,-3.238,-9.373,-0.866,-3.061,2.31,1.19,0.84
,-9.332,-0.912,-3.216,-9.392,-0.864,-3.041,2.38,1.12,0.84
,-9.32,-0.9,-3.075,-9.287,-0.914,-3.108,2.24,1.26,0.84
1211.0,-9.33,-0.845,-3.123,-9.318,-0.945,-2.979,0.21,1.54,0.56
,-9.351,-0.727,-3.367,-9.354,-0.89,-3.221,1.33,1.54,0.63
,-9.287,-0.797,-3.175,-9.349,-0.833,-3.29,1.12,1.96,0.77
,-9.287,-0.826,-3.187,-9.344,-0.828,-3.364,1.12,2.17,0.91
1287.0,-9.301,-0.809,-3.3,-9.366,-0.782,-3.132,2.1,1.75,0.77
,-9.337,-0.828,-3.269,-9.325,-0.751,-3.017,1.82,1.75,0.7
,-9.34,-0.833,-3.058,-9.323,-0.869,-3.001,1.61,1.96,0.49
,-9.392,-0.799,-3.173,-9.402,-0.818,-2.994,1.05,1.82,0.28
1363.0,-9.39,-0.84,-2.984,-9.38,-0.68,-2.994,0.7,2.38,0.35
,-9.43,-0.897,-3.087,-9.5,-0.586,-3.046,0.77,2.87,0.49
,-9.363,-0.931,-2.95,-9.397,-0.804,-3.017,1.19,3.15,0.7
,-9.306,-0.89,-2.953,-9.335,-0.881,-3.075,1.68,3.5,0.77
1438.0,-9.332,-0.909,-3.238,-9.335,-0.78,-3.587,-2.17,3.92,-0.42
,-9.361,-0.873,-3.352,-9.342,-0.823,-3.695,-1.89,3.71,-0.49
,-9.316,-0.766,-3.475,-9.287,-0.84,-3.726,-1.68,3.57,-0.42
,-9.33,-0.727,-3.563,-9.258,-0.826,-3.745,-1.47,3.29,-0.49
1514.0,-9.229,-0.849,-3.738,-9.244,-0.778,-3.762,-0.42,1.12,-0.35
,-9.28,-0.847,-3.743,-9.261,-0.737,-3.707,0.07,0.98,-0.14
,-9.275,-0.84,-3.788,-9.263,-0.761,-3.673,0.7,0.35,0.0
,-9.253,-0.833,-3.781,-9.292,-0.871,-3.599,1.68,-0.21,0.14
1590.0,-9.342,-0.849,-3.647,-9.287,-0.811,-3.518,4.41,-2.52,0.7
,-9.316,-0.838,-3.594,-9.318,-0.833,-3.491,5.11,-2.87,0.77
,-9.342,-0.814,-3.582,-9.342,-0.804,-3.352,5.46,-3.43,0.77
,-9.308,-0.816,-3.577,-9.325,-0.909,-3.238,5.95,-3.71,0.84
1666.0,-9.311,-0.902,-3.108,-9.409,-0.799,-2.91,6.23,-4.55,0.98
,-9.347,-0.873,-2.994,-9.397,-0.792,-2.927,6.44,-4.27,1.12
,-9.414,-0.79,-2.891,-9.373,-0.833,-3.046,5.81,-4.27,0.98
,-9.45,-0.737,-2.881,-9.316,-0.876,-3.077,4.48,-4.41,0.63
1741.0,-9.27,-0.926,-3.02,-9.454,-0.785,-2.972,-1.12,-4.27,-0.21
,-9.363,-0.897,-2.972,-9.347,-0.835,-2.948,-0.91,-3.92,0.07
,-9.44,-0.845,-2.936,-9.342,-0.931,-2.929,-0.91,-3.78,-0.14
,-9.474,-0.794,-2.943,-9.399,-0.964,-2.982,-1.33,-3.78,-0.28
1817.0,-9.395,-1.036,-3.02,-9.452,-0.799,-2.45,-0.42,-2.94,0.49
,-9.351,-1.01,-2.809,-9.45,-0.629,-2.522,0.7,-2.45,1.12
,-9.347,-1.024,-2.615,-9.399,-0.591,-2.692,1.75,-1.68,1.61
,-9.402,-0.936,-2.558,-9.423,-0.723,-2.716,2.31,-1.33,1.54
1893.0,-9.316,-0.909,-2.694,-9.485,-1.036,-2.369,-5.04,0.14,0.56
,-9.249,-1.058,-2.582,-9.426,-1.034,-2.048,-3.92,1.05,1.12
,-9.306,-1.12,-2.529,-9.679,-0.919,-2.434,-1.82,1.89,1.61
,-9.373,-1.077,-2.364,-9.452,-0.785,-2.551,0.91,3.01,2.17
1968.0,-9.332,-0.639,-3.044,-9.335,-0.981,-2.783,7.07,5.95,4.06
,-9.062,-0.684,-3.168,-9.459,-1.043,-2.292,6.09,6.09,4.2
,-9.048,-0.847,-3.058,-9.694,-0.759,-2.173,5.67,6.37,4.55
,-9.225,-0.969,-2.922,-9.605,-0.541,-2.532,6.37,6.72,4.55
2044.0,-9.313,-0.5,-2.316,-9.483,-0.933,-3.752,3.64,8.96,2.87
,-9.39,-0.416,-2.168,-9.098,-0.933,-3.905,2.8,9.73,3.43
,-9.409,-0.668,-2.517,-9.098,-0.833,-3.824,1.68,9.31,3.22
,-9.383,-0.663,-3.128,-9.241,-0.785,-3.647,1.4,9.03,3.43
2120.0,-9.232,-0.555,-3.269,-9.378,0.077,-3.216,8.47,6.23,2.17
,-9.497,-0.522,-3.125,-9.56,-0.127,-3.161,9.1,6.09,1.82
,-9.299,-0.369,-2.391,-9.081,-0.689,-3.388,9.45,5.81,2.1
,-9.962,-0.005,-2.893,-9.325,-1.077,-2.91,8.4,3.71,1.61
2196.0,-9.179,-1.041,-3.07,-9.294,-0.632,-2.352,-1.89,5.11,0.49
,-9.131,-1.062,-3.01,-9.196,-0.67,-2.857,-0.14,5.18,0.49
,-9.158,-0.981,-3.005,-9.237,-0.766,-2.702,0.49,6.86,0.7
,-9.457,-0.921,-2.465,-9.608,-0.747,-2.924,-0.35,9.73,0.84
2271.0,-9.344,-0.591,-3.379,-9.024,-0.964,-3.714,-6.09,9.31,-0.28
,-9.21,-0.665,-3.252,-9.177,-1.467,-3.477,-5.95,10.15,0.28
,-9.069,-0.56,-3.659,-9.158,-1.759,-3.398,-4.83,10.43,0.14
,-8.921,-0.538,-3.932,-9.141,-1.862,-3.044,-3.92,11.2,0.07
2347.0,-9.127,-1.706,-3.338,-9.177,0.014,-3.941,13.37,16.66,4.62
,-9.107,-1.469,-3.575,-9.16,0.45,-4.312,15.89,16.1,5.04
,-9.418,-1.017,-3.75,-9.081,0.263,-3.936,17.22,15.05,5.53
,-9.203,-0.447,-4.018,-9.002,-0.132,-3.912,16.17,14.49,5.39
2423.0,-8.923,-0.641,-3.594,-9.39,-1.338,-3.228,-3.99,13.3,1.89
,-9.028,-1.074,-2.994,-9.304,-1.146,-3.228,-3.92,14.42,2.24
,-9.249,-1.201,-3.084,-9.136,-0.871,-3.381,-1.12,15.4,2.66
,-9.284,-1.362,-3.063,-9.04,-0.507,-3.618,2.1,16.45,3.36
2499.0,-8.902,-0.225,-3.951,-8.954,0.263,-3.994,9.8,15.68,4.41
,-9.038,-0.081,-4.075,-9.024,-0.065,-3.946,6.51,14.21,4.2
,-8.988,0.132,-4.178,-8.952,-0.369,-3.75,3.15,13.79,3.01
,-8.815,0.191,-4.214,-9.04,-0.742,-3.458,0.35,14.49,1.47
2574.0,-9.328,-0.787,-3.25,-8.737,-0.632,-4.19,-5.18,17.43,-0.63
,-9.258,-0.711,-3.613,-8.83,-0.469,-4.056,-3.08,17.29,-0.49
,-9.153,-0.665,-3.843,-8.82,-0.179,-4.271,-2.1,16.59,-0.35
,-9.093,-0.531,-4.075,-9.026,0.237,-4.621,-0.77,15.26,-0.07
2650.0,-9.215,0.718,-4.793,-8.784,-0.287,-4.566,0.77,14.84,-4.55
,-9.237,0.747,-4.764,-8.715,-0.873,-4.616,-2.31,13.93,-5.74
,-9.064,0.536,-4.599,-8.808,-1.443,-4.59,-7.7,13.09,-6.23
,-9.007,0.026,-4.393,-8.854,-2.02,-4.767,-13.72,12.67,-6.02
2725.0,-8.902,-2.419,-4.972,-8.744,-2.639,-4.915,-10.36,10.99,1.68
,-8.715,-2.9,-5.08,-9.074,-1.979,-4.714,-7.35,10.43,5.11
,-8.471,-3.084,-5.106,-9.06,-1.228,-4.48,-3.85,10.01,7.7
,-8.469,-2.871,-5.341,-9.127,-0.464,-4.357,0.56,9.73,9.94
2801.0,-9.06,0.199,-4.556,-9.043,0.921,-4.946,3.64,7.35,10.78
,-9.069,0.828,-4.336,-8.311,-0.141,-4.434,-1.61,5.6,9.66
,-8.677,1.158,-4.783,-8.849,-0.742,-4.329,-5.81,5.04,8.61
,-8.626,1.067,-4.692,-8.885,-1.084,-4.25,-9.45,5.67,7.35
2877.0,-9.17,-1.074,-4.245,-8.961,0.849,-5.13,4.13,7.98,6.3
,-9.007,-0.928,-4.286,-8.399,1.048,-5.446,10.99,7.28,4.55
,-9.081,-0.524,-4.293,-8.466,0.725,-5.473,16.31,7.07,3.43
,-8.923,-0.022,-4.566,-8.425,0.043,-5.267,20.02,6.65,1.89
2953.0,-8.775,-1.067,-4.602,-9.019,-1.134,-4.252,-4.27,5.6,0.0
,-9.217,-1.376,-4.415,-8.964,-0.809,-4.743,-3.29,6.37,1.19
,-8.772,-1.675,-4.353,-8.753,-0.778,-4.879,0.7,6.23,0.7
,-9.153,-1.508,-4.334,-8.65,-0.749,-4.822,4.76,5.04,1.05
3029.0,-8.72,-0.677,-4.745,-8.653,-1.194,-4.776,11.9,3.36,1.33
,-8.871,-0.672,-4.915,-8.794,-1.134,-4.628,11.27,3.22,2.52
,-8.796,-0.95,-4.865,-8.607,-1.005,-4.544,9.87,3.57,3.64
,-8.488,-1.082,-4.862,-9.115,-0.754,-4.393,9.73,3.57,5.39
3104.0,-8.894,-0.522,-4.733,-8.794,-0.12,-4.475,12.32,0.28,6.37
,-8.961,-0.28,-4.774,-8.569,-0.043,-4.262,11.97,-0.77,6.51
,-9.127,-0.158,-4.697,-8.705,0.263,-4.604,10.36,-0.77,7.35
,-8.871,-0.134,-4.475,-8.583,0.397,-4.877,8.12,-0.56,8.19
3180.0,-8.559,0.175,-4.657,-8.973,0.306,-4.401,6.16,0.91,6.16
,-8.804,-0.002,-4.463,-8.811,0.584,-4.635,5.53,1.47,6.44
,-8.753,-0.112,-4.58,-8.847,0.505,-4.573,5.88,1.89,7.07
,-8.938,-0.072,-4.369,-9.057,0.67,-4.836,7.42,2.52,7.56
3256.0,-8.894,0.043,-4.688,-8.488,-1.024,-4.716,-0.28,1.75,0.63
,-8.708,-0.134,-4.913,-8.641,-0.718,-4.963,-0.84,1.75,0.0
,-8.72,-0.522,-4.922,-8.787,-0.562,-4.977,-2.24,2.17,0.56
,-8.758,-0.842,-4.57,-8.686,-0.814,-5.059,-2.66,2.66,0.91
3332.0,-8.894,-0.974,-4.896,-8.375,-0.637,-4.8,2.31,2.38,1.47
,-9.074,-1.18,-4.736,-8.547,-0.428,-5.133,3.92,2.45,1.33
,-8.954,-1.146,-4.568,-8.887,-0.424,-5.018,5.39,2.38,2.03
,-8.595,-0.993,-4.738,-9.028,-0.507,-4.951,6.23,2.31,3.15
3407.0,-8.839,-0.663,-4.812,-8.614,-0.546,-4.637,4.62,4.06,4.27
,-8.662,-0.491,-4.999,-8.502,-0.531,-4.712,6.86,4.48,3.99
,-8.787,-0.299,-5.049,-8.617,-0.495,-4.719,7.0,4.83,3.85
,-8.804,-0.4,-4.898,-8.78,-0.378,-4.829,5.67,5.46,4.41
3483.0,-9.028,-0.436,-4.927,-8.607,0.555,-4.791,1.96,7.28,6.3
,-9.131,-0.474,-4.893,-8.636,0.873,-5.092,1.33,7.42,6.44
,-9.024,-0.421,-4.676,-8.868,1.039,-5.061,1.4,7.7,6.44
,-8.693,-0.117,-4.726,-9.124,0.711,-5.066,2.94,7.7,5.74
3558.0,-9.342,0.577,-4.908,-8.662,-0.115,-4.953,-6.44,5.32,0.35
,-9.06,0.373,-4.831,-8.617,-0.421,-4.984,-7.14,4.48,-0.28
,-8.808,0.041,-4.63,-8.806,-0.5,-4.745,-7.35,4.06,-0.91
,-8.643,-0.165,-4.702,-8.818,-0.574,-4.934,-7.49,3.71,-1.12
3634.0,-8.88,-0.737,-4.927,-8.686,-0.656,-4.898,-2.52,1.68,-0.28
,-8.784,-0.73,-5.083,-8.483,-0.581,-5.042,-2.38,2.1,0.28
,-8.715,-0.715,-5.106,-8.588,-0.39,-5.099,-2.31,2.52,0.63
,-8.677,-0.859,-4.776,-8.579,-0.311,-5.083,-3.64,2.31,1.12
3710.0,-8.844,-0.184,-5.075,-8.646,-0.019,-5.138,-2.45,0.14,2.87
,-8.928,-0.101,-5.178,-8.571,-0.053,-5.152,-1.75,-0.07,2.24
,-9.045,-0.127,-4.901,-8.674,0.223,-5.592,-2.03,-0.63,1.05
,-8.993,-0.074,-4.929,-8.875,-0.189,-5.068,-0.98,-2.73,0.21
3786.0,-8.868,-0.203,-5.133,-9.045,-0.318,-4.8,8.12,-4.55,-3.99
,-8.973,-0.333,-5.049,-8.423,-0.218,-4.977,8.82,-3.99,-4.69
,-8.918,-0.388,-5.389,-8.289,-0.23,-4.886,9.17,-3.71,-5.46
,-8.849,-0.689,-4.671,-8.349,0.062,-4.965,9.24,-3.57,-5.81
3861.0,-8.61,-0.019,-4.774,-8.832,-0.622,-4.566,6.51,-7.63,-2.52
,-9.045,-0.242,-4.671,-8.772,-0.711,-4.606,4.48,-8.19,-2.31
,-9.299,-0.364,-4.592,-8.811,-0.692,-4.611,4.27,-8.05,-2.94
,-9.155,-0.459,-4.57,-8.985,-0.737,-4.506,5.18,-7.07,-3.57
3937.0,-8.595,-0.424,-4.982,-8.988,-0.237,-4.465,13.16,-7.77,-0.49
,-8.244,-0.505,-4.743,-9.134,0.043,-4.513,12.88,-7.35,0.35
,-8.397,-0.558,-4.587,-8.763,-0.057,-4.659,12.53,-7.0,0.77
,-8.689,-0.522,-4.432,-8.603,-0.17,-4.573,12.46,-7.35,1.05
4012.0,-8.746,-0.586,-4.302,-8.839,-0.055,-4.235,0.7,-13.02,1.96
,-8.782,-0.383,-4.279,-8.926,-0.177,-4.238,2.17,-13.23,1.75
,-8.827,-0.263,-4.262,-8.851,-0.309,-4.283,3.15,-13.79,1.54
,-8.741,-0.084,-4.31,-8.875,-0.089,-4.625,4.13,-12.81,2.1
4088.0,-8.878,-0.141,-4.451,-9.347,-0.254,-4.022,6.44,-8.82,-0.98
,-8.849,-0.022,-4.417,-8.923,-0.208,-4.228,5.95,-8.54,-0.91
,-8.804,-0.129,-4.41,-8.842,-0.191,-4.161,5.39,-8.05,-0.77
,-8.985,-0.246,-4.166,-8.911,-0.053,-4.506,4.62,-7.91,-1.05
4164.0,-8.935,-0.321,-4.295,-8.899,-0.684,-4.204,-2.59,-13.44,-3.08
,-9.129,-0.263,-4.109,-8.799,-0.555,-4.2,-2.03,-12.81,-3.36
,-8.928,-0.596,-4.046,-9.043,-0.591,-3.987,-2.31,-11.9,-3.5
,-8.976,-0.656,-4.202,-9.363,-0.51,-3.924,-0.14,-10.78,-3.43
4240.0,-9.529,-0.514,-3.862,-8.763,-0.962,-3.599,6.3,-9.31,-3.5
,-9.495,-0.357,-3.817,-8.899,-0.778,-3.778,4.2,-9.73,-3.08
,-8.954,-0.433,-3.745,-9.048,-0.773,-3.702,1.54,-9.59,-1.96
,-8.66,-0.792,-3.611,-8.993,-0.646,-3.8,0.56,-8.89,-1.61
4316.0,-8.959,-0.553,-3.972,-9.308,-0.45,-3.104,6.72,-10.78,0.49
,-9.045,-0.522,-4.14,-9.423,-0.328,-2.752,8.26,-10.85,0.42
,-8.945,-0.572,-4.168,-9.56,-0.165,-3.104,9.17,-10.5,0.35
,-8.909,-0.538,-3.568,-9.328,0.026,-3.218,11.34,-8.68,0.91
4391.0,-9.213,-0.101,-3.36,-9.229,0.038,-3.458,3.92,-9.66,-0.49
,-9.148,-0.318,-3.381,-9.182,-0.235,-3.475,2.17,-9.45,-0.84
,-9.208,-0.292,-3.271,-9.055,-0.57,-3.376,2.38,-8.89,-1.82
,-9.225,-0.081,-3.343,-9.031,-0.895,-3.422,3.64,-8.33,-2.66
4467.0,-9.191,-1.182,-3.269,-9.373,-0.38,-3.247,2.66,-7.35,-3.15
,-9.371,-1.139,-3.065,-9.098,-0.134,-3.52,5.6,-6.37,-2.31
,-9.349,-1.0,-2.785,-9.129,-0.268,-3.388,7.98,-4.9,-1.68
,-9.428,-0.711,-2.577,-9.225,-0.79,-3.381,9.52,-4.06,-1.26
4543.0,-9.172,-1.161,-3.206,-9.289,-0.045,-3.333,1.54,-4.13,-1.68
,-9.21,-0.924,-3.159,-9.316,-0.184,-2.91,7.21,-3.15,-1.12
,-9.316,-0.5,-3.264,-9.485,-0.445,-2.948,10.15,-3.15,-0.98
,-9.361,-0.215,-3.36,-9.395,-0.548,-3.118,8.82,-3.85,-1.19
4619.0,-9.337,-0.33,-3.254,-9.258,-0.562,-3.924,5.25,-2.1,-2.59
,-9.299,-0.158,-3.731,-9.134,-0.773,-3.644,3.92,-3.22,-3.43
,-9.095,-0.273,-3.644,-9.203,-0.763,-3.927,2.24,-3.08,-3.5
,-9.239,-0.412,-3.814,-9.15,-0.873,-3.963,2.94,-2.94,-3.36
4694.0,-9.117,-1.048,-3.798,-9.442,-0.591,-3.142,4.9,-4.97,-3.08
,-9.057,-0.969,-3.436,-9.232,-0.725,-2.871,6.72,-4.69,-2.52
,-9.16,-0.725,-3.233,-9.28,-0.857,-3.029,7.98,-4.55,-2.66
,-9.375,-0.622,-3.151,-9.263,-0.912,-3.063,7.49,-4.69,-2.94
4770.0,-9.155,-0.723,-3.027,-9.385,-0.873,-2.462,4.76,-3.99,-1.96
,-9.256,-0.687,-2.84,-9.474,-0.715,-2.565,4.83,-3.08,-1.61
,-9.292,-0.778,-2.57,-9.533,-0.651,-2.764,4.41,-2.17,-1.68
,-9.414,-0.811,-2.635,-9.44,-0.718,-2.95,4.69,-1.47,-1.61
4845.0,-9.354,-0.727,-3.214,-9.304,-1.041,-2.903,-0.14,0.07,-1.89
,-9.215,-0.775,-3.257,-9.442,-0.936,-2.891,0.0,0.63,-1.82
,-9.225,-0.802,-3.238,-9.526,-0.83,-3.223,0.77,1.12,-1.75
,-9.337,-0.943,-3.108,-9.464,-0.749,-3.489,1.54,1.68,-1.68
4921.0,-9.33,-0.83,-3.714,-9.335,-0.928,-3.752,2.31,0.98,-1.12
,-9.091,-0.95,-3.829,-9.308,-0.914,-3.496,1.61,0.84,-1.05
,-9.179,-0.988,-3.929,-9.33,-0.816,-3.221,2.45,0.56,-1.05
,-9.208,-0.979,-3.853,-9.356,-0.768,-3.233,3.57,0.21,-0.77
4997.0,-9.39,-0.759,-3.293,-9.354,-1.022,-3.314,1.96,-1.68,-0.21
,-9.328,-0.756,-3.209,-9.277,-1.024,-3.099,0.35,-1.96,-0.28
,-9.318,-0.845,-3.235,-9.323,-0.993,-3.046,-1.05,-1.96,-0.21
,-9.351,-0.945,-3.415,-9.371,-0.871,-3.051,-1.12,-2.03,-0.07
5073.0,-9.34,-0.83,-3.037,-9.287,-0.909,-2.747,3.64,-1.19,1.26
,-9.363,-0.826,-2.946,-9.407,-0.766,-2.656,3.36,-0.98,1.33
,-9.28,-0.972,-2.919,-9.43,-0.711,-2.592,2.8,-0.77,1.33
,-9.249,-1.024,-2.903,-9.43,-0.689,-2.46,3.5,-0.21,1.47
5149.0,-9.457,-0.675,-2.548,-9.294,-0.756,-3.223,2.59,2.31,1.61
,-9.466,-0.656,-2.819,-9.301,-0.821,-3.195,1.96,2.45,1.33
,-9.371,-0.629,-2.96,-9.385,-0.771,-3.295,1.47,2.87,1.26
,-9.359,-0.689,-3.087,-9.418,-0.768,-3.431,0.98,3.01,1.19
5224.0,-9.313,-0.771,-3.558,-9.359,-0.878,-3.285,0.35,2.59,0.98
,-9.239,-0.852,-3.465,-9.442,-0.763,-3.285,0.14,2.52,1.19
,-9.261,-0.869,-3.491,-9.452,-0.637,-3.204,0.28,2.38,1.19
,-9.265,-0.936,-3.431,-9.399,-0.589,-3.223,1.12,2.52,1.26
5300.0,-9.323,-0.632,-3.19,-9.368,-1.031,-3.101,-0.56,1.4,0.98
,-9.316,-0.773,-3.29,-9.43,-1.089,-2.979,-1.47,1.61,0.7
,-9.299,-0.869,-3.348,-9.512,-0.907,-3.111,-0.91,1.54,0.84
,-9.265,-0.983,-3.23,-9.34,-0.797,-3.262,-0.21,1.68,1.26
5376.0,-9.318,-0.711,-3.329,-9.335,-0.952,-3.139,3.01,1.96,2.17
,-9.308,-0.689,-3.372,-9.28,-0.974,-2.977,2.31,1.89,2.03
,-9.34,-0.794,-3.333,-9.447,-0.864,-3.125,2.03,1.68,1.96
,-9.335,-0.79,-3.338,-9.428,-0.668,-3.242,2.31,1.82,2.03
5452.0,-9.308,-0.498,-3.35,-9.296,-0.847,-2.946,4.83,1.82,2.52
,-9.268,-0.455,-3.352,-9.464,-0.651,-2.759,3.15,1.82,2.1
,-9.203,-0.689,-3.309,-9.497,-0.464,-2.749,1.68,2.24,1.96
,-9.227,-0.9,-3.084,-9.567,-0.321,-3.068,1.89,2.87,2.17
5527.0,-9.38,-0.443,-3.324,-9.313,-0.689,-3.776,0.63,3.57,1.75
,-9.22,-0.73,-3.525,-9.287,-0.61,-3.743,-0.91,3.5,1.75
,-9.232,-0.962,-3.678,-9.273,-0.653,-3.735,-0.14,3.5,1.89
,-9.308,-0.876,-3.819,-9.299,-0.706,-3.759,1.47,3.22,1.75
5603.0,-9.301,-0.692,-3.671,-9.273,-0.735,-3.451,0.28,0.42,1.61
,-9.292,-0.67,-3.721,-9.318,-0.723,-3.35,0.49,-0.14,1.54
,-9.229,-0.751,-3.726,-9.342,-0.689,-3.12,0.42,-0.84,1.47
,-9.122,-0.737,-3.594,-9.373,-0.658,-3.005,0.84,-1.12,1.54
5678.0,-9.308,-0.761,-2.864,-9.43,-0.735,-2.259,0.0,-1.26,1.61
,-9.287,-0.888,-2.771,-9.536,-0.598,-2.462,0.14,-0.77,1.89
,-9.22,-0.938,-2.532,-9.433,-0.493,-2.589,1.47,0.35,2.38
,-9.284,-0.924,-2.295,-9.328,-0.536,-2.795,3.57,1.82,3.01
5754.0,-9.232,-0.605,-2.749,-9.21,-0.538,-2.627,3.22,5.88,3.85
,-9.323,-0.737,-2.699,-9.208,-0.421,-2.709,4.41,7.07,3.99
,-9.299,-0.672,-2.793,-9.392,-0.345,-2.826,5.67,7.77,3.57
,-9.174,-0.701,-2.625,-9.395,-0.318,-2.819,6.37,8.47,3.57
5830.0,-9.34,-0.483,-2.723,-9.648,-0.263,-2.548,3.22,11.27,3.36
,-9.253,-0.644,-2.469,-9.744,-0.096,-3.319,2.87,12.74,3.57
,-9.308,-0.718,-2.139,-9.395,-0.151,-4.192,4.2,14.21,3.5
,-9.557,-0.574,-2.297,-9.158,-0.39,-4.664,5.25,14.77,3.01
5906.0,-8.868,-0.852,-4.815,-9.174,-1.45,-3.503,-11.34,9.24,2.17
,-8.914,-1.218,-4.472,-9.069,-1.548,-2.924,-8.68,10.29,2.45
,-9.009,-1.328,-4.379,-9.442,-1.455,-2.592,-4.55,9.66,2.17
,-9.019,-1.364,-3.869,-9.421,-1.285,-3.008,-0.21,9.8,2.52
5981.0,-9.361,-0.79,-3.408,-8.866,-0.871,-4.326,8.89,7.14,7.56
,-9.323,-0.519,-4.073,-8.93,-0.694,-3.831,7.63,5.32,8.33
,-9.067,-0.555,-4.673,-9.103,-0.201,-3.625,3.99,4.2,8.89
,-8.993,-0.742,-4.7,-9.203,0.141,-3.704,2.59,4.9,9.73
6057.0,-9.277,0.335,-3.52,-9.39,0.105,-2.477,13.58,7.28,5.67
,-9.258,0.321,-2.879,-9.292,0.069,-3.317,10.57,8.89,5.53
,-9.282,0.294,-2.398,-9.43,-0.213,-3.575,7.07,11.13,4.55
,-9.136,0.189,-2.223,-9.375,-0.436,-3.719,4.69,12.74,2.87
6132.0,-8.926,-0.773,-3.453,-9.28,-0.28,-4.673,-7.0,8.89,2.8
,-8.839,-0.727,-3.379,-9.148,-0.256,-4.561,-4.55,10.01,2.1
,-8.77,-0.83,-3.616,-8.861,-0.225,-4.101,-2.17,9.59,1.19
,-8.892,-0.519,-4.357,-8.909,-0.165,-3.731,1.54,9.03,0.84
6208.0,-9.11,-0.115,-3.836,-9.16,-0.237,-3.757,2.73,12.53,-1.54
,-9.268,-0.005,-3.927,-9.301,-0.223,-3.92,1.68,11.34,-1.89
,-9.313,-0.043,-3.975,-9.024,-0.366,-4.168,-0.63,10.85,-1.33
,-9.115,-0.134,-3.905,-8.926,-0.677,-3.987,-2.52,11.55,-1.12
6284.0,-8.677,-1.029,-4.03,-9.062,-0.103,-4.724,-0.56,11.76,-1.19
,-8.772,-1.208,-3.57,-8.77,0.05,-4.716,2.8,13.23,-0.42
,-9.316,-0.95,-3.666,-8.66,-0.038,-4.657,7.98,12.46,-0.49
,-9.258,-0.457,-4.355,-8.952,-0.165,-4.247,10.85,10.29,-1.05
6360.0,-9.1,-0.211,-4.513,-9.1,-0.943,-4.24,2.1,11.27,-1.68
,-8.997,-0.392,-4.527,-9.308,-1.11,-4.204,0.28,11.27,-1.82
,-9.091,-0.629,-4.403,-9.091,-1.173,-4.484,-1.75,11.27,-1.61
,-8.969,-0.84,-4.223,-8.734,-1.318,-4.554,-2.73,11.2,-1.26
6436.0,-8.67,-1.074,-4.527,-9.016,0.117,-4.154,4.2,9.38,1.12
,-8.734,-0.675,-4.353,-9.148,0.206,-4.018,6.23,10.85,0.98
,-8.832,-0.34,-4.135,-9.136,0.182,-4.137,7.35,11.41,0.42
,-9.012,-0.117,-4.094,-9.043,-0.244,-4.228,6.3,11.13,0.14
6511.0,-8.856,-0.62,-4.417,-8.612,-0.57,-4.779,-9.66,7.21,2.1
,-8.854,-0.782,-4.654,-8.646,-0.797,-4.657,-7.28,7.42,1.68
,-8.935,-0.701,-4.702,-8.777,-1.184,-4.436,-2.38,7.35,1.12
,-8.681,-0.593,-4.736,-8.849,-1.682,-4.192,1.33,7.56,0.84
6587.0,-8.899,-2.134,-3.975,-8.902,-0.462,-4.506,-6.51,6.23,8.26
,-8.861,-2.206,-3.999,-8.751,-0.065,-4.757,-3.78,6.51,10.08
,-9.112,-1.661,-4.247,-8.454,0.012,-4.879,0.7,6.09,10.92
,-8.971,-1.06,-4.477,-8.385,-0.136,-5.104,4.34,5.81,10.99
6663.0,-8.837,-0.266,-4.63,-9.275,0.309,-4.066,-6.93,5.11,13.65
,-8.947,-0.268,-4.843,-9.232,0.711,-4.271,-6.16,5.46,14.21
,-8.878,-0.273,-4.398,-8.99,1.378,-4.879,-3.99,6.16,13.86
,-9.079,-0.184,-4.08,-8.447,1.079,-4.826,-0.56,7.14,12.81
6739.0,-8.334,0.457,-4.795,-8.985,-0.737,-4.022,-1.54,4.83,6.09
,-8.485,-0.34,-4.408,-9.258,-0.421,-3.939,-3.99,5.88,7.98
,-8.842,-0.61,-4.448,-9.014,-0.065,-4.082,-2.1,5.74,8.26
,-9.081,-0.751,-4.312,-8.78,0.337,-4.417,2.45,5.67,7.42
6814.0,-8.44,0.814,-5.099,-8.744,-0.732,-4.843,5.95,4.48,-0.7
,-8.057,0.938,-5.669,-8.949,-0.972,-4.556,4.06,4.41,-2.03
,-8.406,0.555,-5.255,-8.866,-0.768,-4.731,-0.21,4.83,-1.61
,-8.658,-0.139,-5.095,-9.117,-0.648,-4.669,-3.85,5.39,-0.49
6890.0,-8.978,-0.526,-4.776,-8.964,0.524,-4.822,4.62,3.29,0.98
,-8.617,-0.785,-4.511,-8.959,0.78,-4.853,4.2,3.15,1.61
,-8.488,-0.605,-4.649,-8.787,0.639,-4.96,4.34,3.99,1.89
,-8.744,-0.091,-4.937,-8.787,0.333,-5.092,6.93,4.06,1.75
6965.0,-8.636,-0.194,-4.8,-9.198,0.23,-4.594,-0.7,4.27,1.89
,-8.887,-0.495,-4.561,-8.765,0.395,-4.834,0.07,4.69,2.31
,-8.811,-0.436,-4.659,-8.658,0.024,-4.831,2.94,4.83,2.45
,-9.045,-0.175,-4.563,-8.619,-0.313,-4.896,5.04,4.97,2.31
7041.0,-8.698,-0.089,-4.891,-8.373,-0.325,-4.836,-1.05,3.71,2.1
,-8.748,0.043,-5.035,-8.684,0.057,-4.903,0.07,4.27,1.26
,-8.765,-0.122,-4.803,-9.062,0.33,-4.958,-0.84,4.27,0.7
,-8.595,-0.292,-4.685,-8.964,0.309,-4.913,-1.89,3.85,0.98
7117.0,-8.756,0.153,-4.951,-8.603,-0.01,-4.96,-0.49,5.39,-0.07
,-8.756,-0.041,-4.96,-8.54,-0.115,-5.023,-0.21,6.3,-0.07
,-8.763,-0.237,-4.831,-8.856,-0.282,-4.908,0.42,7.49,0.42
,-8.799,-0.079,-4.795,-8.744,-0.598,-4.879,0.35,7.98,1.19
7193.0,-8.629,-0.921,-4.901,-8.698,-0.101,-5.157,-3.57,7.0,2.59
,-8.768,-1.012,-4.972,-8.741,0.168,-5.145,-2.38,7.14,3.43
,-8.887,-0.916,-5.013,-8.911,0.246,-5.178,0.56,6.79,4.13
,-8.818,-0.481,-5.15,-8.909,0.376,-5.185,3.29,5.88,4.62
7268.0,-8.863,0.428,-5.279,-8.722,0.225,-5.169,0.28,3.22,4.83
,-8.866,0.337,-5.276,-8.847,0.261,-5.14,-0.49,2.59,4.34
,-8.681,0.378,-5.511,-8.854,0.179,-5.243,-0.35,1.82,3.64
,-8.579,0.395,-5.389,-8.777,0.196,-5.212,-0.21,1.82,2.94
7344.0,-8.811,0.246,-5.138,-8.521,-0.715,-5.126,1.19,-1.05,0.14
,-8.715,0.089,-5.164,-8.634,-0.957,-5.068,-0.35,-3.15,0.7
,-8.366,-0.254,-5.133,-8.722,-0.811,-5.13,-1.47,-3.92,1.33
,-8.366,-0.407,-5.123,-8.796,-0.57,-5.176,-1.61,-3.78,1.61
7420.0,-8.727,-0.464,-5.121,-8.684,-0.419,-5.049,6.86,-3.71,1.82
,-8.717,-0.436,-5.095,-8.729,-0.452,-4.922,6.79,-3.78,1.89
,-8.713,-0.45,-5.023,-8.818,-0.349,-4.573,5.81,-3.22,2.17
,-8.672,-0.426,-5.097,-8.849,-0.158,-4.645,6.02,-2.94,2.66
7496.0,-8.839,0.22,-4.647,-8.662,0.414,-4.551,14.84,-5.67,1.75
,-8.624,0.395,-4.714,-8.756,0.392,-4.503,13.65,-6.65,2.38
,-8.631,0.524,-4.786,-8.811,0.313,-4.501,12.39,-7.07,2.24
,-8.612,0.479,-4.731,-8.796,0.287,-4.477,11.41,-6.65,2.03
7572.0,-8.832,0.246,-4.554,-8.641,0.201,-4.642,11.41,-4.62,0.21
,-8.806,0.196,-4.578,-8.509,-0.168,-4.594,11.83,-4.55,-0.14
,-8.815,0.316,-4.592,-8.701,-0.476,-4.305,13.02,-4.69,-1.05
,-8.82,0.306,-4.688,-8.78,-0.481,-4.587,13.3,-4.69,-1.68
7647.0,-8.868,-0.337,-4.616,-8.899,0.522,-4.74,11.97,-5.25,0.98
,-8.789,-0.048,-4.642,-8.933,0.029,-4.635,12.74,-5.67,1.19
,-8.789,0.182,-4.704,-9.201,-0.108,-4.535,11.69,-6.23,0.7
,-8.815,0.354,-4.618,-9.265,-0.041,-4.666,8.75,-6.58,0.28
7723.0,-8.935,-0.045,-4.848,-9.028,-0.151,-4.542,1.89,-10.99,-0.91
,-8.741,-0.029,-4.86,-8.952,-0.141,-4.568,2.52,-11.13,-1.47
,-8.725,-0.16,-4.669,-8.631,-0.136,-4.367,3.36,-10.36,-1.89
,-8.813,-0.081,-4.539,-8.595,-0.196,-4.14,4.9,-10.43,-3.01
7798.0,-8.906,-0.251,-4.19,-9.005,-0.311,-3.769,3.36,-11.62,-2.52
,-9.143,-0.275,-4.068,-8.859,-0.304,-3.965,2.94,-11.97,-2.59
,-9.186,-0.239,-3.869,-8.806,-0.096,-4.046,2.24,-11.34,-2.1
,-9.148,-0.273,-3.831,-8.892,-0.108,-3.91,0.91,-11.34,-1.68
7874.0,-9.098,-0.177,-3.747,-8.763,-0.373,-3.649,-0.77,-10.92,-1.33
,-9.258,-0.242,-3.606,-8.847,-0.352,-3.522,-1.82,-10.99,-1.4
,-9.148,-0.333,-3.561,-9.028,-0.136,-3.69,-2.66,-11.06,-1.61
,-9.052,-0.373,-3.613,-9.136,0.101,-3.805,-2.87,-10.64,-1.4
7950.0,-9.148,0.172,-3.845,-8.732,-0.347,-3.532,-2.1,-8.68,-1.26
,-9.088,0.067,-4.142,-9.158,-0.373,-3.405,-4.06,-9.03,-1.89
,-8.854,-0.112,-4.166,-9.275,-0.232,-3.496,-4.83,-8.61,-2.24
,-8.746,-0.22,-3.86,-9.28,0.089,-3.857,-3.57,-7.49,-2.17
8026.0,-9.091,0.043,-3.929,-8.993,-0.215,-3.475,-2.73,-6.86,-1.75
,-9.043,-0.043,-4.039,-9.139,-0.223,-3.467,-4.48,-6.16,-2.8
,-8.928,-0.139,-3.857,-9.28,-0.452,-3.384,-4.55,-5.46,-3.99
,-9.002,-0.313,-3.551,-9.21,-0.507,-3.575,-4.2,-5.11,-4.13
8101.0,-9.083,-0.646,-3.463,-9.227,0.225,-3.821,-6.79,-4.9,-2.1
,-9.177,-0.711,-3.142,-9.28,0.29,-3.884,-5.18,-3.15,-1.47
,-9.16,-0.445,-3.116,-9.206,0.017,-3.812,-2.8,-2.45,-1.68
,-9.244,-0.148,-3.652,-9.215,-0.443,-3.999,-2.45,-3.57,-2.38
8177.0,-9.189,-0.67,-3.628,-9.45,-0.055,-3.443,-10.71,-4.76,-3.36
,-9.206,-0.684,-3.824,-9.478,-0.294,-4.183,-8.33,-5.04,-3.36
,-9.009,-0.474,-3.711,-8.882,-0.562,-4.142,-7.14,-5.53,-2.87
,-9.232,-0.153,-3.635,-8.727,-1.003,-4.166,-5.6,-5.25,-2.31
8253.0,-8.921,-1.359,-3.802,-9.277,0.61,-3.79,-6.23,-5.32,-0.21
,-9.588,-1.058,-3.68,-9.139,0.476,-3.745,3.36,-5.53,-0.28
,-9.648,-0.199,-3.783,-9.002,0.304,-3.422,7.0,-7.07,-0.49
,-9.416,0.629,-3.599,-8.887,0.134,-3.058,5.67,-7.21,-0.28
8329.0,-9.033,-0.055,-2.831,-9.186,-0.811,-2.592,1.47,-3.92,-1.96
,-9.201,-0.148,-2.737,-9.316,-0.634,-2.446,1.96,-3.78,-1.96
,-9.299,-0.254,-2.879,-9.574,0.194,-2.639,0.98,-3.43,-1.26
,-9.198,-0.488,-2.831,-9.519,0.928,-3.463,0.84,-1.89,-0.07
8405.0,-9.174,1.024,-3.96,-9.158,0.122,-3.802,-6.16,-0.49,-2.31
,-9.177,0.385,-4.003,-9.206,-0.065,-3.348,-9.59,0.21,-2.87
,-9.225,0.031,-4.128,-9.349,-0.321,-3.077,-7.35,0.28,-3.99
,-9.244,-0.074,-3.984,-9.414,-0.196,-2.821,-3.36,0.07,-4.34
8480.0,-9.454,0.034,-2.989,-9.11,-0.644,-4.223,-3.78,0.49,-5.25
,-9.45,0.196,-3.589,-9.072,-0.94,-3.915,-7.91,-0.42,-6.16
,-9.227,0.062,-3.869,-9.191,-1.134,-3.649,-12.18,-1.26,-6.72
,-9.139,-0.184,-4.259,-9.294,-1.139,-3.482,-13.58,-1.68,-6.86
8556.0,-9.308,-1.022,-3.235,-9.129,-0.069,-3.36,4.48,-0.21,-1.54
,-9.354,-0.84,-3.173,-9.251,-0.146,-3.271,8.19,0.28,-0.49
,-9.344,-0.586,-3.228,-9.335,-0.172,-3.111,11.62,0.98,0.07
,-9.22,-0.258,-3.393,-9.356,-0.263,-3.161,12.67,1.19,0.21
8632.0,-9.337,-0.361,-3.099,-9.141,0.065,-3.448,18.13,3.15,1.4
,-9.409,-0.23,-3.154,-9.153,-0.419,-3.269,19.39,3.22,1.61
,-9.373,0.062,-3.506,-9.229,-0.694,-2.965,17.64,2.31,0.56
,-9.22,0.23,-3.465,-9.32,-0.711,-2.857,14.0,1.96,-0.42
8708.0,-9.349,-0.543,-3.08,-9.227,-0.464,-3.635,5.25,3.15,-0.91
,-9.215,-0.328,-3.151,-9.182,-0.543,-3.644,5.18,3.64,-0.63
,-9.225,-0.22,-3.285,-9.213,-0.663,-3.618,4.62,3.78,-0.77
,-9.27,-0.27,-3.52,-9.282,-0.467,-3.503,3.36,4.06,-1.26
8783.0,-9.426,-0.115,-3.714,-9.165,-0.495,-3.984,6.16,3.64,-1.12
,-9.392,-0.036,-3.838,-9.22,-0.316,-3.893,4.13,2.94,-1.61
,-9.198,-0.316,-3.932,-9.21,-0.371,-3.733,1.68,2.24,-2.1
,-9.026,-0.55,-4.032,-9.229,-0.507,-3.441,1.4,1.96,-2.24
8859.0,-9.383,-0.526,-3.345,-9.139,-0.426,-3.427,0.7,0.56,-2.8
,-9.605,-0.012,-3.319,-9.234,-0.651,-3.393,-1.4,-1.54,-3.92
,-9.39,0.4,-3.436,-9.469,-0.299,-3.381,-5.74,-3.43,-4.76
,-9.225,-0.005,-3.522,-9.328,0.041,-3.587,-9.52,-3.57,-4.69
8934.0,-9.249,-0.096,-3.551,-9.275,-0.852,-3.795,-16.52,-5.74,-6.37
,-9.294,-0.175,-3.647,-9.143,-0.756,-3.853,-19.39,-6.37,-7.49
,-9.086,-0.57,-3.79,-9.232,-0.701,-3.75,-20.79,-5.95,-7.91
,-9.153,-0.933,-3.759,-9.072,-0.605,-3.69,-18.69,-4.97,-7.14
9010.0,-9.124,-0.579,-3.597,-9.189,-0.861,-3.25,-7.28,-4.62,-4.69
,-9.251,-0.503,-3.601,-9.194,-0.56,-3.324,-6.93,-4.55,-4.62
,-9.249,-0.692,-3.606,-9.418,-0.273,-3.25,-6.93,-4.27,-4.2
,-9.167,-0.902,-3.422,-9.304,-0.251,-3.24,-5.25,-3.85,-3.5
9086.0,-9.284,-0.749,-3.099,-9.184,0.029,-3.161,-7.14,-3.92,-2.87
,-9.294,-0.988,-3.123,-9.091,-0.129,-3.187,-5.53,-3.36,-2.31
,-9.289,-0.981,-3.156,-9.095,-0.665,-3.259,-1.68,-2.52,-1.33
,-9.308,-0.615,-3.034,-9.239,-1.027,-3.171,0.56,-2.87,-1.05
9162.0,-9.356,-0.96,-3.209,-9.313,-0.163,-3.376,-0.98,-1.33,-0.07
,-9.476,-0.759,-3.185,-9.251,-0.304,-3.405,3.36,-0.28,0.77
,-9.512,-0.529,-3.269,-9.273,-0.869,-3.544,5.11,0.07,1.26
,-9.497,-0.383,-3.233,-9.134,-1.161,-3.635,4.62,-0.35,1.26
9237.0,-9.194,-1.132,-3.628,-9.251,-0.536,-3.802,3.15,-1.19,1.68
,-9.306,-0.67,-3.642,-9.404,-0.641,-3.74,7.07,-1.19,2.24
,-9.421,-0.409,-3.831,-9.294,-0.785,-3.604,8.05,-1.33,2.31
,-9.263,-0.428,-3.795,-9.217,-0.933,-3.352,6.86,-1.68,2.38
9313.0,-9.206,-1.06,-3.139,-9.263,-0.797,-2.726,8.26,-0.98,3.5
,-9.208,-1.046,-3.039,-9.438,-0.735,-2.673,10.71,-0.21,3.99
,-9.246,-0.833,-2.888,-9.454,-0.471,-2.931,13.23,1.12,4.83
,-9.201,-0.739,-2.785,-9.471,-0.249,-2.97,15.33,2.8,5.67
9388.0,-9.397,0.029,-2.955,-9.033,-0.256,-3.238,16.1,5.81,6.93
,-9.363,0.139,-2.984,-9.093,-0.376,-3.199,13.65,5.39,6.23
,-9.299,0.084,-3.029,-9.112,-0.299,-3.147,11.2,5.32,5.6
,-9.203,-0.002,-3.101,-9.277,-0.196,-2.862,9.17,4.83,5.39
9464.0,-9.39,-0.208,-2.69,-9.488,-0.313,-3.101,10.5,4.2,5.04
,-9.418,-0.337,-2.582,-9.402,-0.366,-3.609,8.68,4.34,4.76
,-9.478,-0.495,-2.587,-9.031,-0.723,-3.826,7.77,4.69,4.69
,-9.557,-0.546,-2.67,-8.894,-0.873,-3.666,6.72,4.76,4.41
9540.0,-9.052,-0.957,-3.329,-9.864,0.373,-2.493,17.08,5.39,6.37
,-9.423,-0.672,-2.891,-9.615,0.428,-2.754,23.73,5.88,6.86
,-9.89,-0.309,-2.496,-9.196,0.101,-2.962,26.25,5.18,5.95
,-9.933,0.168,-2.288,-9.203,-0.797,-3.431,23.03,3.29,4.69
9616.0,-8.923,-1.419,-3.731,-9.32,-0.354,-3.412,-5.25,0.91,4.9
,-9.222,-1.742,-3.168,-9.366,-0.156,-3.515,0.49,3.5,7.0
,-9.304,-1.469,-3.297,-9.1,-0.057,-3.415,6.58,1.68,7.7
,-9.162,-0.902,-3.436,-9.43,0.211,-3.025,12.74,1.47,8.19
9692.0,-9.313,0.172,-3.357,-9.263,-0.78,-3.266,15.89,5.67,6.37
,-9.304,-0.098,-3.259,-9.244,-0.56,-3.427,11.83,5.67,5.25
,-9.098,-0.601,-3.147,-9.445,-0.251,-3.714,9.31,7.7,5.32
,-9.249,-0.792,-3.089,-9.536,-0.057,-4.135,9.45,9.45,5.81
9767.0,-9.33,0.17,-3.912,-9.232,0.165,-4.058,17.78,8.82,6.79
,-9.206,0.407,-3.955,-9.22,-0.373,-3.539,15.47,8.54,5.74
,-9.263,0.464,-3.817,-9.105,-0.73,-3.075,10.64,7.49,3.71
,-9.404,0.431,-3.879,-9.275,-0.732,-2.807,3.92,5.74,1.75
9843.0,-9.514,-0.538,-3.199,-9.014,-0.208,-2.931,-8.47,4.69,-1.12
,-9.404,-0.536,-3.427,-9.225,0.479,-3.166,-7.07,3.85,-0.35
,-9.351,-0.407,-3.625,-9.28,0.833,-3.278,-5.74,4.69,0.7
,-9.009,-0.416,-3.589,-9.485,0.995,-3.467,-3.92,6.65,0.91
9919.0,-9.555,0.634,-3.778,-9.162,-1.821,-3.058,-2.87,3.5,-3.08
,-9.268,-0.12,-3.522,-9.356,-2.039,-3.228,-6.86,5.25,-2.31
,-9.162,-0.747,-3.223,-9.249,-1.833,-3.644,-8.4,7.07,-1.61
,-8.928,-1.268,-3.061,-9.129,-1.354,-3.85,-7.28,7.91,-1.19
9995.0,-9.091,-0.593,-3.824,-9.258,0.366,-4.185,12.18,6.23,4.34
,-8.921,0.189,-3.903,-9.373,0.122,-4.03,13.37,7.42,3.22
,-9.005,0.696,-3.752,-9.155,-0.045,-4.015,11.41,7.7,2.1
,-9.134,0.555,-3.932,-9.131,-0.313,-3.424,5.88,5.67,1.4
10070.0,-9.261,-0.663,-3.515,-9.048,-0.445,-3.345,1.19,7.84,1.33
,-9.182,-1.046,-3.498,-9.562,0.175,-3.206,4.27,7.56,1.75
,-9.265,-1.086,-3.453,-9.474,0.737,-3.814,8.33,8.26,2.94
,-9.165,-0.967,-3.58,-9.292,0.883,-4.19,12.11,10.08,3.5
10146.0,-9.198,0.799,-4.2,-9.22,-0.074,-3.491,2.59,5.88,-0.21
,-8.878,0.586,-4.204,-9.337,-0.031,-3.64,-3.29,6.86,-1.4
,-9.062,0.316,-3.508,-9.421,-0.086,-3.795,-6.3,8.54,-2.94
,-9.143,0.127,-3.491,-9.304,-0.148,-3.967,-6.65,8.4,-3.92
10221.0,-9.155,-0.323,-4.078,-9.06,0.254,-3.879,-2.52,5.67,-4.97
,-8.921,-0.447,-4.252,-9.416,0.361,-3.699,-1.68,5.6,-4.9
,-8.815,-0.117,-4.226,-9.27,0.395,-3.898,0.21,5.88,-5.25
,-8.851,-0.053,-3.776,-9.158,0.038,-3.709,-0.07,6.58,-6.09
10297.0,-9.203,-0.519,-3.553,-9.182,-1.199,-3.63,-11.55,7.84,-6.86
,-9.174,-1.242,-3.51,-8.835,-0.873,-3.984,-12.6,7.14,-5.6
,-9.229,-1.546,-3.544,-8.717,-0.67,-3.989,-10.01,6.37,-4.62
,-9.119,-1.496,-3.556,-8.899,-0.4,-3.989,-5.11,6.51,-3.92
10373.0,-9.098,0.098,-4.094,-8.612,-0.567,-4.372,5.11,7.77,-3.43
,-9.198,0.244,-4.293,-8.93,-1.228,-4.073,3.5,7.63,-3.71
,-8.935,0.206,-4.355,-9.086,-1.866,-3.939,0.21,7.7,-3.36
,-8.823,-0.206,-4.202,-9.244,-2.132,-3.764,-4.48,7.56,-2.24
10449.0,-9.304,-2.075,-3.534,-8.859,0.244,-4.465,1.61,8.47,5.53
,-9.045,-1.709,-4.228,-8.629,0.22,-4.446,8.33,8.12,6.09
,-9.184,-1.01,-4.101,-8.854,0.036,-4.283,14.56,7.77,5.88
,-8.997,-0.328,-4.314,-9.191,-0.354,-3.979,16.94,7.07,5.39
10524.0,-9.15,-0.663,-4.008,-8.909,-0.117,-4.52,-0.7,7.0,5.25
,-9.342,-0.529,-3.987,-8.947,-0.239,-4.57,1.47,6.93,4.62
,-9.304,-0.029,-4.343,-9.036,-0.414,-4.563,4.48,5.81,4.06
,-9.074,-0.031,-4.599,-8.873,-0.601,-4.633,6.44,5.11,3.22
10600.0,-8.94,-0.737,-4.702,-8.875,-0.775,-4.207,11.69,4.41,0.07
,-8.945,-0.826,-4.233,-9.153,-0.505,-4.223,12.6,4.9,0.84
,-8.909,-0.799,-4.31,-9.383,0.153,-4.374,12.81,3.36,1.19
,-8.787,-0.816,-4.503,-9.227,0.491,-4.511,13.58,3.64,1.61
10676.0,-9.014,0.467,-4.432,-8.775,-1.821,-4.41,11.69,2.87,-1.19
,-9.012,0.27,-4.661,-8.851,-2.199,-4.295,6.93,2.8,-1.4
,-8.734,-0.514,-4.439,-9.079,-2.455,-4.015,2.59,2.17,-0.56
,-8.423,-1.369,-4.286,-8.825,-2.335,-3.754,1.26,2.45,0.56
10752.0,-8.77,-1.728,-3.991,-9.002,0.371,-3.903,21.21,3.57,10.43
,-8.894,-0.838,-4.307,-9.083,0.436,-4.185,24.64,2.66,11.06
,-9.148,0.019,-4.472,-9.06,0.416,-4.271,25.06,1.47,9.87
,-8.918,0.352,-4.475,-9.05,0.361,-4.276,21.91,0.77,8.33
10828.0,-8.993,0.45,-4.446,-8.933,-0.754,-4.219,6.51,2.03,2.94
,-9.028,0.361,-4.482,-8.751,-0.682,-4.298,6.51,1.47,2.24
,-8.806,0.026,-4.408,-8.859,-0.622,-4.18,6.58,1.26,2.17
,-9.04,-0.51,-4.142,-8.99,-0.488,-4.07,7.21,0.42,2.8
10903.0,-9.124,-0.225,-4.276,-8.605,-0.787,-4.776,8.82,2.38,3.92
,-9.072,-0.227,-4.302,-8.832,-0.78,-4.685,6.65,2.52,3.57
,-8.981,-0.23,-4.424,-9.098,-0.558,-4.59,4.06,1.75,3.5
,-8.658,-0.483,-4.748,-9.275,-0.409,-4.496,0.84,1.26,3.57
10979.0,-9.344,-0.574,-3.987,-9.072,0.12,-4.472,0.49,1.75,3.01
,-8.88,-0.467,-4.281,-9.282,-0.101,-4.324,1.12,1.47,3.01
,-8.538,-0.079,-4.262,-9.234,0.005,-4.305,1.4,2.73,2.45
,-8.662,0.227,-4.585,-9.158,0.249,-4.587,-0.21,3.85,2.24
11054.0,-9.033,0.17,-4.661,-8.684,-0.866,-4.441,-2.24,3.22,0.49
,-9.069,-0.318,-4.329,-8.789,-0.701,-4.697,-5.11,4.41,0.77
,-9.194,-0.782,-3.92,-9.028,-0.622,-4.46,-6.09,4.76,1.47
,-9.112,-0.809,-4.269,-9.158,-0.438,-4.726,-5.11,3.85,2.31
11130.0,-9.22,-0.282,-5.018,-9.229,-0.828,-4.183,-2.8,1.75,3.29
,-9.155,-0.416,-4.898,-8.926,-0.505,-4.805,-5.53,1.4,3.15
,-8.945,-0.663,-4.743,-8.605,-0.447,-4.815,-7.77,1.61,2.59
,-8.894,-0.818,-4.444,-8.555,-0.323,-4.853,-8.82,1.96,2.59
11206.0,-8.823,-0.364,-4.503,-9.213,-0.292,-4.147,-7.0,-0.49,4.34
,-8.976,-0.543,-4.274,-8.823,-0.129,-4.475,-6.86,-0.35,4.27
,-9.036,-0.55,-4.288,-8.787,-0.002,-4.506,-5.39,-0.07,4.06
,-9.179,-0.558,-4.14,-8.806,0.124,-4.537,-2.8,-0.63,4.13
11282.0,-9.11,0.199,-4.436,-9.107,-0.191,-4.487,1.47,-3.29,2.38
,-9.167,0.089,-4.298,-9.548,-0.287,-3.848,1.54,-2.87,0.56
,-9.179,-0.017,-4.369,-9.268,-0.191,-4.31,1.82,-2.66,-0.77
,-9.033,-0.11,-4.494,-8.598,-0.428,-4.582,2.24,-2.73,-1.33
11357.0,-8.272,-0.354,-4.549,-9.335,0.345,-4.137,1.54,-4.76,-0.84
,-8.729,-0.321,-4.19,-9.263,0.689,-4.147,3.78,-3.92,-1.4
,-9.11,-0.172,-4.233,-9.356,0.747,-3.874,6.23,-4.83,-2.45
,-9.371,-0.026,-4.185,-9.105,0.558,-3.97,7.91,-5.18,-3.15
11433.0,-8.985,0.337,-3.714,-8.89,-0.744,-4.008,-4.62,-6.37,-6.02
,-8.775,-0.041,-3.74,-8.954,-0.778,-4.044,-5.39,-6.16,-5.95
,-8.746,-0.292,-4.025,-8.961,-0.847,-4.121,-4.55,-5.6,-5.39
,-8.708,-0.493,-4.142,-9.107,-0.888,-3.771,-1.47,-4.83,-5.04
11508.0,-9.347,-0.821,-3.687,-8.926,-0.33,-4.18,12.95,-1.19,-4.41
,-9.45,-0.725,-3.805,-9.127,-0.818,-4.058,11.62,-2.94,-4.06
,-9.0,-0.479,-4.14,-9.095,-0.936,-4.133,10.78,-3.5,-2.87
,-8.765,-0.392,-4.066,-9.127,-0.799,-3.939,8.75,-2.73,-2.1
11584.0,-8.887,-0.684,-4.245,-8.995,-0.601,-4.058,3.64,-4.62,1.05
,-8.758,-0.838,-4.173,-8.971,-0.357,-4.07,3.43,-3.71,1.89
,-8.918,-0.9,-4.216,-9.299,-0.179,-4.006,5.67,-2.94,2.52
,-9.012,-0.907,-4.13,-9.227,0.026,-4.183,9.03,-2.45,2.87
11660.0,-9.112,0.055,-4.156,-9.139,0.045,-3.819,13.93,-1.82,2.66
,-9.033,0.06,-4.003,-9.129,-0.012,-3.745,12.6,-1.19,2.45
,-9.222,-0.029,-3.685,-9.024,-0.108,-3.764,12.04,-0.28,1.75
,-9.366,-0.069,-3.582,-9.014,-0.268,-3.865,11.34,-0.14,1.54
11736.0,-9.012,-0.306,-3.845,-9.153,-0.077,-3.853,7.98,0.49,1.96
,-9.131,-0.352,-3.625,-9.052,-0.12,-3.86,8.26,0.77,1.82
,-9.153,-0.148,-3.819,-9.067,-0.17,-3.783,8.54,-0.49,0.91
,-9.217,-0.11,-3.843,-9.036,-0.278,-3.85,8.19,-1.61,-0.14
11812.0,-8.887,-0.455,-3.821,-9.273,-1.077,-3.412,-1.47,-3.71,-2.03
,-9.127,-0.677,-3.843,-9.27,-0.608,-3.632,-1.68,-3.5,-1.96
,-9.103,-0.921,-3.678,-9.328,-0.232,-3.805,-1.4,-2.87,-1.68
,-9.225,-1.079,-3.582,-9.162,-0.141,-3.891,0.21,-2.87,-1.33
11887.0,-9.088,-0.333,-3.8,-9.263,-0.395,-3.728,3.29,-5.6,-0.49
,-9.021,-0.682,-3.771,-9.256,0.024,-3.86,1.82,-4.69,-0.28
,-9.251,-0.991,-3.57,-9.191,0.211,-3.908,3.01,-3.43,-0.56
,-9.335,-0.799,-3.611,-9.222,0.012,-3.97,6.02,-3.36,-1.19
11963.0,-9.117,-0.369,-3.826,-9.158,-0.519,-3.783,-0.77,-5.67,-2.52
,-8.988,-0.696,-3.482,-8.978,-0.536,-4.006,-0.56,-4.76,-2.66
,-9.119,-0.826,-3.396,-8.933,-0.806,-3.743,1.75,-4.48,-3.22
,-9.136,-0.684,-3.673,-9.088,-1.007,-3.491,4.06,-5.25,-3.78
12039.0,-9.349,-0.969,-3.374,-9.198,-0.144,-3.659,6.93,-4.06,-1.61
,-9.383,-0.531,-3.302,-9.105,-0.467,-3.788,8.75,-4.48,-1.68
,-9.445,-0.098,-3.766,-9.057,-0.651,-3.9,7.63,-5.88,-2.03
,-9.299,-0.005,-3.793,-9.139,-0.711,-4.044,4.69,-6.72,-2.17
12115.0,-9.139,-0.706,-3.963,-9.356,-0.579,-3.513,3.64,-7.84,-1.89
,-9.139,-0.919,-3.97,-9.294,-0.409,-3.3,5.39,-7.63,-1.68
,-9.107,-1.046,-3.814,-9.294,-0.323,-3.18,7.91,-7.35,-1.82
,-9.22,-0.828,-3.374,-9.335,-0.316,-3.314,11.13,-6.79,-1.26
12190.0,-9.234,-0.376,-3.297,-9.466,-0.598,-2.484,5.6,-8.61,-2.45
,-9.134,-0.414,-2.927,-9.459,-0.39,-2.606,5.6,-7.63,-2.45
,-9.201,-0.608,-2.855,-9.289,-0.421,-2.632,5.88,-6.58,-2.24
,-9.275,-0.692,-2.295,-9.299,-0.567,-2.716,7.7,-5.32,-2.17
12266.0,-9.258,-0.787,-2.649,-9.402,-0.581,-2.874,2.03,-2.38,-2.73
,-9.332,-0.849,-2.68,-9.351,-0.632,-2.984,2.52,-1.19,-2.8
,-9.342,-0.782,-2.917,-9.32,-0.744,-2.962,2.8,-0.91,-2.8
,-9.249,-0.632,-2.869,-9.32,-0.603,-3.099,2.87,-0.56,-2.73
12341.0,-9.253,-0.567,-3.218,-9.294,-1.201,-3.221,3.15,0.91,-2.38
,-9.213,-0.651,-3.465,-9.337,-1.106,-3.07,1.89,0.56,-2.66
,-9.215,-0.713,-3.436,-9.354,-1.012,-3.202,0.63,0.77,-2.52
,-9.284,-0.967,-3.326,-9.246,-0.902,-3.218,0.21,0.98,-2.31
12417.0,-9.296,-0.907,-3.388,-9.416,-0.83,-3.542,2.31,1.4,-0.84
,-9.289,-0.852,-3.46,-9.38,-0.866,-3.549,2.45,1.4,-0.7
,-9.316,-0.849,-3.47,-9.328,-0.823,-3.427,2.24,1.05,-0.56
,-9.45,-0.773,-3.467,-9.292,-0.751,-3.343,2.1,0.7,-0.56
12493.0,-9.249,-0.782,-3.29,-9.337,-0.962,-2.96,2.03,0.14,-0.21
,-9.225,-0.72,-3.266,-9.347,-0.873,-2.924,2.1,0.28,-0.14
,-9.313,-0.723,-3.173,-9.34,-0.763,-2.929,1.54,0.07,-0.28
,-9.251,-0.938,-2.982,-9.328,-0.56,-3.161,1.12,0.35,-0.07
12569.0,-9.227,-0.479,-3.278,-9.174,-0.895,-3.403,2.24,1.61,-0.07
,-9.15,-0.467,-3.281,-9.277,-0.852,-3.391,0.49,1.75,-0.28
,-9.127,-0.732,-3.558,-9.34,-0.838,-3.276,-0.63,1.75,-0.56
,-9.079,-0.919,-3.542,-9.426,-0.797,-3.204,0.07,1.96,-0.35
12644.0,-9.411,-0.723,-2.96,-9.411,-0.799,-3.111,1.54,1.68,0.42
,-9.404,-0.816,-2.927,-9.287,-0.849,-3.312,0.28,1.82,0.14
,-9.404,-0.893,-2.816,-9.198,-0.83,-3.498,-0.35,2.45,0.28
,-9.409,-0.814,-2.905,-9.172,-0.771,-3.546,-0.28,2.94,0.63
12720.0,-9.201,-0.713,-3.632,-9.363,-0.893,-3.649,2.31,3.36,0.77
,-9.313,-0.72,-3.561,-9.246,-0.854,-3.757,2.45,3.5,0.91
,-9.373,-0.742,-3.479,-9.213,-0.847,-3.798,2.17,3.29,1.05
,-9.452,-0.754,-3.556,-9.217,-0.842,-3.738,1.68,2.87,0.84
12796.0,-9.301,-0.771,-3.644,-9.344,-0.639,-3.398,3.01,1.05,1.05
,-9.301,-0.809,-3.451,-9.344,-0.577,-3.41,3.15,0.91,1.19
,-9.323,-0.821,-3.317,-9.237,-0.675,-3.472,3.43,0.77,1.33
,-9.356,-0.747,-3.319,-9.213,-0.89,-3.403,3.64,0.42,1.33
12872.0,-9.232,-0.931,-3.374,-9.273,-0.751,-3.254,0.7,-0.42,0.91
,-9.311,-0.916,-3.25,-9.189,-0.718,-3.218,1.68,-0.42,1.05
,-9.33,-0.895,-3.211,-9.263,-0.794,-3.262,2.31,-0.21,1.47
,-9.354,-0.869,-3.202,-9.294,-0.847,-3.321,2.87,-0.35,1.54
12948.0,-9.289,-0.79,-3.302,-9.478,-0.543,-2.752,1.89,-0.42,1.4
,-9.287,-0.737,-3.123,-9.665,-0.416,-2.974,2.1,0.07,1.54
,-9.282,-0.749,-3.001,-9.478,-0.474,-3.108,1.89,0.49,1.4
,-9.335,-0.706,-2.776,-9.265,-0.677,-3.235,2.03,1.05,1.47
13023.0,-9.174,-0.864,-3.381,-9.481,-0.227,-3.585,-4.2,1.19,0.63
,-9.253,-0.799,-3.542,-9.318,-0.409,-3.431,-2.52,1.33,0.49
,-9.268,-0.538,-3.623,-9.237,-0.651,-3.202,-1.54,0.98,0.42
,-9.454,-0.304,-3.585,-9.407,-0.852,-3.128,-2.45,0.0,0.0
13099.0,-9.392,-0.881,-3.238,-9.153,-0.926,-2.661,-11.27,-3.71,-1.82
,-9.179,-0.833,-3.159,-9.239,-0.838,-2.556,-11.2,-3.85,-1.26
,-9.031,-0.838,-2.941,-9.335,-0.732,-2.606,-10.64,-3.29,-0.63
,-9.107,-0.924,-2.871,-9.356,-0.735,-2.467,-10.01,-1.96,-0.07
13174.0,-9.509,-0.78,-2.213,-9.744,-0.235,-1.996,-10.99,1.68,0.63
,-9.438,-0.675,-2.235,-9.689,-0.012,-2.73,-11.48,1.75,0.63
,-9.397,-0.715,-1.933,-9.368,-0.165,-3.135,-12.25,2.8,0.77
,-9.469,-0.495,-1.675,-8.878,-0.534,-3.537,-10.78,4.55,1.12
13250.0,-8.861,-1.117,-3.202,-9.428,-0.5,-3.532,-18.41,6.79,2.8
,-8.863,-1.608,-2.917,-9.093,-0.622,-4.042,-12.39,9.59,4.2
,-9.162,-1.431,-2.596,-8.957,-0.983,-3.788,-3.85,11.41,4.76
,-9.402,-0.988,-3.12,-9.21,-1.302,-3.661,2.8,10.36,4.48
13326.0,-9.304,-1.101,-3.812,-9.438,0.139,-4.171,6.93,11.06,7.56
,-9.375,-0.581,-4.068,-9.397,-0.127,-4.223,12.11,9.73,6.58
,-9.414,-0.093,-4.061,-9.378,-0.249,-3.927,12.67,8.26,6.16
,-9.256,0.168,-4.056,-8.849,-0.328,-4.283,10.36,7.49,6.3
13402.0,-9.043,-0.421,-3.771,-9.615,0.555,-3.427,1.68,7.56,2.24
,-9.122,-0.479,-3.661,-9.682,0.476,-3.635,3.71,8.33,2.03
,-9.203,-0.203,-2.946,-9.294,0.096,-3.975,6.44,9.87,1.54
,-9.634,0.323,-3.276,-8.959,-0.658,-3.833,7.77,8.33,0.21
13477.0,-8.916,-1.213,-3.434,-9.495,-0.586,-3.331,-3.64,5.25,-1.19
,-8.985,-1.402,-3.058,-9.33,-0.34,-3.735,2.38,7.28,-1.54
,-9.182,-1.376,-2.991,-9.363,-0.005,-4.034,8.4,8.26,-1.68
,-9.311,-1.031,-2.735,-9.129,0.179,-3.726,13.16,9.1,-1.05
13553.0,-9.143,0.333,-3.527,-9.112,-1.797,-4.113,4.76,8.68,-2.31
,-9.055,-0.022,-3.843,-8.856,-2.099,-3.939,0.28,6.86,-3.85
,-9.359,-0.617,-4.121,-8.964,-2.118,-3.666,-4.06,5.04,-3.29
,-9.237,-1.261,-4.212,-9.177,-1.878,-3.778,-6.23,4.34,-1.26
13629.0,-8.997,-1.591,-3.91,-9.012,0.06,-3.331,14.14,4.9,3.99
,-9.194,-1.122,-3.965,-9.153,0.127,-3.077,17.08,5.39,4.83
,-9.095,-0.56,-4.039,-9.32,-0.079,-3.166,17.71,6.23,5.11
,-8.945,-0.225,-3.738,-9.433,-0.335,-3.305,16.31,8.05,4.9
13705.0,-9.438,-0.498,-3.482,-9.036,-0.632,-3.853,-0.35,6.37,4.9
,-9.296,-0.55,-3.649,-8.818,-0.775,-3.898,0.49,6.86,4.69
,-9.241,-0.627,-3.644,-9.036,-0.715,-3.522,2.31,7.0,3.64
,-9.048,-0.648,-3.752,-9.217,-0.416,-3.666,4.76,6.93,2.59
13780.0,-9.009,-0.503,-3.795,-9.215,-0.699,-3.733,8.75,9.24,3.71
,-8.995,-0.546,-3.668,-9.495,-0.593,-3.786,6.58,10.85,3.99
,-8.985,-0.627,-3.443,-9.38,-0.237,-3.965,5.67,12.04,4.34
,-9.11,-0.637,-3.553,-8.768,-0.067,-4.049,5.81,11.48,4.55
13856.0,-8.775,0.455,-4.087,-9.198,0.409,-3.759,4.34,8.4,3.43
,-9.153,0.529,-3.934,-8.899,0.309,-3.726,4.06,7.7,2.1
,-9.186,0.479,-3.934,-8.88,0.16,-3.867,1.96,6.65,0.84
,-9.474,0.455,-3.522,-9.014,-0.12,-3.769,-0.91,6.51,0.35
13932.0,-9.246,-0.177,-3.927,-8.646,0.459,-4.168,-6.3,7.91,-1.61
,-9.409,-0.141,-3.865,-8.674,0.16,-4.018,-4.2,7.98,-2.52
,-9.586,0.112,-3.774,-8.947,-0.096,-3.994,-3.64,7.14,-3.43
,-9.15,0.546,-4.2,-9.012,-0.677,-4.039,-5.25,5.6,-4.48
14007.0,-8.964,-1.486,-4.058,-8.686,-2.9,-4.116,-15.33,8.54,-2.38
,-9.045,-2.118,-4.003,-8.863,-2.587,-3.979,-14.49,8.96,0.0
,-9.028,-2.67,-3.999,-9.014,-1.835,-4.417,-12.67,8.47,2.66
,-8.949,-2.919,-4.295,-9.119,-1.189,-4.736,-8.75,7.98,5.32
14083.0,-9.067,-0.656,-4.743,-8.847,-0.893,-3.934,9.73,5.67,9.31
,-8.753,-0.364,-4.834,-9.292,-0.665,-3.908,5.46,6.3,10.64
,-8.737,-0.39,-4.355,-9.261,-0.342,-4.125,-0.98,7.42,12.04
,-8.662,-0.694,-4.288,-9.258,0.191,-4.331,-5.67,8.12,13.3
14159.0,-9.275,0.701,-4.609,-8.646,0.031,-4.539,7.91,6.72,9.31
,-9.112,0.924,-4.501,-8.469,-0.493,-4.171,8.96,5.25,7.42
,-9.366,0.881,-4.568,-8.519,-0.857,-4.36,8.19,4.06,6.93
,-8.794,0.541,-4.712,-8.748,-1.12,-4.374,7.49,3.29,5.39
14235.0,-8.823,-1.058,-4.312,-9.105,0.725,-5.245,12.88,6.65,7.84
,-9.541,-0.605,-4.252,-8.849,1.0,-5.374,16.73,5.04,7.28
,-9.203,-0.156,-4.649,-8.823,0.78,-5.109,18.55,3.15,5.81
,-9.174,0.285,-4.874,-8.966,0.524,-4.975,16.73,2.17,4.34
14310.0,-9.311,0.034,-4.109,-8.502,-1.292,-4.051,1.75,1.05,0.21
,-9.33,-0.182,-4.178,-8.892,-1.103,-3.96,0.42,-1.4,0.42
,-8.593,-0.689,-4.001,-9.552,-0.687,-4.568,-0.77,-1.61,1.61
,-8.181,-1.117,-3.979,-9.739,-0.299,-4.475,-0.84,0.63,3.5
14386.0,-9.701,0.333,-4.532,-8.392,-0.517,-4.314,15.4,-0.42,4.13
,-9.091,0.395,-4.355,-9.306,-0.335,-4.078,11.76,-2.03,4.69
,-8.409,-0.124,-4.468,-9.567,-0.038,-4.056,5.88,-1.96,6.09
,-7.779,-0.565,-4.513,-9.198,0.146,-4.334,3.78,0.07,6.3
14462.0,-8.899,0.402,-4.554,-9.17,-0.048,-4.645,5.46,2.8,3.36
,-8.703,0.491,-4.81,-8.861,-0.218,-4.901,3.36,3.15,3.43
,-8.815,0.426,-4.848,-8.911,-0.519,-4.712,1.75,4.2,3.22
,-9.172,0.237,-4.635,-8.868,-0.806,-4.537,0.7,3.85,3.08
14538.0,-8.67,-0.871,-4.681,-9.031,-0.041,-4.719,0.0,3.29,3.43
,-8.732,-0.768,-4.558,-9.191,0.117,-4.793,2.1,4.2,3.5
,-9.052,-0.242,-4.491,-9.191,0.191,-4.798,3.71,4.2,4.06
,-9.117,-0.024,-4.501,-9.014,0.146,-4.793,2.66,3.71,4.9
14613.0,-8.976,0.007,-4.573,-9.103,1.627,-5.03,-4.97,1.54,4.83
,-9.11,0.246,-4.472,-9.246,1.213,-4.891,-3.85,1.4,3.78
,-9.241,0.895,-4.647,-9.191,0.522,-4.681,-2.38,0.21,2.45
,-9.155,1.455,-4.764,-9.072,-0.053,-4.491,-2.45,-1.47,1.19
14689.0,-8.78,-0.414,-4.422,-9.048,-1.132,-4.149,-12.18,-3.71,-4.27
,-8.701,-0.548,-4.542,-8.926,-0.933,-4.207,-9.31,-4.2,-4.83
,-8.722,-0.718,-4.618,-8.854,-0.596,-4.353,-6.44,-4.76,-5.67
,-9.043,-0.964,-4.322,-8.88,-0.414,-4.209,-5.04,-4.9,-5.67
14764.0,-8.851,-0.392,-4.159,-8.892,0.079,-4.393,-0.07,-4.06,-3.01
,-9.299,-0.203,-3.893,-8.957,-0.134,-4.377,-0.14,-4.55,-2.45
,-9.265,0.127,-4.149,-8.995,-0.189,-4.475,-0.21,-5.25,-1.89
,-9.062,0.342,-4.255,-8.94,-0.242,-4.451,-0.63,-5.11,-1.68
14840.0,-9.263,-0.141,-4.384,-8.954,-0.433,-4.133,10.15,-5.95,-4.69
,-9.22,-0.043,-4.408,-9.093,-0.524,-4.216,11.76,-7.07,-5.11
,-9.045,-0.072,-4.276,-9.134,-0.622,-4.137,10.99,-7.28,-5.25
,-8.605,-0.232,-4.401,-9.325,-0.491,-3.999,10.15,-5.95,-5.18
14916.0,-9.215,-0.342,-4.173,-9.287,-0.842,-3.924,9.73,-8.05,-2.73
,-8.686,-0.529,-4.496,-9.385,-0.433,-3.833,7.21,-8.4,-1.89
,-8.677,-0.773,-4.209,-9.237,0.026,-4.025,6.51,-7.42,-1.19
,-8.882,-0.995,-4.027,-9.036,0.057,-4.006,8.54,-7.0,-0.77
14992.0,-9.083,-0.062,-3.9,-8.643,0.182,-4.14,11.69,-8.05,1.12
,-9.129,-0.333,-3.872,-8.885,0.057,-4.152,10.92,-8.47,0.91
,-9.062,-0.201,-3.989,-8.952,-0.469,-4.039,10.5,-10.01,0.56
,-8.827,0.079,-4.245,-9.234,-0.275,-3.915,10.71,-10.01,1.19
15068.0,-9.141,-0.397,-3.709,-8.938,-0.199,-3.463,12.11,-4.62,0.42
,-9.177,-0.452,-3.783,-9.253,-0.086,-3.23,14.35,-3.71,0.91
,-9.249,-0.419,-3.745,-9.198,0.012,-3.419,16.17,-3.15,0.7
,-9.198,-0.282,-3.647,-9.031,0.115,-3.513,16.52,-3.22,0.28
15143.0,-9.184,0.129,-3.417,-9.098,-0.275,-3.465,5.11,-8.05,0.28
,-9.241,-0.072,-3.695,-9.16,-0.153,-3.498,2.38,-7.7,0.07
,-9.05,-0.316,-3.678,-9.428,-0.024,-3.491,1.75,-6.93,-0.14
,-8.983,-0.333,-3.585,-9.361,0.098,-3.743,3.64,-5.11,-0.49
15219.0,-9.165,0.127,-3.867,-9.275,-0.256,-3.214,7.91,-3.01,-0.77
,-9.064,0.005,-3.817,-9.39,-0.242,-3.436,5.53,-2.73,-0.98
,-9.024,-0.038,-3.601,-9.328,-0.201,-3.709,4.41,-2.24,-2.1
,-9.179,-0.148,-3.53,-9.165,-0.507,-3.489,3.99,-1.96,-3.78
15295.0,-9.165,-0.668,-3.463,-9.433,-0.692,-3.192,-3.99,-4.69,-3.99
,-9.122,-0.96,-3.293,-9.311,-0.51,-3.63,-3.78,-3.57,-4.9
,-9.421,-1.067,-3.092,-9.103,-0.677,-3.592,-2.17,-2.87,-5.32
,-9.38,-0.998,-3.013,-9.081,-0.763,-3.436,-1.47,-3.85,-5.39
15371.0,-9.167,-0.849,-3.319,-9.134,-0.244,-3.754,-0.91,-3.92,-2.66
,-9.232,-0.857,-3.087,-9.22,-0.416,-3.513,1.96,-2.59,-2.24
,-9.265,-0.625,-3.479,-9.294,-0.677,-3.24,3.22,-3.64,-2.45
,-9.217,-0.361,-3.833,-9.227,-0.629,-3.113,2.66,-5.53,-2.24
15446.0,-9.466,-0.17,-3.307,-8.988,-0.804,-3.297,2.17,-5.25,-4.13
,-9.34,0.194,-3.75,-9.359,-0.768,-3.061,-0.84,-6.93,-4.48
,-8.988,0.007,-3.896,-9.572,-0.447,-2.759,-5.11,-7.21,-4.34
,-8.902,-0.498,-3.721,-9.555,-0.103,-2.742,-6.37,-6.23,-3.71
15522.0,-9.457,-0.01,-2.491,-9.392,-0.62,-3.489,4.06,-1.89,-4.48
,-9.598,-0.156,-2.984,-9.079,-0.866,-3.374,0.21,-3.15,-5.53
,-9.55,-0.275,-3.446,-9.045,-0.974,-3.41,-3.22,-4.69,-5.95
,-9.43,-0.349,-3.333,-9.165,-0.811,-3.537,-5.39,-4.62,-4.9
15597.0,-9.294,-0.491,-3.778,-9.225,-0.866,-3.104,3.64,-3.99,-4.27
,-9.196,-0.498,-3.58,-9.366,-0.715,-2.898,2.8,-4.55,-3.5
,-9.182,-0.574,-3.795,-9.442,-0.584,-2.927,2.17,-4.69,-3.22
,-9.177,-0.771,-3.441,-9.373,-0.426,-2.938,3.64,-4.13,-3.22
15673.0,-9.418,-0.474,-3.223,-9.368,-1.072,-2.388,2.31,-5.32,-3.85
,-9.155,-0.744,-2.938,-9.481,-0.976,-2.412,0.28,-4.62,-3.57
,-9.182,-0.833,-2.702,-9.574,-0.928,-2.8,1.82,-3.01,-3.01
,-9.32,-1.007,-2.458,-9.387,-1.053,-2.699,1.75,-1.82,-3.15
15749.0,-9.249,-1.261,-2.431,-9.629,0.036,-3.087,3.36,1.12,-0.14
,-9.234,-1.237,-2.52,-9.32,-0.079,-3.135,5.46,2.38,-0.14
,-9.227,-1.01,-2.455,-9.079,-0.548,-3.118,8.47,3.78,0.14
,-9.519,-0.433,-2.721,-9.067,-1.072,-3.166,10.08,4.2,0.21
15825.0,-9.146,-1.096,-2.924,-9.529,-0.572,-2.9,7.28,6.02,0.21
,-9.44,-0.84,-2.697,-9.383,-0.794,-3.13,11.62,6.79,0.91
,-9.698,-0.565,-2.474,-9.371,-1.058,-3.494,11.76,6.86,0.98
,-9.775,-0.323,-2.867,-9.356,-1.062,-3.668,8.33,6.58,0.42
15900.0,-9.356,-1.029,-3.506,-9.383,-0.514,-3.12,4.76,6.65,0.91
,-9.368,-0.89,-3.441,-9.28,-0.359,-3.29,5.53,7.14,1.61
,-9.426,-0.991,-3.07,-9.273,-0.483,-3.515,6.09,7.49,1.68
,-9.435,-0.663,-3.025,-9.194,-1.091,-3.561,8.05,7.84,1.96
15976.0,-8.935,-1.721,-3.477,-9.261,0.055,-3.85,0.42,7.14,1.96
,-8.985,-1.651,-3.434,-9.21,0.081,-4.235,5.67,7.56,3.36
,-9.239,-1.036,-3.503,-9.136,-0.366,-4.13,10.64,7.56,4.13
,-9.375,-0.342,-3.733,-9.0,-0.629,-4.164,10.85,6.79,3.64
16052.0,-9.103,-0.665,-4.075,-9.301,-0.541,-3.618,2.1,3.5,1.4
,-9.184,-0.672,-3.936,-9.203,-0.816,-3.47,4.06,3.01,1.61
,-9.162,-0.562,-3.85,-9.158,-1.034,-3.405,4.48,2.17,1.61
,-9.203,-0.445,-3.726,-9.191,-0.902,-3.367,3.43,1.26,1.19
16128.0,-9.263,-0.55,-3.367,-9.174,-0.727,-3.264,2.45,0.0,0.84
,-9.229,-0.414,-3.29,-9.301,-0.589,-3.288,1.89,-0.07,0.77
,-9.186,-0.548,-3.302,-9.392,-0.524,-3.293,0.7,0.14,0.77
,-9.158,-0.761,-3.187,-9.347,-0.627,-3.455,0.49,0.42,0.84
16204.0,-9.284,-0.79,-3.563,-9.16,-0.866,-3.733,-2.03,0.14,0.21
,-9.268,-0.809,-3.728,-9.177,-0.739,-3.637,-1.47,0.07,0.14
,-9.241,-0.763,-3.764,-9.22,-0.785,-3.594,-0.98,-0.21,0.0
,-9.153,-0.778,-3.726,-9.273,-0.694,-3.472,-0.7,-0.49,0.07
16279.0,-9.306,-0.565,-3.376,-9.229,-0.826,-3.161,0.21,-0.98,0.28
,-9.304,-0.503,-3.266,-9.289,-0.833,-3.128,-0.98,-1.19,0.0
,-9.299,-0.584,-3.317,-9.299,-0.747,-3.149,-2.03,-1.33,-0.35
,-9.256,-0.723,-3.333,-9.383,-0.656,-3.259,-2.31,-1.26,-0.28
16355.0,-9.383,-0.495,-3.4,-9.239,-0.967,-3.467,1.12,-0.63,0.42
,-9.244,-0.38,-3.553,-9.263,-0.957,-3.338,-0.28,-0.98,0.0
,-9.217,-0.474,-3.558,-9.27,-0.983,-3.183,-2.03,-1.12,-0.28
,-9.217,-0.718,-3.623,-9.273,-0.816,-3.173,-2.73,-1.19,-0.28
16430.0,-9.261,-0.768,-3.041,-9.581,-0.799,-3.302,5.46,0.28,1.61
,-9.225,-0.66,-3.096,-9.454,-0.9,-3.293,5.32,0.35,1.54
,-9.277,-0.622,-3.235,-9.351,-0.816,-3.326,4.06,0.42,1.19
,-9.505,-0.565,-3.326,-9.414,-0.668,-3.424,2.94,0.21,1.33
16506.0,-9.536,-0.5,-3.577,-9.294,-0.409,-3.369,1.26,-1.47,0.7
,-9.385,-0.462,-3.668,-9.387,-0.366,-3.396,-2.52,-3.15,0.07
,-9.569,-0.536,-3.668,-9.395,-0.536,-3.065,-5.67,-4.97,-0.28
,-9.464,-0.67,-3.542,-9.112,-0.713,-3.283,-9.17,-8.54,-0.7
16582.0,-8.868,-0.842,-3.166,-9.584,-0.864,-3.154,-17.22,-12.6,0.07
,-8.949,-1.07,-3.118,-9.404,-0.376,-3.441,-14.0,-9.03,0.63
,-9.191,-1.268,-3.005,-9.407,-0.292,-3.422,-8.75,-6.02,1.12
,-9.39,-1.175,-3.005,-9.325,-0.579,-3.094,-3.78,-4.34,1.75
16658.0,-9.208,-0.596,-2.881,-9.409,-0.751,-2.63,-2.87,-4.97,2.73
,-9.397,-0.555,-2.52,-9.524,-0.876,-2.623,-2.45,-3.43,2.73
,-9.593,-0.663,-2.534,-9.686,-0.869,-2.728,-2.45,-2.31,2.52
,-9.505,-0.682,-2.692,-9.366,-0.639,-3.044,-2.31,-2.1,2.59
16733.0,-9.43,-0.294,-3.044,-9.225,-0.534,-2.154,-0.98,-3.92,5.18
,-9.249,0.163,-3.206,-9.789,-0.493,-2.06,-3.36,-5.11,4.27
,-9.107,0.28,-3.147,-9.966,-0.244,-2.283,-7.35,-4.48,3.22
,-9.139,-0.101,-2.63,-9.878,0.045,-2.929,-8.82,-1.68,2.87
16809.0,-9.292,0.072,-3.252,-9.27,-1.247,-3.094,-11.97,-2.24,2.38
,-9.189,-0.424,-3.391,-9.256,-0.919,-2.943,-16.24,-1.75,2.8
,-8.89,-1.082,-3.41,-9.533,-0.849,-2.429,-17.15,-0.77,3.29
,-8.882,-1.364,-3.02,-9.033,-0.893,-2.8,-12.11,1.61,4.13
16884.0,-9.012,-1.213,-2.603,-9.6,0.782,-3.242,4.06,8.47,7.42
,-9.454,-1.295,-2.623,-9.392,0.849,-3.539,10.64,11.27,8.75
,-9.813,-0.775,-2.302,-9.308,0.55,-3.386,18.06,11.13,9.31
,-9.567,0.079,-3.137,-9.433,0.12,-3.544,21.07,8.54,9.59
16960.0,-9.306,-0.323,-3.582,-9.253,-0.538,-2.383,2.73,8.05,5.32
,-9.196,-0.491,-3.448,-9.306,-0.287,-2.364,3.01,9.52,4.62
,-9.253,-0.601,-3.089,-9.73,0.199,-1.945,4.76,10.01,4.2
,-8.988,-0.706,-2.371,-9.995,1.11,-3.13,8.12,11.06,3.85
17036.0,-9.78,1.479,-3.57,-8.763,-1.881,-3.106,1.82,5.18,2.31
,-9.481,0.972,-3.637,-9.225,-2.115,-2.814,-8.82,5.32,1.19
,-9.007,0.237,-3.553,-9.409,-1.843,-2.558,-17.43,5.53,0.07
,-8.497,-0.924,-3.501,-9.533,-1.433,-2.639,-20.58,8.47,-0.28
17112.0,-9.672,-1.173,-2.795,-8.899,1.606,-4.647,15.96,16.1,4.48
,-9.485,-0.675,-3.049,-9.009,1.122,-4.377,20.16,14.35,5.81
,-9.524,0.196,-3.4,-8.966,-0.045,-3.905,21.14,12.67,6.58
,-8.928,1.208,-4.475,-8.993,-1.237,-3.374,18.69,10.08,6.3
17188.0,-9.217,-2.015,-3.139,-9.337,-0.677,-3.137,-8.82,15.26,5.04
,-9.064,-2.388,-2.807,-9.213,0.256,-3.467,-4.34,15.75,6.93
,-9.38,-2.123,-2.659,-9.275,0.9,-3.877,2.24,15.26,7.42
,-9.385,-1.598,-2.862,-9.371,1.249,-4.494,9.24,14.91,7.28
17263.0,-9.296,1.225,-4.585,-8.997,0.007,-3.561,9.38,13.3,7.28
,-9.21,0.983,-4.422,-9.225,-0.433,-3.329,5.74,14.07,5.81
,-9.222,0.668,-4.097,-9.354,-0.579,-3.654,3.22,14.63,4.83
,-8.926,0.378,-3.833,-9.227,-0.696,-3.97,2.31,15.4,4.62
17339.0,-9.227,-0.56,-4.099,-9.043,0.818,-4.326,9.1,12.53,3.85
,-9.167,-0.227,-4.08,-8.945,1.084,-4.647,11.9,12.46,3.92
,-9.253,0.223,-4.128,-8.904,0.957,-4.501,12.11,11.69,3.08
,-9.186,0.663,-4.374,-9.024,0.804,-4.334,9.73,10.99,2.31
17415.0,-9.153,0.347,-4.178,-8.988,-0.617,-4.08,-12.74,9.03,0.21
,-9.337,-0.139,-4.212,-9.055,-0.471,-3.836,-13.93,7.49,0.21
,-9.38,-0.653,-3.932,-9.22,-0.089,-4.046,-14.07,6.79,0.14
,-9.067,-0.531,-4.149,-9.189,0.268,-4.092,-9.1,7.14,-0.07
17491.0,-9.076,0.517,-4.281,-9.083,0.943,-4.52,5.25,6.44,-2.31
,-9.105,0.579,-4.343,-8.765,0.895,-4.295,1.82,5.6,-2.24
,-9.122,0.605,-4.405,-8.603,0.395,-4.166,-1.33,4.97,-2.38
,-9.229,0.804,-4.472,-8.909,-0.093,-4.472,-3.78,3.5,-3.57
17566.0,-9.148,-0.799,-4.235,-8.748,-2.455,-3.848,-15.96,0.84,-4.27
,-9.103,-1.821,-4.037,-8.672,-1.78,-3.843,-16.8,1.82,-1.54
,-8.909,-2.503,-4.025,-8.832,-0.684,-4.054,-14.28,2.17,1.33
,-8.665,-2.893,-3.975,-9.052,0.311,-4.324,-8.05,3.57,3.36
17642.0,-9.234,1.046,-4.288,-8.476,-0.531,-3.62,10.99,3.85,4.97
,-9.438,1.285,-4.008,-8.844,-1.079,-3.235,2.52,2.87,4.41
,-9.083,1.06,-4.106,-9.529,-1.106,-3.142,-5.81,2.1,4.27
,-8.447,0.325,-4.03,-9.536,-0.89,-3.259,-11.06,4.55,4.9
17717.0,-9.864,-0.44,-3.128,-8.519,-0.44,-4.398,14.42,5.6,4.41
,-9.165,0.213,-4.2,-9.019,-0.754,-4.281,16.87,2.66,4.97
,-8.368,0.014,-4.798,-9.859,-0.857,-4.324,16.03,3.64,5.25
,-8.471,-0.263,-4.618,-9.682,-0.756,-4.298,14.91,6.16,6.16
17793.0,-9.213,-0.328,-4.044,-8.775,0.672,-4.654,21.91,7.0,5.53
,-8.66,-0.026,-4.547,-8.89,0.622,-4.786,20.51,5.95,6.09
,-8.334,0.038,-4.621,-8.952,0.512,-4.788,17.92,7.49,5.95
,-8.425,0.357,-4.743,-9.167,0.242,-4.465,16.17,9.03,5.32
17869.0,-8.976,0.175,-4.719,-9.088,0.141,-4.25,4.76,5.39,7.0
,-9.064,0.211,-4.793,-8.765,0.407,-4.319,5.67,4.83,5.67
,-9.318,0.268,-4.669,-8.55,0.713,-4.786,7.0,5.74,4.97
,-9.184,0.141,-4.458,-8.698,0.768,-4.709,7.56,5.53,3.57
17945.0,-9.045,0.625,-4.597,-8.868,-0.077,-4.712,2.45,5.6,0.63
,-9.215,0.433,-4.769,-9.005,-0.127,-4.831,0.56,4.83,0.14
,-9.062,0.23,-4.841,-9.146,-0.007,-4.685,-0.07,5.04,-0.28
,-8.988,0.0,-4.628,-9.16,0.158,-4.812,-0.49,5.32,-0.56
18020.0,-8.94,0.153,-4.836,-9.016,0.057,-5.049,-0.7,6.16,-0.63
,-8.765,-0.089,-4.898,-9.225,0.034,-4.965,-1.82,5.88,-0.35
,-8.756,-0.294,-4.872,-9.328,0.134,-4.862,-2.24,5.39,0.07
,-8.856,-0.191,-4.896,-8.794,-0.184,-5.011,-1.47,5.04,0.14
18096.0,-8.624,-0.68,-4.891,-9.22,-0.077,-5.004,-6.09,0.84,0.28
,-8.873,-0.821,-4.992,-9.026,-0.022,-5.068,-4.83,0.7,0.91
,-9.225,-0.577,-5.027,-8.854,-0.129,-4.865,-2.1,-0.21,1.4
,-9.229,-0.292,-5.231,-8.794,-0.364,-4.671,0.63,-1.26,1.12
18172.0,-8.614,-0.378,-4.618,-8.988,-0.048,-4.769,-2.59,-3.57,1.33
,-8.614,-0.268,-4.721,-8.954,-0.237,-4.606,-1.54,-3.57,1.61
,-8.653,-0.213,-4.702,-8.949,-0.55,-4.348,1.05,-3.5,1.33
,-9.038,-0.148,-4.575,-9.306,-0.383,-4.42,2.17,-4.76,1.19
18248.0,-9.002,-0.512,-4.523,-8.878,-0.024,-4.355,6.3,-7.77,0.14
,-8.849,-0.364,-4.511,-8.918,0.007,-4.293,9.45,-7.35,-0.63
,-8.758,-0.012,-4.592,-8.926,-0.218,-4.374,11.55,-7.21,-0.63
,-8.792,0.172,-4.487,-9.05,-0.189,-4.145,11.83,-7.0,-0.42
18324.0,-9.232,-0.182,-3.977,-8.894,-0.098,-4.221,13.65,-5.67,-0.07
,-9.244,0.043,-3.862,-9.244,-0.146,-4.056,14.21,-7.77,0.07
,-8.701,0.077,-4.116,-9.11,-0.007,-4.056,14.49,-8.54,0.28
,-8.737,0.105,-4.185,-8.978,0.11,-3.886,14.35,-8.4,0.7
18399.0,-9.124,0.426,-3.8,-8.875,-0.036,-4.027,14.63,-7.49,-1.05
,-9.0,0.608,-4.111,-8.947,-0.33,-4.027,11.55,-9.1,-0.49
,-8.811,0.479,-4.078,-9.117,-0.488,-3.857,8.26,-9.17,-0.28
,-8.88,0.34,-4.099,-9.296,-0.256,-3.934,5.53,-8.68,0.07
18475.0,-9.16,-0.026,-3.97,-9.282,-0.424,-3.924,10.78,-6.16,-1.4
,-9.019,-0.409,-3.97,-8.83,-0.395,-4.188,8.54,-6.58,-1.47
,-8.942,-0.323,-3.934,-8.662,-0.479,-3.994,7.7,-6.44,-0.91
,-9.15,-0.546,-3.649,-8.856,-0.522,-3.829,8.05,-7.0,-0.56
18550.0,-9.062,-0.464,-3.654,-9.335,0.196,-3.934,7.91,-6.65,1.61
,-9.172,-0.132,-3.843,-9.368,-0.227,-3.582,9.94,-7.42,1.89
,-9.072,0.175,-4.008,-9.04,-0.39,-3.482,10.71,-7.84,2.1
,-9.232,0.395,-3.994,-8.985,-0.261,-3.721,9.31,-7.28,2.1
18626.0,-9.148,-0.005,-3.716,-9.117,-0.11,-3.408,5.18,-7.84,0.35
,-9.067,0.007,-3.862,-9.34,-0.124,-3.257,4.06,-9.45,0.49
,-9.072,-0.11,-3.745,-9.452,-0.048,-3.396,2.45,-9.59,0.49
,-9.122,-0.11,-3.484,-9.385,0.045,-3.441,2.1,-8.61,0.07
18702.0,-9.203,0.0,-3.592,-9.016,0.127,-3.649,2.52,-4.41,-0.21
,-9.033,-0.141,-3.443,-9.033,0.127,-3.57,2.17,-2.73,-0.21
,-8.988,-0.251,-3.398,-9.316,-0.101,-3.601,4.06,-0.7,-0.7
,-9.16,-0.17,-3.4,-9.287,-0.488,-3.637,6.16,0.14,-1.47
18778.0,-9.371,-0.735,-3.398,-9.287,0.132,-3.496,0.28,-1.96,-1.82
,-9.22,-0.699,-3.226,-9.036,0.014,-3.637,2.1,-2.17,-1.96
,-9.155,-0.4,-3.568,-9.033,-0.263,-3.458,3.99,-3.43,-2.24
,-9.143,-0.045,-3.64,-9.184,-0.4,-3.455,4.27,-4.13,-2.38
18853.0,-9.375,-0.488,-3.398,-9.141,-0.457,-3.333,-1.75,-4.55,-3.08
,-9.481,-0.349,-3.336,-9.196,-0.538,-3.192,0.07,-4.69,-3.08
,-9.316,-0.227,-3.41,-9.392,-0.392,-3.216,-0.77,-4.69,-2.94
,-9.17,-0.206,-3.384,-9.445,-0.194,-3.556,-1.4,-4.13,-2.94
18929.0,-9.316,-0.05,-3.86,-9.201,-0.187,-3.518,1.61,-2.45,-1.47
,-9.06,0.129,-4.118,-9.533,-0.22,-3.374,0.77,-2.87,-1.54
,-8.873,0.12,-4.245,-9.445,-0.29,-3.429,-0.56,-3.5,-2.03
,-9.038,-0.043,-3.96,-9.229,-0.225,-3.405,-1.26,-3.29,-2.38
19005.0,-9.21,-0.369,-3.355,-9.313,-0.333,-3.563,-3.22,-5.18,-3.5
,-9.246,-0.682,-3.204,-9.201,-0.165,-3.436,-2.73,-4.13,-2.8
,-9.332,-0.878,-3.192,-9.225,-0.218,-3.453,-0.63,-3.92,-3.01
,-9.351,-0.675,-3.278,-9.323,-0.208,-3.417,1.68,-4.2,-2.94
19081.0,-9.409,-0.11,-3.257,-9.387,-0.416,-3.139,5.25,-3.08,-2.8
,-9.39,-0.034,-3.125,-9.28,-0.383,-3.247,3.99,-3.43,-3.08
,-9.375,-0.22,-3.154,-9.177,-0.416,-3.305,1.89,-3.64,-3.43
,-9.366,-0.4,-2.994,-9.244,-0.493,-3.252,1.61,-3.71,-3.71
19156.0,-9.284,-0.567,-3.202,-9.155,-0.354,-3.128,1.96,-3.57,-3.5
,-9.387,-0.476,-3.147,-9.217,-0.452,-2.852,3.08,-3.36,-3.36
,-9.423,-0.366,-3.436,-9.323,-0.495,-2.821,3.36,-3.99,-3.57
,-9.182,-0.309,-3.405,-9.371,-0.313,-2.759,2.87,-4.06,-3.5
19232.0,-9.464,-0.23,-2.551,-9.344,-0.806,-2.953,4.62,-0.91,-4.13
,-9.689,-0.414,-2.934,-9.438,-0.876,-2.891,2.17,-1.47,-4.9
,-9.426,-0.586,-3.065,-9.512,-0.558,-3.175,0.14,-1.54,-5.04
,-9.328,-0.735,-2.936,-9.457,-0.23,-3.367,0.35,-0.63,-4.06
19308.0,-9.318,-0.12,-3.565,-9.361,-0.388,-3.297,5.88,0.7,-3.36
,-9.191,-0.148,-3.812,-9.328,-0.536,-3.096,4.76,0.07,-3.99
,-9.091,-0.199,-3.613,-9.418,-0.725,-2.759,4.13,0.0,-4.34
,-9.172,-0.287,-3.446,-9.438,-0.936,-2.422,4.13,0.07,-4.76
19383.0,-9.375,-1.027,-2.355,-9.217,-0.766,-2.783,-0.77,1.33,-4.97
,-9.39,-0.964,-2.343,-9.206,-0.857,-2.845,-0.07,2.03,-4.62
,-9.397,-0.809,-2.455,-9.167,-0.936,-3.08,-0.28,2.87,-3.99
,-9.296,-0.668,-2.644,-9.237,-0.802,-3.183,-0.63,3.57,-3.43
19459.0,-9.366,-0.553,-3.285,-9.15,-0.749,-3.659,5.18,6.16,-1.12
,-9.531,-0.359,-3.563,-9.186,-0.859,-3.477,4.83,5.67,-1.33
,-9.435,-0.402,-3.747,-9.304,-0.751,-3.331,3.15,5.04,-1.61
,-9.253,-0.57,-3.695,-9.478,-0.562,-3.312,1.4,4.41,-1.82
19535.0,-9.373,-0.629,-3.262,-9.229,-0.751,-3.216,-0.42,3.29,-2.31
,-9.244,-0.835,-3.061,-9.366,-0.589,-3.398,-1.26,3.85,-1.89
,-9.158,-0.943,-3.144,-9.409,-0.543,-3.704,-0.77,4.13,-1.89
,-9.201,-0.928,-3.142,-9.306,-0.625,-4.054,0.35,4.41,-1.75
19611.0,-9.098,-0.835,-4.133,-9.318,-0.507,-3.62,-2.87,2.03,-1.19
,-8.983,-0.962,-4.027,-9.397,-0.433,-3.616,-1.05,1.96,-0.84
,-9.184,-0.869,-4.025,-9.349,-0.51,-3.862,1.61,1.61,-0.77
,-9.284,-0.648,-3.79,-9.179,-0.737,-3.951,2.8,1.12,-0.7
19686.0,-9.103,-0.962,-3.912,-9.335,-0.658,-3.077,-1.89,-2.24,-0.98
,-9.131,-1.007,-3.731,-9.359,-0.718,-3.034,0.49,-2.31,-0.63
,-9.155,-0.943,-3.515,-9.33,-0.854,-2.903,3.01,-2.31,-0.35
,-9.263,-0.739,-3.285,-9.28,-0.952,-2.771,4.41,-2.38,-0.07
19762.0,-9.275,-0.926,-2.795,-9.387,-0.625,-3.032,4.27,-0.77,1.05
,-9.33,-0.864,-2.788,-9.399,-0.605,-3.151,5.11,-0.07,1.33
,-9.423,-0.711,-2.804,-9.351,-0.67,-3.36,5.25,0.42,1.47
,-9.462,-0.56,-2.955,-9.342,-0.639,-3.549,4.9,0.63,1.47
19838.0,-9.359,-0.632,-3.75,-9.325,-0.766,-3.508,2.73,0.91,1.05
,-9.277,-0.699,-3.711,-9.337,-0.775,-3.34,2.73,0.7,0.98
,-9.256,-0.749,-3.757,-9.337,-0.739,-3.206,2.94,0.49,0.98
,-9.225,-0.809,-3.616,-9.337,-0.751,-3.166,3.43,0.0,0.98
19914.0,-9.354,-0.692,-3.12,-9.332,-0.794,-3.082,3.43,0.0,1.54
,-9.354,-0.644,-3.161,-9.392,-0.713,-3.027,3.36,-0.07,1.54
,-9.344,-0.708,-3.108,-9.502,-0.55,-3.29,3.08,0.21,1.68
,-9.237,-0.814,-3.084,-9.378,-0.514,-3.41,3.01,0.56,1.82
19989.0,-9.222,-0.634,-3.518,-9.323,-0.67,-3.326,1.96,0.28,1.61
,-9.246,-0.761,-3.479,-9.306,-0.677,-3.235,2.17,0.35,1.4
,-9.349,-0.811,-3.384,-9.304,-0.684,-3.273,3.29,0.35,1.54
,-9.33,-0.759,-3.374,-9.342,-0.601,-3.271,4.27,0.07,1.68
20065.0,-9.282,-0.603,-3.259,-9.354,-0.677,-3.331,4.9,-0.49,1.82
,-9.349,-0.665,-3.324,-9.363,-0.653,-3.331,4.55,-0.35,1.89
,-9.349,-0.732,-3.317,-9.397,-0.704,-3.417,4.69,-0.42,1.96
,-9.359,-0.711,-3.266,-9.313,-0.622,-3.446,4.9,-0.56,1.96
20140.0,-9.282,-0.584,-3.419,-9.275,-0.861,-2.752,3.29,-1.54,1.26
,-9.332,-0.656,-3.319,-9.411,-0.806,-2.907,2.8,-1.68,1.26
,-9.344,-0.665,-3.218,-9.545,-0.737,-2.941,2.73,-1.47,1.33
,-9.299,-0.739,-3.044,-9.45,-0.586,-2.974,2.87,-1.26,1.4
20216.0,-9.435,-0.5,-3.151,-9.658,-0.591,-3.463,5.53,-0.42,1.82
,-9.361,-0.495,-3.245,-9.452,-0.491,-3.503,4.27,-0.49,1.54
,-9.366,-0.61,-3.343,-9.368,-0.443,-3.446,3.78,-0.28,1.54
,-9.517,-0.517,-3.391,-9.447,-0.474,-3.408,3.57,-1.05,1.26
20292.0,-9.526,-0.529,-3.405,-9.225,-1.084,-3.096,-2.38,-7.77,-0.14
,-9.447,-0.407,-3.321,-9.289,-1.17,-2.95,-3.71,-9.24,-0.14
,-9.318,-0.464,-3.264,-9.38,-1.077,-2.886,-5.81,-10.22,-0.28
,-9.244,-0.78,-3.204,-9.548,-0.804,-2.773,-7.21,-9.87,0.14
20368.0,-9.38,-0.584,-2.726,-9.481,-0.572,-2.292,4.06,-6.79,2.38
,-9.301,-0.337,-2.596,-9.454,-0.57,-2.613,3.5,-5.95,2.45
,-9.368,-0.424,-2.481,-9.38,-0.68,-2.776,1.75,-5.11,1.89
,-9.368,-0.359,-2.644,-9.337,-0.744,-3.178,-0.28,-3.78,1.47
20444.0,-9.383,-0.845,-2.927,-9.579,-0.122,-2.941,-3.85,-1.05,1.54
,-9.383,-0.696,-2.831,-9.476,-0.153,-2.9,-1.75,-0.56,1.68
,-9.433,-0.519,-2.687,-9.292,-0.421,-2.824,0.0,0.14,1.61
,-9.576,-0.313,-2.613,-9.22,-1.015,-2.438,0.63,0.35,1.33
20519.0,-9.217,-1.409,-1.893,-9.469,-0.065,-3.142,-6.23,3.43,1.68
,-9.55,-1.271,-1.792,-9.227,-0.163,-2.982,-1.54,4.69,2.17
,-9.689,-0.766,-2.225,-9.222,-0.438,-3.171,1.61,4.34,2.38
,-9.651,-0.261,-2.867,-9.215,-0.605,-3.128,0.84,2.73,2.59
20595.0,-9.191,-0.605,-3.041,-9.548,-0.491,-1.517,-3.57,5.25,2.87
,-9.11,-0.613,-2.666,-9.775,-0.103,-2.034,-1.96,7.56,2.94
,-9.318,-0.787,-2.28,-9.541,-0.055,-2.8,-0.42,10.08,3.08
,-9.459,-0.782,-1.864,-9.536,-0.407,-3.312,2.1,12.53,2.8
20671.0,-9.375,-0.986,-3.477,-9.213,-0.682,-3.467,-9.59,7.77,5.32
,-8.926,-1.541,-3.728,-9.361,-0.328,-3.463,-6.65,10.22,5.46
,-8.868,-1.627,-3.436,-9.208,-0.057,-2.814,0.63,12.18,5.25
,-9.127,-1.17,-3.465,-9.502,0.27,-2.608,8.47,12.6,4.97
20747.0,-9.627,0.354,-2.737,-9.083,-0.852,-3.242,13.72,13.3,4.13
,-9.928,0.357,-3.058,-9.263,-0.912,-3.338,8.96,10.85,3.64
,-9.545,-0.026,-3.408,-9.407,-0.713,-3.695,3.57,8.75,3.71
,-9.086,-0.526,-3.369,-9.27,-0.438,-4.03,1.4,9.24,4.06
20822.0,-9.019,-0.57,-4.073,-9.447,-0.419,-3.781,3.92,9.66,3.92
,-9.124,-0.66,-3.427,-9.294,-0.873,-3.491,3.57,9.87,4.2
,-9.287,-0.404,-3.766,-8.904,-1.649,-3.022,4.83,8.61,3.43
,-9.509,-0.342,-3.671,-9.052,-1.984,-2.606,4.9,7.14,2.66
20898.0,-8.966,-1.788,-2.764,-9.294,1.182,-3.254,5.53,11.06,5.18
,-9.28,-1.053,-2.625,-9.411,1.283,-3.532,12.39,12.18,5.6
,-9.34,-0.05,-2.977,-9.404,1.053,-3.486,15.47,12.53,5.88
,-9.225,0.613,-3.195,-9.488,0.541,-3.671,13.58,13.16,6.02
20973.0,-9.485,-0.007,-3.845,-8.679,-1.742,-3.35,-4.48,10.85,0.7
,-9.476,-0.481,-3.869,-8.921,-1.881,-3.336,-2.94,10.92,0.56
,-9.052,-0.828,-3.891,-9.433,-1.625,-3.106,-0.07,12.04,0.91
,-8.722,-1.35,-3.486,-9.304,-0.857,-3.525,2.87,14.7,2.03
21049.0,-9.194,-0.048,-3.716,-9.122,0.567,-4.018,18.55,16.45,4.13
,-9.129,0.55,-3.857,-9.251,0.057,-3.932,14.49,15.82,3.15
,-9.064,0.854,-4.164,-9.576,-0.409,-3.762,8.4,14.7,2.52
,-8.995,0.816,-4.001,-9.141,-0.893,-3.972,1.82,14.49,2.45
21125.0,-8.856,-1.232,-3.743,-8.971,-0.598,-3.924,-2.17,13.86,3.01
,-8.959,-1.304,-3.484,-9.0,0.034,-4.2,3.43,14.63,2.94
,-9.052,-1.158,-3.644,-9.241,0.469,-4.317,7.91,14.7,3.08
,-9.081,-0.991,-3.716,-9.213,0.637,-4.348,10.85,14.0,4.06
21201.0,-8.981,0.488,-4.444,-9.06,-0.498,-4.255,-0.98,12.46,2.38
,-8.878,0.278,-4.367,-8.973,-0.639,-4.267,-5.18,12.95,2.52
,-9.019,0.074,-4.403,-8.988,-0.51,-4.348,-8.05,11.83,2.31
,-9.095,-0.33,-4.298,-9.026,-0.586,-4.539,-9.8,10.78,2.03
21276.0,-9.129,-0.615,-4.525,-8.976,0.94,-4.815,0.0,8.75,3.64
,-9.04,-0.57,-4.518,-8.873,0.955,-4.927,1.96,8.12,3.5
,-8.969,-0.012,-4.59,-8.88,0.56,-4.688,5.6,7.84,2.31
,-9.007,0.644,-4.704,-9.038,-0.098,-4.231,7.07,6.58,0.56
21352.0,-8.854,-0.79,-4.262,-9.007,-1.835,-4.226,-16.66,6.02,2.31
,-8.868,-1.553,-4.082,-8.581,-1.443,-4.405,-16.31,6.58,4.34
,-8.849,-1.977,-3.967,-8.445,-1.115,-4.673,-12.46,6.44,6.51
,-9.11,-2.127,-4.025,-8.799,-0.672,-4.353,-7.7,5.88,8.05
21428.0,-8.93,0.045,-4.551,-9.081,0.325,-4.223,8.68,5.46,10.08
,-9.153,0.565,-4.398,-8.837,-0.108,-4.298,7.28,5.46,9.24
,-9.256,0.838,-4.472,-8.854,-0.543,-4.109,3.78,5.67,9.17
,-9.103,0.646,-4.288,-8.945,-0.436,-4.487,-0.84,5.04,8.54
21504.0,-9.093,-0.349,-4.372,-8.911,0.732,-4.269,7.98,4.41,6.86
,-9.313,0.28,-4.649,-8.82,0.766,-4.594,14.91,3.36,5.39
,-9.11,0.625,-4.625,-8.677,0.522,-4.633,17.01,2.87,4.41
,-9.0,0.715,-4.582,-8.995,0.337,-4.683,16.24,2.8,3.64
21580.0,-9.313,0.215,-4.834,-8.882,-0.412,-4.831,5.46,1.96,0.28
,-8.93,0.002,-4.733,-8.909,-0.806,-4.762,5.6,2.52,-0.56
,-8.949,-0.177,-4.635,-8.885,-1.01,-4.585,6.72,2.38,-0.84
,-8.875,-0.179,-4.755,-8.904,-0.962,-4.518,7.77,1.89,-0.14
21655.0,-8.813,-0.881,-4.499,-8.739,0.553,-4.518,10.43,0.28,4.27
,-8.732,-0.763,-4.554,-8.741,0.926,-4.305,10.85,0.63,4.83
,-8.93,-0.522,-4.36,-8.811,0.861,-4.42,11.69,1.12,5.53
,-8.887,0.031,-4.544,-8.851,0.256,-4.223,12.67,0.63,5.6
21731.0,-9.062,-0.225,-4.034,-8.981,0.9,-4.314,1.19,2.24,3.92
,-9.289,-0.098,-4.166,-9.074,1.091,-4.683,3.64,2.66,4.41
,-8.976,0.194,-4.369,-9.072,0.737,-4.692,6.51,2.94,4.06
,-8.837,0.517,-4.267,-8.961,0.505,-4.836,7.84,4.13,2.94
21806.0,-8.82,0.376,-4.8,-8.923,-0.103,-4.623,-1.96,3.29,-0.28
,-8.823,0.22,-4.776,-8.502,-0.12,-4.642,-2.52,4.62,-1.4
,-8.949,-0.074,-4.458,-8.504,-0.141,-4.838,-3.01,5.6,-2.38
,-9.076,-0.196,-4.389,-8.906,-0.299,-4.937,-2.52,5.32,-2.52
21882.0,-9.186,-0.503,-4.846,-8.971,-0.223,-4.353,-3.64,5.74,-0.28
,-9.153,-0.519,-4.673,-8.77,-0.103,-4.628,-2.1,6.09,-0.56
,-9.122,-0.29,-4.52,-8.686,0.055,-4.697,-0.49,5.95,-1.33
,-9.225,-0.117,-4.377,-8.894,0.33,-4.903,-0.84,5.11,-1.26
21958.0,-9.079,0.385,-4.862,-8.689,-0.646,-4.625,-3.01,3.57,-1.68
,-9.148,0.38,-4.867,-8.547,-1.287,-4.48,-2.73,2.87,-2.87
,-9.143,0.357,-4.759,-8.531,-1.687,-4.566,-2.45,2.17,-3.78
,-9.093,0.031,-4.53,-8.775,-1.524,-4.697,-4.83,0.56,-3.85
22034.0,-8.914,-1.06,-4.707,-8.662,-0.534,-4.702,6.16,1.96,3.22
,-8.933,-0.491,-4.858,-8.662,-0.522,-4.532,9.45,1.19,3.36
,-8.993,-0.447,-4.59,-8.851,-0.335,-4.525,7.28,0.98,3.64
,-8.918,-0.404,-4.786,-8.916,-0.086,-4.537,4.27,0.63,4.34
22109.0,-9.014,0.232,-4.872,-8.777,-0.01,-4.716,7.0,-1.26,4.13
,-9.081,0.318,-4.614,-8.94,-0.117,-4.611,6.93,-1.61,2.52
,-9.002,0.409,-4.669,-9.048,0.024,-4.659,5.95,-2.24,1.75
,-8.729,0.244,-4.673,-9.014,0.096,-4.563,4.69,-1.89,1.54
22185.0,-8.911,0.223,-4.752,-8.794,-0.093,-4.664,11.2,-5.04,-1.19
,-8.897,-0.091,-4.544,-8.873,-0.225,-4.494,10.15,-5.04,-1.54
,-8.988,-0.098,-4.511,-9.05,-0.081,-4.444,9.45,-4.9,-1.26
,-8.875,-0.022,-4.733,-9.122,-0.079,-4.185,9.87,-4.76,-1.47
22260.0,-9.354,-0.151,-3.91,-8.61,0.086,-4.582,9.94,-4.69,-2.94
,-9.351,0.266,-4.247,-8.727,-0.376,-4.446,8.05,-8.26,-2.94
,-8.67,0.302,-4.791,-8.818,-0.67,-4.401,6.02,-8.89,-3.15
,-8.622,0.292,-4.602,-8.83,-0.964,-4.432,3.29,-8.89,-2.8
22336.0,-8.923,-0.83,-4.257,-9.002,0.086,-4.312,2.59,-8.05,-1.05
,-8.617,-0.529,-4.286,-8.873,0.22,-4.391,3.78,-8.26,-0.21
,-8.904,-0.648,-4.233,-9.131,0.208,-4.331,6.37,-7.42,-0.28
,-9.105,-0.297,-4.276,-9.253,0.201,-4.367,7.49,-7.63,0.42
22412.0,-9.284,0.156,-4.3,-8.667,0.129,-4.128,2.73,-8.75,0.35
,-9.368,0.081,-4.07,-8.99,0.333,-4.171,2.24,-10.5,-1.05
,-9.033,0.053,-4.128,-9.167,0.239,-4.171,1.68,-11.83,-1.61
,-8.593,0.024,-4.159,-9.103,0.282,-4.207,2.24,-11.34,-1.4
22488.0,-9.009,0.239,-4.173,-9.134,0.112,-3.704,7.07,-6.44,-3.15
,-8.969,0.019,-3.905,-9.182,0.158,-3.668,7.42,-4.41,-3.29
,-8.911,-0.196,-3.86,-9.32,0.175,-3.745,9.66,-2.17,-3.5
,-9.024,-0.089,-3.649,-9.56,0.017,-3.683,12.6,-0.84,-3.71
22564.0,-9.385,0.069,-3.912,-8.959,-0.412,-3.922,4.06,-6.3,-4.55
,-8.82,0.136,-4.279,-9.064,-0.644,-3.814,1.68,-7.63,-5.04
,-8.66,0.079,-4.14,-9.122,-0.79,-3.743,-0.07,-7.0,-5.53
,-8.782,-0.093,-4.106,-9.033,-1.098,-3.606,-1.96,-6.79,-6.3
22639.0,-9.038,-1.153,-3.877,-9.332,-0.239,-3.69,0.98,-7.07,-6.51
,-9.06,-1.043,-3.857,-9.325,-0.208,-3.778,3.5,-6.86,-4.9
,-9.182,-0.596,-3.853,-9.198,-0.357,-3.783,6.65,-6.86,-3.78
,-9.222,-0.349,-3.793,-9.033,-0.754,-3.656,7.42,-7.07,-3.85
22715.0,-9.06,-0.888,-3.527,-9.045,-0.641,-3.453,0.21,-7.42,-3.43
,-9.098,-0.782,-3.455,-9.136,-0.605,-3.223,3.85,-7.35,-3.08
,-9.05,-0.725,-3.637,-9.311,-0.462,-3.276,5.6,-8.33,-3.01
,-8.897,-0.668,-3.467,-9.265,-0.12,-3.178,6.3,-8.26,-2.17
22791.0,-9.246,-0.036,-3.116,-9.277,-0.392,-2.982,6.86,-7.21,-1.89
,-9.136,-0.072,-3.312,-9.399,-0.498,-2.917,4.34,-7.35,-2.66
,-9.134,-0.134,-3.405,-9.407,-0.581,-2.694,2.8,-7.42,-3.22
,-9.141,-0.251,-3.264,-9.34,-0.364,-2.924,2.38,-6.93,-2.8
22867.0,-9.22,-0.328,-3.108,-9.115,-0.907,-3.549,2.24,-4.69,-3.85
,-9.17,-0.491,-3.111,-9.167,-0.763,-3.393,-0.14,-4.27,-4.06
,-9.17,-0.811,-3.503,-9.246,-0.763,-3.46,-1.19,-4.62,-3.85
,-9.15,-0.89,-3.53,-9.225,-0.605,-3.065,-0.35,-4.55,-2.87
22942.0,-9.368,-0.483,-2.958,-9.725,0.38,-3.812,7.91,-1.54,-1.4
,-9.337,-0.354,-2.989,-9.143,0.115,-3.733,6.86,-1.75,-2.1
,-9.368,-0.146,-2.905,-9.048,-0.357,-3.678,6.02,-1.61,-2.52
,-9.67,0.22,-3.068,-8.94,-1.11,-3.515,5.11,-2.17,-3.29
23018.0,-9.05,-1.517,-3.116,-9.344,-0.833,-2.613,-3.85,-1.75,-5.53
,-9.373,-1.278,-2.898,-9.229,-0.871,-2.682,2.31,-1.05,-4.48
,-9.481,-0.957,-2.656,-9.237,-0.895,-2.735,3.57,-1.19,-3.64
,-9.385,-0.771,-2.601,-9.304,-0.756,-3.001,2.45,-0.84,-3.29
23093.0,-9.34,-0.579,-3.331,-9.411,-0.407,-3.475,1.68,2.24,-1.89
,-9.301,-0.421,-3.412,-9.478,-0.373,-3.754,1.54,2.31,-1.96
,-9.191,-0.443,-3.494,-9.385,-0.313,-3.865,1.4,2.31,-1.82
,-9.229,-0.476,-3.362,-9.237,-0.512,-3.843,1.61,2.59,-1.96
23169.0,-9.213,-0.943,-3.862,-9.079,-0.567,-3.673,-2.94,0.0,-3.43
,-9.189,-1.244,-3.893,-9.179,-0.637,-3.419,-0.49,-0.07,-3.01
,-9.263,-1.113,-3.939,-9.368,-0.814,-3.36,3.43,-0.7,-2.45
,-9.237,-0.799,-3.731,-9.373,-1.074,-3.297,6.51,-0.98,-2.17
23245.0,-9.158,-1.156,-3.072,-9.366,-0.364,-3.01,5.04,-1.05,-0.91
,-9.086,-1.204,-2.814,-9.22,-0.469,-3.206,8.19,0.28,-0.42
,-9.227,-0.964,-2.69,-9.143,-0.73,-3.206,10.78,1.19,-0.14
,-9.392,-0.534,-2.809,-9.203,-0.95,-3.111,11.55,1.05,-0.07
23321.0,-9.344,-0.94,-3.063,-9.194,-0.749,-3.137,8.19,2.87,0.14
,-9.433,-0.677,-3.113,-9.208,-1.012,-2.938,8.75,2.94,0.14
,-9.442,-0.498,-3.314,-9.385,-1.017,-2.986,7.63,2.59,-0.21
,-9.275,-0.517,-3.314,-9.361,-0.68,-3.233,5.25,2.59,-0.49
23396.0,-9.313,-0.529,-3.297,-9.323,-0.847,-3.506,5.67,3.71,-0.07
,-9.213,-0.541,-3.262,-9.229,-0.969,-3.546,3.99,3.92,-0.21
,-9.32,-0.629,-3.293,-9.227,-1.096,-3.503,2.66,3.99,-0.77
,-9.337,-0.754,-3.477,-9.256,-1.007,-3.613,1.4,3.92,-1.12
23472.0,-9.229,-0.871,-3.795,-9.407,-0.962,-3.589,5.18,3.22,-0.07
,-9.143,-0.751,-3.877,-9.399,-0.708,-3.714,4.83,2.73,0.21
,-9.215,-0.821,-3.855,-9.323,-0.634,-3.898,3.92,2.73,0.42
,-9.318,-1.007,-3.759,-9.21,-0.756,-3.958,3.92,2.66,0.63
23548.0,-9.172,-0.94,-3.845,-9.289,-0.943,-3.467,0.63,-0.28,0.14
,-9.234,-1.062,-3.776,-9.28,-0.938,-3.408,1.61,-0.63,0.35
,-9.217,-1.053,-3.678,-9.287,-0.833,-3.439,3.15,-0.63,0.7
,-9.249,-0.986,-3.544,-9.22,-0.861,-3.451,4.34,-0.63,0.91
23624.0,-9.186,-0.907,-3.482,-9.299,-0.847,-3.221,3.99,-1.82,1.61
,-9.244,-0.921,-3.484,-9.316,-0.72,-3.238,4.27,-1.68,1.68
,-9.275,-0.986,-3.381,-9.318,-0.694,-3.324,5.25,-1.54,1.96
,-9.225,-0.967,-3.259,-9.268,-0.605,-3.41,5.88,-1.33,2.24
23700.0,-9.241,-0.727,-3.451,-9.32,-0.818,-3.29,2.59,-1.89,1.68
,-9.261,-0.859,-3.41,-9.284,-0.852,-3.144,2.31,-1.68,1.47
,-9.385,-0.907,-3.429,-9.268,-0.871,-3.061,2.66,-1.75,1.4
,-9.289,-0.852,-3.422,-9.337,-0.852,-3.096,2.94,-1.96,1.4
23775.0,-9.294,-0.864,-2.965,-9.524,-0.861,-3.154,4.55,-1.05,2.24
,-9.368,-0.833,-3.128,-9.572,-0.739,-3.151,4.9,-0.77,2.31
,-9.34,-0.775,-3.077,-9.698,-0.656,-3.235,4.97,-0.35,2.52
,-9.45,-0.742,-3.111,-9.294,-0.546,-3.242,4.76,-0.21,2.38
23851.0,-9.0,-0.548,-3.276,-9.452,-0.823,-3.283,-7.0,-9.87,1.4
,-9.069,-0.725,-3.24,-9.304,-0.603,-3.668,-7.28,-7.56,1.19
,-9.136,-1.01,-3.142,-9.359,-0.625,-3.64,-5.32,-5.25,1.33
,-9.409,-1.007,-3.163,-9.39,-0.613,-3.587,-2.17,-3.71,1.54
23926.0,-9.284,-0.637,-3.565,-9.445,-0.605,-2.663,-1.33,-5.74,1.82
,-9.332,-0.653,-3.317,-9.294,-0.596,-2.611,-1.68,-5.67,1.47
,-9.282,-0.567,-3.125,-9.445,-0.574,-2.599,-2.17,-5.39,1.26
,-9.332,-0.558,-2.917,-9.629,-0.299,-2.84,-2.94,-4.97,0.91
24002.0,-9.497,-0.199,-3.137,-9.423,-0.821,-3.005,-8.19,-4.76,-0.35
,-9.337,-0.187,-3.147,-9.569,-0.809,-3.264,-9.73,-3.99,-0.35
,-9.217,-0.493,-3.051,-9.861,-0.828,-3.326,-10.64,-2.45,-0.14
,-9.27,-0.802,-3.01,-9.512,-0.861,-3.788,-9.8,-0.91,-0.35
24078.0,-9.093,-1.036,-3.944,-9.34,-0.782,-3.391,-3.64,-3.71,0.14
,-9.294,-1.237,-3.685,-9.407,-0.648,-3.173,-3.22,-3.92,0.21
,-9.397,-1.208,-3.58,-9.538,-0.56,-3.065,-1.61,-4.9,0.35
,-9.316,-1.062,-3.498,-9.474,-0.469,-2.986,0.21,-5.18,0.63
24154.0,-9.622,-0.519,-3.149,-9.44,-0.998,-2.56,-1.4,-4.76,0.77
,-9.433,-0.672,-3.139,-9.505,-0.742,-2.479,-3.01,-6.51,1.12
,-9.127,-0.778,-3.137,-9.433,-0.495,-2.419,-3.71,-6.65,1.33
,-9.177,-0.933,-2.931,-9.39,-0.546,-2.149,-2.8,-5.46,1.33
24229.0,-9.5,-0.706,-1.957,-9.258,-0.924,-2.197,-1.4,-1.12,2.17
,-9.569,-0.854,-2.06,-9.27,-1.007,-1.828,-1.68,-0.98,2.45
,-9.514,-0.981,-1.948,-9.316,-1.007,-1.914,-1.89,-0.56,3.15
,-9.407,-0.864,-2.132,-9.43,-0.967,-2.558,-1.75,0.0,3.43
24305.0,-9.351,-0.995,-2.742,-9.069,-1.034,-1.61,-1.96,3.43,6.09
,-9.359,-1.067,-2.73,-9.555,-0.905,-1.488,-1.4,4.9,7.42
,-9.344,-1.103,-2.493,-9.148,-0.871,-1.565,0.49,6.79,7.91
,-9.143,-1.06,-2.154,-9.289,-0.897,-1.936,2.52,8.05,8.12
24381.0,-9.397,-1.022,-1.917,-9.215,-0.019,-3.3,4.34,14.0,11.9
,-9.562,-0.885,-2.149,-8.978,0.278,-3.379,6.09,14.56,12.67
,-9.363,-0.572,-2.704,-9.115,0.742,-3.376,9.45,15.54,12.74
,-9.39,-0.215,-3.13,-9.311,1.213,-3.604,11.76,16.87,12.74
24457.0,-9.373,1.615,-3.707,-9.273,0.292,-3.178,5.74,16.94,5.88
,-9.641,1.792,-4.027,-9.165,-0.337,-2.804,1.33,16.66,3.36
,-9.6,1.481,-3.869,-9.241,-0.732,-2.568,-3.64,15.89,1.54
,-9.438,0.979,-3.568,-9.189,-0.797,-2.675,-7.28,15.82,0.35
24532.0,-9.308,-0.873,-2.745,-9.38,-0.816,-3.415,-1.75,15.05,-1.89
,-9.529,-0.809,-3.123,-9.014,-0.885,-3.666,-1.96,14.91,-1.26
,-9.38,-0.83,-3.309,-9.033,-0.897,-3.946,-4.06,15.05,-0.56
,-9.232,-0.866,-3.259,-9.04,-0.986,-4.413,-4.97,15.89,0.49
24608.0,-9.014,-1.158,-4.587,-9.253,-1.943,-3.783,-12.18,8.54,2.45
,-9.043,-1.383,-4.671,-9.256,-1.632,-3.391,-10.85,10.57,3.57
,-8.921,-1.603,-4.403,-9.155,-1.352,-3.34,-7.14,12.81,4.97
,-9.131,-1.823,-4.116,-8.89,-1.156,-3.355,-2.17,14.07,6.79
24684.0,-8.961,-1.082,-3.288,-9.457,0.732,-4.085,13.44,17.43,12.74
,-9.009,-0.818,-3.25,-9.28,0.916,-4.135,14.63,17.29,13.93
,-9.217,-0.223,-3.683,-9.191,0.893,-4.29,16.03,15.96,14.07
,-9.385,0.294,-3.838,-9.117,0.601,-4.121,16.52,15.61,14.28
24759.0,-8.947,0.158,-4.183,-9.198,0.782,-3.917,4.34,13.09,10.71
,-8.744,-0.218,-3.912,-9.005,1.263,-4.054,3.99,14.63,10.15
,-9.016,-0.23,-3.692,-9.119,1.548,-4.015,6.44,15.68,8.82
,-9.16,0.168,-3.896,-9.198,1.577,-4.235,10.22,15.47,7.0
24835.0,-9.476,1.251,-4.025,-8.882,-0.452,-3.941,-4.62,12.39,0.07
,-9.397,0.94,-4.259,-9.055,-0.263,-4.168,-9.45,10.57,-1.12
,-8.99,0.486,-4.537,-8.94,-0.378,-4.403,-11.97,10.85,-2.03
,-8.882,-0.034,-4.257,-9.079,-0.369,-4.015,-11.83,12.04,-2.45
24911.0,-9.174,0.22,-3.951,-9.074,2.508,-4.585,0.84,9.59,-2.94
,-9.112,0.979,-4.491,-9.086,2.347,-4.025,2.1,8.54,-4.27
,-9.079,1.689,-4.681,-9.119,2.113,-3.778,1.61,8.26,-6.58
,-9.16,2.213,-4.695,-9.208,1.555,-3.69,-1.61,8.19,-9.1
24987.0,-8.981,0.684,-3.676,-8.698,-5.039,-4.269,-23.52,8.75,-17.01
,-8.844,-0.704,-3.558,-8.586,-4.843,-4.81,-24.5,9.66,-15.4
,-8.696,-2.347,-3.525,-8.471,-3.891,-5.257,-24.15,10.36,-11.41
,-8.521,-4.123,-3.905,-8.545,-2.704,-5.181,-19.88,11.76,-6.16
25062.0,-8.433,-1.771,-5.305,-8.861,-0.347,-4.745,30.38,10.92,4.34
,-8.684,-1.168,-5.095,-8.564,-0.306,-4.274,24.43,10.85,6.37
,-9.067,-0.943,-4.714,-8.559,0.388,-4.654,14.56,11.55,9.8
,-9.177,-0.574,-4.932,-8.693,1.039,-4.585,5.53,12.11,12.11
25138.0,-9.127,1.699,-4.853,-9.277,1.658,-5.08,8.12,11.13,6.09
,-9.215,1.972,-4.633,-9.072,0.962,-4.795,8.47,9.52,3.43
,-9.292,2.257,-4.937,-8.806,0.067,-4.64,8.26,8.4,0.56
,-9.325,2.087,-5.047,-8.739,-0.723,-4.487,8.47,7.35,-1.33
25214.0,-8.93,-1.125,-4.721,-8.528,-0.952,-4.922,9.31,6.72,-5.67
,-8.758,-1.627,-4.57,-8.634,-0.213,-5.14,10.78,6.72,-5.11
,-8.624,-1.857,-4.537,-8.698,0.055,-5.255,12.39,6.86,-4.13
,-8.571,-1.692,-4.403,-8.464,-0.168,-5.116,14.84,6.86,-3.43
25290.0,-8.576,-0.67,-5.477,-8.89,-2.649,-4.137,0.63,3.57,-1.19
,-8.82,-1.417,-5.205,-8.756,-2.127,-4.082,-2.38,4.06,0.84
,-9.05,-1.989,-4.937,-8.691,-1.129,-4.585,-2.59,4.2,3.71
,-9.208,-2.651,-4.204,-8.418,-0.184,-4.941,0.7,4.69,5.67
25365.0,-8.514,0.409,-5.135,-8.906,0.038,-4.247,15.26,3.15,10.85
,-8.54,0.488,-4.779,-8.88,0.144,-4.369,10.92,3.43,11.69
,-8.799,0.522,-4.666,-9.086,0.495,-4.58,6.58,3.01,11.97
,-8.698,0.141,-4.434,-9.11,0.948,-4.757,2.8,2.59,11.97
25441.0,-8.811,1.46,-4.846,-8.945,0.392,-4.841,8.19,5.39,5.32
,-8.789,2.027,-4.922,-8.818,-0.177,-4.573,6.09,5.25,2.52
,-8.887,2.056,-5.068,-8.677,-0.38,-4.949,0.84,4.76,0.35
,-9.04,1.366,-4.994,-8.641,-0.421,-5.188,-4.76,5.18,-1.19
25516.0,-8.765,-0.488,-5.437,-8.689,-0.531,-5.128,-1.33,6.86,-2.38
,-8.93,-0.436,-5.377,-8.672,-0.792,-5.147,-0.14,5.88,-2.24
,-8.775,-0.364,-5.276,-8.39,-0.835,-5.226,-0.21,4.9,-2.03
,-8.49,-0.302,-5.489,-8.516,-0.723,-5.334,-1.33,4.34,-1.47
25592.0,-8.813,-0.845,-5.406,-8.67,-0.536,-5.087,-5.67,1.19,1.26
,-9.036,-0.861,-5.281,-8.681,-0.122,-5.269,-5.25,0.49,2.38
,-8.894,-1.0,-5.25,-9.103,0.244,-5.14,-3.99,0.42,3.22
,-8.658,-0.916,-5.02,-9.344,0.285,-5.047,-2.17,0.42,3.5
25668.0,-9.052,0.34,-5.047,-8.473,-0.39,-5.298,0.07,-3.64,0.56
,-8.617,0.132,-5.049,-8.849,-0.627,-5.2,-2.73,-4.13,1.47
,-8.277,-0.175,-5.114,-9.155,-0.61,-5.071,-4.9,-3.92,2.45
,-8.279,-0.325,-5.152,-9.194,-0.713,-5.111,-4.76,-3.71,2.45
25744.0,-8.902,-0.84,-5.109,-8.385,-0.165,-5.162,5.53,-6.09,0.63
,-8.806,-0.775,-5.047,-8.744,-0.005,-5.133,6.02,-7.0,1.05
,-8.512,-0.603,-5.145,-8.94,0.017,-4.956,7.0,-7.98,1.19
,-8.38,-0.292,-5.3,-9.16,0.081,-4.714,9.17,-7.84,1.12
25820.0,-8.871,0.179,-5.047,-8.938,-0.105,-4.712,10.08,-8.19,0.0
,-8.686,0.191,-4.81,-9.033,-0.132,-4.604,10.36,-8.4,-1.12
,-8.708,0.065,-4.736,-9.036,-0.093,-4.487,11.27,-8.19,-1.33
,-8.82,0.034,-4.757,-9.04,0.045,-4.503,12.32,-8.05,-1.26
25895.0,-8.789,0.026,-4.501,-8.892,0.251,-4.561,15.61,-8.68,-2.73
,-8.61,-0.11,-4.372,-8.851,0.146,-4.685,15.19,-8.33,-2.87
,-8.705,0.05,-4.448,-8.708,-0.093,-4.664,15.05,-8.82,-2.73
,-8.794,0.179,-4.472,-8.564,-0.29,-4.685,14.28,-8.96,-1.89
25971.0,-8.504,-0.493,-4.578,-8.847,-0.991,-4.116,4.06,-11.2,-2.73
,-8.715,-1.077,-4.537,-8.952,-0.601,-4.085,3.71,-10.92,-1.4
,-8.83,-1.187,-4.48,-8.983,-0.182,-4.022,6.02,-10.22,-0.42
,-8.988,-1.326,-4.353,-8.784,-0.074,-4.113,11.13,-9.59,0.98
26047.0,-8.851,-0.17,-4.125,-9.098,-0.282,-3.91,10.43,-10.15,3.99
,-9.009,-0.507,-4.101,-8.973,0.055,-4.011,6.93,-10.01,5.25
,-9.0,-0.608,-3.929,-8.854,0.112,-4.116,6.02,-9.8,5.11
,-9.141,-0.603,-3.893,-8.729,0.115,-4.02,7.7,-9.94,3.99
26123.0,-8.77,0.038,-3.798,-9.045,0.737,-3.972,5.6,-10.78,2.87
,-9.043,0.146,-3.537,-8.904,0.414,-3.845,7.77,-10.08,1.26
,-9.277,0.452,-3.64,-9.028,0.072,-3.786,9.38,-10.78,-0.35
,-9.189,0.751,-3.958,-9.129,-0.115,-3.575,7.84,-12.18,-1.12
26198.0,-9.289,0.002,-3.611,-8.957,-1.046,-3.434,5.11,-10.43,-5.6
,-9.167,-0.019,-3.652,-8.971,-1.314,-3.247,3.57,-11.2,-6.3
,-9.074,-0.311,-3.692,-9.203,-1.307,-3.254,0.14,-11.55,-6.51
,-8.976,-0.711,-3.565,-9.177,-1.096,-3.41,-2.17,-10.99,-5.81
26274.0,-9.043,-0.739,-3.62,-9.414,-0.412,-3.025,3.78,-8.82,-1.89
,-8.854,-0.641,-3.606,-9.531,-0.239,-2.998,3.92,-8.54,-1.12
,-8.971,-0.646,-3.51,-9.416,0.105,-2.986,4.55,-7.7,-0.84
,-9.198,-0.565,-3.424,-9.33,0.275,-3.47,6.65,-6.79,-0.77
26349.0,-9.043,0.079,-3.841,-9.471,-0.507,-3.149,1.33,-7.98,-3.29
,-8.957,-0.33,-3.987,-9.438,-0.112,-3.419,-0.56,-7.84,-3.15
,-9.088,-0.546,-3.664,-9.366,-0.093,-3.35,0.35,-6.51,-2.73
,-9.316,-0.62,-3.331,-9.162,-0.108,-3.501,2.8,-5.25,-3.5
26425.0,-9.074,-0.388,-3.451,-9.294,-0.622,-3.288,-4.9,-6.65,-4.55
,-9.206,-0.584,-3.491,-9.28,-0.278,-3.685,-4.55,-6.37,-4.76
,-9.325,-0.699,-3.405,-9.308,-0.026,-3.841,-2.8,-5.74,-5.11
,-9.351,-0.78,-3.317,-9.122,0.077,-3.764,-0.77,-5.11,-5.6
26501.0,-9.141,-0.263,-3.613,-9.368,-0.78,-3.221,-2.73,-6.16,-6.51
,-9.246,-0.761,-3.331,-9.359,-0.684,-3.393,-2.38,-5.39,-6.65
,-9.27,-0.988,-3.321,-9.107,-0.782,-3.372,-0.98,-5.25,-6.93
,-9.323,-0.907,-2.986,-8.892,-1.082,-3.264,0.91,-5.18,-6.58
26577.0,-8.921,-1.244,-2.912,-9.555,-0.139,-3.116,3.22,-3.57,-3.57
,-9.21,-1.096,-2.694,-9.198,-0.311,-3.211,7.35,-2.73,-3.29
,-9.445,-0.713,-2.606,-9.153,-0.605,-3.317,9.1,-2.38,-3.29
,-9.55,-0.39,-2.735,-9.064,-0.763,-3.314,7.84,-2.38,-3.43
26652.0,-9.179,-0.811,-3.285,-9.421,-0.828,-2.673,1.54,-1.82,-4.76
,-9.217,-0.715,-3.113,-9.421,-0.725,-2.453,1.82,-1.75,-4.48
,-9.28,-0.692,-2.785,-9.462,-0.696,-2.704,1.26,-1.4,-4.34
,-9.433,-0.771,-2.747,-9.402,-0.637,-3.041,0.28,-0.98,-4.69
26728.0,-9.301,-0.672,-3.439,-9.287,-1.039,-2.692,-3.85,1.05,-4.13
,-9.067,-0.816,-3.4,-9.512,-0.782,-2.647,-3.5,1.68,-3.78
,-9.093,-0.986,-3.312,-9.536,-0.577,-2.903,-1.61,2.8,-3.43
,-9.165,-1.113,-2.958,-9.361,-0.519,-3.197,1.26,3.78,-2.94
26803.0,-9.21,-0.644,-3.68,-9.284,-1.23,-2.955,0.49,4.13,-2.24
,-8.959,-0.948,-3.704,-9.756,-0.78,-3.135,0.0,4.41,-1.89
,-8.887,-1.228,-3.57,-9.763,-0.464,-3.668,2.1,5.32,-1.33
,-9.033,-1.342,-3.216,-9.404,-0.428,-4.063,5.11,6.23,-0.63
26879.0,-9.139,-0.809,-4.293,-9.44,-0.694,-3.376,-3.08,1.89,-1.75
,-8.894,-1.417,-4.269,-9.493,-0.443,-3.352,-2.59,2.03,-1.26
,-8.904,-1.558,-4.025,-9.43,-0.572,-3.364,2.52,2.45,-0.7
,-9.206,-1.113,-3.735,-9.304,-0.818,-3.577,8.61,2.87,0.07
26955.0,-9.179,-1.158,-3.814,-9.253,-0.84,-3.905,-1.61,-0.28,-0.7
,-9.198,-1.309,-3.829,-9.277,-0.711,-3.805,-0.21,-0.21,-0.07
,-9.136,-1.28,-3.963,-9.251,-0.648,-3.616,2.73,-0.35,0.35
,-9.196,-1.122,-4.125,-9.253,-0.754,-3.408,5.25,-1.26,0.56
27031.0,-9.282,-0.914,-3.348,-9.165,-1.106,-2.702,3.5,-3.43,0.42
,-9.184,-1.067,-3.3,-9.265,-1.017,-2.498,3.29,-3.64,0.56
,-9.131,-1.158,-3.168,-9.375,-0.902,-2.493,4.13,-3.57,0.91
,-9.112,-1.098,-2.96,-9.55,-0.854,-2.659,5.81,-2.66,1.61
27107.0,-9.495,-0.759,-2.895,-9.237,-0.905,-3.293,8.54,1.19,2.24
,-9.402,-0.763,-3.118,-9.294,-0.713,-3.297,7.14,0.98,2.24
,-9.294,-0.909,-3.278,-9.361,-0.586,-3.393,6.37,1.33,2.38
,-9.234,-0.96,-3.247,-9.418,-0.61,-3.515,6.93,1.75,2.52
27182.0,-9.318,-0.739,-3.64,-9.292,-1.175,-3.542,3.85,0.77,1.75
,-9.22,-0.919,-3.711,-9.284,-1.017,-3.4,3.01,0.56,1.75
,-9.256,-1.05,-3.795,-9.311,-0.759,-3.317,3.36,0.28,1.82
,-9.234,-1.17,-3.68,-9.335,-0.723,-3.247,5.11,0.49,2.17
27258.0,-9.273,-0.739,-3.197,-9.294,-0.981,-2.886,5.53,-0.56,2.87
,-9.335,-0.775,-3.147,-9.402,-0.814,-2.965,4.48,-0.35,2.8
,-9.292,-0.859,-3.058,-9.44,-0.689,-3.197,3.71,-0.14,2.73
,-9.241,-0.905,-2.924,-9.387,-0.696,-3.331,3.5,0.14,2.73
27334.0,-9.222,-0.814,-3.458,-9.43,-0.799,-3.364,-0.84,-0.63,2.24
,-9.17,-1.034,-3.491,-9.411,-0.613,-3.319,-0.42,-0.35,2.45
,-9.308,-1.077,-3.451,-9.351,-0.558,-3.166,1.26,-0.42,2.59
,-9.395,-1.017,-3.419,-9.299,-0.713,-3.077,2.73,-1.12,2.59
27410.0,-9.325,-0.849,-3.106,-9.34,-0.495,-3.709,-1.54,-2.94,2.31
,-9.375,-0.955,-3.108,-9.222,-0.622,-3.601,-0.7,-2.52,2.38
,-9.445,-0.881,-3.283,-9.206,-0.761,-3.405,-0.07,-3.15,2.24
,-9.404,-0.591,-3.644,-9.505,-0.885,-3.137,-0.35,-4.27,2.03
27485.0,-9.505,-0.785,-3.089,-9.361,-0.802,-2.883,-1.12,-4.41,1.54
,-9.45,-0.706,-3.154,-9.294,-0.828,-2.86,-1.61,-5.74,1.47
,-9.612,-0.675,-3.039,-9.574,-0.905,-2.613,-3.36,-7.07,1.33
,-9.627,-0.701,-3.022,-9.399,-0.617,-2.747,-6.37,-9.24,1.26
27561.0,-9.081,-0.38,-2.982,-9.349,-1.223,-2.577,-14.49,-12.18,0.77
,-9.167,-0.491,-2.85,-9.43,-1.137,-2.687,-16.17,-9.1,0.84
,-9.306,-0.838,-2.843,-9.385,-1.007,-2.718,-16.24,-6.51,1.12
,-9.304,-1.146,-2.68,-9.462,-0.933,-2.606,-14.49,-4.48,1.68
27636.0,-9.452,-0.799,-2.625,-9.368,-0.787,-3.307,-0.56,-0.91,4.69
,-9.304,-0.613,-2.948,-9.177,-0.799,-3.364,-0.35,-0.77,4.9
,-9.43,-0.641,-2.809,-9.304,-0.826,-3.297,0.14,0.84,5.53
,-9.586,-0.742,-3.056,-9.366,-0.756,-3.242,0.49,1.33,5.81
27712.0,-9.552,-0.562,-3.041,-9.447,0.256,-2.8,9.73,5.04,6.09
,-9.584,-0.144,-2.862,-9.34,-0.211,-2.539,9.73,3.99,5.88
,-9.409,0.278,-2.982,-9.347,-0.663,-2.175,7.77,2.66,5.46
,-9.493,0.4,-2.74,-9.387,-0.998,-1.737,3.85,2.52,4.69
27788.0,-9.383,-1.05,-1.35,-9.215,-0.603,-3.659,-2.8,10.01,4.62
,-9.694,-0.658,-1.498,-9.055,-0.871,-3.582,-0.7,10.15,3.85
,-9.519,-0.347,-2.34,-9.028,-0.907,-3.132,-1.47,8.05,3.08
,-9.409,-0.311,-3.116,-9.229,-0.739,-2.9,-4.34,6.51,3.92
27864.0,-9.237,-0.306,-2.56,-9.789,0.103,-1.89,5.81,10.43,3.92
,-9.148,-0.175,-2.0,-9.835,0.232,-3.178,5.88,12.53,3.71
,-9.402,-0.189,-1.558,-9.844,0.287,-3.714,3.71,14.56,3.57
,-9.591,-0.101,-1.448,-9.294,0.218,-4.633,1.05,15.47,3.01
27940.0,-9.076,-0.235,-4.716,-9.275,-0.955,-3.075,-11.06,7.84,2.66
,-8.638,-0.577,-4.259,-9.378,-1.144,-2.915,-10.99,9.38,1.61
,-8.67,-0.845,-3.953,-9.294,-1.266,-2.491,-8.82,10.29,0.0
,-8.868,-1.05,-3.439,-9.557,-1.256,-2.699,-5.11,11.2,-0.91
28015.0,-9.694,-1.11,-3.139,-8.997,-0.062,-3.929,1.33,12.67,4.69
,-9.483,-0.943,-3.558,-8.954,0.038,-4.166,3.29,12.11,5.74
,-9.119,-0.644,-3.924,-9.39,0.177,-4.219,4.97,12.32,6.37
,-8.993,-0.371,-3.513,-9.38,0.096,-3.977,6.02,13.44,7.0
28091.0,-9.055,-0.278,-3.24,-9.438,-0.038,-3.539,-1.12,11.55,2.1
,-8.926,-0.483,-2.702,-9.172,0.115,-3.733,-0.49,13.65,1.33
,-9.172,-0.565,-2.737,-8.957,0.182,-3.745,1.4,13.51,1.4
,-9.526,-0.433,-2.857,-9.134,0.182,-3.611,3.5,12.25,2.59
28167.0,-9.275,0.414,-3.415,-9.036,-0.385,-3.85,-0.14,14.21,-0.14
,-9.337,0.558,-3.841,-8.775,-0.847,-3.429,0.0,12.81,-0.7
,-9.347,0.51,-3.898,-8.801,-1.031,-3.273,-1.54,11.2,-0.49
,-9.296,0.309,-4.008,-9.292,-0.881,-3.427,-3.57,11.06,-0.28
28243.0,-9.562,-0.287,-3.752,-8.811,-0.479,-4.264,9.94,13.79,-0.77
,-9.383,0.057,-4.283,-8.612,-0.744,-4.24,8.82,12.25,0.0
,-9.136,0.165,-4.346,-8.531,-0.826,-4.235,4.48,12.32,0.35
,-9.04,-0.122,-4.24,-8.942,-1.024,-3.81,0.21,12.74,0.28
28318.0,-9.182,-1.261,-3.683,-8.756,-0.687,-4.188,-0.49,15.33,2.73
,-9.244,-1.5,-3.448,-8.758,-0.512,-4.326,0.56,16.1,3.92
,-9.098,-1.575,-3.472,-8.947,-0.409,-4.094,3.15,15.89,5.46
,-8.921,-1.17,-3.905,-9.198,-0.096,-4.068,6.58,14.7,7.0
28394.0,-9.234,0.335,-4.113,-9.203,0.0,-4.214,6.37,14.14,8.4
,-8.949,0.663,-4.326,-9.344,-0.115,-4.338,4.41,14.07,7.14
,-8.906,0.61,-4.185,-9.292,-0.218,-4.343,1.19,14.7,6.37
,-8.918,0.189,-3.91,-9.083,-0.074,-4.625,-2.03,15.12,6.16
28469.0,-8.964,-0.129,-4.805,-8.911,0.11,-4.946,4.69,11.55,5.25
,-8.78,-0.254,-4.877,-8.703,0.232,-5.016,4.62,11.55,5.39
,-8.693,-0.235,-4.786,-8.559,0.115,-4.712,5.18,11.97,5.46
,-8.851,-0.089,-5.004,-8.729,0.101,-4.48,5.88,10.85,5.6
28545.0,-9.174,0.086,-4.159,-8.942,1.106,-4.681,-1.82,10.64,4.55
,-9.361,0.249,-4.228,-8.758,0.804,-4.92,0.14,10.64,3.64
,-9.229,0.574,-4.391,-8.681,0.318,-4.716,1.47,10.57,2.1
,-9.026,1.06,-4.762,-8.705,-0.06,-4.532,3.64,9.8,0.42
28621.0,-8.78,-0.503,-4.771,-8.825,-2.458,-4.697,-1.47,6.51,-2.52
,-8.868,-1.149,-4.726,-8.837,-2.034,-4.542,-1.96,6.02,-1.33
,-8.859,-1.687,-4.989,-8.947,-1.208,-4.886,-1.89,6.23,-0.49
,-8.806,-2.309,-4.74,-8.729,-0.388,-5.126,0.84,6.72,0.91
28697.0,-8.65,0.507,-5.353,-9.167,-0.522,-4.563,16.45,3.57,2.8
,-8.315,0.572,-5.396,-9.241,-0.589,-4.101,11.06,3.15,3.85
,-8.466,0.182,-4.932,-8.83,-0.486,-4.125,5.46,2.66,4.41
,-8.964,-0.239,-4.666,-8.729,-0.285,-4.269,2.1,2.31,5.53
28772.0,-8.686,-0.158,-4.573,-8.619,0.859,-5.068,11.48,2.31,5.74
,-8.787,0.629,-4.996,-8.942,0.328,-4.817,15.75,2.38,4.48
,-8.851,0.945,-5.056,-9.026,-0.098,-4.625,16.24,1.54,3.15
,-8.67,0.967,-5.027,-8.796,-0.543,-4.491,15.05,1.54,2.17
28848.0,-8.875,-0.94,-4.53,-8.72,0.168,-4.85,2.87,0.91,3.36
,-8.83,-1.089,-4.652,-8.679,0.215,-4.915,3.99,0.98,3.57
,-8.799,-0.876,-4.7,-8.765,0.215,-4.805,6.23,1.26,3.22
,-8.847,-0.302,-4.719,-8.775,0.361,-5.123,7.63,0.77,3.01
28923.0,-8.856,0.057,-5.102,-8.693,-0.175,-4.817,-3.85,0.91,2.1
,-9.026,-0.357,-4.8,-8.416,0.12,-4.896,-4.76,1.4,2.24
,-8.945,-0.57,-4.654,-8.631,0.404,-5.056,-3.92,1.4,2.66
,-8.813,-0.455,-4.63,-9.0,0.395,-4.862,-2.66,1.54,3.5
28999.0,-9.227,0.354,-4.927,-8.375,-0.38,-4.81,-3.78,2.59,2.45
,-9.182,0.141,-4.946,-8.361,-0.436,-4.599,-4.76,2.03,2.24
,-9.237,-0.036,-4.511,-8.77,-0.124,-4.503,-6.58,1.47,2.8
,-8.815,-0.232,-4.743,-9.062,0.34,-4.781,-8.05,0.35,3.29
29075.0,-9.301,0.648,-4.69,-8.815,0.369,-4.48,0.21,1.82,0.56
,-9.244,0.852,-4.606,-8.559,0.05,-4.836,-1.12,1.54,-0.49
,-9.227,0.72,-4.491,-8.61,-0.436,-4.671,-4.55,0.56,-1.4
,-9.057,0.519,-4.585,-8.772,-0.692,-4.702,-7.49,0.07,-2.1
29151.0,-8.851,-0.878,-4.558,-8.526,-1.132,-4.846,-7.07,0.91,-1.68
,-8.777,-0.952,-4.539,-8.435,-1.201,-4.733,-4.55,0.42,-1.54
,-8.847,-1.034,-4.58,-8.476,-1.273,-4.652,-2.66,-0.07,-1.05
,-8.748,-1.024,-4.771,-8.727,-0.895,-4.946,-1.33,-0.91,0.49
29227.0,-8.935,-0.447,-5.075,-8.82,0.266,-4.8,8.4,0.07,6.02
,-9.043,-0.014,-4.977,-8.818,0.503,-4.826,10.36,-0.63,4.9
,-8.902,0.182,-4.846,-8.856,0.605,-4.659,9.66,-1.33,4.2
,-8.804,0.127,-4.836,-8.957,0.589,-4.539,8.33,-1.54,4.2
29302.0,-9.033,0.634,-4.453,-9.026,0.266,-4.453,13.37,-2.59,0.98
,-8.938,0.663,-4.652,-9.337,0.416,-4.647,13.23,-3.22,0.42
,-8.796,0.572,-4.614,-9.354,0.541,-4.716,13.02,-3.15,0.07
,-8.964,0.514,-4.712,-9.191,0.893,-4.896,12.18,-3.01,-0.14
29378.0,-8.71,0.84,-5.018,-9.036,-0.443,-4.683,8.96,-8.33,-4.9
,-8.469,0.656,-4.977,-9.354,-0.543,-4.702,5.81,-7.77,-5.46
,-8.423,0.474,-5.059,-9.433,-0.684,-4.444,3.57,-7.63,-6.72
,-8.772,-0.024,-4.812,-8.871,-0.395,-4.817,2.8,-7.21,-7.14
29454.0,-8.313,-0.505,-4.896,-9.141,-0.675,-4.343,5.39,-13.3,-5.46
,-8.145,-0.443,-4.865,-8.849,-0.304,-4.413,5.11,-11.9,-5.18
,-8.679,-0.847,-4.336,-8.851,-0.287,-4.456,4.27,-11.13,-4.2
,-9.007,-0.725,-4.369,-8.866,-0.608,-4.161,5.39,-11.41,-4.06
29530.0,-9.127,-0.653,-3.946,-8.425,-0.146,-4.255,9.38,-6.37,-1.12
,-9.457,-0.751,-3.453,-8.705,-0.225,-4.324,10.15,-8.4,-0.84
,-9.258,-0.402,-3.716,-8.918,-0.12,-4.13,10.64,-11.62,0.42
,-8.557,-0.258,-4.154,-8.916,0.108,-4.367,10.22,-12.88,1.12
29605.0,-9.06,-0.101,-3.967,-9.134,0.206,-3.977,11.06,-8.96,0.98
,-9.189,-0.065,-3.855,-8.945,0.115,-3.951,11.13,-8.12,0.84
,-9.258,-0.069,-3.953,-8.696,0.089,-3.802,10.99,-7.49,0.91
,-9.119,0.093,-4.001,-8.737,0.026,-3.915,11.55,-6.65,0.77
29681.0,-9.019,0.081,-3.92,-8.882,-0.132,-3.577,8.96,-7.14,-0.77
,-9.378,0.22,-3.821,-8.859,-0.436,-3.381,9.03,-7.77,-1.61
,-9.397,0.28,-3.905,-9.119,-0.469,-3.185,7.28,-8.96,-2.94
,-9.024,0.156,-3.9,-9.222,-0.139,-3.362,4.06,-9.1,-4.13
29757.0,-9.445,0.098,-3.489,-9.191,-0.967,-3.092,4.62,-7.35,-4.48
,-9.39,0.06,-3.64,-8.959,-0.723,-3.343,1.05,-7.84,-4.27
,-9.306,-0.302,-3.532,-8.873,-0.447,-3.553,-2.45,-7.21,-4.55
,-9.213,-0.747,-3.362,-8.985,-0.445,-3.747,-3.08,-5.88,-5.46
29833.0,-9.05,-0.565,-3.671,-9.27,-0.409,-3.817,-2.24,-7.77,-2.66
,-9.093,-0.737,-3.475,-9.079,-0.333,-4.015,-0.84,-6.09,-2.73
,-9.306,-0.744,-3.367,-9.088,-0.38,-4.054,2.17,-5.25,-3.64
,-9.392,-0.627,-3.664,-9.112,-0.191,-3.874,4.2,-6.09,-4.55
29908.0,-9.311,0.151,-3.917,-9.292,-1.077,-2.936,8.54,-6.72,-4.41
,-9.323,0.333,-3.987,-9.237,-1.031,-2.706,6.58,-8.26,-5.67
,-9.172,-0.041,-3.642,-9.306,-0.548,-2.816,2.03,-8.26,-5.74
,-9.141,-0.637,-3.195,-9.395,-0.191,-3.329,-0.28,-7.21,-5.18
29984.0,-9.117,-0.098,-3.34,-9.179,-0.768,-3.721,3.36,-6.44,-4.69
,-9.179,-0.325,-3.419,-9.17,-0.687,-3.766,1.12,-5.81,-4.34
,-9.091,-0.634,-3.647,-9.158,-0.754,-3.666,-0.35,-5.6,-4.69
,-9.007,-0.864,-3.489,-9.246,-0.993,-3.348,2.03,-4.97,-4.76
30059.0,-9.253,-1.232,-3.173,-9.579,-0.081,-3.149,8.68,-4.9,-2.59
,-9.246,-1.268,-2.757,-9.474,-0.074,-3.745,11.41,-3.92,-2.38
,-9.414,-0.849,-2.649,-9.074,-0.292,-3.946,14.21,-3.57,-2.31
,-9.485,-0.335,-2.843,-8.949,-0.711,-3.697,13.16,-3.99,-2.31
30135.0,-9.158,-0.924,-3.69,-9.418,-0.273,-2.795,9.17,-3.99,-2.8
,-9.222,-0.821,-3.276,-9.287,-0.373,-2.697,13.51,-3.64,-2.59
,-9.407,-0.524,-2.862,-9.265,-0.617,-2.673,14.49,-3.78,-2.52
,-9.507,-0.297,-2.869,-9.186,-1.036,-2.603,11.62,-4.48,-3.01
30211.0,-9.186,-1.409,-2.35,-9.562,-0.203,-2.178,2.38,-0.84,-3.08
,-9.16,-1.268,-2.283,-9.373,-0.251,-2.371,6.09,0.56,-2.1
,-9.277,-1.005,-2.051,-9.366,-0.598,-2.687,9.94,2.31,-1.47
,-9.452,-0.534,-1.965,-9.44,-0.979,-3.132,11.48,3.78,-1.12
30287.0,-9.351,-1.125,-3.453,-9.213,-0.579,-3.812,1.61,6.09,-1.96
,-9.206,-1.048,-3.726,-9.323,-0.711,-3.68,4.06,5.95,-1.54
,-9.191,-0.945,-3.831,-9.33,-1.024,-3.609,6.23,5.81,-1.47
,-9.217,-0.694,-3.855,-9.237,-1.158,-3.419,7.49,5.67,-1.4
30363.0,-9.28,-1.192,-3.403,-9.227,-0.625,-3.47,4.69,4.27,-0.77
,-9.246,-1.187,-3.259,-9.306,-0.546,-3.415,5.88,4.2,-0.56
,-9.213,-1.039,-3.278,-9.299,-0.651,-3.288,6.72,4.13,-0.42
,-9.263,-0.809,-3.419,-9.275,-0.83,-3.262,6.37,3.71,-0.77
30438.0,-9.294,-0.928,-3.281,-9.256,-0.885,-3.319,-0.28,3.22,-0.98
,-9.265,-0.928,-3.338,-9.261,-0.912,-3.355,0.35,3.15,-0.7
,-9.253,-0.751,-3.41,-9.246,-1.005,-3.367,0.49,2.8,-0.7
,-9.179,-0.761,-3.429,-9.232,-1.039,-3.422,-0.14,2.8,-0.91
30514.0,-9.203,-1.177,-3.427,-9.256,-0.893,-3.69,-0.49,3.15,-0.21
,-9.296,-1.206,-3.465,-9.198,-1.01,-3.855,1.12,3.22,0.07
,-9.418,-1.079,-3.556,-9.153,-1.139,-3.762,2.59,2.87,0.21
,-9.328,-0.967,-3.635,-9.129,-1.115,-3.644,3.08,2.52,0.35
30590.0,-9.249,-1.058,-3.69,-9.115,-0.888,-3.558,7.0,1.68,1.89
,-9.292,-0.883,-3.726,-9.232,-1.024,-3.417,7.7,0.98,1.82
,-9.323,-0.648,-3.743,-9.304,-1.005,-3.312,6.93,0.7,1.89
,-9.153,-0.742,-3.699,-9.344,-0.833,-3.314,4.83,0.49,1.89
30666.0,-9.407,-0.653,-3.398,-9.052,-1.132,-3.498,4.83,-0.07,2.31
,-9.363,-0.625,-3.57,-9.155,-1.216,-3.218,3.22,-0.49,2.03
,-9.251,-0.708,-3.685,-9.304,-1.151,-2.994,1.47,-0.91,1.89
,-9.005,-0.902,-3.642,-9.368,-0.802,-2.903,0.56,-0.91,1.96
30741.0,-9.397,-0.56,-2.924,-9.261,-0.993,-3.252,5.46,0.7,3.01
,-9.428,-0.452,-3.061,-9.217,-0.974,-3.233,3.29,0.63,2.73
,-9.347,-0.62,-3.221,-9.301,-0.838,-3.238,1.26,0.77,2.38
,-9.33,-0.852,-3.266,-9.392,-0.603,-3.218,0.7,0.98,2.24
30817.0,-9.375,-0.383,-3.482,-9.194,-1.189,-3.589,2.73,1.54,1.82
,-9.316,-0.419,-3.599,-9.287,-1.18,-3.436,0.63,0.98,1.4
,-9.174,-0.648,-3.695,-9.366,-0.83,-3.302,-0.98,0.98,1.26
,-9.182,-0.928,-3.695,-9.38,-0.639,-3.245,-1.26,0.98,1.19
30892.0,-9.337,-0.598,-3.285,-9.344,-0.802,-3.364,2.94,1.33,2.17
,-9.34,-0.644,-3.422,-9.28,-0.787,-3.336,1.54,0.91,1.82
,-9.261,-0.68,-3.338,-9.34,-0.751,-3.439,0.77,0.91,1.54
,-9.277,-0.715,-3.391,-9.27,-0.706,-3.532,0.28,1.05,1.4
30968.0,-9.275,-0.613,-3.63,-9.237,-1.125,-3.52,1.05,0.56,1.54
,-9.256,-0.699,-3.69,-9.378,-0.859,-3.446,0.49,0.28,1.47
,-9.15,-0.914,-3.668,-9.344,-0.663,-3.451,0.35,0.21,1.61
,-9.131,-1.065,-3.537,-9.289,-0.634,-3.427,1.33,0.28,1.89
31044.0,-9.296,-0.751,-3.384,-9.296,-0.61,-3.369,2.24,-0.7,2.24
,-9.261,-0.84,-3.34,-9.241,-0.648,-3.34,2.24,-0.77,2.03
,-9.378,-0.763,-3.453,-9.349,-0.672,-3.357,2.94,-1.12,1.82
,-9.354,-0.646,-3.465,-9.387,-0.663,-3.372,3.08,-0.91,1.89
31120.0,-9.351,-0.675,-3.446,-9.201,-0.749,-3.592,1.68,-0.91,1.68
,-9.359,-0.694,-3.513,-9.268,-0.811,-3.599,1.47,-1.05,1.61
,-9.294,-0.718,-3.575,-9.306,-0.838,-3.503,1.54,-1.54,1.33
,-9.229,-0.694,-3.644,-9.354,-0.763,-3.41,1.47,-1.96,1.26
31196.0,-9.356,-0.742,-3.333,-9.356,-0.725,-3.08,3.71,-2.1,2.03
,-9.316,-0.749,-3.245,-9.342,-0.605,-3.082,3.5,-2.38,1.89
,-9.351,-0.802,-3.235,-9.316,-0.682,-3.197,3.5,-2.31,2.1
,-9.308,-0.742,-3.149,-9.366,-0.787,-3.209,3.43,-2.24,2.17
31271.0,-9.32,-0.759,-3.147,-9.452,-0.452,-3.07,-1.61,-4.41,1.4
,-9.332,-0.644,-3.163,-9.445,-0.524,-2.972,-1.75,-5.04,1.19
,-9.304,-0.438,-3.12,-9.351,-0.639,-2.895,-2.66,-5.32,0.77
,-9.344,-0.349,-3.125,-9.471,-0.797,-2.541,-4.2,-4.97,0.56
31347.0,-9.488,-0.713,-2.386,-9.576,-0.727,-2.735,-10.15,-6.72,0.77
,-9.239,-0.596,-2.474,-9.433,-0.529,-3.01,-10.5,-6.23,1.26
,-9.411,-0.687,-2.419,-9.344,-0.467,-3.297,-11.76,-4.83,1.26
,-9.531,-0.826,-2.522,-9.206,-0.491,-3.352,-13.3,-4.48,0.91
31423.0,-9.083,-0.445,-3.336,-9.263,-0.574,-3.853,-16.45,-2.52,1.12
,-9.452,-0.416,-3.233,-9.21,-0.902,-3.678,-15.89,-1.68,0.7
,-9.471,-0.431,-3.642,-9.344,-1.098,-3.386,-15.96,-2.87,0.21
,-9.323,-0.412,-3.843,-9.407,-0.993,-3.439,-15.68,-3.57,-0.07
31499.0,-9.5,-0.706,-3.405,-9.495,-0.244,-2.893,-2.31,-3.57,2.03
,-9.533,-0.402,-3.41,-9.541,-0.05,-2.938,-2.59,-5.32,1.75
,-9.368,-0.168,-3.285,-9.529,0.112,-2.986,-4.83,-5.6,1.54
,-9.294,-0.261,-3.235,-9.39,0.06,-3.029,-6.58,-4.97,1.4
31574.0,-9.361,-0.034,-2.843,-9.38,-0.897,-2.058,-13.37,-3.71,-0.63
,-9.311,-0.05,-2.726,-9.493,-1.402,-2.335,-13.51,-2.66,-0.63
,-9.351,-0.223,-2.548,-9.392,-1.776,-2.491,-12.95,-0.98,-0.28
,-9.208,-0.534,-2.371,-9.316,-2.015,-2.503,-11.69,0.91,-0.28
31650.0,-9.442,-1.886,-2.589,-9.332,0.261,-3.625,12.53,7.63,5.53
,-9.485,-1.484,-2.704,-9.371,0.495,-3.606,19.88,9.17,5.81
,-9.533,-0.936,-2.972,-9.45,0.481,-3.34,24.5,9.1,5.81
,-9.385,-0.227,-3.204,-9.56,0.373,-2.831,25.9,8.19,6.16
31725.0,-9.433,0.278,-2.635,-9.435,-1.591,-2.24,3.5,7.49,1.05
,-9.371,-0.112,-2.481,-9.797,-1.345,-2.285,-2.1,5.88,0.14
,-9.043,-0.768,-2.06,-9.658,-0.718,-3.039,-7.49,5.81,0.42
,-9.234,-1.295,-2.089,-9.366,-0.304,-3.697,-8.75,6.44,0.98
31801.0,-9.194,-0.163,-3.704,-9.033,-0.794,-3.465,7.91,6.44,4.62
,-9.316,-0.077,-3.704,-9.225,-1.192,-3.436,6.72,6.23,4.41
,-9.196,-0.249,-3.34,-9.32,-1.452,-3.216,4.76,5.81,3.71
,-9.174,-0.481,-3.357,-9.182,-1.649,-2.764,2.03,5.18,2.8
31877.0,-9.074,-1.811,-2.173,-9.387,0.069,-3.723,2.66,11.13,6.79
,-9.316,-1.653,-2.142,-9.194,0.196,-3.941,6.23,12.6,7.91
,-9.576,-1.184,-2.249,-9.002,0.304,-3.9,9.87,12.46,9.1
,-9.61,-0.421,-3.087,-9.055,0.23,-3.628,12.32,10.99,10.15
31953.0,-9.237,0.347,-3.408,-9.258,0.38,-3.223,8.54,12.39,8.61
,-9.643,0.605,-3.534,-9.009,0.16,-2.79,10.99,11.27,6.65
,-9.816,0.782,-3.776,-9.194,0.189,-2.474,11.06,9.03,5.18
,-9.608,0.725,-3.695,-9.49,0.445,-2.63,8.75,8.33,4.55
32028.0,-9.663,0.821,-2.994,-8.978,-0.627,-3.728,4.27,11.55,-1.47
,-9.552,0.931,-3.434,-9.344,-0.933,-3.419,1.05,10.57,-1.96
,-9.287,0.61,-3.664,-9.373,-0.792,-3.546,-4.76,9.45,-2.24
,-9.014,-0.06,-3.788,-9.005,-0.694,-3.577,-9.24,9.66,-2.24
32104.0,-8.866,-0.512,-3.338,-9.139,-0.756,-3.537,3.64,11.2,-2.73
,-8.988,-0.347,-3.34,-9.134,-1.034,-3.479,3.22,11.2,-2.17
,-9.045,-0.428,-3.405,-9.141,-1.156,-3.429,1.4,11.27,-1.19
,-9.16,-0.579,-3.384,-9.036,-1.189,-3.518,-0.14,11.97,-0.21
32179.0,-9.162,-1.039,-3.475,-8.866,-0.141,-4.197,6.23,14.98,3.64
,-9.117,-0.759,-3.726,-8.93,-0.175,-3.903,8.61,14.98,4.06
,-9.33,-0.464,-3.908,-9.024,-0.153,-3.905,9.94,14.14,4.13
,-9.139,-0.172,-4.262,-9.076,-0.036,-3.893,9.8,13.93,4.41
32255.0,-9.222,-0.179,-3.738,-8.938,-0.981,-3.848,4.76,14.98,4.55
,-9.16,-0.421,-3.687,-8.99,-0.866,-4.08,2.17,14.49,4.9
,-9.229,-0.687,-3.613,-9.012,-0.756,-4.379,0.84,14.98,5.6
,-9.131,-0.84,-3.666,-9.158,-0.577,-4.468,0.98,15.19,6.58
32331.0,-9.21,-0.321,-4.463,-9.39,1.371,-4.788,10.15,14.0,9.24
,-8.887,0.146,-4.805,-9.194,1.077,-4.69,10.43,13.79,8.61
,-8.954,0.744,-4.793,-9.014,0.849,-4.716,10.71,14.07,7.14
,-9.289,1.211,-4.606,-9.179,0.835,-4.812,8.4,12.46,5.25
32407.0,-9.543,0.579,-4.862,-8.423,-1.082,-3.979,-7.84,4.83,-1.12
,-9.174,0.043,-4.451,-8.461,-1.34,-4.202,-7.84,4.83,-2.24
,-9.146,-0.483,-4.133,-8.875,-1.151,-4.384,-7.14,4.27,-1.96
,-8.856,-0.909,-4.051,-9.115,-0.972,-4.46,-5.32,2.94,-1.12
32483.0,-9.076,-0.706,-4.561,-9.323,0.342,-4.025,5.6,5.32,4.83
,-9.045,-0.321,-4.271,-9.072,0.196,-3.941,6.09,4.97,4.27
,-8.899,0.022,-4.176,-8.978,0.038,-4.164,4.34,5.39,4.06
,-9.0,0.12,-4.166,-8.827,-0.244,-4.338,2.45,5.6,3.57
32558.0,-9.007,-0.495,-4.255,-8.38,-0.804,-4.515,5.67,5.81,2.24
,-9.22,-0.708,-4.207,-8.588,-0.665,-4.606,8.54,5.04,3.15
,-9.124,-0.431,-4.671,-8.815,-0.483,-4.633,10.78,3.57,4.34
,-8.636,-0.455,-4.649,-9.308,-0.242,-4.578,12.25,2.73,4.76
32634.0,-9.49,-0.206,-4.506,-8.973,0.065,-4.511,15.33,1.68,4.06
,-9.237,-0.328,-4.386,-8.641,0.337,-4.669,14.63,2.03,3.5
,-9.038,-0.433,-4.267,-8.552,0.256,-4.831,13.79,2.52,2.59
,-8.854,-0.246,-4.355,-8.464,0.227,-4.783,14.0,2.45,2.38
32710.0,-8.909,0.144,-4.841,-9.036,-1.228,-3.893,8.89,0.91,3.01
,-9.27,-0.031,-4.475,-8.978,-0.799,-4.049,8.19,0.84,2.45
,-9.273,-0.517,-4.293,-8.837,-0.402,-4.367,6.93,1.26,2.31
,-9.069,-0.94,-4.061,-8.885,0.022,-4.475,7.35,1.82,2.31
32786.0,-8.981,0.285,-4.685,-8.959,-0.309,-4.456,12.32,0.42,4.97
,-8.868,0.258,-4.63,-9.222,-0.342,-4.453,9.8,0.77,4.41
,-8.725,0.199,-4.669,-9.127,-0.44,-4.515,7.7,0.84,3.85
,-8.684,-0.055,-4.604,-8.885,-0.55,-4.424,5.67,1.47,3.71
32861.0,-8.784,-0.452,-4.302,-9.15,0.821,-4.357,4.83,1.96,4.9
,-8.916,-0.184,-4.171,-9.009,0.782,-4.281,5.04,2.17,4.69
,-8.914,-0.041,-4.307,-8.873,0.464,-4.329,4.69,2.66,4.2
,-9.074,0.347,-4.286,-8.844,0.055,-4.156,3.64,3.43,3.64
32937.0,-8.875,-0.208,-4.101,-9.074,0.115,-4.554,-6.3,4.55,2.45
,-8.916,-0.23,-4.173,-9.229,-0.017,-4.29,-4.06,5.18,2.45
,-8.811,-0.203,-4.226,-9.351,-0.029,-3.987,-1.75,5.95,2.52
,-8.871,-0.017,-4.451,-9.129,0.223,-4.341,0.21,6.3,2.59
33012.0,-8.911,0.328,-4.379,-9.045,0.507,-4.484,-1.4,5.04,0.7
,-8.923,0.347,-4.324,-9.136,0.512,-4.475,-2.1,5.39,0.28
,-8.882,0.505,-4.307,-9.16,0.17,-4.48,-3.08,5.18,-0.84
,-8.995,0.481,-4.491,-8.923,-0.237,-4.793,-4.06,5.6,-2.24
33088.0,-8.768,-0.861,-4.587,-8.921,-1.017,-4.539,-7.98,4.83,-5.04
,-8.739,-1.335,-4.472,-8.976,-0.562,-4.989,-7.77,5.39,-3.5
,-8.732,-1.771,-4.19,-8.894,-0.371,-5.092,-5.11,6.09,-2.24
,-8.859,-1.441,-4.329,-8.973,-0.39,-5.154,0.63,6.16,-1.89
33164.0,-8.863,-0.443,-5.011,-8.823,-0.103,-4.929,-0.21,0.91,3.57
,-8.796,-0.404,-4.97,-8.837,-0.048,-4.96,-0.21,0.49,3.29
,-8.753,-0.366,-4.757,-8.854,-0.213,-4.922,0.07,0.14,2.45
,-8.751,-0.258,-4.841,-8.813,-0.402,-4.719,1.26,-0.63,1.89
33240.0,-8.904,-0.522,-4.413,-9.031,0.653,-4.508,7.42,-1.33,2.17
,-9.002,-0.318,-4.401,-8.921,0.558,-4.676,12.04,-1.26,1.4
,-9.012,0.01,-4.487,-8.911,0.115,-4.417,16.17,-1.26,0.63
,-9.057,0.541,-4.625,-9.026,-0.115,-4.149,18.2,-1.33,0.0
33316.0,-8.957,-0.007,-4.183,-8.928,0.05,-4.29,9.94,-3.85,-1.54
,-8.782,0.294,-4.511,-8.959,-0.098,-4.264,10.43,-5.6,-1.68
,-8.725,0.335,-4.518,-9.055,-0.139,-4.223,9.73,-5.81,-1.96
,-8.808,0.17,-4.362,-8.887,-0.108,-4.42,8.33,-5.25,-2.52
33391.0,-8.847,-0.158,-4.46,-9.031,-0.916,-3.965,10.57,-4.06,-3.22
,-8.792,-0.318,-4.424,-9.086,-0.79,-4.121,10.36,-3.36,-2.87
,-8.691,-0.572,-4.197,-9.127,-0.337,-4.434,9.73,-2.31,-2.03
,-8.854,-0.969,-3.91,-9.009,-0.01,-4.676,9.1,-1.47,-1.4
33467.0,-8.947,-0.048,-5.042,-9.134,-0.11,-4.188,4.9,-8.33,1.61
,-8.722,0.112,-4.582,-9.217,-0.031,-4.259,2.1,-7.49,1.05
,-8.748,-0.11,-4.566,-9.043,-0.079,-4.252,1.47,-6.51,0.35
,-8.911,-0.055,-4.3,-8.842,-0.132,-4.226,1.47,-6.16,-0.49
33543.0,-8.978,-0.261,-4.015,-9.124,-0.211,-4.068,2.45,-6.02,-1.4
,-8.99,-0.177,-4.089,-9.239,-0.395,-3.987,3.29,-6.09,-1.75
,-9.081,-0.086,-4.02,-8.969,-0.369,-4.085,3.57,-6.44,-2.31
,-9.115,-0.115,-4.166,-8.725,-0.366,-3.908,2.1,-7.56,-2.31
33619.0,-8.885,-0.316,-4.121,-9.086,-0.294,-4.183,3.85,-7.21,-2.66
,-8.981,-0.249,-4.274,-9.261,-0.625,-4.044,4.48,-9.03,-2.45
,-9.024,-0.06,-4.475,-9.366,-0.505,-3.999,3.43,-10.85,-1.89
,-8.916,-0.165,-4.235,-9.165,-0.112,-3.924,1.33,-10.64,-1.82
33694.0,-9.083,0.196,-4.171,-8.842,-0.998,-3.429,2.38,-13.09,-3.92
,-8.949,0.01,-4.006,-9.038,-0.809,-3.537,-2.45,-13.93,-4.41
,-9.036,-0.407,-3.853,-9.287,-0.452,-3.498,-5.04,-12.95,-4.9
,-8.928,-0.828,-3.568,-9.596,-0.17,-3.515,-3.78,-11.41,-5.95
33770.0,-9.524,-0.043,-3.659,-9.095,-0.366,-3.223,3.5,-11.06,-4.13
,-9.251,-0.108,-3.721,-9.363,-0.426,-3.262,1.47,-10.78,-5.18
,-8.978,-0.172,-3.522,-9.428,-0.349,-3.19,0.56,-9.73,-5.53
,-8.954,-0.23,-3.276,-9.32,-0.493,-3.463,0.21,-8.61,-5.39
33845.0,-9.206,-0.522,-3.687,-9.184,-0.637,-3.63,0.42,-8.05,-5.25
,-9.122,-0.483,-3.781,-9.119,-0.732,-3.218,2.31,-7.98,-5.04
,-8.971,-0.514,-3.625,-9.153,-0.763,-3.307,3.29,-7.56,-4.97
,-9.11,-0.512,-3.501,-9.208,-0.62,-3.302,3.78,-7.07,-4.97
33921.0,-9.387,-0.534,-3.106,-9.32,-0.519,-3.587,4.83,-6.65,-4.41
,-9.428,-0.68,-2.871,-9.165,-0.455,-3.81,4.97,-6.02,-3.85
,-9.414,-0.62,-3.029,-9.055,-0.622,-3.482,4.55,-5.25,-3.36
,-9.363,-0.558,-3.36,-9.091,-0.677,-3.128,5.81,-5.46,-3.78
33997.0,-9.275,-0.732,-2.922,-9.234,-1.034,-2.649,6.72,-4.97,-3.92
,-9.239,-0.562,-2.836,-9.234,-1.366,-2.501,5.74,-5.11,-4.41
,-9.287,-0.457,-2.809,-9.277,-1.314,-2.484,4.2,-5.04,-3.92
,-9.265,-0.646,-2.857,-9.442,-0.708,-2.924,1.33,-4.97,-3.64
34073.0,-9.478,-0.268,-2.912,-9.277,-0.866,-3.034,6.58,-1.26,-2.38
,-9.555,-0.127,-3.008,-9.359,-0.335,-3.151,3.08,-1.05,-2.1
,-9.361,-0.474,-3.027,-9.366,0.024,-3.424,0.28,-0.14,-2.17
,-9.325,-0.833,-3.005,-9.351,-0.036,-3.276,1.75,0.77,-2.45
34148.0,-9.265,-0.292,-3.36,-9.347,-1.204,-3.029,-2.52,0.0,-4.69
,-9.081,-0.83,-3.084,-9.44,-1.096,-3.436,-4.48,0.84,-4.55
,-9.234,-1.18,-3.058,-9.148,-0.866,-3.594,-3.85,1.05,-4.34
,-9.368,-1.33,-3.061,-8.861,-0.766,-3.501,-2.31,0.98,-3.85
34224.0,-8.978,-0.613,-3.494,-9.139,-0.842,-3.625,2.38,0.84,-2.59
,-9.241,-0.519,-3.441,-8.957,-1.161,-3.379,0.98,0.49,-3.29
,-9.323,-0.529,-3.46,-9.098,-1.275,-3.13,-1.05,-0.14,-3.36
,-9.198,-0.538,-3.527,-9.244,-1.084,-3.01,-2.17,-0.49,-3.08
34300.0,-9.354,-0.711,-2.905,-9.567,-0.888,-2.618,10.08,1.26,-0.07
,-9.39,-0.529,-2.845,-9.474,-0.763,-2.843,8.75,1.61,0.07
,-9.45,-0.737,-2.74,-9.325,-0.747,-3.058,6.44,2.03,0.14
,-9.509,-0.857,-2.58,-9.186,-0.883,-3.307,6.09,3.15,0.35
34376.0,-9.05,-1.216,-3.396,-9.648,-0.447,-3.601,3.92,4.76,0.14
,-9.136,-1.405,-3.314,-9.474,-0.345,-3.731,5.53,5.53,0.77
,-9.354,-1.251,-3.293,-9.256,-0.572,-3.831,7.77,5.81,1.12
,-9.569,-0.881,-3.3,-9.191,-0.926,-3.891,8.96,5.74,1.12
34452.0,-9.184,-1.029,-3.932,-9.213,-0.9,-3.697,4.83,3.5,0.49
,-9.131,-0.921,-3.862,-9.174,-0.983,-3.525,7.07,3.22,0.91
,-9.222,-0.778,-3.884,-9.213,-1.091,-3.446,7.7,2.52,0.98
,-9.256,-0.773,-3.874,-9.261,-1.084,-3.403,6.86,1.61,0.84
34527.0,-9.179,-0.979,-3.273,-9.411,-0.833,-3.041,6.72,0.35,1.47
,-9.261,-0.938,-3.144,-9.335,-0.849,-3.125,6.37,0.42,1.47
,-9.277,-0.938,-3.017,-9.244,-0.866,-3.173,5.67,0.7,1.47
,-9.313,-0.924,-2.924,-9.261,-0.945,-3.376,4.97,0.91,1.54
34603.0,-9.234,-0.945,-3.453,-9.354,-0.811,-3.522,2.03,1.12,1.54
,-9.22,-0.919,-3.451,-9.304,-0.646,-3.561,2.52,1.4,1.89
,-9.213,-0.981,-3.46,-9.263,-0.632,-3.546,2.87,1.19,1.96
,-9.174,-0.986,-3.379,-9.284,-0.763,-3.558,3.64,1.05,1.96
34678.0,-9.241,-0.833,-3.525,-9.43,-0.732,-3.388,2.8,0.28,1.54
,-9.258,-0.778,-3.384,-9.359,-0.747,-3.501,3.29,0.28,1.54
,-9.306,-0.747,-3.338,-9.194,-0.897,-3.491,3.36,0.21,1.54
,-9.375,-0.754,-3.329,-9.119,-0.983,-3.494,3.08,0.14,1.47
34754.0,-9.256,-0.876,-3.482,-9.299,-0.806,-3.427,2.59,-0.14,1.33
,-9.373,-0.687,-3.475,-9.244,-0.811,-3.508,2.8,-0.56,1.05
,-9.371,-0.66,-3.417,-9.215,-0.838,-3.403,1.47,-0.77,0.84
,-9.292,-0.754,-3.41,-9.196,-0.962,-3.312,0.49,-0.84,0.84
34830.0,-9.251,-1.003,-3.151,-9.395,-0.713,-3.218,3.78,-0.21,1.82
,-9.325,-0.873,-3.068,-9.249,-0.969,-3.293,5.46,0.07,1.96
,-9.452,-0.727,-3.063,-9.189,-1.003,-3.352,5.53,-0.07,1.75
,-9.428,-0.656,-3.087,-9.227,-0.979,-3.379,4.2,0.0,1.61
34906.0,-9.371,-0.823,-3.259,-9.383,-0.651,-3.367,5.53,0.7,1.68
,-9.466,-0.677,-3.305,-9.34,-0.687,-3.446,5.46,0.63,1.68
,-9.383,-0.586,-3.216,-9.287,-0.72,-3.455,4.83,0.7,1.75
,-9.43,-0.589,-3.19,-9.184,-0.835,-3.518,4.34,0.84,1.54
34981.0,-9.256,-0.878,-3.46,-9.387,-0.725,-3.273,5.6,0.49,1.26
,-9.282,-0.924,-3.338,-9.363,-0.706,-3.312,6.09,0.63,1.19
,-9.328,-0.806,-3.362,-9.275,-0.782,-3.192,6.51,0.21,1.12
,-9.354,-0.775,-3.285,-9.304,-0.857,-3.096,6.37,0.07,1.05
35057.0,-9.402,-0.893,-3.056,-9.261,-0.816,-3.549,5.18,0.42,1.05
,-9.38,-0.849,-3.056,-9.198,-0.928,-3.659,5.11,0.28,0.98
,-9.433,-0.785,-3.24,-9.146,-1.048,-3.644,4.55,0.07,0.84
,-9.373,-0.684,-3.4,-9.244,-1.094,-3.64,3.36,-0.28,0.56
35132.0,-9.263,-1.048,-3.625,-9.227,-0.646,-3.329,5.53,-1.47,1.47
,-9.28,-0.907,-3.491,-9.251,-0.682,-3.278,6.58,-1.4,1.82
,-9.373,-0.723,-3.443,-9.347,-0.737,-3.149,6.86,-1.47,2.03
,-9.397,-0.692,-3.465,-9.407,-0.83,-2.97,5.81,-1.75,1.89
35208.0,-9.354,-0.928,-2.824,-9.524,-0.73,-2.749,1.05,-0.56,2.17
,-9.349,-1.041,-2.632,-9.552,-0.701,-2.69,1.33,0.07,2.59
,-9.215,-1.01,-2.577,-9.533,-0.684,-2.9,2.31,0.84,2.73
,-9.392,-0.869,-2.632,-9.349,-0.845,-2.915,2.94,1.26,2.8
35284.0,-9.227,-0.866,-2.778,-9.641,-0.27,-2.225,-4.97,2.31,2.52
,-9.284,-0.797,-2.62,-9.572,-0.409,-2.29,-5.11,3.22,2.45
,-9.344,-0.67,-2.257,-9.562,-0.694,-2.898,-5.25,4.2,2.1
,-9.529,-0.467,-2.084,-9.296,-1.096,-3.477,-6.23,5.11,1.68
35360.0,-8.827,-1.586,-3.656,-9.677,-0.462,-2.723,-19.04,3.43,1.75
,-8.78,-1.814,-3.537,-9.265,0.112,-2.862,-13.72,4.69,3.22
,-9.098,-1.85,-3.128,-9.086,-0.05,-2.709,-7.7,5.11,4.06
,-9.495,-1.287,-2.79,-9.036,-0.653,-2.687,-1.19,4.2,4.69
35435.0,-8.856,-0.974,-2.288,-9.232,0.424,-3.259,-7.0,5.32,6.37
,-9.328,-0.665,-2.053,-8.753,-0.038,-3.451,0.28,8.47,5.53
,-9.679,-0.122,-2.891,-8.899,-0.608,-2.876,2.94,7.49,3.15
,-9.435,0.268,-2.8,-9.134,-0.828,-3.453,-0.56,5.74,2.59
35511.0,-9.055,-0.567,-3.843,-9.225,-0.572,-2.697,-0.56,12.81,2.73
,-9.241,-0.179,-3.757,-9.397,-0.73,-3.209,1.4,12.39,3.08
,-9.342,-0.024,-3.676,-9.529,-0.663,-3.357,-0.14,12.53,3.43
,-8.969,-0.373,-3.154,-9.284,-0.928,-3.63,-2.59,13.72,3.22
35587.0,-9.184,-1.228,-3.479,-9.512,-0.022,-4.501,-4.13,14.56,3.43
,-8.904,-1.374,-2.965,-9.34,0.053,-4.896,-1.19,18.62,4.27
,-9.086,-0.902,-2.843,-9.117,-0.17,-4.647,5.18,20.37,4.2
,-9.313,-0.433,-3.896,-8.904,-0.5,-4.257,7.56,17.15,3.15
35663.0,-8.772,-0.823,-4.259,-9.249,-1.61,-3.671,0.56,12.04,3.43
,-8.851,-1.493,-4.087,-9.229,-0.931,-3.831,1.89,12.18,4.06
,-9.127,-1.835,-3.819,-9.509,-0.05,-4.252,4.27,12.04,5.88
,-9.141,-1.912,-3.757,-9.392,0.818,-4.676,8.19,12.6,8.05
35739.0,-9.162,1.299,-4.525,-9.172,0.053,-3.719,10.92,9.87,4.9
,-8.902,1.469,-4.59,-8.952,-0.653,-3.661,3.5,9.24,2.66
,-8.851,1.211,-4.35,-9.201,-1.199,-3.283,-3.85,9.31,0.56
,-9.043,0.704,-4.097,-9.459,-1.333,-3.209,-8.26,9.31,-0.7
35814.0,-9.493,-1.304,-3.386,-8.696,0.505,-4.111,6.58,9.38,1.68
,-9.27,-0.983,-3.637,-9.088,0.579,-3.855,11.41,10.22,2.31
,-9.103,-0.366,-3.788,-9.189,0.342,-3.891,14.84,10.78,2.1
,-8.875,0.29,-4.159,-9.165,-0.151,-3.999,14.98,10.64,0.91
35890.0,-9.098,-0.73,-4.027,-8.641,-1.89,-3.955,-10.29,9.24,-0.21
,-8.873,-1.242,-3.996,-9.048,-1.469,-4.168,-9.94,10.36,0.35
,-8.804,-1.744,-3.917,-9.256,-0.861,-4.391,-6.93,11.97,1.12
,-8.648,-1.996,-3.757,-9.263,-0.199,-4.362,-1.89,13.16,2.1
35965.0,-8.928,0.201,-4.606,-8.952,-0.517,-4.087,9.59,8.54,6.51
,-8.763,0.357,-4.331,-9.093,-0.476,-3.829,3.64,8.19,6.23
,-8.679,0.074,-4.279,-9.014,-0.598,-3.716,-3.92,7.7,5.88
,-8.861,-0.278,-4.135,-9.086,-0.708,-3.496,-8.54,7.91,5.95
36041.0,-9.052,-0.345,-3.573,-8.72,1.984,-4.728,-4.13,11.55,6.65
,-8.993,0.297,-4.003,-8.442,1.759,-4.628,0.21,11.83,5.67
,-9.402,0.995,-3.903,-8.844,1.278,-4.441,2.24,10.92,3.99
,-9.397,1.737,-4.305,-9.229,0.78,-4.417,0.63,8.05,2.52
36117.0,-9.483,0.191,-4.011,-8.303,-2.647,-3.967,-16.45,7.98,-4.83
,-9.325,-0.469,-3.587,-8.729,-2.852,-4.001,-15.4,7.7,-4.97
,-8.677,-0.979,-4.082,-8.622,-2.51,-4.326,-12.46,8.82,-4.34
,-8.244,-1.819,-3.829,-8.646,-1.637,-4.52,-9.94,11.48,-2.66
36193.0,-8.658,-0.598,-4.999,-8.861,0.531,-5.248,16.45,11.62,7.49
,-8.536,0.459,-5.619,-8.966,-0.383,-4.757,17.71,11.76,5.25
,-8.612,0.873,-5.358,-9.215,-1.237,-4.623,14.35,12.6,3.22
,-8.804,1.113,-5.631,-8.835,-1.85,-4.468,7.56,11.83,1.96
36268.0,-9.258,-1.737,-4.52,-8.856,0.835,-5.843,0.28,8.96,5.74
,-9.306,-1.156,-4.946,-8.689,0.517,-5.652,11.41,8.05,4.48
,-9.196,-0.194,-5.415,-7.911,-0.263,-5.37,19.95,7.35,2.31
,-9.052,0.601,-5.592,-7.71,-1.192,-4.594,23.94,5.11,0.0
36344.0,-8.05,-1.563,-4.855,-9.184,-0.275,-4.649,6.02,3.64,9.45
,-9.172,-1.484,-4.625,-8.904,0.371,-5.039,9.17,3.5,10.43
,-9.581,-1.041,-4.891,-8.698,0.424,-5.025,14.28,2.38,10.08
,-9.639,-0.522,-4.932,-8.6,0.811,-4.853,16.94,1.19,10.15
36420.0,-8.751,0.78,-4.963,-8.222,0.151,-5.176,9.8,-0.77,3.99
,-8.976,0.838,-5.023,-8.392,-0.108,-5.183,7.14,-1.19,2.38
,-9.277,1.01,-5.367,-8.804,-0.438,-4.917,5.18,-1.96,0.42
,-8.732,0.66,-5.219,-9.007,-0.593,-4.616,2.38,-2.1,0.14
36496.0,-8.892,-0.51,-4.558,-8.811,-0.189,-4.752,4.48,-1.26,3.36
,-8.567,-0.227,-4.661,-9.0,0.017,-5.032,5.46,-1.26,3.92
,-8.636,-0.062,-4.889,-9.048,0.112,-4.893,4.9,-1.33,3.71
,-8.739,-0.053,-4.728,-9.103,0.23,-4.738,3.15,-1.19,3.29
36572.0,-8.916,-0.067,-4.709,-8.48,-0.62,-4.616,-1.4,-0.56,1.33
,-8.696,-0.29,-4.482,-8.562,-0.881,-4.499,-1.61,-0.42,1.54
,-8.581,-0.065,-4.755,-8.67,-0.603,-4.501,-1.4,-0.84,2.03
,-8.559,-0.311,-4.829,-8.906,-0.022,-4.451,-2.38,-0.56,2.24
36647.0,-8.997,0.177,-4.63,-8.832,-0.105,-4.429,2.87,3.29,1.54
,-8.988,0.261,-4.752,-8.746,-0.615,-4.006,1.75,3.29,1.47
,-8.942,0.227,-4.824,-8.849,-0.68,-4.168,0.77,3.85,1.82
,-8.887,0.237,-4.616,-8.787,-0.316,-4.398,-1.54,4.27,2.31
36723.0,-8.775,0.302,-4.819,-8.916,0.888,-4.362,0.28,5.46,5.04
,-8.897,0.548,-4.659,-8.751,0.983,-4.58,-0.35,6.02,3.99
,-8.878,0.725,-4.681,-8.576,1.082,-4.738,-1.82,6.02,2.03
,-8.899,0.73,-4.444,-8.703,1.168,-5.073,-2.8,6.3,0.7
36798.0,-8.842,0.708,-4.934,-8.768,-1.113,-4.695,-8.89,6.86,-3.22
,-8.947,0.11,-4.86,-8.581,-0.742,-5.044,-10.64,6.16,-4.34
,-9.036,-0.577,-4.759,-8.607,-0.648,-5.116,-10.57,5.95,-4.41
,-9.026,-1.204,-4.64,-8.741,-0.761,-5.051,-8.68,4.83,-3.57
36874.0,-8.777,-0.893,-4.829,-8.696,-0.601,-4.781,-2.45,4.62,-1.4
,-8.603,-1.141,-4.815,-8.784,-0.285,-4.776,-4.13,4.76,0.21
,-8.545,-1.33,-4.549,-8.99,0.038,-4.822,-4.9,5.04,2.1
,-8.614,-0.981,-4.685,-8.906,0.005,-4.884,-3.15,4.76,4.06
36950.0,-8.815,-0.191,-4.649,-8.859,0.522,-5.372,-0.49,2.31,4.83
,-8.78,-0.129,-4.841,-8.961,0.187,-5.044,0.42,2.03,4.69
,-8.672,0.201,-5.485,-8.904,0.325,-5.152,2.59,1.82,3.71
,-8.741,0.112,-5.039,-8.976,0.266,-5.164,5.74,1.19,3.08
37026.0,-8.83,0.124,-5.214,-8.813,-0.256,-5.023,7.77,-3.57,-3.29
,-8.681,0.038,-5.355,-8.861,-0.089,-4.834,8.54,-4.62,-5.04
,-8.617,0.036,-5.391,-9.153,-0.034,-4.547,9.03,-4.83,-6.02
,-8.684,-0.273,-5.133,-8.794,0.002,-5.171,8.68,-4.55,-6.65
37101.0,-8.516,-0.045,-5.324,-8.619,-0.321,-4.946,8.05,-7.98,-3.92
,-8.557,-0.44,-4.939,-8.744,-0.026,-4.815,7.91,-7.7,-1.82
,-8.622,-0.517,-4.984,-8.878,0.156,-5.004,10.08,-9.17,-1.19
,-8.581,-0.543,-5.097,-8.949,0.196,-5.02,12.11,-9.17,-1.68
37177.0,-9.005,0.268,-5.011,-8.459,-0.366,-4.874,13.09,-7.63,-2.87
,-9.464,0.101,-4.413,-8.595,-0.373,-4.941,10.36,-9.03,-4.34
,-9.189,-0.026,-4.838,-8.521,-0.983,-4.671,8.75,-11.62,-5.11
,-8.763,-0.27,-4.661,-8.646,-0.799,-4.654,7.28,-12.25,-5.6
37253.0,-8.792,-0.656,-4.625,-8.751,-0.385,-4.427,15.96,-9.73,-1.54
,-8.871,-0.323,-4.81,-8.904,-0.617,-4.324,16.31,-9.24,-1.05
,-8.741,-0.424,-4.542,-8.878,-0.732,-4.391,16.1,-8.89,-0.07
,-8.77,-0.337,-4.444,-8.823,-0.759,-4.178,14.84,-8.54,0.56
37329.0,-8.993,-0.574,-4.049,-9.129,0.347,-4.312,8.33,-14.84,2.1
,-8.851,-0.263,-4.195,-9.16,0.385,-4.111,10.08,-15.96,2.03
,-8.818,-0.031,-4.243,-9.04,0.325,-3.975,10.08,-15.4,2.1
,-8.933,0.302,-4.3,-9.031,0.388,-4.066,9.66,-15.19,2.66
37404.0,-9.146,0.397,-4.051,-8.966,-0.323,-3.786,7.28,-11.62,-2.59
,-9.162,0.318,-4.032,-9.112,-0.316,-3.884,5.53,-11.41,-3.01
,-9.016,0.158,-4.063,-9.117,-0.151,-4.061,4.06,-10.92,-3.29
,-8.969,-0.022,-3.958,-9.091,0.017,-4.066,3.57,-10.15,-4.06
37480.0,-9.007,0.112,-4.221,-8.933,-1.28,-3.266,-0.98,-15.96,-5.74
,-8.935,-0.555,-3.915,-9.158,-0.962,-3.419,-5.6,-15.47,-6.37
,-8.866,-1.012,-3.577,-9.208,-0.653,-3.697,-5.53,-13.3,-7.21
,-8.851,-1.34,-3.247,-9.124,-0.546,-3.664,-2.24,-12.18,-7.35
37555.0,-9.014,-0.711,-3.35,-9.316,-0.263,-3.029,1.75,-12.04,-2.45
,-9.083,-0.914,-3.185,-9.335,0.081,-3.147,2.94,-10.43,-2.03
,-9.141,-0.957,-3.163,-9.306,0.096,-3.245,5.18,-9.66,-2.1
,-9.261,-0.648,-2.86,-9.21,-0.189,-3.443,8.47,-8.68,-1.75
37631.0,-9.167,-0.608,-3.142,-9.153,0.27,-3.762,0.91,-7.91,-3.15
,-9.225,-0.864,-3.003,-9.088,0.077,-3.8,3.29,-6.51,-2.87
,-9.313,-0.617,-3.065,-8.995,-0.692,-3.285,7.35,-6.16,-3.22
,-9.371,-0.144,-3.546,-9.16,-1.555,-2.757,9.31,-7.7,-3.85
37707.0,-9.395,-1.802,-2.268,-9.129,-0.546,-3.324,3.22,-4.13,-3.71
,-9.667,-1.18,-2.603,-9.086,-1.094,-2.946,8.96,-4.83,-3.57
,-9.485,-0.328,-3.211,-9.217,-1.342,-2.754,8.12,-7.07,-3.36
,-9.201,-0.153,-3.357,-9.241,-0.943,-2.955,2.45,-7.77,-2.45
37783.0,-9.318,-0.349,-2.773,-9.282,-0.443,-3.333,8.05,-2.87,-2.1
,-9.459,0.0,-3.01,-9.158,-0.419,-3.405,6.72,-3.08,-1.54
,-9.505,-0.22,-3.104,-9.165,-0.529,-3.247,2.52,-2.94,-1.33
,-9.359,-0.548,-3.221,-9.237,-0.852,-3.094,1.33,-2.87,-1.96
37859.0,-9.416,-0.945,-2.833,-9.454,-0.428,-3.195,4.83,-0.07,-1.96
,-9.493,-0.909,-2.723,-9.182,-0.4,-3.178,6.58,0.49,-1.61
,-9.512,-0.761,-2.795,-9.215,-0.424,-3.388,7.21,0.77,-1.54
,-9.438,-0.625,-2.79,-9.22,-0.5,-3.266,6.58,1.05,-1.47
37934.0,-9.347,-0.601,-3.273,-9.28,-0.689,-3.738,3.92,1.61,-1.96
,-9.32,-0.531,-3.448,-9.165,-0.773,-3.783,3.5,0.98,-2.31
,-9.222,-0.536,-3.391,-9.014,-0.902,-3.52,3.08,0.63,-2.31
