Timestamp,AccX,AccY,AccZ,GyroX,GyroY,GyroZ,MagnX,MagnY,MagnZ
0.0,-9.418,0.79,-2.979,-9.442,0.725,-2.972,3.22,1.05,0.84
,-9.363,0.787,-3.051,-9.395,0.723,-2.972,3.01,1.12,0.91
,-9.433,0.737,-3.017,-9.438,0.704,-2.955,2.8,1.12,0.91
,-9.428,0.742,-2.972,-9.421,0.787,-2.936,2.73,1.19,0.98
75.0,-9.45,0.756,-2.922,-9.428,0.737,-2.977,2.8,1.26,0.91
,-9.387,0.754,-2.907,-9.452,0.744,-2.948,3.22,1.26,0.98
,-9.395,0.799,-2.943,-9.447,0.766,-3.008,3.29,1.47,0.98
,-9.404,0.814,-2.948,-9.423,0.804,-3.041,3.15,1.68,1.05
150.0,-9.404,0.821,-2.998,-9.44,0.797,-3.051,2.87,1.4,0.91
,-9.43,0.859,-3.02,-9.407,0.818,-2.974,2.45,1.4,0.98
,-9.459,0.756,-3.022,-9.438,0.842,-2.991,2.31,1.4,0.98
,-9.426,0.78,-3.051,-9.442,0.787,-2.974,2.38,1.12,0.98
226.0,-9.375,0.799,-2.903,-9.409,0.811,-2.967,2.1,1.26,0.84
,-9.43,0.749,-2.922,-9.423,0.857,-3.01,2.31,1.33,0.84
,-9.418,0.744,-2.912,-9.399,0.814,-3.003,2.66,1.4,0.98
,-9.428,0.754,-2.946,-9.392,0.79,-3.005,3.29,1.33,0.91
302.0,-9.407,0.802,-2.991,-9.387,0.826,-2.946,1.82,1.4,0.84
,-9.411,0.771,-2.958,-9.299,0.895,-3.013,2.03,1.54,0.91
,-9.39,0.771,-2.965,-9.428,0.847,-3.022,2.03,1.26,0.84
,-9.476,0.749,-2.979,-9.454,0.771,-3.015,2.24,1.33,0.91
378.0,-9.447,0.613,-3.005,-9.421,0.835,-2.96,1.12,1.33,0.77
,-9.45,0.663,-2.958,-9.445,0.792,-2.991,2.03,1.26,0.84
,-9.404,0.766,-2.998,-9.397,0.849,-2.998,2.66,1.33,0.91
,-9.43,0.828,-2.982,-9.378,0.936,-3.017,2.59,1.4,1.05
453.0,-9.454,0.859,-2.979,-9.418,0.761,-2.96,1.33,1.33,0.84
,-9.454,0.708,-2.915,-9.414,0.852,-2.977,1.05,1.4,1.12
,-9.481,0.648,-2.924,-9.447,0.79,-2.979,1.61,1.26,1.12
,-9.452,0.629,-2.907,-9.442,0.708,-2.953,2.45,1.26,1.19
529.0,-9.474,0.677,-2.948,-9.433,0.794,-2.986,0.91,1.4,0.98
,-9.45,0.696,-2.912,-9.418,0.766,-3.01,1.75,1.4,1.26
,-9.409,0.711,-2.958,-9.402,0.771,-2.998,2.45,1.33,1.26
,-9.447,0.821,-2.955,-9.407,0.775,-3.017,2.66,1.33,1.33
605.0,-9.426,0.828,-3.065,-9.38,0.794,-2.96,2.87,1.33,1.33
,-9.409,0.905,-3.013,-9.383,0.878,-2.912,2.38,1.4,1.47
,-9.407,0.826,-2.967,-9.454,0.878,-2.912,1.89,1.19,1.26
,-9.347,0.804,-2.915,-9.483,0.838,-2.893,1.96,1.12,1.26
681.0,-9.368,0.823,-2.891,-9.342,0.809,-3.017,2.31,1.47,1.26
,-9.414,0.84,-2.943,-9.351,0.974,-2.979,2.31,1.47,1.19
,-9.481,0.794,-2.95,-9.375,1.041,-3.058,2.17,1.12,1.26
,-9.471,0.713,-2.996,-9.478,0.782,-3.015,2.17,1.4,1.54
757.0,-9.505,0.601,-2.955,-9.318,1.103,-3.125,0.42,0.91,1.33
,-9.464,0.548,-2.95,-9.433,0.859,-3.051,2.17,1.19,1.54
,-9.442,0.785,-2.943,-9.493,0.567,-2.965,3.5,1.12,1.54
,-9.351,1.084,-3.065,-9.507,0.419,-2.938,3.78,1.05,1.54
832.0,-9.49,0.605,-2.936,-9.483,0.622,-2.931,4.06,0.84,2.38
,-9.416,0.735,-2.967,-9.469,0.632,-2.919,4.34,0.77,2.52
,-9.433,0.759,-2.919,-9.416,0.768,-2.893,3.15,0.7,2.38
,-9.433,0.68,-2.927,-9.409,0.84,-2.864,2.1,0.84,2.45
908.0,-9.474,0.885,-2.855,-9.447,0.658,-2.862,2.8,1.05,3.22
,-9.426,0.739,-2.807,-9.476,0.713,-2.907,2.59,1.26,3.5
,-9.507,0.639,-2.793,-9.438,0.773,-2.955,2.8,1.19,3.71
,-9.531,0.584,-2.804,-9.442,0.802,-2.982,3.71,1.4,4.13
983.0,-9.359,0.897,-3.044,-9.442,0.739,-2.986,4.06,1.54,4.62
,-9.359,0.96,-3.022,-9.414,0.814,-3.008,3.22,1.75,4.55
,-9.414,0.945,-2.991,-9.414,0.857,-3.003,2.17,1.75,4.55
,-9.452,0.84,-2.977,-9.397,0.818,-2.967,2.1,1.75,4.9
1059.0,-9.426,0.778,-2.931,-9.423,0.749,-2.9,2.31,1.75,5.46
,-9.435,0.723,-2.919,-9.385,0.814,-2.826,2.17,1.61,5.46
,-9.481,0.651,-2.867,-9.45,0.849,-2.733,2.59,1.47,5.67
,-9.397,0.706,-2.876,-9.426,0.838,-2.737,3.5,1.61,5.88
1135.0,-9.426,0.849,-2.69,-9.414,0.873,-2.807,4.48,2.87,6.58
,-9.43,0.885,-2.716,-9.38,0.876,-2.778,4.76,3.22,6.79
,-9.411,0.955,-2.79,-9.404,0.928,-2.769,4.48,3.57,7.0
,-9.421,0.955,-2.73,-9.421,0.952,-2.807,3.85,4.13,7.28
1211.0,-9.414,0.974,-2.807,-9.378,1.007,-2.86,3.92,5.46,8.61
,-9.435,0.983,-2.831,-9.344,0.969,-2.833,3.71,5.74,8.68
,-9.407,0.981,-2.819,-9.342,1.019,-2.831,3.36,5.95,8.96
,-9.332,0.986,-2.879,-9.354,1.05,-2.728,3.01,6.23,9.17
1286.0,-9.287,1.046,-2.637,-9.373,0.969,-2.3,2.52,8.54,10.08
,-9.277,1.089,-2.51,-9.402,1.039,-2.264,2.38,9.66,10.36
,-9.337,1.11,-2.458,-9.284,1.103,-2.209,2.17,10.5,10.5
,-9.399,1.06,-2.345,-9.136,1.259,-2.13,2.24,11.13,10.78
1362.0,-9.139,1.39,-2.039,-9.237,1.091,-1.522,4.34,17.57,11.41
,-9.165,1.304,-1.917,-9.27,1.218,-1.577,2.59,19.39,11.41
,-9.261,1.103,-1.539,-9.395,1.326,-1.843,1.05,21.49,11.62
,-9.282,1.122,-1.519,-9.665,1.417,-2.233,2.1,23.87,11.9
1438.0,-9.988,1.464,-2.644,-9.641,2.099,-4.02,3.85,31.78,12.25
,-9.95,1.5,-3.106,-9.658,2.089,-3.996,3.78,33.11,12.32
,-9.842,1.732,-3.525,-9.694,1.979,-3.855,2.8,34.37,11.83
,-9.665,2.012,-3.915,-9.938,1.876,-3.53,0.07,36.12,11.83
1514.0,-10.148,1.74,-3.355,-9.959,1.89,-3.123,-13.79,41.3,12.74
,-10.189,1.598,-3.199,-10.029,1.778,-2.991,-12.18,42.28,13.09
,-10.294,1.699,-3.297,-10.041,1.735,-3.07,-9.94,43.4,13.51
,-10.151,1.761,-3.218,-10.203,1.723,-3.044,-6.72,44.59,14.0
1589.0,-10.483,1.732,-3.185,-11.17,0.914,-2.197,2.45,50.61,13.65
,-10.407,1.926,-3.317,-10.4,-1.364,-1.687,2.59,51.8,13.37
,-10.995,2.163,-2.883,-7.641,-1.945,-4.2,2.73,51.52,13.16
,-11.158,1.9,-2.745,-7.399,-1.713,-4.69,1.68,46.27,12.81
1665.0,-7.753,0.364,-5.839,-8.593,4.078,-5.832,64.26,35.0,6.02
,-8.27,1.886,-6.152,-8.409,3.525,-5.473,65.17,37.52,4.62
,-8.368,3.001,-6.336,-8.531,2.728,-4.953,53.13,37.17,2.94
,-8.701,3.886,-6.056,-8.696,1.874,-4.58,35.0,34.02,1.47
1741.0,-8.614,1.165,-4.334,-8.629,1.302,-4.238,-35.0,1.26,-9.31
,-8.497,0.802,-4.231,-8.67,1.426,-4.204,-30.59,-5.53,-12.39
,-8.545,0.926,-4.149,-8.756,1.637,-4.042,-24.29,-12.11,-14.98
,-8.648,1.067,-4.152,-8.574,1.933,-4.022,-17.99,-18.48,-16.8
1816.0,-8.67,2.103,-4.03,-9.234,1.744,-3.527,-7.91,-47.39,-18.2
,-8.897,2.142,-4.039,-8.636,1.596,-3.697,-8.61,-52.64,-18.27
,-9.208,2.0,-3.888,-8.631,1.512,-3.752,-9.59,-58.73,-18.34
,-9.416,1.998,-3.486,-8.856,1.548,-3.829,-9.45,-66.5,-19.04
1892.0,-9.356,1.651,-3.668,-9.368,1.85,-3.113,4.83,-90.3,-19.25
,-9.679,1.63,-3.364,-9.363,2.024,-3.19,5.46,-93.66,-17.99
,-9.691,1.539,-2.984,-9.399,2.12,-3.178,7.0,-97.65,-16.8
,-9.55,1.653,-3.015,-9.397,2.084,-3.068,10.71,-101.22,-15.68
1968.0,-9.469,2.017,-2.867,-9.069,1.189,-2.424,9.66,-108.5,-11.69
,-9.557,1.814,-2.568,-9.122,1.175,-2.467,6.37,-109.62,-10.85
,-9.749,1.57,-2.276,-9.253,1.304,-2.407,4.83,-112.77,-10.15
,-9.337,1.359,-2.422,-9.296,1.424,-2.312,5.53,-114.94,-9.52
2044.0,-9.244,1.374,-1.996,-9.052,1.653,-1.261,8.68,-105.7,-7.98
,-9.397,1.323,-1.508,-9.155,1.634,-1.177,6.09,-104.3,-8.05
,-9.177,1.395,-1.503,-9.208,1.529,-1.022,3.57,-102.83,-8.54
,-9.155,1.548,-1.436,-9.38,1.247,-0.711,1.96,-98.84,-9.17
2119.0,-9.031,0.639,-0.66,-8.705,0.318,-0.658,-13.79,-75.04,-13.37
,-8.715,0.017,-0.608,-8.832,0.471,-0.357,-7.84,-70.77,-12.39
,-8.425,-0.139,-0.613,-8.684,0.687,-0.203,2.24,-64.47,-11.48
,-8.519,0.017,-0.648,-8.564,1.012,-0.309,9.87,-56.98,-11.06
2195.0,-8.421,1.287,-0.333,-8.093,0.543,-0.227,28.84,-23.45,-7.49
,-8.186,1.417,-0.292,-8.165,0.57,-0.177,27.02,-14.7,-8.12
,-8.136,1.139,0.022,-8.284,0.598,-0.16,23.59,-5.39,-8.47
,-8.267,0.859,-0.029,-8.902,0.993,0.366,22.82,2.87,-7.91
2271.0,-10.67,3.12,1.945,-9.835,0.337,2.194,47.11,38.01,-9.31
,-13.168,5.281,3.534,-9.191,2.108,1.924,36.89,43.05,-13.16
,-14.602,4.202,3.714,-10.29,3.211,1.826,16.31,45.71,-10.01
,-12.838,1.127,3.034,-11.39,3.139,0.759,8.89,46.55,-1.82
2347.0,-10.799,2.283,-0.524,-8.476,0.634,-4.221,7.91,79.24,-17.36
,-9.165,0.409,-1.39,-8.318,0.869,-3.283,-6.02,89.46,-18.76
,-7.787,-0.495,-2.01,-8.983,1.223,-2.601,-9.03,96.39,-19.53
,-7.796,-0.45,-2.484,-9.811,1.397,-2.989,-6.86,97.44,-19.88
2422.0,-10.531,0.603,-4.829,-9.466,-0.141,-4.243,2.66,46.34,-15.61
,-9.438,0.079,-5.827,-9.39,-1.742,-3.865,6.23,51.03,-20.86
,-9.232,1.082,-5.032,-9.753,-2.18,-3.238,5.74,56.84,-23.73
,-9.584,1.424,-4.334,-10.321,-1.955,-2.8,1.19,55.37,-20.16
2498.0,-10.043,-1.479,-2.857,-9.251,-0.488,-2.209,29.47,42.07,-2.52
,-9.921,-1.134,-2.321,-9.311,-0.354,-2.436,35.49,40.95,-3.29
,-9.943,-0.72,-2.216,-9.639,-0.333,-2.479,37.03,37.94,-3.08
,-9.581,-0.474,-2.233,-10.215,-0.426,-2.388,36.75,35.49,-2.8
2573.0,-9.933,-0.826,-2.489,-9.402,0.845,-3.585,25.55,35.77,-1.19
,-9.557,-0.957,-2.694,-9.624,0.914,-3.731,28.56,34.23,-1.4
,-9.368,-0.452,-3.037,-9.605,0.605,-3.886,32.69,33.25,-2.52
,-9.38,0.323,-3.458,-9.505,0.323,-3.979,34.65,32.9,-3.5
2649.0,-9.359,0.347,-4.276,-9.457,0.194,-4.025,14.14,27.16,-6.09
,-9.562,0.57,-4.405,-9.485,0.304,-3.857,12.11,25.69,-7.07
,-9.586,0.66,-4.484,-9.497,0.211,-3.692,9.24,23.94,-7.07
,-9.49,0.424,-4.255,-9.619,-0.091,-3.374,5.88,22.4,-6.79
2725.0,-9.643,-0.488,-3.168,-9.615,-0.38,-2.391,-3.71,19.11,-6.23
,-9.502,-0.639,-3.108,-10.017,-0.483,-1.764,-3.43,18.62,-5.6
,-9.509,-0.744,-2.883,-9.868,-1.06,-1.91,-2.94,18.62,-5.6
,-9.564,-0.629,-2.673,-9.251,-1.436,-1.709,-2.24,18.55,-5.32
2801.0,-9.229,-1.357,-1.342,-9.131,0.127,-1.785,19.46,17.57,-2.66
,-8.983,-0.613,-1.618,-9.454,-0.653,-1.601,25.83,19.6,-2.31
,-9.22,0.376,-1.701,-9.086,-1.146,-1.721,27.09,22.47,-2.52
,-9.533,0.701,-1.744,-9.213,-0.689,-1.754,22.96,23.94,-2.87
2877.0,-9.385,0.144,-2.022,-9.399,0.486,-3.886,28.91,34.72,-3.15
,-9.282,0.491,-2.441,-9.399,0.373,-4.171,26.32,36.89,-3.85
,-9.318,0.333,-2.915,-9.349,0.385,-4.243,22.26,38.71,-4.34
,-9.466,0.663,-3.489,-9.526,0.689,-4.599,21.42,40.18,-4.55
2952.0,-9.495,0.251,-4.503,-10.426,-0.419,-3.017,1.26,45.01,-3.78
,-9.677,0.235,-4.312,-10.146,-0.05,-2.388,-1.96,45.78,-3.36
,-9.938,0.34,-4.188,-10.311,-1.156,-1.019,-3.92,46.69,-3.5
,-9.722,0.156,-3.623,-10.246,-1.685,-0.672,-8.4,48.3,-3.64
3028.0,-10.636,-1.749,-0.124,-10.565,-1.529,-0.156,-2.87,60.41,-2.17
,-9.648,-1.79,-0.029,-12.709,-3.948,0.172,4.06,64.61,-1.26
,-10.0,-1.129,0.199,-12.393,-0.828,-0.921,8.47,70.77,-0.63
,-10.057,-0.96,0.246,-10.948,2.836,-1.522,8.12,77.0,-0.63
3104.0,-11.44,3.106,-1.615,-11.926,3.587,-2.199,14.98,112.49,0.07
,-11.907,2.816,-1.603,-12.338,3.91,-1.338,-0.14,117.74,-3.01
,-11.943,3.391,-1.744,-12.79,4.444,-0.766,-9.66,123.83,-4.55
,-11.869,4.173,-2.28,-12.876,3.565,-0.117,-16.38,131.46,-7.21
3180.0,-12.85,2.127,-0.491,-11.476,-1.816,-4.831,-133.63,176.96,-25.27
,-13.338,1.835,-1.783,-10.538,-3.206,-6.973,-151.69,183.05,-27.58
,-13.242,0.61,-2.474,-9.753,-3.262,-9.38,-162.19,185.15,-27.51
,-12.706,-0.11,-3.92,-10.388,-2.778,-9.191,-165.48,183.54,-24.92
3255.0,-12.352,-2.324,-7.545,-6.234,-1.721,-11.96,-38.08,149.94,-1.26
,-12.158,-1.869,-7.865,-5.03,0.436,-12.422,-26.25,131.11,-1.26
,-11.096,-2.635,-7.825,-6.219,2.149,-10.263,-24.92,107.87,3.01
,-8.792,-2.74,-9.361,-8.074,2.455,-8.133,-6.72,87.29,8.26
3331.0,-8.78,1.706,-7.588,-4.759,1.297,-9.189,-17.36,21.0,1.54
,-7.162,1.235,-8.428,-4.381,1.003,-9.332,-24.64,-9.59,-0.77
,-5.848,1.29,-8.772,-4.099,0.598,-9.246,-21.91,-28.28,-1.82
,-4.831,1.228,-8.837,-4.133,0.136,-8.981,-18.06,-45.85,-3.15
3406.0,-4.152,0.136,-8.993,-2.991,0.098,-8.739,-3.22,-129.01,-11.97
,-3.819,0.438,-8.859,-2.934,-0.034,-8.638,-0.84,-146.23,-10.15
,-3.422,0.536,-8.717,-3.324,0.069,-8.033,-0.7,-163.03,-9.03
,-3.178,0.361,-8.54,-3.496,0.237,-7.961,0.56,-179.2,-10.29
3482.0,-3.587,0.744,-8.646,-4.898,2.295,-8.55,41.44,-235.41,-23.8
,-3.362,1.184,-8.818,-5.025,2.101,-8.648,39.48,-244.51,-24.92
,-3.867,1.804,-8.236,-5.08,1.412,-8.533,33.25,-254.03,-25.97
,-4.267,2.376,-8.679,-5.698,-0.256,-8.129,22.4,-263.97,-26.81
3558.0,-6.341,-1.78,-7.097,-8.033,1.23,-6.135,-27.09,-293.44,-36.82
,-6.384,-2.431,-6.99,-8.203,2.527,-6.088,-6.58,-294.14,-38.5
,-6.336,-2.01,-6.722,-8.61,2.297,-5.65,18.41,-286.58,-41.16
,-7.401,-0.522,-6.329,-8.815,1.467,-4.149,40.95,-278.18,-41.93
3634.0,-9.227,0.814,-3.424,-9.179,1.421,-1.115,26.81,-242.2,-20.44
,-9.368,0.414,-2.989,-8.253,1.615,-0.816,29.26,-227.43,-14.42
,-9.313,0.555,-2.625,-7.868,1.61,-0.201,33.67,-207.97,-9.66
,-9.184,0.814,-1.567,-7.528,1.268,0.158,37.45,-185.08,-6.16
3710.0,-7.657,0.5,0.452,-7.806,-1.117,-0.127,21.07,-54.39,-6.16
,-7.806,-0.352,0.481,-8.083,-1.115,-0.598,18.2,-27.3,-6.58
,-8.093,-0.976,0.648,-8.923,-0.744,-0.89,19.74,-0.28,-6.72
,-8.16,-1.05,0.278,-12.917,2.51,2.498,27.37,24.71,-6.02
3785.0,-16.425,5.762,4.269,-7.452,4.855,-2.678,50.12,86.52,-17.71
,-20.73,0.462,3.247,-9.256,5.614,-3.972,39.62,87.43,-6.44
,-13.623,-3.369,-1.007,-8.095,1.816,-3.731,63.84,85.33,10.22
,-5.788,0.297,-3.991,-7.784,-1.134,-3.97,98.35,103.74,8.75
3861.0,-7.688,-1.759,-5.118,-9.179,3.183,-4.817,42.84,86.94,-1.19
,-9.768,-1.62,-6.408,-10.208,3.209,-4.917,55.09,92.61,-3.99
,-9.464,-0.909,-7.468,-10.22,2.383,-5.221,60.13,96.39,-8.82
,-8.318,1.094,-6.147,-9.794,1.969,-4.769,57.82,103.18,-13.72
3937.0,-10.184,1.591,-3.798,-9.423,-5.023,-3.305,-30.1,81.06,-15.19
,-9.703,0.754,-3.75,-9.177,-3.084,-3.592,-45.15,70.21,-18.55
,-9.541,-1.34,-3.766,-9.318,-1.498,-3.659,-51.94,58.8,-14.98
,-9.536,-4.142,-3.793,-9.744,0.632,-3.553,-33.18,55.02,-8.26
4013.0,-10.395,1.85,-2.85,-9.481,-2.168,-2.819,33.81,53.27,-2.45
,-9.899,0.696,-2.498,-9.562,-2.106,-3.029,7.07,47.81,-4.69
,-9.746,-0.83,-2.276,-9.61,-1.23,-3.403,-9.66,45.36,-6.44
,-9.986,-1.759,-2.199,-9.296,0.452,-3.987,-11.62,43.68,-5.95
4088.0,-9.636,1.094,-4.14,-9.222,-1.543,-3.623,21.77,38.43,-5.25
,-9.801,0.749,-4.496,-9.433,-1.22,-3.228,9.1,35.07,-5.32
,-9.658,-0.242,-4.288,-10.074,-0.771,-2.962,-3.01,32.9,-3.71
,-9.34,-1.261,-3.9,-9.871,-0.727,-3.01,-6.72,31.43,-2.8
4164.0,-9.56,-0.61,-3.19,-9.584,0.512,-2.757,16.38,28.63,-0.98
,-9.361,-0.416,-3.113,-9.562,-0.242,-2.429,17.15,29.12,-1.4
,-9.143,0.481,-3.4,-9.44,-0.73,-2.297,18.55,29.75,-1.96
,-9.268,0.83,-3.001,-9.373,-0.651,-2.355,14.77,30.45,-2.24
4239.0,-9.294,-0.146,-2.603,-9.284,-1.395,-2.869,10.71,32.97,-3.29
,-9.39,0.136,-2.592,-9.155,-0.416,-3.293,11.48,34.02,-3.78
,-9.825,-0.804,-2.491,-9.316,0.526,-3.264,11.76,31.29,-3.92
,-9.186,-1.424,-2.986,-9.423,0.732,-3.446,15.47,30.45,-3.71
4315.0,-9.509,0.321,-3.376,-10.077,0.278,-2.919,1.47,38.57,-5.32
,-9.478,-0.16,-3.57,-10.055,0.158,-2.003,-3.08,38.22,-5.39
,-9.323,-0.223,-3.817,-10.077,-0.189,-1.259,-3.78,42.07,-6.09
,-9.792,-0.644,-3.209,-10.266,-0.663,-0.481,-7.07,44.17,-8.54
4391.0,-10.445,-0.936,0.213,-10.77,0.187,-1.01,-23.38,58.38,-6.44
,-10.409,-0.763,0.158,-10.823,-0.002,-1.414,-12.74,62.86,-4.34
,-10.751,-0.156,-0.053,-10.747,-0.019,-1.74,-4.34,68.11,-2.03
,-10.665,0.101,-0.605,-10.739,0.146,-2.087,0.91,73.29,0.35
4467.0,-11.177,0.017,-2.661,-10.553,3.802,-0.727,3.78,96.67,3.01
,-12.651,-3.723,-1.232,-11.034,2.424,0.313,-6.58,99.33,4.34
,-12.752,-1.388,-2.01,-11.436,1.773,0.656,6.09,101.85,9.03
,-10.644,2.747,-1.57,-11.558,1.943,0.498,14.56,113.82,9.17
4542.0,-12.168,2.237,1.864,-14.343,2.845,-2.015,-46.13,156.59,-7.07
,-12.984,3.781,1.256,-13.113,2.383,-3.747,-62.86,167.37,-12.32
,-13.707,4.212,0.416,-12.51,-0.546,-5.798,-89.95,175.28,-19.04
,-13.874,3.266,-0.486,-12.189,-2.149,-7.947,-124.46,182.21,-24.64
4618.0,-11.689,-3.874,-9.177,-10.435,-1.531,-9.158,-122.5,169.82,-10.92
,-12.005,-4.166,-8.792,-8.5,0.668,-11.172,-86.73,163.03,-7.84
,-11.706,-3.431,-8.495,-6.406,2.206,-12.13,-53.97,153.51,-9.1
,-11.61,-2.826,-8.301,-6.664,3.309,-10.77,-29.4,138.53,-10.5
4694.0,-7.179,3.329,-9.474,-6.095,0.124,-8.275,-51.59,68.6,-17.43
,-8.002,2.058,-8.662,-5.858,0.61,-8.258,-70.77,43.05,-18.83
,-7.516,0.51,-8.727,-4.692,0.754,-8.863,-78.54,14.35,-17.99
,-6.497,-0.177,-8.638,-3.908,0.9,-9.05,-71.82,-8.12,-16.03
4770.0,-3.857,0.802,-8.765,-3.599,0.361,-8.05,-10.57,-99.75,-30.66
,-3.604,0.383,-8.799,-3.673,-0.218,-7.597,-4.97,-115.99,-31.29
,-3.465,0.593,-8.595,-3.754,-0.067,-7.509,1.33,-129.36,-28.42
,-3.661,0.749,-8.26,-3.221,0.27,-7.909,3.85,-144.13,-25.06
4846.0,-2.941,0.924,-8.366,-4.164,3.345,-8.696,59.43,-216.23,-36.12
,-2.666,1.826,-8.815,-5.319,2.613,-9.103,67.9,-224.49,-36.61
,-2.836,2.51,-8.437,-5.056,1.826,-9.363,67.06,-233.8,-35.0
,-3.597,3.187,-9.016,-4.64,0.622,-8.82,60.34,-247.24,-32.62
4921.0,-4.499,-0.175,-8.674,-7.344,0.357,-7.011,-1.82,-287.91,-37.87
,-5.284,-0.579,-8.311,-7.526,1.63,-7.191,5.53,-291.13,-36.89
,-6.248,-0.771,-8.39,-7.289,2.398,-6.724,14.35,-292.81,-38.78
,-6.403,-0.4,-8.385,-7.523,2.309,-6.133,21.7,-289.45,-41.44
4997.0,-8.619,1.108,-5.391,-9.411,-0.756,-2.381,-9.87,-257.95,-40.88
,-9.196,0.278,-4.137,-9.356,-0.505,-1.328,-14.84,-245.77,-39.48
,-9.708,-0.522,-3.324,-8.99,-0.153,-0.603,-11.62,-230.79,-35.84
,-9.744,-0.842,-2.864,-8.133,0.16,-0.421,-2.73,-213.08,-31.01
5072.0,-7.731,0.227,-0.139,-7.763,0.34,-0.069,53.76,-99.68,-6.65
,-7.655,0.536,-0.096,-7.662,-0.069,-0.337,57.68,-72.52,-4.9
,-7.763,0.627,-0.235,-7.526,-0.237,-1.06,57.82,-46.55,-4.06
,-7.77,0.366,0.002,-7.636,0.488,-1.955,54.88,-21.77,-3.71
5148.0,-10.928,3.295,1.048,-6.305,1.127,-1.833,52.43,75.25,-9.1
,-16.956,7.676,5.197,-9.639,6.446,-0.177,35.91,79.8,-17.22
,-22.713,1.094,6.229,-10.541,6.729,-2.546,11.2,72.1,-10.92
,-14.432,-3.393,0.648,-8.918,2.666,-4.116,34.79,71.33,8.96
5224.0,-7.059,-1.043,-5.549,-8.914,0.672,-7.05,-1.54,99.19,-2.38
,-6.837,-2.862,-6.686,-10.333,1.527,-6.588,2.17,103.11,-3.22
,-7.303,-2.563,-7.904,-10.596,0.96,-5.889,16.52,101.64,-5.25
,-7.562,-1.027,-8.136,-9.911,0.94,-5.504,28.28,101.92,-7.0
5300.0,-9.241,0.936,-4.795,-10.177,-2.575,-3.137,-5.32,82.18,3.57
,-9.521,0.352,-4.087,-9.696,-3.676,-3.314,-10.01,77.42,-1.05
,-10.313,-0.156,-3.434,-9.531,-3.915,-3.324,-16.87,71.12,-7.91
,-10.519,-1.151,-3.223,-9.457,-3.077,-3.563,-27.02,63.0,-11.62
5375.0,-9.466,-1.716,-4.149,-9.493,-0.313,-3.417,38.57,48.79,4.13
,-9.835,-0.409,-4.02,-10.084,-0.579,-3.12,38.85,47.88,4.55
,-10.156,0.189,-3.821,-9.983,-1.029,-3.123,29.89,44.24,2.8
,-9.679,-0.144,-3.676,-9.84,-1.196,-2.979,17.85,40.53,0.56
5451.0,-9.488,-1.156,-2.938,-9.639,0.677,-2.644,17.71,31.85,1.68
,-9.428,-0.266,-2.974,-9.672,0.12,-2.702,26.11,31.43,1.68
,-9.596,0.876,-2.938,-9.586,-0.043,-2.733,28.49,31.01,1.4
,-9.756,1.094,-2.742,-9.459,0.263,-2.773,22.68,29.4,1.12
5526.0,-9.584,0.531,-2.716,-9.174,0.038,-3.125,18.97,27.09,0.7
,-9.615,-0.421,-2.718,-9.404,0.905,-3.02,19.32,25.06,0.35
,-9.474,-0.976,-2.955,-9.438,1.039,-3.139,22.75,24.5,0.63
,-9.426,-0.809,-3.096,-9.402,0.323,-2.948,29.12,25.06,0.7
5602.0,-9.385,-0.268,-2.974,-9.667,-0.979,-2.261,13.86,27.09,-5.18
,-9.617,-0.83,-2.651,-9.361,-0.689,-2.505,16.8,28.56,-4.2
,-9.787,-1.089,-2.414,-9.074,-0.321,-2.56,21.98,30.03,-2.66
,-9.84,-1.163,-2.091,-9.038,0.105,-2.568,22.12,31.85,-0.84
5678.0,-9.325,0.122,-2.343,-9.56,-0.625,-1.268,-2.38,39.76,-0.56
,-9.555,-0.168,-2.194,-9.739,-0.373,-1.228,-6.79,40.6,-1.26
,-9.529,-0.5,-2.0,-9.868,-0.392,-0.962,-6.72,41.93,-1.75
,-9.655,-0.558,-1.543,-10.043,0.079,-1.091,-5.39,43.89,-2.1
5754.0,-10.139,0.189,-1.175,-10.105,-0.383,-2.257,3.92,58.03,-1.4
,-10.177,0.246,-1.359,-9.931,-0.294,-2.891,3.57,61.39,-1.19
,-10.239,0.239,-1.476,-10.043,-0.041,-3.357,3.57,64.89,-0.14
,-10.172,-0.115,-1.783,-10.156,0.034,-3.814,4.2,67.55,0.7
5830.0,-10.179,-0.048,-4.066,-10.723,0.321,-2.553,2.38,82.39,-0.56
,-10.574,-1.211,-4.154,-10.404,1.472,-1.843,-8.33,85.05,0.07
,-12.266,-3.869,-3.259,-10.699,0.89,-1.311,-12.11,84.91,3.08
,-12.173,-2.73,-2.943,-10.986,0.156,-0.878,-2.8,87.15,9.03
5905.0,-11.311,0.321,-0.907,-11.697,6.521,-0.191,-38.85,115.99,6.51
,-11.522,0.893,-0.96,-11.467,5.312,0.309,-44.38,123.48,7.21
,-11.5,1.467,-0.302,-12.307,2.764,-0.029,-54.95,133.63,7.63
,-12.036,2.962,1.213,-12.706,0.928,-0.359,-69.72,144.97,5.46
5981.0,-12.338,0.117,-2.754,-10.945,-1.967,-8.559,-158.62,171.78,-23.03
,-11.503,-0.622,-4.475,-11.314,-1.034,-8.586,-147.49,173.53,-17.78
,-11.168,-2.4,-5.81,-11.586,-1.079,-8.105,-126.21,169.75,-10.08
,-10.572,-2.596,-7.59,-11.158,-0.972,-7.916,-92.19,164.71,-5.11
6057.0,-9.732,-0.869,-8.634,-7.198,2.486,-9.775,-15.89,102.9,-2.38
,-8.026,-0.251,-9.433,-7.313,2.682,-9.091,-10.08,88.2,1.19
,-7.085,0.926,-10.476,-7.389,2.297,-8.926,-4.83,77.98,0.77
,-7.018,1.981,-10.184,-6.973,1.795,-8.782,-7.0,69.02,-2.59
6133.0,-6.772,1.778,-8.354,-4.365,-0.048,-9.5,-44.31,-21.21,-15.05
,-6.698,1.531,-8.066,-3.795,-0.254,-9.198,-41.86,-42.84,-16.45
,-6.076,1.098,-8.323,-4.116,0.227,-8.394,-38.36,-64.89,-18.9
,-5.291,0.584,-8.787,-3.924,0.857,-8.406,-33.6,-83.72,-22.68
6208.0,-3.999,0.847,-8.404,-3.91,0.794,-8.126,9.38,-152.74,-22.82
,-4.257,0.605,-8.122,-3.575,1.582,-8.605,12.53,-166.53,-23.38
,-4.197,0.495,-8.011,-3.585,2.185,-7.992,19.11,-181.72,-24.5
,-4.235,0.455,-7.944,-3.955,2.917,-8.44,30.03,-196.98,-25.48
6284.0,-4.142,3.084,-8.933,-5.666,-0.433,-7.961,35.63,-251.3,-30.17
,-4.927,3.448,-8.421,-5.822,-1.517,-7.854,16.94,-258.65,-32.97
,-5.169,3.137,-8.569,-5.848,-1.615,-8.002,-4.2,-268.1,-32.97
,-5.286,1.484,-8.354,-6.406,-1.07,-7.602,-18.97,-275.03,-31.22
6359.0,-7.083,-0.136,-7.322,-8.744,2.216,-4.173,51.17,-281.61,-28.28
,-7.72,0.976,-7.76,-9.103,2.261,-3.778,56.84,-283.71,-24.22
,-7.715,1.847,-7.428,-9.373,2.357,-3.723,52.92,-280.98,-19.04
,-8.11,2.266,-5.803,-9.753,2.082,-3.314,45.36,-271.67,-14.42
6435.0,-9.641,1.752,-2.675,-8.363,-0.926,-0.153,7.63,-201.04,-12.81
,-9.222,1.223,-1.883,-8.162,-0.859,0.543,3.57,-181.23,-13.3
,-9.095,0.383,-0.938,-8.253,-0.531,0.718,4.13,-158.62,-11.76
,-8.689,-0.474,-0.696,-7.746,-0.759,0.639,10.71,-135.8,-9.03
6511.0,-7.21,-1.144,0.072,-7.954,-0.077,-3.625,71.54,-14.7,6.3
,-7.064,-1.395,-0.708,-10.318,1.859,-1.95,83.3,11.83,8.05
,-7.428,-1.151,-1.819,-17.14,8.521,4.051,92.33,35.35,8.61
,-7.487,-0.62,-2.97,-21.673,5.645,6.076,98.49,55.58,8.54
6587.0,-13.709,1.524,0.538,-6.384,3.518,-6.047,47.39,43.33,6.16
,-8.023,4.109,-1.134,-5.138,1.299,-2.572,51.03,85.19,2.17
,-11.44,7.806,-1.443,-7.755,0.656,-1.129,51.87,99.47,-11.48
,-9.249,5.796,-4.125,-10.084,-2.491,-3.697,24.5,91.0,-15.89
6663.0,-10.325,-4.676,-6.729,-9.615,-0.124,-5.382,-27.58,76.65,-11.13
,-9.933,-3.484,-6.308,-8.765,-0.048,-4.489,-5.11,92.82,-12.25
,-10.615,-1.366,-5.099,-9.954,0.749,-3.12,10.78,96.81,-12.81
,-10.72,-0.471,-4.793,-10.756,1.196,-2.331,13.93,87.29,-10.15
6738.0,-10.28,1.06,-2.582,-9.564,-3.111,-2.187,-10.01,53.55,-12.32
,-9.753,0.129,-2.826,-9.019,-2.058,-2.582,-23.94,51.66,-11.69
,-9.94,-0.876,-2.479,-9.591,0.029,-2.627,-31.15,51.38,-8.26
,-10.313,-2.623,-2.015,-10.115,1.134,-2.812,-20.51,50.05,-4.2
6814.0,-10.244,1.196,-2.723,-9.66,-1.426,-2.46,16.1,44.52,-2.73
,-10.029,0.66,-2.601,-9.596,-1.127,-2.711,0.7,43.05,-2.17
,-10.041,-0.328,-2.314,-9.852,-0.507,-2.659,-11.55,40.53,-1.89
,-10.014,-1.17,-2.209,-9.899,0.239,-2.663,-15.12,38.29,-2.1
6890.0,-9.866,0.505,-2.577,-9.737,-0.993,-2.063,4.48,31.92,-1.26
,-9.82,0.103,-2.335,-9.842,-0.663,-1.977,1.33,30.03,-0.49
,-9.931,-0.598,-2.149,-9.67,-0.175,-2.204,1.75,27.65,0.28
,-9.797,-0.94,-2.19,-9.629,0.452,-2.458,5.6,26.18,1.12
6966.0,-9.66,0.605,-2.541,-9.636,0.06,-2.469,23.66,23.17,3.64
,-9.598,0.156,-2.654,-9.378,0.55,-2.481,21.98,22.05,4.06
,-9.45,-0.108,-2.804,-9.363,0.608,-2.218,21.63,21.98,4.06
,-9.564,-0.103,-2.726,-9.488,0.491,-2.175,23.24,22.89,4.13
7041.0,-9.567,-0.01,-1.874,-9.696,0.237,-2.218,19.95,26.74,4.27
,-9.576,-0.524,-1.902,-9.45,0.546,-2.41,24.15,27.02,4.69
,-9.469,-0.416,-1.996,-9.234,0.33,-2.474,30.24,28.91,5.04
,-9.653,-0.022,-2.12,-9.105,0.105,-2.623,33.74,30.52,5.32
7117.0,-9.313,0.115,-2.654,-9.34,0.179,-2.752,23.38,34.65,4.9
,-9.392,0.132,-2.546,-9.189,-0.577,-2.649,23.38,35.84,5.39
,-9.418,0.347,-2.596,-9.227,-0.991,-2.551,22.47,36.68,5.39
,-9.411,0.196,-2.726,-9.366,-0.668,-2.517,20.44,37.1,5.04
7192.0,-9.433,-0.366,-2.4,-9.296,0.148,-2.568,36.33,38.43,7.63
,-9.423,-0.055,-2.283,-9.428,0.29,-2.773,35.49,40.46,7.77
,-9.304,0.196,-2.297,-9.636,0.304,-3.001,32.62,42.0,7.63
,-9.225,0.258,-2.213,-9.655,0.256,-3.137,28.7,43.82,7.56
7268.0,-9.773,0.012,-3.197,-11.905,-2.446,-3.24,14.07,50.75,8.89
,-9.71,-0.514,-3.379,-11.768,-0.744,-3.034,13.86,51.17,9.59
,-9.825,-1.031,-3.527,-11.067,1.108,-2.802,15.33,52.36,10.43
,-10.804,-2.484,-3.302,-10.342,1.637,-2.577,15.33,53.55,11.83
7344.0,-10.136,1.318,-2.376,-10.424,1.23,-1.668,-8.19,69.79,16.94
,-10.199,0.811,-2.139,-10.529,1.67,-0.938,-14.14,73.29,17.92
,-10.44,0.483,-2.111,-10.878,1.838,-0.426,-14.42,77.07,19.88
,-10.62,0.543,-1.828,-11.378,1.886,-0.287,-14.98,81.76,22.12
7420.0,-11.058,0.976,-1.031,-12.467,0.392,-1.058,-55.79,109.9,17.22
,-11.46,-0.385,-0.986,-11.78,0.354,-1.754,-54.74,116.83,12.81
,-12.07,-0.266,-1.108,-10.938,0.895,-3.278,-48.58,123.2,10.43
,-12.699,0.543,-1.237,-10.452,0.739,-4.494,-45.99,128.52,11.83
7495.0,-10.445,0.148,-5.686,-10.524,-3.209,-7.574,-33.04,132.51,26.88
,-10.44,-0.474,-7.152,-10.328,-4.185,-6.918,-35.7,127.05,31.71
,-10.438,-1.565,-7.444,-9.076,-4.604,-7.09,-36.96,121.52,38.36
,-10.562,-2.388,-7.964,-6.837,-4.544,-8.586,-30.38,116.41,46.06
7571.0,-4.977,-3.498,-9.806,-7.174,2.178,-7.664,91.28,61.04,71.4
,-4.341,-1.196,-10.928,-7.21,0.818,-8.256,110.95,52.78,74.06
,-3.709,1.137,-11.845,-5.908,-0.505,-9.189,108.57,46.06,74.83
,-5.14,2.012,-8.899,-5.066,-1.342,-8.689,86.94,37.73,74.9
7647.0,-5.106,-1.948,-7.904,-4.781,-3.02,-7.306,9.03,-63.07,102.2
,-4.977,-2.532,-7.944,-4.453,-2.946,-8.198,17.92,-82.25,104.86
,-4.676,-3.144,-7.727,-3.013,-2.364,-9.895,31.64,-101.29,106.82
,-4.594,-3.302,-7.406,-3.711,-2.07,-9.335,49.56,-118.86,106.68
7723.0,-4.068,-1.378,-9.684,-4.879,-1.271,-9.263,143.92,-180.11,101.08
,-5.073,-1.216,-9.423,-4.843,-1.273,-9.631,154.0,-187.74,102.48
,-5.413,-1.278,-9.249,-5.336,-1.639,-9.323,164.64,-196.56,106.12
,-5.162,-1.292,-9.201,-6.121,-2.137,-8.849,178.36,-205.8,111.3
7799.0,-6.774,-2.647,-8.409,-7.743,-1.579,-8.105,224.35,-212.59,123.9
,-7.167,-3.266,-8.031,-7.717,-0.531,-8.366,238.7,-207.76,126.28
,-7.368,-3.563,-8.028,-7.641,0.28,-8.179,257.04,-201.25,127.4
,-7.38,-2.733,-8.236,-8.196,0.369,-7.145,276.36,-192.43,127.19
7874.0,-8.378,0.342,-6.741,-7.461,-2.563,-5.865,270.06,-132.72,122.71
,-8.404,-1.127,-5.956,-7.15,-1.476,-5.899,263.06,-119.98,119.63
,-8.1,-2.12,-5.922,-7.097,-0.471,-6.195,265.37,-107.45,113.54
,-7.727,-2.51,-5.808,-6.973,0.256,-6.018,275.8,-93.31,105.56
7950.0,-6.971,0.931,-6.162,-6.911,1.283,-6.951,247.17,-20.93,69.79
,-6.729,1.144,-6.09,-7.277,1.515,-6.734,223.72,-11.27,62.72
,-6.53,0.998,-6.164,-7.688,2.266,-6.796,202.44,-2.73,55.37
,-7.038,1.041,-6.506,-7.909,2.938,-6.703,185.92,3.64,47.95
8025.0,-8.191,3.046,-7.061,-7.736,-2.295,-7.045,107.38,18.48,27.09
,-8.397,2.18,-7.198,-7.432,-3.144,-7.227,90.72,12.81,25.13
,-8.351,0.962,-7.353,-8.007,-3.101,-6.882,79.24,5.32,22.75
,-8.028,-0.835,-7.117,-8.459,-2.367,-6.676,76.79,-0.56,20.79
8101.0,-8.665,-1.321,-6.341,-10.641,0.675,-4.276,117.18,-14.98,9.52
,-8.973,-0.402,-5.934,-11.086,0.771,-3.329,109.13,-20.02,3.57
,-9.313,0.304,-5.623,-12.051,1.5,-1.926,91.56,-23.1,-3.71
,-9.909,0.735,-5.197,-12.704,2.91,-1.278,68.39,-24.64,-11.13
8177.0,-12.335,4.283,-1.807,-7.844,2.206,-3.285,46.27,-28.42,-8.75
,-10.574,5.358,-2.529,-8.509,1.749,-3.173,59.99,-23.8,-2.24
,-9.105,5.15,-2.886,-8.713,1.113,-2.97,70.91,-18.76,1.61
,-7.681,3.503,-3.34,-9.462,-0.053,-2.304,73.57,-15.54,1.12
8253.0,-10.285,-0.797,-1.823,-9.273,0.689,-2.721,32.41,-15.75,-7.07
,-10.158,-1.531,-1.953,-9.646,0.95,-2.527,33.46,-16.24,-6.79
,-9.588,-1.271,-2.233,-10.002,0.325,-2.17,39.48,-14.14,-5.95
,-9.512,-0.309,-2.434,-9.828,-0.727,-1.799,47.04,-11.76,-4.9
8328.0,-9.737,-1.184,-1.687,-9.698,-0.139,-1.981,41.37,-3.71,2.31
,-9.474,-0.857,-1.878,-9.954,-0.704,-1.984,47.18,-1.61,2.87
,-9.325,-0.096,-2.123,-9.605,-0.658,-2.359,49.07,0.63,2.94
,-9.438,0.189,-2.213,-9.105,0.388,-3.037,44.52,2.59,3.08
8404.0,-9.246,1.376,-3.431,-9.347,-0.34,-3.843,40.39,10.08,6.3
,-9.624,1.833,-3.975,-9.387,-0.041,-4.078,31.36,10.36,6.23
,-9.646,1.261,-4.276,-9.416,0.668,-4.161,19.74,8.75,6.51
,-9.139,0.337,-4.362,-9.148,1.072,-4.001,13.51,7.63,6.65
8480.0,-9.354,0.871,-3.762,-9.409,-0.163,-3.156,16.66,5.11,6.51
,-9.459,0.079,-3.553,-9.323,0.424,-3.305,14.49,3.71,7.28
,-9.328,-0.629,-3.25,-9.282,0.692,-3.336,16.1,3.85,7.91
,-9.469,-0.629,-3.108,-9.514,0.773,-3.271,21.63,3.78,7.98
8556.0,-9.428,0.603,-3.01,-9.497,-0.194,-3.18,16.45,4.27,7.91
,-9.445,0.072,-2.793,-9.49,0.146,-3.496,15.75,3.5,8.33
,-9.402,-0.354,-2.764,-9.332,0.797,-3.975,19.67,2.94,9.24
,-9.588,-0.517,-2.864,-9.148,1.24,-4.054,26.81,2.94,10.29
8632.0,-9.213,1.307,-3.843,-9.009,-0.974,-3.484,11.41,5.18,8.33
,-9.825,0.835,-3.199,-9.316,-0.022,-3.704,2.45,4.62,8.61
,-9.931,0.05,-3.391,-9.438,0.876,-3.96,2.94,1.12,10.15
,-9.328,-0.957,-3.333,-9.347,1.333,-4.013,11.76,-0.7,11.34
8707.0,-9.184,1.151,-3.553,-9.155,0.029,-2.946,23.38,1.61,12.46
,-9.564,0.704,-3.367,-9.335,0.61,-2.943,15.12,0.21,12.18
,-9.397,0.05,-3.25,-9.474,0.723,-2.812,13.58,-1.05,12.74
,-9.194,-0.287,-3.032,-9.423,0.397,-2.797,18.2,-0.98,13.44
8783.0,-9.526,0.103,-2.778,-9.332,0.498,-2.455,27.79,1.12,15.54
,-9.569,-0.12,-2.647,-9.435,0.548,-2.18,29.75,1.54,16.24
,-9.428,-0.184,-2.673,-9.363,0.254,-1.855,31.71,2.03,17.08
,-9.222,0.089,-2.675,-9.026,0.141,-1.756,32.48,4.13,17.92
8858.0,-9.342,0.148,-1.467,-9.6,-2.462,-0.732,13.58,14.21,21.84
,-9.61,-0.206,-1.165,-9.433,-1.907,-0.972,9.73,16.45,23.17
,-9.847,-1.184,-0.83,-9.332,-1.206,-1.474,7.21,17.71,24.43
,-9.689,-2.225,-0.639,-9.416,-0.826,-1.46,10.08,18.69,26.04
8934.0,-9.232,-0.359,-1.692,-8.617,0.057,-2.391,16.52,30.73,36.33
,-9.16,-0.048,-1.795,-8.622,0.577,-2.67,12.11,33.04,37.38
,-9.33,0.043,-1.799,-8.516,1.347,-2.946,11.34,34.16,37.8
,-8.899,-0.103,-2.048,-8.796,2.13,-2.73,12.74,34.93,38.01
9010.0,-9.182,2.218,-2.592,-10.376,2.515,-3.752,12.53,51.45,39.76
,-9.368,1.802,-2.611,-11.012,3.367,-3.79,3.08,53.41,39.62
,-9.871,1.417,-2.769,-11.689,3.496,-3.46,-0.7,54.46,40.46
,-10.134,1.644,-3.276,-12.213,2.915,-2.694,1.75,56.77,41.58
9086.0,-12.228,1.993,-1.919,-11.811,1.689,-0.962,6.02,76.79,46.62
,-11.809,1.335,-1.642,-11.689,1.948,-1.132,9.24,80.99,48.02
,-11.749,1.0,-1.137,-11.907,1.759,-1.364,14.28,87.01,49.42
,-11.833,1.385,-1.161,-11.563,1.68,-1.859,20.16,92.47,50.26
9161.0,-11.991,1.206,-2.168,-10.864,-0.505,-5.236,2.45,120.96,48.16
,-11.919,1.041,-3.063,-8.957,-1.45,-7.16,-2.24,121.45,44.87
,-11.828,1.34,-3.355,-7.243,-1.785,-8.612,-6.72,121.17,42.14
,-11.771,0.771,-4.113,-7.404,-1.653,-8.406,-9.03,111.3,40.11
9237.0,-8.899,-1.079,-7.827,-8.172,-4.393,-7.329,31.57,87.22,39.34
,-10.447,-2.381,-6.212,-7.42,-2.955,-7.636,40.39,77.21,46.76
,-10.433,-3.888,-6.573,-7.291,-1.259,-8.074,50.61,63.14,54.46
,-9.462,-4.81,-6.916,-7.286,-0.038,-8.306,71.19,52.78,60.41
9313.0,-7.373,0.313,-7.743,-6.391,0.974,-8.545,124.32,3.85,39.27
,-7.286,1.287,-8.672,-6.245,0.706,-8.409,112.14,-8.33,35.21
,-6.994,1.316,-8.619,-6.138,0.512,-8.098,96.18,-20.65,32.06
,-6.71,1.115,-8.552,-5.985,0.258,-7.947,78.89,-32.62,29.89
9389.0,-6.044,-0.098,-7.452,-5.537,-0.665,-7.664,37.87,-95.83,18.55
,-6.054,-0.385,-7.303,-5.791,-0.299,-7.583,41.3,-110.81,15.89
,-5.678,-0.615,-7.511,-6.147,0.041,-7.483,49.21,-124.74,13.3
,-5.489,-0.766,-7.755,-6.291,0.359,-7.423,60.69,-136.08,10.71
9464.0,-6.545,0.72,-7.143,-6.588,3.149,-7.162,102.55,-182.21,0.63
,-6.542,0.957,-7.138,-7.172,3.448,-6.691,107.31,-193.06,-2.03
,-6.135,1.397,-7.633,-7.71,2.833,-6.286,111.37,-201.18,-4.97
,-6.054,2.304,-7.444,-7.406,2.01,-6.54,111.65,-206.36,-6.58
9540.0,-7.114,1.524,-6.482,-8.504,2.345,-5.681,60.13,-225.61,-17.01
,-7.423,1.484,-6.061,-8.758,2.156,-5.322,58.8,-222.81,-19.04
,-7.959,1.965,-5.989,-9.213,1.615,-4.654,54.81,-220.99,-20.23
,-8.256,2.204,-5.884,-9.474,0.816,-4.066,45.78,-217.7,-19.74
9616.0,-9.61,0.256,-3.585,-8.835,0.0,-1.467,26.74,-193.83,-8.19
,-9.852,-0.402,-1.886,-9.521,1.106,-1.347,40.53,-191.31,-6.02
,-9.072,-0.66,-1.866,-9.698,1.642,-0.993,59.43,-184.8,-2.66
,-8.313,-0.677,-1.814,-8.894,1.723,-0.761,79.73,-169.33,1.82
9691.0,-8.323,1.852,-0.531,-8.251,2.017,-0.053,100.24,-104.58,16.73
,-8.181,2.156,-0.361,-8.045,1.436,-0.132,96.11,-90.37,15.61
,-8.296,2.618,-0.378,-7.722,0.95,-0.098,89.88,-75.46,13.23
,-8.217,2.606,-0.251,-7.76,0.581,-0.038,79.03,-59.5,10.29
9767.0,-7.796,0.292,-0.309,-12.402,3.087,2.484,39.2,21.35,-0.28
,-7.767,-0.189,-0.237,-15.705,5.755,3.116,37.8,37.24,-1.75
,-8.059,-0.256,-0.567,-17.913,2.749,2.752,39.41,51.59,-3.36
,-8.868,0.026,-0.397,-12.869,-0.802,1.352,42.98,64.4,-5.81
9843.0,-7.284,-0.053,-0.531,-9.232,-0.696,-2.883,31.78,78.68,-5.25
,-8.055,3.058,0.486,-6.992,-1.316,-3.604,46.27,90.23,-11.9
,-11.488,3.81,-0.388,-6.521,-1.132,-2.295,38.57,85.75,-17.08
,-10.617,1.898,-2.233,-8.088,-0.364,-2.357,23.03,76.44,-16.38
9919.0,-9.39,0.505,-3.752,-10.694,0.273,-3.144,65.1,60.48,-4.97
,-10.22,1.24,-5.032,-10.27,-0.761,-3.01,64.61,69.79,-9.52
,-10.347,1.902,-5.379,-9.402,-1.374,-3.166,51.1,78.68,-14.28
,-10.529,1.271,-3.984,-9.04,-0.531,-3.408,27.51,80.85,-16.38
9994.0,-9.663,1.048,-3.333,-9.49,-1.429,-3.185,21.0,61.46,-15.82
,-10.098,1.766,-3.329,-9.466,-2.039,-2.924,11.76,58.52,-17.92
,-10.021,1.117,-3.463,-9.639,-2.012,-2.582,-3.64,53.55,-16.94
,-9.679,-0.737,-2.797,-9.744,-1.405,-2.386,-19.53,49.49,-13.51
10070.0,-9.775,-0.249,-2.367,-9.761,0.261,-2.848,38.99,40.74,-4.34
,-9.823,0.773,-2.326,-10.349,-0.517,-2.436,39.76,39.34,-5.67
,-10.021,1.158,-2.592,-10.237,-1.484,-2.544,30.1,35.63,-7.7
,-9.67,0.706,-3.039,-9.71,-2.103,-2.704,12.25,33.18,-9.66
10146.0,-9.789,-2.072,-2.58,-9.524,0.976,-3.116,1.54,26.11,-4.97
,-9.847,-1.63,-2.862,-9.529,1.338,-3.405,13.65,24.15,-3.78
,-9.792,-1.048,-2.938,-9.562,1.0,-3.108,24.15,22.19,-2.45
,-9.507,0.05,-3.264,-9.842,0.581,-2.548,33.32,21.7,-1.33
10222.0,-9.56,0.06,-2.388,-9.289,-0.507,-1.476,3.5,19.67,-3.5
,-9.555,-0.218,-1.926,-9.179,-0.132,-1.637,2.8,20.37,-4.13
,-9.844,-0.318,-1.558,-9.344,0.407,-1.618,5.39,20.44,-3.92
,-9.787,-0.447,-1.323,-9.435,0.952,-1.74,10.71,19.95,-2.94
10297.0,-9.655,0.541,-1.443,-9.21,-0.022,-2.008,14.84,26.81,-4.9
,-9.543,-0.759,-1.508,-9.294,0.414,-1.984,11.06,26.67,-5.46
,-9.438,-1.187,-1.508,-9.292,0.459,-1.979,16.52,28.21,-5.25
,-9.407,-0.857,-1.699,-9.471,0.12,-1.778,24.01,30.66,-4.83
10373.0,-9.428,-0.268,-1.986,-9.672,0.598,-3.939,16.17,40.32,-6.02
,-9.395,-0.318,-2.441,-9.737,0.447,-4.006,18.41,41.58,-6.02
,-9.342,-0.407,-2.656,-9.914,-0.27,-3.281,20.3,43.26,-5.88
,-9.308,0.534,-3.656,-10.144,-0.526,-2.96,19.18,45.85,-5.88
10448.0,-10.115,-0.447,-2.426,-10.086,-0.718,-1.247,-7.14,51.1,-6.16
,-9.976,-0.22,-2.015,-10.11,-0.617,-1.62,-6.65,53.48,-6.3
,-10.067,-0.196,-1.479,-10.292,-0.203,-1.929,-7.21,55.65,-6.37
,-10.144,-0.56,-1.381,-10.328,0.103,-2.216,-6.44,58.1,-5.67
10524.0,-10.345,-0.397,-2.453,-11.548,-2.91,-2.211,0.49,72.17,0.77
,-10.385,-0.78,-2.611,-11.943,-1.462,-2.297,-0.91,74.76,1.47
,-10.225,-0.818,-2.874,-10.512,1.754,-2.398,-2.1,78.05,2.24
,-10.615,-1.022,-3.175,-10.306,2.58,-1.795,-4.9,81.34,2.87
10600.0,-11.012,1.213,-1.091,-10.809,2.259,-0.905,-28.84,104.16,0.42
,-11.146,0.371,-0.651,-11.18,2.685,-0.821,-38.15,107.03,1.12
,-11.012,0.412,-0.407,-11.701,3.037,-0.266,-34.72,111.93,2.17
,-10.713,1.522,-0.806,-12.139,3.833,-0.529,-27.37,119.35,1.26
10676.0,-12.635,3.484,-0.842,-11.809,-0.005,-5.281,-90.51,161.77,-23.87
,-12.996,2.737,-1.28,-11.878,-1.962,-6.358,-123.62,168.35,-28.77
,-13.417,1.869,-2.584,-10.95,-2.211,-8.203,-143.78,171.5,-31.5
,-12.792,1.551,-4.427,-11.127,-2.8,-7.81,-154.0,170.59,-31.22
10752.0,-11.563,-2.137,-7.456,-7.746,0.012,-9.356,-75.53,153.58,-16.38
,-11.194,-1.208,-7.49,-6.064,0.878,-10.928,-58.52,140.84,-16.45
,-10.345,-0.538,-7.586,-6.133,1.788,-10.603,-47.46,124.74,-13.44
,-9.215,-0.445,-7.98,-7.308,2.35,-9.1,-42.0,105.91,-10.57
10827.0,-8.488,1.89,-7.55,-5.305,-0.519,-7.978,-41.16,43.61,-14.42
,-8.095,1.053,-7.473,-4.491,-0.773,-8.332,-45.78,16.03,-13.93
,-7.286,0.531,-7.633,-4.389,-0.692,-8.145,-40.6,-7.49,-12.18
,-6.301,-0.045,-7.782,-4.209,-0.333,-8.478,-26.6,-28.21,-11.41
10903.0,-4.137,0.402,-8.603,-4.022,1.062,-8.117,44.52,-109.27,-28.7
,-3.936,1.017,-8.753,-4.231,0.833,-7.877,48.37,-123.06,-27.37
,-3.91,1.328,-8.54,-4.247,0.663,-8.055,47.11,-136.15,-25.06
,-4.018,1.261,-8.32,-4.001,0.811,-8.272,42.0,-150.92,-23.38
10979.0,-3.984,1.043,-8.375,-4.664,1.22,-8.404,34.58,-213.64,-21.42
,-4.008,1.4,-8.177,-5.793,0.376,-7.7,33.32,-222.95,-19.67
,-4.357,1.5,-8.282,-5.939,-0.416,-7.889,31.71,-233.8,-17.78
,-4.314,1.685,-9.016,-5.879,-1.194,-7.528,24.85,-243.67,-15.75
11055.0,-6.269,-1.28,-7.083,-7.918,1.673,-6.906,25.13,-277.69,-18.62
,-6.856,-0.737,-6.765,-8.143,2.759,-6.851,43.4,-282.45,-16.73
,-7.301,0.132,-7.002,-8.342,3.051,-6.169,57.33,-284.9,-16.1
,-7.542,0.907,-6.7,-8.947,2.534,-4.886,65.1,-283.99,-15.47
11130.0,-9.541,2.077,-4.396,-9.892,1.259,-1.206,34.65,-255.99,1.82
,-9.564,1.414,-3.786,-9.474,1.694,-1.019,29.96,-243.88,3.85
,-9.892,0.818,-2.804,-8.667,1.5,-0.294,32.34,-229.11,4.13
,-9.914,1.039,-2.261,-8.375,1.208,0.218,38.01,-211.47,3.64
11206.0,-7.31,0.747,0.002,-7.578,-1.05,-0.292,30.87,-89.53,1.4
,-6.411,-0.256,-0.029,-7.708,-1.385,-0.897,26.11,-60.69,0.0
,-6.645,-0.952,-0.045,-7.727,-0.931,-1.883,25.2,-32.83,-0.7
,-7.028,-0.931,-0.117,-8.155,0.079,-2.572,29.54,-5.67,-0.84
11281.0,-11.883,3.453,0.194,-7.404,-0.57,-0.586,57.75,83.86,-12.39
,-16.214,7.916,3.285,-10.112,3.312,-0.723,32.48,79.1,-24.22
,-20.869,3.204,3.343,-9.16,3.865,-2.486,3.64,72.8,-16.1
,-12.209,-1.816,-0.067,-9.825,1.888,-4.393,6.09,74.69,2.66
11357.0,-8.851,-0.799,-5.255,-8.181,-1.194,-6.265,19.25,98.14,-16.59
,-9.05,-2.448,-4.984,-8.655,-0.677,-6.119,15.68,105.35,-12.74
,-8.662,-2.108,-6.123,-9.493,0.294,-5.863,28.49,105.49,-6.02
,-8.538,-1.534,-6.083,-9.588,1.73,-5.762,43.68,101.57,-1.54
11433.0,-9.383,3.132,-5.714,-9.66,-2.498,-2.692,37.17,73.22,-4.97
,-10.414,3.726,-4.408,-9.301,-2.857,-3.005,11.2,70.14,-9.8
,-10.988,1.924,-3.336,-9.543,-3.128,-2.52,-17.29,62.93,-13.3
,-10.378,-0.469,-2.924,-9.44,-2.898,-2.333,-34.79,56.56,-15.05
11509.0,-9.397,-2.044,-2.611,-9.892,0.914,-2.776,41.02,48.72,-0.63
,-9.787,-0.483,-2.831,-9.823,0.615,-2.747,49.91,47.18,-0.07
,-9.945,0.66,-2.967,-9.789,0.196,-2.663,44.1,45.08,-0.98
,-9.978,1.094,-2.979,-9.806,-0.574,-2.654,31.15,43.54,-3.01
11585.0,-9.677,-1.522,-2.675,-9.387,0.579,-3.637,-7.35,33.11,-5.25
,-9.787,-1.965,-2.773,-9.749,1.268,-3.613,0.91,31.99,-3.43
,-9.61,-1.644,-3.058,-9.887,0.699,-3.522,13.37,31.43,-2.52
,-9.447,-0.821,-3.41,-9.524,-0.115,-3.628,24.5,31.29,-2.45
11660.0,-9.445,-0.895,-3.022,-9.966,0.57,-2.345,2.87,24.99,-3.15
,-9.395,-0.613,-3.022,-9.464,0.01,-2.508,9.03,25.2,-3.5
,-9.342,-0.213,-2.804,-9.361,-0.357,-2.233,16.17,26.25,-3.78
,-9.562,0.524,-2.474,-9.167,-0.165,-2.271,19.53,27.16,-3.78
11736.0,-9.306,0.414,-2.268,-9.418,-0.895,-1.862,25.48,28.7,-6.23
,-9.45,0.309,-2.113,-9.299,-0.51,-2.07,23.03,29.61,-5.81
,-9.361,-0.153,-2.082,-9.325,-0.232,-2.352,18.62,31.22,-5.39
,-9.713,-0.644,-1.788,-9.249,-0.146,-2.627,17.57,32.55,-5.04
11812.0,-9.404,-0.4,-2.551,-9.543,-0.321,-3.35,10.85,41.16,-5.39
,-9.584,-0.809,-2.546,-9.524,0.218,-3.424,7.07,42.28,-3.85
,-9.667,-1.283,-2.592,-9.737,0.438,-3.013,5.32,42.7,-2.52
,-9.557,-1.022,-3.049,-10.019,0.242,-2.4,7.07,44.45,-1.68
11888.0,-10.232,0.079,-1.919,-10.254,-0.151,-1.216,-19.04,53.76,-5.81
,-10.354,-0.266,-1.433,-10.601,-0.182,-1.582,-18.97,57.05,-5.74
,-10.208,-0.988,-1.022,-10.665,-0.38,-2.082,-16.94,60.76,-6.16
,-10.426,-0.526,-0.967,-10.802,-0.019,-2.584,-11.97,63.07,-4.97
11963.0,-10.912,-0.002,-2.869,-10.672,1.718,-2.053,1.82,82.04,5.04
,-11.273,-0.737,-3.022,-10.797,2.568,-1.283,-3.99,85.68,5.67
,-12.367,-3.697,-1.943,-11.426,1.567,-0.359,-11.9,87.78,7.49
,-12.467,-1.981,-2.094,-11.567,0.981,0.297,-2.38,89.95,11.06
12039.0,-11.302,1.541,0.168,-12.402,5.791,0.175,-42.14,123.34,2.38
,-11.146,1.938,0.036,-12.91,5.642,0.232,-39.55,132.09,0.07
,-11.421,2.625,-0.373,-13.592,3.996,-0.074,-39.27,142.52,-4.2
,-11.486,4.58,-0.199,-13.869,1.639,-0.641,-49.07,156.17,-10.64
12114.0,-12.874,0.024,-2.728,-10.613,-4.563,-8.705,-194.74,182.77,-31.85
,-11.084,-2.209,-4.262,-12.022,-2.996,-8.057,-184.8,177.66,-22.33
,-10.739,-4.058,-6.738,-12.702,-1.311,-7.935,-147.35,166.81,-13.72
,-10.062,-4.561,-9.27,-11.627,-0.225,-8.251,-106.54,159.95,-10.36
12190.0,-9.44,0.45,-9.428,-7.03,3.836,-9.301,-1.89,110.32,-8.4
,-6.612,1.192,-11.0,-8.114,3.029,-8.241,-2.8,91.42,-7.91
,-4.994,2.161,-11.735,-7.586,2.326,-8.61,-2.03,84.56,-10.64
,-5.284,2.97,-10.383,-6.846,1.632,-8.43,-7.49,80.43,-14.49
12266.0,-6.382,0.732,-8.222,-4.46,-0.246,-8.356,-45.22,-34.58,-20.51
,-5.544,0.084,-8.356,-4.592,0.55,-8.205,-35.98,-54.39,-22.82
,-4.633,-0.302,-8.851,-4.36,1.201,-8.358,-21.7,-70.21,-25.27
,-4.283,-0.644,-8.65,-3.642,1.527,-8.648,-4.27,-84.91,-27.65
12342.0,-3.147,1.527,-8.942,-4.149,1.613,-7.452,29.26,-171.01,-32.48
,-3.01,1.467,-8.559,-3.996,1.689,-7.851,28.84,-179.9,-32.69
,-3.475,1.553,-7.734,-3.946,2.058,-8.265,29.75,-189.84,-32.55
,-3.953,1.68,-7.248,-3.687,2.407,-7.997,31.78,-203.28,-32.34
12418.0,-4.099,3.104,-8.423,-5.817,0.641,-7.471,26.32,-267.96,-32.97
,-4.257,2.613,-8.765,-6.904,-0.187,-6.815,12.74,-277.34,-31.15
,-5.181,1.905,-8.32,-7.289,-1.039,-7.353,-1.33,-284.83,-33.04
,-5.372,1.388,-8.062,-6.406,-1.924,-8.557,-10.99,-293.65,-34.09
12493.0,-6.901,-1.847,-7.55,-8.626,2.855,-4.728,44.94,-302.4,-14.07
,-8.78,-0.139,-5.714,-9.136,2.96,-4.027,62.72,-291.13,-8.19
,-9.067,1.575,-5.382,-9.514,2.9,-3.18,73.29,-282.38,0.63
,-8.607,2.371,-4.968,-9.426,2.986,-2.967,72.1,-271.18,8.47
12569.0,-9.012,2.931,-2.379,-7.047,-0.955,-0.615,35.49,-172.27,2.8
,-8.145,2.773,-2.144,-6.927,-2.209,-0.115,20.79,-143.08,-1.05
,-7.66,1.728,-1.637,-6.782,-2.991,-0.237,1.82,-113.33,-4.27
,-7.262,0.421,-1.182,-7.172,-3.333,-0.883,-14.0,-84.77,-6.16
12645.0,-7.377,-2.788,-2.029,-15.482,-0.632,0.747,36.19,52.92,-6.3
,-9.548,-0.61,-1.094,-8.567,1.524,-3.226,53.62,68.81,-9.1
,-15.745,5.609,3.494,-9.876,4.982,-0.919,65.38,66.78,-21.21
,-21.742,2.986,5.346,-11.742,5.085,-3.695,48.79,62.09,-19.67
12721.0,-7.753,0.737,-5.449,-9.043,-0.414,-7.449,38.99,89.81,-4.69
,-6.04,-1.601,-6.432,-9.574,-0.866,-6.023,28.49,96.32,-9.94
,-6.813,-1.318,-7.976,-9.665,-0.388,-6.308,38.71,109.55,-10.5
,-9.866,-0.696,-7.976,-9.34,0.165,-5.674,44.45,104.16,-9.17
12796.0,-9.057,1.431,-5.011,-10.237,-0.637,-2.371,35.49,76.93,-0.35
,-9.521,3.075,-4.649,-9.435,-1.991,-2.039,25.83,72.73,-2.38
,-10.385,2.996,-4.025,-9.227,-2.962,-1.831,3.36,66.99,-8.47
,-10.778,1.414,-2.994,-9.361,-3.707,-1.933,-21.91,61.95,-14.42
12872.0,-9.608,-3.594,-2.146,-9.679,0.278,-2.527,19.6,50.89,-3.29
,-9.995,-3.135,-2.096,-9.907,0.871,-2.771,36.12,50.89,-0.49
,-10.048,-1.967,-2.276,-10.007,1.036,-2.962,47.04,49.0,0.0
,-9.722,-0.727,-2.237,-9.897,0.73,-3.128,48.51,46.83,-1.47
12947.0,-9.675,0.172,-3.154,-9.854,0.218,-3.568,4.62,38.01,-4.48
,-9.399,-0.27,-3.436,-10.053,0.034,-3.597,6.51,36.05,-3.57
,-9.148,-0.282,-3.568,-9.811,-0.318,-3.57,12.32,36.12,-2.87
,-9.497,0.103,-3.618,-9.418,-0.261,-3.625,19.32,35.77,-2.66
13023.0,-9.277,-0.199,-3.302,-9.323,0.175,-2.819,15.47,27.09,-3.15
,-9.586,-0.299,-3.214,-9.689,0.608,-2.656,15.68,26.18,-3.01
,-9.818,-0.282,-3.379,-9.466,0.627,-2.838,18.06,25.27,-1.96
,-9.541,-0.306,-2.962,-9.392,0.302,-2.453,22.05,25.34,-0.91
13099.0,-9.325,-0.093,-2.103,-9.813,-0.78,-1.969,18.13,27.79,-4.2
,-9.409,-0.041,-2.029,-9.593,-1.12,-2.307,15.82,29.54,-4.55
,-9.469,-0.093,-1.914,-9.591,-1.07,-2.544,13.51,31.08,-4.48
,-9.385,-0.328,-2.024,-9.564,-0.476,-2.931,12.11,32.97,-3.99
13175.0,-9.591,0.294,-3.451,-9.706,0.457,-3.587,19.39,38.5,-1.4
,-9.454,0.732,-3.721,-9.643,0.361,-3.23,12.32,39.27,-2.24
,-9.423,0.847,-3.841,-9.775,0.567,-2.659,4.13,40.39,-3.57
,-9.6,0.806,-3.869,-10.019,0.675,-1.759,-3.78,41.51,-4.34
13250.0,-10.227,0.12,-0.792,-9.588,-0.926,-0.615,-29.68,52.92,-5.04
,-10.024,-0.94,-0.304,-9.878,-1.096,-1.153,-29.75,53.97,-5.04
,-9.744,-1.433,-0.024,-10.067,-0.931,-1.768,-24.01,56.28,-4.06
,-9.574,-1.132,-0.335,-10.151,-0.62,-2.343,-15.47,59.99,-2.38
13326.0,-10.251,-0.395,-2.824,-12.874,-2.929,-2.192,2.17,78.61,2.59
,-10.211,-0.211,-2.986,-10.754,1.338,-2.316,-1.68,82.67,2.03
,-10.529,-0.328,-3.242,-10.471,3.242,-1.819,-8.33,86.38,1.75
,-11.888,-4.147,-1.902,-11.204,2.46,-1.405,-22.05,89.04,3.5
13402.0,-11.342,2.659,-1.012,-12.0,2.527,0.392,-32.27,115.01,0.28
,-10.96,3.025,-1.012,-12.197,2.737,0.503,-42.49,122.01,-0.91
,-11.239,2.307,-0.68,-12.663,2.41,0.347,-50.19,129.36,-2.59
,-11.682,1.721,0.225,-12.544,2.094,-0.821,-56.28,137.27,-3.99
13478.0,-12.955,1.4,-2.233,-10.309,-2.065,-8.318,-110.53,170.31,-20.93
,-12.134,1.323,-3.762,-10.419,-1.663,-8.691,-116.06,170.03,-21.07
,-11.06,0.38,-5.53,-11.196,-1.029,-8.847,-115.99,168.91,-16.38
,-10.55,-1.441,-6.774,-11.481,-1.106,-8.279,-103.25,163.17,-10.57
13554.0,-10.227,-1.07,-8.945,-5.669,1.78,-11.01,-37.17,120.89,-13.72
,-8.804,-0.51,-10.091,-6.064,2.079,-9.849,-32.62,104.93,-11.69
,-7.052,0.244,-11.012,-7.093,1.991,-8.569,-29.19,89.46,-12.32
,-5.865,1.132,-11.565,-7.332,1.412,-8.153,-31.57,79.17,-15.19
13629.0,-6.578,1.467,-8.447,-4.405,-0.828,-8.571,-60.83,-6.02,-20.09
,-6.052,1.309,-8.122,-4.312,-1.316,-8.236,-54.18,-25.76,-18.27
,-5.626,0.723,-8.066,-4.24,-0.857,-8.198,-48.86,-45.15,-19.25
,-5.03,0.002,-8.495,-4.109,-0.041,-8.148,-40.18,-62.3,-22.68
13705.0,-3.939,0.644,-8.055,-3.257,1.436,-8.842,29.33,-131.88,-27.02
,-3.869,1.034,-7.784,-3.123,1.881,-8.837,33.88,-146.02,-27.51
,-3.963,1.237,-7.413,-3.656,2.448,-8.189,39.2,-160.65,-29.19
,-4.013,1.184,-7.801,-4.204,2.831,-8.052,46.41,-177.45,-31.01
13780.0,-4.647,2.702,-8.083,-6.152,0.146,-7.504,30.87,-228.34,-21.77
,-5.138,2.491,-7.968,-6.085,-0.601,-7.471,14.91,-238.98,-19.53
,-5.59,1.579,-7.564,-6.686,-1.192,-6.997,1.61,-249.69,-19.88
,-6.052,0.543,-7.478,-7.389,-1.23,-6.971,0.42,-259.63,-24.36
13856.0,-7.559,-0.366,-7.901,-7.849,3.125,-6.449,68.46,-275.8,-19.04
,-7.703,0.371,-7.629,-8.138,2.568,-5.461,73.57,-271.88,-16.52
,-8.035,1.488,-7.119,-8.598,1.498,-4.573,73.71,-267.19,-12.39
,-8.045,2.625,-6.624,-8.555,0.701,-4.614,68.6,-264.11,-6.65
13932.0,-8.447,0.696,-4.755,-8.847,0.297,-1.074,28.42,-227.43,-6.02
,-8.792,1.146,-3.824,-8.804,0.146,-1.481,26.04,-208.53,-6.93
,-9.505,1.311,-2.946,-7.521,-0.103,-0.249,19.81,-190.12,-6.44
,-9.49,0.926,-1.914,-7.712,0.237,0.268,12.67,-172.13,-4.13
14008.0,-7.437,0.39,0.457,-7.045,-0.127,-1.163,41.16,-60.9,-1.33
,-7.597,0.091,0.591,-7.492,0.242,-1.778,44.1,-36.26,-1.68
,-7.32,-0.285,0.282,-10.584,2.041,-0.194,47.53,-13.09,-1.54
,-6.994,-0.445,-0.359,-16.58,7.873,2.778,52.57,9.94,-0.91
14083.0,-20.763,3.654,3.711,-10.359,7.093,-1.625,31.78,47.81,-14.77
,-15.161,-1.139,2.297,-9.206,4.496,-2.96,26.81,48.44,4.13
,-7.169,1.498,0.172,-10.12,1.907,-3.434,49.98,70.7,6.51
,-8.696,6.784,1.173,-9.653,-0.637,-3.01,66.29,87.85,-3.5
14159.0,-10.349,-2.919,-3.683,-9.744,-0.615,-4.221,-39.06,92.54,-12.81
,-8.751,-4.317,-5.374,-10.285,0.371,-4.192,-21.07,85.4,-6.16
,-7.626,-4.082,-5.178,-10.452,1.259,-4.123,5.95,86.03,-2.45
,-8.337,-2.051,-4.566,-10.218,1.596,-3.955,31.5,86.59,-2.73
14234.0,-10.124,0.517,-3.317,-9.466,-1.646,-1.725,9.94,64.05,-3.85
,-10.304,-0.562,-2.632,-9.543,-1.543,-1.725,3.08,58.24,-5.18
,-10.175,-1.318,-2.108,-9.911,-1.263,-1.759,4.83,52.01,-5.32
,-9.746,-1.563,-1.991,-9.765,-0.876,-1.843,12.6,48.16,-3.99
14310.0,-9.44,-0.287,-2.015,-9.603,0.129,-1.792,67.06,42.0,4.2
,-9.244,0.639,-2.391,-9.615,-0.632,-1.517,64.54,41.16,1.68
,-9.959,1.364,-2.158,-9.842,-0.907,-1.479,54.67,39.97,-0.42
,-10.223,1.189,-2.044,-10.045,-1.149,-1.579,42.14,36.54,-1.47
14386.0,-9.742,-0.921,-2.063,-9.588,-0.325,-3.206,30.45,32.55,-1.05
,-9.567,-0.675,-2.12,-9.634,0.175,-3.616,35.77,32.48,-0.7
,-10.187,-0.412,-2.237,-9.505,0.933,-3.805,42.56,29.19,0.28
,-9.641,-0.57,-2.867,-9.497,1.362,-3.577,46.69,26.25,0.91
14462.0,-9.38,1.316,-3.403,-9.856,0.629,-2.962,28.91,22.96,-1.96
,-9.215,1.161,-3.288,-9.49,-0.136,-2.869,23.38,22.68,-2.87
,-9.323,0.66,-2.929,-9.71,-0.57,-2.697,20.3,23.59,-3.43
,-9.71,0.694,-2.843,-9.428,-0.687,-2.757,18.9,23.8,-3.85
14538.0,-9.581,-0.445,-2.498,-9.737,1.082,-3.092,12.95,21.28,-4.9
,-9.603,0.115,-2.596,-9.619,-0.127,-2.972,14.56,21.21,-4.55
,-9.234,1.091,-2.802,-9.423,-0.881,-2.852,14.0,22.82,-5.11
,-9.402,1.563,-3.015,-9.509,-0.589,-3.025,6.93,23.87,-6.23
14613.0,-9.526,0.022,-2.871,-9.598,-0.359,-2.843,-5.32,24.43,-6.02
,-9.581,0.412,-2.73,-9.524,-0.345,-2.905,-8.05,24.5,-5.81
,-9.414,0.349,-2.845,-9.313,-0.153,-3.142,-12.32,23.8,-6.09
,-9.43,-0.043,-2.831,-9.284,0.022,-2.994,-16.38,23.38,-6.44
14689.0,-9.459,-0.014,-2.795,-9.454,-1.005,-2.91,-21.07,24.22,-5.11
,-9.653,-0.522,-2.735,-9.428,-1.022,-3.128,-24.22,24.22,-4.83
,-9.61,-0.548,-2.675,-9.34,-0.739,-3.364,-24.71,24.78,-4.48
,-9.385,-0.761,-2.795,-9.426,-0.433,-3.506,-25.2,25.27,-4.48
14765.0,-9.586,0.06,-3.771,-9.105,1.677,-4.625,-23.59,26.74,-1.54
,-9.706,0.517,-3.979,-10.115,0.921,-4.183,-27.23,26.67,-0.84
,-9.289,0.792,-4.276,-9.442,-0.491,-4.475,-31.92,27.16,-0.56
,-9.038,1.053,-4.494,-9.675,-0.888,-3.946,-37.59,28.77,-0.28
14841.0,-9.531,-0.998,-3.953,-9.194,0.359,-3.262,-62.02,27.86,0.84
,-9.45,-0.95,-3.728,-9.402,0.179,-3.116,-62.37,28.28,0.7
,-9.076,-0.555,-3.697,-9.5,0.129,-3.005,-63.84,29.26,0.56
,-8.808,0.057,-3.573,-9.775,-0.23,-3.046,-67.83,31.85,0.21
14916.0,-10.115,-0.467,-3.116,-10.55,0.737,-5.473,-91.98,40.95,0.28
,-10.136,-0.483,-3.652,-10.136,1.07,-5.829,-92.05,41.09,1.26
,-10.086,-0.206,-4.245,-9.605,0.972,-5.803,-88.41,40.88,1.96
,-10.364,0.215,-4.759,-9.201,1.184,-6.214,-86.03,40.39,2.59
14992.0,-8.935,1.307,-6.504,-8.449,0.828,-6.418,-93.52,30.45,3.22
,-8.751,0.979,-6.301,-8.552,0.912,-6.289,-97.79,27.02,3.29
,-8.679,1.0,-6.525,-8.571,1.125,-6.301,-99.05,23.8,2.73
,-8.538,0.993,-6.638,-8.751,0.988,-5.999,-97.58,20.65,1.68
15067.0,-9.086,0.936,-5.76,-9.703,-0.156,-4.422,-109.41,9.59,-8.12
,-9.27,0.89,-5.537,-8.856,-0.196,-4.63,-110.32,6.72,-9.8
,-9.703,0.763,-5.145,-8.023,0.141,-4.913,-109.76,2.8,-12.53
,-9.591,0.254,-5.087,-7.53,0.766,-5.166,-108.78,-1.05,-15.4
15143.0,-8.016,1.735,-5.252,-7.239,1.558,-6.475,-117.67,-5.46,-37.87
,-8.253,2.29,-5.595,-6.971,1.0,-6.825,-133.07,-5.39,-44.38
,-7.925,2.326,-5.906,-7.322,0.297,-7.035,-154.21,-5.6,-51.31
,-7.605,2.005,-6.097,-7.562,-0.383,-7.128,-174.86,-5.74,-58.73
15219.0,-7.519,-0.854,-6.782,-7.121,-0.967,-5.683,-237.79,-4.13,-91.63
,-7.267,-1.158,-6.456,-7.361,-1.326,-4.903,-242.76,-3.78,-96.25
,-6.889,-1.247,-5.908,-7.605,-1.206,-5.217,-247.24,-1.26,-99.96
,-7.014,-1.048,-5.633,-7.341,-1.01,-5.24,-252.42,1.61,-103.04
15295.0,-7.267,-0.287,-5.394,-8.722,1.074,-4.015,-239.26,2.87,-108.85
,-7.708,0.323,-5.262,-8.684,1.57,-3.539,-237.93,3.15,-108.08
,-8.059,0.68,-5.305,-8.564,1.773,-3.068,-241.57,2.24,-105.14
,-8.325,0.864,-4.872,-8.497,1.658,-2.704,-246.26,2.59,-100.52
15371.0,-8.739,1.467,-2.503,-9.483,1.149,-2.852,-233.17,17.57,-84.49
,-9.098,1.594,-2.642,-9.581,0.924,-2.838,-224.98,21.28,-83.86
,-9.301,1.397,-2.783,-9.904,0.316,-2.532,-218.82,25.41,-82.67
,-9.56,1.117,-2.706,-9.837,0.029,-2.309,-214.34,28.84,-80.01
15446.0,-9.919,0.179,-2.089,-10.086,1.582,-1.797,-168.49,38.29,-47.39
,-9.832,0.404,-1.965,-10.404,1.811,-1.756,-150.43,38.92,-41.37
,-9.706,0.895,-2.065,-10.692,1.783,-1.706,-133.35,39.9,-37.24
,-9.782,1.347,-2.079,-10.73,1.531,-1.687,-120.61,40.88,-34.16
15522.0,-10.455,1.445,-1.788,-10.005,2.087,-2.01,-93.52,38.5,-21.07
,-10.38,1.256,-1.586,-9.725,2.441,-2.245,-91.35,39.27,-19.6
,-10.457,1.457,-1.711,-9.698,2.625,-2.417,-88.2,37.73,-18.69
,-10.318,1.709,-1.84,-9.828,2.589,-2.493,-85.05,34.79,-17.5
15598.0,-10.026,2.359,-2.381,-10.033,1.137,-2.103,-105.56,14.35,-20.58
,-10.175,2.072,-2.28,-9.995,1.094,-2.312,-112.49,9.17,-21.14
,-9.993,1.606,-2.099,-9.835,0.873,-2.242,-117.11,4.55,-21.7
,-9.95,1.402,-2.044,-9.694,0.895,-2.326,-121.73,0.63,-22.19
15674.0,-9.684,0.663,-2.257,-9.072,0.361,-2.46,-134.12,-22.05,-27.23
,-9.639,0.577,-2.295,-9.191,0.29,-2.28,-136.64,-26.46,-28.56
,-9.359,0.543,-2.58,-9.239,0.101,-2.228,-138.11,-30.03,-29.96
,-9.158,0.476,-2.565,-9.27,-0.163,-2.12,-139.72,-31.85,-30.94
15749.0,-9.141,-0.452,-2.101,-8.746,-0.522,-2.0,-144.9,-37.31,-33.39
,-8.945,-0.591,-2.079,-8.727,-0.593,-1.835,-142.45,-36.68,-34.09
,-8.983,-0.596,-1.993,-8.717,-0.603,-1.603,-139.58,-35.98,-34.09
,-8.902,-0.55,-2.125,-8.543,-0.608,-1.491,-136.08,-34.65,-33.6
15825.0,-8.593,-0.811,-1.285,-8.887,-1.323,-0.773,-119.77,-21.98,-29.68
,-8.739,-1.041,-1.048,-8.918,-1.677,-0.608,-114.24,-18.55,-28.98
,-8.772,-0.945,-1.079,-9.014,-1.943,-0.294,-105.91,-13.86,-28.28
,-8.906,-1.017,-0.921,-9.095,-2.355,-0.057,-98.14,-8.4,-27.51
15900.0,-9.275,-2.45,0.385,-12.742,0.335,0.261,-39.76,13.58,-19.74
,-9.83,-2.106,1.261,-14.135,1.575,1.429,-18.48,20.37,-17.92
,-11.038,-1.297,2.077,-13.503,1.295,0.383,5.6,28.84,-16.73
,-12.3,-0.577,1.524,-10.651,-0.436,-0.84,28.98,38.85,-14.07
15976.0,-8.179,-1.015,-1.852,-8.141,1.646,-5.968,70.07,34.16,1.47
,-7.363,0.227,-3.683,-8.961,2.218,-5.973,85.68,36.68,-3.22
,-7.813,1.338,-4.738,-9.56,2.649,-5.494,87.71,40.11,-6.86
,-8.227,1.457,-5.473,-10.007,3.465,-5.157,76.37,40.95,-7.49
16052.0,-9.794,3.498,-5.042,-8.775,1.323,-3.623,19.88,26.6,-17.15
,-9.356,2.869,-4.575,-9.387,0.833,-3.381,13.79,22.96,-19.04
,-8.911,2.422,-4.2,-9.648,0.175,-3.609,13.58,21.91,-20.86
,-8.629,1.9,-3.838,-9.273,0.005,-3.824,16.87,21.77,-22.47
16128.0,-9.718,0.189,-3.52,-9.261,-1.256,-2.881,22.68,14.98,-33.32
,-10.179,0.194,-3.281,-9.629,-1.744,-2.515,10.57,11.83,-34.3
,-9.871,-0.388,-3.441,-9.926,-2.307,-2.855,-3.08,8.33,-34.58
,-9.452,-1.098,-3.084,-10.191,-2.785,-3.247,-13.86,8.54,-34.44
16203.0,-9.629,-2.67,-4.255,-9.407,1.984,-5.217,14.49,5.18,-23.31
,-9.256,-1.295,-4.946,-9.703,1.0,-4.389,25.41,5.6,-22.82
,-9.251,0.598,-5.437,-9.722,-0.266,-3.97,27.3,5.46,-22.54
,-9.402,1.766,-5.516,-9.655,-1.184,-3.491,16.45,4.34,-22.05
16279.0,-9.308,-1.464,-3.369,-9.538,-0.218,-2.589,-11.76,-1.61,-17.29
,-9.227,-0.773,-3.163,-9.591,-1.027,-2.252,-5.81,0.7,-17.36
,-9.385,0.034,-3.058,-9.538,-1.771,-2.175,-6.51,2.59,-17.43
,-9.552,0.261,-2.919,-9.545,-1.843,-2.223,-15.33,2.45,-17.64
16355.0,-9.447,-1.385,-2.429,-9.404,0.282,-2.513,-19.81,6.09,-14.0
,-9.229,-0.586,-2.548,-10.239,-1.094,-1.716,-15.96,7.84,-13.72
,-9.119,0.065,-2.697,-9.509,-2.694,-2.051,-17.78,9.38,-14.07
,-9.265,0.522,-2.692,-9.165,-2.883,-1.843,-24.15,11.13,-14.0
16431.0,-9.478,-2.381,-1.608,-9.356,-0.876,-1.862,-14.14,12.39,-11.06
,-9.43,-1.359,-1.79,-9.411,-0.799,-1.967,-8.12,14.35,-10.57
,-9.78,-0.725,-1.725,-9.385,-0.526,-2.115,-9.66,15.19,-9.73
,-9.557,-0.845,-1.732,-9.172,-0.077,-2.252,-13.3,15.96,-8.89
16507.0,-9.1,0.359,-2.213,-9.057,-1.728,-2.182,-17.22,28.0,-8.82
,-9.217,0.739,-2.125,-8.973,-1.438,-2.632,-22.61,30.94,-9.45
,-9.806,-0.134,-1.764,-9.174,-0.735,-3.142,-27.51,30.66,-9.73
,-9.316,-1.29,-2.079,-9.139,-0.433,-3.408,-27.79,29.75,-9.45
16582.0,-9.203,-0.4,-3.692,-9.531,-0.605,-4.214,-0.91,34.16,-9.94
,-9.146,-0.184,-3.932,-9.363,-0.538,-4.635,0.0,35.21,-9.94
,-9.438,-0.101,-3.958,-9.186,-0.522,-4.817,0.21,35.77,-10.43
,-9.373,-0.337,-4.137,-9.99,-1.271,-4.434,-2.03,35.91,-10.64
16658.0,-10.081,-0.952,-4.322,-10.007,-0.708,-3.156,-11.76,36.75,-11.97
,-9.718,-0.644,-3.994,-10.029,-0.084,-3.163,-16.03,37.8,-11.2
,-9.919,-0.854,-3.79,-10.325,-0.022,-2.903,-19.04,39.48,-11.27
,-10.215,-1.208,-3.302,-10.371,-0.211,-2.661,-19.74,40.18,-10.57
16733.0,-10.196,-0.366,-2.522,-12.223,-2.625,-0.991,-23.38,53.2,-8.4
,-10.148,-0.45,-2.091,-10.048,1.541,-1.663,-24.78,57.61,-8.75
,-10.471,-1.07,-1.931,-9.871,2.893,-1.515,-26.74,61.04,-8.89
,-11.656,-4.075,-0.718,-10.804,1.627,-1.074,-30.73,64.05,-7.14
16809.0,-10.854,1.18,-0.732,-10.778,1.759,-1.328,-35.42,90.51,-11.97
,-10.223,1.56,-0.677,-10.878,2.383,-1.694,-35.98,96.88,-12.04
,-9.909,1.725,-0.814,-10.969,3.18,-1.589,-33.88,105.21,-14.42
,-10.407,1.419,-0.912,-11.73,3.276,-1.634,-35.14,112.07,-17.15
16885.0,-12.343,2.941,-1.967,-11.843,0.117,-5.219,-100.03,144.97,-33.95
,-12.484,1.955,-2.264,-12.113,-1.094,-6.214,-123.27,148.75,-35.42
,-12.355,1.831,-3.613,-11.498,-1.969,-6.782,-136.99,151.69,-36.26
,-11.854,1.409,-4.532,-11.184,-2.29,-6.817,-141.61,156.17,-36.05
16961.0,-11.438,-2.144,-6.487,-7.066,0.538,-11.744,-74.83,133.49,-28.42
,-10.821,-1.175,-7.631,-5.946,2.008,-11.938,-55.79,121.17,-26.39
,-10.045,-1.094,-8.421,-6.336,3.24,-10.627,-41.79,107.73,-23.24
,-8.521,-1.177,-9.021,-7.375,3.666,-8.988,-37.66,94.64,-23.38
17036.0,-8.402,2.647,-7.447,-4.862,-0.735,-8.294,-99.05,36.68,-31.01
,-7.921,1.24,-7.198,-4.118,-0.924,-8.291,-107.73,7.84,-26.53
,-6.631,0.28,-7.315,-4.491,-0.785,-7.832,-100.66,-15.54,-21.14
,-5.776,-0.34,-7.485,-4.774,-0.4,-7.849,-80.57,-34.72,-18.76
17112.0,-4.877,0.426,-8.052,-4.853,0.546,-7.509,18.06,-107.94,-40.32
,-4.614,1.06,-8.38,-4.728,0.196,-7.416,19.25,-123.97,-39.41
,-4.456,1.247,-8.545,-4.896,0.383,-7.586,14.21,-136.22,-37.59
,-4.728,1.12,-7.961,-4.846,1.0,-7.834,9.52,-147.0,-36.26
17188.0,-5.217,1.601,-7.758,-5.968,0.806,-8.246,26.32,-199.43,-28.77
,-5.721,1.998,-7.633,-6.365,0.129,-7.387,19.81,-208.6,-26.67
,-6.016,1.974,-7.669,-6.64,-0.766,-6.803,11.9,-219.31,-24.36
,-6.169,1.374,-8.05,-6.88,-1.45,-6.698,3.15,-230.37,-22.82
17264.0,-7.361,-1.79,-6.236,-7.763,2.139,-6.478,24.15,-250.32,-25.69
,-7.705,-1.072,-6.08,-7.7,2.876,-6.171,43.61,-250.04,-25.76
,-7.999,-0.072,-6.205,-7.834,3.058,-6.049,58.17,-248.78,-26.25
,-7.909,1.036,-6.42,-8.122,2.603,-5.631,64.4,-246.75,-26.32
17340.0,-8.581,1.886,-4.922,-8.38,-0.316,-2.625,1.75,-223.65,-16.03
,-8.914,1.397,-4.48,-8.301,-0.306,-1.881,-6.23,-217.7,-16.1
,-8.851,0.615,-3.513,-8.681,-0.012,-1.295,-9.52,-210.49,-14.91
,-8.746,-0.053,-3.003,-9.062,0.022,-0.804,-3.78,-200.62,-12.74
17415.0,-8.935,0.091,-0.83,-7.59,0.555,-0.479,48.65,-115.22,0.98
,-8.519,0.711,-0.885,-7.703,-0.014,-0.591,55.58,-97.44,3.5
,-8.023,0.854,-0.538,-7.988,-0.479,-1.036,57.05,-77.77,5.88
,-7.755,0.735,-0.44,-7.985,-0.933,-1.05,55.72,-55.86,6.44
17491.0,-8.866,-0.725,-1.292,-12.843,1.369,0.864,59.43,48.86,3.29
,-11.017,1.4,0.715,-11.876,3.618,-0.242,66.43,60.62,-3.5
,-13.687,2.362,1.211,-9.976,5.032,-2.228,63.84,72.66,-13.65
,-14.47,0.112,0.993,-11.304,3.659,-3.089,45.29,90.93,-15.54
17566.0,-9.349,0.871,-4.956,-9.246,0.495,-7.337,11.2,94.92,-7.77
,-7.669,-2.261,-3.814,-9.201,0.335,-6.667,-1.19,91.49,-8.4
,-6.047,-2.85,-4.908,-9.758,-0.05,-5.76,8.26,94.29,-7.35
,-6.949,-1.378,-5.721,-9.938,0.024,-5.755,25.9,104.37,-8.12
17642.0,-9.603,0.268,-5.994,-9.696,-1.766,-3.604,2.66,76.86,-5.11
,-9.349,0.955,-5.188,-9.191,-1.993,-3.891,-1.61,72.59,-3.92
,-10.852,1.941,-3.848,-9.442,-2.046,-3.451,-10.36,68.53,-4.83
,-11.352,-0.239,-3.254,-9.189,-1.85,-3.475,-16.24,59.22,-6.79
17718.0,-9.088,-0.952,-3.477,-9.722,-0.629,-2.089,32.55,49.84,0.14
,-10.029,-0.079,-2.843,-9.89,-0.969,-2.187,28.35,49.84,-0.35
,-10.687,0.007,-2.405,-9.663,-1.383,-2.668,18.83,45.78,-2.52
,-10.237,-0.56,-2.142,-9.323,-1.35,-2.907,10.92,42.07,-3.99
17794.0,-9.799,-1.18,-2.745,-9.387,0.201,-3.482,15.19,35.7,-1.61
,-9.801,-0.67,-3.111,-9.538,0.175,-3.427,21.21,33.67,-1.61
,-9.734,-0.191,-3.104,-9.277,0.115,-3.565,25.2,33.04,-1.12
,-9.605,0.158,-3.4,-9.275,-0.122,-3.151,26.81,31.22,-0.98
17869.0,-9.576,-0.184,-2.974,-9.517,0.589,-2.828,18.13,27.65,-1.61
,-9.701,-0.337,-2.745,-9.27,0.462,-3.132,20.16,27.09,-0.91
,-9.593,-0.306,-2.668,-9.172,0.261,-2.757,22.89,27.23,-1.12
,-9.483,0.416,-2.86,-9.49,-0.062,-2.558,27.65,27.65,-1.82
17945.0,-9.318,-0.538,-2.297,-9.39,-0.347,-2.312,17.71,29.68,-5.32
,-9.615,-0.567,-1.943,-9.385,-0.112,-2.73,18.13,31.22,-5.39
,-9.727,-0.768,-1.919,-9.438,0.12,-3.168,18.48,32.62,-4.69
,-9.545,-0.684,-2.051,-9.306,0.218,-3.62,18.69,34.51,-3.71
18021.0,-9.392,0.179,-3.984,-9.885,-1.359,-3.652,8.05,39.34,-4.76
,-9.304,-0.581,-4.13,-9.73,-1.278,-3.685,5.11,38.08,-5.53
,-9.062,-1.024,-4.324,-9.454,-0.89,-3.29,6.23,37.38,-5.95
,-9.296,-1.094,-4.209,-9.261,0.187,-3.51,10.08,37.66,-5.81
18097.0,-9.474,0.747,-3.118,-10.033,-0.517,-1.642,-1.05,40.88,-9.45
,-9.56,0.517,-2.711,-9.895,-0.268,-1.821,-13.51,42.91,-11.2
,-10.014,-0.127,-2.13,-10.136,0.096,-2.008,-22.12,44.87,-11.76
,-10.234,-0.723,-1.752,-10.263,0.096,-2.166,-23.59,47.04,-10.22
18172.0,-10.459,-0.388,-2.113,-11.29,-2.45,-1.594,-6.86,64.4,0.42
,-10.574,-0.828,-1.91,-12.926,-3.79,-0.885,-5.88,68.18,1.61
,-10.727,-1.103,-1.792,-11.577,-0.053,-1.429,-4.13,71.96,2.31
,-10.773,-1.134,-1.699,-10.005,2.685,-1.433,-3.36,76.3,2.38
18248.0,-10.759,2.096,-0.921,-11.18,1.998,-0.522,-6.93,104.58,1.68
,-11.354,1.35,-0.421,-11.771,2.187,-0.486,-22.89,108.57,0.21
,-11.251,1.653,-0.321,-12.517,2.831,0.617,-28.35,114.24,0.28
,-10.96,2.206,-0.347,-12.812,4.25,-0.053,-29.33,122.29,-1.19
18324.0,-13.252,3.908,-0.323,-11.653,-0.364,-5.867,-100.73,165.83,-22.96
,-13.295,2.434,-0.967,-11.163,-2.374,-7.452,-130.41,170.94,-27.65
,-13.364,1.668,-2.201,-10.603,-3.482,-7.571,-151.06,173.81,-30.38
,-12.532,1.17,-3.848,-11.199,-2.257,-8.232,-159.39,172.55,-28.56
18399.0,-12.034,-1.644,-7.466,-6.234,1.137,-11.505,-55.37,146.23,-15.89
,-11.723,-1.043,-7.777,-5.678,2.134,-11.821,-39.41,129.78,-14.21
,-10.28,-0.503,-8.256,-6.956,1.979,-9.112,-29.68,111.44,-9.8
,-8.425,0.254,-9.744,-8.772,1.362,-7.595,-27.23,93.1,-8.33
18475.0,-8.102,0.366,-7.779,-4.623,0.127,-8.186,-77.0,13.86,-12.04
,-6.336,0.053,-8.303,-4.704,-0.117,-7.868,-66.36,-9.94,-9.24
,-5.336,-0.101,-8.514,-4.269,-0.325,-8.346,-50.68,-27.02,-8.75
,-4.819,-0.048,-8.533,-4.015,-0.05,-8.722,-37.03,-42.35,-10.71
18551.0,-3.965,0.51,-8.725,-4.762,-0.098,-7.523,18.2,-119.98,-20.3
,-4.046,0.794,-8.485,-3.994,-0.098,-8.433,18.76,-132.16,-19.18
,-4.582,0.644,-7.803,-3.766,0.311,-8.938,16.17,-145.18,-19.81
,-4.941,0.256,-7.265,-4.051,0.94,-8.818,16.38,-161.84,-21.49
18627.0,-4.996,1.467,-8.059,-6.334,0.268,-7.832,41.44,-213.85,-22.75
,-5.619,1.713,-7.72,-5.351,-0.33,-8.406,33.32,-223.02,-21.0
,-6.083,1.527,-7.545,-5.382,-0.912,-7.485,23.45,-232.33,-19.88
,-6.475,0.821,-7.37,-5.755,-0.931,-7.37,16.59,-242.55,-21.63
18702.0,-6.382,-0.581,-7.21,-7.581,1.735,-7.44,56.56,-263.9,-25.76
,-6.932,-0.278,-7.387,-7.753,2.039,-7.193,65.87,-266.42,-25.69
,-6.98,0.316,-7.631,-8.205,1.977,-5.671,72.24,-267.96,-25.76
,-7.272,0.976,-7.157,-8.782,1.759,-4.489,73.08,-268.17,-23.38
18778.0,-9.072,1.196,-3.888,-10.115,1.079,-1.682,45.78,-245.0,-2.73
,-9.557,1.005,-3.692,-9.512,1.039,-1.417,47.81,-235.48,-1.75
,-9.689,1.366,-3.419,-8.413,0.979,-1.082,51.52,-221.55,-2.52
,-10.366,1.11,-2.123,-8.066,0.9,-0.682,52.85,-204.19,-3.57
18854.0,-7.564,0.818,-0.974,-6.817,-1.563,-0.802,58.03,-83.51,4.83
,-7.121,0.342,-0.601,-6.717,-1.287,-1.689,54.04,-57.05,4.76
,-6.832,-0.622,-0.122,-7.358,-0.995,-2.462,52.85,-30.59,4.62
,-6.7,-1.519,-0.007,-8.023,0.268,-3.106,58.17,-3.5,5.53
18930.0,-13.017,5.848,3.147,-7.758,5.173,-2.032,99.75,80.85,-7.98
,-20.694,7.796,7.119,-10.648,5.401,-1.706,55.58,69.72,-22.61
,-19.024,3.216,1.5,-6.853,2.012,-5.059,30.94,59.71,-8.26
,-10.091,1.445,-2.12,-6.159,-1.283,-3.082,33.04,79.73,1.75
19005.0,-8.421,-2.548,-4.058,-9.086,-2.041,-5.939,-30.38,104.58,-22.75
,-10.818,-2.97,-5.906,-9.0,-0.708,-6.052,-15.47,103.74,-18.69
,-10.213,-3.077,-6.956,-8.732,0.311,-5.872,-0.84,101.36,-13.23
,-9.031,-2.994,-6.324,-9.404,1.24,-4.879,13.44,104.3,-9.73
19081.0,-10.794,1.665,-3.68,-9.39,-1.359,-3.405,15.12,72.8,-5.67
,-10.775,0.782,-3.429,-9.555,-1.78,-3.041,2.1,63.07,-9.94
,-10.108,-0.244,-3.532,-9.536,-1.467,-3.061,-7.07,58.59,-12.32
,-9.452,-0.838,-3.53,-9.426,-0.189,-3.238,-11.2,56.84,-11.62
19156.0,-9.737,1.046,-3.183,-10.457,-1.594,-2.481,28.63,51.66,-5.39
,-9.751,1.457,-3.367,-10.127,-2.922,-2.395,18.9,50.05,-5.04
,-10.014,0.634,-2.948,-9.529,-3.489,-2.649,6.51,48.72,-5.04
,-10.569,-0.589,-2.666,-9.505,-2.687,-2.407,-0.98,44.59,-4.97
19232.0,-9.792,-1.077,-2.56,-9.009,-0.744,-3.57,44.59,31.43,-0.28
,-9.902,0.249,-2.57,-9.43,-0.548,-3.393,52.99,28.49,0.49
,-10.005,0.744,-2.661,-9.325,0.311,-3.987,54.11,24.08,0.49
,-9.864,0.034,-3.195,-9.462,0.883,-3.879,52.92,19.11,0.42
19308.0,-9.572,1.029,-3.752,-9.241,0.715,-2.984,44.45,22.82,-0.35
,-9.418,0.893,-3.69,-9.363,0.864,-2.795,35.21,22.61,-1.12
,-9.347,0.572,-3.367,-9.495,0.792,-2.553,28.35,22.82,-1.75
,-9.292,0.297,-2.948,-9.378,0.689,-2.584,25.34,22.89,-2.38
19384.0,-9.208,0.574,-2.572,-9.356,0.208,-2.58,7.49,28.7,-6.37
,-9.33,0.826,-2.491,-9.177,0.558,-2.845,4.48,31.36,-6.65
,-9.636,0.72,-2.309,-9.395,1.225,-3.13,-0.35,32.55,-7.0
,-9.677,0.38,-2.304,-9.95,0.431,-2.769,-5.11,33.6,-7.07
19460.0,-9.88,-1.462,-2.737,-9.603,-0.806,-2.544,-23.38,41.16,-7.84
,-9.785,-2.254,-2.156,-9.512,-0.541,-2.637,-15.89,42.14,-6.58
,-9.694,-1.371,-2.283,-9.402,-0.239,-2.941,-4.2,43.12,-5.81
,-10.072,-0.873,-2.197,-9.512,-0.366,-2.661,1.33,43.26,-5.95
19535.0,-9.502,-0.383,-2.41,-9.849,0.038,-1.996,-14.63,49.84,-5.81
,-9.648,-0.294,-2.221,-9.919,-0.067,-2.149,-15.75,51.1,-4.62
,-9.679,-0.404,-1.878,-10.144,-0.079,-2.484,-14.07,52.71,-3.15
,-9.713,-0.23,-1.874,-10.282,-0.211,-3.005,-10.64,54.67,-1.54
19611.0,-10.208,-0.12,-3.53,-10.938,-1.048,-3.563,-9.94,69.09,3.92
,-10.431,0.153,-4.245,-13.015,-4.695,-1.838,-13.09,72.31,3.78
,-10.416,0.168,-3.977,-12.02,-2.302,-1.929,-18.69,75.46,3.71
,-10.278,0.211,-3.953,-9.832,1.417,-2.094,-25.06,78.54,3.78
19687.0,-10.017,2.17,-1.541,-10.73,1.173,-0.4,-1.05,96.18,12.6
,-10.467,1.347,-1.153,-11.096,1.232,-0.251,-15.19,98.63,8.89
,-10.641,1.582,-0.94,-11.716,2.245,0.29,-26.18,103.18,8.61
,-10.514,1.62,-0.663,-12.34,3.345,0.397,-33.04,109.06,8.26
19763.0,-12.221,4.042,-0.565,-12.039,0.742,-4.128,-72.87,148.61,-7.63
,-12.216,3.85,-1.295,-11.328,-2.13,-5.552,-94.92,157.22,-14.28
,-12.462,2.871,-1.993,-11.06,-3.412,-6.906,-119.49,163.66,-19.81
,-12.663,1.45,-2.568,-10.591,-3.465,-8.301,-139.93,167.93,-21.63
19838.0,-10.928,-3.305,-7.528,-7.676,1.376,-10.699,-37.94,140.91,-7.7
,-11.594,-2.716,-7.152,-7.14,1.926,-10.062,-7.98,133.42,-10.5
,-11.122,-1.536,-7.301,-7.875,2.661,-9.246,7.35,121.17,-10.36
,-9.502,-0.189,-8.894,-8.902,1.969,-7.595,12.25,109.2,-6.37
19914.0,-9.002,0.907,-7.471,-5.867,0.175,-8.318,-62.44,38.43,-11.9
,-7.655,-0.132,-8.083,-5.346,0.462,-8.698,-63.63,13.23,-11.83
,-6.53,-0.29,-8.191,-5.025,0.522,-8.748,-54.04,-4.06,-11.13
,-6.15,-0.117,-8.062,-4.575,0.498,-8.658,-37.31,-20.16,-13.02
19989.0,-4.346,0.591,-8.516,-4.137,0.347,-8.019,1.75,-98.91,-21.42
,-4.113,0.715,-8.366,-3.891,0.292,-8.083,3.99,-114.45,-21.28
,-3.908,0.687,-8.299,-3.924,0.45,-8.172,6.02,-129.43,-21.56
,-4.008,0.613,-8.021,-3.965,1.017,-8.557,10.64,-143.43,-23.52
20065.0,-4.133,1.369,-8.703,-5.159,1.986,-8.555,50.47,-206.08,-35.77
,-4.408,1.838,-8.296,-5.793,1.799,-8.418,49.42,-217.35,-36.12
,-4.843,2.412,-8.232,-5.497,1.519,-9.162,45.01,-229.81,-35.14
,-4.975,2.405,-8.655,-6.04,0.579,-9.146,36.4,-242.83,-34.37
20141.0,-6.473,-0.096,-7.813,-7.224,0.428,-7.057,-3.92,-270.83,-47.6
,-6.942,-0.031,-7.315,-8.232,0.78,-6.54,2.17,-273.77,-48.44
,-6.628,0.002,-7.274,-8.574,1.005,-6.394,8.75,-273.0,-49.84
,-6.667,0.005,-7.14,-8.674,0.627,-5.654,16.03,-268.66,-51.1
20217.0,-8.933,0.227,-5.193,-10.098,0.586,-1.555,27.02,-252.49,-34.09
,-9.586,0.072,-4.843,-9.77,1.395,-1.134,33.04,-245.56,-28.14
,-10.136,0.132,-4.066,-9.021,1.993,-0.735,41.79,-238.21,-22.82
,-10.151,0.414,-3.156,-8.815,2.132,-0.089,49.42,-226.03,-18.06
20293.0,-8.344,2.223,-0.081,-7.325,-0.646,1.395,58.24,-132.37,-5.67
,-7.842,1.677,0.16,-7.583,-1.115,1.606,48.16,-108.64,-5.6
,-7.712,0.804,0.474,-7.49,-1.519,1.665,38.99,-84.14,-5.25
,-7.406,0.031,0.823,-7.425,-1.46,1.027,35.98,-60.13,-4.06
20368.0,-7.267,-1.381,0.385,-18.043,7.447,4.496,88.69,52.64,7.63
,-7.574,-1.015,-0.316,-22.414,2.477,3.314,99.61,71.4,10.01
,-8.521,0.17,-1.433,-10.567,-0.615,0.852,109.48,84.35,10.99
,-14.039,5.465,0.503,-5.449,3.415,-1.23,120.75,76.3,1.33
20444.0,-9.191,5.506,1.732,-11.534,-2.594,-3.853,56.63,95.13,-7.42
,-8.88,5.666,-2.532,-9.107,-7.643,-4.8,27.58,97.16,-17.36
,-8.179,4.353,-3.338,-7.1,-8.758,-5.396,-16.31,112.7,-26.6
,-11.914,1.788,-1.397,-6.865,-5.832,-5.343,-58.73,117.88,-29.4
20520.0,-8.691,-1.273,-4.996,-9.797,3.099,-4.121,55.79,95.9,-0.42
,-9.923,1.273,-5.532,-9.517,1.053,-3.707,66.64,89.46,-0.91
,-10.258,2.335,-5.358,-9.871,-0.682,-3.104,54.88,86.1,-2.94
,-10.086,3.52,-4.724,-10.194,-1.847,-2.948,34.51,82.32,-6.79
20596.0,-10.026,-2.178,-3.02,-9.634,1.192,-3.204,-4.41,55.23,-1.12
,-9.421,-1.785,-2.948,-9.904,0.809,-2.907,17.5,56.0,0.91
,-9.497,-0.778,-2.771,-9.797,-0.536,-2.568,33.6,55.93,0.0
,-9.569,0.258,-3.027,-10.1,-1.249,-2.046,36.4,53.83,-2.24
20671.0,-10.349,-1.474,-1.888,-9.89,-0.964,-2.448,-7.0,42.21,-1.82
,-9.78,-1.536,-2.264,-9.548,-0.881,-2.757,-2.31,38.99,-1.68
,-9.6,-1.228,-2.458,-9.45,-0.955,-2.615,1.26,38.29,-1.82
,-9.933,-1.122,-2.357,-9.785,-0.972,-2.376,5.46,36.47,-1.12
20747.0,-9.655,-1.256,-2.345,-9.045,-0.455,-2.9,31.22,25.55,1.05
,-9.49,-0.713,-2.565,-9.129,0.148,-2.673,35.35,25.48,0.42
,-10.072,0.108,-2.144,-9.323,0.419,-2.716,37.03,24.5,0.63
,-10.569,-0.148,-2.271,-9.44,1.144,-2.855,38.36,18.2,1.05
20822.0,-9.995,0.988,-2.95,-9.27,0.67,-3.257,36.19,23.1,-0.63
,-9.471,-0.055,-3.077,-9.521,0.974,-3.202,30.8,22.47,-0.7
,-9.526,-0.491,-2.857,-9.624,0.873,-3.144,30.59,22.4,-0.91
,-9.194,0.012,-3.159,-9.624,0.108,-2.809,33.67,22.82,-1.61
20898.0,-9.299,-0.038,-2.912,-9.481,0.254,-2.84,6.44,26.39,-3.85
,-9.45,0.22,-2.831,-9.533,0.168,-2.726,5.95,27.3,-4.27
,-9.536,-0.029,-2.864,-9.469,-0.11,-2.544,4.2,26.95,-4.48
,-9.55,0.232,-2.912,-9.342,-0.328,-2.56,3.71,27.16,-4.9
20974.0,-9.179,-0.081,-2.769,-9.43,-0.196,-2.97,-9.24,31.92,-6.51
,-9.11,0.359,-2.869,-10.096,-1.106,-2.558,-11.27,34.51,-7.07
,-9.203,0.409,-3.003,-9.631,-2.41,-3.113,-16.24,36.54,-7.63
,-9.359,0.16,-3.017,-9.0,-2.532,-3.396,-22.12,38.15,-7.77
21050.0,-8.483,-1.764,-3.848,-9.32,-1.35,-3.494,3.71,31.85,-5.81
,-8.875,-0.866,-3.786,-9.349,-1.098,-3.419,8.33,32.83,-5.95
,-9.426,-0.711,-3.508,-9.624,-0.66,-3.422,4.41,32.27,-5.46
,-9.6,-1.17,-3.293,-9.902,-0.261,-3.396,0.0,31.01,-4.41
21125.0,-9.995,-0.309,-3.297,-9.713,0.931,-3.903,-2.66,35.14,0.35
,-9.686,-0.644,-3.283,-9.897,1.34,-4.027,-7.28,36.54,0.35
,-9.526,-0.548,-3.46,-10.747,-0.692,-3.486,-9.1,38.57,-0.28
,-9.617,0.134,-3.783,-12.486,-2.221,-2.666,-11.97,40.95,-0.77
21201.0,-11.771,0.409,-2.623,-10.22,-0.682,-1.412,-40.25,52.71,7.14
,-10.457,1.668,-2.592,-9.641,-0.469,-1.625,-35.84,58.66,4.83
,-11.117,0.261,-1.555,-9.555,-0.263,-1.826,-43.68,61.25,1.54
,-11.182,-0.931,-1.429,-9.844,0.263,-1.924,-43.75,60.13,2.8
21277.0,-9.715,0.313,-2.029,-10.041,1.9,-2.709,-23.31,78.82,9.66
,-9.533,0.256,-2.316,-9.897,2.659,-2.431,-26.18,82.32,9.52
,-9.825,0.397,-2.553,-10.306,3.23,-2.156,-27.79,86.03,8.4
,-10.041,1.005,-2.618,-10.376,3.486,-2.156,-28.42,90.09,6.93
21353.0,-10.514,3.735,-2.486,-10.876,1.096,-3.211,-82.46,118.09,-5.46
,-10.948,3.34,-2.048,-9.954,0.227,-4.08,-100.45,122.15,-7.0
,-11.244,2.915,-2.331,-9.21,-0.498,-5.379,-113.33,124.6,-6.72
,-11.247,2.053,-2.493,-9.328,-1.378,-5.564,-120.89,126.21,-5.11
21429.0,-9.761,-1.467,-5.851,-8.275,-3.4,-7.172,-54.81,125.02,7.35
,-10.742,-1.517,-5.745,-7.413,-3.616,-7.854,-34.65,116.55,9.45
,-10.548,-1.895,-5.942,-6.511,-2.541,-9.521,-21.84,102.06,13.16
,-9.17,-2.637,-6.669,-6.377,-0.457,-10.775,-5.81,87.92,16.87
21504.0,-5.939,1.168,-10.378,-6.32,0.16,-8.37,68.74,50.4,23.17
,-6.387,2.601,-9.809,-5.243,-1.027,-8.473,46.97,40.6,20.86
,-7.004,2.84,-8.684,-4.673,-1.625,-8.739,18.76,25.83,21.63
,-7.394,1.694,-7.746,-4.724,-1.63,-8.311,-10.01,3.99,26.25
21580.0,-5.152,-1.228,-7.667,-3.558,-1.304,-8.607,-11.48,-67.97,50.47
,-5.398,-0.986,-7.483,-3.738,-1.0,-8.33,-3.85,-85.82,50.26
,-5.231,-0.924,-7.624,-4.824,-0.419,-8.007,4.13,-103.74,50.47
,-4.513,-1.208,-8.311,-5.762,0.081,-7.868,10.57,-119.28,49.14
21655.0,-6.188,-0.153,-7.825,-5.841,0.67,-8.485,72.38,-159.95,53.41
,-5.69,-0.266,-8.423,-6.449,0.275,-8.088,81.41,-164.08,54.25
,-5.453,-0.151,-8.325,-6.805,-0.005,-7.894,89.74,-165.34,54.81
,-5.786,0.546,-8.251,-7.076,-0.11,-7.77,99.19,-168.35,55.09
21731.0,-7.145,-0.237,-7.621,-7.729,-0.213,-6.705,112.0,-166.67,62.09
,-7.65,-0.268,-6.98,-7.806,-0.146,-6.614,116.83,-163.66,61.74
,-7.889,-0.213,-6.731,-7.554,-0.06,-6.253,123.9,-160.51,62.37
,-7.789,-0.168,-6.729,-7.954,-0.093,-6.016,131.95,-156.17,63.56
21807.0,-7.985,-0.445,-5.989,-8.33,-0.33,-5.8,149.94,-120.26,70.84
,-8.162,-0.924,-5.98,-8.406,-0.629,-5.305,154.98,-115.15,71.75
,-7.899,-0.926,-6.071,-8.358,-1.11,-5.145,162.96,-108.43,73.36
,-8.217,-0.62,-5.987,-8.177,-1.922,-5.193,171.64,-101.36,74.41
21883.0,-7.923,-2.292,-5.322,-7.77,0.969,-5.568,212.31,-72.94,84.49
,-7.844,-1.871,-5.09,-7.318,1.694,-6.03,232.4,-66.08,86.24
,-7.99,-0.773,-5.542,-7.1,1.886,-5.786,253.26,-59.15,86.59
,-7.849,0.208,-5.516,-7.554,2.101,-5.776,263.69,-50.89,84.98
21958.0,-7.918,2.249,-6.609,-7.571,0.282,-6.344,212.1,-5.46,59.22
,-7.253,1.594,-6.298,-7.854,-0.069,-6.418,193.27,2.31,54.04
,-7.073,1.39,-6.518,-7.901,-0.098,-6.403,175.98,6.37,50.12
,-7.145,0.921,-6.607,-8.007,0.38,-6.521,162.19,8.68,48.02
22034.0,-7.909,0.866,-6.403,-8.727,1.953,-6.054,149.94,1.05,36.82
,-8.327,1.424,-6.255,-8.842,0.419,-5.604,144.48,-1.33,32.69
,-8.54,2.168,-6.26,-9.076,-1.467,-5.164,135.38,-4.27,27.93
,-8.626,2.491,-6.248,-9.507,-2.783,-4.702,119.77,-7.35,21.7
22109.0,-10.206,-2.596,-4.14,-11.687,5.425,-3.668,71.82,-16.24,-11.41
,-11.448,-1.213,-3.518,-9.639,6.444,-4.678,77.77,-17.57,-18.13
,-11.965,1.019,-3.147,-8.086,6.456,-4.716,73.29,-17.64,-21.98
,-12.379,3.8,-3.285,-8.04,5.183,-4.106,60.69,-16.73,-22.75
22185.0,-8.617,2.149,-3.915,-9.093,0.79,-3.709,12.88,-16.24,-9.66
,-9.241,-0.665,-3.604,-9.287,2.091,-3.218,20.58,-18.06,-7.91
,-9.433,-2.132,-3.386,-10.309,2.01,-2.599,36.12,-18.27,-7.77
,-9.189,-1.383,-3.484,-9.868,0.823,-2.446,50.19,-16.94,-10.43
22261.0,-9.392,-0.519,-1.991,-9.732,0.572,-2.493,-13.3,-13.37,-12.6
,-9.237,-0.462,-2.45,-9.335,-0.024,-2.235,0.91,-11.55,-11.27
,-9.16,-0.246,-2.434,-9.416,-0.134,-2.063,16.1,-7.7,-11.76
,-9.727,0.447,-2.565,-9.641,-0.057,-1.926,24.78,-6.65,-11.2
22337.0,-9.873,-0.115,-1.835,-9.564,-0.067,-3.089,18.41,0.21,-5.04
,-9.794,-0.634,-1.874,-9.471,0.677,-3.381,14.98,0.42,-3.36
,-9.615,-0.991,-2.19,-9.325,1.223,-3.685,16.73,0.21,-1.82
,-9.586,-0.955,-2.572,-9.253,0.804,-3.463,24.22,0.56,-0.91
22413.0,-9.591,0.416,-3.386,-9.481,1.141,-3.23,33.46,-0.21,4.34
,-9.579,0.148,-3.295,-9.43,1.249,-2.996,34.3,-0.7,5.11
,-9.117,0.218,-3.264,-9.639,0.644,-2.647,33.74,0.07,4.69
,-9.203,0.558,-3.211,-9.619,-0.041,-2.45,31.22,0.84,3.22
22488.0,-9.507,-0.653,-2.285,-9.428,-0.079,-2.929,8.75,3.15,3.71
,-9.466,-0.586,-2.51,-9.44,0.177,-3.022,16.38,4.13,4.41
,-9.598,-0.242,-2.761,-9.478,0.481,-3.123,21.07,4.55,5.11
,-9.44,-0.112,-2.936,-9.667,0.419,-3.07,21.56,4.62,5.95
22564.0,-9.469,-0.031,-2.953,-9.567,0.213,-2.967,16.87,4.06,9.03
,-9.251,-0.199,-2.814,-9.411,0.101,-3.099,22.68,3.92,10.64
,-9.32,-0.321,-2.613,-9.493,0.139,-3.166,30.1,4.69,12.11
,-9.521,-0.089,-2.733,-9.445,0.294,-3.281,35.98,5.32,12.88
22640.0,-9.471,0.428,-3.204,-9.591,-0.615,-3.053,18.9,5.67,12.25
,-9.574,0.55,-3.309,-9.622,-1.199,-3.005,16.38,5.18,12.39
,-9.433,0.337,-3.463,-9.538,-1.177,-3.187,14.63,4.62,13.02
,-9.426,-0.038,-3.183,-9.696,-1.017,-3.108,15.47,4.2,14.14
22716.0,-9.574,-0.816,-3.379,-9.416,0.869,-3.336,50.12,-1.68,19.11
,-9.253,-0.361,-3.544,-9.385,0.806,-3.178,51.87,-1.61,19.25
,-9.337,0.366,-3.429,-9.273,0.782,-3.039,51.66,-0.7,19.46
,-9.294,0.713,-3.463,-9.081,0.737,-3.094,49.21,-0.56,20.02
22791.0,-9.27,0.809,-3.211,-8.909,0.591,-3.422,47.53,0.49,22.47
,-9.488,0.766,-3.25,-9.134,1.366,-3.367,48.37,0.42,23.1
,-9.512,0.644,-3.235,-9.457,1.472,-3.192,47.39,0.35,23.38
,-9.495,0.385,-3.309,-9.703,0.83,-3.195,46.62,-0.56,23.45
22867.0,-9.404,0.165,-3.285,-9.356,1.352,-3.254,26.32,0.14,23.17
,-9.11,-0.27,-3.139,-9.643,0.57,-2.862,28.98,0.07,23.38
,-8.885,0.479,-3.307,-9.361,-0.488,-2.742,31.78,1.82,23.52
,-9.313,1.278,-3.278,-9.208,-0.641,-2.699,31.57,3.22,24.08
22942.0,-9.117,0.065,-2.795,-9.612,-0.629,-1.941,27.93,5.39,26.88
,-9.225,1.034,-2.69,-9.445,-1.299,-2.144,26.88,7.98,28.0
,-9.392,1.146,-2.541,-9.34,-1.079,-2.402,18.62,9.45,28.91
,-9.39,0.462,-2.218,-9.284,-0.196,-2.893,10.5,10.64,30.03
23018.0,-9.265,0.459,-3.013,-9.091,1.295,-2.697,17.64,17.5,37.17
,-9.206,0.847,-3.029,-9.155,1.402,-2.391,11.34,18.83,38.29
,-9.038,0.909,-2.958,-9.256,1.192,-2.029,6.16,20.51,39.2
,-9.131,1.077,-2.773,-9.21,1.218,-1.878,3.57,23.1,40.18
23094.0,-9.526,1.436,-1.601,-12.055,1.048,-0.191,8.89,35.77,48.3
,-10.024,1.883,-1.364,-12.627,0.68,-0.093,11.13,40.11,50.33
,-10.672,2.12,-0.909,-13.18,0.5,-0.189,11.13,46.06,52.36
,-11.455,1.673,-0.342,-13.075,0.507,-0.476,9.87,51.94,53.55
23170.0,-12.965,0.431,-0.763,-9.524,-1.709,-3.355,14.77,78.19,56.91
,-12.3,0.029,-1.311,-8.887,-1.888,-4.726,13.02,77.98,58.52
,-12.771,-0.538,-1.606,-7.767,-1.855,-6.827,10.85,71.54,58.94
,-10.916,-1.182,-2.661,-8.279,-2.465,-8.442,11.34,60.76,59.01
23246.0,-9.682,-4.123,-8.11,-7.717,-3.159,-6.516,78.68,62.79,63.91
,-10.943,-5.334,-5.08,-8.011,-0.096,-6.983,94.43,57.33,67.48
,-10.644,-6.372,-4.561,-8.593,2.338,-7.365,127.61,51.66,71.19
,-8.737,-5.674,-5.922,-9.155,3.18,-7.31,165.2,51.94,70.07
23321.0,-9.244,2.46,-7.102,-8.648,-3.273,-6.217,109.76,37.94,52.99
,-9.031,0.488,-6.437,-8.337,-3.405,-6.494,76.72,28.77,55.79
,-8.854,-1.374,-6.202,-8.346,-3.108,-6.509,62.72,19.11,56.91
,-8.897,-2.455,-6.291,-8.533,-2.182,-6.626,65.87,8.96,55.93
23397.0,-8.705,-1.46,-6.569,-7.818,0.775,-7.274,166.11,-36.61,51.03
,-8.402,-0.682,-6.99,-7.746,0.806,-7.44,173.95,-46.69,50.26
,-8.023,0.024,-6.944,-7.667,1.012,-7.463,176.4,-55.86,49.42
,-7.925,0.56,-6.975,-7.583,1.235,-7.511,175.49,-66.57,49.0
23473.0,-7.578,1.414,-7.389,-7.928,1.388,-7.152,139.65,-115.08,41.72
,-7.657,1.548,-7.174,-8.069,1.618,-7.107,131.53,-123.27,39.55
,-7.834,1.512,-7.349,-8.035,1.831,-7.021,124.39,-132.51,36.61
,-7.71,1.352,-7.447,-8.083,1.969,-6.736,117.81,-140.28,33.53
23549.0,-8.215,2.072,-6.425,-8.179,1.184,-5.693,90.58,-168.49,16.1
,-8.382,2.108,-6.186,-8.014,0.979,-5.729,85.47,-173.18,11.97
,-8.469,1.823,-5.855,-7.995,0.773,-5.721,81.34,-178.01,7.98
,-8.452,1.491,-5.647,-8.344,0.756,-5.286,79.52,-182.56,4.06
23624.0,-8.701,0.823,-5.039,-8.32,1.347,-4.391,84.84,-184.94,-6.93
,-8.595,0.883,-5.114,-8.488,1.594,-3.527,84.98,-185.01,-6.44
,-8.303,0.981,-5.272,-8.65,1.541,-3.118,82.46,-182.56,-4.97
,-8.217,1.07,-4.946,-8.887,0.732,-2.761,76.02,-178.15,-3.43
23700.0,-9.031,0.213,-2.553,-8.136,0.873,-1.78,56.84,-150.29,1.96
,-9.222,-0.112,-2.254,-7.959,1.445,-1.874,66.99,-142.73,3.15
,-9.117,0.026,-1.802,-7.935,1.847,-2.345,80.5,-132.51,5.39
,-8.698,0.4,-1.716,-7.916,1.843,-2.472,93.8,-118.79,7.98
23775.0,-7.736,1.716,-2.599,-6.607,0.61,-3.436,88.97,-31.99,8.89
,-7.523,1.115,-2.405,-6.978,0.873,-3.573,78.89,-15.33,7.56
,-7.109,0.648,-2.929,-7.406,1.445,-3.573,74.06,1.12,6.02
,-6.554,0.491,-3.161,-10.357,4.252,-0.077,70.14,20.09,3.36
23851.0,-18.16,9.313,6.638,-11.28,4.635,0.845,16.38,53.83,-28.91
,-22.264,4.625,3.731,-9.036,1.883,-1.527,-8.54,28.56,-23.1
,-11.627,-0.266,-0.916,-5.614,-1.108,-2.687,-7.84,39.55,-4.27
,-8.162,1.998,-0.038,-5.219,-0.139,-2.022,-0.28,70.56,-9.52
23927.0,-8.624,2.879,-1.515,-9.213,-4.03,-3.357,3.92,74.55,-20.3
,-11.692,1.761,-2.505,-9.921,-2.486,-2.958,-10.22,70.91,-18.48
,-11.531,-1.503,-3.999,-10.514,-1.744,-2.924,-28.63,69.58,-15.89
,-10.029,-3.676,-4.255,-10.167,-1.709,-2.749,-31.01,73.29,-12.67
24003.0,-9.88,-0.854,-2.441,-9.105,0.754,-2.867,22.68,62.51,-9.66
,-9.866,-0.014,-2.044,-9.622,0.613,-3.118,21.42,60.69,-12.74
,-9.548,0.474,-2.343,-9.852,-0.067,-2.824,16.59,57.54,-14.14
,-9.119,0.672,-2.551,-9.629,-0.244,-2.819,10.5,55.86,-13.44
24078.0,-9.347,-0.244,-2.615,-9.73,-1.208,-2.9,9.73,48.44,-6.02
,-9.782,-0.294,-2.249,-10.115,-0.57,-3.125,14.14,46.41,-6.09
,-9.84,-0.694,-2.515,-10.065,-0.057,-3.218,18.76,44.1,-6.09
,-9.727,-1.402,-2.57,-9.727,-0.036,-3.458,20.58,42.84,-6.44
24154.0,-9.66,-0.218,-3.506,-9.667,-0.507,-3.362,0.84,36.4,-5.53
,-9.928,-0.345,-3.307,-9.469,-0.05,-3.314,-2.24,34.09,-4.97
,-9.739,-0.498,-3.384,-9.464,0.486,-3.396,-0.77,32.27,-3.92
,-9.634,-0.648,-3.262,-9.615,0.452,-3.211,3.36,31.22,-3.36
24230.0,-9.732,0.402,-3.137,-9.713,-0.684,-2.156,7.28,27.58,-4.41
,-9.572,0.218,-2.941,-9.636,-0.976,-1.89,1.96,27.58,-4.9
,-9.667,0.014,-2.58,-9.624,-1.048,-1.804,-2.31,27.51,-5.04
,-9.718,-0.275,-2.283,-9.457,-0.969,-1.838,-5.18,26.95,-5.04
24306.0,-9.545,-0.68,-1.85,-9.409,0.067,-2.319,19.74,27.16,-2.66
,-9.517,-0.617,-1.886,-9.794,0.648,-2.611,20.93,27.09,-3.01
,-9.366,-0.428,-2.024,-9.689,0.687,-2.848,19.11,27.44,-3.36
,-9.318,-0.517,-2.218,-9.141,0.122,-3.051,19.04,27.86,-3.15
24382.0,-9.146,-0.103,-3.202,-9.526,0.105,-3.496,9.66,33.04,-2.94
,-9.663,-0.043,-3.264,-9.198,0.584,-3.577,12.46,33.46,-2.38
,-9.823,-0.127,-3.343,-8.892,0.605,-3.613,13.3,33.18,-1.82
,-9.777,-0.184,-3.386,-9.103,-0.084,-3.305,12.46,33.32,-1.96
24457.0,-9.49,-0.775,-3.039,-9.744,-0.699,-3.211,-3.08,36.4,-4.2
,-9.837,-1.144,-2.819,-8.935,-0.897,-3.314,-0.21,36.33,-3.15
,-9.77,-1.285,-3.013,-9.277,-0.897,-2.864,6.44,35.35,-2.59
,-9.438,-0.488,-3.185,-9.347,-0.56,-2.927,12.32,37.03,-2.1
24533.0,-9.844,-0.524,-2.783,-9.861,-0.369,-3.005,8.26,41.02,-2.52
,-9.88,-0.794,-2.694,-10.215,-0.254,-2.996,4.83,42.21,-2.31
,-9.818,-0.768,-2.946,-10.246,-0.235,-2.941,3.99,43.54,-1.61
,-9.608,-0.572,-2.967,-10.447,-0.27,-2.96,3.64,46.48,-0.7
24608.0,-10.433,-0.194,-2.996,-11.637,-2.096,-1.991,-9.87,59.36,2.8
,-10.524,-0.282,-2.759,-9.971,0.89,-2.175,-11.69,61.88,2.94
,-10.579,-1.45,-2.771,-10.048,1.505,-1.831,-15.82,64.75,3.64
,-12.204,-3.79,-1.737,-10.297,0.464,-1.742,-15.05,65.17,6.72
24684.0,-10.371,0.318,-1.45,-10.266,1.728,-1.259,-10.15,86.1,8.61
,-10.261,0.706,-1.472,-10.56,2.077,-1.041,-7.63,91.14,9.03
,-10.045,1.139,-1.536,-10.835,2.271,-0.471,-4.69,97.09,8.54
,-10.208,1.438,-1.407,-11.146,2.941,-0.208,-4.2,102.69,7.21
24760.0,-11.539,3.242,-0.474,-11.795,1.254,-3.618,-66.5,139.58,-8.75
,-12.022,2.912,-0.861,-10.943,0.256,-4.98,-88.27,145.88,-12.95
,-12.163,2.395,-1.78,-11.503,-0.955,-6.004,-107.17,149.31,-15.75
,-11.876,2.249,-3.044,-11.213,-1.835,-7.767,-121.38,151.97,-16.73
24836.0,-11.12,-2.075,-7.956,-8.923,-1.737,-9.002,-64.82,143.99,-5.39
,-11.543,-2.115,-7.442,-7.624,0.022,-11.06,-45.99,138.88,-3.92
,-11.455,-2.01,-7.188,-6.724,1.687,-11.73,-29.82,127.54,-1.19
,-10.275,-1.922,-7.971,-6.906,2.3,-10.553,-14.7,113.05,3.36
24911.0,-8.133,2.005,-8.095,-6.619,-1.551,-7.858,-44.45,60.76,0.77
,-8.981,0.845,-7.169,-5.351,-1.498,-8.871,-61.25,33.25,1.68
,-8.122,-0.148,-7.669,-4.527,-0.995,-9.098,-63.56,3.92,3.78
,-7.2,-0.979,-7.715,-4.592,-0.28,-8.715,-55.44,-18.62,6.51
24987.0,-4.822,0.347,-8.344,-4.295,-0.426,-8.227,15.4,-95.13,-7.21
,-5.023,0.656,-8.323,-4.515,-0.838,-7.844,14.91,-112.28,-6.23
,-5.083,0.517,-8.404,-4.489,-1.019,-8.004,8.33,-130.76,-5.74
,-4.381,0.129,-8.746,-4.477,-0.826,-8.107,1.82,-145.39,-5.53
25063.0,-4.468,-0.428,-8.485,-5.099,0.517,-8.198,44.45,-198.52,-14.0
,-4.489,0.029,-8.222,-5.449,0.139,-8.504,49.91,-206.36,-15.05
,-5.001,0.333,-7.775,-5.229,0.041,-8.873,52.15,-215.32,-15.33
,-5.123,0.584,-8.062,-5.81,-0.285,-8.428,52.99,-225.82,-15.33
25139.0,-6.049,-0.44,-8.313,-7.047,0.893,-7.471,43.47,-255.85,-23.73
,-6.411,-0.431,-7.562,-7.231,1.491,-7.32,45.5,-257.95,-23.87
,-6.726,0.129,-7.241,-7.885,2.388,-6.669,49.77,-260.75,-24.92
,-6.846,0.574,-7.322,-8.26,2.721,-6.042,52.22,-262.78,-28.14
25215.0,-8.643,2.19,-4.776,-10.313,-1.117,-2.529,11.48,-244.86,-37.52
,-9.141,1.608,-4.226,-10.354,-1.575,-1.697,-1.05,-235.9,-37.1
,-9.536,0.625,-3.776,-10.072,-1.68,-0.558,-8.61,-226.03,-34.93
,-10.043,-0.369,-3.197,-9.198,-0.96,-0.165,-7.98,-216.16,-31.29
25290.0,-8.701,0.187,0.177,-7.212,1.685,-0.826,88.41,-128.8,-2.45
,-8.339,1.189,0.266,-7.066,1.441,-0.888,100.73,-105.0,-0.63
,-7.916,1.845,-0.141,-7.318,1.12,-1.086,103.18,-82.11,0.98
,-7.499,1.902,-0.603,-7.274,0.627,-1.496,96.88,-58.52,2.31
25366.0,-7.98,-0.105,-1.706,-19.385,4.602,3.877,54.18,57.75,4.34
,-8.418,0.081,-2.417,-17.892,-0.014,1.017,57.12,72.17,3.5
,-9.962,1.859,-1.768,-9.742,-1.316,-1.479,60.34,83.09,-1.05
,-15.31,6.698,2.871,-8.342,1.084,-0.294,53.76,77.98,-14.07
25441.0,-9.055,2.19,-1.505,-10.275,-0.436,-2.599,61.46,75.32,1.47
,-7.334,0.541,-3.185,-10.828,-0.38,-3.881,52.08,69.09,-0.28
,-6.114,-1.077,-2.994,-9.854,0.249,-4.757,42.7,75.11,-3.78
,-7.447,-0.905,-1.701,-9.064,0.187,-4.503,41.72,84.28,-6.23
25517.0,-9.462,-0.742,-4.164,-9.933,0.239,-2.967,16.24,88.13,-10.43
,-9.801,-0.761,-4.221,-9.608,-0.069,-2.697,6.58,81.34,-9.8
,-9.933,-0.139,-3.922,-9.617,0.096,-3.037,3.5,76.37,-9.45
,-10.211,0.258,-3.429,-9.751,-0.735,-3.628,0.7,73.22,-12.25
25593.0,-9.842,-2.558,-3.187,-9.641,0.634,-2.984,-7.84,53.83,-2.03
,-9.885,-3.185,-2.611,-10.38,1.448,-2.692,18.34,51.59,2.8
,-9.567,-2.467,-2.752,-10.084,0.72,-2.804,47.74,48.93,4.27
,-9.308,-1.01,-2.86,-9.545,-0.39,-2.46,64.89,47.88,2.03
25669.0,-9.763,-0.689,-1.967,-9.509,-0.89,-2.809,3.85,39.97,-3.64
,-10.084,-1.184,-1.95,-9.564,0.136,-3.273,3.15,37.52,-3.5
,-9.653,-1.589,-2.302,-9.45,1.125,-3.479,9.03,36.19,-1.89
,-9.49,-1.479,-2.522,-9.756,1.515,-3.288,19.67,36.61,-0.49
25744.0,-9.825,1.125,-3.285,-9.363,-0.318,-2.682,16.73,31.22,-1.54
,-9.438,0.266,-3.178,-9.433,0.163,-2.575,9.03,29.68,-1.82
,-9.445,-0.505,-2.855,-9.596,0.33,-2.503,8.05,29.26,-2.1
,-9.505,-0.696,-2.718,-9.557,0.244,-2.498,13.02,28.7,-2.24
25820.0,-9.428,0.077,-2.438,-9.483,0.105,-2.364,12.04,30.66,-3.64
,-9.215,0.294,-2.718,-9.562,-0.302,-2.295,12.53,31.08,-4.48
,-9.239,0.407,-2.718,-9.72,-0.672,-2.089,11.76,32.13,-5.25
,-9.459,0.433,-2.548,-9.342,-0.816,-2.422,10.36,33.25,-5.32
25896.0,-9.213,-0.622,-2.486,-9.392,-0.29,-3.187,18.06,36.19,-5.74
,-9.454,-0.558,-2.625,-9.349,-0.459,-3.489,18.69,37.03,-5.88
,-9.529,-0.404,-2.821,-9.337,-0.816,-3.671,18.83,37.87,-5.67
,-9.55,-0.333,-2.876,-9.507,-1.077,-3.944,18.13,38.5,-5.39
25972.0,-9.725,-0.974,-4.003,-9.715,-0.223,-3.53,13.37,38.64,-2.45
,-9.49,0.024,-4.238,-9.663,-0.33,-3.032,10.92,39.48,-1.47
,-9.287,0.871,-4.35,-9.765,-0.608,-2.548,3.08,40.46,-2.38
,-9.507,0.345,-3.97,-9.921,-0.586,-2.276,-6.44,40.46,-4.55
26047.0,-10.093,-0.505,-2.228,-10.141,0.153,-3.484,-15.12,46.62,-4.69
,-10.105,-0.352,-2.314,-10.187,0.517,-3.609,-13.3,48.86,-3.5
,-10.093,-0.189,-2.685,-11.129,-0.273,-3.061,-12.95,52.22,-2.52
,-10.177,-0.074,-3.144,-10.77,-2.139,-3.001,-14.63,55.72,-1.75
26123.0,-10.45,-2.953,-2.627,-9.474,2.596,-2.271,-30.87,64.4,3.43
,-10.919,-3.8,-2.362,-10.349,1.51,-1.651,-23.1,67.97,5.11
,-12.388,-3.592,-1.855,-10.881,0.235,-1.137,-11.9,67.9,8.33
,-10.479,0.261,-2.187,-10.596,-0.144,-0.756,-1.12,73.64,10.57
26199.0,-10.354,0.081,-0.581,-10.708,2.635,-0.804,-25.27,96.74,9.52
,-10.22,0.395,-0.804,-11.362,3.463,-0.567,-15.19,102.55,9.31
,-10.467,0.983,-0.838,-11.759,3.144,0.151,-10.99,109.06,7.98
,-10.703,1.699,-0.926,-11.948,2.881,-0.242,-12.25,115.78,5.39
26274.0,-11.948,2.065,-0.622,-11.251,-1.85,-5.497,-105.49,153.51,-18.76
,-11.941,1.417,-1.412,-11.498,-2.919,-7.308,-119.49,157.85,-20.79
,-12.022,1.213,-3.149,-11.369,-2.178,-7.873,-125.86,157.01,-19.95
,-11.043,0.333,-4.424,-11.634,-1.773,-7.722,-122.99,155.89,-17.78
26350.0,-11.105,-1.299,-7.909,-7.344,2.123,-10.572,-13.09,131.88,-15.26
,-9.526,-0.933,-8.806,-7.559,2.589,-9.971,-8.82,119.0,-11.06
,-7.99,-0.371,-9.675,-8.332,2.477,-8.804,-9.45,112.28,-7.56
,-7.688,1.007,-10.419,-8.631,2.132,-8.351,-11.9,104.72,-7.91
26426.0,-7.784,1.18,-7.906,-4.587,0.208,-8.516,-74.69,20.65,-11.62
,-6.76,0.723,-7.976,-4.286,0.369,-8.327,-68.53,-0.35,-8.4
,-6.037,0.244,-7.643,-4.465,0.931,-8.222,-54.25,-19.04,-9.52
,-5.374,0.148,-8.038,-4.597,1.472,-8.275,-37.73,-37.66,-16.03
26502.0,-4.738,1.639,-8.222,-4.281,1.766,-8.306,7.21,-111.65,-30.52
,-4.764,1.302,-8.16,-3.865,2.178,-8.445,5.95,-126.63,-31.36
,-4.776,1.213,-7.664,-4.183,2.766,-8.239,8.54,-141.47,-33.67
,-4.834,1.316,-7.569,-4.585,3.099,-8.208,16.31,-158.13,-36.05
26577.0,-4.925,3.166,-8.136,-5.793,0.45,-7.241,14.07,-213.92,-21.56
,-5.664,2.8,-7.528,-5.724,0.61,-8.772,4.41,-225.19,-17.85
,-5.69,2.151,-7.856,-5.836,0.5,-8.189,-3.92,-238.35,-16.31
,-5.547,1.261,-7.758,-6.949,0.163,-7.411,-6.44,-247.52,-17.15
26653.0,-6.877,0.469,-7.983,-8.181,1.711,-7.334,41.37,-275.73,-17.71
,-6.344,1.113,-7.99,-7.801,1.766,-6.829,47.53,-273.7,-14.42
,-6.71,1.417,-7.341,-8.014,1.467,-5.532,48.93,-269.92,-12.88
,-7.416,1.752,-7.31,-8.344,1.445,-4.322,48.65,-268.24,-11.55
26729.0,-8.581,1.541,-4.025,-9.086,0.153,-1.919,23.45,-233.17,-7.0
,-9.091,1.273,-3.242,-8.885,0.179,-1.39,17.85,-218.61,-6.65
,-9.349,1.024,-3.017,-8.634,0.407,-1.201,12.81,-203.28,-7.0
,-9.201,0.57,-2.407,-8.361,0.522,-0.627,9.73,-185.5,-7.14
26805.0,-8.174,0.732,-0.235,-7.289,-0.938,-0.031,12.81,-85.05,-3.5
,-7.739,0.416,-0.151,-7.499,-1.29,-0.27,9.31,-64.19,-3.5
,-7.624,-0.182,0.141,-7.66,-1.414,-0.883,6.65,-41.44,-3.85
,-7.664,-0.541,0.031,-8.995,-0.321,0.038,8.05,-18.83,-4.27
26880.0,-14.03,3.953,3.135,-8.899,2.809,1.053,51.52,54.88,-18.34
,-16.724,3.853,3.709,-11.385,3.305,-0.641,43.82,60.9,-19.53
,-16.119,1.108,1.859,-8.921,1.307,-2.996,39.34,73.57,-3.85
,-10.443,0.876,-0.096,-9.887,0.215,-4.061,50.12,90.44,3.99
26956.0,-8.382,-1.096,-4.793,-8.581,-0.873,-5.183,35.42,99.54,-8.82
,-8.469,-3.068,-4.752,-9.263,0.512,-5.291,30.1,101.22,-6.02
,-7.983,-3.805,-5.475,-9.742,0.907,-4.937,39.2,99.75,-3.29
,-8.433,-2.929,-5.343,-10.199,2.01,-4.877,54.95,94.99,-1.61
27031.0,-9.914,2.95,-4.86,-9.816,-1.041,-2.34,21.77,69.65,-6.93
,-10.074,2.453,-4.015,-9.284,-1.89,-2.371,4.41,66.92,-10.78
,-10.201,0.905,-3.063,-9.119,-2.247,-2.453,-9.52,61.32,-15.26
,-9.868,-0.316,-2.484,-9.11,-2.077,-2.302,-16.1,55.72,-16.45
27107.0,-9.323,-1.302,-2.417,-10.256,0.464,-2.776,60.76,48.23,-1.4
,-9.545,-0.002,-2.716,-9.883,-0.254,-2.699,67.2,46.97,-2.94
,-9.959,1.184,-2.838,-9.615,-0.38,-2.603,57.89,45.57,-5.11
,-10.254,1.35,-2.97,-9.682,-0.498,-2.632,38.64,43.4,-6.37
27183.0,-9.77,-0.909,-2.714,-9.462,0.177,-4.578,-1.61,36.19,-7.56
,-9.679,-1.158,-3.135,-9.576,1.24,-4.678,4.06,35.07,-4.76
,-9.706,-1.232,-3.568,-9.536,2.01,-4.805,12.67,33.81,-3.01
,-9.586,-0.852,-4.066,-9.5,1.493,-4.353,21.91,32.27,-2.94
27259.0,-9.454,0.536,-3.905,-9.593,-0.821,-2.871,-15.68,26.11,-5.74
,-9.696,-0.644,-3.415,-9.454,0.084,-3.056,-19.95,24.43,-5.46
,-9.813,-1.426,-3.08,-9.572,0.632,-3.08,-14.91,23.52,-4.62
,-9.844,-1.586,-2.639,-9.753,0.321,-2.797,-5.11,23.73,-3.71
27335.0,-9.617,-0.385,-2.788,-9.423,0.613,-2.766,-2.03,20.58,-4.83
,-9.304,-0.83,-2.649,-9.471,0.768,-2.938,0.14,20.86,-5.18
,-9.356,-0.639,-2.379,-9.38,0.744,-3.352,5.25,21.7,-5.46
,-9.356,-0.06,-2.582,-9.277,0.452,-3.216,8.47,22.26,-5.95
27410.0,-9.6,-0.558,-2.649,-9.485,-1.713,-2.07,-0.56,25.69,-8.96
,-9.969,-1.431,-2.127,-9.265,-1.328,-2.45,-1.19,26.88,-6.93
,-10.127,-2.077,-1.697,-9.208,-0.988,-2.644,0.56,27.79,-3.85
,-9.732,-1.984,-1.716,-9.215,-0.361,-2.931,2.66,29.33,-1.82
27486.0,-9.648,-0.057,-2.876,-9.703,-1.108,-1.981,-11.06,35.91,0.07
,-9.593,0.538,-3.111,-9.462,-0.747,-1.924,-11.13,36.19,-0.21
,-9.722,0.223,-2.479,-9.689,-0.579,-1.594,-14.28,36.4,-1.33
,-9.689,-0.486,-2.326,-9.744,-0.668,-1.577,-15.12,37.31,-2.45
27562.0,-9.804,-0.641,-1.723,-10.366,-0.038,-2.893,-1.82,47.95,-1.4
,-9.684,-0.337,-2.194,-10.495,-0.474,-2.943,0.28,50.75,0.49
,-9.864,-0.06,-2.513,-10.883,-1.323,-3.137,2.45,53.62,2.31
,-10.014,-0.045,-2.838,-12.319,-4.271,-1.905,2.94,56.21,3.57
27638.0,-12.185,-2.015,-2.371,-10.938,1.151,-0.761,5.67,67.76,13.09
,-10.29,0.94,-2.558,-10.304,1.871,-0.768,11.83,75.46,14.0
,-10.701,1.199,-1.902,-10.263,1.362,-0.617,3.71,80.99,10.99
,-11.146,0.526,-1.271,-10.711,0.706,-0.373,-9.1,84.21,9.24
27713.0,-10.751,0.881,-0.555,-10.498,3.221,-0.756,-17.08,109.76,8.75
,-10.426,1.376,-0.735,-10.986,3.465,-0.938,-12.6,116.06,8.75
,-10.146,2.008,-1.39,-11.347,3.063,-1.156,-8.68,122.85,6.65
,-9.849,2.503,-1.316,-11.426,2.225,-1.859,-12.88,132.02,2.73
27789.0,-11.519,1.259,-2.742,-10.428,-0.397,-8.677,-101.85,154.42,-14.77
,-10.694,0.859,-4.738,-10.28,-0.038,-8.629,-101.99,152.6,-13.37
,-10.067,0.342,-6.432,-10.761,-0.699,-7.557,-92.26,153.86,-11.34
,-10.256,-0.452,-7.751,-10.395,-0.871,-7.547,-76.44,152.39,-10.57
27864.0,-8.851,-0.936,-8.44,-6.176,2.711,-9.837,-42.7,105.14,-9.17
,-7.353,-0.969,-9.15,-7.753,3.206,-8.15,-36.96,90.09,-7.42
,-5.973,0.103,-10.761,-8.39,2.606,-7.322,-28.56,80.36,-9.31
,-5.595,1.622,-11.256,-7.94,1.433,-7.657,-28.21,75.46,-13.58
27940.0,-6.435,0.419,-8.26,-4.659,0.476,-7.731,-92.75,-21.28,-13.09
,-5.657,-0.39,-7.877,-4.972,1.077,-7.619,-79.45,-36.54,-9.73
,-5.025,-0.787,-7.827,-5.135,0.849,-7.741,-57.47,-50.61,-11.55
,-4.413,-0.471,-8.205,-5.193,0.342,-7.607,-28.63,-62.3,-15.68
28016.0,-4.956,-0.144,-7.602,-5.09,1.395,-8.055,6.37,-143.01,-16.17
,-4.788,-0.388,-7.731,-5.695,3.001,-8.406,20.58,-156.45,-17.71
,-4.298,-0.218,-8.076,-5.997,4.02,-8.375,36.68,-168.42,-18.55
,-4.312,0.5,-8.27,-5.944,3.831,-8.547,50.05,-178.22,-18.69
28092.0,-5.812,2.637,-8.009,-7.21,-0.713,-7.212,-1.82,-222.53,-10.08
,-5.817,1.316,-8.189,-7.416,-0.309,-6.908,-9.94,-228.55,-10.01
,-6.334,0.026,-7.952,-7.99,0.28,-6.671,-6.16,-232.33,-10.78
,-6.65,-0.656,-7.856,-7.839,1.273,-7.193,6.09,-233.66,-11.76
28168.0,-8.555,2.137,-6.157,-8.768,2.075,-5.274,70.21,-230.58,-1.54
,-9.136,2.46,-6.19,-9.012,1.754,-4.838,62.02,-227.43,1.47
,-8.832,2.28,-5.913,-8.892,1.285,-4.805,52.08,-221.41,1.68
,-8.763,2.187,-5.796,-8.641,1.165,-4.499,45.92,-210.84,0.84
28243.0,-8.684,1.263,-4.056,-8.942,1.108,-3.183,27.37,-158.83,-3.36
,-8.545,1.407,-4.185,-8.679,1.278,-3.283,26.04,-148.89,-2.38
,-8.241,1.4,-3.932,-8.363,1.323,-2.996,23.66,-137.06,-1.61
,-8.394,1.24,-3.384,-8.327,1.381,-2.984,20.37,-124.46,-1.89
28319.0,-8.478,1.333,-2.809,-7.691,0.206,-2.099,15.19,-70.77,-4.06
,-8.61,1.144,-2.699,-7.425,0.06,-2.142,10.64,-61.32,-4.83
,-8.279,0.818,-2.4,-7.303,0.098,-2.23,8.05,-51.03,-5.46
,-7.944,0.581,-2.249,-7.473,0.182,-2.266,8.96,-39.27,-5.46
28395.0,-7.368,0.321,-2.446,-14.841,5.841,3.975,23.24,16.52,-6.3
,-7.193,0.455,-2.182,-17.875,3.788,3.226,24.29,26.95,-6.58
,-7.779,0.821,-1.855,-12.328,2.931,0.067,25.69,35.84,-7.7
,-10.256,2.898,0.481,-9.629,4.188,-0.337,28.14,39.97,-11.41
28471.0,-11.395,4.702,0.529,-8.409,-0.62,-3.357,3.64,64.05,-9.66
,-11.742,1.639,0.11,-10.266,0.38,-3.084,-13.44,49.98,-8.47
,-9.497,-1.347,-1.677,-9.785,0.445,-2.982,-17.22,45.15,-7.42
,-7.329,-2.211,-2.888,-9.416,-0.292,-2.51,-3.08,59.5,-10.71
28546.0,-9.78,-1.247,-2.788,-10.83,0.232,-1.929,-18.62,71.68,-11.41
,-9.457,-2.134,-3.307,-11.113,-0.684,-1.261,-11.06,66.22,-9.59
,-8.885,-1.596,-3.632,-10.05,-1.23,-1.438,-2.66,63.49,-7.07
,-9.476,-0.285,-2.965,-9.32,-1.05,-1.467,-1.54,62.09,-7.21
28622.0,-9.574,-0.778,-1.665,-9.78,0.108,-2.261,13.44,48.23,-6.23
,-9.773,-1.007,-1.855,-10.026,0.864,-2.469,20.37,46.69,-1.96
,-9.55,-1.161,-1.996,-9.526,1.472,-2.917,30.1,45.5,1.05
,-9.402,-0.773,-2.075,-9.265,1.443,-2.879,40.25,44.52,1.12
28697.0,-9.797,1.271,-2.757,-9.648,-2.041,-2.292,15.61,38.5,-5.67
,-10.294,0.254,-2.316,-9.897,-1.761,-2.467,5.95,34.93,-5.53
,-10.189,-1.228,-2.388,-9.634,-0.514,-3.046,3.29,29.68,-5.04
,-9.5,-2.185,-2.563,-9.703,0.94,-3.412,7.91,27.72,-4.76
28773.0,-9.73,1.196,-3.412,-9.61,-0.814,-3.123,35.84,24.78,-3.08
,-9.844,0.94,-3.285,-9.758,-0.421,-3.192,23.8,22.96,-2.66
,-10.055,0.117,-3.211,-9.835,0.292,-3.252,16.03,19.53,-1.96
,-9.624,-0.739,-3.302,-10.179,-0.034,-3.405,14.98,18.41,-2.03
28849.0,-9.471,-0.589,-3.553,-9.83,0.275,-2.723,27.3,9.31,-1.4
,-9.495,-0.486,-3.247,-9.665,0.127,-2.912,27.37,9.24,-0.7
,-9.088,-0.335,-3.061,-9.526,-0.048,-2.986,29.47,8.82,-0.7
,-9.531,0.024,-2.757,-9.313,0.292,-3.235,30.66,8.96,-0.7
28925.0,-9.33,0.701,-3.084,-9.485,0.141,-1.843,27.65,9.73,-1.05
,-9.445,0.938,-2.761,-9.478,-0.031,-1.673,20.86,10.5,-1.68
,-9.488,0.706,-2.345,-9.694,-0.022,-1.713,12.25,11.06,-2.1
,-9.653,0.421,-2.187,-9.866,-0.163,-1.756,6.23,11.41,-2.31
29000.0,-9.521,-0.306,-2.0,-9.519,-0.555,-2.276,-0.91,16.03,-1.47
,-9.464,-0.244,-2.13,-9.337,-0.639,-2.314,-0.91,17.22,-1.4
,-9.428,-0.065,-2.252,-9.428,-0.189,-2.386,-2.73,18.69,-1.4
,-9.751,-0.404,-2.075,-9.608,0.414,-2.393,-5.74,19.25,-1.33
29076.0,-9.399,0.225,-2.446,-9.61,-0.086,-2.74,-5.11,20.51,-0.98
,-9.536,-0.23,-2.276,-9.713,0.098,-3.101,-8.05,20.65,-0.7
,-9.574,-0.349,-2.34,-9.45,-0.328,-3.592,-7.28,20.72,0.07
,-9.294,-0.268,-2.496,-9.177,-0.144,-3.994,-6.37,22.61,0.14
29152.0,-9.261,0.05,-3.989,-9.562,-0.237,-3.482,-16.1,20.44,-0.56
,-9.457,0.127,-3.867,-9.514,-0.089,-3.702,-18.69,20.65,-0.28
,-9.526,0.141,-3.867,-9.308,-0.215,-3.668,-21.63,20.51,-0.07
,-9.368,0.036,-3.752,-9.464,0.074,-3.924,-24.99,20.93,0.14
29228.0,-9.335,0.062,-4.128,-9.308,-0.814,-4.161,-38.57,21.0,0.63
,-9.318,0.17,-4.14,-9.048,-0.538,-4.336,-43.89,21.7,0.77
,-9.682,-0.11,-3.958,-9.397,-0.385,-4.046,-48.86,20.16,0.77
,-9.478,-0.787,-4.025,-9.591,-0.306,-4.281,-52.22,18.55,1.4
29304.0,-9.49,-0.191,-4.401,-9.308,0.546,-4.271,-58.38,17.78,3.85
,-9.16,0.108,-4.628,-9.447,0.689,-4.08,-61.39,18.06,3.92
,-9.124,0.471,-4.604,-9.686,0.565,-3.795,-65.38,18.9,3.78
,-9.22,0.51,-4.472,-9.89,0.098,-3.465,-70.42,19.53,4.2
29379.0,-9.897,-0.361,-3.242,-9.526,0.041,-4.066,-84.07,23.03,8.33
,-9.753,-0.263,-3.434,-9.713,-0.134,-4.231,-79.52,23.52,9.24
,-9.562,0.132,-3.671,-9.61,0.333,-4.547,-76.93,25.06,9.38
,-9.514,0.275,-3.783,-9.426,0.979,-4.762,-79.1,26.25,8.75
29455.0,-9.552,1.484,-5.116,-9.66,1.912,-5.836,-91.35,22.4,6.37
,-10.136,1.192,-5.039,-9.253,2.436,-5.894,-96.46,19.67,5.88
,-10.409,0.864,-5.403,-9.079,2.173,-5.786,-97.72,14.84,6.3
,-10.182,1.192,-5.698,-9.143,1.441,-5.709,-94.43,11.62,6.79
29530.0,-9.083,1.003,-5.619,-9.189,1.622,-5.458,-108.43,-0.98,4.34
,-9.021,1.086,-5.614,-9.43,0.962,-4.826,-106.33,-3.92,2.66
,-8.983,1.452,-5.645,-9.531,0.256,-4.834,-105.07,-5.6,-0.28
,-9.148,1.639,-5.377,-8.926,-0.23,-4.575,-107.1,-7.35,-3.85
29606.0,-8.488,0.251,-4.695,-7.418,2.714,-5.432,-124.88,-31.71,-25.2
,-8.186,1.199,-4.743,-7.59,1.697,-5.422,-128.8,-30.52,-30.52
,-7.688,2.115,-5.159,-7.633,0.505,-5.353,-140.35,-27.58,-36.47
,-7.485,2.8,-5.317,-7.808,-0.22,-5.188,-161.91,-22.82,-42.91
29682.0,-8.145,-0.357,-4.956,-7.787,0.993,-4.704,-262.36,-3.78,-77.7
,-8.002,-0.436,-4.654,-7.834,1.804,-4.736,-268.52,-2.1,-82.88
,-8.04,-0.61,-4.451,-7.844,2.113,-4.731,-274.82,-0.7,-86.73
,-7.976,-0.146,-4.365,-7.992,2.199,-4.704,-278.46,-0.07,-88.2
29758.0,-8.076,1.866,-4.365,-8.708,-1.692,-3.077,-318.08,13.37,-90.16
,-8.72,1.141,-3.654,-8.777,-2.044,-2.656,-325.5,15.61,-89.53
,-9.304,0.254,-3.494,-9.074,-1.572,-2.285,-323.33,13.37,-87.78
,-8.827,-0.708,-3.565,-9.268,-0.864,-1.68,-313.88,12.32,-84.77
29833.0,-9.194,0.177,-1.436,-9.043,2.587,-1.113,-212.17,23.66,-57.89
,-8.902,0.842,-1.402,-9.488,2.498,-0.931,-195.79,26.95,-54.53
,-8.775,1.237,-1.275,-10.055,2.008,-1.158,-185.01,29.89,-52.43
,-8.823,1.96,-1.182,-10.091,1.29,-1.151,-177.03,33.39,-51.03
29909.0,-10.021,0.713,-1.077,-10.141,0.782,-1.17,-184.66,53.76,-40.11
,-10.069,0.397,-1.017,-10.218,0.778,-1.094,-176.96,56.63,-36.68
,-10.048,0.519,-0.993,-10.28,0.725,-1.034,-166.32,58.73,-33.18
,-10.093,0.78,-1.22,-10.491,0.495,-0.778,-155.96,60.55,-29.96
29984.0,-10.605,0.57,-1.003,-10.146,1.704,-1.943,-119.07,51.17,-14.98
,-10.447,0.799,-1.199,-9.892,1.914,-2.158,-109.9,47.11,-13.02
,-10.392,1.086,-1.335,-9.876,2.008,-2.352,-101.57,42.98,-12.32
,-10.282,1.4,-1.586,-9.732,2.058,-2.544,-96.32,38.5,-11.83
30060.0,-9.77,1.732,-2.412,-9.646,0.093,-1.821,-112.42,13.3,-14.21
,-9.751,1.335,-2.204,-9.663,0.117,-1.67,-118.58,8.12,-14.63
,-9.737,0.814,-2.051,-9.737,0.139,-1.4,-123.76,3.01,-14.56
,-9.658,0.299,-1.953,-9.797,0.081,-1.407,-123.97,-0.84,-14.28
30136.0,-9.667,-0.057,-1.347,-9.517,-0.23,-1.555,-119.77,-13.37,-16.73
,-9.646,-0.179,-1.328,-9.299,-0.156,-1.598,-118.93,-15.68,-17.5
,-9.567,-0.287,-1.426,-9.256,-0.151,-1.527,-116.76,-18.13,-18.41
,-9.567,-0.335,-1.529,-9.313,-0.127,-1.653,-114.17,-20.58,-19.6
30212.0,-9.234,-0.215,-1.881,-9.383,-0.84,-1.761,-110.81,-26.25,-27.23
,-9.301,-0.266,-1.878,-9.363,-1.022,-1.737,-111.51,-26.74,-28.84
,-9.332,-0.409,-1.914,-9.49,-1.086,-1.534,-112.56,-27.16,-30.45
,-9.344,-0.562,-1.924,-9.385,-1.17,-1.414,-113.68,-26.88,-31.92
30288.0,-9.241,-1.18,-1.388,-9.119,-1.498,-0.438,-103.53,-20.51,-30.94
,-9.134,-1.144,-1.204,-8.882,-1.728,-0.266,-98.91,-17.78,-29.75
,-9.191,-1.115,-0.979,-8.94,-1.969,0.242,-94.78,-15.19,-28.56
,-9.27,-1.302,-0.577,-9.316,-1.977,0.57,-89.39,-12.6,-27.16
30363.0,-9.399,-1.699,1.027,-13.068,-0.11,1.259,-26.04,2.24,-15.89
,-9.998,-1.003,2.58,-12.194,0.05,0.778,-4.06,7.7,-12.81
,-11.211,0.048,3.546,-11.433,0.514,0.967,19.46,15.33,-9.73
,-12.474,0.182,2.635,-10.605,1.07,0.191,42.0,26.6,-5.81
30439.0,-9.337,1.115,-0.9,-8.421,1.194,-5.262,90.72,28.56,5.11
,-8.239,1.484,-2.764,-8.579,1.216,-5.681,93.1,30.17,0.7
,-8.227,2.206,-3.731,-9.294,2.58,-5.879,87.15,38.29,-4.41
,-8.607,1.634,-4.255,-10.273,3.549,-5.252,66.92,42.49,-9.1
30515.0,-10.12,3.321,-4.917,-9.572,-1.024,-3.034,-22.33,37.8,-18.48
,-9.727,2.376,-4.58,-9.579,-1.479,-2.955,-33.46,32.27,-19.67
,-9.909,1.335,-4.377,-9.342,-1.117,-3.429,-35.98,27.37,-20.09
,-9.777,0.146,-3.879,-8.99,0.0,-4.061,-30.73,24.78,-19.39
30591.0,-9.086,1.462,-4.068,-9.986,-1.51,-1.577,45.22,17.08,-21.07
,-9.938,2.371,-3.285,-9.083,-2.228,-1.73,27.09,17.15,-21.98
,-10.352,1.78,-2.692,-8.985,-1.661,-1.505,3.57,12.88,-21.56
,-10.041,0.012,-2.07,-9.251,-0.392,-1.905,-12.53,9.31,-21.56
30666.0,-9.399,0.57,-2.06,-9.672,-1.07,-2.469,38.78,14.07,-19.81
,-9.677,0.991,-2.414,-9.696,-1.572,-2.572,34.02,14.56,-19.88
,-9.636,0.433,-2.417,-9.859,-1.508,-2.534,22.12,14.98,-19.88
,-9.593,-0.38,-2.402,-9.859,-1.718,-2.558,10.64,15.19,-19.74
30742.0,-9.684,-1.85,-2.484,-9.471,-0.56,-3.616,-0.98,17.08,-14.63
,-9.895,-1.91,-2.883,-9.529,-0.179,-3.597,5.18,15.19,-13.16
,-9.552,-1.598,-3.183,-9.624,-0.122,-3.678,10.64,15.12,-12.04
,-9.634,-1.158,-3.489,-9.655,-0.287,-3.644,14.63,14.21,-11.27
30817.0,-9.713,-0.727,-3.396,-9.474,-0.467,-2.955,-0.35,11.97,-8.47
,-9.493,-0.96,-3.408,-9.404,-0.538,-2.881,0.28,11.27,-7.91
,-9.483,-0.857,-3.221,-9.426,-0.467,-2.919,2.52,11.48,-7.49
,-9.519,-0.687,-2.986,-9.368,-0.357,-2.888,5.04,11.27,-6.93
30893.0,-9.256,-0.275,-2.845,-9.447,-0.763,-2.659,4.9,12.53,-6.44
,-9.356,-0.318,-2.797,-9.433,-0.864,-2.697,2.31,13.51,-6.37
,-9.557,-0.412,-2.733,-9.445,-0.751,-2.793,0.07,13.79,-6.16
,-9.512,-0.723,-2.654,-9.533,-0.684,-2.95,-0.56,14.42,-5.95
30969.0,-9.356,-0.313,-3.149,-9.6,-0.907,-2.747,4.83,16.1,-5.95
,-9.069,0.278,-3.374,-9.442,-1.285,-2.776,2.87,17.36,-6.58
,-9.155,0.261,-3.36,-9.485,-1.039,-2.915,-2.45,18.48,-7.35
,-9.507,-0.168,-3.013,-9.514,-0.785,-3.072,-8.89,18.69,-7.42
31045.0,-9.356,-0.263,-3.362,-9.624,-0.876,-3.096,-4.06,20.65,-7.28
,-9.191,-0.232,-3.46,-9.268,-1.029,-3.056,-6.93,22.05,-7.56
,-9.466,-0.06,-3.486,-9.086,-1.151,-3.235,-9.17,23.31,-7.84
,-9.538,-0.428,-3.154,-9.103,-1.414,-3.364,-11.9,23.66,-7.98
31121.0,-9.402,-1.067,-3.376,-9.639,-0.579,-3.408,-3.5,26.81,-8.75
,-9.306,-0.962,-3.257,-9.837,-0.598,-3.46,-5.74,27.72,-9.59
,-9.497,-0.589,-3.374,-10.12,-0.589,-3.343,-8.82,28.91,-10.64
,-9.545,-0.55,-3.345,-10.146,-0.433,-3.288,-14.42,30.1,-11.9
31196.0,-10.086,-0.101,-3.092,-9.806,-0.634,-3.132,-27.09,37.17,-10.22
,-10.105,-0.055,-3.005,-9.763,-0.38,-3.104,-28.35,38.99,-9.52
,-10.134,-0.412,-2.91,-9.598,-0.261,-3.202,-29.68,40.25,-8.82
,-10.012,-0.718,-2.9,-9.617,-0.593,-3.226,-28.91,41.79,-8.26
31272.0,-10.0,-2.268,-2.974,-9.598,1.127,-2.704,-35.14,52.5,-7.0
,-11.235,-4.317,-1.874,-10.199,0.089,-2.261,-32.06,52.5,-3.92
,-10.584,-1.886,-2.477,-9.885,-0.232,-2.101,-14.91,54.6,-0.63
,-9.162,1.089,-2.927,-9.404,0.11,-2.101,-3.01,61.32,-2.03
31348.0,-9.457,0.189,-2.182,-10.232,1.857,-2.568,-26.11,77.63,-8.89
,-9.931,0.306,-2.151,-10.414,2.228,-2.496,-25.13,81.9,-10.22
,-10.163,0.601,-2.099,-10.562,2.218,-2.381,-26.67,85.68,-11.41
,-10.249,1.338,-2.508,-10.318,2.587,-2.539,-29.12,90.09,-13.3
31424.0,-10.512,2.781,-2.254,-10.534,1.902,-4.97,-82.67,118.02,-30.45
,-10.78,2.668,-2.594,-10.651,0.864,-5.221,-99.26,122.29,-33.53
,-10.912,2.797,-3.398,-10.814,0.534,-5.944,-114.1,125.09,-35.21
,-10.55,2.647,-4.027,-10.397,-1.089,-6.198,-126.98,128.38,-35.91
31499.0,-9.56,-1.45,-6.245,-8.342,-1.208,-7.44,-107.24,131.88,-28.35
,-9.586,-0.605,-6.509,-7.468,-1.046,-8.739,-90.58,129.22,-29.05
,-9.878,-0.62,-6.006,-6.971,0.931,-10.184,-81.48,122.01,-28.7
,-9.519,-0.962,-6.262,-6.973,2.479,-10.0,-72.17,109.55,-27.44
31575.0,-7.291,3.419,-9.225,-7.463,0.806,-7.456,-45.57,76.51,-36.33
,-7.473,3.352,-8.394,-7.109,0.522,-7.53,-63.7,61.88,-36.96
,-7.937,2.431,-7.375,-6.994,0.134,-7.645,-79.52,43.4,-35.84
,-7.983,1.199,-6.868,-6.674,-0.232,-7.806,-88.9,22.89,-32.27
31650.0,-6.308,-0.436,-7.851,-5.073,0.675,-8.217,-27.3,-49.84,-24.71
,-5.949,-0.414,-7.961,-5.073,0.909,-8.44,-13.93,-65.52,-27.23
,-5.142,-0.129,-8.406,-5.202,1.139,-8.622,-2.38,-79.66,-27.86
,-4.841,0.373,-8.327,-5.698,1.29,-7.88,6.93,-91.49,-26.67
31726.0,-6.078,1.524,-7.703,-5.882,2.402,-8.055,11.34,-152.88,-24.29
,-6.078,1.936,-7.341,-6.095,2.278,-7.523,11.97,-164.15,-23.38
,-6.231,2.103,-7.361,-6.7,1.936,-7.004,11.06,-176.33,-22.47
,-6.004,2.084,-7.715,-7.234,1.653,-6.75,6.44,-186.55,-22.54
31802.0,-7.198,0.89,-6.743,-7.128,-1.07,-6.829,-33.74,-224.28,-27.09
,-6.49,0.031,-7.157,-6.968,-0.304,-6.502,-31.15,-230.02,-27.72
,-6.755,-0.787,-6.791,-6.994,1.017,-6.557,-19.32,-233.52,-28.49
,-7.14,-1.165,-6.777,-7.361,1.732,-6.49,-0.63,-237.02,-28.84
31878.0,-7.648,1.888,-6.793,-8.447,0.682,-3.86,42.7,-238.28,-10.15
,-8.404,1.527,-6.119,-8.725,1.122,-3.503,34.02,-236.46,-5.88
,-8.813,1.153,-5.463,-8.679,1.362,-3.357,31.43,-235.76,-2.66
,-8.466,0.859,-4.767,-8.658,1.725,-3.221,34.02,-231.0,-0.21
31953.0,-8.557,1.996,-2.886,-8.186,1.237,-1.137,37.45,-186.27,-0.07
,-8.54,2.149,-2.438,-8.093,0.44,-0.644,28.0,-171.71,-2.66
,-8.495,2.187,-2.048,-7.923,-0.246,-0.065,18.48,-155.82,-4.34
,-8.466,1.795,-1.57,-8.009,-1.046,0.603,7.63,-139.37,-5.6
32029.0,-7.98,-1.811,1.084,-7.344,0.024,-0.5,-6.72,-49.14,-6.58
,-7.918,-2.194,1.522,-7.854,0.29,-1.125,7.63,-28.07,-4.97
,-7.846,-1.807,1.273,-8.33,-0.108,-1.117,26.67,-7.63,-2.66
,-7.432,-0.849,0.44,-10.371,0.723,-0.268,43.68,13.02,-1.19
32105.0,-14.757,6.356,4.183,-7.617,3.374,0.471,56.77,70.07,-16.17
,-20.155,4.848,4.2,-10.55,5.525,-1.469,27.16,61.53,-20.23
,-16.825,-0.916,2.199,-8.899,2.752,-3.075,20.02,52.64,-0.7
,-7.569,-0.701,-0.404,-8.315,0.354,-3.69,50.47,68.81,6.16
32181.0,-8.169,-0.089,-3.719,-7.978,-1.905,-5.219,12.67,103.74,-17.01
,-9.773,-0.988,-3.92,-9.277,0.823,-5.214,11.27,103.74,-11.9
,-9.861,-2.943,-4.702,-9.753,2.288,-5.501,17.36,97.51,-5.74
,-8.26,-3.726,-5.389,-10.323,2.56,-4.681,33.81,95.27,-3.99
32257.0,-10.866,3.072,-3.848,-10.031,-3.594,-3.238,-5.81,68.32,-19.46
,-9.773,2.254,-4.465,-9.646,-4.815,-2.881,-27.51,60.69,-21.28
,-9.055,0.512,-4.41,-9.351,-3.058,-3.295,-44.59,57.75,-20.79
,-9.847,-1.098,-3.987,-9.404,-0.294,-3.659,-43.68,54.88,-14.07
32332.0,-9.993,1.51,-3.522,-9.557,-1.476,-2.146,54.32,43.96,-3.99
,-10.33,1.395,-3.142,-9.789,-1.886,-1.979,30.52,39.83,-5.95
,-10.12,0.416,-2.63,-9.825,-1.9,-2.099,7.91,37.03,-7.77
,-9.749,-0.794,-2.297,-9.608,-1.043,-2.297,-4.9,34.93,-8.4
32408.0,-9.502,0.335,-2.615,-9.517,-0.325,-2.539,34.65,33.67,-4.83
,-9.514,1.419,-2.95,-9.543,-0.61,-2.448,31.08,34.02,-6.02
,-9.684,1.407,-2.828,-9.83,-0.584,-2.477,16.31,33.04,-6.58
,-9.655,0.651,-2.673,-9.727,-0.366,-2.56,2.24,31.78,-5.74
32483.0,-9.706,-0.548,-2.343,-9.502,-0.493,-2.13,14.91,29.19,-4.13
,-9.28,-0.711,-2.331,-9.495,-0.711,-2.032,16.59,28.35,-4.55
,-9.509,-0.28,-2.194,-9.349,-0.639,-1.936,19.32,28.84,-4.62
,-9.49,-0.246,-2.34,-9.344,-0.476,-1.859,20.51,28.63,-4.9
32559.0,-9.433,0.065,-2.242,-9.335,-0.251,-3.137,22.19,33.04,-5.46
,-9.414,-0.096,-2.395,-9.387,0.168,-3.199,20.51,33.6,-5.18
,-9.409,-0.361,-2.642,-9.531,0.22,-3.104,20.51,34.23,-4.62
,-9.488,-0.376,-2.898,-9.416,-0.309,-3.429,22.54,35.07,-3.78
32635.0,-9.383,-0.804,-3.412,-9.392,0.481,-4.518,16.94,38.57,-4.41
,-9.153,-0.641,-3.68,-9.428,0.287,-4.743,19.11,39.27,-4.76
,-9.373,-0.275,-3.86,-9.428,-0.01,-4.788,19.81,40.04,-5.32
,-9.308,0.268,-4.305,-9.433,-0.256,-4.532,17.64,39.97,-6.02
32711.0,-9.696,-0.313,-4.056,-9.746,-0.34,-1.886,-11.06,39.55,-8.4
,-9.801,-0.309,-3.525,-9.572,-0.909,-1.591,-15.33,40.18,-8.33
,-9.83,-0.117,-3.053,-9.392,-1.149,-1.395,-18.76,41.44,-8.61
,-9.629,-0.069,-2.575,-9.526,-1.132,-1.661,-22.05,43.61,-8.89
32786.0,-9.715,-1.211,-1.874,-10.081,0.014,-3.905,-8.47,54.25,-4.27
,-9.794,-0.969,-2.383,-10.323,0.117,-4.195,-4.2,56.77,-3.29
,-9.861,-0.311,-3.001,-10.737,-0.438,-4.379,-1.68,60.06,-3.22
,-9.923,-0.045,-3.587,-12.613,-3.506,-2.675,-3.57,63.07,-3.71
32862.0,-12.675,-2.161,-3.089,-10.802,0.258,-1.658,-17.64,71.26,5.18
,-10.806,0.826,-2.86,-10.83,0.292,-1.266,-6.93,78.75,7.0
,-10.251,1.945,-2.546,-10.854,0.598,-0.869,-8.96,83.79,3.78
,-10.409,0.94,-2.158,-10.826,0.804,-0.531,-20.3,86.1,0.49
32938.0,-10.971,1.043,-0.062,-11.986,2.682,-0.711,-38.57,115.15,-1.68
,-11.323,1.749,0.388,-12.02,2.309,-1.589,-48.72,124.81,-4.69
,-11.811,2.656,0.404,-11.953,2.491,-3.238,-61.81,132.72,-9.38
,-12.017,3.185,-0.278,-11.163,1.965,-4.283,-80.57,140.14,-15.19
33014.0,-11.027,-0.191,-5.401,-11.479,-0.596,-7.179,-135.24,157.43,-19.32
,-10.816,-1.814,-6.767,-10.945,-0.725,-7.361,-117.25,152.95,-15.68
,-10.4,-1.665,-7.471,-9.095,-1.029,-7.997,-91.91,150.71,-14.35
,-11.225,-1.381,-7.016,-7.468,-1.058,-9.11,-66.57,147.28,-14.0
33090.0,-6.671,0.215,-10.605,-8.421,1.704,-7.329,-15.12,80.08,-4.2
,-6.353,1.625,-10.881,-7.808,0.881,-7.028,-20.58,75.11,-7.21
,-7.004,2.391,-9.801,-7.054,0.112,-7.093,-34.65,68.74,-9.66
,-8.023,2.402,-8.193,-6.298,-0.498,-7.593,-53.2,53.62,-10.29
33165.0,-5.738,-0.921,-7.973,-4.86,-0.101,-8.739,-27.23,-57.54,-2.52
,-5.446,-1.065,-7.909,-4.836,0.601,-8.916,-10.29,-72.38,-8.96
,-5.456,-1.228,-7.777,-5.073,0.711,-8.94,7.77,-87.5,-14.91
,-5.272,-0.983,-8.119,-5.532,0.665,-8.43,24.64,-102.55,-17.92
33241.0,-5.86,0.55,-8.011,-4.602,1.603,-9.438,25.27,-159.81,-11.34
,-5.53,0.464,-7.736,-5.039,1.933,-8.691,24.85,-173.39,-11.06
,-5.528,0.627,-8.064,-6.121,2.053,-8.256,28.0,-188.86,-11.27
,-4.944,1.098,-9.11,-7.126,1.438,-7.612,33.53,-201.32,-10.36
33316.0,-6.916,0.598,-7.478,-6.949,-0.28,-7.148,-1.47,-241.5,-13.79
,-6.391,-0.613,-7.918,-7.088,0.998,-6.906,1.61,-248.71,-15.75
,-6.229,-1.268,-7.88,-6.7,2.321,-7.167,16.66,-249.27,-18.41
,-6.533,-1.029,-8.009,-6.741,2.84,-6.882,37.52,-248.92,-21.77
33392.0,-7.157,2.79,-7.026,-7.868,0.656,-4.932,43.47,-246.33,-18.34
,-7.387,2.056,-6.961,-7.956,0.797,-4.288,30.17,-245.84,-17.15
,-7.392,1.452,-6.037,-8.351,0.625,-3.922,21.42,-241.57,-16.45
,-7.609,1.094,-5.398,-8.832,0.081,-3.077,17.71,-234.85,-15.82
33468.0,-9.15,-0.316,-2.225,-8.471,0.986,-0.304,29.68,-186.48,-2.38
,-9.021,-0.548,-1.551,-8.284,1.847,-0.644,40.39,-171.36,3.08
,-8.971,-0.558,-0.61,-7.961,2.218,-0.902,54.11,-151.34,7.84
,-8.672,0.172,-0.412,-7.777,2.041,-0.979,70.49,-129.15,11.06
33544.0,-7.672,1.414,-0.962,-8.165,-0.352,-2.347,48.86,-16.52,5.53
,-7.686,0.826,-1.201,-8.39,-0.369,-2.687,38.01,4.69,4.27
,-7.875,0.309,-1.541,-10.553,1.661,-1.575,31.71,24.36,3.08
,-8.165,-0.105,-1.919,-14.087,6.657,2.527,30.59,41.58,1.82
33619.0,-19.225,4.48,4.338,-10.328,1.254,-1.668,-11.83,77.28,-21.35
,-15.855,1.323,0.988,-8.279,0.383,-4.011,-20.65,78.12,-4.13
,-10.256,-0.187,-2.079,-6.927,-2.326,-2.005,-6.72,89.46,-1.12
,-8.911,0.952,-1.687,-7.447,-2.288,-2.036,4.76,100.59,-9.94
33695.0,-8.189,-1.606,-3.4,-10.299,1.852,-4.444,39.13,69.93,-9.1
,-9.005,-0.548,-5.458,-9.868,1.062,-4.293,50.26,78.68,-10.57
,-9.72,1.242,-6.059,-9.009,0.584,-3.922,49.21,89.32,-14.49
,-10.249,2.402,-5.408,-9.481,0.742,-3.171,34.72,92.89,-16.94
33771.0,-10.703,0.299,-2.268,-9.5,-1.369,-3.125,-15.96,65.31,-9.03
,-10.976,-0.538,-2.225,-9.428,-1.443,-3.125,-13.79,56.91,-12.74
,-9.725,-1.811,-3.08,-9.196,-0.964,-3.678,-9.73,51.52,-14.63
,-8.782,-1.732,-3.295,-9.727,0.096,-3.64,-5.39,51.38,-13.72
33847.0,-10.357,0.495,-3.47,-9.586,0.503,-3.295,32.34,43.26,-3.01
,-10.153,0.093,-3.36,-9.409,0.648,-3.216,23.87,40.46,-4.48
,-9.828,-0.101,-3.18,-9.698,0.302,-3.104,17.57,38.29,-5.39
,-9.751,0.261,-3.25,-10.06,-0.486,-2.958,13.65,36.61,-5.67
33922.0,-10.019,-1.247,-2.836,-9.495,0.05,-2.852,-0.91,29.33,-5.39
,-9.809,-1.517,-2.752,-9.452,0.029,-2.551,3.71,27.3,-4.62
,-9.533,-1.261,-2.754,-9.718,-0.208,-2.465,9.8,26.32,-3.85
,-9.675,-0.62,-2.682,-9.648,-0.275,-2.572,14.28,25.62,-2.66
33998.0,-9.49,0.005,-2.627,-9.529,-0.091,-2.764,19.53,24.36,-1.96
,-9.466,0.68,-2.69,-9.552,-0.854,-2.697,20.58,25.41,-2.31
,-9.55,1.137,-2.797,-9.529,-0.861,-2.874,17.15,26.04,-2.59
,-9.5,0.89,-2.788,-9.454,-0.589,-2.912,10.85,26.32,-2.59
34074.0,-9.32,0.139,-2.895,-9.249,-0.17,-2.68,18.97,28.21,-3.15
,-9.526,0.543,-2.778,-9.273,-0.089,-2.592,17.71,28.42,-3.92
,-9.71,0.467,-2.711,-9.289,0.007,-2.67,15.89,27.44,-4.41
,-9.624,0.17,-2.721,-9.275,-0.038,-2.754,16.17,26.11,-4.9
34149.0,-9.186,-0.055,-2.848,-9.426,-1.077,-2.266,14.98,32.76,-7.0
,-9.261,-0.433,-2.785,-9.127,-0.943,-2.584,13.02,33.18,-7.28
,-9.328,-0.711,-2.594,-9.072,-0.919,-2.484,10.08,35.14,-6.72
,-9.667,-0.684,-2.462,-8.976,-0.651,-2.618,7.07,36.54,-5.67
34225.0,-9.249,-0.672,-2.589,-9.694,-0.66,-1.866,0.14,41.79,-4.13
,-9.38,-0.562,-2.345,-9.524,-0.861,-1.957,-0.84,43.61,-3.71
,-9.564,-0.34,-2.125,-9.684,-0.627,-2.23,-4.34,45.57,-3.78
,-9.744,-0.34,-1.929,-9.983,-0.055,-2.666,-7.28,47.18,-3.99
34301.0,-10.16,0.041,-3.163,-10.321,-0.074,-4.13,5.25,57.89,-2.52
,-10.297,0.062,-3.558,-10.203,-0.148,-4.178,3.92,59.85,-2.45
,-10.378,0.072,-3.845,-10.495,-0.541,-4.247,1.96,62.16,-2.59
,-10.407,0.12,-4.027,-11.091,-3.025,-3.695,-1.19,64.12,-2.94
34377.0,-12.304,-3.695,-3.515,-10.002,0.751,-2.498,-3.71,67.2,1.75
,-11.175,-0.986,-3.702,-9.928,0.29,-2.075,9.24,71.68,6.23
,-10.318,1.362,-3.472,-9.828,0.268,-1.876,10.15,77.91,6.93
,-9.959,1.484,-3.168,-9.966,0.256,-1.709,-0.98,80.78,5.32
34452.0,-10.122,0.749,-1.699,-11.297,3.807,-1.237,-19.95,100.17,5.39
,-10.177,1.314,-1.63,-11.661,3.319,-1.335,-25.13,107.03,4.27
,-10.782,2.022,-0.967,-11.744,2.848,-1.826,-35.84,114.73,1.82
,-11.249,3.01,-0.914,-12.142,2.627,-2.515,-49.49,120.54,-2.87
34528.0,-11.63,3.051,-4.377,-10.723,-1.601,-7.363,-129.99,147.91,-24.85
,-10.706,1.455,-4.884,-11.053,-1.007,-7.736,-132.65,153.09,-23.17
,-11.029,0.225,-5.769,-11.201,-1.189,-7.102,-125.93,154.91,-20.79
,-11.003,-1.031,-7.284,-10.792,-1.46,-6.76,-111.79,151.27,-18.69
34604.0,-9.56,-1.766,-7.605,-6.162,2.697,-10.158,-39.13,93.66,-7.42
,-8.095,-2.07,-8.413,-7.854,3.096,-7.935,-24.99,77.14,-5.95
,-6.403,-1.115,-10.596,-8.995,2.324,-7.05,-7.35,68.18,-6.93
,-5.571,0.957,-11.33,-8.469,0.95,-6.956,0.98,67.9,-9.03
34680.0,-7.301,-0.383,-7.052,-5.042,-1.098,-7.999,-61.25,-25.62,-5.11
,-6.423,-1.125,-7.243,-5.607,-0.488,-7.858,-46.9,-45.85,-4.41
,-5.121,-1.551,-8.26,-5.855,0.187,-7.76,-26.74,-60.69,-6.86
,-4.47,-1.539,-8.543,-5.707,0.172,-7.916,-4.55,-68.25,-10.5
34755.0,-5.76,0.01,-8.057,-4.891,1.019,-8.062,22.82,-140.7,-14.91
,-4.951,0.007,-8.691,-5.26,1.481,-8.334,22.54,-153.93,-16.03
,-4.47,0.151,-8.626,-5.664,1.943,-8.129,25.55,-162.61,-16.17
,-4.618,0.447,-8.174,-6.013,2.118,-8.186,29.05,-172.27,-16.1
34831.0,-6.14,1.84,-8.059,-6.1,0.007,-7.176,0.77,-228.9,-16.52
,-6.272,1.57,-7.839,-7.09,-0.881,-6.657,-6.23,-238.21,-21.35
,-5.913,1.34,-7.641,-7.107,-0.988,-6.492,-11.62,-246.19,-25.06
,-5.772,0.833,-7.538,-7.085,-0.352,-6.446,-14.07,-252.28,-27.23
34906.0,-6.779,0.641,-7.15,-8.349,2.194,-5.075,58.38,-260.61,-32.41
,-6.717,1.488,-6.978,-8.727,1.704,-4.295,59.64,-255.85,-30.8
,-7.466,2.197,-6.695,-8.787,1.115,-3.817,52.57,-252.0,-27.44
,-7.952,2.51,-6.214,-9.256,0.474,-2.996,39.83,-248.22,-23.45
34982.0,-9.514,-0.067,-2.391,-9.627,0.455,-0.127,15.4,-214.97,-13.72
,-9.895,-0.491,-1.582,-9.098,1.156,-0.112,22.75,-201.39,-10.92
,-9.976,-0.684,-0.909,-8.603,1.697,-0.165,34.51,-185.85,-6.72
,-9.828,-0.354,-0.165,-8.09,1.931,-0.297,47.6,-166.95,-2.03
35058.0,-8.021,1.78,-0.026,-7.81,-1.058,-0.225,54.95,-61.74,4.2
,-7.935,1.309,0.079,-7.552,-1.283,-0.964,43.61,-40.39,2.73
,-7.806,0.445,0.105,-7.712,-1.285,-1.701,36.19,-19.6,1.89
,-7.899,-0.536,0.182,-7.909,-0.878,-2.45,34.37,0.28,2.03
35134.0,-8.236,-0.199,-2.838,-14.52,-0.124,-0.297,70.0,79.17,-0.98
,-10.885,2.252,-0.206,-8.902,0.184,-2.666,70.28,81.97,-6.3
,-15.391,6.904,3.977,-9.445,2.891,-1.692,60.41,72.45,-17.22
,-19.196,4.106,3.896,-10.0,2.941,-4.025,34.09,67.2,-13.3
35210.0,-6.71,0.081,-4.81,-9.954,1.019,-7.028,36.96,75.25,-9.73
,-7.014,-1.443,-2.903,-9.952,1.06,-6.415,26.39,75.6,-11.41
,-8.081,-1.017,-4.666,-9.921,0.306,-5.276,39.13,78.05,-9.59
,-9.777,-0.089,-6.458,-9.813,0.246,-4.858,51.24,82.04,-9.1
35285.0,-8.985,0.335,-4.958,-9.718,0.242,-2.67,10.71,75.25,-2.59
,-9.194,0.878,-4.066,-9.191,0.163,-3.142,8.26,71.47,-4.48
,-10.115,1.646,-2.85,-9.911,-0.462,-2.608,3.08,66.5,-9.45
,-10.55,1.584,-2.503,-9.895,-1.45,-2.379,-2.38,57.54,-13.72
35361.0,-8.899,-2.022,-2.86,-10.266,-0.888,-2.898,17.22,49.84,-5.32
,-9.124,-1.122,-3.046,-9.856,-0.639,-3.068,26.88,50.12,-6.37
,-10.158,-0.103,-3.003,-9.651,-0.404,-3.154,26.11,49.63,-7.21
,-10.613,-0.388,-2.938,-9.935,-0.337,-3.206,18.2,46.69,-7.0
35437.0,-10.079,-0.986,-3.314,-9.454,-0.134,-3.448,-5.67,34.37,-7.56
,-9.801,-1.735,-3.355,-9.672,0.457,-3.455,-5.32,32.55,-6.37
,-9.713,-1.852,-3.209,-9.746,0.498,-3.429,2.59,31.36,-4.76
,-9.619,-1.225,-3.307,-9.768,-0.014,-3.094,13.09,29.96,-4.69
35513.0,-9.727,-0.199,-3.128,-10.782,-1.012,-1.984,2.94,21.35,-3.08
,-9.562,-0.27,-2.654,-9.787,-1.247,-3.161,6.72,20.58,-2.52
,-9.591,-0.369,-2.548,-9.016,-0.969,-3.57,12.04,19.88,-1.89
,-9.966,-0.56,-2.211,-9.194,-0.244,-3.8,17.85,19.18,-0.56
35588.0,-8.918,0.816,-4.106,-9.639,-0.144,-2.472,43.96,12.39,-2.38
,-9.375,1.429,-3.812,-9.217,-0.708,-1.931,37.38,13.16,-3.22
,-9.622,0.995,-3.206,-9.538,-0.725,-1.706,27.79,13.09,-3.5
,-9.962,0.581,-2.467,-9.605,-0.55,-1.735,21.14,12.88,-3.15
35664.0,-9.773,-0.622,-1.689,-9.349,0.101,-1.706,19.6,17.85,-2.73
,-9.483,-0.787,-1.467,-9.407,-0.017,-1.85,17.5,19.67,-1.89
,-9.442,-0.641,-1.546,-9.397,-0.261,-1.965,15.68,22.12,-1.61
,-9.512,-0.232,-1.56,-9.526,-0.416,-2.024,12.53,24.22,-1.47
35739.0,-9.435,-0.4,-2.192,-9.493,-0.029,-2.063,-0.35,30.94,-2.38
,-9.344,-0.045,-2.345,-9.282,-0.304,-1.811,0.56,32.34,-3.08
,-9.378,0.452,-2.374,-9.361,-0.177,-1.721,-1.26,34.58,-3.29
,-9.49,0.424,-2.237,-9.552,-0.151,-1.788,-5.25,35.98,-3.71
35815.0,-9.552,-0.328,-2.087,-9.792,-1.046,-3.252,-2.52,43.47,-2.24
,-9.572,-0.285,-2.414,-9.773,-0.895,-3.412,-2.03,45.43,-1.68
,-9.866,-0.541,-2.804,-9.904,-0.962,-3.532,-1.19,46.06,-0.91
,-9.789,-0.9,-2.974,-9.837,-1.024,-3.68,0.35,46.69,-0.14
35891.0,-9.689,-0.878,-3.853,-11.51,-3.515,-3.285,-2.94,51.66,0.7
,-9.624,-0.723,-4.156,-11.768,-2.376,-3.537,-5.53,52.92,0.77
,-9.775,-0.555,-4.31,-10.524,0.51,-3.606,-8.89,54.11,0.84
,-10.208,-0.972,-4.475,-10.01,1.539,-3.429,-14.42,54.95,1.68
35967.0,-9.966,0.617,-3.204,-9.586,-0.014,-2.623,-20.79,63.91,8.33
,-10.179,0.081,-2.962,-9.646,0.129,-2.637,-26.18,65.31,8.26
,-10.086,0.067,-2.728,-9.557,0.486,-2.737,-24.78,67.2,9.52
,-9.734,0.086,-2.718,-9.536,0.598,-3.032,-19.81,69.65,11.13
36043.0,-9.605,0.522,-3.257,-9.83,2.242,-2.297,-7.7,82.32,12.04
,-9.931,0.806,-3.3,-10.024,2.536,-1.766,-11.27,85.26,10.64
,-10.16,1.139,-2.938,-10.096,2.556,-1.78,-16.52,89.25,8.96
,-9.897,1.761,-2.946,-10.368,2.45,-1.78,-21.28,94.08,6.23
36118.0,-10.445,2.422,-2.412,-9.603,1.539,-5.394,-85.75,119.91,-12.53
,-10.505,2.333,-2.996,-9.586,0.447,-6.394,-97.3,122.43,-14.35
,-10.17,2.469,-3.723,-9.708,-0.675,-7.047,-107.38,124.53,-14.91
,-9.765,2.477,-4.721,-10.357,-0.725,-6.576,-112.49,126.98,-13.79
36194.0,-10.529,-1.055,-6.109,-6.356,-1.601,-9.141,-62.86,118.86,-7.0
,-9.433,-1.419,-6.767,-6.573,-0.232,-9.014,-51.24,104.23,-2.8
,-7.81,-1.716,-7.784,-6.607,1.579,-9.773,-35.28,91.98,1.75
,-6.863,-1.96,-8.552,-6.454,2.24,-9.258,-19.74,83.3,5.04
36270.0,-7.219,2.398,-7.509,-5.867,-1.61,-7.071,-19.81,30.8,8.82
,-7.875,1.955,-6.576,-5.621,-1.582,-7.461,-38.22,9.45,11.55
,-7.432,0.349,-6.82,-5.544,-1.074,-7.779,-49.21,-13.79,16.73
,-6.427,-0.885,-6.837,-5.755,-0.077,-7.475,-45.85,-32.9,22.89
36346.0,-6.241,0.845,-7.77,-5.992,-0.337,-8.215,32.76,-112.14,25.76
,-6.576,0.388,-7.636,-5.683,-0.072,-8.708,25.13,-128.59,27.37
,-6.951,-0.323,-7.483,-5.922,0.014,-8.545,21.84,-142.1,25.62
,-6.645,-0.491,-7.748,-6.58,0.024,-8.339,28.42,-154.56,24.08
36421.0,-7.014,-0.352,-8.346,-6.939,-1.266,-8.48,72.73,-186.55,44.66
,-7.054,-0.682,-8.385,-7.296,-1.199,-7.875,81.48,-190.19,47.18
,-6.99,-0.859,-8.557,-7.684,-1.05,-7.71,92.82,-194.11,49.91
,-7.073,-0.988,-8.605,-7.913,-0.821,-7.66,105.63,-198.31,53.27
36497.0,-7.877,-0.345,-7.865,-7.485,1.67,-6.619,166.25,-203.14,70.63
,-7.581,0.251,-7.667,-7.98,1.608,-6.365,169.89,-198.03,73.01
,-7.614,0.881,-7.124,-8.576,1.216,-5.997,170.8,-192.29,74.48
,-7.631,1.376,-6.851,-8.746,0.914,-5.635,170.1,-186.62,74.48
36572.0,-8.863,0.357,-5.307,-9.162,-1.582,-4.08,146.65,-146.79,62.79
,-8.854,0.022,-4.987,-8.868,-2.271,-4.111,146.86,-136.43,60.83
,-8.703,-0.074,-4.759,-8.275,-2.429,-4.025,148.61,-125.3,59.36
,-8.954,-0.778,-4.317,-7.643,-2.084,-4.051,149.8,-116.2,59.08
36648.0,-7.234,-1.261,-4.228,-7.796,0.665,-4.006,222.67,-78.75,67.13
,-7.624,-0.491,-3.996,-7.377,0.498,-4.111,231.07,-67.55,65.45
,-7.873,0.548,-4.159,-7.617,0.864,-4.018,233.03,-59.43,63.7
,-7.904,0.761,-4.034,-7.739,1.34,-3.719,228.06,-53.9,61.32
36724.0,-7.901,1.496,-3.616,-6.846,1.508,-4.678,197.19,-16.59,41.72
,-7.454,1.304,-3.743,-7.121,2.496,-4.98,188.51,-9.1,36.19
