Timestamp,AccX,AccY,AccZ,GyroX,GyroY,GyroZ,MagnX,MagnY,MagnZ
0.0,-8.949,1.496,-3.97,-8.964,1.474,-4.032,2.87,1.54,0.63
,-8.928,1.469,-4.011,-8.961,1.448,-4.015,2.66,1.68,0.77
,-8.985,1.488,-3.994,-8.99,1.45,-3.939,2.59,1.75,0.77
,-8.945,1.498,-3.999,-8.949,1.479,-3.929,2.38,1.54,0.7
76.0,-8.94,1.481,-3.896,-9.0,1.522,-3.884,2.17,1.54,0.7
,-8.981,1.457,-3.963,-8.973,1.508,-3.9,2.31,1.33,0.7
,-8.926,1.438,-3.944,-8.99,1.409,-3.936,2.52,1.47,0.91
,-8.973,1.488,-3.896,-8.981,1.45,-3.972,2.59,1.61,0.84
152.0,-9.005,1.488,-3.984,-8.952,1.462,-3.97,3.01,1.61,0.84
,-8.973,1.484,-4.03,-9.009,1.455,-3.963,2.8,1.68,0.91
,-8.945,1.527,-3.975,-8.988,1.493,-3.972,2.52,1.4,0.84
,-8.957,1.455,-4.037,-8.966,1.517,-3.946,2.24,1.47,0.84
227.0,-8.993,1.56,-3.946,-8.981,1.467,-4.011,2.38,1.61,0.84
,-9.021,1.515,-3.967,-8.961,1.527,-4.022,2.24,1.33,0.84
,-9.0,1.445,-3.946,-8.954,1.452,-3.936,2.1,1.4,0.84
,-9.028,1.424,-3.982,-8.969,1.529,-3.869,2.45,1.47,0.91
302.0,-8.985,1.515,-3.881,-8.957,1.519,-3.994,2.52,1.47,1.05
,-8.973,1.46,-3.92,-8.916,1.51,-3.965,2.73,1.54,0.91
,-8.993,1.469,-3.932,-8.983,1.488,-3.936,2.87,1.4,0.98
,-8.947,1.464,-3.941,-9.019,1.45,-3.908,3.08,1.54,1.05
378.0,-9.014,1.496,-3.896,-8.926,1.546,-4.011,2.38,1.68,0.98
,-8.964,1.429,-3.979,-8.966,1.531,-3.955,2.73,1.54,1.12
,-8.945,1.488,-4.022,-8.985,1.505,-3.884,2.94,1.47,1.12
,-8.921,1.5,-4.015,-8.952,1.51,-3.843,2.94,1.47,1.12
454.0,-9.014,1.474,-3.829,-8.918,1.555,-4.118,2.59,1.75,0.98
,-9.028,1.472,-3.867,-8.942,1.57,-4.032,2.87,1.82,0.98
,-8.93,1.484,-3.967,-8.971,1.493,-3.982,3.29,1.82,1.05
,-8.926,1.484,-4.061,-8.961,1.45,-3.927,3.43,1.75,1.12
530.0,-8.976,1.505,-3.922,-8.938,1.529,-3.922,2.24,1.89,0.98
,-8.928,1.46,-3.932,-8.954,1.531,-4.003,2.52,1.75,0.91
,-8.952,1.452,-3.951,-8.964,1.539,-4.013,2.8,1.82,0.91
,-8.918,1.517,-3.917,-8.906,1.51,-4.011,3.01,1.68,1.05
606.0,-8.961,1.455,-3.989,-8.923,1.524,-4.003,2.66,1.68,0.91
,-8.949,1.469,-3.975,-8.981,1.505,-3.97,2.8,1.68,0.84
,-8.995,1.519,-4.006,-8.952,1.553,-3.924,2.73,1.54,0.77
,-8.961,1.522,-3.982,-8.945,1.527,-3.912,2.66,1.61,0.91
681.0,-8.988,1.467,-3.903,-8.892,1.541,-4.02,2.38,1.47,0.7
,-8.952,1.443,-3.91,-8.99,1.529,-3.953,2.52,1.47,0.7
,-8.961,1.467,-3.991,-8.923,1.45,-3.917,2.73,1.4,0.7
,-8.971,1.469,-4.049,-8.957,1.457,-3.896,2.94,1.54,0.7
757.0,-8.961,1.541,-3.912,-8.938,1.493,-4.044,3.01,1.61,0.77
,-8.976,1.541,-3.91,-8.959,1.498,-4.032,2.8,1.54,0.7
,-9.007,1.524,-3.951,-8.949,1.481,-4.03,2.8,1.61,0.77
,-8.995,1.486,-4.018,-9.016,1.479,-3.982,2.87,1.68,0.84
832.0,-8.964,1.484,-4.001,-8.94,1.496,-3.977,2.52,1.61,0.77
,-8.964,1.479,-4.006,-8.938,1.551,-3.972,2.31,1.4,0.7
,-8.981,1.455,-3.963,-8.961,1.474,-3.953,2.38,1.33,0.77
,-8.942,1.433,-3.97,-8.959,1.462,-3.922,2.73,1.54,0.84
908.0,-8.976,1.452,-3.908,-8.928,1.464,-3.898,2.8,1.61,0.77
,-8.938,1.467,-3.955,-8.971,1.476,-3.936,2.94,1.75,0.84
,-8.952,1.496,-3.893,-8.945,1.531,-4.015,2.87,1.96,0.91
,-8.966,1.436,-3.939,-9.012,1.484,-4.051,2.8,1.82,0.77
984.0,-8.961,1.486,-4.13,-8.978,1.448,-3.934,2.73,1.4,0.77
,-8.914,1.515,-4.133,-8.981,1.472,-3.893,2.52,1.4,0.7
,-8.918,1.508,-4.085,-9.005,1.462,-3.958,1.89,1.4,0.56
,-8.94,1.498,-4.027,-8.966,1.484,-3.987,1.4,1.4,0.49
1060.0,-8.976,1.462,-4.061,-8.973,1.484,-3.891,2.59,1.19,0.91
,-8.945,1.486,-4.011,-9.031,1.474,-3.814,2.59,0.98,0.84
,-8.926,1.505,-4.013,-9.031,1.46,-3.824,2.59,1.19,0.77
,-8.921,1.505,-3.97,-8.954,1.539,-3.86,2.52,1.33,0.84
1135.0,-8.966,1.481,-3.984,-8.964,1.517,-3.994,3.29,1.4,0.98
,-8.914,1.527,-4.051,-8.971,1.417,-3.958,3.15,1.54,0.91
,-8.875,1.546,-4.087,-9.026,1.395,-3.932,2.66,1.47,0.84
,-8.926,1.524,-4.07,-8.957,1.412,-3.982,2.17,1.47,0.84
1211.0,-8.954,1.517,-4.034,-8.985,1.452,-3.941,3.15,1.19,0.98
,-8.904,1.531,-4.039,-8.933,1.503,-3.967,2.59,1.26,0.91
,-8.964,1.512,-4.001,-8.969,1.467,-3.917,2.17,1.33,0.84
,-8.966,1.464,-4.011,-8.942,1.479,-3.905,2.17,1.12,0.77
1287.0,-8.894,1.577,-3.915,-9.026,1.493,-3.958,2.8,1.19,0.7
,-8.964,1.579,-3.975,-8.973,1.515,-3.939,2.24,1.4,0.7
,-8.959,1.484,-3.908,-8.938,1.579,-3.92,2.1,1.12,0.77
,-8.957,1.464,-3.917,-8.909,1.505,-3.946,2.38,1.33,0.77
1363.0,-8.945,1.464,-3.958,-8.961,1.575,-3.996,1.96,1.4,0.84
,-8.94,1.479,-4.008,-9.007,1.548,-3.967,2.24,1.12,0.7
,-8.938,1.46,-4.008,-8.959,1.524,-3.934,2.24,1.12,0.77
,-8.952,1.539,-3.96,-8.957,1.429,-3.905,2.8,1.47,0.91
1438.0,-8.971,1.407,-3.908,-8.93,1.508,-3.975,3.08,1.54,0.91
,-8.914,1.457,-3.929,-8.964,1.512,-3.951,3.5,1.54,0.98
,-8.935,1.553,-3.984,-8.973,1.474,-3.896,3.43,1.47,0.91
,-8.909,1.536,-4.025,-8.99,1.412,-3.92,2.94,1.68,0.84
1514.0,-8.993,1.476,-3.951,-8.935,1.486,-4.066,3.08,1.75,0.98
,-8.933,1.555,-3.975,-8.964,1.493,-4.087,3.22,1.61,0.98
,-8.952,1.598,-4.082,-8.959,1.445,-4.013,2.52,1.54,0.84
,-8.94,1.508,-4.068,-8.969,1.5,-3.967,2.17,1.54,0.77
1590.0,-8.981,1.46,-3.905,-8.902,1.452,-3.939,2.1,1.4,0.7
,-8.988,1.464,-3.891,-8.945,1.524,-3.936,2.31,1.4,0.77
,-8.971,1.467,-3.97,-8.938,1.488,-3.891,2.45,0.98,0.7
,-8.909,1.476,-4.027,-8.964,1.486,-3.903,2.66,1.12,0.77
1665.0,-9.016,1.474,-3.946,-8.976,1.527,-4.032,2.94,1.47,0.84
,-8.997,1.464,-3.977,-8.954,1.498,-4.02,3.08,1.47,0.91
,-8.945,1.508,-3.979,-8.918,1.505,-4.032,3.22,1.54,1.12
,-8.971,1.598,-3.999,-8.952,1.529,-3.991,3.08,1.47,0.84
1741.0,-8.985,1.452,-3.972,-8.949,1.539,-3.972,2.52,1.54,0.77
,-8.971,1.462,-3.939,-8.945,1.488,-4.042,2.59,1.47,0.91
,-8.993,1.515,-3.951,-8.969,1.551,-3.982,2.52,1.4,0.77
,-8.938,1.498,-3.965,-8.928,1.527,-3.994,2.8,1.54,0.91
1817.0,-8.976,1.498,-4.006,-8.976,1.441,-4.039,2.8,1.4,0.7
,-9.007,1.46,-3.96,-8.928,1.524,-4.039,2.94,1.54,0.77
,-8.954,1.472,-4.001,-8.88,1.546,-3.97,3.15,1.54,0.77
,-8.933,1.481,-4.022,-8.942,1.488,-3.977,3.29,1.26,0.77
1893.0,-9.0,1.469,-3.944,-8.933,1.51,-4.027,2.38,1.61,0.84
,-8.993,1.433,-3.922,-8.89,1.57,-4.087,2.8,1.47,0.84
,-9.036,1.479,-3.953,-8.935,1.529,-4.078,3.08,1.4,0.77
,-8.978,1.496,-3.965,-8.887,1.505,-3.97,3.15,1.4,0.84
1968.0,-8.957,1.424,-3.92,-8.878,1.531,-3.896,1.68,1.33,0.49
,-8.94,1.352,-3.915,-8.997,1.28,-3.838,2.17,1.4,0.56
,-8.961,1.412,-3.867,-8.99,1.555,-3.948,2.94,1.4,0.63
,-8.892,1.534,-4.032,-8.966,1.582,-3.951,3.57,0.91,0.63
2044.0,-8.961,1.572,-3.92,-8.993,1.496,-4.08,3.08,1.54,0.84
,-8.983,1.455,-3.967,-8.906,1.479,-4.061,2.87,1.54,0.77
,-8.978,1.414,-3.991,-8.906,1.524,-4.116,3.01,1.54,0.84
,-8.938,1.436,-4.027,-8.926,1.598,-4.066,3.22,1.33,0.7
2120.0,-8.993,1.519,-4.018,-8.945,1.397,-3.946,1.47,1.47,0.7
,-8.961,1.486,-3.996,-8.933,1.455,-3.953,1.47,1.54,0.63
,-8.926,1.512,-3.922,-8.902,1.515,-3.953,1.54,1.19,0.49
,-8.985,1.438,-3.908,-8.928,1.563,-3.96,1.75,1.26,0.56
2196.0,-8.945,1.5,-3.946,-8.93,1.5,-3.989,1.61,1.33,0.56
,-8.964,1.467,-3.934,-8.949,1.505,-4.049,1.75,1.26,0.56
,-8.983,1.445,-3.946,-8.94,1.45,-3.984,2.17,1.33,0.7
,-8.988,1.445,-3.972,-8.983,1.402,-4.001,2.66,1.19,0.7
2271.0,-8.961,1.443,-3.991,-8.964,1.417,-3.92,2.59,1.26,0.77
,-8.964,1.517,-3.936,-8.942,1.467,-3.929,2.73,1.26,0.77
,-8.966,1.527,-3.97,-8.997,1.512,-3.948,2.59,1.4,0.77
,-8.938,1.479,-3.96,-8.983,1.515,-3.948,2.52,1.4,0.84
2347.0,-8.926,1.508,-4.027,-8.971,1.448,-3.951,3.57,1.33,1.12
,-8.916,1.56,-4.001,-8.957,1.496,-3.97,3.15,1.47,0.98
,-8.952,1.539,-3.979,-8.935,1.539,-3.984,2.73,1.47,0.84
,-8.966,1.448,-3.977,-8.926,1.572,-4.02,2.73,1.26,0.77
2423.0,-8.921,1.503,-4.003,-9.052,1.467,-3.915,2.17,1.75,0.77
,-8.902,1.486,-3.932,-8.988,1.469,-4.008,2.03,1.68,0.7
,-8.959,1.479,-3.903,-8.863,1.462,-4.106,1.96,1.75,0.63
,-9.031,1.419,-3.905,-8.851,1.56,-4.145,2.31,1.75,0.63
2498.0,-8.887,1.515,-4.013,-8.976,1.508,-3.951,1.82,1.61,0.63
,-9.007,1.433,-3.977,-8.954,1.493,-3.948,1.54,1.33,0.56
,-9.0,1.424,-3.936,-8.902,1.474,-3.999,2.1,1.47,0.7
,-8.997,1.472,-3.936,-8.933,1.57,-3.967,2.73,1.4,0.77
2574.0,-8.942,1.496,-3.893,-8.961,1.543,-4.008,2.59,1.61,0.91
,-8.971,1.448,-3.884,-8.935,1.555,-4.011,2.45,1.75,0.84
,-8.954,1.436,-3.927,-8.926,1.493,-4.003,2.8,1.82,0.84
,-8.959,1.508,-3.96,-8.918,1.481,-4.018,3.15,1.61,0.91
2650.0,-8.899,1.479,-4.051,-8.916,1.529,-4.049,2.87,1.54,0.84
,-8.961,1.508,-4.061,-8.935,1.515,-4.056,2.73,1.4,0.77
,-8.985,1.448,-4.063,-8.933,1.493,-3.936,2.66,1.19,0.84
,-8.976,1.472,-4.089,-8.978,1.457,-3.884,2.73,1.19,0.84
2726.0,-8.971,1.469,-3.85,-8.964,1.539,-4.022,2.52,1.33,0.77
,-8.995,1.476,-3.893,-8.94,1.517,-3.975,3.01,1.33,0.77
,-8.99,1.481,-3.927,-8.954,1.474,-3.958,3.29,1.33,0.91
,-8.935,1.534,-3.984,-8.954,1.46,-3.948,3.29,1.54,1.05
2801.0,-8.995,1.46,-3.924,-8.928,1.531,-4.022,2.59,1.47,0.91
,-8.961,1.479,-3.934,-8.904,1.491,-3.996,2.8,1.61,0.98
,-8.966,1.452,-3.967,-8.911,1.539,-3.984,2.8,1.68,0.91
,-8.935,1.491,-4.013,-8.906,1.515,-3.982,3.01,1.54,0.91
2877.0,-8.942,1.484,-3.939,-8.954,1.491,-4.001,2.87,1.68,0.84
,-8.978,1.498,-3.958,-8.945,1.5,-4.07,2.87,1.4,0.7
,-8.964,1.498,-3.92,-8.921,1.493,-4.061,2.87,1.4,0.63
,-8.964,1.474,-3.929,-8.88,1.5,-4.051,2.94,1.54,0.77
2953.0,-8.918,1.531,-3.97,-8.997,1.457,-3.922,1.75,1.61,0.49
,-8.954,1.481,-3.896,-9.0,1.445,-3.996,1.82,1.61,0.56
,-8.945,1.484,-3.891,-8.964,1.472,-3.996,1.96,1.61,0.56
,-9.012,1.491,-3.841,-8.969,1.503,-4.078,2.17,1.75,0.56
3029.0,-8.902,1.488,-4.097,-8.978,1.46,-4.039,2.24,1.61,0.63
,-8.921,1.515,-4.123,-8.926,1.553,-4.032,2.03,1.75,0.63
,-8.945,1.421,-4.094,-8.942,1.582,-3.996,1.89,1.61,0.7
,-8.985,1.405,-4.037,-9.009,1.503,-3.92,2.24,1.54,0.77
3104.0,-8.966,1.445,-3.881,-8.964,1.469,-3.936,1.96,1.47,0.7
,-8.957,1.441,-3.881,-8.971,1.472,-3.903,2.59,1.54,0.84
,-9.0,1.462,-3.86,-8.945,1.445,-3.929,3.01,1.47,0.77
,-8.985,1.519,-3.896,-8.957,1.491,-4.044,3.01,1.61,0.84
3180.0,-8.961,1.515,-4.125,-8.894,1.419,-4.133,2.87,1.75,0.98
,-8.904,1.522,-4.147,-8.923,1.429,-4.104,2.73,1.61,0.91
,-8.935,1.524,-4.121,-8.914,1.469,-4.042,2.24,1.33,0.84
,-8.859,1.462,-4.135,-8.93,1.527,-3.972,1.96,1.54,0.91
3256.0,-8.928,1.534,-3.912,-8.949,1.493,-4.046,1.61,1.33,0.7
,-8.952,1.512,-3.86,-8.892,1.529,-4.063,1.68,1.33,0.7
,-8.988,1.438,-3.848,-8.954,1.551,-4.054,1.89,1.33,0.63
,-8.959,1.479,-3.879,-8.935,1.455,-4.011,2.59,1.33,0.77
3331.0,-9.026,1.407,-3.924,-8.976,1.476,-3.991,2.03,1.33,0.77
,-8.985,1.443,-3.936,-8.882,1.527,-3.989,2.52,1.33,0.98
,-8.988,1.484,-3.917,-8.914,1.527,-4.056,2.73,1.4,1.12
,-8.988,1.512,-3.975,-8.938,1.508,-3.967,2.66,1.33,1.12
3407.0,-8.969,1.443,-3.929,-8.921,1.515,-4.058,2.1,1.47,0.98
,-8.985,1.5,-3.972,-8.909,1.493,-4.058,2.59,1.4,0.98
,-8.914,1.534,-4.008,-8.882,1.493,-3.965,2.94,1.4,1.05
,-8.894,1.522,-4.006,-8.957,1.498,-3.994,3.08,1.4,1.05
3483.0,-8.969,1.464,-3.941,-8.914,1.529,-3.989,2.31,1.19,0.84
,-9.0,1.464,-3.979,-8.981,1.464,-3.96,2.59,1.12,0.84
,-8.902,1.505,-4.013,-9.021,1.464,-3.9,2.66,1.19,0.84
,-8.93,1.534,-3.996,-9.038,1.414,-3.944,2.52,1.26,0.77
3559.0,-8.973,1.426,-4.075,-8.959,1.522,-3.958,3.08,1.12,0.91
,-8.904,1.555,-4.135,-9.009,1.412,-3.908,3.29,1.26,0.98
,-8.89,1.606,-4.188,-8.964,1.429,-3.881,2.66,1.26,0.91
,-8.875,1.555,-4.149,-8.914,1.455,-3.924,1.75,1.26,0.7
3634.0,-8.938,1.601,-3.939,-8.971,1.419,-3.874,3.57,1.19,0.91
,-8.971,1.613,-3.898,-8.952,1.441,-3.984,3.01,1.54,0.84
,-8.976,1.493,-3.857,-8.928,1.505,-4.037,2.38,1.68,0.7
,-9.007,1.424,-3.843,-8.914,1.558,-4.049,2.59,1.89,0.77
3710.0,-8.892,1.575,-4.054,-8.959,1.467,-3.999,2.73,1.68,0.63
,-8.957,1.493,-3.987,-8.887,1.527,-4.032,2.24,1.75,0.63
,-9.026,1.469,-3.994,-8.894,1.548,-4.085,2.1,1.75,0.7
,-8.971,1.431,-4.008,-8.911,1.448,-4.042,2.66,1.75,0.84
3786.0,-8.966,1.455,-4.032,-8.954,1.522,-4.032,2.03,1.47,0.49
,-8.949,1.443,-3.987,-8.942,1.527,-4.008,2.38,1.54,0.7
,-8.959,1.491,-4.027,-8.969,1.515,-3.977,2.8,1.61,0.77
,-8.921,1.496,-3.987,-8.964,1.484,-3.979,3.15,1.47,0.84
3862.0,-8.918,1.472,-4.011,-8.938,1.56,-4.011,2.38,1.26,0.63
,-8.959,1.39,-4.03,-8.923,1.505,-3.972,2.59,1.26,0.7
,-8.93,1.405,-4.061,-8.918,1.484,-3.932,3.08,1.05,0.98
,-8.914,1.479,-4.015,-8.983,1.479,-3.955,3.22,1.26,1.05
3937.0,-8.928,1.527,-3.979,-8.988,1.472,-4.003,3.08,1.26,0.77
,-8.918,1.548,-3.977,-8.995,1.409,-3.984,3.08,1.26,0.77
,-8.949,1.541,-3.97,-8.985,1.388,-4.066,2.73,1.4,0.77
,-8.952,1.481,-3.965,-8.933,1.445,-4.111,2.45,1.4,0.7
4013.0,-8.926,1.515,-4.135,-8.961,1.472,-3.869,2.8,1.19,1.12
,-8.909,1.515,-4.104,-9.002,1.462,-3.836,2.17,1.19,0.98
,-8.916,1.484,-4.042,-8.985,1.431,-3.848,1.75,1.19,0.84
,-8.997,1.474,-3.975,-8.949,1.436,-3.946,1.54,1.05,0.84
4089.0,-8.918,1.505,-4.07,-8.981,1.472,-4.013,2.87,1.12,1.05
,-8.854,1.534,-4.075,-8.983,1.46,-3.934,2.73,1.33,1.12
,-8.926,1.563,-4.133,-8.971,1.45,-3.946,2.31,1.33,0.98
,-8.945,1.5,-4.049,-8.93,1.472,-3.963,2.03,1.33,0.98
4164.0,-8.949,1.517,-4.034,-8.942,1.508,-3.953,2.59,0.84,0.84
,-8.887,1.541,-4.044,-8.966,1.448,-3.939,2.38,1.12,0.98
,-8.918,1.527,-4.056,-8.971,1.436,-3.915,1.96,1.26,0.91
,-8.892,1.496,-3.984,-8.959,1.438,-3.917,1.75,1.26,0.84
4240.0,-8.923,1.531,-3.972,-8.952,1.412,-3.917,3.57,1.33,0.98
,-8.875,1.613,-3.96,-8.945,1.464,-3.955,3.29,1.54,0.91
,-8.952,1.603,-3.944,-8.969,1.479,-4.001,2.45,1.82,0.77
,-8.969,1.536,-3.893,-8.947,1.522,-4.037,2.1,1.68,0.49
4316.0,-8.971,1.596,-4.118,-8.961,1.441,-3.941,3.01,1.4,0.7
,-8.899,1.603,-4.07,-8.981,1.46,-4.001,2.45,1.47,0.63
,-8.938,1.539,-4.061,-8.969,1.491,-4.02,2.1,1.47,0.49
,-8.973,1.493,-4.018,-8.923,1.496,-4.109,2.03,1.47,0.35
4392.0,-8.868,1.522,-4.068,-8.981,1.445,-3.841,2.52,1.26,0.63
,-8.938,1.512,-4.03,-8.985,1.412,-3.857,2.24,1.05,0.49
,-8.952,1.457,-3.9,-8.906,1.436,-3.877,2.1,1.05,0.42
,-8.985,1.498,-3.896,-8.966,1.531,-3.97,2.52,1.26,0.63
4467.0,-8.873,1.512,-4.046,-8.923,1.369,-3.948,3.15,1.54,0.63
,-8.93,1.493,-4.02,-8.995,1.421,-4.015,2.45,1.54,0.49
,-8.957,1.457,-3.944,-8.961,1.508,-4.075,1.89,1.47,0.42
,-8.959,1.407,-3.989,-8.957,1.519,-4.097,1.96,1.47,0.56
4543.0,-8.971,1.491,-4.125,-8.969,1.474,-3.948,2.03,1.26,0.63
,-8.923,1.469,-4.116,-8.957,1.455,-3.944,1.89,1.19,0.7
,-8.985,1.467,-4.037,-8.897,1.503,-3.941,2.1,1.26,0.84
,-8.976,1.424,-4.022,-8.94,1.534,-3.999,2.31,0.98,0.84
4619.0,-8.926,1.498,-3.958,-8.909,1.493,-3.9,2.66,0.91,0.84
,-8.952,1.484,-3.939,-8.923,1.524,-3.96,2.52,1.05,0.84
,-8.981,1.441,-3.948,-8.933,1.524,-3.936,2.59,0.98,0.98
,-8.993,1.455,-3.955,-8.954,1.522,-3.965,2.94,0.91,0.98
4695.0,-8.949,1.469,-3.898,-8.957,1.575,-3.999,2.03,1.26,0.91
,-8.973,1.39,-3.965,-8.887,1.491,-4.02,2.45,1.33,0.91
,-8.973,1.412,-4.008,-8.938,1.491,-3.979,2.8,1.12,1.05
,-8.969,1.512,-4.022,-8.966,1.438,-4.037,3.01,0.91,0.98
4770.0,-8.933,1.476,-3.965,-8.985,1.433,-3.905,2.52,1.05,1.05
,-8.995,1.543,-3.941,-8.938,1.45,-3.891,2.8,1.12,0.98
,-8.971,1.57,-3.975,-8.961,1.5,-3.865,2.73,1.05,0.77
,-8.952,1.5,-3.946,-8.906,1.476,-3.884,2.52,0.98,0.91
4846.0,-8.997,1.491,-3.841,-8.928,1.5,-3.867,2.73,1.33,0.84
,-8.971,1.486,-3.817,-8.995,1.546,-3.886,2.87,1.47,0.91
,-8.971,1.512,-3.841,-8.993,1.484,-3.994,3.15,1.68,0.84
,-8.954,1.486,-3.939,-8.959,1.46,-3.982,3.22,1.75,0.77
4921.0,-8.923,1.481,-4.075,-8.985,1.596,-3.977,2.87,1.82,0.84
,-8.981,1.493,-4.14,-8.969,1.553,-3.896,2.73,1.61,0.77
,-8.983,1.515,-4.073,-9.009,1.464,-3.927,3.08,1.4,0.91
,-8.952,1.579,-4.044,-8.957,1.51,-3.97,3.15,1.54,0.91
4997.0,-8.926,1.505,-3.97,-8.94,1.452,-4.034,2.87,1.54,0.56
,-8.933,1.467,-4.006,-8.985,1.395,-3.965,2.8,1.68,0.56
,-8.916,1.519,-4.018,-8.976,1.407,-4.011,2.87,1.82,0.77
,-8.961,1.505,-3.989,-8.985,1.438,-4.056,2.66,1.75,0.77
5073.0,-8.947,1.598,-4.027,-8.942,1.429,-3.963,3.08,1.33,0.7
,-8.933,1.543,-4.011,-8.938,1.539,-3.953,2.24,1.33,0.63
,-8.952,1.472,-3.982,-8.959,1.464,-3.989,1.82,1.26,0.63
,-8.959,1.419,-3.987,-8.94,1.488,-4.018,2.24,1.26,0.63
5149.0,-8.954,1.486,-3.996,-8.976,1.493,-3.936,2.73,1.26,0.7
,-8.969,1.472,-4.042,-8.945,1.457,-4.001,2.45,1.19,0.63
,-9.005,1.455,-3.934,-8.952,1.426,-3.999,2.38,1.26,0.7
,-9.016,1.436,-3.958,-8.94,1.438,-3.982,2.87,0.98,0.77
5225.0,-8.904,1.472,-3.987,-8.973,1.457,-3.955,2.8,1.05,0.77
,-8.885,1.563,-3.929,-8.935,1.488,-4.022,2.66,1.26,0.84
,-8.988,1.517,-3.922,-8.916,1.484,-4.073,2.45,1.19,0.84
,-8.99,1.457,-3.958,-8.914,1.481,-4.054,2.66,1.26,0.84
5300.0,-8.911,1.503,-4.082,-8.957,1.421,-4.02,3.01,1.05,0.84
,-8.93,1.462,-4.037,-8.933,1.496,-4.025,2.59,0.91,0.77
,-8.971,1.457,-3.975,-8.871,1.584,-4.042,2.38,0.77,0.84
,-9.055,1.412,-3.977,-8.911,1.57,-4.003,2.45,0.84,0.91
5376.0,-8.928,1.543,-3.927,-8.966,1.505,-3.886,1.61,0.91,0.63
,-9.036,1.46,-3.855,-8.94,1.536,-3.953,1.47,0.91,0.63
,-8.995,1.407,-3.821,-8.914,1.551,-3.939,2.1,0.98,0.77
,-8.966,1.419,-3.829,-8.926,1.464,-3.874,3.22,0.91,0.98
5452.0,-8.961,1.45,-3.843,-8.942,1.498,-4.039,2.31,1.54,0.63
,-9.031,1.424,-3.788,-8.93,1.577,-4.099,2.73,1.89,0.77
,-9.026,1.409,-3.874,-8.897,1.591,-4.097,3.36,1.82,0.98
,-8.988,1.457,-3.922,-8.959,1.517,-4.046,3.78,1.61,1.05
5528.0,-8.993,1.457,-3.936,-8.892,1.551,-4.049,1.54,1.61,0.7
,-9.012,1.417,-3.991,-8.923,1.551,-3.979,1.96,1.33,0.77
,-8.961,1.366,-3.989,-8.935,1.5,-3.9,2.94,1.26,0.91
,-8.938,1.522,-4.07,-8.964,1.479,-3.877,3.43,0.98,0.91
5603.0,-9.04,1.441,-3.831,-8.923,1.567,-4.058,2.1,1.54,0.77
,-8.983,1.443,-3.857,-8.945,1.527,-4.018,2.87,1.61,0.91
,-8.952,1.414,-3.951,-9.019,1.421,-3.972,3.43,1.54,0.98
,-8.916,1.531,-3.987,-9.002,1.417,-3.932,3.43,1.4,0.91
5679.0,-8.981,1.393,-4.003,-8.918,1.563,-4.073,2.8,1.47,0.98
,-8.985,1.464,-4.022,-8.945,1.433,-3.984,3.15,1.4,0.98
,-8.902,1.531,-4.087,-8.933,1.385,-3.941,3.01,1.26,0.98
,-8.894,1.57,-4.054,-8.997,1.371,-3.905,2.59,1.12,0.91
5754.0,-8.949,1.452,-3.963,-8.985,1.508,-4.061,3.08,1.12,0.98
,-8.935,1.529,-3.994,-8.94,1.519,-4.02,3.22,1.33,0.98
,-8.938,1.543,-4.042,-8.966,1.45,-3.958,2.66,1.12,0.91
,-8.926,1.493,-4.037,-8.959,1.498,-3.91,2.31,1.12,0.77
5830.0,-8.957,1.527,-3.898,-8.976,1.484,-3.759,2.17,0.91,0.7
,-8.952,1.488,-3.836,-9.007,1.462,-3.85,2.1,1.12,0.7
,-8.993,1.462,-3.805,-9.009,1.498,-3.898,1.82,1.33,0.56
,-8.981,1.419,-3.867,-8.945,1.508,-3.975,2.17,1.47,0.63
5906.0,-8.921,1.524,-4.046,-8.945,1.443,-4.008,3.08,1.47,0.91
,-8.988,1.498,-4.082,-8.899,1.484,-4.008,2.8,1.4,0.84
,-8.961,1.472,-4.085,-8.983,1.476,-3.944,2.52,1.47,0.77
,-8.94,1.46,-4.054,-8.993,1.5,-3.867,2.73,1.47,0.77
5982.0,-8.978,1.39,-3.905,-8.909,1.512,-3.994,2.38,1.33,0.7
,-8.978,1.472,-3.922,-8.914,1.512,-4.006,2.87,1.26,0.84
,-8.961,1.469,-4.001,-8.983,1.486,-3.946,3.29,1.12,0.91
,-8.923,1.543,-4.006,-8.949,1.455,-3.924,3.36,1.26,0.98
6058.0,-8.947,1.464,-3.92,-8.978,1.474,-4.056,2.94,1.26,0.84
,-8.942,1.464,-3.97,-8.928,1.548,-4.015,2.73,1.26,0.77
,-9.002,1.429,-3.958,-8.938,1.512,-3.982,2.45,1.33,0.77
,-8.952,1.484,-4.006,-8.966,1.448,-3.915,2.45,1.47,0.84
6133.0,-9.002,1.385,-3.946,-8.954,1.491,-3.898,2.31,1.19,0.91
,-8.945,1.45,-3.924,-8.935,1.455,-3.86,3.01,1.4,0.91
,-8.957,1.522,-3.888,-8.952,1.46,-3.865,3.15,1.33,0.84
,-8.988,1.531,-3.898,-8.978,1.45,-3.869,3.01,1.33,0.84
6209.0,-8.918,1.496,-3.936,-9.007,1.462,-3.939,3.71,1.68,1.05
,-8.933,1.481,-4.018,-8.969,1.498,-3.989,3.85,1.68,1.12
,-8.935,1.481,-3.97,-8.935,1.541,-3.946,3.5,1.82,1.05
,-8.945,1.464,-3.972,-8.969,1.51,-3.955,3.15,1.68,1.05
6285.0,-8.949,1.505,-3.955,-8.985,1.531,-4.044,2.73,1.68,0.77
,-8.957,1.56,-4.02,-8.933,1.522,-4.006,2.94,1.68,0.84
,-8.966,1.524,-4.001,-8.961,1.467,-3.972,3.01,1.82,0.84
,-8.921,1.541,-3.982,-8.959,1.419,-3.963,2.94,1.68,0.84
6361.0,-8.918,1.438,-4.027,-8.969,1.441,-3.929,2.8,1.47,0.56
,-8.938,1.467,-4.032,-8.993,1.448,-3.905,2.73,1.26,0.56
,-8.93,1.539,-3.994,-8.969,1.438,-3.917,2.38,1.4,0.56
,-8.961,1.484,-3.953,-8.918,1.414,-3.977,2.03,1.68,0.63
6436.0,-8.942,1.429,-3.979,-8.923,1.536,-3.905,2.87,1.68,0.77
,-8.942,1.469,-4.039,-8.995,1.462,-3.912,3.01,1.68,0.77
,-8.916,1.493,-4.003,-9.007,1.455,-3.903,2.8,1.75,0.77
,-8.928,1.524,-3.955,-8.954,1.405,-3.996,2.73,1.82,0.7
6512.0,-8.957,1.441,-3.991,-8.959,1.443,-4.022,3.57,1.82,0.91
,-8.921,1.493,-4.078,-8.94,1.414,-3.977,3.5,1.68,0.91
,-8.902,1.498,-4.092,-8.973,1.503,-3.991,2.94,1.61,0.7
,-8.959,1.498,-4.082,-8.959,1.498,-3.979,2.52,1.54,0.63
6587.0,-8.99,1.5,-3.965,-8.909,1.409,-4.032,3.22,1.61,0.91
,-9.014,1.531,-3.979,-8.894,1.493,-4.027,3.01,1.61,0.84
,-9.007,1.419,-3.955,-8.863,1.496,-4.049,2.8,1.75,0.84
,-8.978,1.371,-3.936,-8.887,1.56,-4.082,2.87,1.54,0.91
6663.0,-8.904,1.493,-3.97,-8.954,1.445,-3.97,2.24,1.4,0.84
,-8.928,1.474,-3.977,-8.94,1.5,-4.03,2.38,1.4,0.77
,-8.949,1.534,-3.877,-8.949,1.5,-4.027,2.52,1.47,0.84
,-8.969,1.505,-3.884,-8.926,1.481,-4.063,2.52,1.75,0.84
6739.0,-8.995,1.498,-4.042,-8.909,1.498,-3.958,1.82,1.47,0.63
,-8.918,1.476,-4.066,-8.947,1.436,-3.948,2.03,1.47,0.7
,-8.921,1.484,-4.034,-8.964,1.486,-3.946,2.31,1.33,0.7
,-8.909,1.481,-4.003,-8.976,1.455,-3.996,2.17,1.4,0.7
6815.0,-8.94,1.484,-3.999,-8.911,1.491,-4.03,2.24,1.54,0.7
,-8.938,1.457,-4.089,-8.969,1.445,-3.934,2.45,1.33,0.77
,-8.949,1.424,-4.104,-8.976,1.407,-3.967,2.45,1.26,0.91
,-8.918,1.531,-4.078,-8.983,1.405,-3.994,2.17,1.4,0.77
6891.0,-8.945,1.417,-4.087,-8.99,1.452,-3.905,2.52,1.05,0.84
,-8.887,1.503,-4.075,-9.04,1.421,-3.891,2.52,1.12,0.91
,-8.935,1.555,-4.056,-9.026,1.366,-3.891,1.96,1.12,0.77
,-8.942,1.527,-3.96,-8.981,1.441,-3.881,1.33,1.33,0.7
6966.0,-8.933,1.551,-3.932,-9.012,1.51,-3.979,2.8,1.47,0.91
,-8.947,1.519,-4.013,-8.993,1.484,-3.934,2.52,1.4,0.91
,-8.945,1.534,-4.054,-8.985,1.414,-3.965,2.24,1.4,0.91
,-9.009,1.476,-3.991,-8.978,1.405,-3.982,2.17,1.61,0.91
7042.0,-8.995,1.462,-4.015,-8.99,1.462,-3.984,2.73,1.54,0.98
,-8.938,1.457,-3.97,-8.949,1.457,-4.049,2.52,1.61,0.91
,-8.942,1.51,-3.958,-8.93,1.503,-4.097,2.31,1.82,0.98
,-8.954,1.496,-3.982,-8.839,1.57,-4.121,2.38,1.75,0.98
7118.0,-8.906,1.558,-4.07,-8.961,1.426,-4.006,2.31,1.47,0.98
,-8.971,1.529,-4.044,-8.935,1.519,-4.109,1.68,1.47,0.84
,-9.062,1.409,-3.946,-8.938,1.517,-4.128,1.61,1.26,0.84
,-9.026,1.441,-3.999,-8.902,1.484,-4.085,2.1,1.05,0.77
7194.0,-8.918,1.467,-4.022,-8.933,1.57,-3.872,1.89,1.05,0.91
,-8.976,1.443,-3.936,-8.969,1.543,-3.874,2.03,0.98,0.91
,-8.961,1.371,-3.912,-8.976,1.467,-3.848,2.38,0.98,1.05
,-8.926,1.457,-3.886,-8.99,1.457,-3.91,2.94,0.91,1.05
7269.0,-8.93,1.419,-3.982,-8.952,1.541,-3.989,3.29,1.4,1.12
,-8.976,1.493,-4.058,-8.973,1.448,-3.979,3.64,1.26,1.12
,-8.93,1.51,-4.152,-8.971,1.445,-3.941,3.57,1.12,1.05
,-8.885,1.61,-4.03,-8.985,1.417,-3.946,3.01,1.26,0.91
7345.0,-8.882,1.51,-3.996,-8.981,1.409,-3.855,3.43,0.91,0.77
,-8.887,1.606,-4.037,-8.993,1.364,-3.903,3.15,1.19,0.7
,-8.942,1.598,-4.022,-8.995,1.409,-3.977,2.31,1.4,0.56
,-8.921,1.527,-3.934,-8.899,1.608,-4.039,1.61,1.61,0.49
7420.0,-8.906,1.598,-4.085,-8.973,1.412,-3.903,3.43,0.98,0.7
,-8.942,1.529,-4.049,-9.0,1.448,-4.001,2.59,1.26,0.63
,-8.971,1.476,-3.946,-8.957,1.5,-4.018,2.31,1.26,0.63
,-8.971,1.4,-3.941,-8.909,1.539,-4.054,2.59,1.4,0.56
7496.0,-8.899,1.548,-4.044,-8.966,1.407,-3.984,2.73,1.26,0.77
,-8.954,1.472,-4.039,-8.918,1.467,-4.015,2.24,1.12,0.63
,-8.969,1.484,-3.953,-8.875,1.548,-4.034,2.31,1.19,0.7
,-8.997,1.445,-3.965,-8.949,1.584,-3.951,2.73,1.26,0.84
7572.0,-8.954,1.522,-3.905,-8.976,1.426,-3.963,2.38,1.12,0.63
,-8.993,1.503,-3.898,-8.935,1.515,-4.03,2.38,1.4,0.56
,-8.993,1.448,-3.903,-8.938,1.515,-4.07,2.73,1.4,0.7
,-8.985,1.414,-3.936,-8.945,1.546,-4.022,3.22,1.47,0.91
7648.0,-8.928,1.429,-3.977,-8.978,1.457,-4.013,2.03,1.54,0.63
,-8.971,1.429,-3.939,-8.976,1.515,-3.996,1.96,1.33,0.56
,-8.954,1.385,-3.982,-8.88,1.491,-4.066,2.52,1.4,0.7
,-8.964,1.366,-3.982,-8.942,1.496,-4.092,3.08,1.19,0.84
7724.0,-8.916,1.467,-4.085,-8.993,1.491,-3.934,2.17,1.19,0.77
,-8.94,1.496,-4.013,-9.052,1.362,-3.908,2.38,1.05,0.84
,-8.935,1.498,-4.011,-8.961,1.421,-3.951,2.59,0.98,0.7
,-8.997,1.529,-3.951,-8.94,1.472,-3.987,2.73,1.19,0.84
7799.0,-8.918,1.491,-3.982,-8.966,1.412,-3.872,2.8,1.05,0.91
,-8.957,1.529,-3.944,-8.959,1.508,-3.917,2.31,1.26,0.91
,-8.93,1.433,-3.91,-8.961,1.5,-4.03,2.03,1.33,0.91
,-8.954,1.438,-3.824,-8.914,1.522,-4.03,2.52,1.47,0.84
7875.0,-8.911,1.517,-4.106,-8.969,1.505,-4.02,2.31,1.47,0.84
,-8.952,1.481,-4.133,-8.985,1.462,-3.924,2.1,1.26,0.7
,-8.918,1.481,-4.149,-8.964,1.424,-3.972,1.96,1.19,0.77
,-8.933,1.582,-4.075,-8.923,1.429,-4.02,1.75,1.33,0.7
7951.0,-8.88,1.51,-4.039,-8.978,1.412,-3.731,2.66,0.7,0.84
,-8.897,1.519,-4.039,-8.983,1.405,-3.721,2.24,0.63,0.7
,-8.902,1.467,-3.9,-8.981,1.383,-3.819,1.61,0.77,0.7
,-8.993,1.498,-3.838,-8.981,1.498,-3.91,1.33,1.05,0.7
8027.0,-8.961,1.555,-3.996,-8.995,1.405,-3.877,3.36,1.82,0.98
,-8.875,1.567,-4.027,-9.014,1.469,-3.932,2.59,1.61,0.84
,-8.935,1.508,-3.987,-8.993,1.488,-3.941,1.75,1.61,0.84
,-8.94,1.445,-3.903,-8.942,1.474,-3.989,1.75,1.82,0.77
8102.0,-8.909,1.496,-4.197,-9.007,1.448,-3.953,2.87,1.54,1.05
,-8.928,1.488,-4.13,-8.942,1.527,-3.903,2.45,1.61,0.98
,-8.938,1.522,-4.073,-8.945,1.546,-3.869,2.03,1.47,0.91
,-8.935,1.452,-3.955,-8.981,1.5,-3.865,1.89,1.33,0.77
8178.0,-8.976,1.481,-3.934,-8.928,1.577,-3.977,2.66,1.54,0.84
,-8.957,1.476,-3.967,-8.978,1.484,-3.922,3.01,1.4,0.77
,-8.938,1.479,-4.018,-8.976,1.448,-3.874,3.08,1.4,0.7
,-8.945,1.529,-4.042,-8.949,1.407,-3.881,3.08,1.4,0.77
8253.0,-8.964,1.443,-3.932,-8.973,1.414,-4.13,2.94,1.61,0.63
,-8.921,1.467,-4.034,-8.911,1.438,-4.125,3.15,1.61,0.7
,-8.988,1.443,-4.116,-8.916,1.455,-4.125,2.8,1.68,0.7
,-8.976,1.491,-4.154,-8.923,1.531,-4.008,2.45,1.4,0.56
8329.0,-8.957,1.476,-3.958,-8.983,1.517,-3.905,2.1,1.05,0.7
,-8.973,1.462,-3.939,-8.995,1.462,-3.912,2.45,1.19,0.77
,-8.945,1.512,-3.953,-8.966,1.464,-3.848,2.8,1.19,0.77
,-8.947,1.522,-3.92,-9.0,1.424,-3.848,2.59,1.12,0.77
8405.0,-8.988,1.426,-3.891,-8.959,1.508,-3.963,3.08,1.4,0.84
,-8.978,1.438,-3.934,-8.988,1.529,-3.999,3.22,1.54,0.91
,-8.926,1.476,-3.97,-8.969,1.469,-3.982,3.29,1.61,0.91
,-8.914,1.491,-3.96,-8.969,1.462,-4.025,3.01,1.54,0.77
8481.0,-8.966,1.441,-3.996,-8.935,1.498,-4.082,2.73,1.54,0.77
,-8.961,1.421,-4.027,-8.914,1.46,-4.087,2.87,1.61,0.98
,-8.969,1.438,-4.073,-8.966,1.474,-3.977,2.8,1.75,0.98
,-8.952,1.51,-4.066,-8.995,1.436,-3.965,2.66,1.47,0.84
8557.0,-8.957,1.405,-3.955,-8.923,1.508,-4.02,2.31,1.12,0.91
,-8.928,1.424,-4.046,-8.94,1.484,-3.946,2.94,1.05,0.91
,-8.928,1.462,-4.089,-8.952,1.508,-3.812,3.22,1.05,1.05
,-8.894,1.462,-4.104,-9.028,1.479,-3.79,2.87,1.12,0.98
8632.0,-9.038,1.402,-3.848,-8.899,1.56,-4.075,2.73,1.54,0.98
,-9.036,1.414,-3.989,-8.961,1.467,-3.977,3.5,1.4,1.05
,-8.923,1.546,-4.085,-9.009,1.438,-3.924,3.71,1.26,1.12
,-8.911,1.606,-4.154,-8.988,1.484,-3.86,2.87,1.47,0.91
8708.0,-8.973,1.472,-3.855,-8.926,1.484,-4.044,2.66,1.54,0.77
,-8.954,1.455,-3.915,-8.885,1.464,-4.066,2.8,1.61,0.84
,-8.978,1.476,-3.936,-8.942,1.527,-4.011,2.8,1.54,0.84
,-8.945,1.486,-4.027,-8.935,1.51,-3.92,2.73,1.61,0.84
8784.0,-8.964,1.457,-3.893,-8.899,1.512,-4.104,2.87,1.47,0.84
,-8.976,1.452,-3.9,-8.871,1.551,-4.168,3.22,1.4,0.91
,-8.973,1.424,-3.958,-8.938,1.481,-4.128,3.5,1.47,0.91
,-8.952,1.493,-3.967,-8.914,1.464,-4.049,3.64,1.61,0.91
8860.0,-8.978,1.417,-3.979,-8.887,1.529,-4.075,2.38,1.33,0.7
,-8.985,1.407,-3.963,-8.921,1.46,-4.082,2.94,1.12,0.7
,-8.976,1.493,-4.025,-8.923,1.481,-4.066,3.22,0.91,0.63
,-8.966,1.531,-4.046,-8.928,1.474,-3.936,3.08,0.98,0.7
8935.0,-8.99,1.443,-3.92,-8.933,1.393,-3.874,2.1,1.05,0.77
,-8.976,1.5,-3.9,-8.923,1.476,-3.879,2.59,1.05,0.77
,-8.99,1.508,-3.869,-8.961,1.474,-3.829,2.73,1.12,0.84
,-8.93,1.488,-3.915,-8.988,1.493,-3.884,2.59,1.26,0.77
9011.0,-8.983,1.5,-3.936,-8.971,1.472,-4.032,3.15,1.75,0.84
,-8.928,1.469,-3.987,-8.995,1.431,-4.018,3.08,1.75,0.91
,-8.93,1.5,-4.058,-8.971,1.491,-3.979,3.22,1.82,0.91
,-8.976,1.493,-4.013,-8.988,1.402,-4.058,3.01,1.75,0.84
9086.0,-8.928,1.429,-4.106,-8.923,1.426,-3.989,2.8,1.4,0.84
,-8.914,1.496,-4.075,-8.981,1.402,-3.967,2.8,1.4,0.84
,-8.914,1.488,-4.046,-9.007,1.469,-3.932,2.38,1.33,0.84
,-8.926,1.484,-4.022,-8.904,1.505,-3.939,1.96,1.26,0.84
9162.0,-8.981,1.486,-3.941,-8.985,1.464,-3.915,2.73,1.05,0.7
,-8.971,1.438,-3.946,-8.938,1.474,-3.979,2.66,1.54,0.77
,-8.94,1.426,-3.903,-8.911,1.522,-3.987,2.59,1.47,0.84
,-8.985,1.45,-3.912,-8.985,1.46,-3.946,2.66,1.54,0.98
9238.0,-9.026,1.405,-4.037,-8.952,1.455,-3.984,2.1,1.61,0.84
,-8.947,1.45,-4.039,-8.947,1.448,-3.908,2.45,1.54,0.84
,-8.94,1.51,-4.034,-8.978,1.402,-3.944,2.59,1.54,0.98
,-8.938,1.515,-4.006,-8.995,1.395,-3.91,2.31,1.61,0.84
9314.0,-8.964,1.397,-3.975,-8.909,1.505,-4.092,3.15,1.82,0.98
,-8.952,1.493,-4.03,-8.928,1.467,-3.999,3.15,1.54,1.12
,-8.909,1.503,-4.039,-8.926,1.419,-3.924,3.08,1.61,1.12
,-8.902,1.539,-4.104,-9.0,1.457,-3.924,2.73,1.54,0.91
9390.0,-8.961,1.462,-3.96,-8.947,1.51,-4.006,2.87,1.47,0.91
,-8.94,1.481,-4.03,-8.973,1.524,-3.965,2.87,1.47,0.91
,-8.918,1.551,-4.013,-9.026,1.431,-4.025,2.73,1.54,0.91
,-8.94,1.536,-4.015,-9.0,1.438,-4.042,2.38,1.68,0.84
9465.0,-8.933,1.469,-4.068,-8.978,1.457,-3.948,2.8,1.47,0.7
,-8.871,1.505,-4.147,-9.036,1.443,-3.862,2.45,1.54,0.77
,-8.866,1.484,-4.118,-8.981,1.426,-3.9,1.89,1.33,0.7
,-8.957,1.503,-4.049,-8.954,1.433,-3.955,1.61,1.33,0.7
9541.0,-8.926,1.464,-3.944,-8.99,1.462,-3.862,2.8,1.33,0.91
,-8.947,1.5,-3.915,-8.971,1.496,-3.975,2.87,1.68,0.91
,-8.906,1.462,-3.867,-8.902,1.519,-4.056,2.73,1.68,0.84
,-8.981,1.455,-3.86,-8.904,1.565,-4.056,2.87,1.61,0.98
9617.0,-8.926,1.539,-4.054,-8.921,1.429,-4.034,2.73,1.75,0.84
,-8.959,1.476,-3.967,-8.928,1.479,-4.116,2.38,1.96,0.7
,-8.993,1.493,-3.934,-8.909,1.515,-4.161,2.31,2.03,0.7
,-8.945,1.462,-4.027,-8.88,1.553,-4.113,2.45,1.89,0.77
9693.0,-8.945,1.503,-4.07,-8.897,1.503,-3.996,1.33,1.54,0.35
,-8.928,1.409,-4.015,-8.966,1.493,-3.984,1.54,1.54,0.49
,-8.957,1.378,-3.963,-8.973,1.555,-3.963,2.17,1.33,0.56
,-8.916,1.35,-3.967,-8.926,1.457,-3.982,3.01,1.19,0.77
9768.0,-8.94,1.45,-3.967,-8.976,1.431,-3.939,2.52,1.54,0.7
,-8.945,1.424,-3.97,-8.938,1.455,-3.989,2.8,1.47,0.7
,-8.988,1.46,-3.984,-8.935,1.409,-4.013,2.73,1.47,0.63
,-8.954,1.474,-3.9,-8.911,1.481,-4.042,2.94,1.47,0.84
