Timestamp,AccX,AccY,AccZ,GyroX,GyroY,GyroZ,MagnX,MagnY,MagnZ
0.0,-9.21,-0.742,-3.807,-9.194,-0.952,-3.704,1.4,0.63,-0.21
,-9.213,-0.861,-3.783,-9.208,-0.921,-3.707,1.68,0.77,0.0
,-9.21,-0.943,-3.759,-9.182,-0.83,-3.661,2.1,0.63,0.07
,-9.165,-0.974,-3.692,-9.208,-0.821,-3.568,3.22,0.49,0.42
75.0,-9.184,-0.864,-3.472,-9.201,-0.849,-3.446,3.57,0.35,0.35
,-9.225,-0.845,-3.443,-9.244,-0.823,-3.494,3.43,0.63,0.28
,-9.27,-0.881,-3.419,-9.203,-0.909,-3.506,3.29,0.91,0.21
,-9.268,-0.83,-3.465,-9.184,-0.857,-3.532,3.15,1.05,0.28
151.0,-9.141,-0.849,-3.556,-9.167,-0.926,-3.74,1.89,1.75,0.0
,-9.249,-0.883,-3.64,-9.167,-0.983,-3.695,1.4,1.82,-0.07
,-9.186,-0.893,-3.69,-9.194,-0.919,-3.661,0.91,1.68,-0.14
,-9.186,-0.905,-3.771,-9.265,-0.847,-3.673,1.05,1.4,-0.21
227.0,-9.21,-0.833,-3.58,-9.177,-0.914,-3.57,2.45,1.26,0.14
,-9.222,-0.881,-3.565,-9.201,-0.981,-3.563,1.75,1.19,0.07
,-9.206,-0.847,-3.565,-9.208,-0.972,-3.592,1.4,1.26,-0.14
,-9.201,-0.893,-3.575,-9.225,-0.993,-3.604,1.12,1.33,-0.14
302.0,-9.229,-0.945,-3.757,-9.117,-0.979,-3.75,1.61,1.61,0.0
,-9.206,-0.847,-3.714,-9.136,-1.003,-3.771,2.1,1.47,0.07
,-9.148,-0.782,-3.721,-9.119,-1.027,-3.745,2.31,1.61,0.14
,-9.165,-0.833,-3.802,-9.134,-0.969,-3.69,1.96,1.33,0.21
378.0,-9.194,-0.916,-3.683,-9.162,-0.928,-3.479,3.85,0.7,0.56
,-9.191,-0.881,-3.577,-9.208,-0.938,-3.405,3.57,0.91,0.7
,-9.201,-0.924,-3.513,-9.189,-0.861,-3.35,3.08,1.05,0.77
,-9.177,-0.948,-3.465,-9.206,-0.876,-3.57,2.87,1.12,0.84
453.0,-9.251,-0.84,-3.611,-9.139,-0.979,-3.398,2.45,1.54,0.77
,-9.196,-0.849,-3.642,-9.201,-1.015,-3.429,1.75,1.75,0.7
,-9.194,-0.964,-3.601,-9.21,-0.936,-3.62,1.4,1.54,0.7
,-9.119,-0.981,-3.561,-9.215,-0.981,-3.743,1.75,1.68,0.7
529.0,-9.146,-0.931,-3.903,-9.208,-0.818,-3.613,1.26,1.61,1.4
,-9.139,-0.976,-4.042,-9.201,-0.804,-3.687,1.54,1.68,1.47
,-9.16,-1.0,-3.975,-9.182,-0.854,-3.668,2.38,1.54,1.61
,-9.203,-0.89,-3.769,-9.215,-0.84,-3.666,3.29,1.33,1.82
605.0,-9.129,-0.842,-3.618,-9.265,-0.976,-3.539,3.22,0.28,1.75
,-9.064,-0.897,-3.69,-9.304,-0.883,-3.582,2.45,0.0,1.68
,-9.105,-1.027,-3.68,-9.234,-0.782,-3.551,2.45,-0.14,1.75
,-9.129,-1.017,-3.463,-9.148,-0.893,-3.575,3.15,-0.07,1.82
681.0,-9.208,-0.96,-3.652,-9.27,-0.802,-3.817,3.22,0.14,2.1
,-9.16,-1.027,-3.671,-9.261,-0.754,-3.867,4.06,0.21,2.24
,-9.206,-1.086,-3.731,-9.251,-0.785,-3.752,5.53,0.21,2.52
,-9.287,-0.948,-3.805,-9.122,-0.778,-3.656,6.23,-0.07,2.52
757.0,-9.141,-0.792,-3.869,-9.225,-1.041,-3.376,5.32,-1.26,1.96
,-9.227,-0.802,-3.841,-9.196,-1.041,-3.245,6.09,-1.19,2.1
,-9.256,-0.792,-3.618,-9.222,-0.897,-3.362,5.88,-1.26,2.03
,-9.225,-0.897,-3.513,-9.344,-0.804,-3.398,4.97,-1.4,2.03
832.0,-9.318,-0.641,-3.077,-9.172,-0.926,-3.209,6.79,0.0,2.66
,-9.383,-0.625,-3.233,-9.311,-0.909,-3.12,4.76,0.14,2.38
,-9.196,-0.761,-3.18,-9.387,-0.629,-3.116,2.45,0.77,2.17
,-9.158,-0.89,-3.171,-9.495,-0.443,-3.408,2.03,1.19,2.03
908.0,-9.392,-0.316,-3.802,-9.129,-1.192,-4.097,-0.21,1.68,0.49
,-9.093,-0.522,-3.905,-9.239,-1.048,-4.011,-3.78,1.26,0.14
,-9.012,-0.881,-4.054,-9.304,-0.955,-3.817,-5.39,0.84,0.07
,-8.973,-1.129,-4.099,-9.311,-0.826,-3.788,-4.06,0.42,0.14
984.0,-9.301,-0.658,-3.845,-9.127,-1.012,-3.69,3.64,-1.12,1.47
,-9.213,-0.689,-3.862,-9.232,-1.01,-3.592,2.38,-1.82,1.19
,-9.198,-0.873,-3.941,-9.246,-0.871,-3.587,1.68,-2.52,1.05
,-9.131,-0.995,-3.81,-9.261,-0.931,-3.597,2.17,-2.87,1.12
1060.0,-9.316,-1.003,-3.455,-9.239,-0.51,-3.644,3.64,-3.71,1.68
,-9.282,-1.024,-3.582,-9.294,-0.419,-3.312,5.46,-3.71,1.82
,-9.249,-0.905,-3.573,-9.34,-0.541,-3.326,7.35,-3.78,1.82
,-9.261,-0.596,-3.606,-9.268,-0.771,-3.199,7.84,-4.2,1.47
1135.0,-9.294,-0.806,-3.099,-9.344,-0.747,-3.175,3.5,-4.34,0.63
,-9.383,-0.857,-3.104,-9.263,-0.627,-3.235,4.2,-4.13,0.77
,-9.342,-0.943,-3.116,-9.234,-0.651,-3.106,4.69,-3.85,0.84
,-9.344,-0.809,-3.108,-9.273,-0.773,-3.065,5.32,-3.36,0.91
1211.0,-9.359,-0.842,-2.967,-9.292,-0.742,-3.116,0.35,-2.59,-0.21
,-9.457,-0.696,-2.958,-9.301,-0.838,-3.046,0.21,-2.52,-0.42
,-9.493,-0.668,-3.084,-9.196,-1.077,-2.898,-1.4,-2.45,-0.84
,-9.342,-0.763,-3.139,-9.299,-1.354,-2.718,-2.94,-2.24,-0.98
1286.0,-9.375,-1.285,-2.517,-9.359,-0.213,-3.094,1.82,0.91,0.98
,-9.476,-1.213,-2.848,-9.131,-0.459,-2.924,3.36,1.33,1.05
,-9.363,-0.94,-3.049,-9.206,-0.766,-3.19,2.17,1.4,0.7
,-9.383,-0.51,-2.869,-9.198,-0.885,-3.183,0.21,1.54,0.42
1362.0,-9.265,-1.062,-3.061,-9.474,-1.06,-2.687,-10.15,3.29,-0.42
,-9.282,-1.472,-3.154,-9.5,-0.412,-2.953,-8.61,3.5,0.28
,-9.146,-1.91,-2.917,-9.481,-0.105,-2.692,-5.04,4.34,1.54
,-9.208,-1.625,-2.565,-9.361,-0.108,-3.147,2.31,5.39,2.87
1438.0,-9.174,-0.467,-3.187,-9.215,-1.05,-3.211,1.4,6.16,2.73
,-9.251,-0.802,-3.35,-9.215,-1.07,-2.831,1.33,6.3,2.73
,-9.124,-0.928,-3.367,-9.397,-1.034,-3.132,1.47,6.23,2.24
,-9.28,-1.034,-3.118,-9.43,-0.895,-2.709,2.38,6.86,2.24
1514.0,-9.495,-0.637,-3.223,-8.849,-1.914,-3.336,5.25,8.4,2.73
,-9.086,-0.546,-3.58,-8.942,-2.082,-3.362,1.68,7.28,2.1
,-9.069,-0.718,-3.838,-9.1,-1.689,-3.34,-1.61,6.86,2.52
,-9.072,-1.187,-4.223,-9.351,-1.371,-2.778,-4.41,7.0,2.94
1589.0,-9.378,-1.046,-2.316,-9.313,0.431,-3.101,25.76,15.61,9.1
,-9.289,-0.66,-1.936,-9.143,-0.115,-3.312,27.23,17.64,9.73
,-9.533,0.007,-2.056,-8.904,-0.637,-2.953,27.72,17.92,9.38
,-9.481,0.625,-3.034,-9.016,-0.436,-3.137,21.63,16.24,7.56
1665.0,-9.143,0.225,-3.874,-9.119,-0.057,-2.996,4.69,18.41,-0.91
,-9.227,0.55,-3.79,-9.165,0.309,-3.544,2.1,18.62,-2.31
,-9.095,0.493,-3.872,-9.265,0.357,-3.965,-2.8,19.67,-2.73
,-8.942,0.012,-3.317,-9.155,-0.158,-4.566,-5.25,21.42,-2.94
1741.0,-8.959,-1.235,-4.537,-8.717,-2.113,-4.338,-18.06,16.17,-6.23
,-8.875,-2.07,-4.511,-8.739,-1.888,-4.484,-15.4,16.59,-4.76
,-8.844,-2.331,-4.472,-8.926,-1.68,-4.243,-9.66,16.52,-3.99
,-8.859,-2.448,-4.317,-9.024,-1.316,-4.13,-4.06,16.31,-3.01
1817.0,-8.875,-0.948,-4.07,-9.033,-0.215,-4.547,7.21,15.82,1.61
,-8.789,-0.45,-4.252,-8.985,-0.471,-4.247,7.0,15.19,1.68
,-8.916,-0.093,-4.549,-8.76,-0.62,-4.092,5.6,13.86,1.47
,-9.139,-0.062,-4.637,-8.744,-0.66,-4.054,3.43,12.88,1.4
1893.0,-8.978,-0.787,-3.996,-8.789,-0.055,-4.362,5.74,14.28,-0.63
,-9.103,-0.759,-3.953,-8.923,0.244,-4.678,6.44,14.42,0.07
,-9.033,-0.766,-4.018,-9.016,0.385,-5.075,5.6,14.49,0.63
,-9.024,-0.55,-3.982,-8.959,0.416,-5.3,6.09,13.93,0.28
1968.0,-8.926,0.644,-5.312,-8.643,-0.493,-4.671,-2.87,8.89,-8.47
,-8.847,0.847,-5.561,-8.677,-1.192,-4.245,-3.99,7.91,-11.34
,-8.847,0.634,-5.418,-8.823,-1.704,-4.037,-5.53,7.7,-13.72
,-8.71,0.153,-5.09,-8.928,-2.19,-4.161,-7.28,7.28,-15.33
2044.0,-8.88,-2.407,-4.386,-8.88,-1.888,-4.915,-1.47,7.07,-9.59
,-8.727,-2.541,-4.637,-8.777,-1.058,-5.001,1.05,6.51,-7.42
,-8.763,-2.57,-4.623,-8.492,-0.38,-5.351,3.43,6.65,-6.02
,-8.949,-2.374,-4.592,-8.418,0.01,-5.492,6.58,6.44,-4.97
2119.0,-8.626,-0.053,-5.336,-8.768,-1.929,-4.85,-4.41,-0.91,-6.23
,-8.777,-0.462,-5.126,-8.65,-2.426,-4.628,-6.93,-0.28,-6.23
,-8.825,-0.909,-4.963,-8.799,-2.833,-4.429,-7.0,0.07,-5.88
,-8.82,-1.436,-4.984,-8.784,-3.049,-4.539,-5.95,-0.14,-4.97
2195.0,-8.873,-3.022,-4.503,-8.332,-2.321,-4.721,10.78,1.12,5.81
,-8.756,-2.898,-4.604,-8.44,-2.113,-4.582,11.48,0.98,7.91
,-8.674,-2.637,-4.468,-8.71,-1.706,-4.338,11.13,-0.28,10.08
,-8.346,-2.448,-4.63,-8.789,-1.137,-4.417,9.24,-1.12,11.83
2271.0,-8.806,-0.601,-4.336,-8.882,-0.108,-4.08,10.99,0.14,13.93
,-8.748,-0.359,-4.259,-9.299,-0.067,-3.812,10.85,0.07,13.58
,-8.655,-0.313,-4.118,-8.957,-0.034,-3.824,10.08,0.56,13.09
,-8.758,-0.292,-4.025,-8.564,-0.242,-3.946,10.57,1.61,12.81
2347.0,-8.583,-0.239,-4.063,-8.911,-0.072,-4.305,15.19,2.59,9.45
,-8.997,0.144,-4.267,-8.808,-0.378,-4.554,17.5,3.36,7.42
,-9.062,0.414,-4.398,-8.839,-0.385,-4.721,18.06,3.57,4.69
,-8.971,0.251,-4.357,-8.997,-0.471,-4.769,15.75,3.99,2.8
2422.0,-8.861,-0.821,-4.472,-8.945,-0.543,-4.532,8.12,4.34,-2.03
,-8.715,-0.948,-4.417,-8.746,-0.323,-4.578,8.26,3.71,-2.31
,-8.765,-1.017,-4.408,-8.739,-0.239,-4.793,9.24,3.64,-2.59
,-9.103,-0.828,-4.374,-8.801,-0.412,-4.731,10.71,1.82,-2.45
2498.0,-8.93,-0.459,-4.755,-8.413,-1.536,-4.91,8.33,1.19,-7.42
,-8.938,-0.357,-4.944,-8.497,-2.197,-4.815,8.75,0.42,-7.77
,-8.763,-0.625,-4.905,-8.873,-2.527,-4.812,7.84,0.42,-7.49
,-8.619,-1.11,-4.915,-9.005,-2.761,-4.597,6.79,-0.84,-6.65
2573.0,-8.964,-2.675,-4.432,-8.801,-0.45,-4.781,16.73,0.0,0.7
,-9.057,-2.163,-4.542,-8.844,-0.491,-4.879,21.07,0.28,1.26
,-9.074,-1.397,-4.633,-8.54,-0.787,-4.86,22.89,0.21,1.33
,-8.938,-0.857,-4.647,-8.428,-1.381,-4.642,21.63,-0.49,0.98
2649.0,-8.638,-1.558,-4.716,-9.086,-1.328,-4.496,7.28,-3.01,3.57
,-8.734,-1.747,-4.585,-8.897,-0.902,-4.573,8.47,-3.15,4.13
,-8.938,-1.618,-4.489,-9.026,-0.763,-4.592,11.69,-3.15,4.48
,-9.141,-1.464,-4.477,-9.131,-0.689,-4.271,12.39,-3.36,4.62
2725.0,-9.127,-0.22,-4.367,-8.928,-1.685,-4.133,10.71,-6.65,1.4
,-8.497,-0.297,-4.664,-9.167,-1.914,-4.049,6.86,-7.91,1.26
,-8.275,-0.921,-4.518,-8.981,-2.091,-3.912,2.59,-7.49,1.4
,-8.696,-1.431,-4.264,-8.918,-2.185,-3.788,0.42,-6.79,1.89
2801.0,-8.717,-2.111,-3.812,-8.976,-0.093,-4.13,8.12,-5.04,4.76
,-8.646,-1.551,-4.073,-8.976,-0.414,-4.039,11.62,-4.27,4.97
,-8.827,-0.806,-4.097,-8.854,-1.041,-4.008,13.58,-3.85,4.34
,-8.914,-0.352,-4.089,-8.658,-1.596,-3.869,12.32,-4.2,3.5
2877.0,-8.823,-1.68,-3.673,-9.351,-1.019,-3.987,3.71,-0.7,4.34
,-9.005,-1.374,-3.649,-8.806,-1.084,-3.967,7.56,0.21,4.41
,-9.184,-1.034,-3.869,-8.813,-1.189,-3.972,9.31,0.7,3.99
,-9.304,-0.907,-3.996,-8.918,-1.402,-4.008,8.05,0.77,3.78
2952.0,-8.787,-1.788,-4.022,-8.801,-0.998,-4.221,-3.01,2.45,5.67
,-8.88,-1.795,-3.999,-8.892,-1.036,-4.02,-2.31,3.36,6.44
,-8.981,-1.575,-3.984,-8.921,-0.885,-4.085,-0.91,4.2,7.07
,-8.938,-1.12,-4.166,-8.794,-0.823,-4.286,0.28,4.62,7.28
3028.0,-8.93,-0.708,-4.448,-9.024,-0.493,-4.451,-1.54,7.0,7.91
,-9.1,-0.849,-4.288,-9.045,-0.634,-4.341,-2.24,7.49,7.98
,-9.069,-0.792,-4.097,-8.914,-0.483,-4.436,-2.73,7.98,8.33
,-9.045,-0.479,-4.393,-8.904,-0.256,-4.482,-3.85,7.91,8.33
3104.0,-9.06,-0.237,-4.52,-9.124,-0.873,-4.482,-12.25,7.07,5.39
,-9.098,-0.239,-4.585,-9.208,-1.072,-4.398,-13.51,6.86,4.41
,-9.129,-0.316,-4.535,-9.143,-1.134,-4.432,-14.77,7.0,3.64
,-9.141,-0.529,-4.587,-9.038,-0.957,-4.367,-15.4,6.93,3.22
3180.0,-8.842,-0.73,-4.408,-9.045,-0.409,-4.472,-7.42,5.25,5.04
,-8.658,-0.759,-4.365,-8.854,-0.297,-4.551,-8.19,5.18,4.69
,-8.76,-0.656,-4.58,-8.717,-0.318,-4.389,-8.61,5.25,3.71
,-9.093,-0.601,-4.472,-8.622,-0.151,-4.446,-8.96,4.97,3.01
3255.0,-8.827,-0.17,-4.506,-8.681,-0.625,-4.398,-14.07,4.97,0.49
,-9.036,-0.101,-4.427,-8.871,-0.799,-4.372,-13.79,4.83,-0.49
,-8.947,-0.122,-4.477,-9.026,-0.761,-4.499,-13.3,4.76,-1.12
,-8.82,-0.385,-4.42,-9.007,-0.629,-4.549,-13.16,5.18,-1.33
3331.0,-8.964,-0.574,-4.585,-8.775,-0.921,-4.637,-5.25,5.18,-2.03
,-8.792,-0.558,-4.843,-8.82,-1.005,-4.625,-6.09,4.55,-2.1
,-8.796,-0.725,-4.752,-8.926,-0.983,-4.728,-6.16,4.62,-2.45
,-8.851,-0.778,-4.695,-8.942,-0.881,-4.879,-5.6,4.48,-2.73
3406.0,-8.88,-0.766,-4.98,-8.847,-1.263,-4.853,-1.19,2.1,-1.75
,-8.658,-0.809,-5.111,-9.074,-1.122,-4.819,-1.33,1.4,-1.61
,-8.588,-1.034,-5.099,-8.945,-0.964,-5.032,-0.98,1.33,-1.4
,-8.543,-1.204,-5.061,-8.638,-1.003,-5.035,0.14,1.33,-1.19
3482.0,-8.717,-1.106,-4.838,-8.823,-0.866,-4.669,2.94,0.14,1.4
,-8.634,-1.254,-4.877,-8.923,-0.67,-4.551,2.8,-0.91,2.31
,-8.612,-1.426,-4.697,-8.921,-0.565,-4.477,3.64,-0.91,2.87
,-8.655,-1.199,-4.645,-9.016,-0.507,-4.446,6.23,-0.63,3.08
3558.0,-9.031,-0.577,-4.362,-8.792,-0.201,-4.508,6.58,-0.42,3.01
,-8.921,-0.471,-4.403,-8.839,-0.163,-4.346,7.77,-0.84,3.43
,-8.849,-0.371,-4.42,-8.701,-0.089,-4.566,8.89,-0.77,3.08
,-8.923,-0.388,-4.396,-8.772,-0.074,-4.59,8.4,-2.03,2.38
3634.0,-8.605,-0.742,-4.259,-8.679,-0.457,-5.013,-2.03,-6.65,-0.42
,-8.94,-0.931,-4.111,-8.758,-0.457,-4.929,-3.57,-6.79,-1.05
,-9.048,-0.773,-4.417,-8.916,-0.565,-4.815,-0.91,-6.65,-1.19
,-8.916,-0.553,-4.812,-9.098,-0.749,-4.652,1.05,-6.79,-0.77
3709.0,-8.964,-0.96,-4.575,-8.847,-1.12,-4.413,3.01,-6.16,-1.19
,-8.995,-1.05,-4.513,-8.894,-1.0,-4.458,2.52,-7.42,-0.7
,-8.837,-1.005,-4.635,-8.993,-0.854,-4.267,1.19,-10.08,-0.56
,-8.701,-1.074,-4.669,-8.844,-0.838,-4.231,0.77,-11.06,-0.28
3785.0,-8.758,-0.811,-4.133,-9.064,-0.574,-3.793,3.22,-10.99,1.75
,-8.804,-0.768,-3.965,-7.413,-0.416,-2.005,4.34,-9.8,1.96
,-9.009,-0.727,-3.841,-8.959,-0.529,-3.738,6.02,-8.68,2.1
,-9.139,-0.565,-3.857,-9.088,-0.22,-4.113,7.21,-7.7,2.24
3861.0,-9.012,-0.593,-3.795,-8.902,-1.117,-3.582,-2.52,-12.81,0.35
,-8.954,-0.704,-3.953,-9.136,-0.945,-3.355,-3.64,-14.21,0.21
,-8.827,-0.706,-3.96,-9.308,-0.452,-3.503,-3.22,-14.42,0.77
,-8.871,-0.993,-3.874,-9.141,-0.187,-3.52,-3.64,-13.51,1.19
3937.0,-8.978,-0.354,-3.661,-9.17,-0.675,-3.357,1.4,-8.89,1.33
,-8.78,-0.771,-3.484,-9.167,-0.469,-3.369,0.35,-7.35,1.82
,-9.036,-1.115,-3.609,-9.251,-0.44,-3.568,1.96,-6.86,1.82
,-9.165,-1.046,-3.393,-9.165,-0.179,-3.843,4.55,-7.14,1.19
4013.0,-9.232,-0.191,-3.826,-9.34,-0.323,-3.833,2.31,-6.65,0.07
,-9.069,-0.342,-4.042,-9.38,-0.402,-3.62,0.42,-6.72,-0.91
,-8.916,-0.62,-3.862,-9.33,-0.538,-3.479,-0.98,-7.42,-1.61
,-9.033,-0.55,-3.783,-9.124,-0.744,-3.47,-0.28,-8.12,-1.4
4088.0,-8.94,-1.223,-3.187,-9.282,-0.72,-3.281,-3.43,-6.93,-2.66
,-8.973,-1.297,-3.111,-9.507,-0.893,-3.381,-0.07,-6.23,-1.61
,-9.148,-1.151,-3.312,-9.301,-0.739,-3.13,3.08,-6.16,-0.77
,-9.15,-0.869,-3.18,-9.174,-0.318,-3.503,5.11,-5.88,0.07
4164.0,-9.203,-0.062,-3.752,-9.208,-0.775,-3.307,1.19,-7.14,-2.24
,-9.139,-0.139,-3.776,-9.294,-0.596,-3.364,-2.52,-7.77,-2.87
,-9.117,-0.055,-3.944,-9.383,-0.641,-3.118,-4.9,-7.98,-3.36
,-9.11,-0.519,-3.692,-9.454,-0.565,-3.163,-6.02,-7.7,-3.64
4239.0,-9.292,-0.646,-3.307,-9.215,-0.419,-3.606,-0.98,-6.65,-3.43
,-9.234,-0.83,-2.982,-9.213,-0.546,-3.597,0.84,-6.09,-2.87
,-9.332,-0.584,-3.743,-9.373,-0.814,-3.393,1.4,-6.51,-3.5
,-9.203,-0.507,-3.616,-9.38,-0.555,-3.563,0.28,-6.93,-3.85
4315.0,-9.131,-0.352,-3.015,-9.292,-1.278,-2.338,-5.67,-9.59,-6.58
,-9.165,-0.57,-2.824,-9.442,-0.849,-2.57,-9.17,-9.24,-6.72
,-9.158,-1.261,-2.414,-9.488,-0.718,-2.699,-9.73,-7.84,-6.3
,-9.356,-1.419,-2.505,-9.342,-0.713,-2.871,-5.81,-6.23,-5.39
4391.0,-9.304,-0.821,-2.804,-9.249,-1.015,-3.331,1.12,-1.47,-3.22
,-9.354,-0.804,-3.032,-9.292,-1.022,-3.436,1.82,-0.98,-3.15
,-9.474,-0.799,-3.376,-9.28,-1.216,-3.455,2.17,-0.7,-3.29
,-9.356,-0.871,-3.443,-9.284,-1.18,-3.262,1.75,-0.91,-3.15
4467.0,-9.371,-1.182,-3.192,-9.261,-0.787,-3.587,5.6,0.07,-0.56
,-9.45,-1.177,-3.309,-9.251,-1.184,-3.065,6.79,-0.07,-0.35
,-9.313,-0.907,-3.463,-9.328,-1.201,-2.783,6.93,-0.42,-0.42
,-9.239,-0.751,-3.494,-9.387,-1.089,-2.79,6.79,-0.77,-0.35
4542.0,-9.414,-0.773,-2.895,-9.275,-1.244,-2.328,9.52,-0.35,1.05
,-9.392,-0.543,-2.826,-9.459,-1.046,-2.324,8.61,-0.21,1.05
,-9.361,-0.804,-2.704,-9.507,-0.838,-2.326,6.37,0.14,1.05
,-9.313,-1.098,-2.508,-9.509,-0.715,-2.522,6.16,0.98,1.19
4618.0,-9.354,-0.842,-2.737,-9.323,-0.646,-3.62,1.47,4.83,1.12
,-9.287,-1.027,-2.781,-9.273,-0.694,-3.747,0.21,5.6,1.05
,-9.287,-1.053,-3.051,-9.237,-0.68,-3.793,1.05,5.74,1.12
,-9.292,-0.878,-3.307,-9.215,-0.847,-3.838,2.59,5.67,1.19
4693.0,-9.153,-0.95,-3.752,-9.442,-0.684,-3.357,1.82,3.29,0.91
,-9.234,-0.979,-3.527,-9.375,-0.818,-3.221,2.03,3.01,1.05
,-9.371,-0.936,-3.431,-9.335,-0.861,-3.238,2.24,2.59,1.05
,-9.447,-0.78,-3.419,-9.361,-0.809,-3.204,2.73,2.31,0.84
4769.0,-9.33,-0.761,-3.159,-9.282,-1.108,-3.329,2.73,2.17,0.98
,-9.39,-0.744,-3.192,-9.347,-0.983,-3.441,2.94,2.31,0.91
,-9.33,-0.912,-3.262,-9.32,-0.852,-3.453,2.66,2.31,1.12
,-9.261,-1.012,-3.345,-9.311,-0.747,-3.424,2.45,2.24,1.12
4845.0,-9.32,-0.79,-3.357,-9.373,-0.749,-3.094,3.92,1.54,1.54
,-9.256,-0.842,-3.367,-9.323,-0.928,-3.063,3.78,1.26,1.47
,-9.368,-0.878,-3.276,-9.275,-1.041,-3.058,3.15,0.98,1.05
,-9.332,-0.828,-3.151,-9.304,-1.007,-3.171,2.52,1.19,0.91
4921.0,-9.282,-1.05,-3.283,-9.354,-0.759,-3.412,1.96,1.82,1.26
,-9.268,-0.988,-3.168,-9.34,-0.833,-3.381,2.31,2.1,1.68
,-9.337,-0.857,-3.329,-9.32,-0.849,-3.259,2.66,2.17,1.54
,-9.332,-0.782,-3.34,-9.318,-0.869,-3.367,2.31,2.24,1.33
4997.0,-9.34,-0.857,-3.257,-9.342,-0.756,-3.472,1.75,1.75,1.26
,-9.387,-0.735,-3.326,-9.206,-0.845,-3.41,1.89,1.4,1.19
,-9.359,-0.814,-3.429,-9.222,-0.936,-3.329,1.33,1.12,1.05
,-9.378,-0.768,-3.429,-9.275,-0.914,-3.214,0.49,0.7,0.7
5072.0,-9.426,-0.794,-3.283,-9.311,-0.83,-3.125,-0.42,0.28,0.28
,-9.378,-0.634,-3.269,-9.179,-0.95,-3.005,-1.26,-0.28,0.07
,-9.342,-0.55,-3.171,-9.301,-0.933,-2.871,-3.15,-0.35,-0.28
,-9.34,-0.62,-3.151,-9.332,-0.847,-2.694,-5.18,-0.35,-0.49
5148.0,-9.474,-0.739,-2.687,-9.177,-0.806,-3.049,-3.64,1.82,-0.35
,-9.469,-0.524,-2.721,-9.227,-0.964,-3.005,-4.69,1.82,-0.7
,-9.361,-0.467,-2.936,-9.392,-1.053,-2.941,-7.0,1.89,-1.12
,-9.332,-0.732,-3.02,-9.452,-0.883,-3.084,-9.24,2.24,-1.54
5224.0,-9.411,-0.644,-3.338,-9.213,-1.108,-3.116,-8.89,3.64,-1.12
,-9.354,-0.718,-3.352,-9.351,-1.041,-3.001,-10.57,3.43,-1.12
,-9.201,-0.828,-3.465,-9.349,-0.644,-3.348,-11.48,3.15,-0.98
,-9.162,-0.852,-3.53,-9.234,-0.572,-3.345,-10.64,3.29,-0.7
5300.0,-9.275,-0.739,-3.25,-9.234,-1.031,-2.953,-9.66,3.43,0.07
,-9.318,-0.976,-3.12,-9.411,-0.916,-3.156,-8.96,3.99,0.49
,-9.371,-1.074,-3.001,-9.337,-0.715,-3.47,-6.93,4.9,1.19
,-9.344,-1.074,-3.068,-9.311,-0.78,-3.331,-4.62,5.53,1.68
5375.0,-9.28,-0.888,-3.491,-9.533,-0.409,-3.3,0.91,6.51,2.94
,-9.1,-1.041,-3.453,-9.373,-0.074,-3.979,2.59,7.56,3.43
,-9.112,-1.141,-3.135,-9.184,-0.4,-3.917,5.74,8.61,4.06
,-9.337,-0.998,-3.02,-9.072,-0.866,-3.826,9.03,9.24,4.27
5451.0,-8.961,-1.189,-3.417,-9.311,-0.715,-3.29,1.12,6.23,3.15
,-9.186,-1.108,-3.561,-9.284,-0.974,-2.635,4.06,6.16,3.15
,-9.301,-0.73,-3.388,-9.395,-0.641,-3.47,6.09,5.88,3.08
,-9.438,-0.481,-3.376,-9.34,-0.354,-3.446,4.9,5.74,2.94
5526.0,-9.273,-0.12,-4.259,-9.024,-1.426,-3.838,0.84,4.27,3.08
,-9.04,-0.455,-4.551,-9.031,-1.295,-3.419,-2.8,3.78,2.94
,-8.981,-0.945,-4.745,-9.33,-1.036,-2.087,-1.96,3.64,3.36
,-8.954,-1.247,-4.547,-9.545,-0.44,-2.06,1.89,3.78,3.78
5602.0,-9.631,0.299,-1.041,-8.914,-1.606,-3.977,22.33,9.17,5.11
,-9.67,1.378,-2.737,-8.782,-2.393,-3.582,12.25,6.3,2.24
,-9.442,1.048,-3.259,-8.928,-1.668,-2.871,-5.04,3.99,0.28
,-9.32,-0.105,-3.786,-9.107,-1.07,-3.278,-19.39,4.06,-0.14
5678.0,-9.11,-0.715,-2.687,-9.239,-0.39,-3.735,5.74,11.27,2.17
,-9.344,-0.467,-3.278,-9.045,-0.237,-4.03,4.62,10.22,2.94
,-9.356,-0.675,-3.197,-8.94,-0.498,-4.018,1.96,10.01,3.22
,-9.471,-0.608,-3.47,-8.823,-1.06,-3.549,2.52,10.08,3.78
5754.0,-8.945,-1.228,-2.759,-9.313,0.5,-5.054,1.89,13.86,2.66
,-9.186,-0.914,-2.635,-8.938,0.163,-5.365,7.42,14.14,2.52
,-9.371,-0.352,-2.819,-8.696,-0.239,-5.016,7.84,12.32,2.03
,-9.514,0.266,-4.118,-8.825,-0.397,-4.922,4.13,8.54,1.82
5830.0,-8.959,-0.512,-4.805,-9.093,-0.797,-3.142,-0.98,7.21,-0.84
,-9.052,-0.905,-4.24,-9.507,-0.593,-3.884,-0.56,8.19,-0.98
,-9.093,-1.149,-3.477,-9.608,-0.433,-4.329,0.07,9.52,-0.63
,-9.129,-1.115,-2.761,-9.191,-0.897,-4.542,4.48,10.99,0.0
5905.0,-8.708,-1.625,-4.185,-9.301,-0.457,-4.341,-3.64,7.84,3.08
,-8.567,-1.948,-4.006,-9.201,-0.79,-4.401,2.1,10.36,4.13
,-8.689,-1.567,-3.891,-8.842,-1.275,-4.087,9.8,10.57,5.25
,-9.15,-0.9,-3.958,-8.715,-1.263,-3.431,14.84,9.31,5.88
5981.0,-8.993,-0.526,-3.139,-8.894,0.94,-3.726,19.81,11.06,5.53
,-9.344,0.548,-3.283,-8.847,0.436,-3.597,23.59,10.15,3.85
,-9.38,1.125,-3.707,-8.942,-0.002,-3.465,19.6,8.61,3.08
,-9.182,1.201,-3.829,-9.189,-0.39,-3.451,11.83,9.38,2.8
6057.0,-9.273,-0.596,-3.41,-8.799,-0.378,-4.164,5.11,15.12,-1.4
,-9.328,-0.534,-3.297,-8.868,-0.514,-4.305,6.16,14.28,-1.54
,-8.861,-0.278,-3.709,-8.906,-0.718,-4.386,5.53,13.23,-2.24
,-8.717,-0.201,-3.953,-9.007,-0.771,-4.511,3.92,12.95,-2.59
6133.0,-8.954,-0.826,-4.523,-8.794,-1.232,-4.793,1.75,15.47,-3.64
,-9.005,-0.962,-4.575,-8.854,-1.053,-5.004,1.05,14.77,-3.29
,-9.005,-1.129,-4.568,-8.894,-0.771,-5.257,-0.21,12.81,-2.59
,-8.914,-1.223,-4.642,-8.825,-0.634,-5.336,0.07,11.55,-1.89
6208.0,-8.665,-0.725,-5.142,-8.89,-0.302,-4.994,5.67,9.03,-1.19
,-8.789,-0.737,-4.917,-8.54,-0.385,-5.03,4.27,9.03,-0.98
,-8.902,-0.744,-4.927,-8.581,-0.658,-4.822,3.43,7.77,-1.12
,-9.158,-0.577,-4.791,-8.818,-0.782,-4.783,2.45,5.39,-1.19
6284.0,-9.005,-0.79,-4.719,-8.643,-1.086,-4.757,-0.28,3.78,-0.07
,-8.885,-0.704,-4.774,-8.748,-1.546,-4.659,1.19,3.36,-0.07
,-8.844,-0.682,-4.623,-8.665,-1.989,-4.508,1.33,3.01,0.42
,-8.696,-0.675,-4.709,-8.667,-2.343,-4.441,0.35,2.38,1.05
6359.0,-8.813,-2.436,-4.374,-8.54,-0.943,-4.226,3.92,3.5,8.47
,-8.923,-2.182,-4.48,-8.88,-0.385,-4.166,7.49,3.36,10.08
,-8.981,-1.613,-4.556,-9.028,0.268,-4.305,10.01,1.82,11.27
,-8.646,-1.244,-4.511,-8.851,0.866,-4.322,9.59,1.4,12.11
6435.0,-8.78,1.256,-4.561,-8.916,0.019,-3.879,2.38,-1.47,8.47
,-8.827,1.027,-4.393,-8.827,-0.079,-3.683,-1.47,-0.35,6.79
,-8.94,0.591,-4.125,-8.914,0.079,-3.929,-3.85,-0.14,5.32
,-9.06,0.514,-4.623,-9.11,0.117,-3.991,-4.27,-0.84,3.85
6511.0,-9.1,0.189,-4.166,-8.378,-0.95,-4.812,5.53,0.91,-2.24
,-8.983,0.129,-4.422,-8.746,-1.383,-4.683,6.23,0.84,-3.64
,-8.715,0.024,-4.592,-9.019,-1.642,-4.575,5.6,1.19,-4.27
,-8.387,-0.349,-4.752,-9.026,-1.835,-4.463,4.2,1.26,-4.06
6587.0,-8.942,-1.843,-4.432,-8.708,-0.761,-4.716,12.32,2.73,0.56
,-9.139,-1.565,-4.453,-8.949,-0.658,-4.685,14.77,2.24,1.19
,-8.832,-1.199,-4.575,-9.119,-0.378,-4.7,16.45,2.1,1.47
,-8.531,-0.96,-4.618,-8.935,-0.024,-4.764,17.29,2.8,1.61
6662.0,-8.6,0.141,-4.8,-9.024,-0.196,-4.276,16.24,0.35,0.28
,-8.603,0.136,-4.685,-8.77,-0.151,-4.46,15.47,0.21,-0.49
,-8.868,-0.002,-4.501,-8.698,-0.325,-4.511,14.56,0.49,-0.91
,-9.241,-0.136,-4.149,-8.713,-0.514,-4.508,12.81,0.14,-1.12
6738.0,-8.784,-0.67,-4.654,-8.777,-1.24,-4.197,9.8,1.47,-2.73
,-8.942,-0.778,-4.64,-8.995,-1.369,-4.173,10.15,1.47,-1.96
,-9.055,-0.967,-4.489,-8.99,-1.4,-4.195,9.52,1.19,-1.19
,-8.887,-1.027,-4.434,-8.954,-1.338,-4.164,8.47,0.84,-0.63
6814.0,-8.722,-1.096,-4.417,-8.856,-1.287,-4.63,6.79,1.47,1.68
,-8.631,-0.993,-4.518,-9.04,-1.096,-4.618,5.95,1.61,2.31
,-8.538,-1.165,-4.527,-8.894,-0.744,-4.779,5.6,2.17,3.15
,-8.665,-1.292,-4.542,-8.863,-0.579,-4.628,6.72,2.73,3.85
6890.0,-9.0,-0.433,-4.554,-8.856,-0.483,-4.599,11.83,3.29,4.48
,-9.055,-0.318,-4.46,-8.904,-0.845,-4.444,10.43,3.29,3.92
,-9.095,-0.215,-4.578,-8.923,-1.113,-4.374,8.82,2.8,3.43
,-8.935,-0.148,-4.676,-8.653,-1.027,-4.585,6.72,2.59,2.8
6966.0,-8.483,-0.828,-4.836,-8.947,-0.479,-4.549,3.57,3.15,4.34
,-8.777,-0.62,-4.838,-8.916,-0.486,-4.475,3.85,3.43,4.62
,-8.88,-0.467,-4.736,-8.674,-0.503,-4.494,3.29,3.57,4.06
,-8.969,-0.369,-4.726,-8.689,-0.503,-4.549,2.03,3.22,3.5
7041.0,-8.933,-0.436,-4.487,-8.899,-0.634,-4.726,-1.4,4.41,2.17
,-9.086,-0.505,-4.491,-8.969,-0.964,-4.59,-1.47,4.41,2.03
,-9.208,-0.505,-4.556,-8.897,-1.18,-4.544,-1.89,4.34,1.89
,-9.007,-0.467,-4.604,-8.751,-1.146,-4.46,-2.45,4.69,2.1
7117.0,-8.756,-0.873,-4.52,-9.1,-0.163,-4.649,-2.66,4.9,4.2
,-8.918,-0.782,-4.642,-8.923,-0.007,-4.877,-2.87,4.27,4.2
,-8.938,-0.668,-4.635,-8.71,0.108,-4.853,-3.57,4.13,4.06
,-8.981,-0.378,-4.738,-8.784,0.103,-4.716,-3.57,4.13,4.06
7193.0,-8.784,-0.089,-4.819,-8.832,-0.328,-4.932,-9.73,2.1,0.7
,-8.813,-0.342,-4.815,-8.796,-0.302,-5.056,-9.87,2.03,0.49
,-8.897,-0.459,-4.862,-8.667,-0.404,-4.946,-8.54,1.4,0.49
,-8.882,-0.342,-4.994,-8.667,-0.622,-4.719,-6.65,1.05,0.21
7269.0,-8.677,-0.857,-4.743,-8.844,-0.921,-4.791,-8.12,0.7,-1.19
,-8.588,-1.096,-4.795,-8.717,-0.976,-4.637,-7.91,0.77,-0.7
,-8.636,-1.254,-4.824,-8.784,-1.163,-4.704,-6.02,0.98,-0.28
,-8.914,-1.074,-4.815,-9.0,-1.103,-4.838,-3.57,0.56,0.0
7344.0,-9.024,-0.964,-4.872,-8.567,-0.45,-4.817,4.34,2.87,1.82
,-9.05,-0.749,-4.719,-9.146,-0.45,-4.48,5.53,2.66,1.05
,-8.799,-0.404,-4.867,-8.993,-0.187,-4.642,5.32,1.68,0.21
,-8.512,-0.39,-4.85,-8.732,-0.067,-4.652,4.48,1.82,0.28
7420.0,-8.82,-0.313,-4.401,-8.926,-0.751,-4.338,-0.35,-3.08,-1.05
,-8.909,-0.596,-4.164,-8.959,-0.809,-4.35,-1.12,-2.87,-1.19
,-8.772,-0.766,-4.247,-8.782,-0.775,-4.403,-0.07,-2.73,-0.7
,-8.746,-0.759,-4.367,-8.614,-0.794,-4.441,1.54,-1.89,0.07
7495.0,-8.916,-0.766,-4.195,-8.894,-0.445,-4.496,6.86,-0.7,1.47
,-8.914,-0.596,-4.307,-9.1,-0.452,-4.456,6.37,-2.73,1.96
,-8.598,-0.342,-4.508,-9.083,-0.433,-4.539,5.25,-3.71,2.03
,-8.569,-0.299,-4.549,-8.935,-0.409,-4.575,4.34,-3.15,2.17
7571.0,-8.775,-0.431,-4.496,-9.04,-1.412,-4.214,5.18,-2.38,1.47
,-8.658,-0.404,-4.755,-8.82,-0.976,-4.468,6.16,-2.31,1.26
,-8.701,-0.565,-4.666,-8.67,-0.615,-5.042,6.37,-1.54,1.75
,-8.725,-1.242,-4.511,-8.782,-0.486,-5.121,6.09,-1.33,2.1
7647.0,-8.938,-0.364,-4.92,-8.947,-0.474,-4.671,8.61,-6.79,3.29
,-8.78,-0.366,-4.824,-9.093,-0.232,-4.805,6.23,-7.84,3.5
,-8.753,-0.517,-4.714,-9.15,-0.232,-4.771,4.48,-8.05,3.43
,-8.916,-0.648,-4.609,-9.0,-0.376,-4.692,4.62,-8.19,3.29
7723.0,-8.796,-0.696,-4.3,-8.981,-0.007,-3.951,6.72,-7.14,2.24
,-8.734,-0.84,-4.097,-8.945,-0.012,-3.999,8.82,-6.16,2.24
,-8.875,-0.637,-4.018,-8.892,-0.191,-3.965,11.76,-6.51,2.03
,-8.899,-0.199,-4.049,-8.892,-0.325,-3.824,13.16,-6.72,1.89
7799.0,-8.985,-0.407,-3.766,-9.002,-0.596,-3.692,7.84,-6.3,1.4
,-8.964,-0.555,-3.733,-9.05,-0.201,-3.743,7.84,-6.44,0.91
,-8.978,-0.763,-3.692,-9.273,0.103,-3.97,8.4,-5.95,1.26
,-8.906,-0.699,-3.692,-9.11,0.084,-4.015,10.01,-6.16,1.68
7874.0,-8.959,-0.235,-4.018,-9.129,-0.725,-3.479,-1.96,-9.94,-1.75
,-8.851,-0.708,-3.92,-9.098,-0.648,-3.475,-4.69,-9.94,-1.75
,-9.028,-0.969,-3.616,-9.045,-0.579,-3.699,-4.13,-9.52,-1.89
,-9.174,-0.902,-3.451,-8.976,-0.677,-3.477,-2.24,-9.52,-2.8
7950.0,-8.99,-0.802,-3.64,-9.196,-0.452,-3.924,-8.47,-8.96,-2.38
,-8.918,-0.95,-3.64,-9.222,-0.251,-3.92,-8.47,-8.05,-2.45
,-9.019,-0.823,-3.644,-9.229,-0.227,-4.058,-6.72,-7.63,-2.31
,-8.945,-0.543,-3.86,-9.124,-0.558,-3.757,-6.65,-7.77,-2.38
8026.0,-9.088,-0.785,-3.776,-9.148,-0.596,-4.152,-10.64,-6.58,-2.87
,-9.045,-0.57,-3.762,-9.079,-0.924,-4.178,-10.57,-6.79,-2.87
,-9.069,-0.622,-3.707,-9.083,-1.287,-4.008,-10.71,-6.86,-2.52
,-9.06,-0.627,-3.439,-9.136,-1.374,-3.9,-9.52,-6.79,-2.52
8102.0,-9.244,-1.151,-3.936,-9.177,-0.598,-3.132,1.54,-7.77,-0.35
,-9.251,-0.601,-3.96,-9.277,-0.242,-3.221,3.36,-8.33,-0.49
,-9.167,-0.443,-3.695,-9.404,-0.017,-3.477,1.61,-8.12,-0.14
,-9.119,-0.696,-3.228,-9.313,-0.084,-3.214,2.03,-7.28,0.35
8177.0,-9.232,-0.282,-3.369,-9.225,0.139,-3.178,5.18,-5.25,0.07
,-9.172,-0.369,-3.13,-9.119,0.103,-2.96,7.28,-4.13,-0.35
,-9.258,-0.414,-2.785,-9.227,-0.342,-2.907,10.43,-3.01,-0.49
,-9.435,-0.203,-2.773,-9.311,-0.713,-2.915,10.99,-3.01,-1.26
8253.0,-9.265,-0.675,-3.319,-9.328,-0.967,-3.022,0.42,-1.4,-3.85
,-9.095,-0.613,-3.376,-9.454,-0.802,-3.348,-0.42,-1.68,-3.78
,-9.15,-0.826,-3.214,-9.349,-0.5,-3.439,-0.91,-1.26,-3.36
,-9.206,-1.022,-3.075,-9.194,-0.292,-3.644,0.98,-0.35,-3.01
8328.0,-9.198,-0.677,-3.515,-9.184,-0.416,-3.989,0.07,0.14,-2.8
,-9.201,-0.792,-3.606,-9.253,-0.567,-3.879,0.77,0.63,-2.73
,-9.196,-0.684,-3.79,-9.201,-0.761,-4.104,2.24,0.14,-2.8
,-9.136,-0.44,-3.963,-9.117,-1.101,-3.692,2.17,-0.42,-2.8
8404.0,-9.337,-1.189,-3.939,-9.263,-0.842,-3.879,1.96,-2.24,-2.17
,-9.375,-1.177,-3.9,-9.05,-1.055,-3.575,2.8,-3.15,-2.31
,-9.284,-0.816,-3.9,-9.15,-1.113,-3.482,3.22,-4.06,-2.24
,-9.246,-0.727,-3.711,-9.141,-1.34,-2.905,2.03,-4.34,-2.17
8480.0,-9.373,-1.096,-2.867,-9.265,-0.428,-3.111,11.97,-2.59,0.91
,-9.538,-0.617,-2.759,-9.273,-0.558,-3.345,14.28,-1.96,1.26
,-9.552,-0.409,-2.699,-9.194,-0.68,-3.235,13.93,-1.68,1.12
,-9.399,-0.144,-3.07,-9.217,-0.603,-2.843,11.48,-1.54,0.56
8556.0,-9.366,-0.33,-3.156,-9.184,-0.986,-3.352,10.64,0.35,0.14
,-9.299,-0.225,-3.235,-9.265,-0.919,-3.527,8.4,0.21,-0.21
,-9.301,-0.412,-3.288,-9.318,-0.859,-3.623,4.62,0.07,-0.56
,-9.198,-0.778,-3.357,-9.182,-1.189,-3.47,1.96,0.07,-0.84
8631.0,-9.069,-1.582,-3.18,-9.39,-0.361,-3.041,2.73,0.07,0.42
,-9.184,-1.548,-2.757,-9.217,-0.543,-3.343,7.42,1.05,1.54
,-9.402,-1.086,-2.68,-9.134,-0.885,-3.508,11.76,1.4,2.1
,-9.493,-0.483,-2.876,-9.131,-1.106,-3.522,11.55,1.47,2.1
8707.0,-9.244,-1.333,-3.283,-9.359,-0.258,-3.491,4.76,2.03,1.61
,-9.323,-1.271,-3.056,-9.258,-0.431,-3.585,7.84,2.31,2.24
,-9.509,-0.84,-3.113,-9.165,-0.751,-3.57,9.73,2.45,2.38
,-9.45,-0.419,-3.278,-9.134,-0.933,-3.408,8.33,2.31,1.89
8782.0,-9.246,-0.931,-3.099,-9.191,-0.637,-3.4,3.01,2.1,0.84
,-9.469,-0.589,-3.015,-9.184,-0.916,-3.501,4.34,2.31,0.98
,-9.462,-0.402,-3.08,-9.162,-1.139,-3.486,3.71,2.45,0.84
,-9.378,-0.392,-3.293,-9.222,-1.244,-3.34,1.19,2.31,0.21
8858.0,-9.407,-1.01,-3.245,-9.208,-0.584,-3.781,2.45,2.8,0.7
,-9.414,-0.739,-3.36,-9.16,-0.775,-3.891,3.43,2.73,0.84
,-9.378,-0.517,-3.415,-9.172,-0.912,-3.829,2.38,2.59,0.49
,-9.294,-0.524,-3.644,-9.177,-0.974,-3.635,0.7,2.1,0.07
8934.0,-9.294,-0.861,-3.47,-9.318,-0.873,-3.154,4.41,0.56,0.84
,-9.351,-0.725,-3.319,-9.289,-0.943,-3.185,4.9,0.42,0.84
,-9.414,-0.601,-3.269,-9.268,-1.153,-3.113,3.78,0.14,0.49
,-9.344,-0.704,-3.216,-9.244,-1.082,-2.986,1.68,0.28,0.28
9010.0,-9.39,-0.732,-3.128,-9.275,-0.861,-3.132,4.83,1.75,1.12
,-9.404,-0.565,-3.082,-9.344,-0.787,-3.214,4.69,2.17,1.12
,-9.301,-0.5,-3.132,-9.368,-0.708,-3.309,2.94,2.45,0.98
,-9.292,-0.768,-3.166,-9.344,-0.66,-3.367,1.68,2.87,0.84
9086.0,-9.294,-0.66,-3.546,-9.275,-1.096,-3.02,1.61,3.85,0.77
,-9.198,-0.699,-3.446,-9.368,-1.012,-3.211,0.63,3.85,0.56
,-9.27,-0.778,-3.367,-9.407,-0.943,-3.396,0.28,3.99,0.49
,-9.217,-0.936,-3.149,-9.363,-0.845,-3.714,0.21,4.48,0.63
9161.0,-9.174,-0.818,-3.826,-9.375,-0.562,-3.908,2.8,5.11,1.61
,-9.222,-0.816,-3.879,-9.249,-0.514,-4.037,3.57,4.97,1.61
,-9.335,-0.761,-3.757,-9.1,-0.555,-4.118,4.27,4.9,1.82
,-9.354,-0.708,-3.664,-9.052,-0.778,-4.046,5.18,4.48,1.75
9237.0,-9.105,-0.991,-3.807,-9.301,-0.945,-2.953,-0.98,0.14,0.77
,-9.165,-1.058,-3.525,-9.318,-0.919,-2.79,-1.54,-0.14,0.63
,-9.222,-1.048,-3.24,-9.275,-0.797,-2.687,-2.03,-0.07,0.63
,-9.251,-0.972,-2.991,-9.32,-0.696,-2.742,-2.03,0.35,0.63
9313.0,-9.43,-0.428,-2.668,-9.139,-0.692,-3.877,2.8,3.85,2.1
,-9.399,0.045,-3.113,-9.158,-0.931,-3.96,2.73,4.06,1.68
,-9.292,0.084,-3.446,-9.16,-1.395,-3.563,-1.05,3.71,0.84
,-9.174,-0.213,-3.709,-9.234,-1.618,-3.309,-5.04,3.29,0.14
9389.0,-9.265,-1.457,-2.958,-9.146,-0.637,-3.68,-2.8,3.57,1.05
,-9.407,-0.986,-2.649,-9.122,-0.849,-3.695,0.28,4.13,1.61
,-9.512,-0.419,-2.936,-9.155,-0.751,-4.149,1.12,4.2,1.54
,-9.306,-0.357,-3.534,-9.014,-0.505,-4.283,-2.1,3.57,1.19
9464.0,-8.954,-0.366,-4.092,-9.718,-0.213,-1.28,6.02,3.01,1.75
,-9.043,-0.493,-3.498,-9.698,0.498,-2.919,5.81,3.71,2.17
,-9.232,-0.998,-2.151,-9.34,-0.036,-3.075,8.19,6.16,2.66
,-9.349,-0.957,-1.333,-9.139,-0.94,-3.573,11.48,8.75,2.8
9540.0,-8.916,-1.721,-3.489,-9.117,0.914,-3.848,-14.28,10.08,0.63
,-8.904,-1.986,-3.139,-9.256,0.361,-4.245,-4.06,12.74,1.54
,-9.072,-1.259,-2.405,-9.234,-0.861,-4.58,5.04,13.86,2.17
,-9.32,0.115,-2.682,-9.05,-1.919,-4.106,11.13,12.6,1.61
9615.0,-8.811,-2.079,-3.903,-9.337,-1.225,-2.917,-6.65,9.94,0.91
,-8.89,-1.541,-3.778,-9.27,-0.792,-2.357,0.77,10.57,0.7
,-9.072,-1.318,-3.599,-9.342,0.364,-4.099,3.71,11.69,1.82
,-9.301,-1.397,-2.398,-8.969,0.814,-5.042,7.63,14.21,3.85
9691.0,-8.811,0.45,-5.236,-9.265,-0.467,-4.025,1.96,8.54,4.62
,-8.595,-0.378,-4.932,-9.275,-0.388,-3.989,-2.87,9.45,3.57
,-8.804,-0.96,-4.058,-9.079,-0.629,-3.958,-1.47,10.57,1.4
,-9.196,-0.782,-4.08,-8.911,-1.455,-3.192,2.31,9.31,-0.98
9767.0,-9.146,-1.364,-3.166,-9.158,-0.651,-4.642,0.7,11.76,0.56
,-9.131,-0.866,-3.252,-8.744,-1.094,-4.487,5.95,11.27,-0.21
,-9.332,-0.144,-3.936,-8.72,-1.086,-4.334,6.37,8.61,-0.35
,-9.141,0.012,-4.515,-8.882,-1.017,-3.979,0.77,7.07,0.84
9843.0,-8.859,-1.077,-3.254,-9.397,0.486,-4.078,5.88,12.18,1.12
,-8.94,-0.905,-3.017,-9.177,0.754,-4.458,4.55,12.74,1.12
,-9.17,-0.457,-3.116,-8.959,0.469,-4.506,4.13,12.39,1.12
,-9.33,0.16,-3.728,-8.928,0.01,-4.444,3.01,10.43,0.63
9919.0,-8.768,-0.395,-4.429,-8.868,-1.022,-4.298,-9.31,7.63,-3.43
,-8.653,-0.928,-4.324,-8.861,-1.041,-4.226,-8.96,7.0,-2.52
,-8.842,-1.216,-3.934,-9.043,-0.72,-4.295,-6.93,7.7,-1.82
,-9.1,-1.168,-3.812,-9.057,-0.328,-4.556,-2.73,8.4,-1.54
9994.0,-9.06,-0.132,-4.637,-8.976,-0.713,-4.054,2.24,10.08,-1.05
,-8.928,-0.294,-4.64,-8.904,-0.775,-3.888,-0.91,9.94,-1.96
,-8.849,-0.61,-4.331,-9.005,-0.55,-3.92,-2.66,10.29,-2.38
,-9.095,-0.625,-4.094,-9.062,-0.555,-4.073,-2.38,9.17,-2.52
10070.0,-8.973,-0.349,-4.532,-8.662,-0.751,-4.968,0.84,7.98,-1.19
,-8.818,-0.29,-4.951,-8.698,-0.385,-5.08,-0.63,7.35,-0.91
,-8.77,-0.424,-5.152,-8.78,-0.244,-4.819,-1.89,6.86,-0.84
,-8.586,-0.682,-5.121,-8.832,-0.218,-4.496,-2.45,7.91,-1.19
10146.0,-8.861,-0.467,-4.08,-8.567,-1.91,-4.271,-1.05,9.52,-4.41
,-9.165,-0.842,-3.869,-8.703,-2.094,-4.192,-3.08,8.12,-3.36
,-8.825,-1.184,-4.18,-8.914,-2.166,-3.922,-5.6,6.72,-2.03
,-8.576,-1.586,-4.319,-9.165,-2.084,-3.831,-5.46,7.63,-0.28
10222.0,-9.347,-1.204,-4.212,-8.49,-0.95,-4.647,9.03,10.71,4.97
,-8.758,-0.57,-4.733,-8.82,-0.945,-4.525,8.82,9.45,5.11
,-8.39,-0.498,-4.951,-8.918,-0.742,-4.413,5.11,8.68,5.53
,-8.215,-0.694,-4.855,-8.83,-0.366,-4.616,1.82,9.73,5.88
10297.0,-8.871,-0.201,-4.501,-8.516,0.663,-5.123,7.91,8.68,4.9
,-8.804,-0.017,-4.523,-8.409,0.168,-4.917,8.54,8.26,4.27
,-8.775,0.457,-4.867,-8.588,-0.249,-4.803,9.03,6.93,3.22
,-8.696,0.68,-5.13,-8.784,-0.28,-4.893,7.91,5.32,2.17
10373.0,-8.923,-0.273,-4.855,-8.677,-0.84,-5.037,8.33,7.35,-2.94
,-8.983,-0.246,-4.831,-8.622,-0.993,-4.951,9.1,6.37,-3.85
,-8.758,-0.433,-4.836,-8.737,-1.153,-4.958,7.77,6.16,-3.99
,-8.914,-0.684,-4.853,-8.794,-1.122,-5.008,6.16,4.9,-3.57
10448.0,-8.624,-1.17,-5.118,-8.799,-0.742,-4.886,8.68,1.26,-2.17
,-8.387,-1.278,-5.207,-8.744,-0.419,-5.039,9.38,1.54,-1.12
,-8.361,-1.409,-4.996,-8.756,-0.318,-4.987,10.92,2.59,-0.35
,-8.576,-1.216,-4.855,-8.902,-0.235,-5.085,13.72,3.43,0.07
10524.0,-9.038,-0.481,-5.135,-8.469,-1.857,-4.616,9.17,2.24,-1.47
,-8.794,-0.89,-4.941,-8.842,-1.563,-4.642,7.49,2.17,-1.26
,-8.775,-1.302,-4.64,-8.94,-1.007,-4.85,6.37,1.12,-0.35
,-8.531,-1.622,-4.637,-8.875,-0.665,-4.97,6.65,0.98,0.63
10600.0,-8.705,-0.574,-4.953,-8.837,-0.203,-4.755,11.13,1.4,1.96
,-8.581,-0.498,-4.956,-8.614,-0.428,-4.812,9.87,1.82,1.82
,-8.698,-0.409,-4.999,-8.638,-0.924,-4.822,9.52,1.89,1.47
,-8.818,-0.275,-4.87,-8.748,-1.17,-4.503,9.38,1.75,0.77
10676.0,-8.837,-1.129,-4.561,-8.495,-1.046,-4.865,8.33,2.17,0.42
,-8.839,-0.902,-4.664,-8.579,-1.397,-4.759,9.59,2.17,0.42
,-8.792,-0.768,-4.594,-8.643,-1.34,-4.805,9.24,2.1,0.49
,-8.681,-0.754,-4.728,-8.629,-1.201,-4.812,7.21,1.33,1.05
10751.0,-8.696,-1.048,-4.738,-8.746,-1.027,-4.625,5.74,1.89,2.73
,-8.581,-1.108,-4.774,-8.655,-0.579,-4.743,4.97,1.82,3.15
,-8.686,-1.352,-4.633,-8.617,-0.304,-4.934,4.83,2.24,3.57
,-8.82,-1.35,-4.59,-8.746,-0.507,-4.884,5.74,2.24,3.99
10827.0,-8.792,-0.871,-4.683,-8.765,-1.237,-4.829,1.89,1.89,3.43
,-8.641,-1.22,-4.604,-8.815,-1.177,-4.771,1.19,2.03,4.06
,-8.476,-1.376,-4.661,-8.775,-1.139,-4.676,2.31,2.45,4.83
,-8.619,-1.29,-4.795,-8.839,-1.019,-4.757,3.64,2.87,5.46
10903.0,-8.748,-0.897,-4.92,-9.074,-0.584,-4.898,3.99,3.22,6.09
,-8.787,-0.744,-4.927,-9.27,-0.565,-4.831,3.71,3.22,6.3
,-8.569,-0.416,-5.104,-8.964,-0.61,-4.738,3.5,3.36,5.74
,-8.662,-0.548,-5.104,-8.538,-0.572,-4.807,2.59,3.99,4.83
10979.0,-8.469,-0.357,-4.815,-8.959,-0.141,-5.193,-0.98,4.27,5.46
,-8.368,-0.292,-4.877,-8.782,-0.414,-5.262,-2.03,3.92,5.46
,-8.619,-0.081,-5.039,-8.653,-0.833,-5.085,-3.57,3.5,4.97
,-8.957,-0.112,-5.011,-8.739,-1.144,-4.889,-5.04,3.01,4.34
11055.0,-8.78,-0.993,-4.939,-8.449,-0.634,-4.982,-2.31,3.99,2.45
,-8.993,-0.534,-5.039,-8.325,-0.871,-4.826,0.35,2.59,2.31
,-8.777,-0.27,-5.193,-8.622,-0.921,-4.767,-0.98,1.05,1.89
,-8.643,-0.223,-5.238,-8.703,-0.538,-4.901,-4.48,-0.14,1.96
11130.0,-8.768,-0.34,-5.037,-8.409,-0.34,-5.111,-7.77,1.47,0.77
,-8.945,-0.299,-4.913,-8.382,-0.629,-5.071,-7.49,1.96,0.0
,-9.182,-0.309,-4.714,-8.559,-0.94,-4.989,-7.14,1.33,0.14
,-8.818,-0.23,-5.09,-8.784,-1.053,-4.977,-7.21,0.21,0.49
11206.0,-8.72,-1.06,-4.915,-8.744,-0.943,-4.625,0.98,0.49,0.21
,-8.775,-0.802,-4.96,-8.528,-0.936,-4.683,3.01,0.0,0.07
,-8.748,-0.653,-4.975,-8.478,-0.998,-4.606,3.01,-0.7,-0.21
,-8.655,-0.792,-4.893,-8.722,-0.926,-4.748,1.75,-0.42,-0.07
11281.0,-8.904,-0.761,-4.846,-8.856,-0.668,-4.602,3.15,-2.03,2.17
,-8.82,-0.639,-4.968,-8.677,-0.581,-4.779,4.13,-1.47,1.61
,-8.744,-0.467,-4.96,-8.617,-0.474,-4.716,5.53,-1.05,0.91
,-8.531,-0.467,-4.987,-8.646,-0.512,-4.798,7.0,-0.28,0.7
11357.0,-8.713,-0.617,-4.681,-8.509,-0.67,-4.733,4.69,-2.31,0.91
,-8.725,-0.536,-4.673,-8.681,-0.768,-4.795,4.9,-2.31,1.12
,-8.66,-0.512,-4.685,-9.091,-0.744,-4.573,5.18,-1.89,1.26
,-8.504,-0.601,-4.726,-8.746,-0.503,-4.819,4.97,-1.4,1.61
11433.0,-8.504,-0.416,-4.743,-8.842,-0.694,-4.468,4.2,-3.85,2.59
,-8.397,-0.524,-4.724,-8.851,-0.66,-4.925,3.01,-3.43,2.52
,-8.715,-0.72,-4.664,-8.76,-0.373,-5.135,3.22,-2.94,2.59
,-8.906,-0.584,-4.547,-8.72,-0.467,-4.941,2.94,-3.15,3.01
11509.0,-8.739,-0.38,-4.834,-8.672,-0.579,-4.882,4.83,-3.99,2.59
,-8.792,-0.335,-4.793,-8.72,-0.455,-4.882,4.48,-3.57,2.31
,-8.753,-0.531,-4.903,-8.806,-0.388,-4.75,4.2,-2.8,2.52
,-8.725,-0.656,-4.908,-8.768,-0.258,-4.771,4.62,-2.8,2.73
11584.0,-8.837,-0.22,-4.64,-8.725,-0.34,-4.731,6.37,-5.39,2.03
,-8.775,-0.249,-4.726,-8.713,-0.416,-4.652,5.04,-5.32,1.96
,-8.737,-0.39,-4.716,-8.789,-0.538,-4.556,4.62,-5.11,1.75
,-8.67,-0.342,-4.695,-8.99,-0.668,-4.487,5.39,-4.69,1.61
11660.0,-8.93,-0.766,-4.719,-8.717,-0.639,-4.319,5.95,-6.23,2.03
,-8.94,-0.766,-4.695,-8.768,-0.447,-4.453,7.35,-6.86,1.96
,-8.902,-0.507,-4.688,-8.902,-0.514,-4.468,8.89,-7.56,1.96
,-8.674,-0.323,-4.704,-8.957,-0.737,-4.283,8.26,-8.33,1.75
11735.0,-8.878,-0.835,-4.231,-8.988,-0.074,-4.259,0.56,-12.04,0.7
,-8.801,-0.73,-4.231,-9.024,-0.081,-4.264,2.45,-11.9,1.05
,-8.806,-0.505,-4.202,-8.93,-0.337,-3.946,3.29,-12.25,1.26
,-8.842,-0.273,-4.152,-8.947,-0.342,-4.18,3.43,-12.32,1.05
11811.0,-8.997,-0.601,-3.96,-8.892,-0.964,-4.013,-11.13,-15.54,-3.15
,-9.062,-0.794,-3.917,-8.837,-0.792,-4.006,-13.09,-15.96,-3.01
,-9.055,-0.976,-4.011,-8.842,-0.689,-4.226,-14.56,-15.82,-3.15
,-9.048,-1.101,-3.991,-9.064,-0.622,-3.929,-13.65,-15.12,-2.87
11887.0,-9.167,-0.433,-3.606,-9.012,-0.27,-4.109,3.01,-10.78,-0.21
,-9.15,-0.184,-3.563,-9.158,-0.648,-3.936,4.2,-10.64,-0.77
,-8.985,0.072,-3.747,-9.253,-0.751,-3.759,2.87,-10.85,-1.4
,-9.028,-0.105,-3.841,-9.124,-0.648,-3.68,1.47,-11.06,-1.4
11963.0,-9.028,-0.653,-3.515,-9.22,-0.345,-3.352,7.07,-9.73,-1.26
,-8.93,-0.579,-3.183,-9.076,-0.526,-3.446,7.0,-9.52,-0.84
,-9.127,-0.577,-3.149,-8.938,-0.816,-2.879,7.28,-9.31,-0.91
,-9.232,-0.447,-3.18,-9.064,-0.799,-2.886,7.21,-9.31,-1.19
12039.0,-9.258,-0.419,-2.711,-9.246,-0.579,-3.635,9.31,-5.74,-1.54
,-9.395,0.117,-3.551,-9.304,-0.842,-3.539,7.28,-6.51,-2.45
,-9.139,0.134,-3.532,-9.351,-0.469,-3.281,0.56,-6.79,-3.08
,-9.15,-0.196,-3.616,-9.225,0.11,-3.798,-4.34,-6.23,-3.43
12114.0,-9.091,-0.005,-3.726,-9.227,-1.086,-3.405,-3.64,-6.79,-6.3
,-9.11,-0.359,-3.927,-9.162,-0.869,-3.266,-4.9,-7.0,-6.51
,-9.086,-0.718,-3.673,-9.174,-0.603,-3.427,-5.11,-6.58,-6.65
,-9.186,-1.182,-3.424,-9.263,-0.794,-3.412,-2.66,-5.88,-6.16
12190.0,-9.16,-1.024,-3.307,-9.363,-0.974,-2.757,-5.11,-5.32,-5.04
,-9.012,-1.206,-3.017,-9.349,-0.866,-2.517,-3.57,-4.48,-4.48
,-9.165,-1.208,-2.941,-9.445,-0.768,-2.711,-1.12,-3.36,-3.78
,-9.265,-1.115,-2.915,-9.411,-0.646,-3.163,1.61,-2.45,-3.15
12266.0,-9.349,-0.424,-3.671,-9.131,-1.431,-3.233,6.37,0.7,-1.05
,-9.148,-0.383,-3.92,-9.363,-1.201,-3.228,3.99,0.56,-1.26
,-9.055,-0.802,-3.855,-9.555,-1.058,-2.938,2.38,0.63,-1.26
,-9.083,-1.173,-3.692,-9.5,-0.821,-3.125,3.29,1.26,-1.05
12342.0,-9.251,-0.727,-3.305,-9.117,-1.275,-2.536,8.75,2.03,0.98
,-9.079,-0.713,-3.393,-9.411,-0.998,-2.247,7.77,2.31,1.33
,-9.124,-0.818,-3.398,-9.615,-0.61,-2.412,7.63,2.87,1.61
,-9.091,-1.084,-3.163,-9.686,-0.17,-2.778,8.61,3.57,2.03
12417.0,-9.605,0.038,-3.544,-9.213,-1.034,-4.015,5.11,6.58,0.84
,-9.273,-0.412,-3.857,-9.378,-0.522,-4.08,-1.33,5.88,-0.21
,-8.973,-0.909,-4.037,-9.289,-0.12,-4.075,-3.78,5.88,-0.28
,-8.978,-1.17,-3.917,-9.148,-0.263,-3.941,-0.98,6.44,0.14
12493.0,-9.048,-0.945,-3.812,-9.213,-0.816,-3.57,-2.03,3.29,-0.84
,-9.024,-1.153,-3.685,-9.131,-0.785,-3.484,-0.56,3.15,-0.63
,-9.198,-1.108,-3.527,-9.098,-0.826,-3.556,1.4,3.29,-0.21
,-9.282,-0.948,-3.518,-9.143,-0.751,-3.733,2.66,3.36,0.07
12568.0,-9.15,-0.682,-3.908,-9.179,-1.053,-3.836,-2.17,2.24,-0.35
,-9.112,-0.732,-3.927,-9.234,-1.029,-3.668,-3.22,1.54,-0.56
,-9.083,-0.881,-3.944,-9.21,-0.955,-3.544,-3.57,1.19,-0.49
,-9.081,-0.967,-3.891,-9.292,-0.806,-3.525,-2.59,0.91,-0.14
12644.0,-9.261,-0.61,-3.467,-9.289,-0.9,-3.539,2.66,0.7,1.26
,-9.227,-0.701,-3.484,-9.179,-0.861,-3.494,2.03,0.84,1.12
,-9.277,-0.89,-3.422,-9.273,-0.653,-3.666,1.26,0.98,0.98
,-9.27,-0.988,-3.417,-9.203,-0.577,-3.695,1.54,1.19,1.19
12720.0,-9.191,-0.553,-3.764,-9.215,-0.943,-3.486,0.98,0.56,0.63
,-9.17,-0.737,-3.759,-9.273,-0.897,-3.393,-0.21,0.35,0.56
,-9.16,-0.782,-3.726,-9.332,-0.715,-3.345,-0.35,0.14,0.42
,-9.184,-0.885,-3.589,-9.347,-0.469,-3.515,0.0,0.28,0.7
12796.0,-9.28,-0.581,-3.589,-9.177,-0.84,-3.484,-0.91,0.63,0.35
,-9.186,-0.754,-3.649,-9.249,-0.73,-3.422,-1.96,0.7,0.21
,-9.179,-0.885,-3.723,-9.316,-0.517,-3.396,-1.12,0.7,0.21
,-9.148,-0.905,-3.676,-9.246,-0.491,-3.436,0.84,0.56,0.56
12872.0,-9.273,-0.61,-3.532,-9.256,-0.773,-3.534,1.89,1.12,0.56
,-9.237,-0.711,-3.623,-9.124,-0.732,-3.506,1.61,1.26,0.42
,-9.203,-0.814,-3.491,-9.191,-0.608,-3.68,1.61,1.54,0.42
,-9.213,-0.823,-3.4,-9.201,-0.696,-3.714,2.1,1.54,0.49
12947.0,-9.184,-0.751,-3.692,-9.182,-0.804,-3.85,1.33,0.91,0.28
,-9.186,-0.859,-3.716,-9.196,-0.823,-3.848,1.4,0.77,0.35
,-9.186,-0.897,-3.774,-9.148,-0.79,-3.783,1.96,0.63,0.63
,-9.174,-0.775,-3.8,-9.194,-0.797,-3.733,2.66,0.28,0.7
13023.0,-9.213,-0.749,-3.678,-9.246,-0.601,-3.518,4.48,-0.63,0.98
,-9.273,-0.73,-3.46,-9.17,-0.644,-3.312,3.29,-0.91,0.56
,-9.337,-0.754,-3.348,-9.17,-0.737,-3.24,1.89,-0.98,0.0
,-9.289,-0.586,-3.496,-9.162,-0.912,-3.005,1.19,-1.47,-0.42
13099.0,-9.313,-0.909,-2.931,-9.38,-0.852,-2.757,0.77,0.84,0.35
,-9.289,-0.766,-2.922,-9.371,-0.797,-2.974,1.89,1.54,0.63
,-9.28,-0.687,-2.843,-9.351,-0.742,-3.077,1.68,2.31,0.84
,-9.244,-0.725,-2.8,-9.261,-0.72,-3.223,0.21,3.15,0.91
13175.0,-9.239,-0.794,-3.451,-9.22,-0.818,-3.477,-2.38,5.6,0.84
,-9.148,-0.792,-3.482,-9.189,-0.658,-3.419,-1.19,5.81,1.05
,-9.198,-0.675,-3.486,-9.201,-0.713,-3.025,0.21,5.67,1.4
,-9.237,-0.694,-3.527,-9.289,-0.771,-2.922,0.91,5.6,1.54
13250.0,-9.225,-0.873,-2.709,-8.923,-0.677,-4.448,-1.96,6.23,0.84
,-9.229,-0.708,-2.771,-8.806,-1.196,-4.645,-1.47,6.86,0.77
,-9.347,-0.34,-3.501,-8.909,-1.546,-4.336,-3.08,6.37,0.14
,-9.158,-0.443,-3.955,-9.273,-1.366,-3.752,-7.91,5.6,-0.42
13326.0,-9.481,-0.835,-3.805,-9.088,-0.168,-4.011,7.14,6.16,3.01
,-9.485,-0.404,-3.609,-8.976,-0.416,-4.334,7.84,6.09,2.87
,-9.44,-0.086,-3.704,-9.026,-0.802,-4.219,4.69,5.18,2.24
,-9.201,0.072,-3.769,-9.098,-0.905,-3.972,-1.54,3.64,1.26
13401.0,-9.16,-0.608,-3.869,-9.411,-0.01,-3.69,-5.11,1.47,-0.63
,-9.115,-0.51,-3.92,-9.234,0.019,-4.034,-3.15,2.24,-0.7
,-9.162,-0.605,-3.733,-9.043,-0.28,-4.116,-2.03,2.8,-0.28
,-9.33,-0.421,-3.451,-8.906,-0.873,-4.078,0.56,2.66,0.14
13477.0,-9.009,-1.328,-3.769,-9.131,-0.979,-3.214,-1.75,0.77,-0.63
,-9.131,-1.335,-3.666,-9.206,-1.017,-2.759,4.34,1.47,-0.21
,-9.253,-1.106,-3.312,-9.014,-0.811,-3.242,9.73,2.45,0.35
,-9.304,-0.835,-3.592,-8.971,-0.83,-3.879,10.78,2.52,0.56
13553.0,-9.088,-0.967,-4.269,-9.17,-0.931,-3.57,4.55,1.61,2.38
,-9.043,-1.488,-4.197,-9.249,-0.682,-2.881,3.5,2.31,3.92
,-8.983,-1.773,-3.793,-9.368,-0.634,-3.02,6.65,3.29,5.25
,-9.179,-1.594,-3.221,-9.229,-0.878,-2.848,12.67,3.15,5.6
13629.0,-9.313,-1.144,-2.491,-9.191,-0.124,-3.644,3.08,5.39,5.81
,-8.923,-1.237,-2.388,-9.167,0.503,-3.984,3.08,7.7,6.16
,-9.139,-1.196,-2.017,-8.765,0.802,-4.233,7.42,10.08,7.0
,-9.356,-0.634,-3.19,-8.906,0.66,-3.831,9.94,8.61,6.58
13704.0,-8.952,0.17,-3.525,-9.351,-0.842,-2.601,1.4,10.43,1.82
,-8.909,-0.44,-3.25,-9.529,-0.596,-2.757,1.89,13.02,1.82
,-9.127,-0.921,-2.857,-8.971,-0.663,-3.053,3.22,15.12,2.45
,-9.56,-1.024,-2.735,-9.184,-0.761,-2.998,4.83,14.91,2.31
13780.0,-9.038,-0.596,-3.549,-9.229,-0.237,-3.355,-0.63,13.3,1.75
,-8.873,-0.318,-3.766,-9.182,-0.215,-3.888,-1.26,14.42,1.47
,-8.631,-0.156,-3.841,-9.27,-0.38,-3.958,-2.03,16.45,0.98
,-8.708,-0.261,-3.58,-9.105,-0.581,-4.408,-2.38,18.62,0.0
13856.0,-8.772,-0.888,-4.688,-8.894,-0.567,-5.207,-0.91,19.46,2.17
,-8.729,-1.299,-4.882,-8.868,-0.395,-4.929,3.22,20.37,3.29
,-8.969,-1.335,-5.018,-8.725,-0.134,-4.91,8.47,20.09,3.92
,-9.246,-0.983,-5.099,-8.727,-0.263,-4.807,13.93,18.48,3.92
13932.0,-8.954,-0.433,-4.795,-8.705,-1.031,-4.625,0.98,12.32,0.49
,-8.964,-0.653,-4.815,-9.002,-0.945,-4.331,-1.4,12.04,1.12
,-8.911,-0.747,-4.889,-8.806,-0.464,-4.496,-2.03,12.04,1.33
,-8.844,-0.857,-4.783,-8.748,-0.12,-4.625,-1.61,12.18,1.61
14008.0,-8.882,0.067,-4.714,-9.49,0.479,-4.594,5.04,7.84,1.96
,-8.949,0.218,-4.666,-9.076,0.495,-4.657,3.08,8.54,1.4
,-8.971,0.208,-4.657,-8.832,0.426,-4.499,2.03,8.61,0.21
,-9.117,0.335,-4.786,-8.306,0.151,-4.805,1.96,8.68,-2.17
14083.0,-8.409,-0.617,-4.891,-8.878,-1.931,-4.721,-9.38,2.8,-4.83
,-8.892,-1.33,-4.908,-8.337,-1.656,-5.418,-8.54,2.31,-4.41
,-9.261,-1.618,-4.941,-8.229,-1.754,-5.319,-5.25,1.68,-3.99
,-9.263,-1.694,-4.97,-8.373,-1.945,-5.083,-2.38,0.98,-3.57
14159.0,-8.772,-2.051,-4.733,-9.019,-0.029,-4.35,-3.64,-1.82,5.04
,-8.832,-1.886,-4.46,-8.892,0.66,-4.281,-2.87,-2.24,6.37
,-8.906,-1.342,-4.3,-8.93,1.211,-4.657,-2.17,-3.15,6.93
,-8.756,-0.694,-4.587,-8.902,1.022,-4.446,0.35,-2.45,6.65
14234.0,-8.717,0.342,-4.393,-9.091,-0.838,-3.941,1.12,-0.42,1.12
,-8.512,-0.163,-4.434,-8.959,-0.696,-3.903,3.08,1.05,1.26
,-8.906,-0.785,-4.2,-9.124,-0.653,-3.857,5.53,2.24,1.19
,-9.107,-0.995,-3.786,-9.146,-0.419,-3.989,10.22,2.38,0.49
14310.0,-9.055,-0.067,-4.393,-8.741,-1.761,-4.338,13.16,1.05,-3.01
,-8.5,-0.034,-4.817,-9.237,-1.788,-4.202,10.64,0.56,-3.22
,-7.918,-0.474,-4.925,-9.215,-1.534,-4.066,7.56,1.33,-2.66
,-7.992,-1.249,-4.836,-9.313,-1.161,-4.2,6.16,2.8,-1.26
14386.0,-9.103,-0.883,-4.429,-8.775,0.105,-4.838,18.97,1.05,1.33
,-9.007,-0.692,-4.568,-8.346,0.053,-5.039,20.09,0.63,1.33
,-9.258,-0.304,-4.769,-8.267,-0.445,-5.035,21.14,0.14,0.42
,-9.222,-0.077,-4.829,-8.696,-1.003,-4.58,20.65,-0.63,-1.05
14462.0,-8.715,-1.658,-4.556,-9.249,-0.823,-4.089,11.27,-1.47,-0.21
,-9.016,-1.957,-4.123,-9.009,-0.493,-4.36,14.14,-0.63,0.49
,-9.141,-1.565,-3.975,-8.698,-0.668,-4.448,17.64,-0.28,0.98
,-9.179,-1.106,-4.164,-8.6,-0.416,-4.721,19.39,0.07,1.19
14537.0,-8.629,-0.51,-4.731,-9.014,-1.003,-4.255,10.01,-0.21,1.82
,-8.854,-0.857,-4.587,-8.825,-1.163,-4.465,9.31,0.14,1.26
,-8.806,-1.216,-4.367,-8.775,-1.438,-4.267,9.66,0.84,1.82
,-8.957,-1.316,-3.936,-8.813,-1.417,-4.075,11.41,0.63,3.15
14613.0,-8.995,-1.481,-4.037,-8.904,-0.412,-4.334,8.89,0.63,6.44
,-8.961,-1.263,-4.061,-9.136,-0.302,-4.3,9.03,0.84,7.14
,-8.945,-0.95,-4.092,-9.026,-0.278,-4.097,8.82,0.91,7.77
,-8.681,-0.603,-4.463,-8.902,0.096,-4.209,8.4,1.54,7.56
14689.0,-8.964,0.108,-4.3,-8.83,-0.596,-4.259,5.74,2.8,3.78
,-9.191,-0.196,-4.276,-8.83,-0.62,-3.924,4.13,2.94,3.15
,-9.115,-0.464,-4.154,-8.844,-0.792,-4.125,4.48,3.43,3.15
,-8.892,-0.574,-4.171,-8.842,-0.938,-4.212,5.88,3.92,3.29
14765.0,-8.916,-0.962,-4.487,-8.861,-1.031,-4.365,2.94,7.0,3.01
,-8.966,-1.07,-4.52,-8.787,-1.041,-4.424,2.94,7.98,2.66
,-8.897,-0.914,-4.472,-9.04,-0.823,-4.444,3.57,8.68,1.96
,-9.04,-0.943,-4.312,-9.0,-0.689,-4.57,2.59,8.75,1.68
14840.0,-8.768,-0.907,-4.568,-9.028,-0.002,-4.678,-0.14,7.84,2.94
,-8.741,-0.952,-4.334,-9.275,0.246,-4.776,0.21,8.96,2.87
,-8.662,-0.835,-4.154,-9.112,0.177,-4.829,0.42,9.59,2.8
,-8.655,-0.44,-4.475,-8.89,-0.139,-4.776,0.49,10.08,2.52
14916.0,-8.732,-0.579,-4.824,-9.208,-0.481,-4.977,-9.17,10.15,-0.07
,-8.89,-0.744,-4.688,-8.949,-0.498,-5.011,-7.07,10.57,0.63
,-9.0,-0.605,-4.855,-8.502,-0.725,-5.212,-5.11,10.5,0.7
,-9.105,-0.558,-5.023,-8.48,-0.816,-5.202,-3.78,10.5,0.7
14992.0,-8.562,-0.962,-5.444,-9.019,-0.945,-4.975,-10.43,5.81,0.63
,-8.698,-1.125,-5.312,-8.837,-0.577,-5.111,-10.43,5.25,0.84
,-8.741,-1.228,-5.319,-8.775,-0.361,-5.123,-9.59,4.76,1.75
,-8.837,-1.237,-5.126,-8.799,-0.268,-5.02,-8.89,3.92,2.66
15068.0,-8.926,-0.333,-4.853,-8.662,-0.565,-4.992,-9.03,1.12,0.91
,-8.902,-0.333,-4.795,-8.772,-0.637,-4.838,-9.45,0.84,0.98
,-8.713,-0.244,-4.934,-8.964,-0.555,-4.91,-9.66,1.05,0.77
,-8.567,-0.419,-5.051,-8.904,-0.713,-4.807,-9.31,1.89,0.42
15144.0,-8.904,-0.833,-4.786,-8.641,-1.101,-5.008,0.07,-0.07,-2.24
,-8.693,-0.991,-4.783,-8.708,-1.232,-5.104,-0.14,-0.35,-2.1
,-8.696,-1.024,-4.781,-8.78,-1.307,-4.929,0.07,-1.26,-2.03
,-8.622,-1.041,-4.946,-8.969,-1.18,-4.788,0.0,-2.24,-1.47
15219.0,-8.624,-0.962,-4.879,-8.792,-0.914,-4.724,3.85,-4.76,0.63
,-8.492,-0.895,-5.099,-8.622,-0.826,-4.762,4.34,-5.04,0.98
,-8.648,-1.0,-4.989,-8.662,-0.651,-4.728,4.83,-4.69,1.4
,-8.914,-1.027,-4.812,-8.696,-0.373,-4.882,6.58,-3.85,1.89
15295.0,-8.835,-0.218,-4.896,-8.732,-0.572,-4.386,15.47,-0.84,3.71
,-8.713,-0.189,-4.858,-8.871,-0.474,-4.393,14.07,-1.89,3.71
,-8.622,-0.287,-4.685,-8.906,-0.275,-4.252,12.39,-2.1,3.71
,-8.54,-0.495,-4.58,-8.909,-0.103,-4.415,11.9,-2.24,3.57
15370.0,-8.892,0.057,-4.439,-8.677,-0.747,-4.463,8.68,-6.37,2.45
,-8.729,-0.457,-4.109,-8.772,-0.787,-4.288,6.93,-6.02,1.96
,-8.861,-0.541,-4.149,-8.966,-0.78,-4.262,6.51,-5.67,1.54
,-8.825,-0.565,-4.367,-9.158,-0.653,-4.247,7.98,-5.11,1.12
15446.0,-8.971,-0.29,-4.343,-8.969,-0.936,-4.298,4.97,-11.41,0.7
,-8.789,-0.239,-4.355,-8.873,-0.995,-4.52,2.59,-11.13,0.42
,-8.756,-0.543,-4.3,-8.72,-0.94,-4.652,0.63,-10.01,0.28
,-8.835,-0.763,-4.307,-8.875,-0.656,-4.618,0.35,-9.24,0.28
15522.0,-8.854,-0.747,-4.491,-8.918,-0.651,-4.223,6.51,-8.54,1.12
,-8.909,-0.802,-4.286,-8.923,-0.778,-4.173,8.19,-7.42,1.4
,-8.976,-0.675,-4.101,-8.945,-0.732,-4.152,9.52,-6.93,2.03
,-8.906,-0.596,-4.164,-8.949,-0.648,-4.293,9.31,-7.35,2.31
15598.0,-8.894,-0.72,-4.113,-9.268,-0.699,-4.118,5.25,-10.08,2.45
,-8.811,-0.708,-4.173,-9.117,-0.694,-3.857,4.69,-10.5,2.8
,-8.851,-0.857,-3.9,-9.021,-0.622,-3.723,5.46,-10.57,2.94
,-9.201,-0.861,-4.094,-8.94,-0.704,-3.637,6.16,-11.13,2.66
15673.0,-8.868,-0.632,-3.759,-9.127,-0.553,-3.606,5.04,-10.85,2.59
,-8.923,-0.507,-3.872,-9.182,-0.345,-3.661,5.18,-11.34,2.73
,-9.143,-0.464,-4.042,-9.124,-0.005,-3.776,4.55,-11.41,2.8
,-9.136,-0.574,-3.903,-9.062,0.005,-4.003,3.85,-10.64,2.73
15749.0,-9.139,-0.146,-4.034,-9.115,-0.541,-3.759,-5.25,-12.32,-0.7
,-9.194,-0.648,-3.702,-8.969,-0.328,-3.778,-7.07,-11.55,-0.7
,-9.11,-1.036,-3.446,-9.074,-0.476,-3.814,-5.32,-10.29,-1.47
,-9.107,-1.067,-3.199,-9.105,-0.972,-3.836,-1.54,-9.59,-1.82
15824.0,-9.117,-1.228,-3.549,-9.373,-0.223,-2.553,-1.33,-9.94,-0.42
,-9.091,-0.969,-3.424,-9.6,-0.292,-2.551,3.78,-9.03,-1.05
,-9.143,-0.505,-2.869,-9.696,-0.292,-2.067,7.56,-7.84,-0.84
,-9.246,-0.268,-2.649,-9.38,-0.115,-2.97,6.23,-6.72,-0.77
15900.0,-9.131,0.007,-3.084,-9.282,-1.062,-2.721,-5.53,-3.15,-3.71
,-9.012,-0.134,-3.293,-9.253,-1.07,-2.771,-8.19,-3.01,-4.27
,-9.024,-0.397,-3.376,-9.287,-0.888,-3.068,-10.43,-2.59,-4.83
,-9.124,-0.871,-3.178,-9.217,-0.701,-3.19,-9.38,-1.61,-4.76
15976.0,-9.177,-0.794,-3.374,-9.423,-0.373,-3.424,-7.98,0.98,-3.64
,-9.141,-1.29,-3.001,-9.332,-0.316,-3.223,-8.05,2.59,-3.08
,-9.368,-1.196,-2.991,-9.337,-0.701,-3.364,-3.64,3.64,-3.01
,-9.418,-0.766,-3.08,-9.167,-0.713,-3.262,-2.38,3.57,-3.78
16052.0,-9.244,-0.208,-3.721,-9.014,-0.696,-3.467,0.56,5.39,-3.57
,-9.184,-0.005,-3.766,-9.165,-0.773,-3.352,-0.21,4.9,-3.78
,-9.174,-0.153,-3.687,-9.256,-0.651,-3.733,-1.4,5.11,-3.57
,-9.182,-0.438,-3.752,-9.107,-0.481,-3.891,-1.96,5.11,-3.92
16128.0,-9.043,-0.443,-4.343,-9.237,-1.208,-3.9,-2.24,3.43,-4.69
,-8.969,-0.605,-4.487,-9.234,-0.916,-3.963,-3.5,2.87,-5.04
,-8.93,-0.924,-4.247,-9.098,-0.704,-3.958,-3.22,2.59,-4.76
,-9.045,-1.175,-3.984,-9.045,-0.759,-3.776,-1.33,2.17,-4.13
16203.0,-9.115,-1.003,-3.611,-8.985,-0.656,-4.109,0.63,0.7,-3.08
,-9.251,-0.955,-3.656,-8.942,-0.924,-3.867,2.1,0.56,-2.94
,-9.292,-0.72,-3.841,-9.079,-1.127,-3.52,3.01,-0.14,-2.94
,-9.17,-0.519,-4.109,-9.227,-0.964,-3.238,2.52,-1.05,-3.29
16279.0,-9.361,-0.818,-3.173,-9.11,-1.027,-3.544,4.83,-0.7,-2.59
,-9.363,-0.785,-3.242,-9.198,-1.115,-3.632,4.2,-0.7,-2.52
,-9.277,-0.634,-3.479,-9.162,-1.149,-3.69,2.1,-0.91,-3.08
,-9.057,-0.794,-3.563,-9.206,-1.206,-3.671,0.14,-0.63,-3.15
16355.0,-9.165,-1.173,-3.644,-9.22,-1.041,-3.585,1.54,-0.91,-1.54
,-9.098,-1.129,-3.625,-9.28,-1.072,-3.532,2.45,-0.56,-1.26
,-9.146,-1.139,-3.549,-9.268,-1.034,-3.805,2.94,-0.42,-0.84
,-9.198,-1.103,-3.467,-9.148,-1.048,-3.898,3.08,-0.42,-0.63
16431.0,-9.103,-0.998,-3.766,-9.318,-0.656,-3.238,4.76,-0.56,0.77
,-9.17,-0.998,-3.606,-9.28,-0.744,-3.415,6.09,-0.21,1.05
,-9.213,-0.907,-3.384,-9.112,-0.847,-3.525,6.93,-0.28,1.26
,-9.308,-0.771,-3.25,-9.036,-1.156,-3.453,6.79,0.0,1.05
16506.0,-9.124,-1.223,-3.336,-9.289,-0.799,-3.223,5.81,0.7,0.91
,-9.28,-0.83,-3.333,-9.146,-1.067,-3.228,9.03,0.91,1.33
,-9.33,-0.584,-3.199,-9.215,-1.163,-3.314,9.03,1.05,1.26
,-9.39,-0.548,-3.156,-9.15,-1.07,-3.41,5.88,1.19,0.77
16582.0,-9.273,-0.792,-3.719,-9.105,-1.158,-4.006,3.36,2.38,0.7
,-9.182,-0.735,-3.893,-9.146,-1.082,-3.805,2.17,1.82,0.56
,-9.107,-0.885,-3.96,-9.186,-1.048,-3.513,1.54,1.54,0.63
,-9.11,-1.06,-3.932,-9.318,-0.981,-3.448,2.17,1.26,0.84
16657.0,-9.328,-0.931,-3.451,-9.16,-0.995,-3.647,5.74,0.63,1.96
,-9.249,-0.926,-3.467,-9.189,-1.022,-3.697,4.62,0.56,1.89
,-9.22,-0.979,-3.597,-9.148,-1.024,-3.558,3.43,0.42,1.75
,-9.139,-1.007,-3.625,-9.177,-0.888,-3.508,3.43,0.14,1.61
16733.0,-9.244,-0.804,-3.4,-9.344,-0.854,-3.352,5.95,-0.07,2.45
,-9.244,-0.759,-3.388,-9.301,-0.72,-3.51,4.9,-0.07,2.38
,-9.251,-0.842,-3.331,-9.153,-0.814,-3.618,3.64,0.14,2.17
,-9.292,-0.921,-3.257,-9.107,-0.907,-3.568,3.08,0.49,1.96
16809.0,-9.155,-0.938,-3.486,-9.179,-0.964,-3.451,1.61,0.49,1.61
,-9.237,-0.857,-3.513,-9.196,-1.043,-3.484,3.08,0.56,1.61
,-9.296,-0.653,-3.637,-9.201,-0.952,-3.453,3.01,0.56,1.4
,-9.203,-0.787,-3.527,-9.294,-0.871,-3.46,1.68,0.28,1.19
16885.0,-9.284,-0.979,-3.295,-9.261,-0.768,-3.408,3.43,0.7,1.33
,-9.241,-0.943,-3.108,-9.294,-0.744,-3.403,3.57,1.12,1.33
,-9.28,-0.814,-3.355,-9.174,-0.861,-3.403,3.78,1.12,1.26
,-9.251,-0.83,-3.254,-9.203,-0.849,-3.434,3.64,1.33,1.4
16961.0,-9.234,-0.838,-3.506,-9.22,-0.873,-3.408,2.24,2.24,0.98
,-9.263,-0.814,-3.494,-9.249,-0.914,-3.446,1.75,2.1,0.91
,-9.256,-0.723,-3.534,-9.167,-1.06,-3.427,0.84,2.03,0.84
,-9.251,-0.754,-3.503,-9.194,-1.036,-3.317,0.07,2.17,0.56
17036.0,-9.203,-1.041,-3.29,-9.299,-0.739,-3.252,0.7,2.73,1.19
,-9.275,-0.988,-3.171,-9.28,-0.744,-3.362,1.05,3.15,1.4
,-9.306,-0.916,-3.118,-9.201,-0.859,-3.293,0.77,3.22,1.47
,-9.263,-0.952,-3.089,-9.22,-0.957,-3.283,0.0,3.85,1.61
17112.0,-9.194,-0.962,-3.36,-9.131,-0.723,-4.286,-0.56,5.67,1.96
,-9.213,-0.995,-3.575,-9.129,-0.715,-4.408,0.56,5.53,2.17
,-9.215,-0.89,-3.733,-9.112,-0.782,-4.477,1.68,5.46,2.24
,-9.177,-0.84,-3.963,-9.146,-0.785,-4.357,2.59,5.11,2.45
17188.0,-9.179,-0.871,-4.039,-9.081,-0.567,-3.34,1.68,0.63,1.19
,-9.33,-0.806,-3.934,-9.179,-1.352,-3.058,0.84,-0.77,0.42
,-9.246,-0.507,-3.776,-9.186,-1.383,-3.238,-1.68,-2.03,-0.21
,-9.191,-0.23,-3.654,-9.206,-1.184,-3.161,-5.6,-2.87,-0.14
17264.0,-9.32,-1.074,-3.044,-9.282,-0.558,-3.19,-0.91,-0.28,1.54
,-9.347,-0.756,-2.931,-9.174,-0.574,-3.412,-1.26,0.0,1.33
,-9.316,-0.524,-2.996,-9.074,-0.682,-3.338,-3.08,0.0,1.05
,-9.349,-0.55,-3.144,-9.308,-0.737,-3.161,-5.74,-0.21,0.63
17339.0,-9.378,-0.421,-3.415,-9.304,-0.694,-3.656,-3.5,2.03,0.07
,-9.371,-0.345,-3.247,-9.083,-0.993,-3.903,-3.71,2.38,-0.07
,-9.509,-0.275,-3.451,-9.057,-1.077,-4.185,-5.53,2.31,-0.42
,-9.493,-0.431,-3.362,-9.04,-1.156,-3.941,-8.89,2.59,-0.77
17415.0,-9.064,-0.976,-4.025,-9.349,-0.409,-3.008,-5.11,2.24,-0.07
,-9.048,-0.854,-3.891,-9.442,-0.208,-3.075,-2.87,2.31,0.14
,-9.194,-0.952,-3.307,-9.337,-0.357,-3.551,-0.42,3.5,0.84
,-9.38,-0.708,-2.802,-9.184,-0.864,-3.747,2.8,4.34,1.26
17490.0,-9.024,-1.723,-4.006,-9.409,0.175,-3.984,-8.68,4.06,1.68
,-8.77,-2.723,-3.534,-9.435,0.34,-4.142,-0.49,6.93,4.34
,-8.878,-2.548,-2.35,-9.203,-0.23,-4.19,15.26,9.73,6.86
,-9.33,-1.146,-2.685,-8.866,-1.163,-3.455,29.12,9.87,7.56
17566.0,-9.026,-1.213,-3.125,-9.244,-1.467,-3.592,12.95,8.33,6.09
,-9.16,-0.469,-3.429,-9.28,-1.871,-3.07,17.43,7.28,4.83
,-9.177,-0.179,-3.707,-9.103,-1.582,-3.173,13.09,5.74,3.78
,-9.115,-0.625,-3.668,-8.646,-0.785,-2.879,5.46,5.74,3.57
17642.0,-9.009,0.347,-3.391,-9.478,-0.38,-3.046,23.24,9.66,5.74
,-8.966,0.835,-3.635,-9.273,-0.471,-3.154,14.0,8.33,4.34
,-9.371,0.354,-3.329,-9.086,-0.55,-3.333,4.83,8.75,3.29
,-9.536,-0.074,-3.262,-9.146,-0.739,-3.479,-0.56,9.66,1.96
17718.0,-8.909,-1.007,-3.609,-9.06,0.352,-4.432,-3.5,10.15,-0.14
,-8.808,-1.187,-3.475,-8.981,0.419,-4.884,-1.96,10.92,0.56
,-9.098,-0.766,-3.654,-8.76,-0.211,-4.496,3.08,11.27,0.91
,-9.04,-0.034,-4.372,-9.172,-0.742,-4.326,4.9,10.08,0.35
17793.0,-9.186,-0.778,-4.427,-9.043,-1.371,-4.022,0.49,8.96,-2.52
,-9.155,-0.72,-4.544,-8.892,-1.56,-4.087,1.12,7.42,-2.87
,-9.258,-0.804,-4.523,-8.794,-1.766,-4.039,0.07,7.0,-3.01
,-9.174,-1.122,-4.312,-8.945,-1.888,-3.955,-1.89,6.93,-2.8
17869.0,-8.988,-1.955,-3.881,-8.839,-0.208,-4.846,3.01,8.61,3.01
,-9.112,-1.773,-3.644,-8.748,-0.675,-4.709,4.2,8.4,3.85
,-9.119,-1.189,-3.814,-8.734,-1.122,-4.133,5.53,7.28,4.34
,-9.117,-0.519,-4.207,-9.0,-1.158,-3.86,4.48,4.13,4.34
17945.0,-9.081,-0.928,-3.671,-9.062,-0.38,-3.412,3.36,6.3,4.76
,-9.093,-0.754,-3.549,-9.182,-0.191,-3.623,6.65,7.84,5.04
,-8.914,-0.514,-3.319,-9.16,0.203,-3.896,7.63,8.96,5.74
,-8.94,-0.443,-3.319,-9.177,0.421,-4.168,6.58,9.38,6.37
18021.0,-9.182,0.306,-4.19,-8.753,-0.373,-3.953,3.29,7.63,2.59
,-9.019,0.129,-4.298,-8.844,-0.16,-4.145,-0.98,7.07,1.61
,-8.957,-0.203,-4.166,-9.024,0.122,-4.29,-4.9,7.28,0.7
,-8.88,-0.39,-3.982,-9.127,0.266,-4.286,-6.51,6.65,-0.28
18097.0,-8.973,0.203,-4.36,-8.892,-1.137,-4.137,-2.31,9.03,-5.32
,-8.899,-0.01,-4.238,-8.827,-1.579,-3.869,-3.36,10.64,-5.32
,-8.808,-0.239,-4.31,-8.725,-1.974,-4.168,-3.22,11.69,-5.46
,-8.892,-0.555,-4.298,-8.703,-2.283,-4.243,-3.08,11.34,-5.46
18172.0,-8.94,-2.379,-4.025,-8.631,-0.447,-4.972,-1.12,11.34,3.36
,-8.856,-2.07,-4.216,-8.643,-0.22,-4.712,1.96,10.64,4.41
,-8.902,-1.414,-4.525,-8.748,-0.22,-4.63,4.48,10.22,5.53
,-8.727,-0.907,-4.917,-9.057,-0.263,-4.47,4.41,9.24,6.58
18248.0,-9.325,-0.072,-4.506,-8.614,-1.266,-5.004,-0.77,8.4,4.76
,-9.115,0.014,-4.815,-8.926,-1.905,-4.74,-0.56,7.84,4.27
,-8.777,-0.304,-4.616,-8.921,-1.814,-4.893,-0.49,8.54,4.27
,-8.504,-0.766,-4.695,-9.072,-1.481,-4.898,0.56,9.1,4.97
18323.0,-8.579,-1.019,-4.941,-8.971,1.117,-4.803,12.11,3.92,9.1
,-8.579,-1.027,-4.269,-8.897,1.07,-4.621,6.65,3.78,7.28
,-8.885,-0.383,-4.204,-8.758,0.775,-4.539,9.03,3.15,6.02
,-9.014,0.591,-4.661,-8.763,0.426,-4.475,11.13,2.66,5.11
18399.0,-8.787,0.12,-4.518,-8.897,-0.979,-4.427,1.54,2.17,-1.19
,-8.744,-0.22,-4.518,-9.143,-0.881,-4.391,3.78,1.4,-1.33
,-8.715,-0.431,-4.561,-9.115,-0.603,-4.525,6.72,0.77,-1.33
,-8.784,-0.727,-4.52,-8.882,-0.244,-4.678,9.87,-0.07,-1.4
18475.0,-8.373,0.002,-4.96,-9.119,-2.41,-4.276,15.26,-0.77,-4.62
,-8.086,-0.249,-5.138,-9.304,-2.666,-4.044,11.2,-0.56,-5.18
,-8.26,-1.072,-4.757,-9.217,-2.367,-4.274,7.14,0.56,-4.97
,-8.775,-1.859,-4.491,-8.971,-1.955,-4.448,6.23,1.05,-3.29
18551.0,-8.887,-1.244,-4.523,-8.354,0.61,-5.296,21.84,-0.21,4.41
,-8.82,-0.392,-4.489,-8.248,-0.223,-4.929,23.45,-0.35,4.27
,-8.799,0.455,-4.697,-8.49,-1.189,-4.649,21.91,-0.63,3.36
,-8.705,0.826,-5.027,-8.921,-1.548,-4.393,16.87,-1.4,2.52
18626.0,-9.445,-1.28,-4.372,-8.842,-0.488,-4.219,12.25,0.21,4.41
,-9.332,-0.842,-4.535,-8.746,-0.438,-4.312,15.26,-0.14,3.92
,-9.122,-0.756,-4.549,-8.717,-0.464,-4.166,14.84,0.21,2.94
,-8.909,-0.656,-4.489,-8.667,-0.416,-4.391,14.56,0.84,2.17
18702.0,-8.547,-0.201,-4.585,-9.395,-0.184,-4.226,5.67,1.19,4.06
,-8.674,-0.342,-4.628,-9.263,0.235,-4.255,4.97,1.96,3.22
,-8.976,-0.404,-4.494,-9.416,0.462,-3.912,5.95,2.94,2.17
,-9.239,-0.325,-4.314,-8.997,0.514,-4.336,8.75,3.85,1.12
18777.0,-8.547,0.215,-4.539,-8.792,-1.357,-4.755,5.53,3.64,-3.36
,-8.564,-0.309,-4.57,-8.693,-1.802,-4.853,2.73,4.55,-3.57
,-8.617,-0.706,-4.642,-8.638,-2.137,-4.867,1.89,4.83,-4.06
,-8.6,-0.972,-4.702,-8.691,-2.355,-4.836,1.61,5.11,-3.85
18853.0,-8.83,-2.257,-4.714,-8.768,-1.194,-5.047,1.47,4.62,2.24
,-8.835,-1.941,-4.862,-8.66,-0.713,-5.379,2.1,4.9,3.64
,-8.801,-1.723,-4.996,-8.801,-0.246,-5.568,0.77,5.39,4.83
,-8.729,-1.584,-5.123,-8.938,-0.146,-5.463,-0.56,5.25,6.09
18929.0,-9.012,-0.148,-5.288,-8.741,-0.519,-4.573,-4.97,2.66,7.0
,-9.17,-0.177,-5.08,-8.722,-0.684,-4.568,-5.39,2.38,6.23
,-9.198,-0.225,-4.874,-8.818,-0.806,-4.59,-5.53,2.24,5.39
,-9.072,-0.328,-4.606,-8.854,-0.625,-4.858,-6.16,1.54,4.76
19005.0,-8.811,-0.495,-5.08,-8.909,-0.395,-4.597,-10.78,-1.47,5.81
,-8.909,-0.457,-4.965,-8.787,-0.696,-4.52,-11.2,-1.54,5.32
,-8.914,-0.081,-5.013,-8.882,-0.68,-4.377,-11.2,-1.47,4.69
,-8.938,-0.062,-4.903,-8.966,-0.199,-4.508,-12.81,-1.4,3.92
19081.0,-8.916,0.074,-4.535,-8.909,-0.488,-4.374,-6.72,0.56,1.89
,-8.76,0.316,-4.456,-8.863,-0.802,-4.226,-6.02,0.28,0.56
,-8.658,0.184,-4.594,-8.873,-0.981,-4.133,-6.58,0.56,-0.7
,-8.787,-0.079,-4.446,-8.863,-0.873,-4.463,-7.63,0.63,-1.19
19156.0,-8.815,-0.737,-4.692,-8.806,-0.955,-4.551,3.57,0.63,-0.35
,-8.77,-0.778,-4.573,-8.966,-0.68,-4.685,2.87,-0.14,0.07
,-8.49,-0.845,-4.757,-8.916,-0.225,-4.592,1.61,-0.28,0.42
,-8.588,-0.952,-4.609,-8.961,0.122,-4.645,1.26,0.63,0.56
19232.0,-8.758,0.067,-4.764,-8.765,-0.294,-4.491,-1.68,-3.08,-0.07
,-8.772,-0.364,-4.599,-8.914,-0.11,-4.496,-3.71,-2.94,-0.42
,-8.744,-0.711,-4.279,-9.055,0.093,-4.475,-3.15,-2.52,-0.63
,-8.722,-0.648,-4.329,-8.82,0.053,-4.554,-0.28,-2.17,-0.7
19308.0,-8.758,-0.397,-4.381,-9.107,-0.213,-4.664,1.82,-0.63,-2.59
,-8.782,-0.708,-4.276,-8.93,0.062,-4.757,2.52,1.19,-2.66
,-8.871,-0.751,-4.377,-8.78,-0.112,-4.738,4.9,1.89,-2.31
,-9.182,-0.651,-4.324,-8.631,-0.479,-4.654,7.42,1.47,-1.82
19384.0,-8.528,-0.634,-4.74,-8.933,-0.495,-4.424,-4.06,-5.25,-3.08
,-8.612,-0.668,-4.63,-8.796,-0.4,-4.346,-3.15,-5.25,-2.94
,-8.792,-0.718,-4.568,-8.698,-0.656,-4.865,-2.03,-5.25,-2.66
,-8.885,-0.687,-4.535,-8.72,-0.639,-4.922,-1.05,-5.11,-2.59
19459.0,-8.902,-1.01,-4.714,-8.772,-0.96,-4.527,9.59,0.42,-0.84
,-8.976,-0.986,-4.499,-8.859,-0.885,-4.434,10.29,-0.21,0.0
,-8.89,-0.96,-4.417,-8.832,-0.878,-4.393,10.29,-1.96,0.49
,-8.648,-0.94,-4.582,-8.839,-1.024,-4.468,9.94,-2.8,1.12
19535.0,-8.763,-1.017,-4.503,-8.93,-0.668,-4.446,8.47,-3.15,4.48
,-8.756,-0.991,-4.628,-8.839,-0.44,-4.348,9.87,-3.36,5.67
,-8.947,-0.905,-4.649,-8.926,-0.402,-4.36,11.9,-3.5,5.95
,-8.988,-0.84,-4.554,-8.995,-0.433,-4.319,13.72,-3.85,5.95
19610.0,-9.086,-0.416,-4.19,-9.005,-0.124,-3.888,13.09,-8.12,6.37
,-9.22,-0.469,-4.164,-8.904,-0.127,-3.81,11.48,-9.45,5.39
,-9.136,-0.424,-4.092,-8.871,-0.208,-3.62,9.38,-11.41,3.78
,-8.961,-0.261,-3.951,-8.976,-0.235,-3.501,7.84,-12.81,3.15
19686.0,-9.086,-0.065,-3.503,-8.966,-0.333,-3.714,6.86,-9.17,0.84
,-9.131,-0.014,-3.666,-8.894,-0.436,-3.857,6.3,-8.82,0.42
,-9.16,-0.048,-3.774,-8.854,-0.273,-4.221,5.53,-8.33,0.28
,-9.1,-0.129,-3.793,-9.076,-0.134,-4.513,4.41,-7.63,-0.14
19762.0,-9.107,-0.079,-4.755,-9.105,-0.742,-3.862,0.28,-9.59,-2.66
,-9.15,-0.357,-4.295,-9.05,-0.625,-3.927,-2.1,-9.31,-2.94
,-9.067,-0.682,-4.197,-9.033,-0.83,-3.783,-1.75,-9.03,-3.78
,-9.127,-0.732,-4.082,-9.139,-0.993,-3.321,-0.84,-9.1,-4.9
19838.0,-9.232,-0.89,-3.142,-8.902,-0.926,-3.23,-0.7,-8.4,-3.78
,-9.1,-0.668,-3.484,-9.222,-1.247,-2.742,-0.28,-9.17,-4.55
,-9.045,-0.378,-3.561,-9.371,-0.972,-2.548,-2.52,-9.66,-4.69
,-8.93,-0.474,-3.238,-9.232,-0.333,-2.51,-4.34,-9.1,-3.92
19914.0,-9.241,0.081,-2.879,-9.091,-0.751,-2.879,4.97,-3.57,-3.29
,-9.375,0.062,-3.13,-9.225,-0.835,-2.979,-0.21,-3.57,-4.06
,-9.179,-0.294,-2.816,-9.21,-0.574,-3.312,-4.76,-2.45,-4.55
,-9.112,-0.543,-2.804,-9.048,-0.553,-3.666,-5.53,-0.91,-4.97
19989.0,-9.019,-0.981,-3.826,-9.282,-0.799,-3.874,-9.8,0.0,-5.11
,-9.124,-1.271,-3.795,-9.217,-0.634,-3.888,-7.77,0.7,-4.55
,-9.201,-1.381,-3.546,-9.177,-0.998,-3.939,-4.13,1.33,-3.92
,-9.268,-1.18,-3.501,-9.165,-1.292,-3.731,-1.26,1.47,-3.78
20065.0,-9.177,-1.161,-3.714,-9.165,-0.771,-3.01,0.91,-0.21,-1.19
,-9.129,-0.931,-3.448,-9.287,-0.459,-3.132,5.46,0.28,-0.49
,-9.141,-0.682,-3.24,-9.239,-0.11,-3.285,7.42,0.91,-0.07
,-9.119,-0.73,-3.321,-9.239,-0.024,-3.477,8.33,1.68,0.42
20141.0,-9.251,-0.089,-3.79,-9.031,-0.445,-4.446,5.46,4.69,-2.17
,-9.04,-0.263,-3.845,-8.93,-0.684,-4.353,2.94,4.97,-2.94
,-9.038,-0.416,-4.078,-9.184,-1.005,-4.408,1.89,4.69,-3.71
,-9.201,-0.457,-4.219,-9.206,-1.163,-4.379,1.12,3.92,-4.41
20217.0,-9.1,-1.168,-4.267,-8.993,-0.845,-4.702,-0.42,-0.42,-4.83
,-9.146,-1.328,-3.905,-8.995,-0.876,-4.743,0.77,-0.91,-4.13
,-9.265,-1.11,-4.341,-8.926,-1.134,-4.384,2.59,-2.03,-4.06
,-9.072,-0.902,-4.556,-8.902,-1.077,-3.965,2.52,-3.64,-4.2
20292.0,-9.036,-1.17,-3.503,-9.292,-1.362,-2.479,3.99,-6.65,-2.45
,-9.239,-1.35,-2.994,-9.349,-1.254,-2.402,4.62,-5.95,-1.96
,-9.249,-1.376,-2.589,-9.361,-1.07,-2.627,5.46,-4.55,-1.12
,-9.32,-1.409,-2.565,-9.229,-0.945,-2.886,5.88,-3.36,-0.7
20368.0,-9.186,-0.749,-3.139,-9.033,-0.524,-4.089,4.13,2.31,1.19
,-9.239,-0.68,-3.544,-9.112,-0.687,-3.987,3.92,2.52,1.05
,-9.117,-0.66,-3.877,-9.182,-0.778,-3.977,3.71,2.17,0.91
,-9.052,-0.541,-4.034,-9.167,-1.053,-3.754,3.29,1.47,0.56
20443.0,-9.249,-1.35,-3.52,-9.17,-0.866,-3.886,1.4,0.49,0.28
,-9.261,-1.448,-3.422,-8.976,-0.794,-3.936,3.29,0.91,0.84
,-9.268,-1.17,-3.587,-9.052,-0.778,-3.999,5.88,0.7,1.33
,-9.241,-0.838,-3.743,-9.06,-1.0,-3.769,5.46,0.28,1.4
20519.0,-9.117,-0.995,-3.501,-9.172,-1.039,-3.01,3.15,-1.75,0.98
,-9.251,-0.914,-3.362,-9.21,-1.278,-2.783,3.71,-1.68,0.98
,-9.282,-0.938,-3.386,-9.311,-1.378,-2.718,3.36,-1.82,0.91
,-9.253,-0.826,-3.226,-9.433,-1.192,-2.761,2.45,-1.68,1.05
20595.0,-9.397,-0.854,-2.864,-8.959,-0.782,-4.353,6.72,2.52,2.38
,-9.332,-0.541,-3.264,-9.024,-1.007,-4.192,5.39,2.73,2.17
,-9.251,-0.555,-3.623,-9.086,-1.043,-4.116,3.22,2.66,1.96
,-9.136,-0.663,-4.113,-9.16,-1.019,-3.683,1.68,1.75,1.4
20671.0,-9.296,-0.895,-3.266,-9.234,-0.878,-3.336,7.84,1.05,2.45
,-9.402,-0.79,-3.19,-9.139,-1.003,-3.319,6.86,1.33,2.38
,-9.361,-0.806,-3.206,-9.234,-0.938,-3.199,5.04,1.4,2.1
,-9.256,-0.775,-3.254,-9.261,-0.866,-3.269,2.87,1.61,1.96
20746.0,-9.299,-0.833,-3.381,-9.105,-1.019,-3.793,2.73,3.99,1.96
,-9.351,-0.727,-3.458,-9.091,-1.086,-3.68,2.1,4.13,1.89
,-9.261,-0.629,-3.743,-9.134,-0.933,-3.573,0.56,3.71,1.68
,-9.105,-0.73,-3.771,-9.232,-0.713,-3.465,-0.98,3.71,1.4
20822.0,-9.313,-0.739,-3.312,-9.232,-0.641,-3.805,0.21,3.78,1.33
,-9.316,-0.916,-3.104,-9.167,-0.591,-3.934,-0.21,4.13,1.4
,-9.316,-0.909,-3.104,-9.117,-0.943,-4.015,0.14,4.41,1.4
,-9.277,-0.72,-3.429,-9.093,-1.027,-3.92,0.56,4.55,1.26
20898.0,-9.091,-0.916,-3.917,-9.268,-0.864,-3.592,1.89,3.78,1.4
,-9.117,-0.838,-3.798,-9.217,-0.838,-3.745,2.38,3.5,1.4
,-9.256,-0.763,-3.676,-9.148,-0.914,-3.812,1.68,3.36,1.33
,-9.277,-0.828,-3.465,-9.083,-0.756,-3.888,0.84,3.5,1.4
20974.0,-9.076,-0.701,-3.759,-9.177,-0.806,-3.573,1.05,3.85,1.75
,-9.139,-0.802,-3.611,-9.232,-0.773,-3.515,0.84,3.71,1.82
,-9.172,-0.816,-3.556,-9.232,-0.749,-3.649,1.26,3.85,1.96
,-9.196,-0.89,-3.611,-9.241,-0.694,-3.908,2.24,4.13,2.03
21050.0,-9.186,-0.756,-3.975,-9.153,-0.66,-3.759,-0.7,3.64,1.61
,-9.134,-0.94,-3.912,-9.107,-0.67,-3.762,-2.24,3.57,1.61
,-9.131,-0.998,-3.838,-9.182,-0.787,-3.745,-2.1,3.01,1.47
,-9.244,-0.802,-3.941,-9.22,-0.864,-3.711,-1.05,2.52,1.33
21125.0,-9.177,-0.785,-3.565,-9.246,-0.785,-3.51,-0.35,2.66,2.17
,-9.206,-0.754,-3.508,-9.148,-0.452,-3.68,0.07,3.29,2.52
,-9.217,-0.9,-3.436,-9.093,-0.325,-3.869,0.35,3.64,2.73
,-9.196,-0.974,-3.489,-9.074,-0.605,-4.03,0.84,4.06,2.94
21201.0,-9.072,-0.838,-4.106,-9.072,-0.672,-3.922,-5.81,2.73,1.4
,-9.112,-0.976,-3.982,-9.069,-0.799,-3.812,-3.99,2.45,1.54
,-9.129,-0.754,-4.025,-8.978,-1.05,-3.62,-2.73,1.82,1.68
,-9.129,-0.677,-4.063,-9.112,-1.29,-3.384,-2.52,1.12,1.96
21276.0,-9.201,-1.247,-3.128,-9.112,-0.378,-4.018,-0.21,2.73,3.57
,-9.28,-1.106,-3.096,-9.036,-0.814,-4.037,0.77,3.5,3.92
,-9.351,-0.818,-3.326,-9.117,-0.995,-3.903,0.35,3.57,3.99
,-9.215,-0.438,-3.726,-9.184,-0.79,-3.836,-1.61,3.15,3.92
21352.0,-9.182,-0.503,-3.726,-9.155,-0.416,-3.037,3.36,3.43,4.76
,-9.194,-0.278,-3.623,-9.27,-0.278,-3.276,1.82,2.52,4.2
,-9.134,-0.139,-3.503,-9.246,-0.251,-3.178,-1.12,1.89,3.85
,-9.055,-0.254,-3.489,-9.206,-0.302,-3.396,-4.27,1.89,3.36
21428.0,-9.107,-0.577,-3.513,-9.016,-0.359,-4.027,-9.17,4.83,1.05
,-9.256,-0.701,-3.149,-8.981,-0.637,-3.884,-6.51,5.11,1.26
,-9.172,-0.333,-3.79,-8.945,-0.883,-3.64,-4.55,4.13,0.84
,-8.914,-0.239,-3.793,-9.1,-0.826,-3.707,-4.48,4.27,0.77
21504.0,-9.134,-0.888,-3.264,-9.201,-0.041,-4.192,0.7,7.28,1.68
,-9.146,-0.847,-3.005,-8.935,-0.249,-4.664,3.57,8.54,2.38
,-9.17,-0.558,-3.128,-8.804,-0.464,-4.817,4.9,9.1,2.38
,-9.318,-0.232,-3.367,-8.837,-0.491,-5.03,4.41,8.54,2.03
21579.0,-8.825,-0.543,-4.578,-9.462,-0.347,-3.489,7.84,6.51,1.19
,-8.938,-0.424,-4.379,-9.517,-0.572,-3.336,10.99,6.72,0.63
,-9.031,-0.347,-3.618,-9.316,-0.586,-3.632,12.32,7.07,0.21
,-9.306,-0.347,-3.343,-8.976,-0.67,-3.362,13.02,7.14,-0.21
21655.0,-8.866,-0.404,-4.635,-8.801,-1.096,-5.066,-0.63,4.69,-2.31
,-8.904,-0.112,-5.276,-8.66,-1.455,-4.331,-4.41,2.38,-2.59
,-9.036,-0.194,-5.702,-8.677,-1.512,-3.81,-9.1,0.35,-2.17
,-8.935,-0.61,-5.54,-9.143,-1.407,-3.163,-11.55,0.14,-2.03
21731.0,-9.184,-1.263,-3.23,-9.277,-0.608,-2.895,9.31,3.57,1.05
,-9.292,-1.531,-2.953,-8.99,0.39,-3.953,8.89,4.76,3.15
,-9.282,-1.575,-2.948,-9.076,0.675,-4.585,11.06,6.79,4.48
,-9.206,-1.304,-2.718,-9.048,0.388,-4.929,13.86,8.47,4.83
21807.0,-8.672,-0.057,-4.853,-9.174,-1.091,-3.877,-3.99,4.55,2.87
,-8.717,-0.665,-4.408,-9.064,-1.216,-3.69,-3.43,5.53,1.89
,-8.839,-1.113,-4.171,-9.155,-1.283,-3.824,-0.21,5.53,1.26
,-9.201,-1.271,-3.678,-8.866,-1.218,-4.231,2.94,5.11,1.47
21882.0,-9.048,-1.144,-4.092,-8.866,0.881,-4.544,10.15,4.55,6.86
,-9.026,-0.548,-4.271,-8.875,0.744,-4.343,10.78,3.99,6.58
,-8.923,-0.06,-4.312,-8.856,0.17,-3.692,8.75,3.92,5.11
,-8.949,0.522,-4.322,-9.002,-0.299,-3.049,6.86,3.85,3.36
21958.0,-9.497,-0.098,-2.927,-8.978,-0.335,-4.606,-0.98,7.56,-1.26
,-9.579,0.282,-3.793,-8.653,-0.881,-4.501,2.52,4.76,-2.38
,-9.495,0.402,-4.286,-8.739,-1.106,-4.192,1.54,2.66,-2.45
,-9.009,0.325,-4.685,-8.729,-1.029,-3.896,-1.61,2.59,-2.03
22034.0,-8.777,-0.689,-3.951,-8.906,-1.005,-3.317,-0.49,3.64,-4.06
,-8.866,-0.696,-4.027,-8.947,-0.933,-3.692,-2.87,3.5,-3.36
,-9.014,-1.041,-3.92,-9.134,-0.912,-3.881,-4.97,5.04,-2.73
,-8.847,-1.206,-3.69,-8.902,-1.144,-4.166,-3.85,7.28,-2.59
22109.0,-8.641,-1.551,-4.197,-8.725,-1.539,-3.68,1.19,7.63,5.18
,-8.648,-1.974,-4.015,-8.751,-1.005,-3.879,2.38,9.52,6.86
,-8.593,-1.694,-4.362,-8.703,-0.945,-4.13,5.74,11.06,7.49
,-8.914,-1.811,-3.927,-8.856,-1.077,-4.13,8.47,10.43,8.61
22185.0,-8.861,-0.751,-4.231,-9.11,1.101,-4.185,6.51,9.52,13.72
,-8.653,-0.304,-4.279,-9.052,1.163,-4.152,7.63,10.15,13.02
,-8.851,0.019,-4.054,-9.1,0.972,-4.094,8.61,10.78,11.9
,-9.153,0.632,-4.087,-8.667,0.591,-4.48,8.96,8.89,10.57
22261.0,-9.014,-0.031,-4.283,-8.586,0.062,-4.846,4.2,9.94,4.48
,-9.241,0.084,-4.692,-8.811,0.022,-4.652,8.68,8.89,3.92
,-9.098,0.431,-5.14,-9.225,0.122,-4.807,12.32,6.93,2.94
,-8.849,0.44,-5.178,-9.256,-0.057,-4.929,12.25,6.23,1.4
22337.0,-8.945,-0.531,-5.126,-8.65,-2.111,-4.872,6.93,5.11,-5.11
,-8.447,-1.067,-5.173,-8.863,-1.584,-4.932,4.41,5.18,-4.13
,-8.157,-1.665,-5.138,-9.0,-1.07,-4.877,4.06,6.16,-2.87
,-8.303,-2.221,-4.815,-9.174,-0.603,-4.946,7.49,6.72,-1.33
22412.0,-9.098,-0.297,-4.862,-8.65,0.83,-4.791,16.87,2.03,2.38
,-9.086,0.141,-4.716,-9.081,0.823,-5.049,15.12,1.89,1.33
,-8.882,0.632,-4.965,-9.122,0.318,-5.061,13.58,0.98,-0.28
,-8.55,0.811,-4.925,-8.847,-0.785,-4.815,11.41,0.14,-1.82
22488.0,-8.804,-1.687,-4.592,-8.698,-0.983,-4.542,3.08,-0.07,-3.99
,-8.799,-1.876,-4.697,-8.983,-0.806,-4.726,8.54,-0.28,-2.87
,-8.873,-1.395,-4.535,-8.935,-0.893,-4.743,14.14,-0.7,-2.1
,-8.811,-1.062,-4.439,-8.729,-1.441,-4.666,15.96,-1.68,-1.33
22564.0,-8.555,-2.024,-4.721,-8.784,-1.043,-4.728,3.85,-0.35,2.94
,-8.727,-2.532,-4.676,-8.411,-0.938,-4.314,5.6,0.63,4.41
,-9.1,-2.182,-4.7,-8.574,-0.625,-4.367,10.99,0.91,5.95
,-9.251,-1.469,-4.609,-8.961,-0.503,-4.13,15.82,-0.56,7.35
22640.0,-9.158,0.156,-4.068,-8.497,0.084,-4.408,13.02,-1.47,8.96
,-9.076,0.814,-4.46,-8.552,-0.163,-4.403,10.22,-2.38,7.77
,-8.93,0.727,-4.372,-8.729,-0.567,-4.276,5.53,-2.17,6.23
,-8.717,0.593,-4.482,-8.849,-0.95,-4.111,1.75,-1.96,4.83
22715.0,-8.983,-0.995,-4.037,-8.981,-0.024,-4.647,3.36,1.82,4.76
,-8.945,-0.778,-4.03,-9.311,-0.17,-4.506,4.48,2.52,4.76
,-8.854,-0.617,-4.145,-9.519,-0.639,-4.188,4.55,3.22,4.55
,-8.847,-0.333,-4.374,-9.119,-0.55,-4.238,4.48,3.71,3.43
22791.0,-8.696,-0.244,-4.669,-8.808,-0.579,-4.472,1.75,5.25,1.26
,-8.741,-0.179,-4.673,-8.902,-0.553,-4.439,0.77,5.81,1.54
,-8.985,-0.199,-4.625,-8.851,-0.457,-4.781,-0.21,6.44,1.68
,-8.993,-0.414,-4.57,-8.93,-0.342,-5.197,-1.4,6.79,1.89
22866.0,-8.952,-0.447,-5.355,-9.165,-1.0,-5.154,-10.57,6.51,3.71
,-8.923,-0.718,-5.394,-9.241,-0.562,-5.252,-11.69,6.37,3.71
,-8.77,-1.005,-5.384,-9.392,0.115,-5.085,-11.34,7.0,3.78
,-9.093,-1.235,-5.111,-8.894,0.416,-5.451,-9.38,6.93,4.41
22942.0,-8.504,0.249,-5.255,-8.94,-0.225,-5.126,-12.11,0.77,2.59
,-8.5,0.029,-4.917,-9.009,-0.605,-4.946,-14.28,1.75,2.17
,-8.727,0.019,-4.824,-8.878,-1.036,-4.86,-13.65,1.19,2.03
,-8.954,0.007,-5.042,-8.921,-1.405,-4.673,-13.09,0.21,1.89
23018.0,-9.04,-1.414,-4.496,-8.83,-0.806,-5.147,-6.09,-0.14,3.43
,-8.528,-1.285,-4.822,-8.696,-0.479,-5.188,-2.8,-2.17,4.41
,-8.251,-1.196,-4.893,-8.763,-0.239,-4.877,-0.84,-2.45,6.16
,-8.61,-1.266,-4.867,-8.966,-0.079,-4.635,-1.12,-3.29,7.07
23094.0,-8.954,0.024,-4.709,-9.076,-0.115,-4.357,-0.07,-5.67,3.71
,-8.899,-0.062,-4.635,-8.861,0.108,-4.377,0.0,-5.81,3.99
,-8.959,-0.086,-4.625,-8.696,0.189,-4.379,1.4,-5.67,3.85
,-8.921,-0.069,-4.7,-8.765,0.093,-4.082,3.43,-5.11,3.15
23170.0,-8.859,0.089,-4.08,-9.095,0.27,-4.501,4.27,-7.56,1.89
,-8.832,0.132,-4.238,-8.595,0.313,-4.575,3.92,-7.35,2.03
,-8.973,0.227,-4.257,-8.409,0.12,-4.415,3.43,-7.21,1.4
,-9.1,0.172,-4.365,-8.741,-0.017,-4.121,2.52,-7.42,0.28
23245.0,-9.091,-0.11,-3.996,-8.713,-0.062,-4.391,-0.84,-8.26,-3.15
,-9.179,-0.124,-4.006,-8.961,-0.223,-4.31,-0.49,-8.54,-2.73
,-8.89,-0.158,-4.133,-9.335,-0.146,-4.054,-0.98,-8.05,-1.89
,-9.021,-0.546,-4.123,-9.165,-0.163,-3.948,-1.82,-6.72,-1.26
23321.0,-9.06,-0.261,-4.087,-8.617,-0.127,-4.295,2.73,-5.67,-1.33
,-9.186,-0.313,-4.238,-8.775,-0.352,-4.099,2.03,-6.93,-1.54
,-8.837,-0.06,-4.616,-8.892,-0.651,-4.032,1.47,-9.24,-2.17
,-8.583,0.014,-4.482,-9.005,-0.715,-4.073,1.19,-9.1,-2.66
23397.0,-9.127,-0.79,-4.011,-8.703,-0.172,-3.929,7.14,-5.88,-0.91
,-9.651,-0.771,-3.807,-9.052,-0.132,-4.092,9.59,-6.16,-0.91
,-9.318,-0.56,-3.853,-9.009,-0.06,-4.022,9.66,-8.19,-1.19
,-8.82,-0.321,-3.874,-8.818,-0.072,-4.118,8.75,-8.4,-0.84
23473.0,-8.835,-0.244,-3.994,-9.249,0.211,-3.771,5.11,-5.67,-1.19
,-9.091,-0.414,-3.891,-9.16,0.201,-3.709,5.88,-5.25,-1.47
,-9.043,-0.33,-3.807,-9.457,-0.038,-3.439,7.07,-6.16,-1.89
,-9.143,-0.062,-3.668,-9.275,-0.175,-3.482,8.61,-5.81,-2.17
23548.0,-8.981,-0.211,-3.757,-9.0,-0.364,-3.707,5.39,-1.89,-4.13
,-8.849,-0.139,-3.814,-9.06,-0.785,-3.489,5.88,-2.03,-4.34
,-9.0,0.043,-3.848,-9.299,-1.12,-3.465,5.74,-2.66,-4.69
,-9.191,-0.031,-3.888,-9.328,-1.151,-3.262,3.57,-3.78,-5.74
23624.0,-9.15,-0.794,-3.687,-8.923,-0.768,-3.577,0.14,-6.09,-5.53
,-8.945,-0.687,-3.893,-9.117,-0.464,-3.151,-1.89,-7.0,-4.97
,-8.902,-0.73,-4.171,-9.234,-0.249,-3.3,-4.2,-7.21,-3.99
,-8.885,-0.876,-3.946,-9.328,-0.44,-3.084,-3.08,-5.88,-2.8
23699.0,-9.289,-0.804,-3.13,-9.165,0.038,-3.565,-2.59,-3.92,-3.36
,-9.179,-1.098,-2.97,-9.203,0.361,-4.161,-0.35,-2.73,-2.73
,-9.258,-0.972,-3.111,-9.057,0.177,-4.377,3.78,-2.03,-2.52
,-9.17,-0.467,-3.228,-8.899,-0.062,-4.503,4.41,-2.31,-3.08
23775.0,-8.945,-0.44,-4.276,-9.409,-0.952,-3.185,-9.59,-7.07,-6.65
,-9.019,-0.806,-4.245,-9.335,-0.675,-3.23,-8.33,-7.35,-7.28
,-9.016,-1.05,-3.482,-9.215,-0.357,-3.862,-4.83,-7.0,-6.72
,-9.287,-0.991,-3.355,-9.045,-0.778,-3.439,-1.26,-6.72,-5.81
23851.0,-9.261,-1.101,-3.364,-9.273,-0.677,-3.4,-3.5,-6.37,-4.69
,-9.091,-0.794,-3.209,-9.265,-0.885,-3.343,-1.61,-6.23,-4.76
,-9.227,-0.491,-3.116,-9.256,-0.804,-3.551,-0.21,-5.81,-4.55
,-9.418,-0.371,-3.472,-9.191,-0.562,-3.652,-0.84,-5.74,-4.55
23927.0,-9.062,-0.242,-3.874,-9.45,-1.275,-3.058,3.85,-5.74,-4.13
,-9.11,-0.541,-3.716,-9.529,-1.106,-3.001,0.98,-5.67,-4.13
,-9.284,-0.981,-3.357,-9.244,-0.773,-3.252,0.07,-4.48,-3.57
,-9.533,-1.321,-3.07,-9.052,-0.653,-3.216,1.96,-3.43,-2.8
24003.0,-9.081,-0.869,-3.247,-9.296,-0.715,-3.001,5.46,-2.38,-0.49
,-9.287,-0.845,-3.589,-9.426,-0.404,-3.013,7.7,-2.31,-0.28
,-9.155,-0.699,-3.484,-9.359,-0.122,-3.092,9.17,-2.31,-0.28
,-9.198,-0.696,-3.23,-9.411,-0.153,-3.295,9.52,-1.47,-0.14
24078.0,-9.313,-0.328,-3.458,-9.335,-0.995,-3.049,2.73,-1.75,-1.96
,-9.079,-0.689,-3.405,-9.411,-1.053,-2.572,0.7,-1.75,-2.31
,-9.052,-1.005,-3.125,-9.569,-1.132,-2.18,0.21,-1.12,-2.52
,-9.206,-1.359,-2.85,-9.572,-1.299,-1.993,2.45,-0.28,-2.03
24154.0,-9.536,-0.976,-2.288,-9.06,-0.641,-4.106,8.19,5.95,1.05
,-9.397,-0.632,-2.879,-8.99,-0.806,-4.279,8.75,6.51,1.12
,-9.354,-0.424,-3.702,-9.16,-1.003,-4.034,7.49,6.09,0.98
,-9.131,-0.438,-3.879,-9.249,-1.0,-3.905,4.13,5.39,0.91
24230.0,-9.344,-1.019,-3.549,-9.091,-1.036,-3.223,8.26,2.73,0.56
,-9.392,-0.706,-3.774,-9.16,-1.285,-3.271,6.93,1.4,-0.07
,-9.184,-0.44,-3.869,-9.299,-1.201,-3.063,3.01,-0.14,-0.91
,-9.048,-0.648,-3.549,-9.428,-0.902,-3.065,-1.12,-0.56,-1.12
24306.0,-9.435,-0.835,-3.07,-9.347,-0.737,-3.75,3.29,1.26,0.84
,-9.375,-0.871,-2.977,-9.249,-0.56,-4.125,2.73,2.03,0.91
,-9.387,-0.905,-3.084,-9.105,-0.706,-4.142,2.45,2.73,1.05
,-9.368,-0.838,-3.369,-9.012,-0.952,-4.101,1.89,2.73,0.91
24381.0,-9.117,-1.175,-3.798,-9.301,-0.404,-3.537,6.23,0.98,1.96
,-9.347,-0.952,-3.58,-9.127,-0.431,-3.465,9.94,0.84,2.52
,-9.464,-0.725,-3.486,-9.189,-0.589,-3.446,10.43,0.21,2.24
,-9.531,-0.555,-3.52,-9.189,-0.828,-3.271,7.84,-0.7,1.61
24457.0,-9.311,-0.835,-3.087,-9.299,-1.048,-2.883,1.4,-1.75,-0.14
,-9.38,-0.857,-2.996,-9.368,-1.144,-2.871,1.89,-1.82,-0.21
,-9.361,-0.792,-2.888,-9.409,-1.058,-3.163,1.75,-1.54,-0.21
,-9.296,-0.787,-2.898,-9.335,-0.897,-3.362,0.84,-0.98,-0.14
24532.0,-9.229,-0.806,-3.4,-9.44,-0.471,-3.443,0.7,0.7,0.35
,-9.16,-0.814,-3.331,-9.282,-0.495,-3.501,1.12,1.33,0.63
,-9.186,-0.73,-3.259,-9.256,-0.852,-3.539,2.24,1.54,0.7
,-9.481,-0.744,-3.321,-9.22,-1.039,-3.597,2.8,1.54,0.7
24608.0,-9.162,-1.019,-3.561,-9.332,-0.641,-3.458,0.91,0.28,0.14
,-9.22,-0.895,-3.467,-9.28,-0.665,-3.415,1.96,-0.07,0.21
,-9.351,-0.723,-3.281,-9.227,-0.802,-3.549,1.96,-0.07,0.35
,-9.404,-0.629,-3.343,-9.179,-0.979,-3.384,1.61,0.0,0.28
24684.0,-9.301,-0.979,-3.285,-9.421,-0.73,-2.97,3.36,0.14,0.63
,-9.375,-0.95,-3.106,-9.308,-0.682,-3.022,3.85,0.35,0.63
,-9.316,-0.761,-2.91,-9.304,-0.861,-3.037,3.29,0.42,0.42
,-9.337,-0.694,-2.879,-9.296,-0.998,-3.02,2.1,0.63,0.21
24760.0,-9.282,-0.943,-2.984,-9.335,-0.706,-3.86,2.59,2.87,0.77
,-9.371,-0.847,-3.094,-9.21,-0.861,-3.982,4.13,2.8,0.91
,-9.361,-0.687,-3.23,-9.222,-1.041,-4.025,3.71,2.59,0.77
,-9.363,-0.637,-3.532,-9.127,-1.106,-3.838,2.87,2.24,0.49
24835.0,-9.232,-0.979,-3.604,-9.301,-0.742,-3.128,3.85,0.56,0.98
,-9.399,-0.912,-3.422,-9.335,-0.869,-3.07,5.11,0.49,1.19
,-9.351,-0.725,-3.283,-9.301,-0.873,-2.982,4.76,0.14,1.19
,-9.308,-0.644,-3.226,-9.347,-0.835,-2.9,3.78,0.35,1.19
24911.0,-9.387,-0.778,-3.034,-9.237,-0.921,-3.362,2.31,1.75,0.98
,-9.354,-0.759,-3.116,-9.244,-0.835,-3.302,1.61,1.82,0.84
,-9.32,-0.625,-3.221,-9.359,-0.835,-3.36,0.84,1.47,0.63
,-9.289,-0.773,-3.391,-9.356,-0.72,-3.364,0.28,1.75,0.63
24987.0,-9.378,-0.778,-3.448,-9.265,-0.859,-3.4,4.2,2.66,0.98
,-9.313,-0.823,-3.4,-9.328,-0.859,-3.314,4.2,2.38,0.91
,-9.311,-0.804,-3.503,-9.251,-0.749,-3.288,4.34,2.31,0.7
,-9.332,-0.833,-3.439,-9.289,-0.747,-3.24,4.34,2.17,0.63
25063.0,-9.323,-0.782,-3.218,-9.289,-0.981,-3.065,3.15,1.89,0.49
,-9.282,-0.732,-3.192,-9.325,-0.763,-3.238,2.73,2.24,0.56
,-9.268,-0.847,-3.19,-9.349,-0.727,-3.269,2.03,2.38,0.49
,-9.294,-1.055,-3.132,-9.284,-0.761,-3.35,2.1,2.59,0.7
25139.0,-9.263,-0.876,-3.451,-9.402,-0.62,-3.439,0.21,2.45,0.56
,-9.208,-0.912,-3.532,-9.366,-0.488,-3.642,1.47,2.45,0.77
,-9.342,-0.711,-3.398,-9.268,-0.589,-3.697,2.52,2.52,0.84
,-9.351,-0.775,-3.451,-9.225,-0.838,-3.68,2.24,2.38,0.91
25214.0,-9.213,-1.062,-3.647,-9.349,-0.744,-3.355,-3.43,-0.84,-0.28
,-9.153,-1.082,-3.64,-9.328,-0.754,-3.331,-0.77,-0.56,0.07
,-9.287,-1.065,-3.506,-9.273,-0.785,-3.295,1.4,-0.28,0.56
,-9.354,-0.964,-3.345,-9.306,-0.78,-3.245,2.45,-0.49,0.91
25290.0,-9.273,-0.627,-3.206,-9.337,-1.039,-2.682,-0.14,-0.77,0.98
,-9.284,-0.62,-3.058,-9.383,-1.046,-2.532,-1.05,-0.21,0.98
,-9.316,-0.641,-3.015,-9.517,-0.838,-2.86,-2.03,0.49,0.91
,-9.299,-0.835,-2.867,-9.371,-0.701,-2.979,-2.45,1.26,1.12
25365.0,-9.273,-0.83,-2.871,-9.371,-0.55,-2.893,-2.38,4.13,2.24
,-9.308,-0.852,-2.833,-9.392,-0.558,-3.46,-2.38,4.9,2.59
,-9.323,-0.878,-2.632,-9.148,-1.005,-3.649,-1.19,6.09,2.87
,-9.363,-0.603,-2.984,-9.055,-1.304,-3.4,-0.91,6.23,2.59
25441.0,-9.107,-1.28,-3.403,-9.469,-0.108,-3.061,-0.42,7.7,3.71
,-9.15,-1.285,-2.917,-9.335,-0.022,-3.647,3.92,8.82,4.55
,-9.39,-0.988,-2.879,-9.222,-0.436,-3.939,7.77,9.24,5.11
,-9.426,-0.514,-2.73,-9.146,-0.869,-3.721,8.33,9.17,5.04
25517.0,-9.11,-0.725,-3.927,-9.141,-0.766,-2.517,-7.28,6.09,2.38
,-9.05,-0.67,-4.075,-9.385,-0.486,-2.627,-4.48,6.16,1.68
,-9.139,-0.66,-3.752,-9.634,-0.146,-2.879,-1.96,6.72,1.68
,-9.115,-0.677,-3.47,-9.596,-0.258,-3.233,-1.12,7.0,1.54
25593.0,-9.289,-0.459,-3.752,-8.844,-0.782,-3.331,-8.61,5.81,0.63
,-9.064,-0.957,-3.74,-8.82,-0.313,-3.283,-10.08,6.86,0.77
,-8.981,-1.072,-3.843,-8.933,-0.103,-2.419,-6.02,7.56,0.84
,-8.959,-0.897,-4.171,-9.588,0.225,-2.958,-1.05,7.91,0.63
25668.0,-9.691,0.232,-3.484,-8.899,-2.051,-3.408,-1.96,6.93,-2.17
,-9.67,-0.459,-3.35,-8.677,-2.058,-3.271,-7.42,7.21,-1.54
,-9.27,-1.132,-3.676,-8.849,-1.936,-2.943,-11.41,7.0,-1.33
,-8.938,-1.826,-3.4,-9.069,-1.266,-3.041,-10.71,7.91,-0.49
25744.0,-9.318,-0.826,-3.348,-8.933,-1.464,-3.912,18.34,13.72,5.81
,-9.375,-0.383,-3.446,-9.141,-1.718,-3.537,18.13,12.6,6.09
,-9.134,-0.313,-3.881,-9.179,-1.318,-3.568,14.28,11.48,6.3
,-9.052,-0.859,-3.922,-9.158,-0.928,-3.678,9.52,11.9,7.35
25819.0,-9.095,-0.584,-3.333,-9.055,0.424,-4.87,15.54,14.49,8.47
,-9.143,-0.048,-3.46,-8.612,0.28,-4.609,13.72,13.86,8.19
,-9.277,0.242,-4.192,-8.732,0.237,-4.338,9.03,11.55,7.0
,-9.34,0.357,-4.563,-8.918,0.034,-4.434,4.2,10.15,6.37
25895.0,-9.33,-0.282,-4.377,-8.923,-0.84,-3.908,-2.03,9.38,0.84
,-9.344,-0.459,-4.42,-9.052,-0.608,-3.798,-1.61,9.59,1.68
,-9.052,-0.768,-4.176,-9.201,-0.191,-4.111,-0.07,10.71,2.24
,-8.978,-0.84,-4.039,-9.232,0.077,-4.212,3.36,12.18,2.17
25971.0,-8.894,0.287,-4.252,-9.426,-1.05,-3.893,1.54,9.38,0.49
,-8.643,-0.026,-4.113,-9.083,-1.01,-3.781,-3.57,8.96,-0.91
,-8.815,-0.397,-4.089,-8.591,-1.07,-3.604,-5.81,8.89,-1.68
,-9.184,-0.869,-3.991,-8.777,-0.972,-3.743,-5.95,8.33,-1.54
26047.0,-8.89,-0.665,-4.054,-8.993,0.101,-4.025,3.71,9.52,1.19
,-8.957,-0.335,-4.243,-8.985,0.0,-4.075,6.37,9.8,1.4
,-8.94,-0.065,-4.154,-9.134,0.211,-4.247,6.51,11.34,1.4
,-8.928,0.067,-3.963,-9.028,0.481,-4.403,5.18,13.3,0.63
26123.0,-8.804,0.629,-4.513,-9.115,-0.495,-4.913,1.96,14.42,-5.18
,-8.713,0.45,-4.599,-8.823,-0.648,-5.389,-0.14,14.07,-6.37
,-8.993,0.16,-4.594,-8.416,-1.658,-4.771,-1.26,13.86,-7.0
,-9.158,-0.146,-4.841,-8.413,-2.742,-4.386,-1.47,12.39,-7.28
26198.0,-8.732,-3.128,-4.343,-8.808,-1.531,-5.078,-3.57,11.13,0.63
,-8.77,-3.12,-4.417,-8.739,-0.893,-5.195,1.4,9.52,3.08
,-8.782,-2.647,-4.676,-8.593,-0.388,-5.453,4.9,8.19,4.9
,-8.859,-2.142,-4.843,-8.792,-0.179,-5.276,6.86,7.42,6.16
26274.0,-8.792,-0.012,-5.006,-9.17,-0.591,-4.401,-1.82,2.94,6.79
,-8.686,-0.06,-4.874,-8.935,-0.256,-4.669,-4.27,2.66,6.44
,-8.782,-0.359,-4.625,-8.985,0.163,-4.637,-4.97,3.57,6.3
,-8.933,-0.598,-4.585,-9.074,0.335,-4.417,-3.01,3.5,5.95
26350.0,-9.036,0.67,-4.281,-8.746,-0.543,-4.458,7.98,-0.98,1.54
,-8.375,0.759,-4.573,-8.926,-0.964,-4.357,5.25,-3.57,0.07
,-8.504,0.598,-4.683,-8.756,-1.0,-4.606,2.03,-4.13,-1.68
,-8.868,0.117,-4.709,-8.413,-1.192,-4.633,0.07,-4.13,-1.89
26426.0,-8.406,-1.295,-4.532,-9.036,-0.06,-4.523,12.81,2.31,0.49
,-8.835,-1.0,-4.678,-9.062,-0.299,-4.496,15.96,2.8,0.7
,-9.241,-0.684,-4.506,-9.1,-0.725,-4.424,17.01,1.89,0.63
,-9.196,-0.342,-4.413,-8.78,-0.864,-4.697,15.96,0.98,-0.07
26501.0,-8.435,-1.151,-4.7,-8.729,-1.218,-4.769,9.94,2.1,-1.61
,-8.2,-1.632,-4.709,-9.086,-0.838,-4.561,11.13,2.38,-0.28
,-8.519,-1.721,-4.482,-9.222,-0.376,-4.748,14.07,2.59,1.19
,-8.658,-1.46,-4.645,-9.117,-0.191,-4.81,17.85,1.89,2.94
26577.0,-9.083,-0.541,-4.527,-8.851,-0.225,-5.109,14.42,0.21,1.47
,-8.911,-0.436,-4.578,-8.737,-0.522,-4.982,12.46,0.28,0.98
,-8.765,-0.371,-4.819,-8.677,-0.931,-4.618,12.46,0.56,0.35
,-8.815,-0.223,-4.999,-8.794,-1.048,-4.31,12.81,1.19,-0.07
26652.0,-8.545,-1.292,-4.293,-9.033,-0.201,-4.491,9.1,0.35,2.31
,-8.581,-1.637,-4.286,-8.93,0.168,-4.602,9.94,0.98,3.22
,-8.923,-1.323,-4.192,-8.835,0.316,-4.63,13.02,1.19,4.13
,-9.186,-0.718,-4.398,-8.588,-0.048,-4.764,14.91,0.21,4.62
26728.0,-8.591,-0.739,-4.702,-8.818,-1.62,-4.192,4.34,-1.05,1.47
,-9.024,-1.029,-4.415,-8.751,-1.129,-4.314,6.09,-0.77,2.03
,-9.009,-1.285,-4.365,-8.945,-0.83,-4.223,7.77,-0.91,2.45
,-8.897,-1.73,-4.245,-9.028,-0.459,-4.269,9.45,0.07,2.87
26804.0,-8.744,-0.357,-4.53,-8.581,-1.11,-4.334,11.27,1.26,3.08
,-8.686,-0.773,-4.472,-8.717,-1.003,-4.31,5.6,2.1,3.92
,-9.067,-1.153,-4.092,-8.842,-0.627,-4.535,3.29,2.38,4.55
,-8.945,-1.115,-4.188,-8.72,-0.359,-4.85,3.29,1.47,4.62
26880.0,-8.801,-0.352,-4.812,-9.299,-0.151,-4.523,6.86,3.71,4.9
,-8.99,-0.218,-4.592,-8.914,-0.223,-4.704,6.79,4.06,4.13
,-8.964,-0.074,-4.688,-8.466,-0.644,-4.774,5.88,4.06,3.15
,-9.136,-0.184,-4.558,-8.483,-1.05,-4.628,4.69,4.76,2.17
26956.0,-8.813,-1.196,-4.573,-8.957,-0.481,-4.783,-1.61,4.48,2.38
,-9.005,-0.967,-4.838,-8.911,-0.503,-4.714,-0.42,3.78,2.87
,-9.103,-0.828,-4.874,-8.873,-0.718,-4.728,-0.56,3.71,3.01
,-9.002,-0.715,-4.798,-8.799,-0.895,-4.683,-1.75,3.5,2.87
27031.0,-8.952,-0.96,-4.759,-8.492,-0.759,-4.944,-6.09,5.46,2.94
,-9.308,-0.806,-4.843,-8.65,-0.976,-4.846,-4.69,4.27,3.5
,-9.012,-0.751,-4.917,-8.708,-1.206,-4.889,-3.78,3.36,3.71
,-8.717,-0.648,-4.972,-8.837,-1.196,-4.977,-3.78,2.52,3.99
27107.0,-8.935,-0.747,-4.999,-9.033,0.156,-4.374,-5.04,3.78,4.06
,-9.079,-0.06,-4.846,-8.617,0.132,-4.7,-6.93,6.44,1.05
,-9.153,0.069,-4.671,-8.605,-0.122,-4.853,-12.53,7.7,-2.1
,-9.541,-0.168,-4.149,-8.705,-0.713,-4.59,-16.03,6.86,-3.01
27183.0,-8.734,-0.964,-4.688,-8.569,0.187,-4.91,-14.14,1.33,-3.36
,-8.768,-0.9,-4.704,-8.603,0.129,-5.106,-8.05,-0.14,-3.01
,-8.765,-0.471,-4.664,-8.746,-0.034,-5.056,-2.59,-0.84,-2.38
,-8.801,-0.019,-4.702,-8.868,-0.383,-5.047,-0.14,-3.15,-2.31
27259.0,-8.696,-0.641,-4.949,-8.777,-0.981,-4.865,-6.02,-3.92,-4.55
,-8.646,-0.775,-4.793,-8.854,-0.895,-4.903,-3.08,-3.36,-4.2
,-8.725,-0.907,-4.829,-8.655,-0.95,-4.86,0.77,-2.94,-3.78
,-8.806,-0.981,-4.769,-8.545,-1.089,-4.776,3.99,-3.36,-3.22
27334.0,-8.607,-1.007,-4.712,-8.784,-1.098,-4.369,5.32,-4.69,-0.07
,-8.744,-0.864,-4.74,-8.693,-1.196,-4.286,4.97,-5.11,0.42
,-8.837,-0.852,-4.692,-8.959,-1.213,-4.056,3.5,-5.04,1.33
,-8.83,-1.005,-4.568,-9.014,-0.924,-4.128,2.45,-5.25,2.03
27410.0,-8.794,-0.701,-4.228,-8.859,-0.543,-3.939,3.92,-10.43,6.3
,-8.88,-1.091,-4.274,-8.837,-0.249,-4.111,2.1,-10.71,6.65
,-8.758,-0.9,-3.903,-8.976,-0.153,-4.097,-1.4,-11.13,6.93
,-8.847,-0.787,-3.836,-9.038,-0.11,-4.056,0.42,-10.85,6.93
27485.0,-8.801,-0.175,-4.202,-9.15,-0.062,-4.183,4.97,-5.6,5.18
,-8.942,-0.299,-4.197,-9.0,0.206,-4.271,5.95,-3.85,5.04
,-9.196,-0.407,-4.171,-8.827,0.211,-4.262,7.21,-3.29,4.55
,-9.088,-0.325,-4.166,-8.942,0.026,-4.226,8.75,-4.06,3.78
27561.0,-9.213,-0.275,-4.369,-8.923,-0.809,-4.233,-0.28,-8.05,0.49
,-9.127,-0.287,-4.494,-9.217,-0.78,-4.032,-2.87,-10.78,-0.07
,-8.686,-0.404,-4.441,-9.196,-0.536,-4.171,-3.85,-10.78,-0.07
,-8.643,-0.596,-4.413,-9.143,-0.316,-4.121,-3.64,-10.08,-0.42
27637.0,-8.859,-0.483,-4.286,-8.894,-0.431,-4.154,1.26,-6.58,0.42
,-8.973,-0.802,-4.312,-8.847,-0.354,-4.097,1.61,-5.39,0.14
,-9.131,-0.909,-4.233,-9.028,-0.663,-4.058,4.06,-4.2,-0.21
,-9.086,-0.668,-4.13,-9.304,-0.857,-4.054,6.51,-4.69,-0.35
27713.0,-9.007,-0.902,-3.965,-9.031,-0.514,-3.92,3.99,-8.05,1.82
,-8.878,-0.766,-3.841,-8.957,-0.464,-3.955,6.23,-7.49,2.24
,-8.882,-0.634,-3.771,-9.074,-0.522,-3.872,7.49,-7.14,2.38
,-9.074,-0.546,-3.707,-9.158,-0.498,-3.508,8.33,-7.14,2.8
27788.0,-9.299,-0.457,-3.259,-9.095,-0.232,-3.594,10.29,-5.53,2.24
,-9.371,-0.29,-3.116,-9.043,-0.431,-3.781,9.94,-5.18,1.82
,-9.277,-0.041,-3.297,-9.076,-0.462,-3.618,8.05,-5.74,1.89
,-9.146,-0.017,-3.568,-9.134,-0.177,-3.752,4.55,-6.65,2.03
27864.0,-9.05,-0.036,-3.692,-9.069,-0.945,-3.056,-0.63,-8.12,-2.24
,-9.292,-0.404,-3.546,-9.038,-0.799,-3.13,-3.92,-8.19,-2.52
,-9.385,-0.766,-3.386,-9.17,-0.584,-3.336,-6.23,-8.26,-3.01
,-9.284,-0.943,-2.867,-9.143,-0.495,-3.434,-5.11,-6.93,-2.94
27940.0,-9.172,-0.33,-3.41,-9.227,-0.555,-3.431,0.56,-3.92,-0.49
,-9.253,-0.144,-3.491,-9.217,-0.842,-3.314,1.82,-3.64,-1.19
,-9.237,0.045,-3.692,-9.316,-0.847,-3.082,0.49,-3.57,-2.17
,-9.158,-0.206,-3.642,-9.385,-0.596,-3.154,-1.96,-3.36,-2.31
28016.0,-9.323,-0.428,-3.183,-8.935,-0.507,-3.855,2.59,-0.98,-1.12
,-9.299,-0.426,-3.044,-9.016,-0.732,-4.111,1.96,0.07,-0.98
,-9.292,-0.313,-3.436,-9.098,-0.945,-3.769,2.45,0.07,-1.47
,-9.107,-0.28,-3.855,-9.122,-0.818,-3.424,0.42,-0.56,-2.38
28092.0,-9.32,-0.61,-2.871,-9.213,-0.433,-3.159,8.75,0.91,-0.28
,-9.457,-0.431,-2.546,-9.122,-0.579,-3.381,7.84,1.26,-0.63
,-9.497,-0.213,-2.781,-9.122,-0.526,-3.501,4.83,0.98,-1.05
,-9.426,-0.304,-2.891,-9.095,-0.254,-3.501,1.26,1.4,-1.26
28167.0,-9.177,-0.053,-3.618,-9.222,-0.158,-3.948,1.47,3.29,-3.43
,-9.21,0.146,-3.85,-9.287,-0.256,-3.85,-0.28,2.59,-4.34
,-9.234,0.206,-4.14,-9.299,-0.266,-3.664,-3.01,1.75,-5.25
,-9.103,0.017,-4.106,-9.287,-0.462,-3.642,-4.62,0.98,-5.74
28243.0,-9.232,-0.878,-3.793,-9.155,-1.534,-3.632,-5.25,-1.68,-6.58
,-9.095,-1.491,-3.781,-9.091,-1.359,-3.448,-5.67,-1.68,-5.74
,-9.146,-1.855,-3.527,-9.165,-1.192,-3.551,-3.15,-1.12,-4.48
,-9.239,-1.811,-3.518,-9.155,-1.196,-3.671,1.54,-0.7,-3.5
28318.0,-9.136,-1.175,-3.778,-9.232,-0.369,-3.759,6.23,-0.07,0.98
,-9.136,-0.986,-4.003,-9.316,-0.337,-3.568,8.26,-0.28,1.61
,-9.04,-0.924,-4.032,-9.43,-0.316,-3.637,10.5,-0.42,2.03
,-9.143,-0.591,-3.872,-9.349,-0.45,-3.479,12.74,-0.84,2.24
28394.0,-9.244,-0.562,-3.582,-9.447,-0.608,-2.773,6.37,-2.31,0.77
,-9.146,-0.727,-3.206,-9.409,-0.677,-2.639,6.23,-2.1,0.63
,-9.253,-0.723,-3.02,-9.335,-0.986,-2.745,7.28,-1.47,0.56
,-9.363,-0.617,-2.907,-9.203,-0.991,-3.046,6.86,-0.7,0.28
28470.0,-9.186,-0.849,-3.422,-9.112,-0.376,-4.152,1.19,2.03,0.35
,-9.194,-0.608,-3.652,-9.184,-0.433,-4.042,2.31,2.03,0.35
,-9.292,-0.225,-4.152,-9.21,-0.61,-3.838,2.24,1.75,0.21
,-9.131,-0.285,-4.221,-9.263,-0.725,-3.618,1.47,1.26,-0.07
28546.0,-9.284,-0.763,-3.719,-9.273,-0.878,-3.252,3.85,-1.47,-0.35
,-9.222,-0.866,-3.668,-9.323,-0.861,-2.848,3.57,-1.68,-0.28
,-9.179,-0.919,-3.539,-9.428,-0.754,-2.661,3.22,-1.68,-0.28
,-9.198,-0.866,-3.486,-9.452,-0.584,-2.63,3.57,-1.54,-0.21
28621.0,-9.385,-0.44,-2.816,-9.095,-1.113,-3.484,1.61,1.33,-0.28
,-9.289,-0.553,-3.096,-9.206,-0.943,-3.271,-0.14,1.54,-0.42
,-9.194,-0.754,-3.46,-9.414,-0.57,-3.278,-0.56,1.96,-0.35
,-9.122,-0.983,-3.57,-9.414,-0.433,-3.376,0.91,2.31,0.07
28697.0,-9.306,-0.512,-3.668,-9.158,-0.916,-3.908,1.47,2.38,0.42
,-9.158,-0.881,-3.927,-9.316,-0.651,-3.877,-1.54,1.75,0.07
,-9.04,-1.146,-4.066,-9.32,-0.498,-3.819,-1.19,1.19,0.0
,-9.093,-1.175,-4.07,-9.287,-0.553,-3.771,1.4,0.98,0.49
28773.0,-9.174,-0.83,-3.64,-9.371,-0.687,-3.661,0.14,-1.54,0.56
,-9.182,-1.012,-3.477,-9.27,-0.675,-3.824,1.96,-1.61,0.98
,-9.296,-0.905,-3.506,-9.146,-0.692,-3.929,4.97,-1.54,1.4
,-9.385,-0.78,-3.522,-9.17,-0.727,-3.879,6.51,-1.61,1.75
28849.0,-9.191,-0.696,-3.867,-9.261,-0.581,-3.173,4.62,-3.64,1.33
,-9.215,-0.732,-3.807,-9.215,-0.61,-2.953,5.25,-4.06,1.19
,-9.335,-0.668,-3.743,-9.39,-0.768,-2.73,4.83,-4.9,0.77
,-9.323,-0.66,-3.431,-9.392,-0.9,-2.661,4.27,-5.25,0.63
28924.0,-9.311,-0.928,-2.474,-9.277,-0.751,-2.793,2.94,-2.03,0.84
,-9.395,-0.723,-2.436,-9.313,-0.735,-2.982,3.36,-1.05,1.05
,-9.423,-0.675,-2.582,-9.308,-0.718,-3.02,2.45,-0.21,0.91
,-9.318,-0.718,-2.675,-9.347,-0.57,-3.271,1.68,0.49,1.05
29000.0,-9.313,-0.591,-3.357,-9.337,-0.706,-3.51,0.7,2.94,1.05
,-9.328,-0.622,-3.51,-9.392,-0.778,-3.553,0.42,2.87,0.7
,-9.284,-0.62,-3.563,-9.402,-0.749,-3.733,0.07,2.66,0.49
,-9.308,-0.718,-3.537,-9.222,-0.759,-3.728,0.07,2.8,0.49
29076.0,-9.189,-0.814,-3.654,-9.383,-0.692,-3.08,2.17,1.68,0.63
,-9.253,-0.823,-3.585,-9.34,-0.797,-2.917,3.01,1.61,0.77
,-9.263,-0.804,-3.369,-9.373,-0.742,-2.955,4.2,1.61,0.91
,-9.428,-0.711,-3.175,-9.261,-0.711,-3.108,4.62,1.82,1.05
29151.0,-9.265,-0.838,-3.195,-9.316,-0.512,-3.467,2.17,3.15,1.12
,-9.292,-0.873,-3.257,-9.282,-0.481,-3.601,2.24,3.43,1.19
,-9.296,-0.842,-3.178,-9.263,-0.56,-3.647,3.01,3.71,1.33
,-9.289,-0.718,-3.262,-9.203,-0.651,-3.551,3.99,3.99,1.54
29227.0,-9.265,-0.842,-3.482,-9.258,-0.797,-3.41,1.47,3.43,1.12
,-9.306,-0.804,-3.381,-9.244,-0.859,-3.384,2.45,3.43,1.05
,-9.347,-0.818,-3.36,-9.299,-0.794,-3.412,2.87,3.22,1.05
,-9.316,-0.804,-3.515,-9.308,-0.591,-3.355,2.87,3.01,1.05
29303.0,-9.284,-0.505,-3.372,-9.32,-0.637,-3.417,2.94,3.36,1.05
,-9.308,-0.455,-3.34,-9.239,-0.531,-3.417,1.75,3.5,0.84
,-9.246,-0.637,-3.278,-9.227,-0.601,-3.372,0.63,3.64,0.7
,-9.32,-0.696,-3.307,-9.32,-0.859,-3.475,0.91,3.57,0.49
29379.0,-9.28,-0.873,-3.458,-9.261,-0.778,-3.427,-0.14,3.5,0.21
,-9.249,-0.845,-3.47,-9.284,-0.593,-3.57,0.42,3.64,0.21
,-9.244,-0.838,-3.417,-9.299,-0.584,-3.589,0.77,3.71,0.49
,-9.265,-0.806,-3.434,-9.244,-0.555,-3.678,0.98,3.92,0.63
29454.0,-9.213,-0.56,-3.829,-9.246,-0.648,-3.515,-0.07,2.87,0.28
,-9.165,-0.572,-3.843,-9.203,-0.668,-3.465,-0.28,2.38,0.07
,-9.275,-0.639,-3.807,-9.206,-0.792,-3.467,-0.84,1.75,-0.42
,-9.282,-0.637,-3.659,-9.172,-0.888,-3.46,-1.33,1.61,-0.77
29530.0,-9.191,-0.972,-3.355,-9.347,-0.773,-3.049,0.35,1.05,0.21
,-9.225,-0.95,-3.218,-9.318,-0.687,-3.171,1.68,1.54,0.7
,-9.316,-0.873,-3.156,-9.354,-0.744,-3.259,2.59,2.24,1.12
,-9.296,-0.845,-3.017,-9.354,-0.78,-3.314,3.01,2.73,1.4
29606.0,-9.227,-0.73,-3.735,-9.203,-0.306,-3.929,-1.19,2.94,0.98
,-9.215,-0.751,-4.011,-9.172,-0.328,-3.769,-0.77,2.73,1.05
,-9.15,-0.782,-4.113,-9.294,-0.538,-3.494,-0.28,1.89,0.91
,-9.203,-0.596,-4.025,-9.299,-0.737,-3.482,-0.35,1.12,0.56
29682.0,-9.289,-0.79,-3.465,-9.265,-0.694,-3.257,-3.85,-1.12,-0.42
,-9.277,-0.732,-3.329,-9.162,-0.857,-3.173,-2.24,-0.77,-0.14
,-9.294,-0.605,-3.53,-9.196,-1.177,-2.929,-0.91,-0.56,0.0
,-9.265,-0.629,-3.479,-9.359,-0.976,-2.716,-0.49,-0.35,0.14
29757.0,-9.375,-0.613,-2.85,-9.129,-0.914,-2.967,-0.98,0.77,0.56
,-9.237,-0.493,-2.828,-9.251,-0.62,-2.891,-2.24,1.54,0.91
,-9.203,-0.601,-2.903,-9.282,-0.134,-3.352,-2.24,2.87,1.61
,-9.251,-0.735,-3.139,-9.387,0.196,-3.472,-1.47,4.41,1.96
29833.0,-9.27,0.488,-4.355,-9.014,-1.673,-4.097,0.35,3.85,-0.28
,-9.16,0.06,-4.336,-9.172,-1.488,-3.64,-5.32,3.01,-0.84
,-9.21,-0.574,-4.365,-9.249,-1.11,-3.077,-6.51,3.29,-0.98
,-9.076,-1.055,-4.702,-9.433,-0.706,-2.283,-5.6,3.36,-1.33
29908.0,-9.512,-0.17,-2.654,-8.866,-1.347,-3.632,10.5,4.13,0.35
,-9.459,-0.005,-2.493,-8.815,-1.948,-3.333,4.55,3.5,-0.21
,-9.363,-0.005,-3.36,-9.043,-1.697,-2.438,-2.73,2.59,-1.12
,-9.136,-0.483,-3.64,-9.282,-0.962,-2.869,-7.98,2.59,-1.4
29984.0,-9.335,-0.278,-3.116,-9.007,-1.06,-3.175,21.42,8.26,1.54
,-9.514,-0.136,-3.625,-9.069,-0.376,-3.587,17.36,7.14,2.17
,-9.335,-0.57,-3.8,-9.191,0.05,-3.833,11.41,7.07,2.8
,-9.153,-1.17,-3.659,-9.222,-0.043,-3.841,11.83,8.26,3.43
30060.0,-9.036,-0.694,-3.654,-9.095,-1.106,-3.855,3.08,5.53,0.14
,-8.988,-1.318,-3.034,-8.921,-1.414,-4.018,2.38,6.86,0.21
,-9.007,-1.266,-3.479,-8.748,-2.012,-3.644,6.65,7.07,-0.28
,-9.007,-1.196,-3.69,-8.882,-2.211,-3.408,10.71,6.58,-0.07
30136.0,-9.112,-1.61,-3.226,-9.189,-0.357,-4.652,21.98,11.13,6.58
,-9.45,-0.744,-3.609,-8.796,-0.682,-4.245,24.92,9.17,6.09
,-9.531,-0.139,-4.451,-8.765,-0.89,-3.898,18.41,4.13,5.39
,-9.416,-0.101,-4.7,-8.799,-0.938,-3.613,8.96,1.89,6.02
30212.0,-9.217,-0.847,-3.46,-9.316,-0.558,-3.058,2.45,7.91,3.01
,-9.416,-0.833,-3.424,-9.349,-0.357,-3.417,2.38,7.49,3.43
,-9.359,-0.828,-3.228,-9.356,-0.089,-3.666,2.52,7.56,3.92
,-9.265,-0.768,-3.137,-9.196,0.445,-4.001,3.71,8.89,4.41
30287.0,-8.902,0.737,-4.07,-9.325,-0.876,-3.324,2.87,6.86,1.19
,-8.928,0.534,-3.836,-9.356,-0.964,-3.503,-1.89,7.0,-1.12
,-8.997,-0.158,-3.539,-9.194,-0.969,-3.853,-6.44,7.7,-3.01
,-9.072,-0.73,-3.254,-8.938,-1.275,-3.912,-8.05,8.68,-3.57
30363.0,-9.105,-1.409,-3.905,-8.703,-0.261,-3.85,-0.21,8.12,0.63
,-9.107,-1.103,-4.092,-9.129,-0.335,-3.738,3.08,8.19,0.98
,-8.899,-0.634,-4.125,-9.294,-0.354,-3.551,4.9,8.12,0.77
,-8.555,-0.359,-4.185,-9.292,-0.282,-3.434,4.2,8.89,0.56
30439.0,-8.985,-0.392,-3.443,-8.851,-0.404,-3.833,-3.57,10.43,-1.4
,-8.882,-0.445,-3.374,-8.926,-0.481,-3.783,-3.78,11.27,-0.98
,-8.899,-0.522,-3.441,-8.863,-0.608,-3.872,-3.29,11.76,-0.35
,-8.914,-0.419,-3.69,-8.949,-0.625,-3.807,-2.1,12.18,-0.28
30515.0,-8.966,-0.859,-4.063,-8.911,-1.484,-4.52,-0.63,14.07,0.42
,-8.82,-0.859,-4.377,-9.122,-2.032,-4.178,-0.56,14.28,0.56
,-8.739,-0.826,-4.381,-9.033,-1.795,-4.657,0.28,14.63,0.77
,-8.768,-1.079,-4.314,-8.672,-1.625,-4.771,-1.19,14.14,1.05
30590.0,-8.538,-1.603,-4.738,-9.074,0.136,-4.8,3.22,11.97,5.32
,-8.691,-1.577,-4.429,-9.055,0.505,-4.896,3.85,11.97,5.46
,-9.0,-1.005,-4.774,-9.165,0.62,-4.822,6.23,11.13,5.6
,-9.055,-0.364,-4.817,-9.06,0.474,-5.063,7.56,10.64,5.25
30666.0,-8.717,-0.115,-5.09,-8.789,-2.051,-4.702,1.54,7.42,-1.54
,-8.789,-0.981,-4.716,-8.971,-1.62,-4.444,1.19,7.49,-0.7
,-8.703,-1.687,-4.635,-8.794,-1.055,-4.57,1.82,6.44,1.12
,-8.552,-1.965,-4.879,-8.825,-0.562,-4.525,6.02,6.65,2.31
30741.0,-9.124,-0.139,-4.46,-8.705,-0.455,-4.822,13.58,2.45,0.91
,-9.028,0.034,-4.786,-8.296,-0.782,-4.666,9.31,1.82,0.28
,-8.928,0.057,-4.984,-8.469,-0.876,-4.465,6.58,2.45,-0.63
,-9.095,-0.215,-4.893,-8.648,-0.713,-4.53,5.25,2.1,-1.96
30817.0,-8.887,-0.665,-4.482,-8.985,0.498,-4.704,9.03,1.54,-0.7
,-9.146,-0.469,-4.302,-8.882,0.191,-4.882,10.29,2.59,-1.4
,-9.122,0.117,-4.523,-8.593,-0.632,-5.008,11.97,2.87,-2.52
,-9.112,0.486,-4.649,-8.416,-1.694,-5.004,11.83,3.15,-4.13
30893.0,-8.392,-2.417,-4.817,-9.0,-1.149,-4.807,3.64,2.66,-1.54
,-8.686,-2.702,-4.503,-8.842,-0.823,-4.965,9.31,3.57,0.56
,-8.94,-2.393,-4.403,-8.902,-0.864,-4.75,14.28,3.22,1.89
,-9.024,-1.785,-4.649,-8.832,-0.919,-4.611,16.52,2.17,2.8
30969.0,-8.854,-0.976,-4.338,-8.93,-0.907,-4.188,5.81,-1.54,4.48
,-8.756,-0.773,-4.487,-8.868,-0.641,-4.346,4.55,-2.59,4.41
,-8.555,-0.735,-4.523,-8.842,-0.33,-4.508,3.15,-2.31,3.92
,-8.679,-0.998,-4.408,-8.801,-0.079,-4.491,3.01,-0.77,3.64
31045.0,-8.928,-0.05,-4.219,-8.873,-1.165,-4.506,11.34,2.52,1.54
,-8.93,-0.129,-4.336,-8.837,-1.445,-4.444,9.66,1.89,1.4
,-8.849,-0.333,-4.317,-8.856,-1.395,-4.561,7.28,2.17,1.19
,-8.854,-0.732,-4.465,-8.981,-1.108,-4.582,5.67,2.66,1.19
31120.0,-8.966,-1.134,-4.625,-8.93,-1.137,-4.542,10.22,2.24,2.87
,-8.811,-1.127,-4.64,-8.94,-1.134,-4.515,9.52,1.68,3.5
,-8.67,-1.395,-4.573,-8.861,-0.912,-4.712,8.82,2.38,3.92
,-8.725,-1.34,-4.547,-8.722,-0.715,-4.726,9.73,3.43,3.99
31196.0,-8.758,-0.771,-4.441,-9.033,-0.641,-4.439,6.23,2.31,5.67
,-8.622,-0.893,-4.422,-8.677,-0.462,-4.501,5.11,2.38,6.09
,-8.825,-0.909,-4.381,-8.595,-0.297,-4.652,5.6,2.59,6.16
,-9.191,-0.809,-4.384,-8.796,-0.242,-4.561,6.02,2.17,5.88
31272.0,-8.952,-0.51,-4.475,-8.866,-0.672,-4.661,1.26,4.2,3.22
,-9.012,-0.653,-4.417,-9.1,-0.507,-4.7,0.63,4.06,3.29
,-8.823,-0.713,-4.547,-9.105,-0.646,-4.625,0.42,4.27,3.43
,-8.717,-0.787,-4.695,-8.993,-0.916,-4.47,0.98,4.97,3.29
31348.0,-8.686,-1.053,-4.518,-8.923,-0.689,-4.96,-1.68,4.69,2.73
,-8.638,-0.962,-4.592,-8.825,-0.522,-5.121,-1.82,4.97,2.94
,-8.911,-0.828,-4.74,-8.739,-0.357,-5.181,-2.45,5.18,2.94
,-9.213,-0.665,-4.846,-8.799,-0.337,-5.049,-4.13,4.41,3.08
31423.0,-8.859,-0.431,-4.96,-8.684,-0.727,-4.898,-10.22,2.73,3.01
,-8.961,-0.708,-4.788,-8.717,-0.598,-5.102,-11.27,2.17,3.15
,-9.014,-0.979,-4.614,-8.851,-0.354,-4.92,-11.34,2.03,3.64
,-8.88,-0.931,-4.702,-8.969,-0.067,-5.087,-10.08,1.26,4.41
31499.0,-8.753,-0.122,-5.178,-8.88,-0.577,-4.326,-10.01,-1.12,3.29
,-8.851,-0.249,-4.848,-8.717,-0.598,-4.319,-10.64,-0.91,2.87
,-8.945,-0.337,-4.647,-8.784,-0.309,-4.592,-10.57,-1.19,2.17
,-8.966,-0.45,-4.511,-8.765,-0.096,-5.013,-10.92,-0.84,1.4
31574.0,-8.849,-0.275,-5.102,-8.413,-1.29,-4.582,-8.19,-1.4,-0.77
,-8.899,-0.653,-5.032,-8.799,-1.184,-4.573,-8.96,-1.75,-0.91
,-8.763,-0.921,-5.006,-9.019,-0.794,-4.748,-9.17,-2.03,-0.56
,-8.38,-1.094,-4.855,-8.823,-0.651,-4.891,-7.42,-1.96,-0.35
31650.0,-8.693,-0.694,-4.86,-9.1,-0.668,-4.417,-2.45,-5.67,0.98
,-8.689,-0.928,-4.673,-8.861,-0.404,-4.511,-3.22,-4.62,1.19
,-8.789,-1.101,-4.427,-8.691,-0.282,-4.465,-2.73,-3.85,1.19
,-8.856,-0.981,-4.408,-8.789,-0.438,-4.384,-1.12,-3.71,1.47
31726.0,-8.89,-0.546,-4.283,-8.969,-0.062,-4.393,0.35,-5.95,1.54
,-8.827,-0.491,-4.212,-8.916,0.038,-4.25,1.75,-5.32,1.82
,-8.753,-0.366,-4.223,-9.091,0.084,-4.104,3.15,-4.83,2.03
,-8.976,-0.278,-4.288,-8.772,0.055,-4.204,3.92,-4.76,2.03
31802.0,-8.734,-0.093,-4.223,-9.014,-0.952,-4.111,-0.91,-4.69,-0.91
,-8.832,-0.373,-4.25,-9.033,-0.761,-4.082,-1.54,-4.83,-0.91
,-8.88,-0.704,-4.293,-8.854,-0.519,-4.18,-1.89,-5.04,-0.77
,-8.89,-0.897,-4.279,-8.873,-0.407,-4.133,-0.21,-4.2,-0.49
31877.0,-9.256,-0.424,-3.963,-9.028,-0.373,-4.192,4.97,-2.38,-0.21
,-8.77,-0.201,-4.554,-8.976,-0.254,-4.57,1.82,-4.83,0.14
,-8.703,-0.419,-4.59,-8.94,-0.005,-4.499,-0.7,-4.69,0.35
,-8.902,-0.526,-4.322,-8.906,-0.266,-4.346,-0.91,-3.92,0.07
31953.0,-8.806,-0.627,-4.436,-9.081,-0.656,-4.214,0.84,-4.48,0.0
,-8.837,-0.806,-4.453,-8.906,-0.704,-4.259,1.54,-4.27,0.07
,-8.966,-0.974,-4.379,-8.942,-0.811,-4.078,3.85,-3.99,0.42
,-8.961,-0.816,-4.29,-8.904,-0.849,-4.015,6.58,-3.64,0.35
32029.0,-8.849,-0.809,-4.231,-9.007,-0.196,-4.207,5.18,-4.9,2.38
,-8.921,-0.742,-4.24,-8.945,-0.179,-4.247,6.23,-4.9,2.87
,-9.026,-0.51,-4.271,-9.038,-0.127,-3.999,7.21,-4.76,3.08
,-9.036,-0.321,-4.288,-8.988,-0.235,-4.044,7.21,-4.9,2.73
32105.0,-8.971,-0.371,-3.963,-9.069,-0.084,-4.19,5.81,-2.73,1.33
,-9.007,-0.436,-3.877,-9.256,-0.043,-4.24,6.23,-2.45,1.54
,-9.024,-0.325,-4.027,-9.088,-0.146,-4.259,6.44,-3.78,1.33
,-9.012,-0.22,-4.092,-8.942,-0.455,-4.154,5.81,-4.9,0.98
32181.0,-8.911,-0.72,-4.049,-9.095,-0.72,-4.022,1.75,-5.53,-1.26
,-8.973,-0.787,-3.927,-9.119,-0.747,-4.056,3.99,-5.32,-1.47
,-8.949,-0.713,-4.075,-8.966,-0.706,-4.027,6.16,-5.74,-1.26
,-9.021,-0.725,-4.075,-9.253,-0.663,-4.042,6.79,-5.67,-0.56
32256.0,-9.311,-0.723,-4.037,-8.995,-1.053,-3.329,3.92,-9.17,-0.35
,-9.141,-0.675,-3.975,-8.971,-1.024,-3.02,1.54,-10.15,-0.7
,-8.988,-0.897,-3.759,-9.258,-0.713,-3.156,-0.35,-10.22,-0.7
,-8.947,-1.134,-3.551,-9.308,-0.168,-3.506,-0.7,-10.08,-0.28
32332.0,-9.115,-0.05,-3.486,-9.072,-0.148,-3.766,4.62,-6.58,1.68
,-9.069,0.041,-3.867,-9.165,-0.483,-3.36,3.01,-6.86,1.19
,-9.083,0.026,-3.807,-9.251,-0.598,-3.362,1.19,-7.49,0.35
,-9.131,-0.043,-3.733,-9.201,-0.541,-3.553,0.07,-7.91,-0.42
32407.0,-9.17,-0.462,-3.676,-9.072,-0.591,-3.676,-3.08,-6.16,-1.68
,-9.155,-0.445,-3.824,-9.325,-0.754,-3.51,-4.48,-6.58,-1.47
,-9.122,-0.486,-3.802,-9.316,-0.562,-3.293,-5.39,-6.86,-1.96
,-9.112,-0.44,-4.011,-9.225,-0.668,-3.005,-6.44,-7.42,-2.73
32483.0,-9.261,-0.778,-2.864,-9.182,-0.146,-4.006,-6.86,-5.95,-2.94
,-9.287,-0.388,-3.252,-9.308,-0.244,-3.491,-4.97,-5.53,-2.94
,-9.253,-0.244,-3.565,-9.246,0.098,-3.443,-4.83,-5.6,-3.01
,-9.246,-0.17,-3.821,-9.17,0.069,-2.96,-5.32,-5.67,-2.8
32559.0,-9.119,-0.467,-2.69,-9.55,-0.182,-2.24,-7.7,-4.97,-6.3
,-9.177,-0.998,-2.01,-9.287,-0.05,-2.903,-9.38,-3.92,-5.46
,-9.392,-1.199,-1.984,-9.038,-0.297,-2.824,-8.05,-2.73,-4.97
,-9.588,-0.785,-2.094,-9.007,-0.447,-3.159,-5.11,-1.4,-4.83
32635.0,-9.234,-0.646,-3.269,-9.237,-1.208,-4.346,-5.53,4.06,-4.69
,-9.277,-0.665,-3.264,-8.993,-1.433,-4.499,-2.03,4.76,-4.27
,-9.399,-0.658,-3.355,-8.854,-1.642,-4.252,-0.28,4.83,-4.06
,-9.292,-0.708,-3.843,-9.076,-1.651,-4.013,-1.68,4.06,-4.27
32710.0,-9.33,-1.237,-3.869,-9.217,-0.558,-4.049,7.56,2.45,-0.98
,-9.313,-0.596,-3.855,-9.258,-0.383,-3.91,8.4,1.75,-0.77
,-9.292,-0.507,-3.903,-9.294,-0.242,-3.64,6.58,1.12,-0.56
,-9.27,-0.66,-3.948,-9.318,-0.258,-3.396,6.86,1.26,-0.14
32786.0,-9.368,-0.55,-3.221,-9.196,-0.988,-3.427,12.81,2.31,-0.63
,-9.387,-0.859,-3.039,-9.16,-0.835,-3.477,12.53,2.94,-0.56
,-9.208,-1.034,-3.142,-9.158,-0.675,-3.496,12.46,3.43,-0.77
,-9.206,-1.041,-3.247,-9.318,-0.57,-3.405,13.65,3.85,-0.63
32861.0,-9.43,-0.546,-3.355,-9.079,-0.78,-3.637,16.24,4.13,0.07
,-9.402,-0.397,-3.498,-9.119,-0.804,-3.542,16.03,3.43,-0.28
,-9.261,-0.51,-3.419,-9.184,-0.931,-3.376,14.14,2.8,-0.7
,-9.253,-0.677,-3.611,-9.201,-1.029,-3.273,11.9,2.38,-0.84
32937.0,-9.251,-1.041,-3.068,-9.249,-0.768,-3.116,8.33,1.96,-1.19
,-9.277,-0.998,-3.151,-9.172,-0.883,-3.061,7.77,2.24,-1.12
,-9.311,-0.89,-3.144,-9.21,-0.888,-3.264,7.49,2.31,-1.05
,-9.241,-0.761,-3.221,-9.165,-1.0,-3.441,6.65,2.59,-0.91
33013.0,-9.177,-1.23,-3.386,-9.119,-0.517,-4.037,3.01,3.64,-0.56
,-9.27,-1.242,-3.592,-9.091,-0.794,-4.042,4.62,3.64,-0.28
,-9.301,-1.055,-3.917,-9.215,-1.175,-3.946,5.04,2.94,-0.77
,-9.143,-0.68,-4.094,-9.239,-0.873,-3.934,3.71,2.03,-1.12
33089.0,-9.201,-0.625,-4.032,-9.103,-1.407,-4.111,-0.77,-2.59,-1.68
,-9.127,-0.782,-4.109,-9.143,-1.302,-3.757,-2.31,-3.71,-2.03
,-8.964,-0.986,-4.14,-9.225,-1.141,-3.475,-2.59,-4.41,-1.89
,-9.033,-1.223,-4.087,-9.296,-0.921,-3.338,-0.42,-4.48,-1.4
33165.0,-9.383,-0.694,-3.281,-9.203,-0.646,-2.685,11.27,-3.5,1.33
,-9.332,-0.747,-3.061,-9.165,-0.66,-2.556,8.89,-2.8,1.33
,-9.45,-0.974,-2.852,-9.265,-0.806,-2.481,6.79,-1.89,1.26
,-9.392,-0.878,-2.788,-9.347,-0.73,-2.481,5.11,-1.96,0.7
33240.0,-9.426,-0.651,-2.706,-9.172,-1.232,-3.69,-1.47,2.38,0.35
,-9.488,-0.957,-2.821,-9.234,-1.199,-3.987,-3.15,3.15,0.28
,-9.356,-1.072,-3.029,-9.086,-1.046,-4.185,-3.99,3.5,0.56
,-9.313,-1.094,-3.422,-9.064,-0.928,-4.145,-3.71,3.5,0.84
33316.0,-9.239,-0.792,-4.226,-9.275,-0.9,-3.482,4.2,1.96,2.45
,-9.165,-0.625,-4.168,-9.311,-0.818,-3.3,4.27,1.05,2.1
,-9.172,-0.574,-4.003,-9.332,-0.821,-3.087,2.94,0.42,1.89
,-9.229,-0.794,-3.678,-9.318,-0.811,-2.891,2.31,0.42,1.89
33392.0,-9.294,-0.933,-2.84,-9.086,-0.833,-3.486,3.43,2.17,1.96
,-9.318,-0.955,-2.991,-9.139,-0.912,-3.513,3.43,2.52,1.82
,-9.296,-0.785,-3.159,-9.196,-1.022,-3.46,3.22,2.87,1.75
,-9.217,-0.799,-3.417,-9.325,-1.024,-3.422,2.24,3.22,1.68
33468.0,-9.318,-0.775,-3.455,-9.174,-0.895,-3.783,6.23,4.2,2.24
,-9.311,-0.505,-3.506,-9.201,-1.022,-3.585,5.95,3.57,2.03
,-9.263,-0.39,-3.692,-9.215,-0.983,-3.355,3.71,3.08,1.68
,-9.22,-0.677,-3.747,-9.304,-0.945,-3.295,1.82,2.73,1.4
33543.0,-9.335,-0.945,-3.343,-9.277,-0.928,-3.518,0.0,2.38,1.19
,-9.275,-0.967,-3.223,-9.239,-0.73,-3.723,0.14,2.59,1.4
,-9.27,-0.983,-3.398,-9.225,-0.447,-3.778,-0.14,2.73,1.4
,-9.246,-0.981,-3.448,-9.21,-0.428,-3.877,-0.14,3.29,1.68
33619.0,-9.148,-0.572,-4.034,-9.244,-0.763,-3.774,-6.51,0.98,0.35
,-9.1,-0.672,-3.948,-9.237,-0.799,-3.661,-6.44,0.42,0.42
,-9.241,-0.864,-3.872,-9.203,-0.792,-3.484,-5.74,-0.28,0.14
,-9.217,-0.763,-3.697,-9.246,-0.833,-3.321,-4.55,-0.63,0.14
33694.0,-9.273,-0.821,-3.29,-9.215,-1.122,-3.534,-0.28,-0.07,0.28
,-9.323,-0.814,-3.285,-9.301,-1.041,-3.539,0.91,0.42,0.63
,-9.277,-0.869,-3.293,-9.237,-0.658,-3.551,1.19,0.56,0.84
,-9.198,-1.017,-3.355,-9.249,-0.555,-3.482,1.75,0.84,1.12
33770.0,-9.22,-0.67,-3.451,-9.282,-0.778,-3.594,4.41,0.56,1.47
,-9.229,-0.754,-3.537,-9.261,-0.761,-3.544,4.2,0.49,1.33
,-9.21,-0.775,-3.609,-9.215,-0.534,-3.553,4.62,0.49,1.33
,-9.289,-0.766,-3.673,-9.261,-0.682,-3.508,4.34,0.35,1.26
33846.0,-9.332,-0.677,-3.467,-9.261,-0.983,-3.302,1.89,-0.35,0.77
,-9.179,-0.763,-3.482,-9.316,-0.948,-3.008,1.61,-0.49,0.7
,-9.182,-0.957,-3.441,-9.354,-0.727,-3.072,2.1,0.07,1.05
,-9.21,-0.936,-3.422,-9.371,-0.541,-3.082,3.36,0.42,1.19
33922.0,-9.294,-0.45,-3.185,-9.306,-0.725,-3.297,3.08,1.68,1.05
,-9.277,-0.55,-3.259,-9.397,-0.45,-3.546,0.42,1.89,0.63
,-9.289,-0.818,-3.362,-9.251,-0.512,-3.486,-0.91,2.03,0.35
,-9.186,-0.895,-3.36,-9.251,-0.464,-3.848,-0.35,2.24,0.35
33998.0,-9.129,-0.792,-3.929,-9.284,-0.974,-3.206,-8.33,-0.21,-1.26
,-9.067,-1.06,-3.924,-9.399,-0.799,-2.907,-6.86,-0.35,-1.12
,-9.139,-1.022,-3.831,-9.402,-0.725,-2.735,-3.99,0.07,-0.7
,-9.201,-1.012,-3.609,-9.287,-0.835,-2.536,-1.61,0.42,-0.35
34073.0,-9.289,-0.979,-2.393,-9.239,-0.632,-3.089,-2.52,2.73,0.63
,-9.399,-0.964,-2.412,-9.148,-0.605,-2.994,-0.84,4.06,0.98
,-9.395,-0.854,-2.572,-9.088,-0.45,-3.348,0.84,5.88,1.61
,-9.363,-0.735,-2.702,-9.127,-0.44,-3.439,2.38,7.56,2.17
34149.0,-9.287,-0.414,-3.427,-8.938,-1.385,-3.774,1.26,7.91,1.26
,-9.371,-0.39,-3.625,-8.993,-1.694,-3.144,0.91,7.84,0.77
,-9.198,-0.503,-4.018,-9.174,-1.268,-2.3,0.63,7.91,0.14
,-8.983,-0.869,-4.128,-9.375,-0.151,-2.493,0.91,8.68,0.21
34225.0,-9.397,0.699,-3.405,-8.839,-1.302,-4.061,26.6,11.9,1.4
,-9.533,0.684,-3.829,-8.928,-1.103,-3.778,14.7,9.87,0.42
,-9.174,-0.084,-4.738,-9.103,-0.962,-3.223,2.31,8.54,-0.42
,-8.918,-1.175,-4.31,-9.249,-1.058,-3.372,-1.05,9.03,-0.49
34301.0,-9.234,-1.476,-2.905,-9.146,-0.921,-3.542,-0.35,10.22,-2.59
,-9.093,-1.728,-2.716,-9.036,-1.06,-4.075,2.59,11.97,-0.98
,-9.22,-1.431,-2.826,-8.799,-1.601,-4.245,6.02,12.67,-0.21
,-9.064,-0.962,-3.384,-9.103,-1.737,-4.085,4.48,11.83,-0.14
34376.0,-8.909,-1.433,-4.281,-8.799,-2.024,-3.802,-3.36,9.31,2.45
,-8.835,-1.457,-4.279,-9.04,-1.62,-3.707,-3.71,8.54,2.8
,-9.021,-1.598,-4.331,-9.17,-0.914,-3.92,-3.85,7.63,3.01
,-8.775,-1.862,-4.326,-9.361,-0.354,-3.977,-1.05,8.61,4.2
34452.0,-9.294,0.124,-4.135,-8.871,-0.73,-3.187,20.37,10.92,8.33
,-9.091,-0.148,-3.888,-9.0,-0.574,-3.216,15.05,11.41,7.63
,-8.835,-0.538,-3.649,-9.098,-0.699,-3.3,10.64,11.83,6.93
,-8.681,-0.794,-3.317,-9.296,-0.699,-3.553,6.86,12.18,6.3
34527.0,-9.246,-0.577,-3.817,-8.847,-0.38,-4.819,-2.8,12.39,5.25
,-9.241,-0.366,-3.97,-8.894,0.01,-4.98,-2.45,11.62,4.27
,-9.038,-0.251,-4.379,-9.021,0.376,-4.946,-2.87,10.64,3.43
,-8.825,-0.325,-4.743,-8.906,0.412,-4.748,-3.64,9.8,3.08
34603.0,-8.753,0.072,-4.434,-9.124,-1.117,-4.003,-3.71,7.14,-1.33
,-8.777,-0.672,-4.037,-8.952,-1.007,-4.113,-7.0,8.05,-0.91
,-8.935,-1.024,-3.948,-8.746,-1.041,-3.951,-6.58,8.33,-0.42
,-9.038,-1.216,-3.793,-8.648,-0.921,-3.936,-4.48,8.96,-0.14
34679.0,-8.686,-0.617,-3.872,-9.438,1.146,-4.066,0.49,11.83,1.19
,-9.028,-0.038,-3.759,-9.251,0.902,-4.585,3.36,12.46,0.42
,-9.002,0.632,-4.135,-8.887,0.51,-4.812,3.99,11.55,-1.19
,-9.139,0.967,-4.188,-8.662,-0.077,-4.85,1.54,11.34,-2.87
34755.0,-8.457,-0.536,-4.805,-9.0,-2.163,-4.635,-8.96,7.63,-8.19
,-8.459,-0.952,-5.061,-8.71,-2.012,-5.123,-7.42,9.52,-8.05
,-8.775,-1.749,-4.29,-8.399,-1.941,-5.195,-7.0,10.08,-6.79
,-8.966,-2.134,-4.276,-8.354,-1.898,-5.307,-4.76,9.8,-4.55
34830.0,-8.485,-1.804,-5.226,-9.019,-1.333,-4.441,-0.35,7.63,3.5
,-8.576,-1.701,-5.116,-9.206,-1.177,-4.171,-1.4,5.95,5.74
,-8.698,-1.558,-4.975,-9.213,-0.797,-4.262,-2.31,5.04,7.07
,-9.0,-1.517,-4.575,-9.098,-0.44,-4.3,-2.17,4.55,7.56
34906.0,-8.808,-0.084,-4.317,-8.758,1.228,-5.269,3.99,4.76,6.51
,-8.617,0.179,-4.403,-8.478,0.634,-5.162,3.5,3.5,5.32
,-8.595,0.826,-4.719,-8.38,-0.526,-4.764,4.55,2.66,3.43
,-8.691,1.285,-5.059,-8.76,-1.464,-4.243,5.32,1.75,1.19
34982.0,-9.107,-2.027,-4.106,-8.741,-0.093,-4.85,4.06,4.76,-0.49
,-9.27,-1.933,-4.046,-8.734,0.007,-4.977,10.85,4.41,-0.98
,-9.143,-1.426,-4.099,-8.66,-0.189,-5.066,14.91,3.71,-1.33
,-8.837,-0.684,-4.491,-8.521,-0.771,-4.956,16.38,3.22,-1.54
35058.0,-8.452,-1.366,-4.771,-9.081,-0.333,-4.324,5.39,0.91,-1.54
,-8.48,-1.759,-4.42,-9.194,-0.285,-4.116,8.4,2.66,-0.98
,-8.732,-1.663,-4.209,-9.208,-0.079,-4.295,13.93,3.85,-1.26
,-8.847,-0.893,-4.374,-9.005,0.007,-4.614,19.53,3.99,-2.17
35134.0,-8.545,-0.101,-5.075,-8.607,-2.737,-4.264,14.35,1.54,-3.36
,-8.375,-0.407,-5.389,-8.938,-2.668,-4.037,13.44,1.26,-3.71
,-8.413,-1.249,-5.236,-8.808,-2.51,-4.166,12.32,1.4,-3.01
,-8.449,-2.118,-4.884,-8.93,-1.838,-4.178,12.39,2.38,-1.54
35209.0,-8.775,-0.897,-4.683,-9.136,-0.416,-4.652,21.0,2.94,5.04
,-8.765,-0.055,-5.075,-8.701,-1.031,-4.367,19.25,2.87,3.5
,-8.909,0.242,-4.992,-8.356,-1.385,-4.489,15.12,2.87,1.89
,-9.127,-0.01,-4.877,-8.258,-1.744,-4.491,10.99,3.01,1.05
35285.0,-8.557,-1.874,-4.508,-8.727,0.041,-5.286,11.9,4.83,4.2
,-8.775,-1.704,-4.59,-8.873,-0.498,-4.92,14.21,5.25,5.6
,-8.784,-0.873,-4.984,-9.301,-1.134,-4.487,17.36,5.25,7.0
,-8.799,-0.196,-5.36,-9.222,-1.488,-4.355,17.36,4.34,7.35
35360.0,-8.748,-1.515,-4.52,-8.634,-0.737,-4.515,8.89,2.31,4.83
,-8.696,-1.531,-4.496,-8.768,-0.452,-4.267,9.45,2.8,5.46
,-8.514,-1.22,-4.702,-8.686,-0.007,-4.664,9.87,3.01,6.3
,-8.512,-0.768,-4.745,-8.737,0.079,-4.944,8.96,3.01,6.86
35436.0,-8.875,-0.194,-4.743,-8.894,-0.842,-4.53,-0.7,0.35,4.69
,-8.976,-0.263,-4.702,-8.67,-0.842,-4.523,0.28,1.19,3.78
,-8.969,-0.479,-4.695,-8.693,-0.462,-4.642,1.4,1.89,2.59
,-8.935,-0.684,-4.64,-8.684,-0.558,-4.865,3.29,2.87,1.47
35512.0,-8.55,-0.756,-4.903,-8.933,-1.216,-4.448,-1.19,2.45,0.77
,-8.559,-0.835,-4.987,-8.997,-0.78,-4.448,-0.84,2.66,0.28
,-8.868,-1.053,-4.953,-8.758,-0.627,-4.413,-0.63,2.73,0.21
,-8.93,-1.376,-4.676,-8.655,-0.646,-4.429,0.56,3.22,0.07
35588.0,-8.667,-0.735,-4.556,-8.89,-0.534,-5.233,1.12,4.69,-0.14
,-8.878,-0.62,-4.704,-8.722,-0.778,-5.195,0.42,4.76,-0.07
,-8.926,-0.44,-4.92,-8.617,-1.146,-5.099,-0.28,4.27,-0.7
,-8.902,-0.414,-5.252,-8.751,-1.405,-5.023,-2.1,3.5,-1.54
35663.0,-8.76,-1.407,-5.025,-8.696,-2.089,-4.803,-3.64,2.52,-0.21
,-8.815,-1.431,-5.047,-8.772,-1.634,-4.96,-4.2,1.89,1.12
,-8.777,-1.493,-5.229,-8.65,-1.101,-5.135,-6.3,0.98,2.52
,-8.634,-1.878,-5.037,-8.655,-0.692,-4.951,-9.17,1.12,4.27
35739.0,-8.844,-0.464,-4.659,-8.928,0.792,-4.893,-8.68,0.21,9.1
,-8.945,-0.108,-4.786,-8.926,0.605,-4.69,-9.38,0.14,8.61
,-9.021,0.345,-4.91,-8.832,0.342,-4.618,-9.31,0.35,7.49
,-8.914,0.699,-4.956,-8.758,-0.074,-4.771,-8.61,0.56,5.67
35815.0,-8.844,-0.538,-4.752,-8.77,-1.278,-4.958,-14.21,0.07,-0.35
,-8.818,-0.907,-4.736,-8.715,-1.462,-4.901,-13.51,-0.84,-0.56
,-8.614,-1.213,-4.905,-8.703,-1.656,-4.781,-11.97,-1.54,-0.49
,-8.619,-1.304,-4.925,-8.629,-1.706,-4.893,-10.22,-1.33,0.07
35891.0,-8.421,-1.821,-4.884,-8.871,-1.261,-4.98,-8.12,-2.87,3.57
,-8.533,-1.905,-4.783,-8.748,-0.974,-4.826,-5.25,-2.24,4.55
,-8.741,-1.783,-4.879,-8.634,-0.701,-4.602,-1.26,-1.68,5.04
,-8.808,-1.56,-4.934,-8.452,-0.493,-4.496,3.08,-1.4,5.74
35966.0,-8.626,-0.302,-4.221,-8.978,0.861,-4.482,10.71,-1.54,7.63
,-8.765,0.067,-4.13,-8.82,0.749,-4.465,10.43,-3.01,7.28
,-8.796,0.263,-4.252,-8.624,0.498,-4.401,9.38,-3.29,6.72
,-8.935,0.759,-4.331,-8.748,0.313,-4.252,8.19,-3.08,5.81
36042.0,-8.952,0.148,-4.326,-8.914,-0.732,-4.274,3.99,0.0,-0.14
,-9.067,0.127,-4.429,-8.705,-0.869,-4.48,4.48,-0.14,-1.33
,-8.938,-0.084,-4.496,-8.653,-1.017,-4.484,3.78,0.14,-2.24
,-8.811,-0.392,-4.389,-8.717,-1.012,-4.484,1.96,0.7,-2.52
36118.0,-8.77,-1.017,-4.673,-8.72,-1.055,-4.59,-2.31,-3.43,-0.14
,-8.794,-0.933,-4.518,-8.844,-0.919,-4.398,-3.5,-3.57,0.49
,-8.559,-1.043,-4.396,-8.887,-0.498,-4.343,-1.05,-2.94,0.91
,-8.555,-1.244,-4.671,-9.016,-0.144,-4.374,1.68,-1.89,2.52
36193.0,-9.016,0.055,-4.561,-8.813,-0.282,-4.542,7.21,-0.91,4.27
,-8.815,0.112,-4.874,-8.837,-0.337,-4.506,4.9,-2.38,4.06
,-8.763,-0.065,-4.748,-8.882,-0.34,-4.439,2.73,-2.87,3.57
,-8.753,-0.242,-4.599,-8.83,-0.189,-4.53,2.24,-3.08,2.8
36269.0,-8.902,-0.16,-4.633,-8.825,-0.043,-4.726,3.36,-4.48,0.56
,-8.957,-0.168,-4.64,-8.844,-0.144,-4.594,3.5,-4.69,0.14
,-8.935,-0.093,-4.604,-8.693,-0.476,-4.523,3.15,-5.18,-0.49
,-8.894,-0.038,-4.745,-8.878,-0.78,-4.235,1.96,-5.46,-0.98
36345.0,-9.093,-0.737,-4.178,-8.856,-1.024,-4.448,-3.29,-8.4,-2.66
,-9.014,-0.778,-4.161,-8.832,-1.043,-4.491,-4.13,-9.24,-2.03
,-8.851,-0.778,-4.24,-8.906,-0.854,-4.381,-4.97,-9.31,-1.26
,-8.82,-0.893,-4.396,-8.899,-0.493,-4.374,-5.67,-9.17,-0.91
36421.0,-8.899,-0.273,-4.393,-8.957,-0.493,-4.173,3.08,-7.07,0.35
,-8.954,-0.256,-4.417,-8.954,-0.44,-3.936,2.17,-6.86,0.14
,-9.079,-0.409,-4.252,-9.081,-0.39,-3.817,1.19,-6.3,0.14
,-9.026,-0.562,-4.07,-9.069,-0.359,-4.03,0.77,-6.23,0.14
36496.0,-8.938,-0.524,-4.051,-9.031,-0.258,-3.953,-1.68,-7.42,-0.56
,-8.715,-0.491,-4.2,-9.081,-0.184,-3.888,-1.89,-7.98,-0.35
,-8.737,-0.436,-4.178,-9.069,-0.347,-3.86,-0.7,-7.91,-0.35
,-9.04,-0.378,-4.061,-9.009,-0.565,-3.865,0.63,-7.84,-0.77
36572.0,-8.88,-0.668,-3.963,-9.098,-0.211,-3.766,-3.15,-7.49,-1.4
,-9.115,-0.732,-3.896,-8.854,-0.218,-3.821,-2.38,-7.14,-1.26
,-9.232,-0.646,-3.941,-8.784,-0.495,-3.879,-1.4,-6.86,-1.4
,-9.201,-0.436,-3.833,-8.981,-0.838,-3.692,-0.77,-6.72,-1.82
36648.0,-9.074,-0.902,-3.611,-9.107,-0.369,-3.139,-2.52,-5.39,-1.61
,-9.141,-0.854,-3.716,-9.186,-0.349,-2.778,1.75,-4.55,-1.19
,-8.959,-0.493,-3.616,-9.203,-0.227,-3.211,3.71,-3.92,-1.05
,-8.976,-0.44,-3.384,-9.215,-0.112,-3.542,4.55,-2.8,-0.77
36724.0,-9.045,-0.27,-3.893,-9.356,0.105,-3.654,-4.34,-0.7,-1.96
,-8.871,-0.72,-3.905,-9.344,0.656,-3.994,-4.9,-0.07,-2.1
,-8.792,-1.017,-3.647,-9.323,0.591,-4.135,-1.19,0.98,-2.1
,-9.06,-0.658,-3.259,-9.16,-0.045,-4.221,5.25,1.47,-2.94
36799.0,-8.93,-0.861,-4.508,-9.21,-0.902,-4.039,-8.68,-1.82,-5.32
,-9.016,-1.357,-4.551,-9.196,-0.608,-3.912,-3.57,-2.03,-4.83
,-8.99,-1.529,-4.453,-9.17,-0.467,-4.025,3.5,-2.17,-3.64
,-9.074,-1.29,-4.006,-9.105,-0.581,-4.037,8.75,-2.1,-2.31
36875.0,-9.103,-0.771,-3.9,-9.359,-0.541,-3.128,7.35,-4.69,-1.82
,-9.16,-0.826,-3.824,-9.15,-0.177,-3.223,9.8,-4.55,-1.4
,-9.177,-0.842,-3.508,-9.241,0.029,-3.348,12.39,-3.99,-0.77
,-9.244,-0.778,-3.178,-9.275,-0.029,-3.766,15.54,-3.15,-0.14
36950.0,-9.038,-0.323,-3.759,-9.253,-0.687,-3.367,8.4,-2.66,-2.8
,-8.966,-0.517,-3.719,-9.256,-0.715,-3.147,8.4,-2.03,-3.15
,-9.062,-0.715,-3.623,-9.251,-0.749,-3.309,9.52,-1.75,-3.22
,-9.136,-0.804,-3.348,-9.184,-0.883,-3.463,11.06,-1.26,-3.08
37026.0,-9.146,-0.914,-3.702,-9.27,-0.756,-4.08,7.56,-0.07,-2.8
,-9.069,-0.902,-3.769,-9.213,-0.665,-3.991,7.21,-0.42,-2.73
,-9.045,-1.084,-3.642,-9.186,-0.601,-4.121,8.19,0.07,-2.1
,-9.241,-1.007,-3.762,-9.038,-0.754,-3.982,10.36,0.14,-1.68
37102.0,-8.997,-0.94,-3.647,-9.229,-1.01,-2.898,8.19,-1.47,-2.31
,-9.11,-0.952,-3.374,-9.21,-1.031,-3.049,9.45,-1.05,-2.1
,-9.258,-0.969,-3.166,-9.079,-1.259,-2.994,10.08,-0.7,-1.96
,-9.28,-0.957,-3.094,-9.179,-1.318,-2.958,8.82,-0.28,-1.82
37178.0,-9.299,-1.302,-3.19,-9.21,-0.644,-3.987,4.76,3.36,-0.7
,-9.165,-1.254,-3.106,-9.055,-0.574,-4.334,5.46,3.99,-0.07
,-9.275,-1.053,-3.209,-8.916,-0.905,-4.324,5.88,4.76,0.28
,-9.316,-0.957,-3.41,-8.916,-1.125,-4.293,5.88,4.76,0.42
37254.0,-9.033,-1.07,-4.063,-9.165,-0.644,-3.738,6.93,2.94,1.05
,-9.177,-0.878,-3.841,-9.088,-0.945,-3.733,9.17,2.66,1.19
,-9.27,-0.553,-3.697,-9.045,-1.22,-3.714,9.52,2.31,0.98
,-9.22,-0.505,-3.573,-9.069,-1.302,-3.774,6.72,1.82,0.49
37329.0,-9.122,-1.146,-3.482,-9.349,-0.893,-3.396,6.72,1.82,0.56
,-9.182,-0.916,-3.388,-9.225,-0.964,-3.494,7.63,2.03,0.77
,-9.206,-0.735,-3.46,-9.105,-1.005,-3.563,6.09,2.17,0.7
,-9.308,-0.782,-3.309,-9.083,-0.995,-3.671,4.2,2.17,0.49
37405.0,-9.083,-1.041,-3.642,-9.182,-0.761,-3.549,1.75,3.57,0.14
,-9.141,-0.981,-3.506,-9.119,-0.833,-3.68,2.87,3.92,0.63
,-9.241,-0.905,-3.4,-9.127,-1.007,-3.702,3.57,4.13,0.84
,-9.251,-0.857,-3.436,-9.11,-1.074,-3.752,3.29,4.27,0.77
37481.0,-9.134,-1.05,-3.752,-9.146,-0.821,-3.824,1.61,4.62,0.56
,-9.167,-1.01,-3.771,-9.095,-0.945,-3.867,2.24,4.48,0.7
,-9.194,-0.909,-3.687,-9.048,-1.065,-3.96,2.1,4.55,0.7
,-9.189,-0.761,-3.829,-9.028,-1.106,-4.011,1.12,4.27,0.42
37557.0,-9.107,-0.974,-3.996,-9.129,-0.876,-3.9,1.05,3.01,0.77
,-9.117,-0.864,-3.979,-9.11,-0.888,-3.958,1.33,2.66,0.84
,-9.115,-0.816,-3.951,-9.055,-0.924,-3.979,0.56,2.38,0.56
,-9.093,-0.842,-3.896,-9.012,-0.998,-3.877,-0.42,2.1,0.28
37632.0,-9.095,-0.976,-3.879,-9.115,-0.983,-3.972,0.42,1.4,0.91
,-9.081,-0.936,-3.855,-9.057,-1.0,-4.006,1.19,1.26,1.05
,-9.117,-0.895,-3.812,-9.064,-1.077,-3.965,1.61,1.26,1.26
,-9.17,-0.876,-3.932,-9.139,-0.983,-3.984,0.91,1.05,1.12
37708.0,-9.112,-0.857,-3.893,-9.172,-0.864,-3.687,4.27,0.35,1.89
,-9.095,-0.749,-3.862,-9.129,-0.931,-3.549,4.2,0.14,1.96
,-9.074,-0.849,-3.659,-9.21,-0.924,-3.506,3.22,-0.07,1.75
,-9.112,-0.878,-3.62,-9.208,-0.79,-3.556,3.01,0.14,1.75
37783.0,-9.122,-0.864,-3.544,-9.162,-0.84,-3.647,0.98,0.84,1.19
,-9.093,-0.847,-3.532,-9.131,-0.814,-3.747,0.42,1.05,1.19
,-9.124,-0.964,-3.565,-9.05,-0.849,-3.697,0.28,1.47,1.19
,-9.239,-0.943,-3.585,-9.165,-0.849,-3.929,0.91,1.68,1.26
37859.0,-9.098,-0.83,-3.841,-9.136,-0.775,-3.824,0.7,1.4,1.05
,-9.136,-0.842,-3.896,-9.227,-0.816,-3.75,1.33,1.75,1.26
,-9.141,-0.845,-3.886,-9.222,-0.816,-3.754,1.75,1.4,1.19
,-9.196,-0.79,-3.857,-9.17,-0.857,-3.843,2.1,1.4,1.26
37935.0,-9.105,-0.893,-3.908,-9.134,-0.852,-3.757,0.77,1.05,0.7
,-9.1,-0.943,-3.793,-9.093,-0.859,-3.702,0.77,0.98,0.7
