Timestamp,AccX,AccY,AccZ,GyroX,GyroY,GyroZ,MagnX,MagnY,MagnZ
0.0,-9.016,0.756,-4.085,-9.028,0.756,-4.046,2.24,1.26,0.77
,-9.026,0.778,-4.109,-8.997,0.689,-4.061,2.1,1.33,0.7
,-9.005,0.742,-4.044,-9.024,0.744,-4.008,1.96,1.26,0.7
,-9.038,0.689,-4.042,-8.985,0.782,-4.07,2.03,1.05,0.77
75.0,-9.038,0.744,-4.018,-9.021,0.73,-3.984,2.38,1.26,0.91
,-9.016,0.744,-4.022,-9.045,0.696,-4.058,2.59,1.19,0.84
,-9.009,0.73,-4.008,-9.043,0.751,-4.037,2.73,1.4,0.98
,-9.048,0.699,-3.984,-9.0,0.768,-4.056,2.73,1.47,0.91
151.0,-9.038,0.778,-4.147,-9.012,0.771,-4.075,2.52,1.61,0.7
,-9.014,0.754,-4.116,-8.993,0.718,-4.042,2.24,1.61,0.56
,-9.038,0.756,-4.109,-8.964,0.715,-4.046,2.38,1.54,0.7
,-8.964,0.744,-4.068,-9.048,0.744,-4.034,2.45,1.4,0.63
227.0,-9.007,0.766,-4.037,-9.026,0.73,-4.094,2.87,1.26,0.7
,-9.048,0.739,-4.022,-9.04,0.72,-4.058,3.15,1.4,0.84
,-9.033,0.768,-4.049,-9.019,0.742,-4.063,3.22,1.4,0.77
,-8.997,0.766,-4.116,-9.055,0.756,-4.034,3.08,1.33,0.84
302.0,-9.06,0.771,-4.051,-9.024,0.742,-4.073,2.8,1.33,0.56
,-9.016,0.756,-4.063,-9.019,0.718,-4.075,2.8,1.33,0.63
,-8.966,0.806,-4.121,-9.057,0.715,-4.07,2.52,1.4,0.77
,-9.014,0.79,-4.118,-9.033,0.713,-4.085,2.24,1.33,0.7
378.0,-9.074,0.687,-4.063,-9.019,0.727,-4.078,2.38,1.12,0.63
,-9.052,0.766,-4.07,-9.014,0.739,-4.034,2.52,0.98,0.56
,-8.957,0.778,-4.087,-9.05,0.713,-4.003,2.59,1.05,0.63
,-9.002,0.727,-4.092,-8.985,0.73,-4.001,2.45,1.12,0.7
453.0,-9.014,0.725,-4.037,-9.002,0.735,-4.068,2.66,1.12,0.63
,-9.014,0.699,-3.999,-9.076,0.766,-4.058,2.73,0.98,0.7
,-9.04,0.696,-4.027,-9.134,0.759,-4.101,3.01,1.12,0.77
,-9.057,0.725,-4.015,-9.146,0.639,-4.078,3.01,1.05,0.84
529.0,-9.019,0.498,-4.085,-9.232,0.342,-3.544,4.55,0.07,2.59
,-9.194,0.526,-4.056,-9.05,0.005,-3.814,5.53,-0.35,3.01
,-9.062,0.273,-3.884,-8.933,0.419,-3.922,6.23,-1.05,3.29
,-9.282,0.199,-3.838,-9.418,0.704,-4.092,8.54,-1.54,3.92
605.0,-9.201,0.347,-4.037,-8.873,1.263,-4.274,19.32,-5.88,7.42
,-8.942,0.342,-4.149,-8.909,1.153,-4.152,21.56,-6.58,7.91
,-8.842,0.799,-4.195,-8.978,1.003,-4.128,23.24,-6.58,7.49
,-8.904,1.098,-4.262,-8.952,0.945,-4.082,22.4,-6.09,6.65
681.0,-8.976,1.106,-4.025,-9.189,1.065,-3.695,12.6,-4.55,3.22
,-8.875,1.259,-3.929,-9.203,0.593,-3.613,11.48,-3.92,2.73
,-8.827,1.474,-3.951,-9.105,0.55,-3.57,10.01,-3.5,1.96
,-8.775,1.563,-3.865,-8.847,1.103,-3.628,7.42,-2.66,1.05
757.0,-8.452,2.228,-3.719,-9.753,-0.948,-2.479,8.82,-0.35,0.7
,-8.409,2.469,-3.36,-9.349,-0.086,-2.754,3.57,1.33,-0.7
,-9.069,1.555,-3.034,-8.88,0.983,-3.235,-1.61,3.08,-1.33
,-9.761,-0.062,-2.678,-9.002,1.184,-3.817,-0.98,3.92,-0.14
832.0,-9.206,0.488,-4.109,-9.095,0.053,-4.994,11.41,7.35,2.8
,-9.196,-0.024,-4.424,-9.263,-0.208,-4.977,8.47,7.35,2.45
,-9.098,0.01,-4.707,-9.351,-0.242,-4.812,7.98,6.72,2.59
,-9.064,0.132,-4.925,-9.407,-0.146,-4.59,6.58,5.6,2.87
908.0,-9.184,-0.067,-4.57,-9.088,0.95,-3.917,8.82,-1.82,7.49
,-9.139,0.093,-4.336,-9.22,0.644,-3.762,10.29,-2.87,8.26
,-9.203,0.273,-4.166,-9.488,0.323,-3.635,11.13,-3.71,8.61
,-8.997,0.675,-4.07,-9.105,0.16,-3.676,11.41,-3.78,8.47
984.0,-8.997,0.407,-3.711,-8.988,0.665,-3.68,10.15,-3.43,8.54
,-9.155,0.725,-3.79,-9.191,0.711,-3.798,10.29,-3.22,8.68
,-9.294,0.785,-3.8,-8.993,0.771,-3.831,8.82,-2.87,8.4
,-9.129,0.704,-3.711,-8.916,1.122,-3.716,7.84,-2.45,8.82
1060.0,-9.028,1.11,-3.599,-9.208,0.828,-3.168,7.21,-1.96,8.05
,-9.16,0.931,-3.396,-9.119,1.165,-3.259,6.23,-1.4,8.12
,-9.225,0.436,-3.163,-9.045,1.07,-3.262,6.86,-1.12,8.61
,-9.258,0.38,-3.116,-9.155,0.933,-3.171,9.17,-0.56,8.96
1135.0,-9.203,0.732,-3.269,-8.899,1.354,-3.946,8.26,3.57,8.89
,-9.225,0.593,-3.163,-8.973,1.304,-4.094,9.8,4.41,9.52
,-9.22,0.696,-3.329,-8.935,1.05,-4.034,11.48,4.97,10.01
,-9.095,0.995,-3.687,-8.969,0.804,-4.063,12.04,5.46,9.73
1211.0,-9.139,0.763,-4.092,-8.995,0.926,-4.374,4.2,7.35,8.19
,-9.076,0.928,-4.212,-8.94,0.883,-4.286,4.55,7.28,8.54
,-9.031,0.924,-4.326,-9.167,0.744,-4.2,3.08,7.35,8.33
,-9.028,0.931,-4.403,-9.191,0.601,-4.089,1.05,7.21,8.05
1286.0,-9.246,0.388,-4.2,-8.897,1.56,-4.336,-1.75,6.79,9.87
,-9.079,0.713,-4.319,-9.083,1.125,-4.113,0.42,6.44,10.57
,-8.624,1.457,-4.312,-9.239,0.469,-3.963,0.28,7.07,10.43
,-8.741,1.768,-4.53,-9.354,0.239,-4.075,-3.78,7.56,9.87
1362.0,-8.971,0.574,-4.02,-9.019,1.058,-3.92,-9.73,7.49,11.41
,-8.93,0.962,-4.042,-9.189,0.704,-3.989,-7.98,7.21,12.32
,-9.036,1.424,-4.135,-9.069,0.675,-3.903,-8.82,7.35,12.81
,-8.93,1.342,-4.097,-9.208,0.811,-3.996,-12.11,7.63,12.95
1438.0,-8.983,0.897,-4.197,-8.928,1.369,-4.109,-15.54,8.05,16.38
,-8.947,0.919,-4.154,-8.933,1.196,-3.874,-15.96,8.26,16.73
,-8.933,1.184,-4.192,-9.172,1.0,-3.975,-16.24,8.12,17.15
,-8.894,1.414,-4.149,-8.983,1.039,-3.932,-17.64,8.33,17.64
1514.0,-8.966,1.141,-4.135,-8.969,0.591,-4.235,-24.08,11.2,20.37
,-8.897,1.433,-4.137,-9.093,0.715,-4.171,-25.41,11.9,20.58
,-9.273,1.527,-4.245,-8.985,0.924,-4.226,-27.44,11.69,21.42
,-9.016,0.861,-4.302,-9.122,1.168,-4.379,-29.26,10.99,22.47
1590.0,-8.964,1.436,-4.695,-8.859,1.345,-3.979,-23.03,8.61,25.9
,-8.722,1.709,-4.843,-8.911,1.527,-3.817,-24.01,8.61,25.97
,-8.705,1.752,-4.671,-8.787,1.809,-3.824,-26.04,8.05,26.04
,-8.746,1.577,-4.365,-8.677,1.931,-3.905,-27.72,7.07,26.81
1665.0,-8.818,1.989,-3.833,-8.37,3.384,-4.25,-8.82,3.01,33.67
,-8.66,2.166,-3.886,-8.346,3.57,-4.319,-5.67,2.52,33.88
,-8.607,2.448,-3.92,-8.413,3.546,-4.513,-3.36,2.31,33.81
,-8.526,2.903,-4.104,-8.524,3.211,-4.503,-1.68,2.38,33.67
1741.0,-8.746,2.871,-4.625,-8.698,3.544,-4.633,-11.83,2.94,30.31
,-8.887,2.675,-4.676,-8.782,3.731,-4.475,-10.92,1.96,30.31
,-8.842,2.848,-4.726,-8.916,3.92,-4.369,-8.75,0.91,30.31
,-8.698,3.273,-4.745,-9.038,3.917,-4.118,-7.21,0.0,29.68
1817.0,-9.1,3.661,-3.862,-9.655,3.967,-4.085,-13.51,-1.61,21.84
,-9.05,3.51,-3.728,-9.541,4.223,-3.944,-11.41,-0.98,21.07
,-9.057,3.62,-3.953,-9.081,5.025,-4.226,-7.42,0.35,19.88
,-9.474,3.728,-4.02,-9.426,4.424,-4.262,-5.6,0.84,17.57
1893.0,-9.529,3.396,-3.996,-7.985,1.735,-2.237,-20.23,2.8,5.39
,-8.763,2.711,-3.465,-7.638,2.142,-2.379,-21.49,2.31,3.29
,-8.145,2.912,-2.96,-7.377,3.113,-2.793,-19.53,3.01,1.61
,-7.985,2.419,-2.462,-7.231,3.41,-3.285,-20.23,4.9,-1.12
1968.0,-7.121,3.793,-3.975,-8.471,-0.665,-4.549,-35.35,25.62,-21.56
,-6.966,4.547,-4.666,-8.473,-1.711,-4.156,-45.71,30.03,-28.21
,-6.901,5.219,-4.996,-8.215,-2.032,-4.034,-56.7,34.23,-35.35
,-8.004,2.307,-4.748,-8.423,-1.395,-3.958,-69.51,34.51,-43.19
2044.0,-8.277,-0.371,-4.41,-8.167,1.565,-4.302,20.58,15.19,-39.9
,-8.224,0.57,-4.489,-8.09,2.003,-4.436,25.06,13.44,-38.92
,-8.334,1.058,-4.338,-8.246,2.132,-4.36,24.01,12.25,-39.2
,-8.344,1.397,-4.381,-8.586,2.118,-4.389,22.68,11.34,-40.67
2119.0,-8.775,1.704,-4.25,-8.251,2.709,-4.704,13.09,13.16,-47.95
,-8.88,1.206,-4.171,-8.287,2.455,-4.678,14.91,13.58,-48.09
,-8.847,1.721,-4.779,-8.612,2.089,-4.642,22.61,13.44,-47.11
,-8.253,2.548,-5.006,-8.469,1.79,-4.578,28.28,13.51,-47.53
2195.0,-8.76,1.761,-4.695,-8.61,2.211,-5.269,38.5,9.17,-45.01
,-8.961,1.764,-4.831,-8.354,2.541,-5.027,43.75,7.42,-43.96
,-8.926,1.721,-5.001,-8.234,2.807,-5.217,48.65,5.74,-42.7
,-8.804,1.826,-5.281,-8.284,2.575,-5.329,52.99,4.34,-41.58
2271.0,-8.428,2.158,-5.458,-8.26,2.419,-5.032,49.56,-0.49,-36.61
,-8.617,1.773,-5.305,-8.279,3.008,-4.989,50.96,-2.66,-35.0
,-8.579,1.565,-5.085,-7.976,3.951,-5.43,54.81,-5.46,-32.41
,-8.452,1.859,-4.709,-7.765,4.537,-5.561,59.29,-7.98,-29.54
2347.0,-8.026,4.453,-5.284,-8.703,3.967,-4.137,38.64,-14.91,-24.43
,-8.157,3.994,-5.193,-9.263,9.67,-5.465,27.44,-15.4,-24.29
,-8.349,3.458,-5.095,-5.599,16.899,-5.087,19.04,-16.38,-23.38
,-8.471,3.01,-4.913,-6.657,15.547,-4.408,15.05,-18.06,-21.35
2422.0,-10.469,4.623,-5.154,-10.103,0.754,-4.044,-72.73,-5.74,10.71
,-11.091,-3.771,-4.269,-9.691,2.087,-4.582,-55.23,-17.15,8.89
,-9.933,-5.863,-2.869,-8.744,2.321,-5.322,4.48,-25.97,15.33
,-10.498,-2.95,-3.161,-7.904,1.364,-5.413,59.36,-31.22,29.33
2498.0,-8.713,-1.876,-5.063,-9.186,1.259,-3.74,-5.95,-11.69,9.66
,-10.313,-3.996,-4.738,-9.294,1.804,-3.269,-9.03,-13.58,3.43
,-10.287,-2.924,-4.513,-9.363,2.063,-2.733,2.24,-17.15,0.77
,-9.287,-0.467,-4.106,-9.208,2.852,-2.422,6.44,-18.34,-0.77
2574.0,-9.06,3.85,-2.393,-9.153,0.782,-2.237,5.81,-11.97,7.14
,-8.945,3.616,-2.24,-9.148,1.194,-2.453,13.16,-10.01,11.2
,-8.976,2.288,-2.156,-9.127,1.548,-2.63,20.09,-8.47,13.79
,-9.081,1.031,-2.113,-9.217,1.251,-2.735,29.12,-7.07,14.91
2650.0,-9.407,0.577,-2.816,-9.16,0.79,-3.824,8.26,7.98,-2.1
,-9.481,0.108,-3.003,-9.04,0.909,-4.039,4.2,9.8,-3.15
,-9.373,0.136,-3.209,-8.856,0.833,-4.133,5.04,10.29,-2.31
,-9.251,0.412,-3.506,-8.815,0.916,-4.298,8.05,10.43,-0.14
2726.0,-8.823,1.12,-4.494,-8.66,1.199,-4.288,14.84,8.82,4.69
,-8.904,1.259,-4.535,-8.631,1.409,-4.192,12.39,9.1,3.22
,-9.024,1.326,-4.649,-8.739,1.582,-4.135,8.89,9.24,1.54
,-8.799,1.268,-4.523,-8.856,1.443,-3.939,5.46,9.31,-0.21
2801.0,-9.083,1.082,-3.857,-9.045,1.168,-4.149,-5.04,12.32,-5.88
,-9.067,0.857,-3.728,-9.009,1.328,-4.355,-4.27,12.53,-5.88
,-9.014,0.768,-3.771,-8.926,1.043,-4.35,-1.96,13.02,-5.6
,-8.949,0.94,-3.908,-8.77,0.897,-4.269,-0.07,13.51,-5.11
2877.0,-8.837,0.876,-4.216,-8.835,1.316,-4.951,-3.22,14.07,-4.76
,-8.976,0.928,-4.42,-8.693,1.309,-5.073,-2.94,13.79,-4.27
,-8.961,1.086,-4.539,-8.701,1.103,-5.102,-2.31,13.37,-3.92
,-8.971,1.127,-4.736,-9.045,1.022,-4.944,-2.24,13.3,-3.71
2952.0,-8.459,0.9,-4.671,-9.174,0.426,-3.972,-10.36,11.62,-6.37
,-8.425,0.873,-4.386,-9.567,0.694,-3.877,-11.69,12.04,-7.84
,-8.65,0.687,-3.905,-9.524,0.675,-3.659,-13.86,12.74,-9.1
,-8.959,0.407,-3.872,-9.072,0.718,-3.719,-15.82,13.09,-10.08
3028.0,-8.868,1.101,-3.987,-8.933,1.922,-4.508,-1.05,12.04,-7.28
,-9.083,1.814,-4.35,-9.115,2.501,-4.381,-1.89,12.88,-8.61
,-9.584,2.242,-4.377,-8.66,2.699,-5.121,-4.83,13.09,-8.4
,-9.469,1.993,-4.468,-8.973,2.115,-5.075,-8.61,11.9,-7.91
3104.0,-9.708,1.366,-5.248,-8.789,4.58,-5.93,-24.78,19.46,-12.18
,-9.765,1.869,-5.619,-8.698,4.98,-6.061,-21.77,17.29,-8.96
,-8.835,2.986,-5.674,-8.478,5.171,-5.968,-17.78,16.38,-4.9
,-8.394,3.953,-5.774,-8.512,4.922,-5.712,-18.69,15.89,-3.15
3180.0,-8.344,4.527,-5.363,-8.33,2.91,-4.781,-61.25,11.55,-0.42
,-8.232,4.357,-5.061,-8.253,3.137,-4.87,-64.89,10.57,0.98
,-8.239,3.951,-4.994,-8.287,3.807,-5.152,-68.11,9.03,3.78
,-8.337,3.202,-4.812,-8.428,4.372,-5.293,-69.3,7.0,7.98
3255.0,-8.363,4.614,-5.549,-8.543,2.946,-5.085,-55.37,0.35,32.41
,-8.445,4.264,-5.717,-8.224,2.96,-5.145,-59.78,-0.7,35.21
,-8.701,3.508,-5.554,-8.296,3.025,-5.303,-63.14,-1.82,37.94
,-9.325,3.427,-5.286,-8.83,3.281,-5.176,-59.08,-5.04,42.35
3331.0,-8.801,3.312,-5.152,-8.815,1.479,-4.815,-50.12,-15.82,54.46
,-8.648,2.718,-4.989,-8.689,1.788,-4.934,-51.94,-19.6,55.16
,-8.667,2.087,-4.865,-8.595,2.28,-4.843,-51.17,-23.1,56.0
,-8.76,1.517,-4.745,-8.581,2.685,-4.53,-46.76,-26.67,57.75
3407.0,-8.38,2.871,-4.513,-8.662,2.005,-3.257,-32.69,-39.2,60.62
,-8.416,2.584,-4.128,-8.715,1.161,-3.163,-37.59,-39.55,58.59
,-8.485,2.632,-4.089,-8.526,0.605,-2.613,-39.55,-39.2,55.72
,-8.638,2.706,-3.929,-8.698,0.763,-2.766,-43.05,-38.64,52.08
3483.0,-8.796,1.058,-3.025,-8.224,0.242,-1.799,-21.84,-35.91,45.08
,-8.916,0.397,-2.663,-7.93,0.902,-1.869,-16.24,-35.77,43.89
,-8.894,-0.189,-2.407,-7.748,1.175,-1.926,-5.81,-35.7,43.54
,-8.409,-0.103,-2.008,-7.739,1.725,-2.252,7.63,-34.37,43.61
3559.0,-7.361,1.948,-2.163,-7.731,2.438,-3.305,37.17,-11.55,32.55
,-7.385,1.718,-2.211,-7.7,1.596,-3.34,35.14,-6.16,26.46
,-7.291,2.429,-2.833,-7.586,1.634,-3.326,39.27,0.35,22.61
,-7.1,3.053,-2.895,-7.851,3.18,-3.391,39.62,7.49,16.8
3634.0,-7.827,4.563,-3.443,-8.425,2.161,-3.635,38.92,15.05,-10.36
,-7.648,4.963,-3.57,-8.346,2.539,-3.754,27.09,16.59,-16.73
,-7.846,4.279,-3.388,-8.009,3.575,-4.087,12.46,17.85,-22.82
,-8.296,2.86,-3.465,-7.992,4.815,-4.372,2.94,17.99,-26.04
3710.0,-7.906,5.363,-4.372,-8.583,3.396,-4.417,16.1,15.68,-30.52
,-8.011,4.908,-4.176,-8.77,3.542,-4.422,4.76,16.17,-33.39
,-8.174,4.221,-4.183,-9.069,3.551,-4.195,-1.96,16.52,-36.05
,-8.423,3.656,-4.298,-10.024,3.235,-3.532,-3.78,16.38,-37.59
3785.0,-11.974,3.829,-2.022,-7.763,-2.307,-3.439,-2.66,14.98,-49.14
,-14.826,5.434,-1.158,-6.571,-0.522,-4.896,7.7,16.17,-48.79
,-15.769,4.57,-2.383,-7.105,3.037,-5.915,12.81,16.1,-42.49
,-11.44,-0.096,-2.931,-8.081,4.657,-6.042,15.96,12.88,-32.34
3861.0,-8.591,3.345,-5.674,-8.409,2.69,-5.181,43.19,3.92,-31.71
,-8.392,1.232,-5.248,-8.148,3.331,-5.063,31.78,1.4,-32.69
,-8.425,0.507,-5.123,-8.48,3.156,-4.783,37.45,-1.19,-30.66
,-8.607,1.469,-5.248,-8.835,2.659,-4.606,49.98,-3.85,-27.3
3937.0,-8.67,1.933,-4.259,-9.158,0.369,-3.896,32.13,-4.34,-26.53
,-8.825,1.378,-3.972,-9.139,0.385,-4.068,30.45,-4.06,-27.86
,-9.232,1.206,-3.963,-9.167,0.976,-4.3,29.33,-4.27,-28.35
,-9.428,0.883,-3.869,-8.947,1.448,-4.391,28.21,-5.04,-27.65
4013.0,-8.861,1.484,-4.279,-8.897,1.814,-3.869,32.97,-6.37,-20.65
,-8.863,1.551,-4.283,-9.052,1.381,-3.877,28.14,-6.02,-21.14
,-8.866,1.668,-4.128,-8.961,1.005,-3.781,24.22,-5.39,-21.77
,-8.703,2.003,-4.063,-8.942,1.01,-3.807,20.58,-4.2,-22.33
4088.0,-9.036,1.369,-4.116,-9.179,0.038,-4.312,13.93,0.77,-21.07
,-9.134,1.821,-4.544,-9.292,-0.122,-4.111,10.29,2.1,-21.42
,-8.952,1.469,-4.848,-9.179,0.029,-3.869,2.73,2.87,-22.47
,-8.844,0.768,-4.688,-9.167,0.12,-3.766,-3.29,3.29,-22.96
4164.0,-9.409,0.335,-3.522,-9.658,-0.445,-3.049,7.7,-0.42,-14.28
,-9.378,-0.055,-3.573,-9.825,-0.67,-2.953,8.82,-1.26,-12.46
,-9.454,-0.512,-3.479,-9.371,-0.098,-3.094,11.34,-2.59,-10.36
,-9.304,-0.479,-3.324,-9.229,0.84,-3.408,18.55,-4.48,-7.77
4240.0,-8.71,1.522,-3.781,-8.667,1.658,-5.147,38.15,-5.81,0.0
,-8.629,1.735,-4.063,-8.636,1.295,-5.303,31.15,-4.06,-1.4
,-8.904,1.661,-4.513,-8.751,1.213,-5.173,24.57,-2.73,-2.52
,-8.868,1.644,-4.905,-8.737,0.998,-5.006,20.65,-2.31,-3.08
4316.0,-8.918,0.768,-4.676,-8.985,0.936,-3.817,8.12,-3.99,-4.41
,-9.06,0.476,-4.173,-8.973,1.388,-4.034,7.84,-4.48,-4.34
,-9.21,0.201,-3.97,-8.875,1.582,-4.233,9.66,-4.97,-3.85
,-9.117,0.455,-3.795,-8.856,1.551,-4.267,12.39,-5.46,-3.5
4392.0,-8.796,1.452,-4.142,-9.33,1.18,-3.264,0.77,-1.33,-6.93
,-8.54,1.438,-3.97,-9.287,0.33,-3.206,-0.49,-0.63,-7.63
,-8.6,1.709,-3.692,-9.21,0.144,-3.242,-0.98,0.49,-8.33
,-9.062,1.866,-3.41,-9.134,0.514,-3.376,-2.94,1.96,-8.26
4467.0,-9.136,1.0,-3.52,-9.213,0.306,-3.647,-0.28,4.55,-8.82
,-8.957,1.182,-3.57,-9.117,0.316,-3.664,-3.5,5.18,-9.66
,-9.079,0.792,-3.628,-9.306,0.675,-3.46,-6.79,5.6,-9.8
,-9.313,0.354,-3.664,-8.892,0.656,-3.374,-5.74,5.81,-8.82
4543.0,-8.658,1.402,-3.857,-7.688,-5.53,-4.168,-0.14,7.35,-8.68
,-10.136,2.204,-3.551,-8.741,-3.824,-3.884,-5.25,7.35,-7.63
,-9.957,3.769,-4.788,-9.787,2.273,-4.558,-0.63,7.7,-0.35
,-7.755,0.531,-5.367,-9.686,3.376,-4.664,-8.4,8.33,1.68
4618.0,-8.686,0.201,-4.298,-8.981,0.625,-3.8,-27.72,3.22,-13.23
,-9.684,-1.685,-4.03,-9.426,0.337,-3.702,-19.67,3.43,-11.2
,-9.83,-0.488,-4.03,-9.734,0.17,-3.654,-0.07,3.36,-8.12
,-9.244,0.905,-3.987,-9.483,-0.172,-3.805,6.44,2.94,-4.48
4694.0,-9.043,0.069,-4.161,-8.275,1.326,-4.903,6.58,3.5,3.57
,-8.78,0.696,-4.48,-8.488,0.804,-4.664,9.31,3.29,4.13
,-8.765,0.991,-4.709,-8.93,0.402,-4.652,7.63,2.8,3.57
,-8.543,1.194,-4.937,-9.012,0.299,-4.518,5.04,2.24,2.38
4770.0,-8.942,0.457,-4.374,-9.373,0.218,-3.376,-5.11,-0.63,-2.87
,-9.057,0.936,-4.226,-9.323,0.153,-3.166,-5.46,-0.42,-3.08
,-8.995,0.95,-4.001,-9.282,0.148,-3.123,-7.14,-0.28,-3.08
,-9.146,0.519,-3.757,-9.335,0.151,-3.144,-8.33,0.0,-2.52
4846.0,-9.368,0.402,-3.305,-8.945,0.995,-4.207,8.4,1.12,3.5
,-9.354,0.426,-3.51,-8.875,1.012,-4.276,9.73,1.4,4.41
,-8.978,0.514,-3.771,-8.835,0.96,-4.29,10.64,1.68,4.34
,-8.93,0.838,-4.025,-8.964,0.763,-4.25,10.57,2.24,3.85
4921.0,-9.052,0.627,-4.233,-8.76,0.878,-4.027,0.7,3.08,0.49
,-9.081,0.459,-4.092,-8.961,0.696,-3.965,-0.07,3.15,0.07
,-9.112,0.376,-4.089,-9.139,0.462,-3.855,0.21,3.15,0.14
,-8.952,0.694,-4.166,-9.134,0.397,-3.798,1.33,3.15,0.35
4997.0,-9.048,0.562,-3.881,-8.961,0.409,-4.106,3.78,3.29,1.4
,-9.007,0.747,-3.891,-8.837,0.864,-4.228,4.41,3.5,1.47
,-9.225,0.699,-3.92,-8.863,1.115,-4.264,4.13,3.5,1.54
,-9.217,0.457,-3.989,-8.938,0.869,-4.255,4.9,3.15,2.1
5073.0,-9.036,0.684,-4.18,-8.873,0.804,-4.145,1.26,3.5,0.14
,-9.043,0.495,-4.104,-8.801,0.802,-4.092,1.33,3.29,0.21
,-9.024,0.498,-4.034,-8.964,0.713,-4.097,1.82,3.29,0.35
,-9.119,0.634,-4.058,-9.105,0.436,-3.96,2.31,3.15,0.56
5149.0,-9.316,0.218,-3.92,-9.067,0.625,-4.087,3.36,2.17,1.75
,-9.081,0.117,-3.975,-9.031,0.723,-3.963,6.51,1.26,2.66
,-8.751,0.593,-4.097,-8.6,1.33,-3.893,9.66,1.19,2.66
,-8.902,0.878,-4.152,-8.583,1.546,-3.831,10.08,1.47,2.66
5224.0,-8.789,1.333,-3.764,-9.636,-0.395,-3.393,8.19,3.78,1.54
,-9.002,0.436,-3.573,-9.414,-0.304,-3.795,7.35,4.34,1.61
,-9.421,-0.27,-3.41,-8.916,0.158,-3.874,10.01,4.55,2.45
,-9.502,-0.175,-3.384,-9.019,0.211,-3.903,15.05,4.69,3.64
5300.0,-9.311,-0.359,-4.015,-8.983,0.596,-5.073,25.06,2.59,10.57
,-9.304,-0.648,-4.087,-9.019,0.242,-5.477,28.28,1.75,10.99
,-9.158,-0.536,-4.219,-8.94,0.022,-5.832,32.06,1.05,11.48
,-8.878,0.041,-4.716,-8.842,0.438,-5.985,33.81,0.7,11.41
5376.0,-8.732,0.998,-6.054,-8.777,0.943,-4.815,21.98,-3.22,9.87
,-8.871,0.727,-5.693,-8.954,1.125,-4.594,15.33,-4.2,9.45
,-8.94,0.28,-5.485,-8.966,0.902,-4.346,11.55,-5.53,9.45
,-8.871,0.524,-5.092,-8.799,0.895,-4.209,12.04,-6.58,9.59
5451.0,-8.935,0.79,-4.061,-8.918,0.787,-3.58,4.9,-6.37,6.93
,-9.057,0.56,-3.891,-9.031,0.73,-3.635,3.85,-6.23,6.79
,-9.215,0.512,-3.757,-9.081,0.677,-3.68,3.99,-6.23,7.0
,-8.983,0.522,-3.678,-8.961,0.866,-3.678,4.83,-5.95,6.79
5527.0,-8.897,0.983,-3.673,-8.918,0.986,-3.518,3.57,-3.15,5.67
,-9.009,0.976,-3.525,-8.961,0.962,-3.582,3.01,-2.38,5.6
,-9.036,0.885,-3.429,-8.947,0.938,-3.561,1.96,-1.4,5.46
,-9.021,1.005,-3.465,-8.988,0.897,-3.561,1.47,-0.63,5.25
5603.0,-9.117,0.9,-3.537,-9.261,0.388,-3.879,-6.3,3.92,3.29
,-9.141,0.62,-3.618,-9.055,0.814,-4.054,-6.79,4.13,3.5
,-9.093,0.237,-3.647,-8.863,1.024,-4.207,-5.81,4.06,3.78
,-9.115,0.134,-3.671,-9.016,1.003,-4.25,-3.57,3.71,4.27
5679.0,-9.088,0.692,-4.032,-9.079,0.802,-3.618,-3.71,4.2,6.44
,-9.129,0.361,-3.704,-9.057,0.845,-3.757,-2.94,4.83,7.21
,-9.038,0.177,-3.463,-9.227,0.512,-3.908,-1.54,5.25,7.35
,-9.165,0.345,-3.47,-9.627,0.043,-4.042,-0.91,5.88,7.35
5754.0,-9.124,-0.151,-4.209,-8.99,1.28,-4.683,-2.1,6.37,10.71
,-8.854,0.471,-4.255,-8.985,0.96,-4.697,0.77,5.88,10.5
,-8.995,0.933,-4.401,-9.043,0.682,-4.585,-0.42,5.6,10.64
,-9.052,1.249,-4.649,-8.873,0.67,-4.36,-2.94,5.39,11.13
5830.0,-8.775,0.991,-4.305,-9.246,0.706,-3.955,-9.31,6.02,13.37
,-8.495,1.687,-4.18,-9.043,-0.089,-4.022,-11.48,7.63,12.25
,-8.681,1.759,-4.042,-9.241,0.163,-3.869,-17.92,9.1,10.85
,-9.033,1.809,-4.042,-9.234,0.596,-3.793,-22.89,10.29,10.78
5906.0,-9.079,0.782,-3.826,-8.796,1.457,-4.223,-10.92,8.33,17.15
,-9.208,0.804,-3.92,-8.899,1.661,-4.348,-13.09,8.61,17.29
,-9.186,0.828,-4.085,-8.76,1.469,-4.24,-13.72,8.4,17.64
,-8.827,1.127,-4.188,-8.947,1.125,-4.216,-12.25,8.54,18.34
5982.0,-9.019,0.926,-4.233,-8.789,1.68,-4.633,-20.58,10.78,20.79
,-9.031,0.809,-4.305,-8.76,1.776,-4.726,-22.19,10.85,20.93
,-8.935,0.926,-4.389,-8.674,1.725,-4.697,-23.52,11.2,20.93
,-8.847,1.254,-4.537,-8.705,1.608,-4.771,-25.2,11.27,21.0
6057.0,-8.748,1.608,-4.762,-8.416,2.352,-5.162,-38.36,10.36,22.33
,-8.557,1.718,-4.69,-8.598,2.352,-5.286,-39.41,10.22,22.4
,-8.696,1.874,-4.848,-8.887,1.886,-5.214,-40.81,9.87,22.47
,-8.579,2.168,-4.989,-9.139,0.933,-4.788,-42.84,9.73,21.98
6133.0,-9.127,0.476,-4.621,-8.643,2.659,-3.726,-51.87,3.22,24.92
,-8.973,0.629,-4.432,-8.581,2.661,-3.711,-42.49,0.42,28.28
,-8.839,1.371,-4.274,-8.557,3.08,-3.661,-32.9,-1.75,31.15
,-8.567,2.199,-4.099,-8.514,3.288,-3.8,-26.81,-3.01,32.83
6208.0,-8.162,3.24,-3.85,-8.842,3.597,-3.628,-19.39,-4.34,33.81
,-8.332,3.314,-3.877,-8.871,3.446,-3.656,-19.53,-4.34,33.25
,-8.251,3.329,-3.826,-9.043,3.47,-3.908,-20.23,-3.78,33.04
,-8.717,3.422,-3.597,-8.971,3.63,-4.18,-18.9,-3.43,32.76
6284.0,-8.899,3.764,-4.336,-9.502,3.903,-3.68,-20.44,-3.64,31.43
,-9.136,3.838,-4.413,-9.505,3.683,-3.345,-23.24,-3.57,30.38
,-9.325,3.886,-4.324,-9.354,3.721,-3.017,-27.16,-3.5,29.19
,-9.385,4.097,-4.015,-9.198,4.022,-2.946,-30.24,-3.57,27.58
6360.0,-8.945,4.283,-2.996,-8.638,4.611,-3.491,-22.82,-3.22,25.83
,-8.739,4.427,-2.917,-8.445,4.654,-3.575,-20.58,-2.8,24.71
,-8.782,4.07,-3.039,-8.504,4.712,-3.781,-18.62,-2.94,24.29
,-8.748,4.176,-3.269,-8.512,4.762,-3.912,-14.42,-3.36,24.15
6436.0,-8.394,4.441,-3.812,-8.189,4.013,-4.405,-9.03,-5.67,21.77
,-8.284,4.082,-3.936,-8.165,3.975,-4.432,-9.59,-6.16,21.0
,-8.435,4.08,-4.099,-8.071,3.932,-4.362,-9.45,-6.86,19.95
,-8.334,4.116,-4.283,-7.911,3.585,-4.142,-9.66,-7.49,18.13
6512.0,-8.11,3.379,-3.853,-7.593,1.409,-1.989,-23.94,-5.53,1.82
,-7.808,3.082,-3.453,-7.308,1.357,-2.101,-26.74,-4.13,-2.03
,-8.062,2.472,-2.754,-6.961,1.364,-2.053,-28.07,-2.17,-6.86
,-7.899,1.883,-2.245,-6.92,2.056,-2.656,-26.81,0.21,-10.85
6587.0,-7.282,3.501,-3.845,-7.303,1.371,-3.783,-15.75,28.77,-29.68
,-7.502,4.013,-4.482,-7.356,1.314,-3.173,-28.21,33.18,-38.36
,-7.818,3.453,-4.791,-7.758,1.74,-3.173,-40.46,34.09,-48.02
,-7.394,2.161,-4.334,-8.155,1.429,-3.099,-44.59,33.32,-55.02
6663.0,-8.263,0.598,-3.391,-8.138,0.952,-3.793,-24.57,37.52,-68.6
,-8.476,-0.294,-3.422,-7.997,1.352,-4.125,-19.81,37.52,-67.97
,-8.76,0.108,-3.711,-8.344,1.622,-4.336,-7.21,36.61,-66.5
,-8.246,0.383,-3.9,-8.897,1.496,-4.365,4.34,36.12,-66.29
6739.0,-8.725,1.079,-4.384,-8.095,3.264,-5.116,31.29,28.77,-60.69
,-8.476,1.84,-5.102,-8.629,2.761,-4.771,41.09,26.81,-59.43
,-8.244,2.489,-5.056,-8.729,2.245,-5.018,48.79,26.6,-59.43
,-8.028,3.214,-5.14,-9.098,1.452,-4.417,52.78,25.76,-59.29
6815.0,-9.5,1.065,-4.606,-8.825,3.944,-5.221,74.9,12.18,-38.22
,-9.38,1.721,-5.027,-9.081,3.881,-5.049,90.44,9.87,-32.27
,-9.234,2.647,-4.946,-9.153,3.613,-4.953,102.76,8.68,-28.7
,-9.005,3.484,-4.951,-9.064,3.415,-4.968,108.36,8.89,-26.67
6890.0,-9.072,3.214,-5.343,-8.543,3.58,-5.554,88.97,10.78,-25.34
,-9.129,2.647,-5.458,-8.133,3.872,-5.444,87.15,9.24,-24.22
,-9.007,2.474,-5.626,-7.87,4.24,-5.726,89.18,7.0,-21.42
,-8.827,2.907,-5.7,-7.808,4.834,-5.784,93.17,3.99,-17.92
6966.0,-8.169,5.164,-5.664,-7.105,14.195,-6.186,73.57,-8.4,-10.36
,-8.224,5.226,-5.702,-8.016,13.271,-4.293,59.36,-10.15,-10.08
,-8.43,5.351,-5.25,-8.284,7.15,-4.101,45.08,-12.18,-9.31
,-9.789,8.72,-5.095,-8.748,1.972,-3.405,48.51,-16.94,1.89
7041.0,-9.074,0.354,-2.625,-9.148,1.33,-5.631,-5.67,-31.71,9.38
,-10.34,-0.972,-2.723,-10.672,2.312,-5.657,14.42,-30.59,13.93
,-10.23,-1.646,-3.312,-11.07,0.522,-4.48,27.79,-23.38,20.72
,-9.112,-0.706,-4.625,-10.67,-1.443,-3.465,33.81,-12.53,16.66
7117.0,-9.873,-1.077,-3.226,-8.354,1.074,-3.36,-13.86,-10.64,3.29
,-9.095,0.912,-3.585,-8.246,1.558,-3.403,4.13,-10.71,8.47
,-8.837,1.943,-3.707,-8.215,1.831,-3.47,12.81,-10.92,13.3
,-8.655,1.445,-3.419,-8.442,1.424,-3.465,17.57,-11.34,16.24
7193.0,-8.758,1.053,-3.565,-8.933,1.63,-3.431,11.62,-4.83,3.71
,-8.825,1.256,-3.597,-9.179,1.254,-3.501,10.71,-3.08,1.82
,-8.787,1.563,-3.508,-9.335,0.792,-3.556,10.29,-1.54,1.19
,-8.76,1.706,-3.463,-9.282,0.328,-3.616,9.52,-0.07,1.05
7269.0,-9.268,0.235,-3.723,-8.868,0.814,-4.319,9.17,3.92,1.19
,-9.237,0.392,-3.991,-8.849,0.909,-4.326,11.2,3.78,1.61
,-9.11,0.498,-4.135,-8.849,1.053,-4.343,11.9,3.92,2.03
,-8.993,0.601,-4.231,-8.871,1.194,-4.42,11.76,3.92,2.31
7345.0,-8.849,1.211,-4.401,-8.899,0.536,-4.348,3.85,5.04,1.61
,-8.844,1.141,-4.434,-8.837,0.696,-4.398,1.54,5.25,0.7
,-8.926,0.924,-4.465,-8.856,0.835,-4.468,0.0,5.25,0.28
,-8.981,0.677,-4.46,-8.921,0.708,-4.477,0.21,4.9,-0.21
7420.0,-8.99,0.574,-4.496,-8.835,0.981,-4.494,6.65,3.15,1.05
,-8.942,0.641,-4.496,-8.942,0.945,-4.475,7.56,2.8,1.47
,-8.89,0.747,-4.496,-8.93,0.871,-4.422,7.84,2.38,1.61
,-8.825,0.857,-4.456,-8.89,0.754,-4.384,7.14,2.17,1.61
7496.0,-8.909,0.759,-4.346,-8.933,0.749,-4.317,1.05,1.89,0.56
,-8.959,0.818,-4.293,-8.899,0.598,-4.3,1.19,1.82,0.56
,-8.878,0.847,-4.283,-8.892,0.668,-4.267,1.26,1.89,0.56
,-8.926,0.852,-4.353,-8.916,0.797,-4.338,1.12,1.89,0.42
7572.0,-8.866,0.873,-4.314,-8.88,0.694,-4.3,3.29,1.26,1.12
,-8.894,0.787,-4.324,-8.885,0.83,-4.295,3.15,1.05,1.19
,-8.873,0.73,-4.317,-8.959,0.972,-4.238,3.15,0.77,1.26
,-8.868,0.699,-4.295,-8.949,0.95,-4.255,3.64,0.7,1.4
7648.0,-8.94,0.811,-4.164,-8.902,0.833,-4.118,3.57,0.84,1.19
,-8.969,0.759,-4.152,-8.976,0.826,-4.202,3.71,0.91,0.98
,-8.902,0.768,-4.123,-8.863,0.845,-4.185,4.2,1.05,1.12
,-8.89,0.804,-4.118,-8.832,0.811,-4.176,4.27,1.12,1.05
7723.0,-8.856,0.845,-4.147,-8.871,1.096,-4.025,3.78,1.89,0.56
,-8.928,0.881,-4.13,-8.875,1.12,-4.037,3.78,2.17,0.42
,-8.947,0.828,-4.066,-8.796,1.115,-3.948,3.85,2.38,0.42
,-8.847,0.979,-4.039,-8.863,0.983,-4.018,4.41,2.45,0.42
7799.0,-8.875,0.909,-4.008,-8.698,1.029,-4.436,-0.42,5.32,-1.96
,-8.926,0.735,-4.058,-8.66,1.019,-4.535,-0.07,5.81,-2.03
,-9.098,0.749,-4.214,-9.012,1.074,-4.523,0.84,5.81,-1.89
,-9.021,0.974,-4.36,-9.124,1.012,-4.597,2.03,5.88,-2.1
7874.0,-8.837,0.895,-4.429,-9.155,2.553,-4.669,-5.46,7.0,-5.04
,-8.765,0.773,-4.348,-8.949,2.642,-4.884,-5.32,7.21,-5.32
,-9.091,1.132,-4.377,-9.605,2.572,-4.417,-3.64,7.28,-5.04
,-9.162,1.845,-4.554,-9.651,1.531,-4.066,-2.73,7.35,-5.11
7950.0,-8.82,0.94,-3.743,-8.746,5.135,-4.934,-14.28,6.23,-8.61
,-8.607,1.998,-3.924,-9.074,4.092,-4.85,-6.93,8.68,-8.61
,-9.172,4.07,-4.197,-9.304,2.871,-4.74,-4.06,10.85,-9.38
,-8.823,5.305,-4.817,-9.586,1.823,-4.838,-14.49,14.14,-11.41
8026.0,-9.452,0.945,-4.745,-7.447,6.604,-5.889,-54.04,22.47,-17.15
,-9.375,1.438,-4.834,-7.746,7.334,-5.7,-41.86,20.3,-12.53
,-8.27,3.283,-5.355,-7.947,6.894,-5.142,-30.03,19.25,-7.07
,-7.392,5.173,-5.65,-8.102,5.571,-4.795,-28.49,19.39,-2.87
8102.0,-8.655,3.975,-4.35,-8.839,3.104,-4.929,-96.88,17.92,7.28
,-8.878,3.063,-3.987,-8.847,3.735,-5.43,-91.21,15.68,12.74
,-9.031,2.867,-3.953,-8.945,4.283,-5.597,-80.29,13.51,19.11
,-8.985,2.917,-4.429,-8.971,4.475,-5.657,-69.3,10.85,25.27
8178.0,-8.847,4.367,-5.695,-9.284,2.443,-4.771,-54.39,3.08,45.22
,-8.696,3.671,-5.475,-8.763,2.568,-4.759,-59.57,2.03,46.76
,-9.359,2.697,-5.011,-8.715,2.84,-4.915,-62.02,-1.05,49.42
,-9.797,2.419,-4.795,-8.808,3.132,-5.095,-57.26,-7.07,53.83
8253.0,-8.66,3.326,-5.037,-8.844,0.991,-4.781,-44.03,-21.14,58.59
,-8.794,2.637,-4.994,-8.756,1.802,-5.095,-49.14,-24.08,58.66
,-8.868,2.012,-5.042,-8.531,2.34,-4.903,-51.73,-28.63,59.29
,-8.756,1.318,-4.939,-8.636,2.618,-4.709,-49.63,-34.02,59.29
8329.0,-8.457,3.106,-4.618,-8.387,2.962,-2.836,-27.16,-56.84,56.49
,-8.076,3.57,-4.322,-9.019,2.137,-2.302,-32.48,-58.03,53.27
,-7.995,3.848,-4.092,-9.062,1.127,-1.606,-39.62,-58.66,49.56
,-7.952,3.867,-3.666,-9.019,0.538,-1.314,-47.18,-57.68,45.92
8405.0,-8.634,0.976,-1.216,-7.988,2.663,-0.94,-28.56,-53.48,38.78
,-8.356,1.165,-1.055,-7.722,3.245,-1.06,-16.38,-49.49,38.29
,-8.287,1.263,-0.708,-7.832,3.053,-1.07,-7.98,-44.8,38.29
,-8.291,1.62,-0.629,-7.851,2.831,-0.962,0.77,-39.69,38.64
8481.0,-7.858,2.517,-1.395,-7.109,1.828,-1.4,16.59,-11.97,29.19
,-7.535,2.481,-1.639,-6.624,2.288,-1.919,23.17,-7.98,28.07
,-7.557,2.261,-1.496,-6.679,3.063,-2.553,28.42,-4.13,26.04
,-7.708,2.099,-1.445,-7.095,2.9,-2.934,35.0,-1.19,23.52
8556.0,-7.265,2.216,-3.269,-7.885,4.135,-4.006,56.7,25.97,8.75
,-6.983,2.735,-3.53,-7.801,4.238,-4.111,61.6,27.3,6.58
,-7.203,3.984,-3.628,-7.361,4.422,-4.295,66.85,29.12,1.54
,-7.578,4.259,-3.955,-6.951,5.092,-4.795,61.04,30.52,-5.67
8632.0,-7.27,5.401,-5.236,-8.717,3.221,-4.235,17.57,35.42,-34.02
,-7.669,4.905,-5.327,-8.866,3.855,-4.02,5.25,35.77,-38.78
,-8.399,3.314,-4.98,-8.902,4.353,-4.049,-2.66,33.6,-41.16
,-8.559,2.46,-4.685,-8.928,4.841,-3.922,-0.7,29.26,-38.71
8707.0,-8.94,3.85,-3.738,-9.16,3.743,-4.556,18.83,19.81,-34.09
,-8.854,1.967,-3.692,-9.141,3.36,-5.145,17.71,18.97,-34.93
,-8.756,2.027,-4.025,-9.466,2.154,-5.571,25.41,17.92,-35.63
,-9.117,3.151,-4.2,-9.232,1.125,-5.891,33.6,17.22,-38.08
8783.0,-9.064,1.823,-6.021,-11.316,5.621,-3.972,29.26,6.79,-39.13
,-9.033,3.668,-6.176,-11.409,4.477,-3.798,41.3,2.73,-33.53
,-9.237,5.19,-5.712,-9.926,2.218,-3.795,44.45,0.07,-31.29
,-10.27,5.698,-4.721,-8.263,0.376,-3.848,40.6,-0.98,-32.13
8859.0,-7.995,0.436,-4.195,-9.064,1.531,-4.018,36.05,-1.4,-31.29
,-8.21,1.376,-4.331,-8.957,1.151,-4.089,42.21,-2.24,-30.52
,-8.806,1.675,-4.185,-9.06,0.885,-4.221,40.88,-3.01,-31.29
,-9.153,1.689,-4.133,-9.062,1.034,-4.271,37.8,-3.57,-32.13
8935.0,-8.911,1.795,-4.322,-8.689,1.424,-4.223,47.46,-7.07,-23.24
,-8.469,2.515,-4.398,-8.813,1.232,-4.121,48.02,-6.79,-22.68
,-8.586,2.8,-4.441,-9.1,1.208,-4.133,41.93,-5.88,-23.45
,-8.89,2.185,-4.36,-9.148,1.129,-4.113,33.46,-5.6,-24.08
9010.0,-8.89,0.991,-3.948,-8.634,1.871,-4.721,34.65,-5.46,-19.88
,-8.961,0.878,-4.068,-8.78,1.981,-4.764,34.44,-5.11,-19.6
,-8.964,1.144,-4.274,-8.871,1.737,-5.004,33.39,-4.97,-19.25
,-8.854,1.476,-4.537,-8.969,1.328,-5.171,31.36,-4.48,-19.53
9086.0,-8.832,0.905,-4.934,-8.772,2.044,-4.542,11.41,-4.55,-19.25
,-8.866,0.888,-4.702,-9.055,1.665,-4.52,12.25,-4.83,-18.34
,-8.861,1.445,-4.697,-8.973,1.378,-4.52,12.46,-4.9,-17.92
,-8.681,1.783,-4.547,-8.935,0.737,-4.135,9.59,-4.41,-18.41
9162.0,-8.832,0.483,-3.951,-9.162,0.543,-3.52,-7.7,-0.84,-19.6
,-8.851,0.646,-3.647,-9.026,0.639,-3.781,-4.48,-0.35,-18.69
,-9.208,0.632,-3.563,-9.095,0.584,-3.845,-3.64,0.21,-17.43
,-9.43,0.615,-3.501,-9.15,0.316,-3.63,-2.94,0.63,-16.38
9238.0,-9.457,0.132,-3.506,-9.316,-0.311,-3.259,-0.56,1.12,-11.69
,-9.277,-0.275,-3.34,-9.141,0.034,-3.52,3.71,0.28,-9.59
,-9.222,-0.153,-3.202,-9.158,0.842,-3.843,8.26,0.0,-8.82
,-9.799,-0.055,-3.089,-8.906,1.378,-4.348,11.62,-0.28,-6.72
9314.0,-8.825,1.563,-4.685,-8.741,1.448,-5.025,13.3,0.42,-5.46
,-8.746,1.543,-4.984,-8.737,1.216,-4.783,8.05,0.77,-6.3
,-8.684,1.429,-5.111,-8.983,0.792,-4.468,4.34,0.91,-7.07
,-8.815,1.445,-5.195,-9.119,0.44,-4.233,1.75,0.7,-7.56
9389.0,-9.069,0.304,-3.999,-9.05,0.83,-3.654,-0.77,-1.4,-7.07
,-8.839,0.56,-3.853,-8.981,0.732,-3.575,2.31,-1.96,-6.65
,-8.835,0.775,-3.793,-9.098,0.914,-3.676,3.78,-1.82,-6.23
,-9.019,0.72,-3.659,-9.014,0.936,-3.623,3.99,-1.47,-6.02
9465.0,-9.206,0.419,-3.491,-9.316,0.17,-4.279,2.8,1.61,-5.6
,-9.533,0.01,-3.424,-9.579,1.926,-4.145,5.46,1.4,-4.41
,-9.136,0.05,-3.582,-10.309,3.369,-4.563,9.1,1.4,-4.2
,-9.213,0.146,-3.743,-7.181,3.338,-5.468,9.59,1.61,-4.2
9540.0,-7.44,-2.941,-4.511,-9.244,-0.854,-4.02,-6.09,1.89,-0.07
,-9.567,-4.578,-3.553,-9.897,-2.706,-3.618,14.35,-2.45,-5.6
,-9.294,1.067,-4.319,-9.677,-0.548,-3.841,31.85,-3.15,-8.68
,-9.191,3.417,-4.532,-8.768,1.847,-4.209,7.77,-0.84,-9.87
9616.0,-8.614,1.969,-4.099,-9.028,0.713,-4.006,6.16,-2.1,-2.94
,-9.27,0.957,-3.929,-8.686,1.007,-3.955,-0.28,-1.54,-0.98
,-9.627,0.421,-3.951,-8.485,1.802,-3.999,0.49,-1.54,1.05
,-9.433,0.421,-3.891,-8.614,1.469,-3.855,4.13,-1.54,2.38
9692.0,-8.952,0.416,-3.577,-8.914,0.845,-3.762,-0.14,0.63,-0.35
,-9.227,0.062,-3.498,-8.882,0.895,-3.848,0.77,0.77,-0.91
,-9.117,0.031,-3.577,-9.191,0.567,-3.831,3.01,0.77,-1.19
,-9.072,0.299,-3.644,-9.304,0.306,-3.771,4.2,0.91,-1.89
9768.0,-9.277,0.096,-3.754,-9.007,0.524,-4.03,4.06,2.1,0.0
,-9.143,0.376,-3.793,-9.014,0.677,-4.058,7.56,1.89,1.26
,-8.93,0.761,-3.848,-9.021,0.838,-4.061,9.1,2.17,1.89
,-9.072,0.747,-3.92,-8.997,0.747,-4.056,7.98,2.52,2.24
9843.0,-9.033,0.512,-4.099,-9.043,0.641,-4.252,4.62,3.36,0.98
,-8.911,0.672,-4.101,-9.186,0.282,-4.2,5.88,3.01,0.7
,-8.887,1.015,-4.149,-9.136,0.206,-4.2,6.51,3.01,0.21
,-8.882,1.029,-4.271,-9.038,0.349,-4.18,4.55,3.22,-0.14
9919.0,-9.086,0.5,-4.178,-9.088,0.347,-4.063,2.87,2.03,-0.35
,-9.105,0.505,-4.223,-8.945,0.567,-4.013,2.03,2.1,-0.21
,-9.074,0.39,-4.111,-8.926,0.658,-3.896,1.33,2.17,0.0
,-9.074,0.357,-4.049,-9.05,0.622,-3.843,1.54,1.96,0.42
9995.0,-9.129,0.498,-3.79,-9.079,0.596,-4.003,2.24,1.89,0.7
,-9.093,0.507,-3.869,-9.198,0.359,-4.032,4.06,1.89,0.84
,-9.019,0.682,-3.881,-8.973,0.567,-4.133,6.16,2.1,1.26
,-8.935,0.749,-3.939,-8.957,0.768,-4.178,7.0,2.38,1.4
10071.0,-9.103,0.584,-4.173,-8.906,0.921,-4.228,5.53,2.59,1.05
,-9.146,0.294,-4.14,-8.921,0.962,-4.295,3.99,2.45,1.26
,-9.103,0.129,-4.111,-9.012,0.646,-4.298,4.9,2.52,1.68
,-9.012,0.488,-4.173,-9.167,0.349,-4.293,6.58,2.17,2.24
10147.0,-9.155,0.28,-4.221,-9.414,0.38,-3.877,5.11,1.26,2.59
,-8.871,0.725,-4.204,-9.136,0.201,-3.757,7.63,1.05,2.52
,-8.882,0.974,-4.078,-8.559,0.704,-3.74,7.07,0.77,2.24
,-9.031,0.814,-4.058,-8.593,1.393,-3.776,5.39,0.84,2.52
10222.0,-8.942,0.792,-3.575,-9.411,0.136,-3.865,12.6,1.54,3.71
,-9.462,-0.062,-3.451,-9.284,0.258,-3.865,10.36,2.17,3.78
,-9.588,-0.443,-3.506,-8.971,0.191,-4.142,14.14,1.89,5.32
,-9.189,-0.61,-3.609,-9.062,0.309,-4.078,19.18,1.61,6.65
10298.0,-9.191,-0.115,-4.154,-8.969,0.928,-4.336,15.89,0.56,9.17
,-9.38,-0.304,-4.255,-8.856,0.893,-4.173,17.57,-0.42,10.29
,-9.17,-0.127,-4.288,-9.062,0.598,-4.073,21.21,-0.98,11.13
,-8.906,0.134,-4.322,-9.124,0.438,-4.042,22.75,-0.91,11.2
10373.0,-9.057,0.536,-4.142,-9.088,0.708,-4.434,11.55,1.12,8.26
,-9.0,0.938,-4.25,-8.959,0.57,-4.384,11.76,1.33,8.19
,-8.815,1.098,-4.322,-8.815,0.756,-4.439,9.87,1.54,7.63
,-8.878,0.991,-4.403,-8.906,0.912,-4.377,6.58,1.75,7.0
10449.0,-8.792,1.173,-4.338,-8.945,0.83,-3.999,4.13,1.12,5.32
,-8.887,0.89,-4.178,-8.904,0.9,-4.092,1.96,1.12,4.76
,-9.045,0.66,-4.003,-8.942,0.794,-4.013,1.61,1.19,4.62
,-8.938,0.658,-4.006,-9.072,0.56,-3.963,2.38,1.33,4.48
10525.0,-9.146,0.258,-3.862,-9.038,0.648,-4.192,-2.38,2.45,3.22
,-9.11,0.38,-3.826,-8.966,0.61,-4.159,-1.4,2.52,3.29
,-9.093,0.66,-3.946,-8.995,0.555,-3.924,-1.05,2.73,3.36
,-9.012,0.718,-4.109,-9.103,0.507,-3.766,-2.17,2.94,3.22
10601.0,-8.988,0.744,-3.728,-9.198,0.744,-3.386,-1.82,3.01,4.62
,-8.885,0.976,-3.707,-9.184,0.148,-3.25,-1.54,3.57,4.48
,-8.935,0.864,-3.592,-9.418,-0.223,-3.218,-2.66,4.55,4.48
,-9.131,0.79,-3.527,-9.536,-0.048,-3.513,-2.66,5.39,4.69
10676.0,-9.009,0.517,-3.817,-9.234,0.263,-4.338,3.57,8.12,7.42
,-8.636,1.067,-4.044,-8.906,0.034,-4.279,2.8,8.96,7.42
,-8.873,1.041,-4.128,-8.861,0.543,-4.508,-1.05,9.59,7.56
,-9.277,0.62,-4.29,-8.799,1.184,-4.611,-3.36,9.52,8.47
10752.0,-8.753,1.744,-4.573,-9.191,-0.227,-3.714,-0.63,8.96,10.29
,-8.806,1.455,-4.372,-9.165,0.371,-3.91,-7.49,9.45,9.8
,-9.122,0.589,-4.061,-8.933,0.943,-3.932,-11.97,9.73,10.22
,-9.27,0.005,-3.817,-8.894,0.986,-3.96,-11.2,9.66,11.27
10827.0,-8.966,0.792,-3.951,-8.641,1.512,-4.35,-5.74,10.71,14.28
,-9.005,0.5,-3.9,-8.691,1.785,-4.47,-5.32,10.92,14.98
,-8.945,0.579,-4.006,-8.648,1.73,-4.539,-3.08,10.99,16.03
,-8.823,1.149,-4.188,-8.624,1.412,-4.506,-0.91,11.34,16.24
10903.0,-8.681,1.237,-4.578,-8.746,1.534,-4.728,-15.68,13.23,14.35
,-8.703,1.244,-4.628,-8.792,1.347,-4.63,-15.4,13.09,14.7
,-8.65,1.522,-4.75,-8.827,0.955,-4.453,-15.61,13.02,14.91
,-8.646,1.637,-4.855,-8.82,0.948,-4.48,-17.08,13.16,15.12
10979.0,-8.806,0.991,-4.594,-8.942,0.749,-5.051,-25.34,14.35,17.29
,-9.007,0.909,-4.637,-8.732,1.07,-5.229,-25.55,14.42,18.41
,-8.914,0.692,-4.757,-8.655,1.366,-5.317,-26.04,13.79,19.46
,-8.894,0.596,-4.858,-8.691,1.565,-5.52,-25.27,13.23,20.58
11055.0,-8.614,1.369,-5.489,-8.617,1.835,-4.884,-25.83,9.03,24.92
,-8.442,1.335,-5.619,-8.868,1.852,-4.731,-26.81,8.12,25.13
,-8.612,1.457,-5.444,-9.028,1.445,-4.836,-26.74,7.42,25.69
,-8.557,1.646,-5.269,-9.335,1.005,-4.776,-27.02,7.07,26.11
11131.0,-8.945,0.782,-4.807,-8.449,2.132,-5.537,-27.16,3.57,30.52
,-9.0,1.06,-5.15,-8.591,2.838,-5.518,-23.17,2.17,33.18
,-8.94,1.352,-5.403,-8.641,3.211,-5.528,-20.79,1.33,34.44
,-8.703,1.651,-5.47,-8.564,3.4,-5.382,-19.53,0.0,35.0
11206.0,-8.394,3.999,-5.37,-9.206,3.116,-4.231,-20.16,-5.88,35.91
,-8.686,4.118,-5.3,-9.318,2.907,-3.91,-23.52,-6.02,34.44
,-8.969,3.853,-4.951,-9.308,2.706,-3.652,-27.65,-6.79,33.32
,-9.119,3.259,-4.58,-9.407,3.597,-3.754,-29.82,-7.56,32.97
11282.0,-8.78,4.042,-3.644,-8.93,2.723,-4.279,-20.51,-9.24,36.33
,-8.787,3.352,-3.642,-9.062,3.166,-4.647,-23.31,-8.26,34.93
,-8.961,2.888,-3.843,-9.162,3.877,-5.056,-25.06,-7.91,33.95
,-9.127,2.836,-3.958,-8.818,4.322,-5.281,-24.85,-8.75,34.79
11358.0,-8.392,4.197,-5.245,-7.942,2.862,-4.496,-23.31,-13.51,29.96
,-8.09,3.795,-5.078,-7.83,2.745,-4.252,-28.56,-13.86,26.6
,-7.954,3.472,-4.913,-7.605,3.082,-4.14,-32.27,-14.35,23.31
,-7.887,3.063,-4.812,-7.547,3.494,-4.056,-34.58,-15.19,19.95
11434.0,-7.605,3.69,-3.958,-7.722,2.802,-3.364,-39.2,-15.89,-1.4
,-7.731,3.783,-3.965,-7.863,1.519,-2.434,-45.85,-14.98,-7.07
,-7.865,3.771,-3.855,-7.509,0.524,-1.907,-53.55,-13.93,-12.6
,-7.988,3.443,-3.542,-7.825,-0.538,-0.976,-61.46,-12.25,-16.17
11509.0,-8.303,-0.909,-1.271,-7.758,2.374,-3.305,-36.89,-1.47,-22.82
,-8.196,-0.342,-2.242,-7.81,2.056,-3.041,-12.32,2.73,-23.73
,-7.554,1.194,-3.362,-7.966,1.776,-2.785,7.14,6.86,-26.6
,-7.595,2.29,-3.372,-8.236,2.151,-2.776,14.42,9.52,-32.34
11585.0,-8.351,2.544,-3.044,-8.531,1.161,-2.745,22.33,20.09,-58.8
,-8.363,2.029,-3.068,-8.5,2.175,-2.678,19.32,22.61,-62.37
,-8.399,1.39,-3.364,-8.449,2.113,-2.525,16.73,24.78,-64.12
,-8.49,0.553,-3.001,-8.67,1.768,-3.039,17.43,26.18,-64.61
11660.0,-8.938,1.618,-3.525,-8.047,5.128,-4.338,39.62,32.62,-61.53
,-9.15,2.039,-4.068,-8.119,4.31,-4.128,48.44,31.99,-59.29
,-8.744,3.257,-4.549,-8.435,3.173,-4.365,58.17,31.64,-58.59
,-8.399,4.53,-4.372,-8.643,2.635,-5.226,62.23,31.85,-60.55
11736.0,-9.064,2.369,-5.26,-8.799,3.757,-5.398,42.14,27.58,-50.96
,-9.428,2.182,-5.123,-8.983,3.953,-5.293,47.18,23.8,-45.85
,-9.103,2.513,-5.106,-9.086,3.829,-5.3,55.3,19.95,-40.53
,-8.966,3.178,-5.26,-9.06,3.601,-5.252,63.91,16.1,-36.82
11812.0,-9.198,3.171,-5.051,-8.89,3.163,-5.032,53.9,2.73,-30.03
,-9.337,2.881,-5.071,-8.89,3.307,-4.893,54.11,-0.56,-28.56
,-9.426,2.972,-5.128,-8.763,3.25,-4.518,57.4,-3.85,-26.25
,-8.938,2.917,-4.922,-8.583,3.072,-4.427,59.92,-6.09,-23.94
11888.0,-8.464,2.891,-4.298,-8.253,4.305,-4.19,63.7,-16.73,-7.84
,-8.641,2.84,-4.085,-8.124,4.657,-4.264,65.8,-17.92,-5.18
,-8.739,3.096,-4.173,-8.021,4.748,-4.238,67.62,-18.9,-2.52
,-8.528,3.75,-4.279,-8.287,4.384,-3.86,66.15,-18.41,-0.98
11964.0,-9.261,3.833,-4.092,-9.005,5.623,-3.329,5.18,-11.41,-13.51
,-10.021,4.946,-4.137,-8.679,2.905,-3.008,3.08,-17.15,-7.77
,-9.543,7.207,-3.936,-9.682,0.211,-3.463,5.88,-23.1,2.87
,-8.732,7.542,-2.678,-10.605,-2.139,-4.051,-1.61,-24.71,11.69
12039.0,-10.242,-1.199,-5.205,-9.82,-1.292,-4.161,44.87,-12.32,21.7
,-9.095,2.271,-5.932,-9.536,-1.299,-3.984,46.76,-9.94,16.73
,-9.713,3.912,-5.681,-8.717,0.132,-3.893,21.14,-8.96,7.0
,-9.806,1.297,-5.083,-8.205,1.094,-3.793,-14.28,-9.66,0.07
12115.0,-8.27,1.598,-3.75,-9.093,1.041,-3.056,12.39,-13.3,10.36
,-8.473,2.273,-3.719,-9.186,0.656,-2.888,14.56,-12.18,9.87
,-8.739,2.577,-3.561,-9.356,0.558,-2.63,9.94,-10.01,7.98
,-8.868,1.881,-3.324,-9.579,0.493,-2.546,2.17,-8.47,4.62
12191.0,-9.308,0.732,-2.527,-9.239,0.928,-2.8,4.27,-2.1,-0.56
,-9.229,0.675,-2.419,-9.146,0.888,-2.745,5.39,-0.49,-0.35
,-9.122,0.737,-2.51,-9.349,0.581,-2.867,6.16,1.12,-0.28
,-9.155,0.995,-2.711,-9.418,0.361,-3.029,5.39,3.22,-0.77
12267.0,-9.457,0.213,-3.156,-9.117,0.452,-4.216,-3.92,9.87,-2.52
,-9.407,0.208,-3.419,-9.093,0.428,-4.475,-1.47,9.73,-1.54
,-9.246,0.388,-3.735,-9.16,0.366,-4.539,1.33,9.8,-0.28
,-9.158,0.543,-4.011,-8.971,0.541,-4.573,3.01,9.38,0.7
12342.0,-8.88,0.701,-4.664,-9.083,0.407,-4.468,1.61,6.3,1.47
,-8.959,0.761,-4.616,-8.995,0.436,-4.391,0.63,5.6,1.12
,-8.993,0.632,-4.563,-9.074,0.553,-4.362,0.35,4.76,0.84
,-9.136,0.45,-4.592,-9.131,0.632,-4.281,1.47,3.64,0.77
12418.0,-9.057,0.778,-4.252,-9.253,0.505,-4.116,5.81,0.77,1.89
,-8.976,0.878,-4.154,-9.043,0.519,-4.106,4.13,0.7,1.47
,-9.15,0.895,-4.147,-8.978,0.713,-4.075,1.82,0.63,1.4
,-9.249,0.756,-4.125,-8.983,0.955,-4.078,0.14,0.42,1.54
12493.0,-9.038,0.919,-3.91,-9.1,0.763,-3.769,-1.54,-0.56,1.54
,-9.091,0.742,-3.853,-9.17,0.73,-3.719,-2.87,-0.28,1.19
,-9.155,0.727,-3.745,-9.172,0.672,-3.838,-2.94,-0.35,1.19
,-9.081,0.809,-3.714,-9.124,0.584,-3.862,-2.38,-0.14,1.26
12569.0,-9.076,0.627,-3.865,-9.162,0.589,-3.731,-0.98,0.14,1.75
,-9.081,0.581,-3.826,-9.155,0.605,-3.714,-0.98,0.42,1.82
,-9.131,0.603,-3.783,-9.203,0.632,-3.719,-0.98,0.35,1.89
,-9.148,0.57,-3.683,-9.222,0.718,-3.79,-0.49,0.28,2.1
12645.0,-9.174,0.749,-3.798,-9.485,0.871,-3.68,2.1,0.77,2.59
,-9.036,0.718,-3.709,-9.363,1.029,-3.836,2.03,0.7,2.38
,-9.026,0.634,-3.601,-9.007,1.082,-3.941,2.31,1.05,2.38
,-9.198,0.72,-3.623,-9.086,0.938,-4.104,2.73,1.19,2.45
12721.0,-9.493,1.077,-4.283,-9.263,1.247,-3.654,2.8,1.68,0.63
,-9.421,1.371,-4.458,-9.119,1.247,-3.221,3.29,1.12,0.7
,-9.05,1.479,-4.405,-9.112,1.208,-2.723,2.31,0.77,0.35
,-9.165,1.333,-4.018,-9.179,2.075,-2.709,0.49,0.63,-0.28
12796.0,-9.311,2.857,-2.589,-9.481,3.24,-3.324,4.76,5.46,0.84
,-9.024,3.092,-2.785,-9.698,2.697,-3.589,-0.7,9.03,-0.77
,-9.043,3.23,-2.874,-9.462,2.156,-3.558,-6.23,12.95,-2.52
,-9.182,3.242,-3.037,-9.686,2.302,-3.666,-11.34,16.66,-3.78
12872.0,-8.964,2.986,-3.865,-8.811,4.922,-4.58,-17.92,20.79,-3.29
,-8.792,3.077,-3.79,-8.624,5.346,-4.484,-18.62,21.49,-0.98
,-8.789,3.707,-4.173,-8.617,5.207,-4.262,-18.48,22.61,1.47
,-9.009,4.156,-4.487,-8.607,5.252,-4.013,-20.09,22.89,3.92
12948.0,-8.543,5.394,-4.142,-8.672,4.049,-4.803,-46.9,21.77,17.29
,-8.591,4.872,-4.156,-8.662,4.31,-5.284,-52.22,20.65,19.53
,-8.844,4.075,-4.161,-8.945,4.348,-5.42,-55.65,19.04,23.03
,-8.882,3.81,-4.405,-9.131,4.276,-5.439,-54.18,17.64,27.16
13024.0,-9.158,3.924,-5.303,-8.425,3.86,-5.195,-56.07,11.13,40.81
,-9.612,3.625,-4.996,-8.658,4.104,-5.197,-56.84,5.88,43.68
,-8.923,3.434,-5.169,-8.693,4.365,-5.358,-56.0,0.7,46.2
,-8.402,3.558,-5.114,-8.581,4.168,-5.542,-54.74,-2.1,47.04
13100.0,-8.916,3.214,-5.078,-9.067,1.85,-4.597,-88.48,-10.01,46.2
,-9.112,2.781,-4.879,-9.103,1.888,-4.422,-91.21,-12.46,45.36
,-9.024,2.34,-4.858,-9.201,1.804,-4.008,-90.79,-15.12,44.52
,-8.976,1.977,-4.745,-8.961,1.957,-3.922,-88.9,-17.99,44.38
13175.0,-8.739,2.039,-3.831,-8.701,2.505,-3.228,-63.63,-31.15,38.64
,-8.938,1.936,-3.853,-8.772,2.429,-3.013,-60.48,-31.5,37.31
,-8.985,2.245,-3.762,-9.005,2.091,-2.718,-55.79,-31.99,37.38
,-8.739,2.436,-3.544,-9.139,1.831,-2.477,-51.73,-31.99,37.03
13251.0,-8.997,1.615,-2.424,-8.385,2.869,-2.056,-28.28,-26.6,35.0
,-8.77,1.701,-2.367,-8.093,3.381,-2.118,-18.34,-26.04,36.54
,-8.681,2.012,-2.379,-8.138,3.195,-2.163,-8.47,-26.25,37.66
,-8.504,2.426,-2.35,-8.181,2.709,-1.811,-0.07,-26.67,38.22
13326.0,-8.179,2.915,-1.804,-7.954,2.273,-1.56,17.43,-23.8,38.64
,-8.15,3.221,-1.792,-8.011,2.438,-1.749,23.87,-23.1,38.85
,-7.901,3.3,-1.677,-7.767,2.776,-1.639,29.05,-21.63,38.85
,-7.686,2.704,-1.675,-7.6,2.986,-1.555,31.85,-20.02,38.57
13402.0,-7.471,3.132,-1.491,-6.602,3.233,-2.503,53.48,-11.55,36.68
,-7.155,3.238,-1.51,-6.832,3.733,-3.008,55.16,-7.84,34.44
,-7.145,2.869,-1.625,-7.071,3.92,-3.441,55.44,-3.78,31.99
,-7.207,2.649,-2.379,-7.054,3.592,-3.774,60.13,1.12,31.08
13478.0,-6.925,4.054,-3.769,-7.483,4.688,-3.211,70.84,18.69,10.85
,-7.04,4.786,-3.972,-7.435,4.783,-3.034,64.96,18.76,5.04
,-7.315,5.075,-3.944,-7.423,4.759,-3.63,52.01,18.97,-1.75
,-7.583,5.049,-3.637,-7.619,4.338,-4.183,38.01,19.11,-7.63
13554.0,-7.717,3.417,-4.463,-8.004,4.855,-3.9,23.24,32.97,-23.45
,-8.138,3.125,-4.341,-7.865,3.656,-3.987,26.81,30.03,-23.1
,-8.411,4.168,-4.068,-7.856,2.178,-4.054,33.39,26.39,-22.47
,-8.361,4.989,-4.066,-7.952,1.304,-4.262,34.93,23.94,-23.24
13629.0,-7.72,1.259,-3.766,-8.007,4.104,-4.826,39.27,20.16,-24.57
,-7.83,2.903,-3.594,-8.028,4.58,-5.441,50.05,18.34,-22.68
,-7.932,3.463,-3.953,-8.04,5.288,-5.781,53.2,17.36,-22.89
,-7.865,3.771,-4.262,-8.378,6.446,-6.243,51.52,17.43,-26.25
13705.0,-8.753,5.997,-6.387,-9.691,1.067,-5.169,10.92,17.5,-48.79
,-9.098,4.494,-6.475,-9.758,1.414,-4.661,-2.03,15.54,-51.94
,-9.328,2.486,-6.406,-9.988,2.022,-3.941,-6.37,12.32,-51.31
,-9.55,1.345,-5.712,-10.72,3.494,-3.092,0.77,8.12,-46.34
13781.0,-12.379,5.159,-2.515,-6.358,-0.364,-6.064,51.66,-0.49,-31.22
,-13.283,5.468,-3.408,-7.624,0.66,-6.674,47.32,1.4,-33.25
,-11.038,3.297,-4.489,-8.935,1.658,-6.652,34.72,1.89,-33.81
,-7.454,0.397,-5.092,-9.232,1.677,-6.394,29.19,1.26,-31.64
13857.0,-8.684,1.034,-5.946,-8.701,2.596,-5.154,39.27,-8.61,-27.3
,-8.361,0.991,-5.676,-8.681,1.902,-4.762,38.22,-10.71,-26.32
,-8.129,1.814,-5.449,-8.926,1.347,-4.427,41.93,-11.9,-24.43
,-8.258,2.58,-5.406,-9.052,0.943,-3.905,42.91,-12.74,-22.89
13933.0,-9.005,0.859,-3.735,-8.906,1.747,-3.888,36.47,-12.88,-20.23
,-8.949,1.438,-3.762,-9.15,0.749,-3.872,38.71,-12.04,-19.67
,-8.528,1.819,-3.759,-9.296,0.156,-4.25,38.43,-10.78,-19.67
,-8.811,2.247,-3.908,-8.763,0.486,-4.547,36.05,-9.38,-19.18
14008.0,-8.679,1.431,-4.996,-8.579,1.141,-4.829,35.84,-7.7,-14.7
,-8.681,2.108,-5.217,-8.732,1.412,-4.855,30.66,-7.35,-14.91
,-8.787,2.036,-5.075,-8.82,1.436,-4.781,21.91,-7.0,-15.33
,-8.631,1.505,-4.858,-8.871,1.388,-4.726,16.17,-7.07,-15.26
14084.0,-8.674,1.45,-4.764,-8.985,0.553,-4.046,12.11,-7.7,-13.58
,-8.624,1.359,-4.42,-8.708,0.747,-3.948,10.01,-6.86,-13.72
,-8.928,1.173,-4.171,-8.823,1.144,-4.051,7.49,-5.95,-13.86
,-9.158,0.826,-4.2,-9.031,0.969,-3.824,6.23,-5.74,-13.51
14159.0,-9.485,0.201,-3.683,-8.48,1.589,-4.585,8.05,-4.9,-10.36
,-9.658,-0.469,-3.754,-8.289,2.46,-4.53,12.39,-6.51,-7.84
,-9.366,-0.584,-3.934,-8.502,2.441,-4.386,19.81,-7.91,-5.95
,-8.844,0.151,-4.312,-8.959,1.512,-4.185,26.81,-8.75,-5.18
14235.0,-9.184,0.476,-3.903,-9.529,0.084,-3.611,2.38,-5.11,-8.54
,-9.167,0.005,-3.714,-9.56,-0.136,-4.121,5.81,-5.04,-7.63
,-9.215,0.333,-3.544,-8.811,0.395,-4.446,10.99,-5.04,-6.51
,-9.229,0.517,-3.453,-8.301,1.407,-4.64,12.74,-4.83,-5.53
14311.0,-8.43,2.245,-4.874,-9.129,0.498,-4.484,16.73,-4.9,-4.41
,-8.504,2.434,-4.805,-9.04,0.366,-4.41,9.52,-4.48,-6.02
,-8.65,1.771,-4.669,-8.914,0.778,-4.307,2.52,-4.27,-7.35
,-8.911,1.091,-4.487,-8.923,1.271,-4.094,-0.28,-3.78,-7.42
14387.0,-8.875,1.747,-4.027,-8.777,0.905,-3.917,-0.35,-1.05,-9.31
,-8.873,1.874,-4.022,-8.839,0.948,-3.848,-3.78,0.28,-10.15
,-8.882,1.452,-3.855,-8.861,0.792,-3.687,-8.96,2.03,-11.06
,-8.851,1.0,-3.812,-9.014,0.352,-3.352,-12.18,3.64,-11.69
14462.0,-9.375,-0.168,-3.104,-8.54,0.79,-4.097,-14.84,6.93,-11.62
,-9.636,-0.421,-3.123,-8.808,1.656,-4.384,-11.34,6.72,-10.15
,-9.485,-0.33,-3.41,-9.474,4.279,-4.2,-7.21,6.51,-9.31
,-8.983,0.292,-3.771,-9.466,2.534,-5.03,-3.5,6.02,-9.38
14538.0,-7.923,-2.345,-4.956,-8.607,2.309,-4.752,-23.24,8.82,-3.08
,-9.136,-5.494,-4.078,-9.44,-1.0,-4.078,-9.59,4.83,-7.63
,-8.88,-1.433,-4.611,-10.275,-2.158,-3.805,13.37,1.82,-12.25
,-8.873,3.168,-5.066,-9.677,-0.785,-3.922,8.26,2.17,-13.37
14614.0,-9.237,0.766,-4.173,-9.433,0.014,-4.29,9.24,-0.07,-1.96
,-8.569,1.027,-4.255,-8.835,0.469,-4.286,4.69,0.14,-1.05
,-8.815,0.541,-4.257,-8.772,0.95,-4.197,-2.52,0.35,-1.4
,-9.423,0.12,-4.36,-8.981,1.015,-4.212,-5.74,0.07,-0.91
14690.0,-8.985,0.562,-4.152,-9.088,0.445,-3.683,-0.35,-1.96,2.45
,-8.691,0.213,-3.989,-9.177,0.232,-3.52,1.26,-2.31,1.89
,-8.61,0.357,-3.939,-9.227,0.392,-3.518,3.57,-2.52,1.33
,-8.926,0.536,-3.874,-8.892,1.101,-3.549,3.92,-2.59,0.84
14766.0,-8.83,1.735,-3.644,-9.172,-0.203,-4.011,7.98,0.91,0.84
,-9.0,1.508,-3.798,-9.129,0.311,-4.156,3.08,2.45,0.28
,-9.182,0.67,-3.826,-9.012,0.644,-4.274,-0.35,3.57,0.21
,-9.22,-0.168,-3.829,-8.978,0.66,-4.389,0.42,3.85,1.19
14841.0,-8.849,0.653,-4.398,-8.914,0.718,-4.147,3.64,3.01,2.1
,-8.969,0.747,-4.381,-8.885,0.799,-4.011,3.15,2.73,2.31
,-8.985,0.629,-4.377,-8.945,0.768,-3.857,3.01,2.17,2.52
,-8.847,0.687,-4.298,-9.057,0.555,-3.824,3.43,2.03,2.38
14917.0,-9.139,0.273,-3.795,-8.966,0.715,-4.063,2.8,2.45,1.4
,-9.048,0.325,-3.867,-8.966,0.524,-4.137,5.11,2.52,1.75
,-8.954,0.555,-3.917,-8.942,0.57,-4.233,6.93,2.66,2.03
,-9.036,0.689,-4.013,-8.988,0.751,-4.362,7.28,2.87,2.31
14992.0,-8.882,0.838,-4.475,-9.002,0.706,-4.305,8.47,2.59,3.01
,-8.904,0.682,-4.477,-9.031,0.699,-4.269,7.42,2.59,2.87
,-8.911,0.629,-4.393,-9.107,0.581,-4.226,6.79,2.24,2.73
,-8.911,0.663,-4.377,-9.081,0.366,-4.329,6.44,1.89,2.38
15068.0,-8.892,0.313,-4.331,-8.983,0.706,-3.963,8.12,-0.84,3.71
,-8.863,0.639,-4.19,-9.005,0.519,-3.867,8.75,-0.56,3.64
,-8.909,0.909,-4.152,-8.993,0.481,-3.991,8.19,-0.28,3.36
,-8.945,0.909,-4.032,-9.028,0.584,-4.104,5.74,0.21,2.94
15144.0,-8.933,0.696,-4.147,-8.93,0.474,-4.42,9.31,0.56,3.15
,-8.887,0.739,-4.245,-8.993,0.663,-4.396,9.03,0.77,3.08
,-9.048,0.684,-4.286,-8.878,0.785,-4.393,8.47,0.49,2.94
,-8.918,0.505,-4.353,-8.902,0.751,-4.274,8.26,0.35,2.94
15220.0,-9.182,0.656,-4.173,-8.751,1.249,-4.221,6.65,-0.63,2.73
,-8.995,0.457,-4.101,-8.674,1.364,-4.267,6.51,-0.7,2.94
,-9.0,0.517,-4.137,-9.079,0.72,-4.156,7.42,-0.77,2.94
,-8.945,0.787,-4.145,-9.375,-0.325,-4.147,8.68,-0.77,3.08
15295.0,-9.282,-0.747,-4.051,-8.698,1.517,-4.489,9.24,-1.75,4.27
,-9.119,-0.086,-4.255,-8.763,0.967,-4.271,16.03,-2.8,5.46
,-8.753,1.074,-4.477,-9.115,0.361,-4.128,18.48,-2.94,5.67
,-8.588,1.543,-4.451,-9.335,0.019,-4.066,14.21,-2.59,4.69
15371.0,-9.22,0.096,-4.121,-8.459,1.807,-4.094,8.33,-3.01,4.06
,-9.088,0.392,-4.106,-9.189,0.397,-3.57,9.8,-3.71,4.27
,-8.674,1.354,-4.252,-9.675,-0.866,-3.168,10.99,-3.78,4.2
,-8.358,1.888,-4.152,-9.598,-1.297,-3.046,9.45,-3.08,4.27
15447.0,-9.392,-0.581,-3.302,-9.292,0.273,-4.728,18.62,-2.03,5.88
,-9.083,0.608,-3.874,-9.074,0.148,-4.654,21.42,-1.68,6.23
,-8.801,1.11,-4.396,-8.964,0.483,-4.525,17.78,-0.98,5.67
,-9.064,0.909,-4.63,-8.985,0.677,-4.422,12.25,-0.7,5.53
15523.0,-9.062,0.392,-4.276,-9.191,0.359,-3.922,9.94,-4.06,6.79
,-8.926,0.684,-4.424,-9.306,0.452,-3.704,10.99,-4.2,6.3
,-8.76,1.084,-4.453,-9.191,0.818,-3.553,10.43,-4.2,5.53
,-8.863,0.802,-4.279,-9.131,0.826,-3.482,7.28,-3.92,4.83
15598.0,-9.15,0.84,-3.463,-9.043,0.775,-3.329,11.13,-3.01,6.93
,-9.069,1.031,-3.525,-9.122,0.986,-3.436,12.11,-2.1,7.14
,-9.026,1.077,-3.439,-9.098,1.072,-3.649,11.34,-1.4,7.0
,-9.019,0.826,-3.314,-9.119,1.015,-3.814,10.36,-0.35,6.86
15674.0,-9.019,0.818,-3.96,-8.938,0.648,-4.243,4.83,3.99,4.69
,-8.942,0.828,-4.14,-8.957,0.558,-4.176,5.11,3.92,4.62
,-8.926,0.952,-4.259,-9.05,0.373,-4.073,4.97,3.64,4.48
,-8.957,0.833,-4.319,-9.072,0.34,-3.965,3.92,3.64,4.62
15750.0,-9.17,0.55,-3.936,-9.139,0.62,-4.245,3.5,2.66,4.69
,-9.079,0.859,-4.044,-9.005,0.534,-4.312,3.43,2.52,4.41
,-8.918,0.873,-4.049,-8.847,0.665,-4.231,1.82,3.08,4.27
,-9.064,0.756,-4.195,-8.949,0.952,-4.118,0.14,3.29,4.55
15825.0,-8.748,1.362,-4.042,-9.062,-0.412,-3.594,-3.78,3.78,3.43
,-8.835,1.393,-3.807,-9.098,-0.053,-3.563,-6.44,4.62,3.22
,-9.404,1.012,-3.687,-9.146,0.55,-3.609,-9.1,5.25,3.78
,-9.519,0.165,-3.604,-9.112,1.192,-3.664,-9.03,4.97,4.9
15901.0,-9.086,1.184,-3.731,-8.543,1.522,-4.2,-9.66,7.56,4.41
,-9.045,0.763,-3.714,-8.574,2.333,-4.295,-12.6,8.05,4.83
,-9.081,0.359,-3.812,-9.194,2.029,-4.133,-11.97,8.26,6.16
,-9.026,0.617,-4.025,-9.349,0.373,-3.74,-8.12,8.33,6.93
15977.0,-9.404,-1.158,-3.276,-8.971,1.766,-3.649,-23.17,10.08,7.63
,-9.474,-1.397,-3.008,-9.074,1.263,-3.922,-11.97,9.8,9.59
,-9.328,-0.282,-3.161,-9.064,0.577,-4.003,-0.49,10.29,10.92
,-8.976,1.199,-3.491,-9.019,0.352,-4.037,2.52,11.13,10.85
16053.0,-8.725,1.062,-4.463,-8.969,1.299,-4.7,-10.15,13.86,12.46
,-8.643,1.663,-4.58,-8.89,0.909,-4.64,-9.73,14.21,12.39
,-8.725,1.843,-4.635,-8.818,0.854,-4.458,-13.93,14.42,12.18
,-8.906,1.639,-4.719,-8.837,1.122,-4.128,-18.41,14.28,12.46
16128.0,-8.93,1.225,-4.044,-8.978,0.73,-3.922,-19.88,13.58,14.98
,-8.832,1.366,-4.003,-8.909,0.809,-4.073,-20.44,13.93,15.96
,-8.866,1.242,-3.872,-8.849,1.11,-4.135,-21.63,14.77,16.8
,-8.995,0.893,-3.774,-8.89,1.244,-4.276,-22.47,15.19,17.64
16204.0,-8.823,1.24,-4.482,-8.737,1.385,-5.224,-21.77,16.94,20.93
,-8.808,1.247,-4.762,-8.713,1.218,-5.104,-22.68,16.94,21.91
,-8.643,1.261,-4.975,-8.753,1.153,-5.305,-23.38,17.01,22.61
,-8.579,1.366,-5.217,-8.746,1.208,-5.353,-24.22,16.94,23.1
16280.0,-8.753,1.163,-5.315,-8.734,1.67,-5.08,-27.09,13.37,26.11
,-8.591,1.165,-5.173,-8.693,1.859,-5.377,-27.65,12.67,26.46
,-8.691,1.4,-4.984,-8.641,2.06,-5.575,-27.37,12.11,26.67
,-8.789,1.508,-5.035,-8.342,2.328,-5.678,-26.53,10.64,27.86
16356.0,-8.275,2.802,-5.678,-8.586,2.094,-5.37,-22.4,5.04,33.74
,-8.306,3.463,-5.769,-8.49,2.448,-5.209,-25.2,4.06,34.02
,-8.591,3.044,-5.532,-8.569,3.257,-5.159,-31.78,2.66,33.18
,-8.641,2.371,-5.41,-8.452,3.781,-4.925,-34.16,0.49,33.95
16431.0,-8.662,3.75,-4.597,-9.296,3.807,-4.604,-26.18,-4.13,34.23
,-9.043,3.441,-4.53,-9.196,3.721,-4.573,-29.19,-4.55,33.67
,-9.249,3.197,-4.451,-9.229,3.278,-4.458,-29.54,-5.32,33.53
,-9.28,3.431,-4.549,-8.794,3.829,-4.472,-27.23,-5.53,33.39
16507.0,-8.428,3.592,-4.214,-8.725,3.81,-3.996,-24.85,-8.68,35.14
,-8.622,2.793,-4.037,-8.882,4.209,-4.078,-23.66,-9.52,35.49
,-8.954,2.895,-4.07,-8.981,4.312,-4.204,-19.88,-11.34,36.82
,-8.89,3.374,-4.011,-8.945,3.939,-4.257,-15.19,-12.81,38.64
16583.0,-9.27,3.173,-4.424,-7.98,3.881,-4.281,-26.25,-11.83,26.88
,-9.22,2.733,-4.341,-8.069,3.673,-4.269,-26.67,-12.25,24.08
,-8.751,3.154,-4.336,-8.083,3.666,-4.362,-23.59,-12.81,21.28
,-8.186,3.762,-4.288,-7.87,3.941,-4.334,-23.03,-12.6,17.78
16659.0,-7.404,4.166,-4.2,-7.239,2.493,-2.927,-45.36,-10.15,-6.02
,-7.248,4.338,-3.987,-7.207,1.876,-3.08,-53.48,-8.96,-11.13
,-7.042,4.362,-3.731,-8.378,0.701,-3.049,-62.23,-7.21,-15.26
,-6.846,3.412,-3.29,-8.2,-0.321,-2.467,-72.52,-4.97,-20.72
16735.0,-7.894,-0.833,-2.335,-7.535,3.757,-3.891,-55.3,2.1,-31.29
,-7.937,-0.763,-2.158,-7.827,3.228,-3.247,-34.37,3.64,-31.64
,-7.629,0.61,-3.333,-7.638,2.084,-2.596,-8.05,7.07,-30.31
,-6.899,2.838,-3.821,-7.889,1.644,-2.233,5.95,11.41,-35.21
16810.0,-8.117,1.847,-2.493,-8.399,2.259,-2.434,24.36,16.38,-58.03
,-8.203,0.931,-2.424,-7.586,3.372,-2.816,27.23,18.55,-56.77
,-8.552,0.38,-2.072,-7.715,3.881,-3.096,30.59,20.51,-53.34
,-8.976,1.015,-2.13,-8.203,4.039,-3.573,41.37,21.98,-48.72
16886.0,-8.409,4.08,-3.972,-8.437,4.891,-4.597,57.19,25.76,-38.92
,-8.148,4.939,-4.405,-8.646,4.305,-4.336,58.03,25.55,-39.76
,-7.574,5.867,-4.716,-8.244,4.599,-4.432,56.63,26.81,-43.89
,-7.832,5.621,-4.623,-7.81,4.13,-4.135,45.15,28.14,-47.67
16961.0,-8.102,3.472,-4.104,-9.904,2.668,-4.262,18.97,22.96,-41.02
,-8.894,2.888,-4.293,-9.356,3.029,-4.417,21.0,19.53,-35.07
,-9.581,2.419,-4.369,-9.363,3.57,-4.566,28.0,14.28,-27.79
,-9.876,2.345,-4.532,-9.438,3.922,-4.676,40.81,9.1,-20.65
17037.0,-9.282,4.439,-4.824,-8.368,4.372,-4.63,84.7,-2.17,-7.63
,-8.897,5.044,-5.044,-8.536,3.386,-4.415,79.66,-0.14,-10.71
,-8.83,5.406,-4.925,-8.507,2.548,-4.212,68.95,2.24,-15.26
,-8.576,5.142,-4.544,-8.5,1.864,-4.07,54.18,4.41,-20.37
17113.0,-8.418,1.156,-4.101,-8.856,1.18,-4.716,17.92,8.4,-34.3
,-8.643,1.079,-4.415,-8.641,0.873,-4.719,22.19,7.7,-32.62
,-8.823,1.287,-4.578,-8.464,0.96,-4.824,26.04,6.51,-30.31
,-8.804,1.388,-4.688,-8.215,1.23,-4.917,29.19,5.04,-28.49
17189.0,-8.346,1.503,-4.69,-8.665,2.091,-4.087,57.26,-6.79,-17.22
,-8.373,1.768,-4.338,-8.54,2.082,-4.235,58.87,-7.0,-15.26
,-8.416,2.194,-4.305,-8.205,2.209,-4.226,59.57,-7.21,-13.16
,-8.313,2.271,-4.491,-8.086,2.216,-4.257,57.26,-6.93,-11.55
17264.0,-8.198,2.405,-4.7,-8.557,3.132,-5.315,53.97,-1.26,-6.23
,-8.248,2.654,-4.874,-8.545,3.278,-5.363,52.36,0.07,-5.95
,-8.282,2.927,-5.073,-8.394,3.699,-5.142,48.93,1.33,-6.02
,-8.334,3.053,-5.188,-8.897,4.417,-4.98,43.96,1.89,-5.74
17340.0,-9.086,5.451,-5.188,-8.818,-0.914,-4.824,15.89,-19.88,7.98
,-8.796,5.616,-4.692,-8.653,-1.275,-5.343,10.64,-25.48,16.8
,-8.698,3.721,-4.238,-9.057,0.498,-5.848,6.23,-27.79,21.84
,-8.882,0.952,-4.506,-9.737,2.773,-5.573,10.85,-26.18,25.2
17415.0,-10.591,3.374,-5.106,-8.787,1.053,-4.133,23.31,-15.82,9.38
,-10.995,1.397,-4.63,-8.464,1.027,-3.97,-9.87,-15.33,-0.35
,-10.622,-0.127,-4.468,-8.583,0.526,-3.853,-27.09,-13.44,-6.16
,-9.763,0.294,-4.429,-8.674,0.601,-3.747,-26.88,-11.76,-5.88
17491.0,-8.658,1.065,-3.496,-8.873,1.211,-2.864,16.66,-13.16,12.25
,-8.612,1.369,-3.338,-9.182,0.792,-2.836,17.99,-12.04,11.34
,-8.612,1.469,-3.285,-9.483,0.73,-2.809,13.72,-10.43,8.19
,-8.65,1.431,-3.118,-9.66,0.854,-2.979,6.93,-8.19,4.13
17567.0,-9.375,1.048,-3.154,-9.119,0.567,-4.015,-0.56,0.28,-1.61
,-9.045,1.084,-3.506,-9.081,0.648,-4.133,-0.28,1.47,-1.33
,-9.052,0.921,-3.711,-9.124,0.632,-4.302,-1.33,1.96,-1.47
,-9.179,0.682,-3.929,-9.057,0.699,-4.307,-2.24,2.38,-1.54
17643.0,-8.995,0.737,-4.283,-9.143,0.672,-3.831,-4.2,1.54,-0.42
,-8.789,1.043,-4.235,-9.167,0.275,-3.599,-3.5,1.47,-0.14
,-8.681,1.232,-4.192,-9.155,0.12,-3.448,-4.55,1.89,-0.63
,-8.902,1.07,-3.979,-9.232,0.297,-3.46,-7.42,2.24,-1.33
17719.0,-9.206,0.658,-3.489,-9.184,0.359,-3.905,3.15,2.59,-0.42
,-9.086,0.794,-3.589,-9.043,0.452,-3.965,3.92,3.01,-0.77
,-9.131,0.73,-3.776,-8.99,0.794,-4.123,3.5,3.01,-0.91
,-9.191,0.555,-3.915,-9.043,1.029,-4.331,3.5,3.01,-0.63
17794.0,-9.016,1.046,-4.386,-8.856,0.905,-4.475,4.83,2.31,0.84
,-9.055,0.943,-4.403,-8.914,1.079,-4.398,1.96,2.17,0.42
,-9.083,0.696,-4.532,-8.952,1.062,-4.314,0.0,1.89,0.35
,-8.923,0.792,-4.468,-9.012,0.816,-4.173,-0.84,1.68,0.21
17870.0,-9.06,0.467,-4.073,-9.179,0.692,-3.826,-8.68,1.47,-1.54
,-9.062,0.352,-3.855,-9.122,0.682,-3.836,-6.51,1.05,-1.33
,-9.05,0.479,-3.848,-9.088,0.56,-3.781,-3.64,0.77,-0.77
,-9.107,0.648,-3.833,-9.165,0.414,-3.762,-2.03,0.63,-0.56
17946.0,-9.117,0.402,-3.757,-9.095,0.79,-3.594,-0.35,1.4,-0.42
,-8.973,0.558,-3.704,-9.057,0.67,-3.606,0.49,1.82,-0.21
,-9.019,0.723,-3.673,-9.162,0.72,-3.611,0.7,2.17,-0.14
,-9.16,0.804,-3.685,-9.172,0.763,-3.597,0.21,2.66,-0.28
18022.0,-9.009,0.89,-3.609,-9.136,1.091,-3.228,1.19,5.32,-0.84
,-8.832,1.005,-3.422,-9.237,1.208,-3.384,0.56,6.37,-1.19
,-8.758,0.931,-3.204,-8.964,1.311,-3.305,-0.42,7.56,-1.75
,-8.926,0.993,-3.156,-8.782,1.311,-3.388,-0.84,9.03,-2.31
18097.0,-8.902,1.338,-3.46,-9.756,1.165,-3.573,-4.06,16.38,-5.88
,-9.407,1.505,-3.53,-9.088,0.974,-3.735,-4.2,17.08,-5.39
,-9.402,1.395,-3.812,-8.653,1.558,-3.903,-3.85,17.29,-4.55
,-9.782,1.586,-3.867,-8.88,2.735,-4.252,-2.03,16.8,-4.2
18173.0,-9.497,3.862,-4.664,-8.701,2.388,-5.379,3.92,16.94,-5.04
,-9.526,3.74,-5.19,-9.143,2.261,-5.781,-7.21,15.96,-5.81
,-8.978,3.032,-5.363,-9.919,2.17,-5.47,-17.36,15.89,-7.42
,-8.703,2.613,-5.398,-9.746,1.866,-5.386,-23.24,17.78,-9.45
18248.0,-9.131,1.649,-5.171,-8.466,4.719,-5.126,-35.84,13.37,-2.94
,-8.827,2.513,-5.238,-8.459,4.389,-4.609,-29.54,12.04,2.24
,-8.966,3.604,-5.162,-8.734,3.888,-4.35,-26.74,10.08,5.25
,-8.825,4.472,-5.248,-8.607,3.869,-4.247,-28.28,7.77,7.21
18324.0,-8.241,4.106,-4.539,-8.643,3.123,-4.659,-46.2,4.13,15.47
,-8.184,4.434,-4.786,-8.514,3.362,-4.752,-47.6,4.83,17.36
,-8.593,4.243,-4.652,-8.787,3.814,-4.786,-51.1,4.2,19.67
,-8.796,3.637,-4.594,-9.002,3.946,-4.664,-53.9,1.75,23.31
18400.0,-8.729,3.781,-4.738,-8.93,3.041,-4.542,-47.32,-6.3,40.11
,-8.681,3.582,-4.573,-8.823,3.029,-4.518,-49.84,-6.02,41.86
,-8.961,3.269,-4.434,-8.681,3.159,-4.491,-51.38,-6.23,43.75
,-8.94,3.118,-4.508,-8.67,3.135,-4.539,-51.59,-6.3,45.43
18476.0,-8.763,2.931,-4.659,-9.926,2.213,-4.702,-53.34,-0.49,46.9
,-9.019,2.295,-4.628,-9.387,2.888,-4.673,-55.65,0.49,46.41
,-9.143,1.948,-4.738,-8.21,3.118,-4.374,-54.18,0.28,46.76
,-9.136,1.845,-4.786,-8.342,2.728,-3.999,-49.28,0.07,45.85
18552.0,-8.693,2.838,-4.161,-8.882,1.572,-3.422,-36.26,-9.59,48.65
,-8.842,2.654,-3.888,-8.921,1.711,-3.508,-38.5,-11.69,49.7
,-8.976,2.374,-3.805,-8.854,2.204,-3.486,-39.97,-14.91,51.31
,-8.827,1.742,-3.601,-8.291,2.962,-3.795,-37.59,-18.76,52.5
18627.0,-8.107,2.663,-3.424,-8.043,2.649,-2.905,-7.28,-35.7,51.59
,-8.205,2.888,-3.482,-8.078,2.544,-2.642,-5.67,-36.75,51.17
,-8.004,3.039,-3.582,-8.37,2.675,-2.472,-6.72,-36.61,50.26
,-8.045,2.898,-3.223,-8.473,2.979,-2.656,-10.5,-35.91,48.86
18703.0,-8.224,2.903,-2.309,-7.906,2.075,-1.584,-9.31,-29.47,38.78
,-8.263,2.395,-2.307,-8.107,1.74,-1.881,-9.73,-27.93,36.47
,-7.913,2.335,-2.249,-7.722,1.603,-1.744,-6.51,-26.53,33.74
,-7.631,2.393,-1.828,-7.588,1.273,-1.536,-2.73,-24.43,30.73
18779.0,-7.629,0.718,-1.579,-5.851,4.463,-3.647,39.48,-16.38,26.67
,-7.04,0.22,-1.546,-6.655,5.363,-4.293,55.02,-15.54,27.79
,-6.77,0.091,-2.111,-6.59,5.422,-4.752,76.16,-9.73,30.38
,-5.762,2.01,-2.706,-6.152,5.822,-5.111,101.36,0.84,32.06
18855.0,-6.588,6.693,-4.977,-8.057,2.472,-3.62,47.39,29.47,-8.05
,-7.406,5.982,-4.633,-7.586,4.104,-4.489,26.81,28.91,-16.45
,-7.775,4.078,-4.106,-7.901,5.451,-5.013,13.16,27.16,-22.12
,-8.196,2.443,-3.486,-8.191,5.02,-4.692,12.74,25.97,-24.08
18930.0,-8.059,4.29,-4.338,-8.717,3.934,-4.262,27.3,20.3,-24.22
,-8.373,4.558,-4.113,-8.909,3.309,-4.776,31.99,18.34,-25.06
,-8.313,5.475,-4.202,-8.947,2.613,-4.838,31.85,18.06,-26.6
,-8.581,5.207,-4.24,-9.005,2.434,-4.965,25.76,18.2,-28.7
19006.0,-8.873,3.199,-5.162,-8.284,3.96,-5.264,35.49,10.01,-32.62
,-8.741,4.042,-5.279,-8.246,3.527,-5.37,36.96,8.89,-34.44
,-8.579,4.752,-5.319,-8.248,3.116,-5.707,32.55,8.96,-37.87
,-8.445,4.594,-5.207,-8.172,2.099,-5.865,22.68,9.03,-42.21
19081.0,-8.284,1.412,-6.143,-9.44,4.295,-4.669,-3.71,3.29,-54.18
,-8.246,0.739,-6.243,-11.795,6.521,-3.305,1.54,-1.54,-49.7
,-8.275,1.086,-6.303,-13.434,7.516,-3.623,12.74,-7.42,-42.63
,-8.349,2.383,-5.925,-11.469,5.274,-4.223,25.69,-11.9,-35.91
19157.0,-7.554,1.694,-4.456,-10.062,0.708,-4.109,7.28,-6.65,-41.16
,-6.36,-0.61,-4.592,-9.744,0.5,-3.929,2.87,-5.6,-41.16
,-8.122,-0.881,-4.511,-8.863,0.555,-3.678,13.16,-7.56,-38.99
,-9.675,0.084,-4.269,-8.741,0.895,-3.716,24.71,-9.73,-36.47
19233.0,-8.854,1.433,-3.781,-9.002,0.534,-4.372,30.94,-11.55,-28.21
,-9.16,1.699,-3.9,-8.94,0.876,-4.281,27.16,-10.99,-27.16
,-9.229,1.338,-4.19,-9.06,1.414,-4.085,21.7,-10.85,-26.25
,-9.074,0.79,-4.367,-9.191,1.488,-3.955,19.04,-10.64,-25.41
19309.0,-8.909,1.551,-3.853,-8.703,2.01,-3.996,17.5,-10.08,-20.37
,-8.93,1.242,-3.802,-8.708,2.319,-4.027,15.89,-9.52,-20.16
,-9.139,1.113,-3.891,-8.926,2.02,-4.015,15.12,-9.59,-19.53
,-8.878,1.488,-3.953,-9.17,1.132,-3.999,16.17,-9.1,-18.69
19385.0,-9.072,0.514,-3.922,-9.268,0.644,-3.199,3.71,-4.76,-18.13
,-8.871,0.481,-3.819,-9.378,0.373,-2.991,8.54,-5.11,-17.57
,-8.94,0.692,-3.697,-9.418,0.572,-3.163,12.6,-5.46,-16.45
,-9.179,0.883,-3.515,-9.225,1.005,-3.187,14.84,-5.25,-14.77
19460.0,-9.033,0.943,-3.029,-9.177,0.622,-3.434,16.31,-2.8,-11.48
,-9.572,0.242,-2.919,-8.928,1.68,-3.853,13.72,-2.73,-10.29
,-9.722,-0.261,-2.972,-8.708,2.517,-4.247,16.52,-3.5,-8.05
,-9.471,-0.335,-3.175,-8.641,2.379,-4.276,21.98,-3.85,-6.79
19536.0,-9.002,1.419,-4.322,-8.894,1.302,-4.549,7.14,0.49,-8.61
,-9.232,0.778,-4.477,-8.875,1.486,-4.424,5.74,0.49,-8.33
,-9.043,0.56,-4.503,-9.014,1.271,-4.307,7.07,0.42,-8.54
,-8.854,0.945,-4.623,-9.349,0.648,-4.109,7.56,0.14,-9.1
19612.0,-9.263,0.373,-3.991,-8.397,2.663,-4.049,0.28,-0.77,-8.4
,-9.016,0.459,-4.015,-8.928,2.02,-3.951,4.9,-1.19,-7.21
,-8.808,1.165,-4.097,-9.414,1.23,-3.989,8.12,-1.19,-7.28
,-8.512,2.407,-4.233,-9.411,0.397,-3.821,7.7,-0.21,-8.96
19688.0,-9.268,0.012,-3.824,-9.596,0.33,-3.345,-8.61,3.22,-11.06
,-8.916,0.376,-3.647,-9.488,-0.05,-3.472,-1.19,2.1,-9.31
,-8.811,0.694,-3.563,-9.409,-0.28,-3.611,3.71,1.4,-7.7
,-9.27,0.656,-3.419,-9.22,-0.304,-3.991,5.39,1.4,-6.3
19763.0,-8.808,1.742,-4.101,-9.0,-1.582,-3.635,5.46,2.73,-6.72
,-9.574,1.041,-3.994,-9.883,-0.806,-3.649,-7.07,2.31,-9.03
,-8.703,1.28,-4.003,-9.78,0.668,-3.821,-9.17,1.54,-7.42
,-8.567,0.019,-3.62,-9.009,1.452,-3.927,-9.8,1.68,-5.74
19839.0,-8.514,0.625,-3.611,-8.93,1.137,-3.221,-11.62,-0.42,-8.12
,-9.481,-0.309,-3.307,-8.516,1.347,-3.228,-8.75,-0.28,-5.53
,-10.144,-0.519,-3.089,-9.112,0.732,-3.321,2.03,-0.49,-2.8
,-9.689,0.014,-3.125,-9.505,0.337,-3.527,12.39,-0.35,-0.63
19914.0,-9.012,0.378,-3.714,-8.806,0.861,-4.279,5.32,4.27,-0.7
,-8.988,0.725,-3.896,-8.741,0.916,-4.374,7.63,4.69,-0.21
,-9.153,1.027,-4.128,-8.952,0.876,-4.405,7.35,4.69,0.0
,-9.021,0.981,-4.219,-9.1,0.57,-4.398,5.74,4.41,0.07
19990.0,-9.055,0.337,-4.314,-9.093,0.677,-3.893,5.6,1.89,-1.47
,-9.038,0.371,-4.243,-9.284,0.574,-3.819,6.23,1.33,-1.68
,-9.069,0.615,-4.212,-9.421,0.388,-3.824,5.81,1.26,-1.96
,-8.995,0.751,-4.044,-9.301,0.261,-3.86,3.5,1.33,-2.17
20066.0,-9.182,0.318,-3.9,-9.261,0.481,-3.795,0.56,1.61,-0.49
,-9.055,0.495,-3.946,-9.287,0.23,-3.764,0.91,1.54,0.14
,-9.048,0.617,-3.934,-9.363,0.079,-3.781,0.77,1.4,0.63
,-9.095,0.632,-3.877,-9.351,0.005,-3.819,0.21,1.4,0.91
20142.0,-8.916,0.053,-3.752,-9.229,0.838,-3.57,10.71,-2.03,3.71
,-8.677,0.773,-3.699,-9.141,0.479,-3.687,13.72,-1.68,3.29
,-8.914,1.316,-3.668,-9.072,0.581,-3.848,13.23,-0.91,2.94
,-9.15,1.146,-3.644,-8.988,0.876,-4.032,10.22,0.07,2.31
20217.0,-8.878,1.223,-4.24,-9.198,0.179,-4.082,6.3,3.22,0.77
,-8.947,1.07,-4.221,-9.227,0.467,-4.066,2.03,3.92,0.28
,-9.112,0.469,-4.147,-9.124,0.534,-4.111,-0.84,3.78,0.49
,-9.191,0.144,-4.118,-9.139,0.581,-4.051,0.0,3.22,1.05
20293.0,-9.33,0.529,-3.965,-8.973,0.706,-3.735,2.24,1.19,2.87
,-9.093,0.165,-3.92,-9.098,0.68,-3.731,3.43,0.21,3.36
,-8.971,0.311,-3.9,-9.34,0.503,-3.585,5.81,0.14,3.64
,-9.122,0.735,-3.817,-9.488,0.019,-3.62,7.84,0.14,3.85
20369.0,-9.179,-0.156,-3.766,-8.969,0.995,-3.896,10.99,-0.35,5.11
,-9.026,0.156,-3.872,-9.234,0.763,-3.9,13.86,-0.49,4.97
,-9.026,0.689,-4.003,-9.368,0.431,-3.86,14.28,-0.07,4.76
,-8.897,1.022,-4.037,-9.21,0.096,-3.936,11.97,0.77,3.99
20445.0,-9.124,0.191,-4.073,-8.811,1.385,-4.123,12.88,-0.35,5.6
,-9.038,0.711,-4.243,-9.246,0.802,-4.003,15.26,-0.7,5.95
,-8.825,1.223,-4.369,-9.043,0.565,-3.845,14.98,-0.7,5.53
,-8.677,1.553,-4.257,-8.804,0.809,-3.805,12.39,-0.28,4.55
20521.0,-8.99,1.05,-3.888,-9.399,0.864,-3.731,10.22,0.07,3.78
,-9.076,0.964,-3.884,-9.474,-0.34,-3.668,7.77,0.63,3.08
,-8.825,1.333,-3.977,-9.162,-0.483,-3.707,6.3,1.19,1.96
,-8.789,1.457,-3.888,-8.969,0.567,-3.733,2.94,2.24,0.98
20596.0,-8.768,1.601,-3.862,-9.215,-0.395,-3.936,14.7,0.77,5.53
,-9.012,1.309,-3.867,-9.115,0.275,-4.061,9.31,1.33,4.97
,-9.356,0.024,-3.833,-9.093,0.668,-4.338,4.97,1.61,4.55
,-9.433,-0.794,-3.759,-9.239,0.759,-4.491,7.77,1.19,5.25
20672.0,-9.17,0.498,-4.482,-9.299,0.378,-3.623,9.52,-0.98,7.21
,-9.016,0.01,-4.415,-9.21,0.653,-3.611,8.12,-1.4,7.21
,-9.253,-0.048,-4.049,-9.229,0.684,-3.673,9.24,-1.89,7.49
,-9.335,0.139,-3.821,-9.261,0.83,-3.939,10.99,-2.17,8.4
20747.0,-9.194,0.847,-4.032,-9.016,1.309,-4.322,8.54,-1.96,10.01
,-9.007,0.641,-4.08,-8.928,1.395,-4.374,6.86,-2.1,9.73
,-9.069,0.715,-4.145,-8.882,1.206,-4.379,6.72,-1.96,9.8
,-8.99,0.972,-4.216,-8.894,1.041,-4.312,5.95,-1.96,9.31
20823.0,-8.82,1.201,-4.212,-9.024,0.78,-3.81,-1.96,-2.38,6.16
,-8.851,1.429,-4.142,-9.17,0.467,-3.577,-2.87,-2.03,5.18
,-9.155,1.223,-4.058,-9.139,0.57,-3.436,-5.25,-2.03,4.55
,-9.062,1.027,-3.991,-9.184,0.67,-3.29,-6.16,-1.89,4.27
20899.0,-9.141,0.914,-3.24,-9.215,1.06,-2.728,-1.96,-1.96,3.92
,-9.208,0.986,-3.077,-9.292,0.768,-2.697,-2.03,-1.33,4.06
,-9.155,0.902,-2.927,-9.454,0.503,-2.816,-2.1,-0.28,4.34
,-9.253,0.921,-2.795,-9.311,0.213,-2.843,-0.98,0.84,4.69
20975.0,-9.349,0.254,-3.01,-9.543,0.266,-3.618,-0.98,7.14,5.46
,-9.174,0.656,-3.321,-9.404,-0.278,-3.687,-0.7,8.12,5.74
,-9.095,1.029,-3.506,-9.103,0.335,-3.783,-1.75,9.17,5.95
,-9.246,1.079,-3.537,-8.875,1.261,-3.922,-4.41,9.94,6.58
21050.0,-8.82,1.998,-3.927,-9.225,0.431,-3.786,-0.7,9.52,9.8
,-9.012,1.608,-3.905,-9.232,0.371,-3.63,-8.33,10.29,9.31
,-9.22,0.938,-3.927,-9.39,0.201,-3.549,-12.6,10.43,9.52
,-9.296,0.55,-3.881,-9.404,0.27,-3.513,-12.32,10.43,10.22
21126.0,-9.208,0.524,-3.546,-9.002,1.007,-4.274,-3.57,11.34,15.75
,-9.05,0.627,-3.793,-9.052,1.012,-4.413,-3.29,11.62,16.38
,-9.141,0.907,-3.994,-8.926,1.055,-4.458,-2.73,11.48,17.29
,-8.949,0.986,-4.118,-8.811,1.156,-4.35,-2.94,11.41,18.06
21201.0,-8.933,1.206,-4.314,-8.904,1.577,-4.245,-7.28,10.43,20.72
,-9.131,1.211,-4.369,-9.04,1.393,-4.178,-9.17,10.08,20.93
,-8.801,1.342,-4.398,-9.127,0.833,-3.996,-9.73,9.94,21.21
,-8.763,1.481,-4.319,-9.076,0.574,-3.888,-9.8,9.87,22.19
21277.0,-9.098,0.751,-3.893,-9.095,1.402,-3.91,-13.86,10.92,25.27
,-8.871,1.211,-3.951,-9.012,1.196,-3.932,-13.86,11.62,25.48
,-8.77,1.582,-3.941,-8.875,1.34,-4.156,-15.68,12.46,25.41
,-8.935,1.613,-3.85,-8.796,1.577,-4.271,-17.71,13.72,25.34
21353.0,-8.856,1.732,-4.489,-8.605,1.996,-4.838,-18.9,15.12,28.07
,-8.839,1.699,-4.654,-8.734,1.876,-4.779,-21.63,15.12,28.42
,-8.643,1.79,-4.755,-8.76,1.797,-4.75,-23.24,14.7,28.7
,-8.574,2.01,-4.826,-8.636,1.938,-4.824,-24.43,14.49,29.33
21429.0,-8.54,2.429,-5.008,-8.655,2.534,-4.812,-19.46,8.75,34.51
,-8.533,2.659,-5.205,-8.813,2.412,-4.527,-21.07,7.7,34.86
,-8.461,2.441,-5.157,-8.768,2.556,-4.31,-22.75,6.3,35.63
,-8.447,2.407,-5.049,-8.772,2.986,-4.168,-22.05,4.69,36.89
21505.0,-8.71,3.388,-4.092,-9.241,3.422,-4.357,-16.45,0.98,37.31
,-8.691,3.798,-4.212,-9.22,3.309,-4.29,-17.64,1.75,35.91
,-8.789,4.013,-4.295,-9.172,3.623,-4.314,-20.51,2.38,33.88
,-9.016,3.91,-4.338,-8.947,3.817,-4.384,-24.08,2.52,31.85
21580.0,-8.875,4.089,-4.513,-8.717,3.953,-4.381,-18.62,-1.19,32.48
,-8.72,4.228,-4.441,-8.801,3.609,-4.448,-20.72,-2.38,31.92
,-8.614,3.666,-4.226,-9.086,3.8,-4.566,-22.75,-2.94,31.22
,-8.459,3.877,-4.267,-9.031,4.061,-4.721,-21.98,-3.15,31.22
21656.0,-8.914,4.257,-4.783,-8.2,3.953,-4.568,-21.42,-8.75,27.51
,-8.914,4.286,-4.786,-8.287,3.537,-4.489,-24.29,-9.24,25.13
,-8.78,4.41,-4.87,-8.174,3.503,-4.3,-27.86,-10.08,21.84
,-8.382,4.245,-4.661,-7.865,3.874,-4.216,-32.06,-10.36,18.13
21732.0,-7.617,4.317,-4.262,-7.803,3.987,-3.733,-45.15,-11.83,-1.61
,-7.578,4.448,-4.223,-7.976,3.41,-3.278,-52.01,-10.99,-7.14
,-7.621,4.518,-4.046,-7.999,2.608,-2.96,-60.76,-10.08,-13.16
,-7.645,4.372,-3.915,-7.454,1.263,-2.467,-70.14,-8.82,-18.41
21808.0,-7.609,-0.239,-1.85,-7.526,2.529,-3.9,-90.79,-0.07,-39.83
,-7.696,-1.082,-1.553,-7.901,3.017,-3.656,-77.0,2.8,-41.44
,-8.248,-0.739,-2.302,-7.26,2.922,-3.003,-53.97,6.16,-40.11
,-7.59,1.307,-3.841,-7.059,2.659,-2.123,-30.8,10.01,-39.76
21883.0,-7.542,2.833,-1.857,-9.136,-1.086,-1.637,-16.03,21.56,-67.34
,-8.141,2.764,-2.271,-9.423,-0.845,-1.627,-18.13,24.99,-70.07
,-8.516,0.895,-1.582,-9.189,0.151,-2.134,-28.35,27.72,-69.72
,-8.832,-0.61,-1.409,-8.569,1.613,-2.972,-25.69,28.56,-66.78
21959.0,-8.244,2.242,-3.285,-8.933,2.053,-4.152,60.27,30.52,-49.56
,-8.342,2.362,-3.422,-9.177,1.881,-3.963,62.65,29.82,-48.23
,-8.873,2.273,-3.491,-9.387,2.111,-3.963,63.7,28.35,-45.85
,-8.923,2.276,-3.97,-8.899,2.826,-4.058,65.59,26.39,-44.03
22034.0,-7.844,3.695,-4.618,-8.844,3.479,-5.083,91.0,21.56,-39.9
,-7.681,4.671,-4.901,-8.957,2.424,-5.004,89.25,23.17,-42.35
,-8.021,5.011,-5.212,-9.521,1.692,-5.054,77.98,24.43,-45.85
,-8.55,4.362,-5.147,-9.775,0.869,-4.681,63.49,23.94,-47.74
22110.0,-9.624,0.589,-4.518,-9.203,3.278,-4.726,69.79,5.67,-26.95
,-9.229,0.639,-4.599,-8.985,3.671,-4.817,85.12,1.47,-19.81
,-9.351,1.369,-4.654,-8.61,3.833,-5.025,100.03,-2.24,-13.02
,-9.299,2.458,-4.791,-8.662,4.073,-5.226,110.67,-5.46,-6.79
22186.0,-8.825,4.271,-5.157,-8.521,4.02,-4.724,110.18,-14.84,2.73
,-8.885,4.233,-5.14,-8.476,3.999,-5.001,103.95,-14.7,1.05
,-8.655,4.197,-5.047,-8.153,3.857,-4.752,97.3,-14.56,0.14
,-8.49,4.145,-4.599,-8.078,3.783,-4.721,90.37,-13.86,-1.4
22262.0,-8.196,3.795,-4.726,-8.784,8.94,-4.925,45.15,-14.98,-5.39
,-8.521,3.68,-4.537,-8.801,12.759,-5.085,36.54,-15.75,-6.86
,-8.854,3.666,-4.415,-8.552,12.84,-3.618,28.35,-17.01,-8.12
,-8.844,5.08,-4.774,-9.495,7.865,-2.027,25.62,-17.5,-6.44
22338.0,-9.502,0.955,-2.405,-10.325,1.622,-3.609,-72.24,-9.73,5.32
,-9.533,-2.395,-2.577,-9.567,2.144,-3.841,-45.15,-1.68,2.38
,-10.179,-2.575,-2.85,-9.045,1.225,-3.795,-7.84,2.52,3.01
,-10.345,-0.586,-3.57,-9.462,-0.179,-3.491,21.98,2.73,8.89
22413.0,-9.885,-0.596,-3.453,-9.349,0.175,-3.348,-39.06,8.54,-10.5
,-9.543,-0.845,-3.23,-8.949,1.01,-3.479,-38.22,8.05,-8.61
,-9.186,-1.039,-3.065,-8.674,1.443,-3.546,-28.91,5.95,-3.29
,-9.306,-0.718,-3.185,-8.603,1.407,-3.513,-11.97,3.29,3.22
22489.0,-8.866,1.216,-3.647,-9.167,1.163,-4.188,27.79,3.01,13.37
,-8.957,0.871,-3.659,-9.043,1.405,-4.262,26.95,3.29,11.83
,-9.062,0.761,-3.814,-8.866,1.479,-4.281,26.25,3.92,9.45
,-9.117,0.897,-4.042,-8.789,1.519,-4.324,23.66,4.41,7.0
22565.0,-8.942,1.515,-4.35,-8.978,0.873,-4.482,6.44,6.37,2.8
,-8.966,1.467,-4.436,-8.954,0.749,-4.434,4.41,6.51,2.59
,-8.918,1.323,-4.401,-8.849,0.615,-4.343,2.24,6.51,2.24
,-8.89,1.086,-4.453,-8.952,0.577,-4.264,0.21,6.3,2.24
22641.0,-9.074,0.718,-4.223,-9.021,0.79,-4.094,-2.66,4.97,1.4
,-9.146,0.754,-4.192,-9.036,0.936,-4.156,-2.17,4.27,1.61
,-9.079,0.713,-4.08,-9.043,0.938,-4.113,-1.05,3.64,1.89
,-9.057,0.653,-4.068,-8.993,0.969,-4.097,1.12,3.5,2.24
22716.0,-8.983,0.921,-4.051,-8.988,0.883,-4.216,6.86,2.59,2.59
,-8.985,0.773,-4.063,-8.792,1.003,-4.233,6.3,2.73,2.45
,-9.016,0.694,-4.123,-8.792,1.161,-4.235,6.3,2.59,2.31
,-9.098,0.794,-4.161,-8.966,1.225,-4.226,6.79,2.45,2.52
22792.0,-9.024,1.117,-4.252,-8.993,0.902,-4.176,-1.68,2.87,1.05
,-8.961,1.0,-4.243,-9.009,0.893,-4.197,-2.66,2.87,0.63
,-8.882,0.833,-4.19,-8.926,0.873,-4.159,-2.66,2.8,0.63
,-8.887,0.845,-4.152,-8.985,0.744,-4.209,-1.82,2.73,0.7
22867.0,-9.007,0.775,-4.279,-9.009,0.895,-4.147,2.52,0.98,1.47
,-8.887,0.775,-4.221,-9.036,0.902,-4.14,3.36,1.12,1.47
,-8.875,0.83,-4.171,-9.007,0.864,-4.152,3.22,1.19,1.4
,-8.985,0.854,-4.13,-8.985,0.885,-4.19,2.87,1.12,1.54
22943.0,-9.021,0.988,-4.209,-8.928,0.885,-4.025,1.68,0.84,1.47
,-8.933,0.995,-4.2,-8.971,0.907,-3.958,0.98,0.91,1.26
,-8.88,0.995,-4.089,-8.966,0.873,-4.025,0.07,1.05,1.12
,-8.981,0.995,-4.075,-8.971,0.826,-3.979,-0.49,1.26,1.05
23019.0,-9.0,0.864,-3.977,-8.949,0.766,-4.034,0.56,1.33,0.91
,-8.99,0.864,-3.989,-8.914,0.826,-4.094,0.98,1.61,1.05
,-9.055,0.859,-4.092,-8.892,0.957,-4.039,0.98,1.54,1.05
,-9.06,0.866,-4.039,-8.993,0.998,-3.996,1.26,1.75,1.26
23095.0,-8.954,0.943,-3.977,-8.844,1.029,-4.066,2.38,2.52,1.05
,-8.952,0.861,-3.903,-8.818,1.055,-4.02,2.24,2.66,0.98
,-9.081,0.828,-3.999,-8.856,1.165,-3.951,2.59,2.8,1.19
,-9.076,0.981,-4.156,-8.94,1.163,-3.934,3.15,2.94,1.19
23171.0,-9.024,0.981,-3.996,-9.057,0.699,-3.955,-0.42,4.55,0.14
,-9.103,0.84,-4.094,-9.031,0.723,-3.951,-0.07,4.41,0.07
,-9.112,0.725,-4.101,-9.237,0.778,-4.166,0.63,4.34,0.14
,-9.043,0.67,-4.042,-9.375,1.003,-4.381,1.19,4.2,0.0
23246.0,-9.265,1.196,-4.427,-9.201,1.441,-4.35,4.34,3.57,0.56
,-8.938,1.204,-4.379,-9.323,1.663,-4.417,3.85,3.5,0.28
,-8.792,1.208,-4.269,-9.1,1.811,-4.298,3.01,3.5,0.14
,-8.851,1.201,-4.353,-9.194,1.721,-4.03,3.29,3.64,0.07
23322.0,-9.162,1.634,-3.807,-8.969,1.261,-3.695,7.84,3.01,-1.68
,-9.232,1.575,-3.609,-8.981,2.065,-4.049,9.1,2.59,-1.4
,-9.361,1.366,-3.364,-8.727,3.015,-4.233,11.48,1.75,-0.35
,-8.981,1.062,-3.271,-8.703,3.23,-4.499,14.63,2.17,1.54
23398.0,-9.153,2.74,-4.673,-8.825,3.381,-5.221,1.4,11.41,-2.24
,-8.832,3.132,-5.14,-8.622,2.915,-5.102,-3.15,11.69,-1.96
,-8.26,3.678,-5.331,-8.325,3.47,-5.116,-8.05,12.25,-2.8
,-8.48,3.893,-5.351,-7.834,4.499,-5.202,-15.82,12.74,-4.62
23474.0,-7.669,4.937,-5.434,-8.603,3.771,-5.063,-39.34,6.79,3.22
,-7.724,4.57,-5.413,-8.607,3.568,-4.953,-48.23,5.6,3.99
,-8.011,4.135,-5.159,-8.557,3.441,-4.803,-55.37,5.25,5.25
,-8.287,3.896,-5.016,-8.576,3.393,-4.721,-59.57,5.32,7.42
23549.0,-8.818,3.57,-4.539,-9.036,3.297,-4.568,-53.97,-3.22,24.78
,-8.576,4.061,-4.681,-9.227,3.202,-4.602,-52.01,-4.34,27.09
,-8.294,4.099,-4.633,-8.894,3.094,-4.59,-54.11,-3.43,27.93
,-8.574,3.821,-4.69,-8.839,3.034,-4.496,-59.08,-1.96,28.28
23625.0,-8.902,2.793,-4.472,-9.485,2.132,-4.164,-66.15,1.47,32.55
,-9.289,2.62,-4.465,-9.268,2.17,-4.111,-66.5,1.26,33.18
,-9.471,2.326,-4.429,-8.985,2.324,-4.042,-66.15,0.63,34.37
,-9.445,2.067,-4.326,-8.583,2.568,-4.118,-64.05,-0.28,35.35
23700.0,-8.729,2.826,-4.252,-8.938,1.608,-3.783,-50.05,-0.42,36.12
,-9.105,2.888,-4.245,-8.842,1.742,-3.527,-52.08,-0.28,35.49
,-9.265,2.613,-4.097,-9.033,2.283,-3.671,-54.11,-1.4,35.0
,-9.127,1.962,-3.891,-9.021,2.525,-3.774,-53.13,-2.73,35.42
23776.0,-9.081,2.486,-3.745,-8.988,2.907,-2.505,-28.28,-8.33,38.71
,-8.878,2.654,-3.726,-8.993,2.953,-2.426,-24.99,-10.15,39.13
,-8.703,2.742,-3.321,-8.983,3.285,-2.266,-22.96,-11.62,38.92
,-8.804,2.824,-2.814,-8.619,3.364,-2.197,-22.47,-13.02,38.29
23852.0,-8.567,2.845,-1.785,-7.952,4.295,-2.84,-11.41,-14.84,32.97
,-8.698,2.783,-1.809,-7.882,4.063,-2.85,-8.89,-13.86,32.2
,-8.638,2.965,-1.931,-8.011,3.687,-2.855,-6.23,-12.67,31.64
,-8.296,3.599,-2.3,-8.09,3.266,-2.809,-3.01,-11.13,30.31
23928.0,-8.311,2.704,-2.656,-7.935,3.139,-2.546,-16.66,-7.91,23.45
,-8.303,2.376,-2.785,-8.167,2.845,-2.345,-11.83,-8.82,24.22
,-8.205,2.989,-2.802,-8.155,2.661,-2.142,-4.13,-10.08,24.71
,-7.892,3.415,-2.687,-8.098,2.498,-2.146,-0.07,-10.78,24.92
24003.0,-8.069,2.173,-1.778,-7.751,0.995,-2.367,27.16,-11.69,28.56
,-7.923,2.096,-2.197,-7.246,1.17,-2.989,38.22,-11.76,30.24
,-7.492,1.996,-2.144,-6.557,2.929,-3.618,49.35,-10.85,31.15
,-7.621,1.522,-2.029,-6.43,4.81,-4.212,57.89,-8.96,30.8
24079.0,-6.47,5.456,-4.348,-7.145,3.477,-4.066,81.2,9.59,18.55
,-6.473,5.219,-4.408,-7.528,2.57,-3.874,63.21,12.81,10.15
,-6.655,5.319,-4.398,-7.693,2.319,-4.018,49.35,15.96,2.59
,-7.023,4.791,-4.346,-7.502,2.639,-4.159,35.63,18.76,-4.97
24155.0,-7.839,3.551,-4.616,-8.275,3.013,-4.166,36.26,22.96,-19.11
,-8.011,4.527,-4.874,-8.425,2.551,-4.13,32.9,23.87,-24.99
,-8.009,4.422,-4.69,-8.471,2.895,-4.563,21.63,24.64,-32.76
,-8.241,3.671,-4.322,-8.588,3.553,-4.683,11.55,24.78,-38.22
24231.0,-8.646,3.821,-4.659,-8.801,4.92,-5.733,27.16,19.39,-41.72
,-8.466,4.051,-4.853,-9.17,5.018,-5.877,27.37,17.22,-40.53
,-8.423,4.396,-5.173,-9.304,4.877,-6.312,27.58,15.12,-38.85
,-8.557,4.793,-5.571,-9.493,4.29,-6.406,28.14,13.37,-37.8
24307.0,-9.641,3.412,-6.289,-9.194,2.412,-5.418,14.21,1.75,-39.41
,-9.787,2.041,-6.102,-8.732,3.786,-5.329,15.26,-2.24,-36.47
,-9.804,0.905,-5.712,-8.677,4.25,-5.291,23.52,-6.79,-31.43
,-9.742,1.048,-5.408,-8.758,3.905,-5.3,37.24,-11.2,-25.69
24382.0,-8.674,2.761,-5.183,-9.139,2.132,-4.025,19.95,-13.09,-37.03
,-8.739,1.541,-4.853,-9.05,2.568,-4.161,15.05,-14.07,-36.75
,-8.772,0.873,-4.429,-8.899,1.924,-3.932,19.88,-15.96,-32.27
,-8.997,1.29,-4.216,-8.741,1.39,-3.575,31.29,-17.57,-27.09
24458.0,-9.038,1.029,-3.317,-9.15,1.05,-3.065,25.2,-14.7,-27.02
,-9.423,0.991,-3.075,-9.433,0.694,-3.24,25.97,-14.07,-25.76
,-9.385,1.218,-2.994,-9.497,0.61,-3.496,29.05,-13.65,-24.36
,-9.098,1.163,-3.013,-8.957,1.129,-3.664,31.15,-12.88,-22.89
24534.0,-9.036,1.424,-3.745,-8.526,1.479,-4.379,38.99,-10.5,-16.03
,-9.107,1.338,-3.946,-8.49,2.096,-4.2,36.96,-10.36,-14.63
,-9.117,1.07,-3.958,-8.794,2.13,-4.068,35.63,-10.64,-14.0
,-9.081,0.967,-4.281,-9.165,1.642,-3.807,37.17,-11.41,-13.37
24610.0,-9.172,0.785,-3.671,-8.949,2.027,-4.582,27.23,-8.75,-11.83
,-9.067,0.622,-3.738,-8.976,1.515,-4.633,28.98,-7.77,-11.83
,-8.775,1.424,-4.039,-9.019,0.768,-4.618,30.38,-6.58,-12.25
,-8.794,2.065,-4.377,-9.026,0.447,-4.532,25.83,-5.25,-13.23
24685.0,-8.818,0.677,-4.475,-8.916,1.436,-3.927,10.85,-3.92,-13.23
,-8.756,1.342,-4.384,-9.031,1.182,-3.711,11.13,-3.57,-13.02
,-8.866,1.831,-4.413,-9.016,1.048,-3.419,7.91,-3.43,-13.3
,-8.957,1.792,-4.276,-9.282,0.782,-3.075,2.94,-2.87,-13.72
24761.0,-9.275,0.304,-2.888,-9.241,0.857,-3.242,6.23,-1.82,-9.59
,-9.478,0.026,-2.79,-9.234,0.816,-3.419,8.54,-1.33,-9.03
,-9.337,-0.038,-2.888,-9.002,0.756,-3.601,11.34,-0.49,-8.54
,-9.172,0.495,-3.139,-9.067,0.653,-3.769,13.16,0.49,-8.47
24836.0,-9.241,0.529,-4.063,-9.016,1.493,-4.872,15.54,2.1,-5.04
,-9.196,0.749,-4.329,-9.007,1.297,-4.779,16.59,1.47,-4.76
,-8.715,1.189,-4.652,-8.902,1.173,-4.666,16.87,0.91,-5.04
,-8.681,1.443,-4.748,-8.882,1.338,-4.59,13.72,0.63,-6.02
24912.0,-8.885,1.582,-4.58,-8.942,1.275,-4.243,2.1,0.21,-7.98
,-8.847,1.627,-4.575,-9.167,0.852,-4.027,-2.38,0.35,-9.38
,-8.866,1.531,-4.415,-8.923,0.861,-3.881,-6.09,0.56,-10.15
,-8.847,1.517,-4.432,-8.617,1.244,-3.829,-8.12,0.56,-10.29
24988.0,-8.684,1.383,-3.829,-8.76,0.809,-4.178,-12.18,4.34,-13.23
,-9.155,1.11,-3.975,-8.703,1.244,-3.939,-17.5,5.32,-14.63
,-9.335,0.486,-4.154,-9.227,0.912,-3.745,-19.95,5.11,-14.56
,-9.083,0.12,-4.156,-9.588,0.27,-3.575,-16.73,4.34,-13.23
25064.0,-9.49,0.38,-3.513,-9.177,-4.614,-2.594,-7.0,4.34,-9.17
,-9.411,2.347,-3.967,-9.485,-0.905,-3.058,-0.98,5.95,-5.6
,-8.765,2.268,-4.252,-9.474,2.541,-3.644,-7.35,6.44,-4.83
,-8.26,-2.369,-3.558,-9.832,1.199,-3.69,-15.26,4.69,-6.72
25140.0,-9.43,-0.931,-3.58,-9.0,1.287,-4.099,-24.78,4.83,-12.53
,-9.395,-0.713,-3.793,-8.775,0.615,-3.884,-13.65,4.62,-9.8
,-9.198,0.972,-4.154,-9.182,0.206,-3.877,-4.76,4.9,-7.0
,-9.103,1.452,-4.164,-9.407,0.141,-3.867,-8.12,5.6,-5.88
25215.0,-9.007,0.316,-3.879,-9.06,-0.617,-4.104,-6.58,5.11,-1.54
,-8.871,0.534,-3.977,-8.894,-0.316,-4.31,-3.43,5.18,-1.19
,-9.045,0.534,-4.022,-8.885,0.285,-4.444,-3.43,4.97,-1.12
,-9.227,0.022,-4.085,-8.868,0.653,-4.472,-3.71,4.34,-0.7
25291.0,-8.875,1.074,-4.36,-9.378,-0.031,-3.711,6.79,0.42,-0.77
,-8.693,1.287,-4.207,-9.239,-0.067,-3.79,6.23,0.56,-0.91
,-8.964,1.106,-3.987,-9.048,0.302,-3.862,3.92,1.19,-0.91
,-9.385,0.495,-3.85,-9.129,0.613,-3.982,2.17,1.54,-0.84
25367.0,-9.009,0.768,-4.054,-9.117,0.136,-4.073,8.12,1.68,2.45
,-8.899,0.675,-4.044,-9.009,0.163,-4.063,6.23,1.82,2.38
,-9.139,0.574,-4.051,-8.993,0.378,-4.075,4.9,2.03,2.38
,-9.237,0.321,-4.042,-8.88,0.51,-4.018,4.69,1.54,3.08
25443.0,-9.014,0.543,-3.934,-8.93,0.675,-3.905,9.38,-0.07,3.57
,-9.107,0.476,-3.821,-8.942,0.897,-3.987,10.01,-0.07,3.71
,-9.031,0.378,-3.802,-9.014,0.914,-3.996,11.41,0.0,3.85
,-9.031,0.469,-3.838,-9.289,0.646,-3.879,12.6,0.28,3.92
25518.0,-9.217,0.249,-3.903,-8.914,1.161,-4.14,9.59,1.33,4.62
,-9.16,0.053,-3.922,-8.851,1.295,-4.252,12.46,1.05,5.39
,-9.083,0.278,-3.958,-9.043,1.0,-4.24,16.17,0.35,6.16
,-8.804,0.759,-4.02,-9.196,0.763,-4.135,17.99,0.35,6.37
25594.0,-9.06,0.373,-4.168,-9.0,0.596,-4.154,9.03,1.4,4.41
,-8.935,0.328,-4.145,-9.083,0.519,-4.085,10.92,1.33,4.55
,-8.988,0.663,-4.078,-9.057,0.567,-4.152,12.04,1.26,4.83
,-8.966,0.739,-4.111,-8.744,0.67,-4.08,11.41,1.33,4.62
25669.0,-8.875,0.689,-3.951,-9.019,0.744,-4.073,11.55,1.05,5.04
,-9.062,0.62,-3.884,-8.978,0.723,-4.066,12.67,1.05,5.46
,-9.076,0.558,-3.905,-8.789,0.648,-4.161,13.86,1.26,5.25
,-9.06,0.608,-3.96,-8.959,0.412,-4.135,14.98,1.82,5.04
25745.0,-9.115,0.467,-4.154,-8.835,0.766,-4.353,16.1,1.54,5.81
,-9.014,0.589,-4.137,-8.882,0.225,-4.42,16.87,1.75,5.95
,-9.019,0.581,-4.128,-9.34,-0.251,-4.434,15.96,1.75,5.74
,-8.966,0.761,-4.276,-9.359,-0.168,-4.377,15.4,1.47,5.74
25821.0,-9.005,0.29,-4.391,-8.904,0.292,-4.52,20.02,-0.98,8.61
,-8.904,0.751,-4.444,-9.069,0.44,-4.484,18.13,-1.12,8.26
,-8.949,0.945,-4.451,-9.086,0.548,-4.355,14.21,-1.12,7.63
,-8.923,0.584,-4.597,-9.174,0.16,-4.164,10.71,-1.75,7.14
25897.0,-9.182,0.053,-4.113,-9.253,0.364,-3.632,8.47,-3.36,7.63
,-9.105,0.55,-4.123,-9.129,0.56,-3.515,10.64,-3.36,7.91
,-9.019,0.668,-3.989,-9.103,0.754,-3.47,10.08,-3.15,8.05
,-9.194,0.464,-3.798,-9.129,0.708,-3.537,9.38,-3.01,8.54
25973.0,-9.136,0.4,-3.687,-8.995,1.196,-4.116,10.29,-0.42,9.24
,-9.033,0.428,-3.821,-8.871,0.969,-4.147,10.5,0.14,8.75
,-9.024,0.909,-3.972,-8.854,1.034,-4.156,10.92,0.49,8.33
,-9.026,1.314,-4.056,-9.007,0.945,-4.209,8.82,1.26,7.98
26048.0,-8.957,0.747,-4.317,-8.959,0.799,-3.568,0.77,2.66,7.0
,-8.909,1.015,-4.286,-9.005,0.672,-3.391,1.61,2.59,7.21
,-8.902,1.177,-4.111,-9.146,0.507,-3.331,1.19,2.8,7.35
,-8.93,1.022,-3.86,-9.306,0.146,-3.376,0.42,3.15,7.63
26124.0,-9.347,0.163,-3.484,-8.981,0.701,-4.13,4.97,4.83,7.28
,-9.038,0.641,-3.707,-8.88,0.735,-4.152,7.21,5.32,7.49
,-8.959,0.828,-3.841,-8.959,1.036,-4.326,7.07,5.95,7.7
,-9.11,0.881,-4.015,-9.012,1.067,-4.338,5.46,6.44,7.77
26200.0,-8.882,0.957,-4.314,-9.11,0.969,-3.996,2.24,6.79,8.89
,-8.827,1.036,-4.243,-9.062,0.316,-3.934,1.82,7.07,8.89
,-8.708,1.429,-4.19,-9.093,0.014,-3.786,0.35,7.77,8.4
,-8.839,1.424,-4.168,-9.115,0.407,-3.991,-3.5,8.89,7.49
26276.0,-8.966,1.012,-3.984,-8.914,1.098,-4.535,-4.27,9.52,8.89
,-8.906,0.976,-3.893,-8.5,2.048,-4.817,-6.51,10.22,9.38
,-9.038,0.845,-3.929,-8.507,2.123,-4.731,-8.26,10.78,10.08
,-9.062,0.773,-4.168,-8.789,1.034,-4.614,-8.47,11.27,10.29
26351.0,-9.155,0.065,-4.357,-8.969,1.027,-3.891,-19.81,10.78,11.13
,-9.153,-0.23,-4.195,-8.897,1.326,-3.999,-15.05,10.29,11.83
,-9.062,0.194,-4.037,-8.835,1.402,-4.109,-11.13,10.5,12.67
,-9.083,0.737,-3.967,-8.885,1.17,-4.056,-10.85,10.85,13.09
26427.0,-9.067,0.895,-4.13,-8.813,0.995,-4.499,-19.11,14.49,15.96
,-9.014,0.711,-4.24,-8.607,1.204,-4.494,-18.97,14.77,16.8
,-8.775,0.84,-4.3,-8.536,1.62,-4.398,-18.48,15.05,17.29
,-8.772,1.022,-4.346,-8.684,1.711,-4.156,-18.83,15.33,17.85
26502.0,-8.904,1.512,-4.061,-8.964,1.18,-3.92,-22.33,17.15,20.72
,-8.918,1.141,-4.03,-9.091,1.23,-3.96,-22.12,17.15,21.91
,-8.806,0.926,-4.066,-9.095,1.194,-4.389,-20.86,17.29,22.82
,-8.871,1.039,-4.046,-8.794,1.074,-4.743,-19.46,18.13,23.59
26578.0,-8.521,1.237,-5.09,-8.222,2.235,-6.09,-19.11,20.65,26.04
,-8.579,1.68,-5.41,-8.323,1.931,-5.899,-17.43,19.95,27.16
,-8.488,2.058,-5.877,-8.272,1.974,-5.872,-17.99,18.69,28.0
,-8.265,2.307,-6.104,-8.413,2.067,-5.832,-20.58,17.92,28.0
26654.0,-8.629,2.051,-5.815,-8.366,2.704,-5.504,-26.25,9.38,31.01
,-8.66,1.95,-5.721,-8.478,2.587,-5.329,-26.04,7.7,31.85
,-8.488,2.022,-5.75,-8.528,2.431,-5.145,-24.36,6.02,32.83
,-8.332,2.45,-5.812,-8.617,2.893,-5.013,-22.75,4.48,33.39
26730.0,-8.808,3.352,-4.932,-8.918,3.877,-4.972,-17.78,-0.77,35.35
,-8.854,3.855,-4.917,-8.93,3.475,-4.903,-18.9,-0.56,34.09
,-8.823,4.202,-4.98,-8.899,3.664,-4.793,-22.4,0.07,32.06
,-8.93,4.178,-5.013,-8.842,3.288,-4.709,-27.02,0.49,29.61
26805.0,-8.605,3.084,-4.379,-8.677,3.96,-4.365,-35.91,-0.49,24.85
,-8.543,3.271,-4.343,-8.643,4.235,-4.336,-34.23,-1.05,26.04
,-8.526,3.345,-4.295,-8.614,4.245,-4.085,-32.62,-1.96,26.81
,-8.629,3.606,-4.231,-8.653,4.503,-4.197,-29.82,-3.01,27.51
26881.0,-8.725,4.484,-4.204,-8.373,3.013,-4.054,-30.03,-4.55,24.01
,-8.624,4.03,-4.326,-8.236,3.496,-4.02,-31.64,-4.97,22.75
,-8.744,3.441,-4.154,-8.155,4.231,-4.123,-31.57,-5.74,22.12
,-8.507,2.915,-3.953,-8.172,4.941,-4.401,-27.23,-7.42,23.24
26957.0,-8.157,5.413,-4.532,-7.619,5.063,-4.29,-9.1,-12.88,23.8
,-7.949,5.446,-4.558,-7.796,4.652,-4.188,-13.65,-12.88,21.07
,-7.825,5.446,-4.52,-7.791,4.413,-4.111,-18.97,-12.74,17.71
,-7.703,5.336,-4.515,-7.722,4.348,-4.022,-24.71,-11.9,14.28
27033.0,-7.916,4.212,-4.015,-7.588,0.723,-2.137,-48.65,-4.9,-1.19
,-7.825,3.429,-3.654,-6.947,0.546,-2.185,-54.81,-3.08,-4.83
,-7.717,2.647,-3.149,-6.817,1.261,-2.34,-56.91,-1.54,-8.33
,-7.664,1.852,-2.632,-7.14,1.862,-3.685,-55.93,-0.42,-11.83
27109.0,-6.655,3.465,-4.951,-7.696,-0.019,-2.118,-8.82,18.48,-24.92
,-6.956,3.848,-5.018,-8.43,-0.199,-2.247,-19.18,19.25,-34.44
,-7.174,3.015,-4.563,-8.76,-0.263,-2.4,-30.59,17.43,-41.65
,-7.248,1.582,-3.307,-8.339,-0.526,-2.74,-34.93,15.05,-45.22
27184.0,-8.516,-1.615,-3.228,-8.361,1.433,-3.728,24.5,10.78,-48.02
,-8.725,-2.453,-2.737,-7.724,2.637,-4.109,37.03,8.61,-41.16
,-8.923,-1.603,-2.814,-7.643,3.85,-4.681,58.38,6.3,-34.02
,-8.894,-0.017,-3.262,-7.803,4.771,-4.901,80.92,4.27,-28.28
27260.0,-7.279,6.028,-5.564,-8.15,2.843,-5.377,103.32,6.44,-42.7
,-6.65,6.044,-5.784,-8.768,1.302,-5.169,87.64,10.01,-53.06
,-7.133,5.236,-5.367,-8.861,-0.519,-4.786,65.94,12.95,-61.53
,-7.854,4.252,-5.473,-9.143,-1.07,-4.846,46.83,14.63,-65.52
27335.0,-9.426,0.383,-5.099,-7.499,7.528,-6.473,72.45,6.16,-45.43
,-7.715,4.977,-6.126,-8.421,5.224,-5.951,102.2,6.09,-42.28
,-6.492,8.284,-6.379,-8.787,2.62,-5.932,104.93,9.03,-47.18
,-6.71,8.887,-6.497,-8.777,0.534,-5.214,79.1,10.71,-54.95
27411.0,-8.854,0.038,-5.039,-8.473,3.714,-5.018,19.6,9.38,-46.55
,-8.882,0.981,-5.126,-8.011,4.934,-5.284,40.88,7.42,-38.08
,-8.784,2.204,-4.937,-8.071,5.42,-5.291,54.95,5.74,-31.43
,-8.882,2.785,-4.759,-8.299,4.783,-5.406,62.44,3.71,-25.55
27487.0,-8.636,3.711,-5.535,-8.737,2.943,-5.686,58.24,6.51,-16.03
,-8.806,2.972,-5.492,-8.591,3.317,-5.767,55.65,4.2,-13.72
,-8.88,2.594,-5.707,-8.279,3.142,-5.315,56.0,0.63,-11.06
,-8.696,2.692,-5.719,-8.457,2.733,-5.147,57.26,-2.66,-9.03
27563.0,-8.54,2.867,-4.901,-8.648,8.866,-4.245,36.05,-22.05,-6.16
,-8.332,3.343,-4.623,-10.024,9.643,-3.735,31.99,-24.92,-7.28
,-7.475,5.25,-5.238,-9.485,7.798,-2.58,28.84,-23.94,-9.52
,-7.296,7.583,-4.511,-9.397,5.358,-1.859,12.6,-19.88,-17.5
27638.0,-9.641,1.85,-2.484,-10.325,3.19,-4.81,-45.78,-17.08,11.69
,-10.301,-1.74,-3.223,-8.878,4.963,-5.499,-5.81,-8.61,7.42
,-11.4,-2.103,-3.317,-8.306,3.759,-5.26,33.04,-6.58,4.62
,-11.673,0.168,-3.685,-8.71,0.479,-4.69,60.27,-8.19,8.96
27714.0,-8.976,-2.364,-4.142,-8.66,0.526,-4.125,-80.5,6.44,-16.66
,-9.091,-3.183,-3.862,-8.418,1.656,-4.338,-60.34,3.92,-8.47
,-9.098,-2.197,-3.855,-8.385,2.051,-4.212,-26.67,-0.35,2.03
,-8.894,-0.914,-4.011,-8.483,1.792,-4.185,4.55,-3.78,9.17
27790.0,-8.868,1.441,-4.197,-9.028,1.187,-4.106,10.22,-1.89,5.39
,-9.122,1.0,-4.267,-9.093,1.412,-4.228,3.29,-0.98,2.38
,-9.162,0.672,-4.214,-9.076,1.405,-4.283,1.54,-0.35,0.77
,-9.067,0.866,-4.087,-9.05,1.122,-4.307,4.13,-0.07,0.42
27866.0,-8.894,0.905,-4.252,-8.866,0.723,-4.195,3.57,1.05,1.54
,-8.756,0.826,-4.228,-8.923,0.629,-4.173,2.17,1.4,1.33
,-8.792,0.842,-4.231,-8.878,0.665,-4.2,0.07,1.75,0.84
,-8.882,0.823,-4.216,-8.832,0.766,-4.226,-2.17,1.96,0.77
27942.0,-8.863,0.869,-4.269,-8.938,0.981,-4.216,1.33,1.47,2.1
,-8.873,0.964,-4.271,-8.921,0.869,-4.235,1.4,1.82,1.75
,-8.842,1.007,-4.267,-8.894,0.802,-4.247,0.77,2.17,1.12
,-8.94,0.938,-4.226,-8.839,0.792,-4.319,0.42,2.45,0.63
28017.0,-8.942,0.754,-4.362,-8.878,0.747,-4.415,3.43,2.52,0.63
,-8.947,0.668,-4.336,-8.921,0.852,-4.326,3.92,2.38,0.91
,-8.897,0.637,-4.329,-8.835,0.792,-4.264,4.34,1.96,1.33
,-8.813,0.648,-4.427,-8.878,0.715,-4.24,4.41,2.03,1.68
28093.0,-8.897,0.751,-4.152,-8.988,0.818,-4.379,2.66,2.1,2.1
,-8.973,0.771,-4.173,-8.825,0.797,-4.42,3.5,2.17,2.31
,-9.031,0.787,-4.221,-8.763,0.804,-4.439,4.27,2.17,2.31
,-9.021,0.842,-4.288,-8.827,0.864,-4.453,5.11,2.45,2.31
28168.0,-8.792,0.907,-4.424,-8.866,1.019,-4.532,6.72,2.1,2.8
,-8.82,0.907,-4.463,-8.83,0.988,-4.527,6.02,1.96,2.59
,-8.854,0.926,-4.489,-8.727,0.943,-4.513,5.25,1.82,2.52
,-8.892,0.983,-4.477,-8.701,0.991,-4.456,4.69,1.89,2.59
28244.0,-8.799,1.039,-4.401,-8.806,0.833,-4.166,0.7,1.82,1.61
,-8.842,1.022,-4.355,-8.827,0.883,-4.156,0.0,1.89,1.26
,-8.871,0.919,-4.264,-8.83,0.909,-4.149,-0.56,2.1,0.91
,-8.89,0.873,-4.202,-8.892,0.979,-4.166,-0.28,2.1,0.77
28320.0,-8.93,1.0,-4.264,-8.899,0.912,-4.221,2.31,2.8,0.7
,-8.882,0.94,-4.209,-8.875,0.969,-4.202,2.24,2.8,0.56
,-8.885,0.9,-4.183,-8.859,1.06,-4.156,2.17,3.08,0.42
,-8.868,0.861,-4.214,-8.811,1.113,-4.123,2.73,3.36,0.49
28396.0,-8.727,1.156,-4.044,-8.911,0.991,-4.19,3.5,5.46,-0.42
,-8.751,0.991,-3.936,-8.777,1.046,-4.302,2.52,6.02,-0.84
,-8.873,0.854,-3.91,-8.727,1.089,-4.369,2.03,6.51,-1.33
,-8.995,0.893,-4.034,-8.725,1.125,-4.338,2.59,6.93,-1.54
28471.0,-8.693,1.146,-4.501,-8.789,1.022,-4.8,-0.56,9.94,-3.22
,-8.66,1.23,-4.48,-8.844,1.182,-4.929,-1.89,10.36,-3.92
,-8.866,1.17,-4.578,-8.899,1.735,-5.152,-3.22,10.64,-4.48
,-8.866,1.029,-4.654,-8.973,2.027,-5.195,-4.06,10.36,-4.69
28547.0,-9.026,1.955,-5.083,-9.131,0.486,-3.953,-8.61,9.94,-5.25
,-8.744,1.455,-4.977,-8.71,1.077,-4.2,-12.32,9.73,-5.46
,-9.182,1.278,-4.544,-8.567,1.89,-4.109,-12.11,8.75,-5.74
,-9.201,0.687,-4.212,-8.48,2.479,-4.329,-9.52,6.93,-5.46
28622.0,-8.32,2.355,-4.664,-9.172,1.859,-4.633,-3.99,8.05,-4.69
,-8.521,2.123,-4.755,-9.852,1.855,-4.8,-8.75,10.08,-6.16
,-8.509,2.221,-4.891,-9.031,1.747,-4.721,-12.04,12.53,-7.14
,-8.67,2.28,-4.834,-8.794,1.598,-4.673,-15.96,14.98,-8.47
28698.0,-8.902,2.216,-4.841,-8.727,3.793,-5.097,-17.92,12.67,-1.47
,-8.6,3.178,-5.135,-8.638,3.238,-4.992,-16.1,13.3,-0.77
,-8.385,3.994,-5.116,-8.61,2.907,-4.927,-20.58,14.28,-0.07
,-8.6,4.109,-5.111,-8.512,2.749,-4.929,-29.61,14.14,0.56
28774.0,-8.49,2.778,-5.078,-7.976,4.477,-5.236,-38.43,6.79,12.04
,-8.533,2.943,-5.011,-8.107,4.298,-5.279,-34.02,5.39,15.33
,-8.437,3.551,-5.075,-8.579,3.764,-5.054,-30.17,4.06,18.69
,-8.193,4.168,-5.123,-8.751,3.195,-4.836,-28.84,2.94,20.93
28850.0,-8.679,2.697,-4.714,-8.583,3.415,-4.896,-48.65,-2.1,27.86
,-8.837,2.615,-4.566,-8.765,2.876,-4.812,-45.15,-3.29,30.59
,-8.715,2.979,-4.731,-8.928,2.297,-4.712,-39.97,-4.76,32.62
,-8.49,3.498,-4.843,-8.753,2.338,-4.791,-37.52,-4.41,33.32
28926.0,-8.66,2.831,-4.941,-8.524,3.446,-4.836,-38.08,-3.85,36.89
,-8.603,3.374,-4.783,-8.5,2.783,-4.666,-35.7,-3.22,36.54
,-8.287,3.857,-5.061,-8.739,2.56,-4.511,-36.26,-3.01,35.14
,-8.186,3.829,-5.001,-8.533,2.852,-4.683,-41.09,-2.59,33.04
29001.0,-8.725,2.778,-4.642,-8.349,3.329,-4.649,-41.86,-6.37,38.15
,-8.691,2.977,-4.558,-8.48,2.998,-4.468,-39.27,-6.93,39.06
,-8.215,3.611,-4.846,-8.512,2.58,-4.221,-36.89,-6.79,38.64
,-8.157,3.735,-4.819,-8.516,2.312,-4.288,-38.5,-6.3,37.45
29077.0,-8.708,2.113,-4.147,-8.014,2.728,-3.35,-32.27,-11.41,38.43
,-9.134,2.34,-3.728,-8.057,2.919,-3.403,-24.85,-14.49,40.25
,-8.614,2.96,-3.661,-8.476,3.142,-3.451,-15.12,-17.99,42.21
,-8.071,2.764,-3.431,-8.801,3.211,-3.75,-9.59,-19.39,43.54
29153.0,-8.311,2.867,-4.051,-8.038,3.005,-3.424,0.07,-21.84,44.8
,-8.038,2.601,-3.939,-7.806,2.795,-3.211,3.71,-23.8,44.1
,-8.031,2.735,-3.594,-7.827,2.319,-3.005,9.03,-25.69,43.54
,-8.064,2.979,-3.647,-7.787,2.982,-3.391,12.18,-26.39,42.7
29229.0,-7.332,3.209,-2.886,-7.294,1.689,-2.46,22.61,-26.11,35.98
,-7.727,2.008,-2.072,-6.916,2.472,-2.637,20.65,-24.29,33.67
,-7.913,1.034,-2.441,-7.052,2.371,-2.675,26.67,-22.54,33.81
,-7.679,0.842,-2.462,-7.018,1.991,-2.96,37.8,-20.44,33.6
29304.0,-6.822,1.551,-2.826,-7.078,3.915,-4.405,53.41,-5.25,19.32
,-6.932,1.807,-3.221,-6.729,3.766,-4.807,59.29,-0.77,17.57
,-6.097,3.805,-3.795,-6.872,4.532,-5.056,68.25,5.32,15.05
,-6.54,4.417,-4.149,-7.643,4.592,-5.343,63.91,11.55,8.47
29380.0,-7.851,4.168,-5.437,-7.947,4.994,-5.039,29.05,18.34,-16.94
,-8.04,4.19,-5.008,-8.251,4.614,-5.147,23.38,15.33,-19.04
,-8.035,4.219,-4.637,-8.382,4.152,-4.829,20.93,13.44,-21.35
,-7.882,4.484,-4.719,-8.476,3.877,-4.599,22.75,13.16,-23.38
29455.0,-8.71,3.489,-4.456,-9.421,2.343,-5.008,14.77,8.33,-30.1
,-8.904,3.396,-4.721,-9.313,2.429,-5.2,17.64,7.63,-31.08
,-9.107,3.408,-5.023,-9.146,2.773,-5.341,19.25,6.72,-32.9
,-9.256,2.714,-4.917,-8.94,3.154,-5.451,18.62,5.46,-33.95
29531.0,-8.737,3.218,-5.741,-8.181,3.068,-6.492,20.86,1.26,-42.35
,-8.488,2.955,-5.982,-8.416,2.924,-6.176,15.26,0.0,-44.59
,-8.236,2.871,-6.195,-9.146,3.039,-5.418,11.55,-1.68,-45.71
,-8.122,3.065,-6.42,-10.546,3.948,-4.405,9.59,-4.2,-45.36
29607.0,-11.455,5.48,-3.948,-7.937,0.318,-3.649,33.46,-18.27,-27.44
,-10.61,5.219,-4.097,-8.758,1.323,-3.546,33.67,-17.78,-25.76
,-8.543,3.185,-3.991,-9.33,1.866,-3.271,26.74,-16.38,-26.88
,-7.437,1.117,-3.862,-9.682,1.543,-3.329,22.61,-15.33,-28.21
29683.0,-9.127,1.031,-3.563,-8.72,2.654,-4.164,26.32,-12.32,-31.78
,-8.698,0.802,-3.735,-9.019,1.788,-3.991,29.05,-12.39,-29.75
,-8.662,1.443,-4.106,-9.115,0.658,-3.786,33.81,-12.11,-27.37
,-8.655,2.398,-4.288,-9.112,0.232,-3.649,34.44,-11.41,-26.46
29759.0,-8.957,0.78,-3.676,-9.17,0.641,-3.987,23.38,-9.94,-23.8
,-9.067,1.342,-3.831,-9.095,0.589,-3.91,25.13,-9.38,-22.54
,-9.16,1.409,-3.874,-9.048,1.017,-4.061,22.19,-8.82,-21.42
,-9.095,1.046,-3.893,-8.938,1.498,-4.233,18.69,-8.19,-20.86
29834.0,-8.77,1.898,-4.302,-9.026,0.916,-3.867,18.83,-7.7,-16.87
,-8.784,1.807,-4.293,-9.275,0.543,-3.898,15.75,-7.0,-16.52
,-8.799,1.653,-4.121,-8.981,0.794,-4.013,12.95,-6.02,-16.45
,-8.801,1.395,-3.922,-8.825,1.431,-4.101,11.41,-5.18,-16.66
29910.0,-8.847,1.768,-4.018,-9.564,0.11,-3.463,18.76,-4.55,-12.74
,-9.007,1.371,-3.774,-9.454,0.101,-3.518,14.35,-3.78,-12.67
,-9.282,0.553,-3.491,-9.206,0.278,-3.81,11.41,-3.5,-12.18
,-9.361,-0.05,-3.427,-9.122,0.995,-3.888,13.16,-3.5,-11.34
29986.0,-8.849,1.498,-4.013,-8.418,2.383,-4.688,30.45,-7.7,-4.76
,-8.71,1.96,-4.293,-8.818,1.876,-4.482,28.56,-6.86,-5.04
,-8.763,2.137,-4.508,-9.189,0.988,-4.14,23.66,-5.95,-6.37
,-8.478,2.431,-4.702,-9.158,0.536,-3.929,18.62,-5.46,-8.33
30062.0,-9.122,0.859,-4.068,-8.832,2.142,-4.757,9.31,-3.01,-10.01
,-8.995,1.433,-4.183,-8.454,2.12,-4.819,9.24,-1.89,-10.57
,-8.897,1.541,-4.374,-8.722,1.783,-4.853,4.41,-1.33,-11.62
,-8.89,1.699,-4.547,-8.916,1.464,-4.793,-0.07,-1.05,-12.6
30137.0,-8.741,1.302,-4.724,-9.378,0.835,-3.221,-17.64,0.98,-15.68
,-8.574,1.742,-4.413,-9.49,0.17,-2.948,-16.52,1.26,-15.54
,-8.839,1.732,-3.97,-9.129,-0.486,-2.745,-19.39,2.03,-15.82
,-9.258,1.249,-3.568,-9.074,-0.792,-2.778,-22.33,3.29,-15.75
30213.0,-9.421,-0.79,-2.994,-9.155,-0.486,-3.766,-20.86,6.72,-15.26
,-9.658,-0.553,-3.35,-8.985,0.144,-3.79,-19.67,6.51,-15.33
,-9.462,-0.646,-3.647,-9.483,0.261,-3.762,-20.51,5.81,-14.84
,-9.418,-0.993,-3.652,-9.584,0.172,-3.783,-19.39,4.06,-13.3
30288.0,-9.258,0.251,-3.9,-9.433,-0.244,-3.709,0.07,1.4,-4.76
,-9.009,0.172,-4.003,-9.653,-0.534,-3.482,-0.7,1.19,-5.18
,-8.959,0.187,-3.944,-9.459,-0.426,-3.575,-1.4,0.84,-5.81
,-9.088,0.086,-3.821,-9.28,0.151,-3.632,-2.8,0.7,-5.88
30364.0,-9.311,0.5,-3.611,-9.131,1.689,-3.754,6.37,-1.68,-1.68
,-9.11,0.864,-3.702,-8.796,1.079,-3.776,3.99,-1.47,-2.03
,-9.148,0.792,-3.613,-8.729,-0.244,-3.463,1.96,-0.98,-1.4
,-9.363,1.328,-3.609,-9.131,-0.593,-3.343,4.13,-0.84,0.42
30440.0,-9.203,0.751,-3.654,-9.289,0.244,-4.042,20.86,-1.61,0.21
,-8.873,1.991,-3.881,-9.344,0.373,-4.207,16.38,-0.77,-1.05
,-8.957,1.469,-3.927,-9.335,0.589,-4.252,6.23,0.21,-2.59
,-9.222,0.548,-4.025,-9.244,0.526,-4.288,1.96,0.35,-2.17
30516.0,-9.167,0.38,-4.152,-9.105,0.826,-3.546,7.0,-1.05,2.59
,-8.88,0.747,-4.082,-8.978,0.646,-3.506,7.35,-0.84,2.17
,-8.882,0.957,-3.857,-9.117,0.596,-3.498,5.18,-0.42,1.26
,-9.227,1.0,-3.776,-9.098,0.672,-3.482,2.87,-0.35,1.33
30592.0,-8.935,0.799,-3.427,-9.196,0.498,-3.187,5.74,1.19,1.26
,-9.002,0.715,-3.36,-9.368,0.445,-3.458,2.8,2.1,-0.21
,-9.153,0.67,-3.319,-9.531,0.335,-3.723,0.07,3.08,-1.26
,-9.153,0.629,-3.195,-9.43,-0.124,-3.843,-1.19,3.92,-1.89
30667.0,-9.251,-0.254,-4.171,-9.155,0.919,-4.432,8.54,2.31,2.1
,-8.938,0.648,-4.465,-9.196,0.342,-4.341,13.58,1.82,3.22
,-8.782,1.405,-4.563,-9.055,0.177,-4.212,12.18,1.82,2.8
,-8.961,1.345,-4.518,-8.969,0.471,-4.212,5.81,2.1,1.68
30743.0,-9.024,0.782,-4.154,-9.273,-0.146,-3.743,5.6,-0.84,1.54
,-9.074,0.782,-4.063,-9.306,-0.316,-3.577,3.85,-1.05,1.12
,-9.17,0.538,-3.977,-9.328,-0.182,-3.434,1.89,-1.4,0.84
,-9.287,0.23,-3.817,-9.143,0.239,-3.386,1.68,-1.75,0.91
30819.0,-9.122,0.641,-3.314,-9.143,0.998,-3.135,14.35,-3.15,3.85
,-9.172,0.833,-3.218,-9.052,1.086,-3.142,13.3,-2.52,3.78
,-9.148,0.89,-3.163,-9.067,1.065,-3.144,11.62,-1.75,3.5
,-9.129,0.897,-3.092,-9.093,1.003,-3.163,10.92,-0.7,3.57
30895.0,-9.136,1.046,-3.348,-9.289,0.242,-4.006,9.17,5.11,1.75
,-9.134,0.948,-3.374,-9.095,0.237,-4.245,7.77,5.81,1.26
,-9.198,0.83,-3.439,-8.885,0.589,-4.36,6.51,6.44,1.26
,-9.361,0.543,-3.723,-8.971,0.849,-4.362,6.65,6.3,1.89
30970.0,-8.973,0.983,-4.307,-9.131,0.462,-4.154,8.19,5.53,2.31
,-8.945,1.079,-4.379,-8.93,0.409,-4.137,5.67,5.67,2.17
,-9.002,0.974,-4.343,-8.976,0.646,-4.034,3.78,5.39,1.89
,-9.22,0.73,-4.231,-9.06,1.022,-4.188,3.64,4.76,2.03
31046.0,-9.134,0.806,-3.867,-9.06,0.27,-3.975,5.11,3.85,2.24
,-9.282,0.543,-3.733,-9.1,0.637,-4.025,4.06,3.5,2.66
,-9.318,0.17,-3.764,-9.057,0.804,-4.032,5.04,2.8,3.57
,-9.093,-0.017,-3.898,-9.081,0.775,-4.14,7.56,2.24,3.78
31121.0,-9.002,0.787,-4.106,-9.139,0.562,-4.212,8.19,2.45,3.64
,-8.993,0.711,-4.097,-9.088,0.493,-4.243,7.98,2.52,3.71
,-8.969,0.687,-4.078,-9.103,0.847,-4.214,8.05,2.45,3.85
,-9.11,0.663,-4.142,-8.914,1.302,-4.317,8.26,2.1,4.2
31197.0,-8.145,1.735,-3.946,-9.356,-0.299,-3.331,13.44,0.21,6.23
,-8.684,1.821,-3.685,-8.961,0.756,-4.078,10.99,1.26,6.09
,-9.026,1.742,-3.594,-8.569,1.374,-4.3,8.89,2.17,5.6
,-8.964,0.773,-3.331,-9.275,0.486,-4.156,5.81,3.36,3.99
31273.0,-10.098,-0.821,-4.034,-9.495,-0.244,-4.3,0.7,2.66,5.67
,-9.753,-1.642,-3.888,-9.1,0.727,-4.47,6.02,1.54,7.63
,-9.452,-1.969,-3.855,-8.89,1.177,-4.451,14.63,0.14,9.38
,-9.395,-1.299,-4.097,-9.088,1.132,-4.322,22.4,-1.05,10.85
31349.0,-9.335,0.696,-4.341,-8.851,1.263,-4.082,6.16,-0.63,11.06
,-9.153,0.538,-4.338,-8.892,1.106,-4.034,6.3,-0.84,11.41
,-9.021,0.737,-4.233,-8.892,1.184,-3.96,7.28,-0.7,11.62
,-8.93,1.122,-4.238,-8.756,1.385,-3.9,6.65,-0.35,10.99
31424.0,-8.76,1.443,-3.936,-9.012,1.022,-3.235,-3.78,1.12,5.95
,-8.847,1.405,-3.869,-9.055,1.034,-3.061,-4.83,1.4,5.32
,-8.887,1.144,-3.647,-9.182,0.735,-2.91,-5.46,1.68,4.69
,-8.973,0.976,-3.434,-9.308,0.337,-2.764,-4.9,2.03,4.13
31500.0,-9.28,0.457,-2.97,-9.04,0.787,-3.814,4.62,4.83,4.62
,-9.251,0.337,-3.221,-9.155,0.857,-3.886,6.79,5.67,5.32
,-9.241,0.256,-3.424,-9.196,0.648,-3.872,8.05,5.81,5.39
,-9.024,0.581,-3.659,-9.148,0.574,-3.867,9.17,6.09,5.32
31576.0,-8.94,0.907,-4.133,-8.978,1.106,-4.022,7.49,8.33,7.56
,-8.897,1.027,-4.101,-8.909,0.931,-3.896,5.46,8.61,7.14
,-8.949,1.206,-4.243,-8.988,0.787,-3.668,2.66,8.61,6.79
,-8.99,1.082,-4.171,-9.155,0.503,-3.477,0.35,8.61,6.79
31652.0,-9.337,0.191,-3.496,-9.0,1.137,-3.848,-0.56,10.78,9.17
,-9.172,0.089,-3.367,-9.026,0.799,-3.819,0.14,11.48,9.24
,-9.033,0.529,-3.51,-9.158,0.414,-3.912,1.4,12.18,9.17
,-8.911,1.146,-3.845,-9.27,0.148,-4.03,1.19,12.81,9.24
31728.0,-9.177,0.012,-4.207,-8.641,2.053,-4.57,1.82,13.16,13.79
,-8.976,0.404,-4.372,-8.904,1.484,-4.578,3.57,12.6,14.35
,-8.892,1.005,-4.48,-8.985,0.668,-4.477,3.5,12.88,14.56
,-8.638,1.847,-4.652,-9.007,0.297,-4.482,1.4,13.51,14.63
31803.0,-8.863,0.483,-4.745,-8.859,1.223,-4.477,-5.74,13.65,17.29
,-8.784,1.012,-4.798,-8.825,1.046,-4.458,-4.9,13.65,17.57
,-8.686,1.307,-4.678,-8.875,0.981,-4.52,-7.14,13.65,17.71
,-8.643,1.254,-4.566,-8.792,1.041,-4.48,-10.36,13.72,17.92
31879.0,-8.739,1.228,-4.468,-8.837,1.139,-4.463,-11.48,13.65,21.42
,-8.751,1.335,-4.587,-8.949,0.993,-4.434,-12.67,13.86,21.28
,-8.672,1.426,-4.537,-8.88,0.89,-4.46,-14.56,14.42,21.21
,-8.67,1.376,-4.446,-8.863,1.149,-4.618,-16.73,14.84,21.28
31954.0,-8.681,1.309,-4.561,-8.55,1.424,-5.279,-18.2,16.52,24.08
,-8.83,1.33,-4.724,-8.531,1.857,-5.525,-19.18,16.45,24.5
,-8.76,1.287,-4.913,-8.44,2.312,-5.499,-20.3,15.75,25.48
,-8.696,1.187,-5.032,-8.263,2.795,-5.236,-20.09,15.19,26.67
32030.0,-8.409,2.977,-5.085,-8.689,2.309,-5.353,-24.92,15.68,27.3
,-8.581,2.824,-4.905,-8.55,2.319,-5.463,-29.19,15.54,26.53
,-8.576,2.455,-5.02,-8.559,2.347,-5.422,-31.85,14.77,26.32
,-8.636,2.264,-5.281,-8.67,2.513,-5.453,-31.57,14.14,26.67
32106.0,-8.768,2.548,-5.504,-8.617,2.974,-4.599,-27.09,7.84,29.4
,-8.734,2.577,-5.403,-8.827,4.123,-4.786,-25.97,6.23,30.17
,-8.691,2.675,-5.197,-8.368,4.666,-4.518,-23.73,5.04,31.5
,-8.507,3.08,-4.951,-8.16,4.034,-4.599,-20.79,4.48,32.2
32182.0,-8.691,4.393,-4.74,-9.258,2.235,-4.188,-21.98,5.18,30.59
,-8.906,4.262,-4.721,-8.713,3.063,-4.183,-29.05,5.67,29.12
,-8.813,3.247,-4.594,-8.294,3.915,-4.171,-34.79,5.46,27.86
,-9.201,2.302,-4.252,-8.071,4.145,-4.446,-34.09,5.11,27.3
32257.0,-7.942,3.898,-4.506,-8.112,4.721,-5.126,-26.6,4.97,24.71
,-7.854,3.683,-4.623,-8.37,4.525,-5.288,-28.21,4.69,24.01
,-7.904,3.891,-4.709,-8.631,3.635,-5.183,-26.95,4.2,23.8
,-7.854,4.413,-4.92,-8.612,3.039,-5.276,-25.2,3.64,22.96
32333.0,-8.471,3.149,-5.121,-8.076,3.259,-4.346,-26.32,-4.62,21.21
,-8.155,3.558,-5.092,-7.885,3.309,-4.075,-21.28,-6.79,22.05
,-8.031,3.692,-4.867,-7.71,3.568,-3.987,-19.32,-8.33,22.05
,-8.145,3.36,-4.609,-7.566,3.884,-4.063,-19.32,-9.1,21.56
32409.0,-7.526,3.958,-4.267,-7.31,4.118,-4.456,-15.82,-10.22,13.16
,-7.71,3.917,-4.355,-7.097,4.448,-4.611,-19.6,-9.52,9.52
,-7.739,3.912,-4.458,-7.255,4.501,-4.791,-22.05,-8.75,5.81
,-7.437,3.984,-4.465,-7.145,4.558,-4.97,-24.57,-7.7,1.96
32485.0,-6.712,4.092,-5.051,-7.148,2.261,-4.279,-58.66,0.98,-20.44
,-6.947,2.826,-4.819,-7.44,2.728,-4.209,-70.28,2.24,-25.69
,-7.385,1.953,-4.554,-6.944,2.682,-3.245,-73.85,1.75,-29.68
,-7.241,1.876,-4.441,-7.296,2.139,-1.922,-71.05,0.42,-32.9
32561.0,-7.545,1.546,-1.833,-8.368,1.314,-2.625,-51.52,0.91,-49.77
,-7.777,1.699,-2.651,-7.935,1.019,-2.606,-38.78,5.88,-49.98
,-7.937,1.945,-3.228,-8.234,0.428,-2.905,-29.33,10.15,-53.76
,-8.296,1.687,-3.108,-8.748,0.055,-2.891,-25.62,11.48,-58.31
32636.0,-8.6,1.302,-3.19,-8.059,2.228,-3.403,18.13,14.7,-53.13
,-7.851,3.494,-3.41,-8.72,1.232,-3.369,26.18,17.29,-55.72
,-7.672,4.53,-3.489,-9.215,1.393,-3.087,21.84,20.3,-58.31
,-7.645,3.721,-3.398,-8.428,3.455,-3.594,9.87,23.1,-58.66
32712.0,-7.509,4.24,-3.766,-8.796,3.36,-5.095,46.69,28.0,-49.84
,-7.961,3.955,-3.853,-8.624,3.431,-5.2,45.71,28.07,-50.19
,-8.277,3.288,-4.145,-8.959,3.159,-5.032,43.75,27.79,-48.72
,-9.005,2.917,-4.594,-8.978,2.544,-4.692,45.22,27.3,-46.34
32787.0,-9.024,1.986,-4.592,-8.839,2.996,-4.606,58.17,19.88,-37.24
,-9.189,1.402,-4.683,-8.22,4.511,-4.692,62.93,18.34,-33.18
,-9.6,1.029,-4.578,-7.988,5.377,-5.056,69.44,16.94,-28.63
,-9.868,1.515,-4.355,-8.27,5.157,-5.073,82.18,14.56,-22.68
32863.0,-8.703,4.307,-5.274,-8.691,2.718,-5.276,78.12,11.48,-21.84
,-8.823,3.417,-5.255,-8.72,3.195,-5.24,71.68,11.48,-21.07
,-8.887,2.965,-5.193,-8.454,3.888,-5.25,70.7,10.08,-19.32
,-8.751,2.809,-5.413,-8.227,4.503,-5.142,72.73,8.47,-17.22
32939.0,-8.047,4.408,-5.092,-8.315,2.977,-5.269,64.19,3.15,-14.91
,-8.241,3.912,-5.262,-8.145,2.888,-4.937,54.95,2.59,-15.96
,-8.385,3.534,-5.3,-8.72,2.436,-4.683,47.74,1.47,-15.89
,-8.469,3.178,-5.095,-8.689,2.237,-4.932,42.21,0.0,-16.03
33015.0,-8.184,2.235,-4.846,-9.019,2.972,-4.728,28.98,-10.5,-7.98
,-8.193,2.393,-4.939,-9.447,4.018,-4.819,29.54,-12.74,-6.44
,-8.277,2.536,-4.776,-9.44,6.42,-5.006,29.05,-14.0,-5.25
,-8.689,2.565,-4.652,-8.83,8.598,-4.695,26.67,-16.24,-4.48
33090.0,-8.32,8.291,-4.822,-8.662,-2.477,-4.36,1.68,-16.66,11.69
,-8.382,4.463,-4.283,-8.289,-0.144,-4.527,-20.02,-12.81,10.5
,-9.167,0.105,-4.434,-8.296,2.206,-4.561,-25.48,-10.57,10.08
,-9.318,-2.362,-4.3,-8.382,2.8,-4.542,-7.28,-10.15,12.74
33166.0,-8.847,1.656,-4.183,-9.636,0.711,-4.535,16.52,-11.97,14.0
,-9.107,-0.505,-3.955,-9.107,2.259,-4.446,3.78,-11.2,8.33
,-9.476,-1.807,-4.133,-9.136,2.639,-4.355,4.55,-11.06,3.92
,-9.832,-1.17,-4.35,-9.356,2.273,-4.212,11.69,-11.13,0.7
33242.0,-9.337,1.591,-4.068,-8.753,1.761,-3.819,-7.49,-6.44,3.64
,-9.143,1.0,-3.843,-8.732,1.855,-3.857,1.75,-6.65,6.51
,-9.043,0.871,-3.877,-8.854,1.496,-3.824,13.02,-6.37,8.68
,-8.83,1.285,-3.92,-8.923,0.893,-3.939,20.93,-5.81,9.03
33318.0,-9.007,0.469,-3.975,-8.856,0.854,-4.054,-2.31,1.19,-1.89
,-8.964,0.349,-3.994,-8.904,0.849,-4.051,-0.56,1.82,-1.75
,-8.909,0.486,-4.025,-8.918,0.845,-3.932,2.1,1.96,-1.26
,-8.782,0.704,-4.092,-8.981,0.668,-3.886,3.57,2.17,-1.05
33393.0,-9.15,0.526,-3.917,-8.813,0.876,-4.396,0.63,3.99,-0.7
,-9.079,0.447,-3.979,-8.859,0.873,-4.544,2.66,3.92,-0.14
,-8.938,0.617,-4.121,-8.89,0.684,-4.597,5.18,4.13,0.49
,-8.825,0.835,-4.271,-8.835,0.646,-4.759,6.58,4.41,0.49
33469.0,-8.851,0.67,-4.769,-8.801,0.727,-4.846,4.06,3.29,-0.42
,-8.827,0.78,-4.882,-8.827,0.627,-4.788,4.55,2.8,-0.35
,-8.748,0.818,-4.965,-8.837,0.553,-4.685,4.48,2.1,-0.21
,-8.681,0.806,-4.879,-8.928,0.615,-4.58,3.99,1.82,-0.28
33545.0,-8.902,0.677,-4.523,-9.002,0.995,-4.228,5.46,-0.42,0.56
,-8.806,0.744,-4.436,-8.911,0.84,-4.212,5.18,-0.84,0.56
,-8.842,0.84,-4.338,-8.942,0.727,-4.324,4.55,-0.91,0.42
,-8.861,0.952,-4.279,-8.904,0.751,-4.408,3.64,-0.63,0.21
33620.0,-8.815,0.838,-4.427,-8.866,0.653,-4.386,2.8,0.0,0.14
,-8.811,0.842,-4.41,-8.868,0.701,-4.384,2.45,0.0,0.0
,-8.861,0.785,-4.491,-8.923,0.692,-4.372,1.54,-0.14,-0.21
,-8.897,0.751,-4.468,-8.928,0.66,-4.413,0.7,0.07,-0.28
33696.0,-8.904,0.718,-4.422,-8.837,1.027,-4.19,1.47,-0.56,0.28
,-8.89,0.708,-4.398,-8.863,0.897,-4.212,1.75,-0.56,0.42
,-8.873,0.701,-4.386,-9.033,0.553,-4.118,1.68,-0.77,0.35
,-8.78,0.905,-4.298,-9.009,0.426,-4.094,1.96,-0.7,0.42
33772.0,-8.921,0.57,-4.152,-8.988,0.615,-4.214,1.89,0.21,0.35
,-8.842,0.694,-4.2,-8.904,0.598,-4.212,2.24,0.42,0.28
,-8.971,0.725,-4.209,-8.835,0.639,-4.159,1.19,0.56,0.07
,-8.938,0.651,-4.245,-8.899,0.663,-4.2,0.35,0.7,-0.07
33848.0,-8.938,0.778,-4.223,-8.914,0.577,-4.436,1.19,0.91,0.63
,-8.966,0.763,-4.202,-8.882,0.531,-4.441,1.26,1.19,0.7
,-9.045,0.68,-4.262,-8.844,0.684,-4.511,1.4,0.84,0.77
,-9.009,0.562,-4.391,-8.837,0.785,-4.446,2.1,0.77,1.19
33923.0,-8.966,0.782,-4.353,-8.868,0.797,-4.161,3.43,-0.14,1.68
,-8.897,0.684,-4.314,-8.835,0.89,-4.142,3.22,-0.14,1.68
,-8.875,0.572,-4.298,-8.892,0.96,-4.109,3.43,-0.21,1.82
,-8.906,0.663,-4.238,-8.954,0.83,-4.037,4.55,-0.42,1.96
33999.0,-9.0,0.66,-3.989,-8.973,0.708,-4.063,3.43,0.77,1.26
,-9.088,0.567,-3.982,-8.806,0.773,-4.044,4.62,0.7,1.54
,-8.995,0.56,-4.013,-8.83,0.842,-4.025,5.88,0.84,1.89
,-9.016,0.629,-4.099,-8.904,0.881,-4.027,7.0,0.84,2.24
34075.0,-8.945,0.794,-4.042,-8.832,0.756,-4.401,5.32,2.52,1.54
,-8.973,0.79,-4.154,-8.863,0.785,-4.398,5.39,2.87,1.54
,-8.914,0.799,-4.235,-8.863,0.818,-4.453,5.74,3.15,1.4
,-8.878,0.759,-4.338,-8.959,0.818,-4.456,6.09,3.15,1.33
34151.0,-8.796,0.794,-4.348,-9.076,0.756,-4.176,3.71,3.57,0.56
,-8.758,0.799,-4.19,-9.098,0.869,-4.329,3.15,3.99,0.35
,-8.868,0.747,-4.147,-8.799,1.007,-4.365,3.01,4.13,0.21
,-8.952,0.708,-4.109,-8.459,0.948,-4.185,3.22,4.27,0.0
34226.0,-8.598,0.943,-4.142,-9.179,1.374,-4.599,0.84,6.58,-1.75
,-8.942,1.034,-4.123,-9.423,2.149,-5.059,-0.07,7.21,-2.31
,-8.942,1.244,-4.109,-9.765,2.615,-5.334,-1.4,7.91,-2.87
,-8.899,1.139,-4.207,-8.744,2.106,-5.451,-2.8,8.54,-3.43
34302.0,-9.746,1.405,-4.762,-8.26,4.453,-4.721,-9.73,4.55,-3.78
,-9.782,0.084,-4.235,-8.38,6.171,-5.403,-2.31,-1.19,-0.84
,-8.547,0.184,-3.764,-8.33,6.585,-5.224,9.17,-2.45,2.1
,-8.406,1.989,-4.226,-8.557,5.492,-5.451,19.81,-0.07,2.45
34378.0,-8.555,3.747,-5.439,-7.621,5.016,-4.769,-60.9,21.77,-16.73
,-9.639,1.491,-4.57,-8.071,6.037,-4.724,-66.22,20.72,-15.54
,-9.691,1.503,-4.752,-8.064,5.994,-4.757,-56.28,17.92,-7.84
,-8.39,3.096,-4.678,-8.181,5.705,-4.491,-41.72,16.8,1.89
34453.0,-7.976,5.709,-4.726,-9.691,3.3,-4.944,-62.65,17.57,17.08
,-8.198,5.106,-4.838,-9.464,2.723,-4.688,-69.02,18.97,18.69
,-8.603,4.597,-4.994,-8.983,2.737,-4.671,-73.08,19.95,20.37
,-9.418,4.078,-4.944,-8.658,3.635,-4.946,-74.48,19.32,23.1
34529.0,-8.799,4.568,-5.183,-8.959,3.757,-5.26,-47.18,10.08,43.12
,-8.945,4.944,-5.377,-8.892,3.515,-5.229,-52.64,9.03,43.05
,-9.083,4.458,-5.317,-8.959,3.096,-5.248,-61.6,7.84,43.47
,-9.206,3.946,-5.207,-9.313,2.647,-4.903,-67.48,6.51,45.01
34605.0,-9.71,2.374,-4.968,-8.741,2.352,-4.173,-69.09,-1.82,50.12
,-9.564,1.955,-4.838,-8.811,2.52,-4.116,-64.47,-5.6,52.92
,-9.349,1.78,-4.556,-8.847,2.575,-4.046,-57.68,-9.31,55.3
,-8.976,2.058,-4.439,-8.739,2.728,-4.025,-48.65,-12.11,56.63
34681.0,-8.483,2.422,-4.008,-8.184,2.218,-3.872,-34.09,-23.52,56.7
,-8.614,1.656,-3.656,-8.05,2.345,-4.006,-33.95,-25.41,55.3
,-8.768,1.278,-3.79,-8.244,2.115,-3.929,-29.05,-27.02,55.65
,-8.425,1.584,-3.75,-8.332,2.113,-3.903,-20.51,-28.28,56.49
34756.0,-8.208,2.094,-3.594,-7.373,2.812,-3.534,-14.42,-34.65,47.6
,-8.002,2.436,-3.475,-7.688,2.101,-2.95,-13.51,-35.0,44.45
,-7.99,2.778,-3.719,-8.066,1.519,-2.735,-15.19,-34.93,40.67
,-7.801,3.077,-3.752,-7.964,1.797,-2.733,-18.97,-34.79,36.96
34832.0,-7.435,2.371,-2.821,-7.758,0.019,-1.711,-13.93,-32.9,21.84
,-7.456,2.316,-2.618,-7.59,0.4,-1.682,-12.88,-31.22,18.62
,-7.861,1.563,-2.596,-7.152,0.988,-1.677,-11.83,-31.01,16.45
,-7.712,0.531,-2.029,-6.796,2.204,-2.716,-4.97,-31.71,16.1
34908.0,-5.788,3.836,-3.403,-6.391,4.396,-3.829,62.09,-9.66,11.9
,-6.207,4.159,-3.757,-6.815,5.705,-3.96,55.72,1.19,5.11
,-6.753,3.24,-3.673,-7.708,4.762,-4.006,45.01,8.89,0.0
,-6.674,3.092,-3.738,-8.327,3.532,-3.585,44.87,14.98,-1.89
34984.0,-8.827,3.257,-3.295,-8.251,5.317,-3.197,33.18,26.81,-15.54
,-8.607,4.305,-3.278,-8.303,3.924,-3.486,39.55,23.73,-17.01
,-8.768,5.887,-3.139,-8.378,3.084,-3.898,39.06,22.96,-18.97
,-8.449,6.157,-2.946,-8.088,3.513,-4.427,29.54,24.15,-21.49
35059.0,-7.755,4.329,-4.657,-7.868,2.838,-4.731,42.14,20.3,-20.93
,-7.619,4.477,-4.726,-7.775,3.793,-5.042,39.13,19.11,-21.21
,-7.669,3.618,-4.661,-7.822,4.937,-5.092,34.3,17.64,-21.49
,-7.897,3.065,-4.602,-7.99,5.41,-5.231,36.4,15.61,-21.7
35135.0,-8.227,5.987,-5.52,-9.725,1.922,-5.817,22.68,13.79,-39.55
,-8.583,6.832,-5.963,-9.5,2.412,-5.76,9.45,14.56,-46.97
,-9.095,5.602,-6.119,-9.495,3.214,-5.542,-10.01,13.93,-52.15
,-9.34,2.687,-5.944,-9.363,3.163,-5.363,-20.72,11.55,-53.2
35210.0,-9.146,3.36,-5.145,-10.002,2.857,-4.094,15.89,-4.83,-36.61
,-9.129,3.539,-4.779,-9.476,1.804,-4.001,16.31,-6.02,-35.56
,-9.447,3.388,-4.389,-8.914,1.151,-4.135,16.03,-6.65,-36.26
,-9.876,3.302,-4.212,-8.605,1.364,-4.307,15.54,-6.51,-38.08
35286.0,-8.638,2.003,-4.537,-8.904,1.101,-4.142,36.33,-8.61,-30.31
,-8.792,2.429,-4.594,-8.698,1.615,-3.912,36.96,-8.61,-31.08
,-8.741,2.218,-4.625,-8.677,2.223,-3.857,32.41,-9.03,-32.2
,-8.756,1.517,-4.257,-8.949,2.072,-3.74,27.51,-9.94,-32.27
35362.0,-9.251,1.591,-3.558,-9.725,0.096,-3.099,28.56,-9.94,-26.88
,-9.253,0.876,-3.12,-9.299,0.526,-3.285,25.97,-9.45,-25.83
,-9.206,0.132,-2.881,-9.347,0.684,-3.396,25.97,-9.17,-24.43
,-9.667,-0.091,-2.814,-9.177,0.644,-3.52,30.17,-9.03,-22.12
35438.0,-8.966,0.952,-3.719,-9.012,1.491,-4.092,36.61,-7.42,-15.89
,-9.043,1.543,-3.939,-8.746,1.642,-4.228,35.63,-7.21,-14.98
,-8.878,1.457,-3.934,-8.641,2.056,-4.446,33.25,-6.72,-13.93
,-9.019,1.402,-3.965,-8.6,2.637,-4.482,31.64,-6.09,-12.67
35514.0,-8.662,2.802,-4.843,-8.909,0.718,-4.367,14.49,-0.7,-16.1
,-8.782,2.056,-4.939,-9.024,1.285,-4.176,3.92,0.0,-17.29
,-8.885,0.94,-4.788,-9.261,1.237,-4.032,-2.1,0.49,-17.64
,-8.849,0.28,-4.508,-9.225,0.637,-3.745,-0.98,0.49,-17.08
35589.0,-9.418,-0.153,-3.556,-8.528,2.144,-4.061,2.8,-0.91,-12.6
,-9.304,-0.567,-3.592,-8.832,1.713,-4.133,9.94,-1.68,-10.29
,-9.301,0.184,-3.951,-9.055,1.072,-4.125,19.18,-2.38,-9.03
,-8.782,1.46,-4.037,-8.971,1.117,-4.18,23.87,-2.45,-9.1
35665.0,-8.658,1.589,-4.293,-9.131,1.369,-3.661,13.86,-1.61,-10.36
,-8.844,1.74,-4.36,-9.409,0.787,-3.372,10.5,-1.12,-10.71
,-8.904,1.73,-4.252,-9.177,0.349,-3.175,6.09,-0.35,-10.85
,-8.887,1.488,-3.955,-8.954,0.462,-3.374,3.22,0.7,-11.2
35741.0,-8.892,0.802,-3.716,-8.926,1.024,-4.805,1.47,5.11,-12.81
,-8.997,1.003,-4.082,-9.148,0.794,-4.932,-1.82,5.95,-13.51
,-8.83,1.005,-4.46,-9.088,1.012,-4.848,-5.18,6.16,-13.93
,-8.918,1.055,-4.712,-8.382,1.299,-4.683,-7.14,6.09,-13.65
35817.0,-8.562,1.326,-4.575,-9.299,0.208,-3.982,-8.54,3.15,-13.02
,-9.055,1.201,-4.317,-9.332,-0.022,-3.939,-10.57,3.08,-13.02
,-9.115,0.749,-4.104,-9.134,0.062,-3.948,-11.62,3.15,-12.95
,-9.107,0.469,-3.939,-9.225,0.017,-3.92,-11.41,3.29,-13.02
35892.0,-9.323,-0.041,-4.034,-7.215,-0.043,-4.759,-2.66,1.33,-8.54
,-9.186,1.127,-4.101,-8.425,-4.477,-2.891,0.77,0.98,-8.12
,-9.758,2.788,-3.915,-9.057,-1.893,-2.833,-0.7,1.19,-6.09
,-8.748,3.896,-4.956,-9.782,2.647,-3.417,-1.68,2.8,-0.49
35968.0,-9.887,1.417,-3.171,-9.277,1.156,-3.649,-6.44,0.91,-9.66
,-10.0,-2.079,-2.606,-8.885,1.393,-3.86,-16.66,1.89,-9.31
,-9.883,-2.453,-2.797,-9.074,1.055,-4.046,0.21,1.89,-6.44
,-9.605,-0.383,-3.266,-9.234,0.89,-4.298,16.03,2.24,-3.29
36043.0,-8.825,0.658,-4.346,-8.815,0.625,-4.573,-4.55,5.6,-0.14
,-8.674,0.689,-4.501,-8.839,0.464,-4.518,-0.07,5.04,1.54
,-8.703,0.979,-4.568,-8.856,0.447,-4.42,4.2,4.48,2.8
,-8.67,0.936,-4.544,-8.921,0.39,-4.307,5.39,3.71,2.73
36119.0,-9.021,0.495,-4.279,-9.265,0.33,-4.104,3.64,1.54,-1.19
,-8.988,0.668,-4.262,-9.256,-0.024,-4.142,5.04,1.12,-0.91
,-8.959,0.706,-4.192,-9.167,-0.153,-4.07,5.67,0.98,-0.77
,-9.043,0.656,-4.171,-8.945,0.258,-4.018,5.53,0.91,-0.49
36195.0,-8.918,0.534,-4.082,-9.002,0.761,-4.204,10.78,-0.07,2.73
,-9.119,0.574,-4.137,-9.177,0.794,-4.188,9.45,-0.14,3.15
,-9.06,0.55,-4.214,-9.263,0.617,-4.25,9.1,-0.28,3.57
,-8.933,0.665,-4.204,-8.887,0.407,-4.259,9.59,-0.49,3.78
36271.0,-8.71,0.739,-4.161,-9.076,0.158,-3.678,9.24,-2.03,3.22
,-8.926,1.062,-4.046,-9.136,0.397,-3.666,7.0,-1.33,1.82
,-9.067,0.871,-3.903,-9.0,0.672,-3.764,2.38,-0.77,0.84
,-9.172,0.376,-3.716,-9.038,0.644,-3.814,0.28,-0.42,0.63
36347.0,-9.036,0.471,-3.805,-9.237,0.261,-3.924,8.82,0.56,2.94
,-9.225,0.491,-3.764,-9.069,0.462,-4.073,10.78,0.77,3.43
,-9.268,0.309,-3.743,-8.811,0.682,-4.259,12.95,0.42,4.62
,-9.103,0.148,-3.778,-8.969,0.926,-4.298,14.98,0.21,5.11
36422.0,-8.961,1.034,-4.334,-8.722,0.768,-4.279,17.57,0.0,5.39
,-9.021,0.818,-4.326,-8.868,0.952,-4.283,15.68,-0.49,5.32
,-8.993,0.869,-4.346,-8.823,1.05,-4.145,15.75,-0.98,5.25
,-8.835,0.792,-4.283,-9.162,0.747,-4.08,15.61,-1.47,5.32
36498.0,-9.131,0.895,-4.212,-9.363,-0.428,-3.273,9.8,-0.7,3.22
,-8.674,0.921,-4.056,-9.517,-0.608,-3.173,9.8,-0.63,3.57
,-8.739,0.586,-3.872,-9.366,-0.246,-3.424,9.45,-0.63,3.71
,-9.251,0.215,-3.609,-9.261,0.081,-3.793,11.06,-0.21,4.27
36574.0,-8.854,0.646,-4.3,-9.129,0.397,-4.334,26.32,-1.4,7.49
,-8.519,1.407,-4.47,-8.935,0.323,-4.441,25.13,-0.91,6.58
,-8.693,1.512,-4.637,-8.72,1.074,-4.614,19.81,-0.21,5.95
,-9.074,1.041,-4.535,-8.837,1.158,-4.666,13.93,-0.07,5.67
36650.0,-8.966,1.05,-4.774,-9.304,-0.256,-4.295,6.65,-0.63,3.85
,-8.885,1.043,-4.75,-9.217,-0.287,-4.204,4.69,0.07,3.22
,-8.978,0.881,-4.518,-9.081,-0.168,-4.271,1.89,0.28,2.31
,-9.27,0.366,-4.367,-9.098,0.179,-4.183,-1.47,-0.07,2.24
36725.0,-9.007,0.766,-4.075,-9.141,0.194,-3.869,6.37,-2.87,4.9
,-9.038,0.979,-3.91,-9.1,0.447,-3.967,3.85,-2.45,4.41
,-9.134,0.833,-3.798,-9.232,0.464,-3.941,0.35,-1.96,4.2
,-9.234,0.424,-3.786,-9.237,0.438,-3.898,-0.56,-1.89,4.2
36801.0,-9.091,0.646,-3.752,-8.921,0.952,-3.888,3.57,-1.68,5.81
,-9.076,0.648,-3.774,-8.959,1.175,-4.027,2.52,-1.26,5.6
,-9.189,0.684,-3.831,-9.05,0.988,-3.982,1.26,-0.98,5.32
,-9.088,0.861,-3.881,-9.081,0.675,-3.862,0.49,-0.35,5.18
36876.0,-9.155,0.66,-3.795,-9.117,0.742,-3.798,-4.55,0.84,3.92
,-9.079,0.562,-3.786,-8.971,0.833,-3.793,-3.5,0.77,3.78
,-8.99,0.778,-3.702,-8.875,1.036,-3.81,-2.31,1.05,3.71
,-9.1,0.852,-3.766,-9.012,0.967,-3.836,-2.1,1.19,3.57
36952.0,-9.124,0.771,-3.857,-8.983,0.847,-3.865,-3.57,2.17,2.59
,-9.074,0.615,-3.819,-8.926,0.766,-3.685,-3.01,2.1,2.66
,-9.167,0.603,-3.829,-8.976,1.041,-3.664,-1.33,2.03,3.08
,-9.11,0.826,-3.951,-8.969,1.156,-3.534,0.42,1.89,3.36
37028.0,-9.076,1.034,-3.448,-9.332,0.287,-3.204,-4.62,4.76,1.75
,-9.17,0.993,-3.542,-9.325,-0.27,-2.864,-6.65,5.81,1.4
,-9.026,0.866,-3.458,-9.481,-0.503,-2.804,-7.7,6.58,1.47
,-9.229,0.555,-3.372,-9.651,-0.443,-2.745,-7.35,7.0,2.52
37104.0,-9.454,-0.091,-3.046,-9.031,0.955,-4.24,2.52,10.08,7.35
,-9.05,0.648,-3.434,-8.916,0.72,-4.587,3.57,10.85,7.77
,-8.837,1.022,-3.747,-8.863,0.747,-4.511,2.52,11.62,8.05
,-9.031,1.201,-4.109,-8.916,0.804,-4.46,0.28,12.11,8.82
37180.0,-9.146,1.0,-4.391,-9.215,0.196,-4.049,-6.58,13.16,10.15
,-9.287,0.653,-4.348,-9.033,0.658,-4.097,-9.45,12.46,11.13
,-9.014,-0.026,-4.231,-8.964,1.022,-4.259,-10.01,11.76,11.97
,-9.158,0.038,-4.118,-8.894,1.199,-4.585,-7.14,11.48,12.81
37255.0,-8.662,1.314,-4.647,-8.835,1.23,-4.379,-4.97,10.57,16.17
,-8.701,1.321,-4.544,-8.722,1.201,-4.31,-6.23,10.92,16.66
,-8.856,1.376,-4.606,-8.806,1.18,-4.575,-7.42,11.06,17.08
,-8.942,1.158,-4.374,-8.914,1.17,-4.491,-8.96,10.99,17.15
37331.0,-8.78,1.168,-4.401,-8.768,0.969,-4.681,-14.07,11.2,17.22
,-8.789,1.383,-4.448,-8.753,0.895,-4.609,-14.56,11.55,17.5
,-8.899,1.436,-4.614,-8.878,1.084,-4.477,-15.54,11.48,17.85
,-8.947,1.302,-4.719,-8.818,1.247,-4.259,-17.08,11.27,18.48
37407.0,-8.882,1.417,-4.149,-8.681,1.23,-4.527,-19.04,11.13,21.07
,-8.921,1.421,-4.231,-8.67,1.517,-4.501,-20.65,11.41,21.49
,-8.894,1.381,-4.365,-8.811,1.766,-4.597,-21.98,11.55,22.05
,-8.804,1.216,-4.42,-8.871,1.653,-4.465,-22.33,11.41,22.68
37483.0,-8.732,1.491,-4.214,-8.981,1.027,-3.805,-22.12,11.83,25.9
,-8.863,1.235,-3.707,-8.739,1.385,-3.92,-21.7,11.83,26.88
,-9.016,0.885,-3.776,-9.005,1.735,-4.326,-20.02,11.9,28.28
,-9.105,0.864,-3.723,-9.048,2.034,-4.795,-17.08,12.39,29.54
37558.0,-8.737,2.058,-5.365,-8.272,2.63,-6.056,-11.34,12.53,34.58
,-8.538,1.986,-5.822,-8.416,2.972,-5.896,-12.39,11.34,35.42
,-8.332,2.044,-6.198,-8.555,2.905,-5.59,-12.6,9.94,36.54
,-8.193,2.223,-6.25,-8.531,2.967,-5.427,-12.81,8.26,37.17
37634.0,-8.643,3.218,-5.293,-9.596,2.716,-4.604,-17.22,1.68,38.92
,-8.842,3.575,-5.133,-9.749,3.802,-4.855,-17.64,1.33,38.29
,-9.036,3.69,-4.989,-9.318,3.47,-4.621,-20.3,1.4,37.45
,-9.251,3.415,-4.798,-9.237,2.807,-4.664,-23.38,1.05,36.61
37709.0,-9.45,3.319,-4.886,-8.801,3.46,-5.023,-10.99,-2.8,40.04
,-9.17,3.666,-4.949,-8.665,3.295,-4.905,-12.6,-4.06,40.39
,-8.607,3.704,-5.08,-8.679,3.376,-4.98,-14.63,-4.97,39.76
,-8.739,3.613,-5.023,-8.55,3.769,-5.013,-16.52,-5.39,37.66
37785.0,-8.339,4.173,-4.929,-7.724,3.446,-4.219,-24.92,-9.45,27.3
,-8.062,4.322,-4.783,-7.578,3.41,-4.097,-30.38,-9.17,23.1
,-7.885,4.027,-4.625,-7.66,3.142,-4.104,-37.94,-8.89,18.55
,-7.923,3.582,-4.465,-7.851,2.761,-3.972,-43.05,-8.96,14.21
37861.0,-7.624,2.91,-3.747,-8.083,2.312,-4.487,-53.41,-8.61,-4.27
,-7.731,3.472,-4.219,-7.813,2.091,-4.154,-56.28,-7.14,-7.07
,-7.432,3.36,-4.056,-7.755,1.876,-3.419,-63.28,-5.11,-10.36
,-7.523,3.092,-4.491,-7.538,1.33,-2.565,-76.37,-2.73,-13.44
37937.0,-7.219,1.555,-2.182,-8.131,1.249,-2.137,-44.45,-6.79,-38.64
,-7.672,1.797,-2.398,-7.899,1.259,-2.386,-33.53,-0.77,-43.61
,-7.892,1.938,-2.637,-7.454,1.649,-2.355,-25.34,4.13,-48.02
,-8.165,1.718,-2.355,-7.31,2.548,-2.907,-19.25,6.86,-53.2
38012.0,-7.894,1.989,-2.874,-7.964,3.534,-2.536,16.87,20.16,-62.51
,-8.959,1.228,-2.419,-8.43,2.893,-2.52,8.89,21.91,-58.45
,-9.265,1.764,-2.319,-8.806,2.513,-2.735,15.68,21.63,-53.2
,-8.406,3.518,-2.558,-9.016,2.668,-2.563,32.06,21.7,-50.75
38088.0,-8.469,4.03,-3.348,-8.619,2.912,-4.125,49.7,21.63,-42.77
,-8.208,4.568,-3.877,-8.169,3.597,-4.628,49.63,21.56,-46.06
,-8.533,4.097,-4.116,-7.15,4.963,-5.063,43.47,20.51,-48.3
,-8.533,3.75,-4.302,-7.117,5.315,-5.023,39.55,18.9,-48.16
38164.0,-7.607,4.635,-5.011,-9.15,2.247,-4.96,22.61,16.31,-46.2
,-8.031,3.479,-5.142,-9.064,2.541,-4.862,14.35,13.37,-43.61
,-8.626,2.737,-5.173,-8.72,2.9,-4.922,14.07,9.73,-40.53
