session_id,Timestamp,AccX,AccY,AccZ,GyroX,GyroY,GyroZ,MagnX,MagnY,MagnZ,AccX_corr,GyroX_corr,MagnX_corr,AccY_corr,GyroY_corr,MagnY_corr,AccZ_corr,GyroZ_corr,MagnZ_corr,AccNorm,GyroNorm,AccNorm_filt,GyroNorm_filt,KneeAngle_fused_deg,KneeAngle_fused_filt_deg,KneeValgus_fused_deg,KneeValgus_filt_deg
H1_walk_fast_20251205_051120,72537.0,-9.005,-0.742,-4.073,-9.067,-0.751,-4.042,1.89,1.75,0.77,0.29350384615384506,0.23159999999999847,-0.6872115384615387,0.559476923076923,0.5520211538461538,0.3933461538461538,-0.8464211538461544,-0.823496153846154,0.02786538461538468,1.0562138537441064,1.0180922500898664,1.0316899919115607,1.0006054873774377,0.0,-0.2721228958237551,0.0,0.603608478347123
H1_walk_fast_20251205_051120,,-9.036,-0.761,-4.063,-9.021,-0.756,-4.063,1.68,1.75,0.77,0.26250384615384625,0.27759999999999785,-0.8972115384615387,0.540476923076923,0.5470211538461538,0.3933461538461538,-0.8364211538461537,-0.844496153846154,0.02786538461538468,1.029865971971883,1.0437756735123325,1.033280499816209,0.9969582059698422,-0.042857084661034175,-0.2933184962419471,0.10179072337539649,0.6547608260074648
H1_walk_fast_20251205_051120,,-9.007,-0.797,-4.056,-9.052,-0.782,-4.008,1.68,1.54,0.77,0.29150384615384617,0.24659999999999904,-0.8972115384615387,0.5044769230769229,0.5210211538461538,0.18334615384615383,-0.829421153846154,-0.7894961538461542,0.02786538461538468,1.0136128001792057,0.9775370988832329,1.0340610505002574,0.9950697235915708,-0.09294627488213031,-0.3138750165712059,0.19957484327056144,0.7061679804131896
H1_walk_fast_20251205_051120,,-9.043,-0.806,-4.066,-9.05,-0.78,-4.001,1.82,1.68,0.7,0.2555038461538466,0.24859999999999793,-0.7572115384615385,0.4954769230769229,0.5230211538461538,0.3233461538461537,-0.8394211538461538,-0.7824961538461546,-0.04213461538461538,1.0076742877664346,0.9734748677570396,1.0302195726667909,0.993380239832187,-0.13837314798790862,-0.3347079365146618,0.2999132003672734,0.7573946274747052
H1_walk_fast_20251205_051120,72613.0,-9.007,-0.79,-3.967,-9.072,-0.809,-3.927,1.68,1.4,0.7,0.29150384615384617,0.22659999999999947,-0.8972115384615387,0.5114769230769229,0.49402115384615375,0.0433461538461537,-0.740421153846154,-0.7084961538461543,-0.04213461538461538,0.9459421865133153,0.8929564717623578,1.0286938052786316,0.9938638653805181,-0.18813616079710796,-0.35507046703371165,0.39783664419635467,0.8087766556471807
H1_walk_fast_20251205_051120,,-9.012,-0.763,-4.013,-9.05,-0.771,-3.936,1.75,1.61,0.7,0.2865038461538454,0.24859999999999793,-0.8272115384615386,0.538476923076923,0.5320211538461538,0.2533461538461539,-0.7864211538461539,-0.7174961538461542,-0.04213461538461538,0.9952387059213748,0.9271726909933315,1.029205788154957,0.9967375637644091,-0.23471375236679923,-0.3752382177113279,0.49752253544334213,0.8602214671617888
H1_walk_fast_20251205_051120,,-9.083,-0.799,-3.936,-9.014,-0.873,-4.054,1.33,1.61,0.7,0.21550384615384566,0.2845999999999993,-1.2472115384615385,0.5024769230769229,0.4300211538461538,0.2533461538461539,-0.7094211538461539,-0.8354961538461545,-0.04213461538461538,0.895658048284255,0.9818193193489799,1.027915774988766,0.9974205722495825,-0.2739058795189986,-0.3952355026941627,0.6015623019553502,0.9117381197590539
H1_walk_fast_20251205_051120,,-9.05,-0.744,-3.972,-9.055,-0.885,-4.094,1.12,1.89,0.7,0.24850384615384513,0.24359999999999893,-1.4572115384615385,0.557476923076923,0.4180211538461538,0.5333461538461537,-0.7454211538461539,-0.8754961538461545,-0.04213461538461538,0.9634248169514312,1.0002880387479791,1.0279337810862752,0.9987650673804913,-0.3146274910524075,-0.4151266748450457,0.7045861735175297,0.9632835874362244
H1_walk_fast_20251205_051120,72689.0,-9.026,-0.833,-4.133,-8.945,-0.905,-4.168,0.49,1.54,0.63,0.27250384615384604,0.35359999999999836,-2.0872115384615384,0.468476923076923,0.3980211538461538,0.18334615384615383,-0.906421153846154,-0.9494961538461544,-0.11213461538461533,1.056091038577666,1.0885755578174914,1.0299206220838701,0.9985640629801225,-0.3660771555671182,-0.4346711458995452,0.8032697195041211,1.0149733401720762
H1_walk_fast_20251205_051120,,-9.052,-0.737,-4.173,-8.988,-1.012,-4.116,0.49,1.54,0.56,0.24650384615384624,0.3105999999999991,-2.0872115384615384,0.564476923076923,0.2910211538461538,0.18334615384615383,-0.946421153846154,-0.8974961538461539,-0.18213461538461528,1.1292082816303266,0.9933101319097603,1.0320737795846062,0.9966792819844248,-0.40721412766838494,-0.45405944194016495,0.907287578753302,1.0667012822886381
H1_walk_fast_20251205_051120,,-9.038,-0.756,-4.185,-9.04,-0.866,-4.147,0.35,1.54,0.7,0.2605038461538456,0.2585999999999995,-2.2272115384615385,0.545476923076923,0.4370211538461538,0.18334615384615383,-0.9584211538461536,-0.9284961538461545,-0.04213461538461538,1.1331277225494953,1.0582847237941806,1.0321755714759038,0.9953992085312117,-0.4503224845410554,-0.47385642559044194,1.009258550242044,1.1182257752166307
H1_walk_fast_20251205_051120,,-9.048,-0.809,-4.197,-9.024,-0.735,-4.042,0.35,1.4,0.84,0.2505038461538458,0.2745999999999995,-2.2272115384615385,0.4924769230769229,0.5680211538461538,0.0433461538461537,-0.970421153846154,-0.823496153846154,0.09786538461538463,1.1166928461010592,1.037400167060004,1.030743614626419,0.9942668860822232,-0.49465192455080376,-0.4940213007053447,1.1101560498331986,1.1695830031930226
H1_walk_fast_20251205_051120,72764.0,-9.016,-0.66,-4.034,-8.976,-0.773,-4.022,4.34,1.19,1.75,0.28250384615384583,0.3225999999999978,1.7627884615384612,0.641476923076923,0.5300211538461538,-0.16665384615384626,-0.8074211538461538,-0.8034961538461545,1.0078653846153847,1.0692193346597352,1.0151843442301354,1.0250151795954232,0.9933340815082639,-0.5337721621150676,-0.5140983447843215,1.214151898054124,1.2209559967286747
H1_walk_fast_20251205_051120,,-9.057,-0.675,-4.039,-9.016,-0.854,-4.006,3.71,1.33,1.61,0.24150384615384546,0.28259999999999863,1.1327884615384614,0.6264769230769229,0.4490211538461538,-0.02665384615384614,-0.8124211538461537,-0.7874961538461545,0.8678653846153848,1.0539571025766394,0.949543547671099,1.0219293405330392,0.9938186426931519,-0.5688613016784431,-0.5341972992672658,1.3197413455919098,1.2723063178042746
H1_walk_fast_20251205_051120,,-9.076,-0.687,-4.042,-9.043,-0.84,-4.03,3.08,1.4,1.4,0.22250384615384533,0.2555999999999994,0.5027884615384615,0.6144769230769229,0.46302115384615383,0.0433461538461537,-0.8154211538461538,-0.8114961538461545,0.6578653846153846,1.0449887600769348,0.96863097029577,1.0158118699616674,0.9938995073100865,-0.6016663011808293,-0.575634935755972,1.4258681420933368,1.3745580159452535
H1_walk_fast_20251205_051120,,-9.021,-0.768,-3.991,-9.076,-0.771,-3.996,2.66,1.12,1.4,0.27750384615384505,0.22259999999999813,0.08278846153846153,0.533476923076923,0.5320211538461538,-0.2366538461538461,-0.7644211538461541,-0.7774961538461542,0.6578653846153846,0.9725974051647904,0.9680379834414323,1.0126677869640603,0.9930623327514924,-0.6472017356665002,-0.6168877811643145,1.52579433339744,1.4768797492363483
H1_walk_fast_20251205_051120,72839.0,-9.067,-0.699,-3.996,-9.072,-0.723,-4.003,3.43,1.47,1.61,0.23150384615384567,0.22659999999999947,0.8527884615384616,0.602476923076923,0.5800211538461538,0.11334615384615376,-0.769421153846154,-0.7844961538461543,0.8678653846153848,1.004281527068086,1.001601874153814,1.0147730726318258,0.9965626719630234,-0.680870955338509,-0.6576220681772089,1.6308891064067885,1.5794570262040648
H1_walk_fast_20251205_051120,,-9.026,-0.658,-3.994,-9.052,-0.735,-4.061,2.73,1.4,1.4,0.27250384615384604,0.24659999999999904,0.15278846153846137,0.643476923076923,0.5680211538461538,0.0433461538461537,-0.7674211538461542,-0.8424961538461542,0.6578653846153846,1.0379094970524867,1.0455904362905573,1.017312428647755,0.9989680701505995,-0.7180899792308051,-0.6983328654001283,1.7347832629101259,1.6820414167181827
H1_walk_fast_20251205_051120,,-9.045,-0.692,-3.984,-9.043,-0.792,-4.051,2.17,1.47,1.26,0.2535038461538459,0.2555999999999994,-0.4072115384615387,0.609476923076923,0.5110211538461538,0.11334615384615376,-0.7574211538461539,-0.8324961538461544,0.5178653846153847,1.0046955379973306,1.009714724982702,1.0229138203485868,1.0052884772951503,-0.7551866323851881,-0.7384975368985724,1.8390378665098264,1.7848671727958765
H1_walk_fast_20251205_051120,,-9.043,-0.706,-4.025,-9.06,-0.756,-4.051,1.96,1.54,1.26,0.2555038461538466,0.23859999999999815,-0.6172115384615386,0.595476923076923,0.5470211538461538,0.18334615384615383,-0.7984211538461543,-0.8324961538461544,0.5178653846153847,1.0282758969389454,1.0243104748677603,1.0249915418365758,1.0099553464985251,-0.793058945711823,-0.7783511737513652,1.9426474733024652,1.8878146659415231
H1_walk_fast_20251205_051120,72915.0,-9.079,-0.708,-4.089,-9.016,-0.744,-3.991,1.96,1.4,1.12,0.21950384615384522,0.28259999999999863,-0.6172115384615386,0.593476923076923,0.5590211538461538,0.0433461538461537,-0.8624211538461544,-0.7724961538461543,0.37786538461538477,1.069657442035774,0.9945439749727438,1.0302308006726637,1.0092017058065306,-0.8255605669895358,-0.8180777194508508,2.0487683948891102,1.9907848995787363
H1_walk_fast_20251205_051120,,-9.052,-0.692,-4.08,-9.088,-0.749,-3.97,1.61,1.12,0.91,0.24650384615384624,0.21059999999999945,-0.9672115384615385,0.609476923076923,0.5540211538461538,-0.2366538461538461,-0.853421153846154,-0.7514961538461544,0.1678653846153847,1.0772900871000595,0.957098881074775,1.0334333698044729,1.0089618666639166,-0.8612136587931782,-0.8578336510263502,2.15298806673644,2.0936944030329974
H1_walk_fast_20251205_051120,,-8.993,-0.749,-4.046,-9.055,-0.797,-4.006,1.26,1.4,0.98,0.3055038461538455,0.24359999999999893,-1.3172115384615386,0.552476923076923,0.5060211538461538,0.0433461538461537,-0.8194211538461542,-0.7874961538461545,0.23786538461538465,1.0344149930844486,0.9672375925605241,1.0313495595037259,1.0060111410396486,-0.9093900658965363,-0.897439650352857,2.2517646196324663,2.19659402235546
H1_walk_fast_20251205_051120,,-9.012,-0.79,-4.034,-8.997,-0.768,-3.967,1.33,1.4,1.12,0.2865038461538454,0.30159999999999876,-1.2472115384615385,0.5114769230769229,0.5350211538461538,0.0433461538461537,-0.8074211538461538,-0.7484961538461543,0.37786538461538477,0.9978086070882718,0.9682234697554872,1.0225507536418765,1.0066231062803583,-0.9578134283481093,-0.9372386326088201,2.350799246650036,2.2993307866565282
H1_walk_fast_20251205_051120,72991.0,-9.064,-0.768,-3.896,-9.069,-0.694,-3.939,1.68,1.82,1.12,0.23450384615384579,0.2295999999999978,-0.8972115384615387,0.533476923076923,0.6090211538461539,0.46334615384615385,-0.6694211538461539,-0.7204961538461543,0.37786538461538477,0.8875327388515218,0.9709467717332402,1.0172685347317088,1.0064960451705525,-0.9959474026797629,-0.9772417312639189,2.453907841584323,2.401936092072253
H1_walk_fast_20251205_051120,,-9.048,-0.768,-3.965,-9.05,-0.706,-3.989,1.82,1.89,1.19,0.2505038461538458,0.24859999999999793,-0.7572115384615385,0.533476923076923,0.5970211538461538,0.5333461538461537,-0.7384211538461538,-0.7704961538461541,0.4478653846153846,0.9447833639734434,1.0059326723153534,1.0130051469622263,1.0087339074779273,-1.0366711613408741,-1.017459180727789,2.5560643446942777,2.504404334230344
H1_walk_fast_20251205_051120,,-9.048,-0.768,-3.903,-9.016,-0.706,-3.996,1.96,1.89,1.33,0.2505038461538458,0.28259999999999863,-0.6172115384615386,0.533476923076923,0.5970211538461538,0.5333461538461537,-0.676421153846154,-0.7774961538461542,0.5878653846153847,0.8971596188884413,1.0201947301301624,1.0117930958590486,1.0089664827008789,-1.07737854870636,-1.0580298824438235,2.6585441516654464,2.6066314337312657
H1_walk_fast_20251205_051120,,-9.06,-0.754,-3.963,-9.033,-0.73,-4.022,2.03,2.03,1.33,0.23850384615384534,0.26559999999999917,-0.5472115384615388,0.547476923076923,0.5730211538461538,0.6733461538461536,-0.736421153846154,-0.8034961538461545,0.5878653846153847,0.9481198140340983,1.0220091349888905,1.01065703964697,1.0110562653952297,-1.115431065277939,-1.0990191147844175,2.762155788943862,2.7086251652272875
H1_walk_fast_20251205_051120,73067.0,-9.043,-0.692,-4.066,-9.012,-0.732,-4.075,1.4,2.24,1.19,0.2555038461538466,0.2865999999999982,-1.1772115384615387,0.609476923076923,0.5710211538461538,0.883346153846154,-0.8394211538461538,-0.8564961538461544,0.4478653846153846,1.0683502275411048,1.0685459183830366,1.0111790350868848,1.0196358585627765,-1.1520377372173862,-1.141134733259018,2.8665840444311943,2.810001423256964
H1_walk_fast_20251205_051120,,-8.985,-0.696,-4.056,-9.021,-0.739,-4.042,1.19,2.24,1.12,0.3135038461538464,0.27759999999999785,-1.3872115384615387,0.605476923076923,0.5640211538461538,0.883346153846154,-0.829421153846154,-0.823496153846154,0.37786538461538477,1.0736975441805938,1.0360152206340185,1.0146203921652373,1.0308905853291992,-1.1968538757838139,-1.183638252767952,2.967107353734341,2.9111568912980283
H1_walk_fast_20251205_051120,,-9.038,-0.67,-4.078,-9.06,-0.687,-4.044,1.05,2.45,0.98,0.2605038461538456,0.23859999999999815,-1.5272115384615386,0.6314769230769229,0.6160211538461537,1.093346153846154,-0.8514211538461542,-0.8254961538461538,0.23786538461538465,1.091578370734947,1.0572870575206803,1.0181831345545307,1.0423058401051573,-1.2324176197566554,-1.2270698627711585,3.0713063022163927,3.0118291827940076
H1_walk_fast_20251205_051120,,-9.043,-0.732,-4.07,-9.06,-0.668,-4.018,1.26,2.24,1.05,0.2555038461538466,0.23859999999999815,-1.3172115384615386,0.569476923076923,0.6350211538461538,0.883346153846154,-0.8434211538461542,-0.799496153846154,0.3078653846153847,1.0492594646090863,1.0485112902810787,1.021338422120849,1.0528897108950583,-1.2709083105394083,-1.271391906927924,3.1741573572301465,3.1119948701924844
H1_walk_fast_20251205_051120,73142.0,-9.026,-0.632,-3.963,-9.033,-0.771,-3.975,0.63,2.17,0.84,0.27250384615384604,0.26559999999999917,-1.9472115384615387,0.669476923076923,0.5320211538461538,0.8133461538461537,-0.736421153846154,-0.7564961538461543,0.09786538461538463,1.031878778022537,0.962224661357116,1.0310704090478826,1.0534299324162577,-1.3067960677056243,-1.3161417094513876,3.2787883765228973,3.2119092429453366
H1_walk_fast_20251205_051120,,-9.014,-0.706,-4.039,-9.088,-0.73,-4.003,0.14,2.24,0.7,0.2845038461538465,0.21059999999999945,-2.4372115384615385,0.595476923076923,0.5730211538461538,0.883346153846154,-0.8124211538461537,-0.7844961538461543,-0.04213461538461538,1.0466916143784697,0.9940522210400147,1.039074477867186,1.0516899395238293,-1.3482817120153934,-1.3613464111090143,3.3802332633283103,3.311550180090286
H1_walk_fast_20251205_051120,,-8.988,-0.744,-3.999,-9.069,-0.72,-4.013,-0.28,2.31,0.7,0.3105038461538463,0.2295999999999978,-2.857211538461539,0.557476923076923,0.5830211538461538,0.9533461538461538,-0.7724211538461541,-0.7944961538461541,-0.04213461538461538,1.0019119707582442,1.0118566915865268,1.038447027456288,1.0507356215244426,-1.3958331380562985,-1.407242460964907,3.478659821888149,3.4108447366145302
H1_walk_fast_20251205_051120,,-9.045,-0.826,-3.948,-9.031,-0.766,-4.03,-0.14,2.45,0.84,0.2535038461538459,0.26759999999999806,-2.7172115384615387,0.475476923076923,0.5370211538461538,1.093346153846154,-0.7214211538461539,-0.8114961538461545,0.09786538461538463,0.9004393292222452,1.0092212281682122,1.0371751417631982,1.050354667728436,-1.441987666323421,-1.453480931140987,3.5784434505810836,3.5100529053988945
H1_walk_fast_20251205_051120,73218.0,-9.026,-0.826,-4.058,-8.988,-0.694,-4.022,0.07,2.66,1.05,0.27250384615384604,0.3105999999999991,-2.5072115384615388,0.475476923076923,0.6090211538461539,1.303346153846154,-0.8314211538461538,-0.8034961538461545,0.3078653846153847,0.9957900308851293,1.0549811349392288,1.032455057920849,1.0554844484189265,-1.490403049573628,-1.500713866686958,3.6769964910508857,3.60844549066262
H1_walk_fast_20251205_051120,,-8.993,-0.79,-4.037,-9.009,-0.672,-4.066,0.63,2.8,1.19,0.3055038461538455,0.2895999999999983,-1.9472115384615387,0.5114769230769229,0.6310211538461538,1.4433461538461536,-0.8104211538461539,-0.8474961538461541,0.4478653846153846,1.0058447640945198,1.0955845870517504,1.028567015193858,1.0669567003740397,-1.5403056106114226,-1.5484222951492774,3.774330345943564,3.706448014688319
H1_walk_fast_20251205_051120,,-8.976,-0.735,-4.034,-9.088,-0.713,-4.025,0.91,2.94,1.33,0.322503846153845,0.21059999999999945,-1.6672115384615385,0.566476923076923,0.5900211538461538,1.5833461538461537,-0.8074211538461538,-0.8064961538461546,0.5878653846153847,1.0377060059771146,1.0212313000268778,1.0330137504540036,1.0783889110657416,-1.5886104067319644,-1.596496178430495,3.872056485078087,3.8042839717157166
H1_walk_fast_20251205_051120,,-8.993,-0.73,-4.02,-9.05,-0.742,-4.013,1.12,3.08,1.47,0.3055038461538455,0.24859999999999793,-1.4572115384615385,0.571476923076923,0.5610211538461538,1.7233461538461539,-0.7934211538461535,-0.7944961538461541,0.7278653846153846,1.0244196410625976,1.0038778977242206,1.0367076248740708,1.0914276028413576,-1.6345813425338893,-1.6444011739561968,3.971578364488476,3.9022244268511272
H1_walk_fast_20251205_051120,73294.0,-8.928,-0.821,-4.094,-8.997,-0.828,-4.269,0.0,3.08,1.47,0.370503846153845,0.30159999999999876,-2.5772115384615386,0.480476923076923,0.47502115384615384,1.7233461538461539,-0.8674211538461543,-1.0504961538461544,0.7278653846153846,1.0585606415147188,1.1917003926519845,1.0512637062478174,1.1014066904591682,-1.6966723815204414,-1.6926262634882443,4.061650850864919,3.999992631257452
H1_walk_fast_20251205_051120,,-8.961,-0.802,-4.101,-8.997,-0.749,-4.31,0.07,3.15,1.61,0.33750384615384554,0.30159999999999876,-2.5072115384615388,0.49947692307692293,0.5540211538461538,1.7933461538461537,-0.8744211538461539,-1.0914961538461538,0.8678653846153848,1.062072689201953,1.2606608793684246,1.06563243453628,1.1102412061267926,-1.7522932428987876,-1.7410253226746077,4.15583650246513,4.09765063807655
H1_walk_fast_20251205_051120,,-8.969,-0.845,-4.168,-8.966,-0.687,-4.312,0.21,3.15,1.75,0.3295038461538464,0.33259999999999934,-2.3672115384615386,0.456476923076923,0.6160211538461537,1.7933461538461537,-0.9414211538461541,-1.0934961538461545,1.0078653846153847,1.0969128291897114,1.2983984983287216,1.0803848995889358,1.121520544669776,-1.8100928154218745,-1.7894936851773549,4.248368685302234,4.195265191274662
H1_walk_fast_20251205_051120,,-8.964,-0.869,-4.204,-8.926,-0.651,-4.305,0.21,3.01,1.89,0.33450384615384543,0.3725999999999985,-2.3672115384615386,0.432476923076923,0.6520211538461538,1.6533461538461536,-0.9774211538461537,-1.086496153846154,1.1478653846153846,1.1199469737767698,1.3207710768279846,1.0920263917700992,1.1324892243653861,-1.8704631273067105,-1.837986986614535,4.339091135270518,4.292851972380834
H1_walk_fast_20251205_051120,73370.0,-8.928,-0.66,-4.243,-9.052,-0.653,-3.97,-0.49,1.89,2.38,0.370503846153845,0.24659999999999904,-3.067211538461539,0.641476923076923,0.6500211538461538,0.5333461538461537,-1.0164211538461543,-0.7514961538461544,1.6378653846153846,1.2577271981001985,1.0237604845338815,1.1000223634135777,1.130198649034903,-1.9186814979952418,-1.886668511287966,4.436811558084,4.390376489968961
H1_walk_fast_20251205_051120,,-8.923,-0.67,-4.221,-9.103,-0.68,-3.948,-0.42,1.75,2.45,0.3755038461538458,0.19559999999999889,-2.9972115384615385,0.6314769230769229,0.6230211538461538,0.3933461538461538,-0.994421153846154,-0.7294961538461542,1.7078653846153848,1.236381686240841,0.9790706596646251,1.1056681010804152,1.1276503369259123,-1.968381188810111,-1.9352137712021913,4.533311839071138,4.488009854702626
H1_walk_fast_20251205_051120,,-8.964,-0.742,-4.054,-9.024,-0.739,-3.958,-0.28,1.68,2.59,0.33450384615384543,0.2745999999999995,-2.857211538461539,0.559476923076923,0.5640211538461538,0.3233461538461537,-0.8274211538461542,-0.7394961538461544,1.8478653846153845,1.0533437313524194,0.9697317069886916,1.1085675149381766,1.1369310255865297,-2.018857863242753,-1.98328249051807,4.630426864519466,4.585855892598094
H1_walk_fast_20251205_051120,,-8.976,-0.665,-3.989,-8.909,-0.835,-3.944,-0.42,1.82,2.8,0.322503846153845,0.38959999999999795,-2.9972115384615385,0.6364769230769229,0.46802115384615384,0.46334615384615385,-0.7624211538461538,-0.7254961538461542,2.0578653846153845,1.044221059079729,0.9471940823786043,1.1059722137106303,1.1481003861282446,-2.063413883371253,-2.0310654384861895,4.732400455129919,4.683860228108685
H1_walk_fast_20251205_051120,73446.0,-8.914,-0.94,-3.97,-9.045,-0.708,-4.109,-1.89,2.31,3.43,0.38450384615384614,0.2535999999999987,-4.467211538461538,0.36147692307692303,0.5950211538461538,0.9533461538461538,-0.7434211538461541,-0.8904961538461542,2.687865384615385,0.9116928131833701,1.1006118905132731,1.1155899407689285,1.158048378220733,-2.1374463900917853,-2.0785087700883205,4.809971836489332,4.782046736943212
H1_walk_fast_20251205_051120,,-8.957,-0.869,-3.934,-9.033,-0.603,-4.24,-1.05,2.59,3.71,0.3415038461538451,0.26559999999999917,-3.6272115384615384,0.432476923076923,0.7000211538461538,1.2333461538461536,-0.7074211538461541,-1.0214961538461544,2.9678653846153846,0.896719496186503,1.266502020588434,1.1246299849604844,1.1735237796640374,-2.1982325683684185,-2.1264240344453373,4.898864871318196,4.879820800298581
H1_walk_fast_20251205_051120,,-9.002,-0.79,-4.037,-8.942,-0.613,-4.221,-0.84,2.8,3.99,0.2965038461538452,0.3565999999999985,-3.4172115384615385,0.5114769230769229,0.6900211538461538,1.4433461538461536,-0.8104211538461539,-1.0024961538461543,3.247865384615385,1.0031478556153082,1.2681842497174882,1.1290134701233503,1.1863347819678352,-2.2458683679914127,-2.175865709083348,4.997642724296668,4.9759737263256865
H1_walk_fast_20251205_051120,,-9.048,-0.732,-4.061,-8.894,-0.598,-4.29,-1.12,2.94,4.13,0.2505038461538458,0.4045999999999985,-3.6972115384615387,0.569476923076923,0.7050211538461538,1.5833461538461537,-0.8344211538461539,-1.0714961538461543,3.3878653846153846,1.0408240988951862,1.344938658481368,1.133133204231909,1.1942280607773617,-2.282201045009126,-2.2265308173257554,5.102516178214953,5.071374827696507
H1_walk_fast_20251205_051120,73521.0,-8.933,-0.687,-4.283,-8.959,-0.656,-4.269,-2.1,2.45,4.83,0.365503846153846,0.339599999999999,-4.677211538461538,0.6144769230769229,0.6470211538461538,1.093346153846154,-1.0564211538461543,-1.0504961538461544,4.087865384615385,1.2756177346058564,1.2796510081932382,1.1622968162831318,1.2416820138929459,-2.331230876539589,-2.2777042748583507,5.200517466229893,5.160167485793574
H1_walk_fast_20251205_051120,,-8.945,-0.613,-4.298,-9.021,-0.617,-4.228,-1.82,2.03,4.97,0.35350384615384556,0.27759999999999785,-4.397211538461539,0.688476923076923,0.6860211538461538,0.6733461538461536,-1.071421153846154,-1.009496153846154,4.227865384615384,1.3217067495341215,1.251706542347121,1.1966819994738584,1.3009783034901652,-2.3738066041233883,-2.3289925268709606,5.301263966240386,5.241935449740857
H1_walk_fast_20251205_051120,,-8.945,-0.546,-4.415,-8.947,-0.579,-4.317,-1.82,1.68,4.97,0.35350384615384556,0.35159999999999947,-4.397211538461539,0.7554769230769229,0.7240211538461538,0.3233461538461537,-1.188421153846154,-1.0984961538461544,4.227865384615384,1.4519143189101624,1.3618087205006104,1.195280562809764,1.3591816558284724,-2.4122151622888155,-2.3807580232578784,5.404562427582121,5.3184754732754715
H1_walk_fast_20251205_051120,,-8.902,-0.593,-4.338,-8.921,-0.555,-4.24,-2.38,1.47,5.18,0.3965038461538466,0.37759999999999927,-4.9572115384615385,0.708476923076923,0.7480211538461538,0.11334615384615376,-1.111421153846154,-1.0214961538461544,4.437865384615384,1.3763763408908385,1.3212008927198835,1.2084972557110427,1.416738111137356,-2.457679713150497,-2.4293820986370216,5.504363662494833,5.395577430080626
H1_walk_fast_20251205_051120,73597.0,-8.949,-0.567,-4.24,-8.971,-0.692,-3.936,-3.99,0.98,5.6,0.349503846153846,0.32759999999999856,-6.567211538461539,0.734476923076923,0.6110211538461539,-0.37665384615384623,-1.0134211538461542,-0.7174961538461542,4.857865384615384,1.2994736334653914,0.9977320989281182,1.277293055224351,1.4487302256274115,-2.4981372612658586,-2.4747153269275506,5.6069437595076845,5.473295233511099
H1_walk_fast_20251205_051120,,-8.99,-0.546,-4.101,-8.911,-0.723,-3.91,-4.48,0.91,5.67,0.30850384615384563,0.38759999999999906,-7.057211538461539,0.7554769230769229,0.5800211538461538,-0.4466538461538462,-0.8744211538461539,-0.6914961538461544,4.927865384615385,1.196048643946863,0.982255175447321,1.3388083568727756,1.489152769375971,-2.533085068309262,-2.516644305033689,5.71262484030541,5.551803695138381
H1_walk_fast_20251205_051120,,-9.069,-0.534,-3.991,-8.827,-0.629,-4.097,-5.88,0.63,5.74,0.229503846153845,0.4715999999999987,-8.45721153846154,0.767476923076923,0.6740211538461538,-0.7266538461538462,-0.7644211538461541,-0.8784961538461546,4.997865384615385,1.1072635383243299,1.2035225665331688,1.3776763093228557,1.5290987557010884,-2.5565827699184753,-2.5555963116267857,5.822785361805075,5.630879960666349
H1_walk_fast_20251205_051120,,-9.012,-0.625,-3.874,-8.871,-0.517,-4.14,-7.56,0.42,5.74,0.2865038461538454,0.4275999999999982,-10.137211538461539,0.676476923076923,0.7860211538461538,-0.9366538461538463,-0.6474211538461541,-0.9214961538461539,4.997865384615385,0.9792137824622634,1.2844555951246006,1.4061444741282796,1.5476738588200993,-2.5906383591864963,-2.591207394989226,5.928345986603697,5.710492307340226
H1_walk_fast_20251205_051120,73672.0,-9.012,-0.699,-4.286,-8.921,-0.548,-4.168,-16.38,-0.21,4.2,0.2865038461538454,0.37759999999999927,-18.957211538461536,0.602476923076923,0.7550211538461538,-1.5666538461538462,-1.0594211538461535,-0.9494961538461544,3.457865384615385,1.2519728742739988,1.2705044859912211,1.4093092831385527,1.599177552946606,-2.629359759711712,-2.6252285673312907,6.031509051585845,5.790493593608489
H1_walk_fast_20251205_051120,,-8.993,-0.916,-4.25,-9.012,-0.383,-4.25,-17.5,-0.14,4.48,0.3055038461538455,0.2865999999999982,-20.07721153846154,0.38547692307692294,0.9200211538461538,-1.4966538461538463,-1.023421153846154,-1.0314961538461542,3.737865384615385,1.1354804782027024,1.4115816656941307,1.4180515323292229,1.6562696555154075,-2.687784539605849,-2.657562443869997,6.120569097820675,5.870819425095326
H1_walk_fast_20251205_051120,,-8.811,-1.027,-4.185,-8.997,-0.581,-4.365,-16.66,0.0,4.69,0.4875038461538459,0.30159999999999876,-19.237211538461537,0.27447692307692306,0.7220211538461538,-1.3566538461538462,-0.9584211538461536,-1.1464961538461544,3.947865384615385,1.1097606451196402,1.3880671948379717,1.450075385301397,1.6964709012469017,-2.775886590161912,-2.6869455260964634,6.176972567755621,5.952502935497747
H1_walk_fast_20251205_051120,,-8.818,-0.885,-4.14,-8.677,-1.251,-4.36,-15.47,-0.07,4.69,0.4805038461538462,0.621599999999999,-18.04721153846154,0.41647692307692297,0.05202115384615391,-1.4266538461538463,-0.9134211538461536,-1.1414961538461545,3.947865384615385,1.1129578509170504,1.3008098360994385,1.495289352901065,1.72741664936092,-2.857598424914018,-2.7138935113840343,6.254758981584909,6.035157924368445
H1_walk_fast_20251205_051120,73748.0,-8.141,-2.266,-4.204,-9.459,0.823,-3.953,-21.56,-0.07,5.18,1.1575038461538458,-0.160400000000001,-24.137211538461536,-0.964523076923077,2.1260211538461538,-1.4266538461538463,-0.9774211538461537,-0.7344961538461541,4.437865384615384,1.7959599193089062,2.2550340810320635,1.5334614168037815,1.7537185275211746,-2.9191203025794445,-2.74010927264756,6.180665595601822,6.118039901858603
H1_walk_fast_20251205_051120,,-8.062,-2.594,-3.92,-9.416,1.204,-3.644,-13.65,1.12,7.7,1.2365038461538465,-0.11740000000000173,-16.22721153846154,-1.2925230769230769,2.5070211538461535,-0.2366538461538461,-0.6934211538461539,-0.42549615384615436,6.957865384615385,1.9184344040214887,2.5455814272519297,1.5649144737966334,1.777718988116041,-2.9680758948617454,-2.766220607322162,6.097545427117837,6.200813992108899
H1_walk_fast_20251205_051120,,-8.617,-1.589,-3.932,-9.368,1.39,-3.463,-3.57,1.96,9.38,0.681503846153845,-0.06940000000000168,-6.147211538461539,-0.287523076923077,2.6930211538461535,0.6033461538461538,-0.7054211538461539,-0.2444961538461543,8.637865384615385,1.0221232882482603,2.7049875534479693,1.5822208103073299,1.7905075824147754,-3.042575287580309,-2.791880806150424,6.051691462764922,6.283707417944192
H1_walk_fast_20251205_051120,,-9.275,-0.194,-4.092,-9.39,1.45,-3.338,0.0,2.17,9.59,0.023503846153845487,-0.09140000000000192,-2.5772115384615386,1.107476923076923,2.753021153846154,0.8133461538461537,-0.8654211538461536,-0.11949615384615431,8.847865384615385,1.4057067046352025,2.757128717399395,1.598990203579054,1.7909986503868711,-3.0165192027565086,-2.8165651086019157,6.160487379399101,6.366949192379338
H1_walk_fast_20251205_051120,73824.0,-9.399,1.582,-3.18,-9.371,0.816,-3.013,-24.57,3.5,5.67,-0.10049615384615329,-0.0724000000000018,-27.14721153846154,2.8834769230769233,2.1190211538461536,2.143346153846154,0.04657884615384589,0.20550384615384587,4.927865384615385,2.885603616535725,2.1301934750701657,1.5909336597599653,1.781733082870552,-2.9887567509756217,-2.8408012475755955,6.269031574494526,6.450502135225596
H1_walk_fast_20251205_051120,,-9.349,1.417,-3.18,-9.095,1.053,-3.037,-24.43,4.62,5.32,-0.05049615384615436,0.203599999999998,-27.00721153846154,2.7184769230769232,2.3560211538461537,3.263346153846154,0.04657884615384589,0.18150384615384585,4.577865384615385,2.7193448166358114,2.371757214290535,1.5951335807187472,1.7727465757762124,-2.960616558066303,-2.8640200356336405,6.380311137579889,6.534498478196378
H1_walk_fast_20251205_051120,,-9.416,0.962,-3.137,-8.952,0.73,-3.221,-22.96,5.88,5.04,-0.11749615384615453,0.3465999999999987,-25.53721153846154,2.263476923076923,2.033021153846154,4.523346153846154,0.08957884615384604,-0.0024961538461543142,4.297865384615385,2.268293961802277,2.0623561289869334,1.612602263142067,1.790799080178625,-2.9314336694157666,-2.8863349102624047,6.492794461811157,6.618684623715077
H1_walk_fast_20251205_051120,,-9.634,0.644,-3.13,-8.966,0.108,-3.408,-20.79,6.58,3.92,-0.3354961538461545,0.33259999999999934,-23.36721153846154,1.945476923076923,1.411021153846154,5.223346153846154,0.09657884615384615,-0.18949615384615415,3.1778653846153846,1.9765539711818707,1.4620233407589005,1.6231901803018844,1.8395690654782266,-2.8942693562335555,-2.908592595560971,6.603232852591921,6.702473665682898
H1_walk_fast_20251205_051120,73900.0,-9.002,-0.287,-3.642,-9.15,0.725,-4.312,-17.01,12.25,3.08,0.2965038461538452,0.1485999999999983,-19.58721153846154,1.014476923076923,2.028021153846154,10.893346153846153,-0.41542115384615386,-1.0934961538461545,2.3378653846153847,1.1356287656195196,2.3088277542778752,1.679165190723989,1.9464387466631232,-2.9034083441364293,-2.9292822192134738,6.7104603074943245,6.786493906052443
H1_walk_fast_20251205_051120,,-9.057,-0.189,-3.793,-9.024,0.775,-4.451,-9.03,14.14,3.99,0.24150384615384546,0.2745999999999995,-11.607211538461538,1.112476923076923,2.0780211538461537,12.783346153846153,-0.5664211538461541,-1.2324961538461539,3.247865384615385,1.2715195380371498,2.4315887491674375,1.7421710115312388,2.0462674713473494,-2.904094673377631,-2.9477987814844746,6.820872073787685,6.870922716279313
H1_walk_fast_20251205_051120,,-9.062,0.246,-3.996,-8.897,0.388,-4.477,-1.33,15.82,4.76,0.23650384615384645,0.4015999999999984,-3.9072115384615387,1.547476923076923,1.6910211538461537,14.463346153846153,-0.769421153846154,-1.2584961538461545,4.0178653846153844,1.7443129904598917,2.145844279532124,1.816955243365127,2.1321647793850653,-2.9014065279799106,-2.965000587223358,6.9337431069522415,6.955743867459422
H1_walk_fast_20251205_051120,,-9.048,0.526,-4.171,-8.792,0.175,-4.578,4.34,16.94,5.39,0.2505038461538458,0.5065999999999988,1.7627884615384612,1.827476923076923,1.4780211538461538,15.583346153846154,-0.9444211538461542,-1.3594961538461545,4.647865384615384,2.072282653777874,2.071091471552911,1.917697820969327,2.1999942687838936,-2.8988801858452495,-2.980901907446902,7.047894581956382,7.041170320591562
H1_walk_fast_20251205_051120,73975.0,-8.705,-0.026,-4.642,-8.765,0.433,-3.934,15.12,18.41,5.46,0.5935038461538458,0.5335999999999981,12.54278846153846,1.275476923076923,1.7360211538461539,17.053346153846153,-1.4154211538461543,-0.7154961538461544,4.717865384615385,1.995621517085933,1.952033081884108,1.9696485041942418,2.2600723247063206,-2.9274781608430853,-2.9932691156408,7.152574139040786,7.1276523587556495
H1_walk_fast_20251205_051120,,-8.67,-0.124,-4.52,-8.734,0.517,-3.714,14.7,18.9,5.81,0.6285038461538459,0.5645999999999987,12.12278846153846,1.1774769230769229,1.8200211538461537,17.54334615384615,-1.2934211538461535,-0.4954961538461542,5.067865384615384,1.8586035807093426,1.9689506339478942,2.0905516559741772,2.3418694653610626,-2.96109574654878,-3.000202995304675,7.254642524722645,7.213407128137613
H1_walk_fast_20251205_051120,,-8.691,-0.175,-4.384,-8.796,0.208,-3.47,13.93,19.04,6.09,0.6075038461538451,0.5025999999999993,11.352788461538461,1.126476923076923,1.5110211538461538,17.683346153846152,-1.1574211538461543,-0.2514961538461544,5.3478653846153845,1.7255824838839577,1.6121544599603257,2.0969300000762603,2.369914389107359,-2.998396046074407,-3.006904086434644,7.355746537947513,7.2974477974112055
H1_walk_fast_20251205_051120,,-8.909,0.091,-4.226,-8.856,-0.122,-3.309,13.09,19.18,6.16,0.38950384615384515,0.44259999999999877,10.512788461538461,1.392476923076923,1.181021153846154,17.823346153846153,-0.9994211538461539,-0.09049615384615439,5.417865384615385,1.75771097459895,1.2644743096216098,2.1501798879329854,2.394272825071137,-3.015598467862165,-3.0074752524291264,7.46555010155417,7.385336795106754
H1_walk_fast_20251205_051120,74051.0,-8.902,-0.124,-3.226,-8.528,-0.591,-3.613,3.43,25.34,7.14,0.3965038461538466,0.7705999999999982,0.8527884615384616,1.1774769230769229,0.7120211538461538,23.983346153846153,0.0005788461538460687,-0.3944961538461542,6.397865384615384,1.2424441796138614,1.120903965076319,2.242477867631772,2.4202367910586844,-3.042354775604484,-3.0008988940564936,7.57693894158486,7.474270967758896
H1_walk_fast_20251205_051120,,-8.911,0.115,-3.451,-8.729,-0.45,-3.58,3.99,26.81,7.35,0.38750384615384625,0.5695999999999994,1.4127884615384616,1.416476923076923,0.8530211538461538,25.45334615384615,-0.22442115384615402,-0.3614961538461543,6.607865384615384,1.4855742858191676,1.0875517082670532,2.3273741376927455,2.4626435909753037,-3.0613682026596734,-2.990931879022276,7.688268579735114,7.55778840928261
H1_walk_fast_20251205_051120,,-8.811,0.311,-3.714,-9.033,0.084,-3.616,1.82,27.93,7.21,0.4875038461538459,0.26559999999999917,-0.7572115384615385,1.612476923076923,1.3870211538461539,26.573346153846153,-0.4874211538461539,-0.39749615384615433,6.467865384615385,1.753659376471705,1.4670972133908513,2.3503129343650415,2.596962741375327,-3.0783240016137174,-2.976835305558421,7.795783542993865,7.636111199477373
H1_walk_fast_20251205_051120,,-8.61,-0.103,-3.731,-9.21,0.883,-3.745,-2.03,29.47,6.86,0.6885038461538464,0.08859999999999779,-4.607211538461538,1.198476923076923,2.186021153846154,28.11334615384615,-0.5044211538461538,-0.5264961538461543,6.117865384615385,1.471334490102116,2.250274793236964,2.3796769290646465,2.7154871264156935,-3.11178488607199,-2.9593393866495767,7.891139931468748,7.709264382355392
H1_walk_fast_20251205_051120,74126.0,-9.265,1.055,-4.233,-8.789,-0.144,-6.994,-6.16,35.7,5.67,0.033503846153845274,0.5095999999999989,-8.737211538461539,2.356476923076923,1.159021153846154,34.343346153846156,-1.0064211538461536,-3.775496153846154,4.927865384615385,2.562613809299054,3.982134277340478,2.5170746708821556,3.025754688784394,-3.0945129848835533,-2.93999282625981,8.007311611413265,7.773875317656964
H1_walk_fast_20251205_051120,,-9.418,0.792,-4.793,-8.758,-0.404,-6.954,-9.8,35.56,4.62,-0.11949615384615342,0.5405999999999995,-12.37721153846154,2.0934769230769232,0.8990211538461538,34.203346153846155,-1.566421153846154,-3.735496153846154,3.8778653846153848,2.6173651234507505,3.8800024369144768,2.6928010209417597,3.4208237703854016,-3.0720689782325197,-2.9195400258427293,8.12349505250231,7.829985229742352
H1_walk_fast_20251205_051120,,-8.949,0.833,-5.58,-8.928,-0.553,-6.621,-11.06,35.0,3.78,0.349503846153846,0.3705999999999978,-13.637211538461539,2.1344769230769227,0.7500211538461538,33.64334615384615,-2.353421153846154,-3.4024961538461547,3.0378653846153845,3.196362901955099,3.503834494971843,2.899218157908857,3.817945358551765,-3.076606708922671,-2.8960189014900255,8.236858982268682,7.8790950409058444
H1_walk_fast_20251205_051120,,-8.626,0.474,-6.466,-9.208,-0.313,-6.234,-11.27,35.77,2.52,0.6725038461538464,0.09059999999999846,-13.847211538461538,1.775476923076923,0.9900211538461539,34.413346153846156,-3.239421153846154,-3.015496153846154,1.7778653846153847,3.7547874959119008,3.175148390063655,3.1643470627753696,4.0955831539556735,-3.1012188654179984,-2.8693387967816815,8.341656879256316,7.920723389291624
H1_walk_fast_20251205_051120,74202.0,-9.215,-0.345,-5.492,-11.905,0.019,-2.816,16.45,39.06,4.34,0.08350384615384598,-2.6064000000000007,13.87278846153846,0.956476923076923,1.3220211538461537,37.703346153846155,-2.265421153846154,0.40250384615384593,3.5978653846153845,2.460478408967415,2.9500966488210785,3.3839487363804333,4.58354675039289,-3.097434003203254,-2.836006813879652,8.425505560021898,7.953776277681249
H1_walk_fast_20251205_051120,,-11.235,1.603,-5.662,-12.331,-1.622,-1.653,24.57,43.96,1.54,-1.9364961538461536,-3.032400000000001,21.99278846153846,2.904476923076923,-0.3189788461538463,42.603346153846154,-2.435421153846154,1.5655038461538457,0.7978653846153847,4.256439797195382,3.427535493122738,3.7046326341727487,4.98281422218405,-3.037879296174778,-2.7975322868545707,8.484382985515929,7.983919257266224
H1_walk_fast_20251205_051120,,-8.667,-2.553,-4.599,-11.295,-1.792,-1.055,12.46,42.49,-4.62,0.631503846153846,-1.9964000000000013,9.882788461538462,-1.251523076923077,-0.48897884615384624,41.133346153846155,-1.3724211538461542,2.163503846153846,-5.362134615384615,1.961796865963068,2.984202098435767,4.107907547662242,5.34495748379294,-3.093348671958638,-2.7535520918958816,8.365722996715263,8.011804860650837
H1_walk_fast_20251205_051120,,-12.259,0.11,-2.836,-11.373,-0.244,-1.055,11.13,42.21,0.28,-2.9604961538461545,-2.0744000000000007,8.552788461538462,1.411476923076923,1.0590211538461538,40.853346153846154,0.3905788461538462,2.163503846153846,-0.4621346153846153,3.3029314882963345,3.1789007623101617,4.601159018074938,5.784514988877185,-2.98292621071829,-2.7047228582754053,8.382659367202114,8.038983033077717
H1_walk_fast_20251205_051120,74278.0,-11.345,-0.704,-0.55,-11.876,-0.828,-1.084,41.65,76.23,10.15,-2.046496153846155,-2.577400000000001,39.07278846153846,0.597476923076923,0.47502115384615384,74.87334615384616,2.676578846153846,2.1345038461538457,9.407865384615384,3.421870760416709,3.3800506691241914,5.130398763574315,6.072354551697814,-2.8715899698918492,-2.6571085590014194,8.36397995172056,8.060618960755788
H1_walk_fast_20251205_051120,,-11.326,-0.833,-0.273,-12.434,-0.548,-1.098,41.72,84.14,8.05,-2.0274961538461547,-3.1354000000000006,39.14278846153846,0.468476923076923,0.7550211538461538,82.78334615384615,2.953578846153846,2.120503846153846,7.307865384615385,3.613009726220517,3.8597055152314974,5.530663698799248,6.404406399486567,-2.757376811866859,-2.609975460763977,8.33194085901571,8.076163502157117
H1_walk_fast_20251205_051120,,-11.141,-0.543,-0.371,-13.58,1.74,-1.213,41.86,91.56,6.16,-1.8424961538461542,-4.281400000000001,39.28278846153846,0.7584769230769229,3.043021153846154,90.20334615384616,2.855578846153846,2.0055038461538457,5.417865384615385,3.4820123300154235,5.622491385470774,5.871982383782746,6.779319012637185,-2.6222458409153853,-2.5617614252668237,8.305424119558353,8.085861010691278
H1_walk_fast_20251205_051120,,-11.661,-0.378,-0.84,-13.762,0.0,-0.369,39.27,98.42,3.5,-2.3624961538461537,-4.463400000000002,36.69278846153846,0.923476923076923,1.3030211538461538,97.06334615384615,2.386578846153846,2.849503846153846,2.7578653846153847,3.4828086788255415,5.453391225340076,6.1791678824456024,7.16079749161024,-2.505722666436347,-2.5148113547087716,8.282293892408383,8.091160102550592
H1_walk_fast_20251205_051120,74354.0,-12.453,-2.716,1.481,-14.173,-1.565,5.657,9.94,133.56,-3.85,-3.1544961538461536,-4.874400000000001,7.362788461538461,-1.4145230769230772,-0.26197884615384615,132.20334615384616,4.707578846153846,8.875503846153846,-4.592134615384616,5.840635249057527,10.129312750573153,6.5297477529995405,7.450114428299165,-2.428423099281827,-2.4712720370828283,8.172678779652044,8.095723575011355
H1_walk_fast_20251205_051120,,-12.223,-2.132,2.57,-15.001,-3.065,6.884,13.58,143.78,3.01,-2.924496153846155,-5.702400000000001,11.002788461538461,-0.8305230769230771,-1.7619788461538461,142.42334615384615,5.796578846153846,10.102503846153846,2.2678653846153844,6.54543907273156,11.73381946238508,6.8808180666335215,7.699528320182653,-2.3624965453894737,-2.430604221196754,8.062090566811978,8.099900102815054
H1_walk_fast_20251205_051120,,-12.589,-0.854,2.364,-15.329,-3.817,7.595,19.11,151.34,11.83,-3.2904961538461546,-6.030400000000002,16.53278846153846,0.447476923076923,-2.5139788461538464,149.98334615384616,5.590578846153846,10.813503846153846,11.087865384615384,6.502474326764051,12.633989046603336,7.18077538534628,7.883022787678199,-2.2918591109661186,-2.394807775148212,7.987315397745154,8.102651248534537
H1_walk_fast_20251205_051120,,-13.101,-0.809,3.982,-16.181,-3.269,3.254,18.76,161.35,20.51,-3.802496153846155,-6.882400000000002,16.182788461538465,0.4924769230769229,-1.9659788461538463,159.99334615384615,7.208578846153847,6.472503846153845,19.767865384615387,8.164871064566473,9.650171429669049,7.4534142616775565,8.097960483572148,-2.2104119509606885,-2.364187146668807,7.903209131817946,8.103890554790981
H1_walk_fast_20251205_051120,74430.0,-13.876,-1.594,2.649,-18.32,4.518,-13.453,103.32,215.18,58.1,-4.577496153846154,-9.021400000000002,100.74278846153845,-0.2925230769230771,5.821021153846154,213.82334615384616,5.8755788461538465,-10.234496153846154,57.35786538461539,7.453956504191546,14.832897786899773,7.712245386120904,8.306446725142907,-2.034774972527147,-2.3370673939663917,7.793118205082506,8.10307213150373
H1_walk_fast_20251205_051120,,-15.496,6.53,-6.164,-14.219,3.984,-13.362,152.81,223.58,49.77,-6.197496153846155,-4.920400000000001,150.23278846153846,7.831476923076924,5.287021153846154,222.22334615384617,-2.9374211538461537,-10.143496153846154,49.02786538461539,10.41006399637808,12.452045738123052,7.955292153897869,8.550547378479738,-1.898542483193127,-2.3123612707780037,7.831612051165717,8.100371356868987
H1_walk_fast_20251205_051120,,-17.222,6.377,-9.06,-12.455,0.584,-13.975,134.82,213.36,29.54,-7.9234961538461555,-3.1564000000000014,132.24278846153845,7.678476923076923,1.8870211538461539,212.00334615384617,-5.833421153846155,-10.756496153846154,28.797865384615385,12.48076926781276,11.367757883715239,8.214717020201324,8.828865258391152,-1.783993091917186,-2.291410985573798,7.877599827040699,8.096627162767701
H1_walk_fast_20251205_051120,,-18.72,4.965,-12.584,-6.999,-3.288,-16.267,82.95,197.96,20.3,-9.421496153846153,2.299599999999999,80.37278846153846,6.266476923076922,-1.984978846153846,196.60334615384616,-9.357421153846154,-13.048496153846154,19.557865384615386,14.683141811439436,13.397445766138265,8.402858785000733,9.03687104775479,-1.6915356724163901,-2.2770384082222814,7.96127500782153,8.09271111844666
H1_walk_fast_20251205_051120,74505.0,-3.872,-5.564,-17.09,-6.908,-0.778,-11.979,-46.41,83.79,64.12,5.426503846153846,2.3905999999999983,-48.98721153846154,-4.2625230769230775,0.5250211538461538,82.43334615384616,-13.863421153846154,-8.760496153846153,63.37786538461539,15.48581586686776,9.095983093296688,8.61647389676218,9.023981215402584,-1.7604242649507702,-2.263702778285692,7.918280657577339,8.092182469955816
H1_walk_fast_20251205_051120,,-5.853,-6.734,-13.551,-4.963,0.419,-11.948,0.7,80.5,70.42,3.445503846153846,4.335599999999999,-1.8772115384615387,-5.4325230769230775,1.7220211538461538,79.14334615384615,-10.324421153846155,-8.729496153846155,69.67786538461539,12.164599290447207,9.8978223521292,8.74977533996437,9.010589423404715,-1.790137913688664,-2.2571946823600153,7.869708177988784,8.088937118273448
H1_walk_fast_20251205_051120,,-8.344,-4.927,-12.623,-2.84,0.519,-11.768,45.29,43.47,70.21,0.9545038461538464,6.458599999999999,42.71278846153846,-3.6255230769230766,1.822021153846154,42.11334615384615,-9.396421153846154,-8.549496153846155,69.46786538461538,10.116729989184831,10.868631906992391,8.849924214364936,9.011864073967267,-1.7887898526785049,-2.2578154874833243,7.829074163473079,8.084577815490977
H1_walk_fast_20251205_051120,,-7.595,-3.029,-12.383,-1.764,0.179,-11.103,75.25,2.24,72.38,1.703503846153846,7.534599999999998,72.67278846153846,-1.727523076923077,1.4820211538461538,0.883346153846154,-9.156421153846154,-7.884496153846154,71.63786538461538,9.472397251053401,11.005992161566455,8.872313527807954,8.998649286733052,-1.840666368150318,-2.2660925309362785,7.826044968077245,8.082267053247802
H1_walk_fast_20251205_051120,74581.0,-1.106,0.115,-10.227,-1.881,-1.661,-8.284,32.69,-135.03,74.06,8.192503846153846,7.417599999999998,30.112788461538457,1.416476923076923,-0.35797884615384623,-136.38665384615385,-7.000421153846155,-5.065496153846155,73.31786538461539,10.868736010874114,8.989337567302933,8.864217242258247,8.924883463054066,-1.9463017433391814,-2.2763504167298416,7.914433826973689,8.084680172972988
H1_walk_fast_20251205_051120,,-1.187,0.014,-9.921,-2.077,-1.886,-8.098,10.57,-154.35,72.59,8.111503846153846,7.221599999999999,7.992788461538462,1.315476923076923,-0.5829788461538461,-155.70665384615384,-6.694421153846154,-4.879496153846155,71.84786538461539,10.599162644585629,8.735035982207645,8.833225169774959,8.837702072586213,-2.0544216730340645,-2.290973904399208,7.999729654364931,8.092899613916499
H1_walk_fast_20251205_051120,,-0.936,-0.395,-9.277,-2.094,-1.965,-8.145,-13.65,-173.11,70.28,8.362503846153846,7.204599999999999,-16.22721153846154,0.906476923076923,-0.6619788461538463,-174.46665384615386,-6.050421153846154,-4.926496153846154,69.53786538461539,10.361504095830774,8.75299043222464,8.70808071751367,8.556127778569971,-2.1638053876214607,-2.310921342713855,8.078841400119787,8.109391621070275
H1_walk_fast_20251205_051120,,-1.213,-1.07,-8.591,-1.412,-2.259,-8.37,-34.02,-192.15,65.45,8.085503846153845,7.886599999999999,-36.59721153846154,0.2314769230769229,-0.9559788461538461,-193.50665384615385,-5.364421153846154,-5.1514961538461534,64.70786538461539,9.705975908063953,9.468382530157161,8.59825593117874,8.225791680772987,-2.275932637767997,-2.336434725426643,8.155717015169863,8.133131058344683
H1_walk_fast_20251205_051120,74657.0,-0.9,-1.785,-8.495,-2.185,-0.603,-8.562,-26.25,-279.3,35.14,8.398503846153845,7.113599999999998,-28.82721153846154,-0.48352307692307694,0.7000211538461538,-280.65665384615386,-5.268421153846154,-5.343496153846154,34.397865384615386,9.92597213748214,8.924476775811605,8.501448071266044,8.03770394479675,-2.3714931386598725,-2.366322827359366,8.215579976800118,8.160585977395758
H1_walk_fast_20251205_051120,,-0.881,-1.773,-8.741,-2.69,0.053,-9.938,-35.56,-292.53,32.83,8.417503846153846,6.608599999999999,-38.13721153846154,-0.47152307692307693,1.3560211538461537,-293.8866538461538,-5.514421153846154,-6.719496153846155,32.087865384615384,10.074003458112953,9.521765376821229,8.345212016760842,7.834855363171276,-2.4588596625199055,-2.400735118574304,8.271436738753044,8.195723836464483
H1_walk_fast_20251205_051120,,-1.67,-2.206,-8.299,-1.924,-0.768,-10.225,-37.59,-306.74,29.4,7.628503846153846,7.374599999999999,-40.167211538461544,-0.904523076923077,0.5350211538461538,-308.09665384615386,-5.072421153846154,-7.006496153846154,28.657865384615384,9.205524932857244,10.186361526517887,8.61286938223149,7.511973089377691,-2.552726587893913,-2.4395172417528785,8.328156513388494,8.232555145486243
H1_walk_fast_20251205_051120,,-1.778,-1.725,-8.418,-2.848,-2.379,-9.16,-34.72,-321.58,24.22,7.520503846153845,6.450599999999999,-37.29721153846154,-0.4235230769230771,-1.0759788461538462,-322.93665384615383,-5.191421153846154,-5.941496153846154,23.477865384615384,9.148125681980025,8.835686016577275,8.946930049099894,7.378829878102044,-2.664192285035337,-2.4780600948489213,8.382565833168808,8.267877985860403
H1_walk_fast_20251205_051120,74733.0,-4.089,-3.486,-8.184,-7.796,0.352,-4.64,-26.11,-357.42,-15.96,5.209503846153845,1.5025999999999984,-28.68721153846154,-2.1845230769230772,1.6550211538461537,-358.77665384615386,-4.957421153846154,-1.421496153846154,-16.702134615384615,7.515789771760684,2.6490664572784235,8.9683285186627,7.17805558665365,-2.7466222936073192,-2.523755706157225,8.351978135953335,8.304677105018467
H1_walk_fast_20251205_051120,,-5.111,-3.69,-7.978,-8.957,1.491,-3.518,-8.19,-358.54,-24.99,4.187503846153846,0.3415999999999979,-10.767211538461538,-2.388523076923077,2.794021153846154,-359.89665384615387,-4.751421153846154,-0.299496153846154,-25.732134615384613,6.768769011553286,2.830714170365569,9.037209949930464,6.9174210151253055,-2.8137157166507003,-2.576413658181712,8.298280223460509,8.341007560452582
H1_walk_fast_20251205_051120,,-5.906,-2.666,-8.016,-9.667,1.766,-1.771,10.22,-357.21,-29.19,3.392503846153846,-0.36840000000000117,7.642788461538462,-1.364523076923077,3.069021153846154,-358.5666538461538,-4.789421153846154,1.4475038461538459,-29.932134615384616,6.025741494831428,3.413191583750516,9.01397209320903,6.885413491258818,-2.8877309030978715,-2.6301757725292627,8.250638079376381,8.383550052888902
H1_walk_fast_20251205_051120,,-7.274,-0.811,-6.868,-9.474,1.376,-0.948,23.03,-347.06,-23.52,2.024503846153846,-0.17540000000000155,20.45278846153846,0.4904769230769229,2.6790211538461537,-348.41665384615385,-3.6414211538461543,2.270503846153846,-24.262134615384614,4.195131875738947,3.5161210471419473,8.98596844183375,6.67412321026573,-2.972579941643677,-2.686120627276661,8.271861040693167,8.431505295453036
H1_walk_fast_20251205_051120,74808.0,-10.021,0.017,-0.321,-7.073,-0.419,-0.392,-44.59,-234.29,-37.66,-0.722496153846155,2.2255999999999982,-47.167211538461544,1.3184769230769229,0.8840211538461538,-235.64665384615384,2.905578846153846,2.826503846153846,-38.40213461538461,3.2715089057231057,3.704579969817086,8.785348532633817,6.478315705838458,-2.888950871548015,-2.740186609029581,8.368165232413148,8.485371961071682
H1_walk_fast_20251205_051120,,-9.191,0.141,-0.974,-7.227,-0.905,-0.83,-61.25,-200.34,-44.66,0.10750384615384512,2.0715999999999983,-63.82721153846154,1.442476923076923,0.3980211538461538,-201.69665384615385,2.2525788461538463,2.3885038461538457,-45.40213461538461,2.677014794260041,3.186675073175916,8.653826498163058,6.312683429993606,-2.8859333458398795,-2.791052335421739,8.49599935693967,8.543430111080085
H1_walk_fast_20251205_051120,,-8.038,0.495,-1.857,-7.212,-0.459,-1.539,-74.48,-160.79,-45.71,1.2605038461538456,2.086599999999999,-77.05721153846154,1.796476923076923,0.8440211538461537,-162.14665384615384,1.369578846153846,1.6795038461538458,-46.452134615384615,2.586879490264026,2.8083811061508994,8.496566870933954,6.224558529192981,-2.9470564954626535,-2.836589503681789,8.601470965650199,8.602126228603417
H1_walk_fast_20251205_051120,,-7.014,0.345,-0.842,-6.71,0.483,-3.19,-81.55,-116.06,-39.34,2.2845038461538456,2.5885999999999987,-84.12721153846154,1.646476923076923,1.786021153846154,-117.41665384615385,2.384578846153846,0.028503846153845824,-40.08213461538462,3.689994628023322,3.1450809196635148,8.327597887508567,6.0876098811750365,-3.0258444959219473,-2.876903370206856,8.679315935946576,8.66173719116249
H1_walk_fast_20251205_051120,74884.0,-6.497,0.639,-5.293,-13.467,3.063,-8.069,-69.86,119.07,13.65,2.801503846153846,-4.168400000000002,-72.43721153846154,1.940476923076923,4.3660211538461535,117.71334615384615,-2.066421153846154,-4.850496153846155,12.907865384615384,3.9854699690339843,7.743707911221113,8.062749737215457,5.783311566055853,-3.068949761216934,-2.9130675229741994,8.701143293073162,8.722532992946176
H1_walk_fast_20251205_051120,,-8.737,-0.223,-7.145,-7.597,-0.488,-7.167,-69.37,150.85,19.18,0.5615038461538457,1.7015999999999982,-71.94721153846154,1.0784769230769229,0.8150211538461538,149.49334615384615,-3.9184211538461535,-3.948496153846154,18.437865384615385,4.102733647431191,4.376108307406774,7.785143689815419,5.462739382174069,-3.1051315225490757,-2.945017606697159,8.816793467604807,8.776504504702151
H1_walk_fast_20251205_051120,,-15.922,-9.722,6.415,-7.27,-2.345,-9.239,-76.72,158.13,35.63,-6.623496153846155,2.028599999999999,-79.29721153846154,-8.420523076923077,-1.0419788461538464,156.77334615384615,9.641578846153847,-6.020496153846155,34.88786538461539,14.41304800642842,6.437958668266552,7.492186448611008,5.177236858447789,-3.0431101751700806,-2.973587230447111,8.750732239648233,8.824002740175324
H1_walk_fast_20251205_051120,,-27.227,-7.875,-3.19,-5.214,1.979,-10.524,-53.83,150.85,25.9,-17.928496153846154,4.084599999999998,-56.40721153846154,-6.5735230769230775,3.282021153846154,149.49334615384615,0.0365788461538461,-7.305496153846153,25.157865384615384,19.095641334956586,8.990322244956214,7.165577589173704,4.851564015336246,-2.900656663690241,-3.0007623568706823,8.750005900893889,8.8658413547152
H1_walk_fast_20251205_051120,74959.0,-2.4,6.255,-11.306,-9.115,-1.893,-9.335,-44.03,127.33,-19.04,6.8985038461538455,0.18359999999999843,-46.60721153846154,7.556476923076923,-0.5899788461538462,125.97334615384615,-8.079421153846154,-6.116496153846155,-19.782134615384614,13.037129476445733,6.147626306056983,6.845583654429793,4.578656123233007,-2.9720789859330874,-3.0218043379023953,8.834376925150318,8.909590441098409
H1_walk_fast_20251205_051120,,-3.135,7.621,-15.628,-11.472,-4.855,-8.366,-68.88,128.52,-4.2,6.163503846153846,-2.173400000000001,-71.45721153846154,8.922476923076923,-3.5519788461538466,127.16334615384616,-12.401421153846155,-5.147496153846154,-4.9421346153846155,16.474059024401253,6.620946906401331,6.55388276577522,4.320052685105129,-3.060642425053031,-3.0365415621703327,8.905866849108552,8.955278599875781
H1_walk_fast_20251205_051120,,-6.329,7.672,-14.721,-8.031,-8.626,-6.832,-97.09,118.51,-3.64,2.969503846153846,1.267599999999998,-99.66721153846154,8.973476923076923,-7.322978846153846,117.15334615384616,-11.494421153846154,-3.613496153846154,-4.382134615384615,14.881631592110542,8.26378747276802,6.36529885431419,4.247658503542258,-3.158239237987102,-3.047785621303013,9.02438546092165,9.006336796512555
H1_walk_fast_20251205_051120,,-5.494,3.242,-13.008,-8.622,-3.587,-6.923,-122.5,111.37,-3.5,3.804503846153846,0.6765999999999988,-125.07721153846154,4.543476923076923,-2.2839788461538464,110.01334615384616,-9.781421153846154,-3.7044961538461543,-4.242134615384615,11.436504354689896,4.404275046308893,6.228994504501939,4.176291128825624,-3.2447041371210292,-3.0571138962511686,9.116544484656258,9.063564186628518
H1_walk_fast_20251205_051120,75035.0,-9.347,0.419,-7.815,-9.091,2.771,-7.31,42.42,82.25,23.03,-0.04849615384615369,0.20759999999999934,39.84278846153846,1.720476923076923,4.074021153846154,80.89334615384615,-4.588421153846154,-4.091496153846154,22.287865384615387,4.900612349986578,5.777636791883323,6.058400132957863,4.15840974265753,-3.1945053782544197,-3.061230086469498,9.229607469557898,9.126188447563361
H1_walk_fast_20251205_051120,,-8.344,2.694,-7.672,-9.531,3.833,-7.514,29.61,78.75,21.7,0.9545038461538464,-0.23240000000000194,27.03278846153846,3.995476923076923,5.136021153846154,77.39334615384615,-4.445421153846153,-4.2954961538461545,20.957865384615385,6.0528243548136755,6.699552989600298,5.991209764086486,4.116771634665659,-3.1631752543464153,-3.060490920957693,9.335556868295708,9.19165577138465
H1_walk_fast_20251205_051120,,-8.133,3.769,-7.574,-9.639,3.908,-7.413,5.04,73.5,20.23,1.1655038461538467,-0.3404000000000007,2.4627884615384614,5.070476923076923,5.211021153846154,72.14334615384615,-4.347421153846154,-4.1944961538461545,19.487865384615386,6.7799857029173785,6.698090146486704,5.942657931389354,4.07126280571528,-3.130268118100497,-3.0611690927209065,9.440532882580348,9.256729977893613
H1_walk_fast_20251205_051120,,-8.667,3.269,-7.377,-9.371,2.395,-6.837,-12.25,67.97,20.72,0.631503846153846,-0.0724000000000018,-14.827211538461539,4.570476923076923,3.698021153846154,66.61334615384615,-4.150421153846153,-3.618496153846154,19.977865384615384,6.205969075525548,5.174371133741089,5.92462288844058,4.053413260876394,-3.102582202685782,-3.058910615255769,9.549614680900833,9.319407612327673
H1_walk_fast_20251205_051120,75111.0,-9.22,0.263,-6.329,-9.258,-1.235,-4.056,-30.87,43.89,3.57,0.0785038461538452,0.040599999999999525,-33.44721153846154,1.5644769230769229,0.0680211538461537,42.53334615384615,-3.1024211538461537,-0.8374961538461543,2.8278653846153845,3.475452188209943,0.8412342391258593,5.957612724600249,4.11943972270426,-3.1040733595723906,-3.0509254471899965,9.659532246495626,9.375361065715278
H1_walk_fast_20251205_051120,,-9.263,-1.551,-5.702,-9.675,-0.395,-3.783,-25.34,41.58,2.03,0.03550384615384594,-0.37640000000000207,-27.917211538461537,-0.24952307692307696,0.9080211538461538,40.22334615384615,-2.475421153846154,-0.5644961538461541,1.2878653846153845,2.488218675662953,1.1335057492307672,5.971736286896481,4.1764285491952755,-3.1066348145649583,-3.0369698387662236,9.558976320825192,9.424995529031895
H1_walk_fast_20251205_051120,,-9.088,-2.304,-5.296,-9.603,0.067,-3.752,-11.97,38.92,1.89,0.21050384615384665,-0.3044000000000011,-14.54721153846154,-1.0025230769230769,1.3700211538461537,37.563346153846155,-2.069421153846154,-0.533496153846154,1.1478653846153846,2.3090838661674513,1.5014111589283552,5.983338647290508,4.032310765980947,-3.11430335615862,-3.017944130948341,9.450534099102617,9.470597497366182
H1_walk_fast_20251205_051120,,-8.904,-1.871,-4.649,-9.454,-0.278,-3.41,2.52,37.1,3.01,0.3945038461538459,-0.15540000000000198,-0.05721153846153859,-0.569523076923077,1.0250211538461538,35.743346153846154,-1.422421153846154,-0.19149615384615437,2.2678653846153844,1.5821731127430811,1.0542714559210882,5.995152221564023,4.01231501939825,-3.1654129495327643,-2.9932448915886765,9.359240716789845,9.509093272787583
H1_walk_fast_20251205_051120,75187.0,-9.531,-0.522,-3.577,-8.99,1.694,-3.908,1.33,31.29,1.75,-0.23249615384615474,0.30859999999999843,-1.2472115384615385,0.779476923076923,2.9970211538461538,29.933346153846152,-0.3504211538461539,-0.6894961538461541,1.0078653846153847,0.8856826295155574,3.0907563318336777,5.583286932184897,4.0472458274841046,-3.0998180947184433,-2.966524837370066,9.465632759351916,9.54926980029132
H1_walk_fast_20251205_051120,,-9.576,-0.287,-4.384,-9.268,0.797,-3.441,2.52,28.91,0.98,-0.27749615384615467,0.030599999999997962,-0.05721153846153859,1.014476923076923,2.100021153846154,27.553346153846153,-1.1574211538461543,-0.22249615384615407,0.23786538461538465,1.5639025769611075,2.1119966252524325,4.9817761098626425,4.006070121612001,-3.047360116001706,-2.942095263605341,9.570457961380496,9.588252793890973
H1_walk_fast_20251205_051120,,-9.33,0.653,-4.96,-9.261,-0.78,-2.659,2.1,26.11,0.7,-0.03149615384615423,0.03759999999999941,-0.4772115384615385,1.954476923076923,0.5230211538461538,24.753346153846152,-1.733421153846154,0.559503846153846,-0.04213461538461538,2.6126080737739192,0.7668177366437924,4.632836182016816,4.136525469162252,-3.0389678310569996,-2.9114477913659638,9.679491248509446,9.621688692639495
H1_walk_fast_20251205_051120,,-8.744,1.639,-4.429,-9.301,-1.005,-2.29,-0.7,25.69,2.59,0.5545038461538461,-0.002400000000001512,-3.277211538461539,2.9404769230769228,0.2980211538461539,24.333346153846154,-1.2024211538461542,0.9285038461538457,1.8478653846153845,3.2248559164347252,0.9751624277330815,4.262884991893987,4.330530381802494,-3.0562508653027542,-2.874327159348027,9.786192366475568,9.651797609805158
H1_walk_fast_20251205_051120,75262.0,-9.593,-0.256,-2.065,-9.818,0.648,-1.07,8.33,40.67,17.43,-0.29449615384615413,-0.519400000000001,5.7527884615384615,1.045476923076923,1.951021153846154,39.313346153846155,1.161578846153846,2.1485038461538455,16.687865384615385,1.5902878346854912,2.9482755433800696,4.3003179263959925,4.40722295125454,-2.994751848774442,-2.826465381869087,9.878868863682287,9.673525638297631
H1_walk_fast_20251205_051120,,-9.835,0.725,-1.962,-9.878,-0.682,-0.938,16.31,44.17,18.83,-0.536496153846155,-0.5794000000000015,13.73278846153846,2.026476923076923,0.6210211538461538,42.813346153846155,1.264578846153846,2.280503846153846,18.087865384615384,2.4481822850831234,2.433530239353293,4.502525538431049,4.784057798816607,-2.953361638336749,-2.768216728580913,9.97401146004666,9.686295334049747
H1_walk_fast_20251205_051120,,-9.866,0.235,-2.063,-10.27,-1.378,-0.893,13.79,49.07,18.48,-0.5674961538461538,-0.9714000000000009,11.21278846153846,1.5364769230769229,-0.07497884615384609,47.71334615384615,1.1635788461538459,2.325503846153846,17.737865384615386,2.009161255597674,2.5213504171072483,4.778100063128785,5.106017078409442,-2.906583337391567,-2.705686830643846,10.06009460164621,9.689989946290517
H1_walk_fast_20251205_051120,,-9.938,-0.203,-1.421,-10.34,-0.775,-0.759,14.56,54.6,22.12,-0.6394961538461548,-1.0414000000000012,11.982788461538462,1.098476923076923,0.5280211538461538,53.243346153846154,1.805578846153846,2.459503846153846,21.377865384615387,2.2081036775918883,2.7225869073648665,4.857281963792408,5.344613357822668,-2.8272129317463075,-2.6383118511644463,10.125617852225197,9.687886106733513
H1_walk_fast_20251205_051120,75338.0,-10.852,-1.455,-0.156,-11.905,-2.027,0.409,42.98,84.0,21.7,-1.5534961538461545,-2.6064000000000007,40.40278846153846,-0.1535230769230771,-0.7239788461538463,82.64334615384615,3.070578846153846,3.6275038461538456,20.957865384615385,3.4446152304154682,4.525069113675414,5.01076601904415,5.514754189323417,-2.7394421257525643,-2.5709878917420173,10.056260753727926,9.685153154746326
H1_walk_fast_20251205_051120,,-11.208,-1.922,0.299,-12.218,-2.467,0.177,46.48,91.0,18.97,-1.9094961538461543,-2.9194000000000013,43.90278846153846,-0.620523076923077,-1.1639788461538463,89.64334615384615,3.525578846153846,3.395503846153846,18.227865384615384,4.057207247725315,4.6267904084299305,5.22170004525132,5.674896324375323,-2.662998676903861,-2.5039691108812656,9.96981198217865,9.682154496570767
H1_walk_fast_20251205_051120,,-11.464,-1.989,0.409,-12.087,-1.402,-0.357,49.98,97.93,16.8,-2.1654961538461546,-2.788400000000001,47.40278846153846,-0.6875230769230771,-0.09897884615384611,96.57334615384616,3.635578846153846,2.8615038461538456,16.057865384615386,4.287131339278702,3.996645547648578,5.68198754579142,5.997652585397834,-2.5742813579519708,-2.4408909860855283,9.886794469764617,9.67352297752707
H1_walk_fast_20251205_051120,,-11.682,-1.608,0.471,-12.245,0.041,-1.125,48.23,104.86,15.33,-2.3834961538461545,-2.9464000000000006,45.65278846153846,-0.3065230769230771,1.3440211538461537,103.50334615384615,3.697578846153846,2.0935038461538458,14.587865384615384,4.409886578542606,3.856218896256655,6.1655215016579294,6.287761676087385,-2.462951299197819,-2.3802826787899316,9.817683628561252,9.666674433644395
H1_walk_fast_20251205_051120,75414.0,-12.29,0.345,-1.79,-15.547,0.517,0.189,17.99,139.02,2.52,-2.9914961538461533,-6.248400000000002,15.41278846153846,1.646476923076923,1.8200211538461537,137.66334615384616,1.436578846153846,3.407503846153846,1.7778653846153847,3.704550482571117,7.3461596784987435,6.445178382731588,6.643457015468699,-2.3483887654861824,-2.3225477526825773,9.795321954745381,9.667831355599322
H1_walk_fast_20251205_051120,,-12.448,-0.481,-2.063,-13.817,-2.991,3.063,3.43,144.62,-0.63,-3.1494961538461546,-4.5184000000000015,0.8527884615384616,0.820476923076923,-1.6879788461538463,143.26334615384616,1.1635788461538459,6.281503846153846,-1.3721346153846152,3.4563599545779677,7.9197538922815305,6.805433790498256,6.995303230344023,-2.265487745807393,-2.2660667158525394,9.763563734484855,9.67631508057989
H1_walk_fast_20251205_051120,,-13.058,-1.06,-1.991,-14.625,-2.008,4.664,-1.47,150.29,-0.42,-3.759496153846154,-5.326400000000001,-4.047211538461538,0.24147692307692292,-0.7049788461538462,148.93334615384614,1.235578846153846,7.8825038461538455,-1.1621346153846153,3.96469135245426,9.539465342363512,7.224093409705384,7.254725627407383,-2.1752447077092967,-2.2152756439971286,9.703710292611895,9.684402339172298
H1_walk_fast_20251205_051120,,-14.726,2.467,-1.4,-15.877,-1.484,6.413,12.25,153.86,1.82,-5.427496153846155,-6.578400000000002,9.672788461538461,3.768476923076923,-0.18097884615384618,152.50334615384617,1.8265788461538461,9.631503846153846,1.0778653846153847,6.855328081207699,11.665074635047626,7.611697049973182,7.583738238144504,-2.0955059925866655,-2.1693255699692027,9.688698695415763,9.692325101748521
H1_walk_fast_20251205_051120,75490.0,-17.475,-2.73,10.282,-14.951,7.251,-3.537,64.68,203.7,44.87,-8.176496153846156,-5.652400000000002,62.102788461538466,-1.428523076923077,8.554021153846154,202.34334615384614,13.508578846153846,-0.31849615384615415,44.12786538461538,15.854887889162695,10.257794278521201,7.9594608423965765,7.9415078465598254,-1.9138330235346543,-2.1274679469586304,9.589314201725964,9.700122648020866
H1_walk_fast_20251205_051120,,-19.493,-2.539,9.935,-20.304,6.324,-7.952,95.76,213.15,54.53,-10.194496153846153,-11.0054,93.18278846153846,-1.2375230769230772,7.627021153846154,211.79334615384616,13.161578846153846,-4.733496153846154,53.78786538461539,16.693902267601352,14.201981082922659,8.275494713426172,8.276300374285102,-1.7302391516285236,-2.088659347007341,9.448556574211294,9.707334209847913
H1_walk_fast_20251205_051120,,-18.533,-0.873,4.527,-20.825,3.056,-10.17,108.64,221.97,49.35,-9.234496153846155,-11.5264,106.06278846153846,0.428476923076923,4.359021153846154,220.61334615384615,7.753578846153847,-6.951496153846154,48.60786538461539,12.065549992127723,14.148578061297046,8.654107134214005,8.545107897285257,-1.5687280318906667,-2.0559579011793963,9.32566738781787,9.714024359002341
H1_walk_fast_20251205_051120,,-16.317,2.252,-1.249,-18.181,3.034,-11.512,96.6,233.59,33.11,-7.018496153846154,-8.882400000000002,94.02278846153845,3.5534769230769228,4.337021153846154,232.23334615384616,1.977578846153846,-8.293496153846155,32.367865384615385,8.11155377206788,12.903056254344163,8.95617737965636,8.823226634169998,-1.4114257878820329,-2.02882037367148,9.280857039813647,9.71937914606791
H1_walk_fast_20251205_051120,75566.0,-13.175,3.013,-12.302,-8.603,-7.48,-12.441,-20.44,141.54,-3.78,-3.876496153846155,0.6955999999999989,-23.017211538461538,4.314476923076922,-6.176978846153847,140.18334615384614,-9.075421153846154,-9.222496153846155,-4.522134615384616,10.77057113946264,11.121751765506152,9.232526926082128,8.960989913688282,-1.3798451731173471,-2.006429511865797,9.369476130913453,9.722123853369897
H1_walk_fast_20251205_051120,,-10.213,0.593,-14.726,-8.916,-5.779,-11.405,-80.22,96.11,3.43,-0.9144961538461533,0.3825999999999983,-82.79721153846154,1.894476923076923,-4.475978846153846,94.75334615384615,-11.499421153846155,-8.186496153846154,2.687865384615385,11.690253756911988,9.338066645090652,9.478152613766458,9.024093897477933,-1.360093900306234,-1.9900293161027456,9.471649568336359,9.722370904020382
H1_walk_fast_20251205_051120,,-6.257,-3.039,-18.267,-7.739,-3.874,-11.948,-89.88,75.74,22.4,3.041503846153846,1.5595999999999988,-92.45721153846154,-1.7375230769230772,-2.5709788461538463,74.38334615384615,-15.040421153846154,-8.729496153846155,21.657865384615384,15.442927202252548,9.232897025711127,9.636298000593174,8.992125707894978,-1.4640421148832143,-1.979965661072176,9.435112751359455,9.7258453057956
H1_walk_fast_20251205_051120,,-5.102,-5.391,-17.1,-7.21,-1.613,-11.634,-43.12,76.58,37.73,4.1965038461538455,2.0885999999999987,-45.69721153846154,-4.0895230769230775,-0.3099788461538462,75.22334615384615,-13.873421153846156,-8.415496153846155,36.98786538461538,15.06010152819218,8.676342107159115,9.767823778589575,8.92944777312107,-1.5308188248794543,-1.9755255409882437,9.38091417987568,9.734899557251765
H1_walk_fast_20251205_051120,75641.0,-5.102,-0.529,-11.804,-0.993,0.311,-9.849,87.22,-98.28,52.22,4.1965038461538455,8.305599999999998,84.64278846153846,0.772476923076923,1.6140211538461537,-99.63665384615385,-8.577421153846155,-6.630496153846154,51.477865384615384,9.580162774082595,10.74948998284251,9.65508792502544,8.99654021534075,-1.6131952773673954,-1.9789221745602876,9.480614069930672,9.750889593072312
H1_walk_fast_20251205_051120,,-2.639,0.151,-11.795,-1.29,0.215,-9.354,78.54,-127.26,56.84,6.6595038461538465,8.008599999999998,75.96278846153847,1.452476923076923,1.5180211538461539,-128.61665384615384,-8.568421153846154,-6.135496153846153,56.09786538461539,10.94881371467645,10.202273042679524,9.572484932006704,9.086841746527304,-1.6969059919517786,-1.987681503252144,9.579817566284616,9.76743735123636
H1_walk_fast_20251205_051120,,-1.079,0.479,-11.462,-1.522,0.433,-8.985,68.46,-149.1,58.45,8.219503846153845,7.776599999999998,65.88278846153845,1.780476923076923,1.7360211538461539,-150.45665384615384,-8.235421153846154,-5.766496153846154,57.70786538461539,11.770832728900876,9.83573865548103,9.573368422412132,9.031203748249757,-1.7792502264777685,-2.000951243582798,9.675901482754526,9.782271667879542
H1_walk_fast_20251205_051120,,-0.704,0.565,-10.854,-1.043,1.292,-9.454,56.49,-166.67,60.13,8.594503846153845,8.2556,53.91278846153846,1.866476923076923,2.5950211538461536,-168.02665384615383,-7.627421153846154,-6.235496153846155,59.38786538461539,11.64159722392386,10.666324504417592,9.621321823552538,8.955786114748019,-1.8526581912756317,-2.0183007704963214,9.776449788362326,9.796257379025354
H1_walk_fast_20251205_051120,75717.0,-0.144,1.378,-9.923,-1.251,-1.448,-9.268,-37.8,-272.16,54.95,9.154503846153846,8.0476,-40.37721153846154,2.6794769230769226,-0.14497884615384615,-273.5166538461539,-6.696421153846154,-6.049496153846155,54.20786538461539,11.654466676782151,10.068827555442168,9.722480396550072,8.667565973569175,-1.9506696327821134,-2.040430718357829,9.882227451590378,9.816280129151842
H1_walk_fast_20251205_051120,,-0.117,0.637,-9.773,-1.883,-1.146,-9.438,-45.15,-285.6,50.26,9.181503846153845,7.415599999999999,-47.72721153846154,1.938476923076923,0.1570211538461539,-286.95665384615387,-6.546421153846154,-6.219496153846155,49.517865384615384,11.441736563204207,9.679768148590247,9.69910260667473,8.455625679448973,-2.047227266569232,-2.069620955711641,9.97369297397879,9.840500594618279
H1_walk_fast_20251205_051120,,-0.321,-0.208,-10.223,-2.245,-1.247,-10.218,-45.85,-300.65,45.78,8.977503846153846,7.0535999999999985,-48.42721153846154,1.093476923076923,0.05602115384615369,-302.0066538461538,-6.996421153846155,-6.999496153846154,45.03786538461539,11.434210775169174,9.937271141384104,10.387433284710438,8.49801858689578,-2.1445142572478684,-2.102436181985035,10.052812741697457,9.866008721959181
H1_walk_fast_20251205_051120,,-1.113,-1.196,-9.481,-2.972,-1.902,-10.5,-33.67,-315.21,43.05,8.185503846153846,6.326599999999999,-36.24721153846154,0.10547692307692302,-0.5989788461538461,-316.5666538461538,-6.254421153846154,-7.281496153846154,42.30786538461538,10.302008666584369,9.66461739835655,10.636265198674398,8.472582752486858,-2.2477859231309387,-2.1359487508511608,10.113235923751438,9.898332730696374
H1_walk_fast_20251205_051120,75792.0,-3.47,-2.146,-10.287,-5.592,1.302,-7.308,21.0,-384.65,16.52,5.828503846153845,3.706599999999999,18.42278846153846,-0.8445230769230769,2.605021153846154,-386.0066538461538,-7.060421153846155,-4.089496153846154,15.777865384615385,9.194249462667633,6.103195684582662,10.883883033560437,8.260233467384008,-2.324420930443808,-2.1787429508890304,10.131456991497846,9.935764106505664
H1_walk_fast_20251205_051120,,-4.197,-1.924,-10.115,-7.662,1.598,-6.037,27.93,-387.8,11.2,5.101503846153846,1.6365999999999987,25.35278846153846,-0.622523076923077,2.9010211538461537,-389.15665384615386,-6.888421153846155,-2.818496153846154,10.457865384615385,8.594371557384488,4.363290485895757,11.29547503615268,8.033698054250722,-2.400807841906969,-2.231493896143144,10.132041169137837,9.97888625101791
H1_walk_fast_20251205_051120,,-4.604,-0.928,-9.136,-8.425,1.843,-4.946,25.41,-388.99,5.32,4.694503846153846,0.8735999999999979,22.832788461538463,0.37347692307692293,3.1460211538461538,-390.34665384615386,-5.909421153846154,-1.727496153846154,4.577865384615385,7.556395287910013,3.6938961845185547,11.580279053417396,7.806226995708357,-2.47778709495776,-2.289121595111891,10.146595199883597,10.022092813315043
H1_walk_fast_20251205_051120,,-5.319,0.967,-9.136,-8.665,1.223,-4.702,11.2,-386.54,0.21,3.979503846153846,0.6335999999999995,8.62278846153846,2.268476923076923,2.5260211538461537,-387.89665384615387,-5.909421153846154,-1.4834961538461542,-0.5321346153846154,7.476877475631803,2.9971641043083688,11.431142613973464,7.630905885126373,-2.547555554721616,-2.345412957640737,10.20522252003892,10.065548835739433
H1_walk_fast_20251205_051120,75868.0,-8.545,-0.916,-4.286,-4.051,-2.702,-1.357,-72.38,-281.47,-57.19,0.7535038461538459,5.2475999999999985,-74.95721153846154,0.38547692307692294,-1.3989788461538462,-282.8266538461539,-1.0594211538461535,1.8615038461538458,-57.93213461538461,1.3559991466111643,5.74104904536022,11.06034806210731,7.4770719056749915,-2.6625938308251156,-2.3973785332012163,10.302535401098833,10.114481934937478
H1_walk_fast_20251205_051120,,-8.526,-3.367,-3.731,-4.116,-0.024,-0.057,-92.68,-241.5,-61.18,0.772503846153846,5.182599999999999,-95.25721153846155,-2.065523076923077,1.2790211538461538,-242.85665384615385,-0.5044211538461538,3.161503846153846,-61.922134615384614,2.2622087600554788,6.204058707107106,10.795802769428168,7.290488350894752,-2.6906938451860847,-2.4462080346582358,10.247925340826516,10.169341960588925
H1_walk_fast_20251205_051120,,-8.002,-4.752,-3.781,-5.403,2.484,-0.919,-98.98,-197.54,-56.42,1.2965038461538452,3.895599999999999,-101.55721153846154,-3.450523076923077,3.787021153846154,-198.89665384615384,-0.5544211538461541,2.2995038461538457,-57.162134615384616,3.727521233112229,5.899571723282511,10.66589620276183,7.017969370365479,-2.6934020140831794,-2.491868822775219,10.1810141874681,10.224370823170089
H1_walk_fast_20251205_051120,,-6.025,-4.654,-3.632,-6.245,3.814,-3.226,-85.89,-149.03,-43.19,3.2735038461538455,3.0535999999999985,-88.46721153846154,-3.352523076923077,5.117021153846154,-150.38665384615385,-0.40542115384615407,-0.007496153846154208,-43.93213461538461,4.703148384228563,5.958895421236346,10.488308767075932,6.774724706389942,-2.7165754455590023,-2.533291089368646,10.127192224275964,10.279916866107868
H1_walk_fast_20251205_051120,75944.0,-7.167,3.999,-6.521,-9.77,-0.952,-5.178,-88.13,114.8,-10.01,2.131503846153846,-0.47140000000000093,-90.70721153846154,5.300476923076923,0.35102115384615384,113.44334615384615,-3.294421153846154,-1.9594961538461542,-10.752134615384616,6.594814250390126,2.045741671713552,10.200331189626949,6.432094408570411,-2.750623352108502,-2.5707878455248236,10.224301795900601,10.335995311352537
H1_walk_fast_20251205_051120,,-7.767,0.926,-8.859,-9.052,-6.411,-6.643,-114.45,141.12,-5.46,1.5315038461538455,0.24659999999999904,-117.02721153846154,2.227476923076923,-5.107978846153846,139.76334615384616,-5.632421153846154,-3.424496153846154,-6.202134615384615,6.247505544448752,6.154626987922361,9.906780767872194,6.092797796792261,-2.854452163785781,-2.6040880458325524,10.318430797543119,10.392372064979357
H1_walk_fast_20251205_051120,,-22.883,-17.303,23.204,-7.492,-0.744,-14.42,-130.69,139.44,31.64,-13.584496153846153,1.8065999999999987,-133.26721153846154,-16.00152307692308,0.5590211538461538,138.08334615384615,26.430578846153846,-11.201496153846154,30.897865384615386,33.75148551809117,11.360009872138214,9.552549030335689,5.811000570662814,-2.767028906642887,-2.631663660247337,10.252525512589438,10.44883333302503
H1_walk_fast_20251205_051120,,-31.878,-6.351,-2.123,-2.642,3.12,-14.149,-103.88,117.53,1.33,-22.579496153846154,6.656599999999999,-106.45721153846154,-5.049523076923077,4.423021153846154,116.17334615384615,1.1035788461538458,-10.930496153846153,0.5878653846153847,23.163532030664282,13.540649388290655,9.148240244239693,5.540217428705318,-2.6015659421478006,-2.6543104739280445,10.288980801378344,10.50611048950926
H1_walk_fast_20251205_051120,76020.0,0.826,5.128,-17.317,-14.463,-1.115,-10.127,17.64,170.03,26.39,10.124503846153846,-5.1644000000000005,15.062788461538462,6.429476923076923,0.1880211538461538,168.67334615384615,-14.090421153846155,-6.908496153846155,25.647865384615386,18.503613699164763,8.62749664862298,8.787269552999742,5.304307422090928,-2.6813772328752705,-2.67374320352219,10.29888315885938,10.564477679918351
H1_walk_fast_20251205_051120,,-1.677,9.682,-16.463,-8.076,-6.277,-8.009,-3.36,142.24,17.71,7.621503846153846,1.2225999999999981,-5.937211538461538,10.983476923076923,-4.973978846153846,140.88334615384616,-13.236421153846155,-4.790496153846155,16.967865384615386,18.812945839466163,7.013135512878725,8.457250831495553,5.0109046739681595,-2.7829503644889964,-2.691083389289506,10.402032797132007,10.624266273371221
H1_walk_fast_20251205_051120,,-1.902,8.842,-16.37,-9.139,-5.157,-6.717,-37.66,127.19,12.6,7.396503846153846,0.1595999999999993,-40.23721153846154,10.143476923076923,-3.8539788461538462,125.83334615384615,-13.143421153846155,-3.498496153846154,11.857865384615383,18.17547558834523,5.207504243404672,8.186062470663757,4.820191290518922,-2.878165346304768,-2.708100356874731,10.492846750638911,10.68645143762201
H1_walk_fast_20251205_051120,,-10.122,1.718,-10.385,-9.026,0.249,-7.731,-74.48,117.53,17.08,-0.823496153846154,0.27259999999999884,-77.05721153846154,3.019476923076923,1.552021153846154,116.17334615384615,-7.158421153846154,-4.512496153846154,16.337865384615384,7.812706331369789,4.7797177699590465,7.969412449936698,4.679301169450655,-2.823669326056226,-2.7219822021374855,10.601506151370497,10.752443725057582
H1_walk_fast_20251205_051120,76095.0,-8.703,2.168,-7.839,-9.672,0.428,-8.143,24.85,89.88,11.48,0.5955038461538464,-0.37340000000000195,22.27278846153846,3.469476923076923,1.7310211538461537,88.52334615384615,-4.612421153846155,-4.924496153846155,10.737865384615386,5.802268853732549,5.233213559975213,7.725343085667136,4.62766475389053,-2.8151470794556754,-2.732770922442919,10.70737333050866,10.82172755570957
H1_walk_fast_20251205_051120,,-9.28,5.453,-7.844,-10.378,-0.704,-6.839,-3.5,84.35,11.83,0.01850384615384648,-1.0794000000000015,-6.077211538461539,6.754476923076924,0.5990211538461538,82.99334615384615,-4.617421153846154,-3.6204961538461546,11.087865384615384,8.181923918534512,3.825169682872902,7.524333514497686,4.586449839687248,-2.8003858627619587,-2.741364911180758,10.807274846813296,10.892771028525573
H1_walk_fast_20251205_051120,,-8.344,2.302,-8.184,-9.531,0.952,-6.097,-29.26,76.58,10.64,0.9545038461538464,-0.23240000000000194,-31.83721153846154,3.603476923076923,2.2550211538461538,75.22334615384615,-4.957421153846154,-2.8784961538461546,9.897865384615386,6.202592040757779,3.663996489081389,7.585805754177914,4.465316022340229,-2.800375768408957,-2.7445472951574246,10.911364497040903,10.963768916548728
H1_walk_fast_20251205_051120,,-9.081,1.706,-8.794,-8.942,1.575,-5.793,-27.02,70.77,11.9,0.21750384615384633,0.3565999999999985,-29.597211538461536,3.007476923076923,2.878021153846154,69.41334615384615,-5.567421153846155,-2.5744961538461544,11.157865384615384,6.331540386843126,3.8779117793155877,7.610005464031354,4.370040758721272,-2.7738849233808858,-2.7442834212184697,11.024014682666861,11.039928651249975
H1_walk_fast_20251205_051120,76171.0,-9.552,2.233,-5.633,-9.115,-0.469,-3.58,34.72,47.39,8.75,-0.25349615384615376,0.18359999999999843,32.14278846153846,3.534476923076923,0.8340211538461538,46.03334615384615,-2.406421153846154,-0.3614961538461543,8.007865384615386,4.283415715227318,0.9273509121731816,7.652610722710774,4.348275250633657,-2.754165886538383,-2.7403767293885752,11.13394105911599,11.117667312162439
H1_walk_fast_20251205_051120,,-9.739,2.058,-5.37,-9.182,0.505,-3.565,17.64,45.01,5.39,-0.4404961538461549,0.11659999999999826,15.062788461538462,3.359476923076923,1.8080211538461537,43.65334615384615,-2.143421153846154,-0.3464961538461542,4.647865384615384,4.0092862583002,1.8446125981856878,7.68824736496381,4.289783390802002,-2.71846339927658,-2.7319772255904775,11.242245382659611,11.195699700634405
H1_walk_fast_20251205_051120,,-9.66,0.57,-4.757,-9.095,1.34,-3.92,0.0,42.35,4.41,-0.3614961538461543,0.203599999999998,-2.5772115384615386,1.8714769230769228,2.6430211538461537,40.993346153846154,-1.5304211538461536,-0.7014961538461542,3.667865384615385,2.444441500833027,2.7420996760765646,7.664729784690113,4.352127768175444,-2.6676356075665186,-2.7194140553389934,11.350220420777864,11.26686164447966
H1_walk_fast_20251205_051120,,-9.32,-0.677,-3.915,-8.847,1.23,-3.807,-5.95,40.25,4.62,-0.021496153846154442,0.4515999999999991,-8.52721153846154,0.6244769230769229,2.533021153846154,38.89334615384615,-0.688421153846154,-0.5884961538461542,3.8778653846153848,0.9297081247083241,2.639406457695331,7.6566202275303334,4.233097057412682,-2.636044422267613,-2.7004066008857643,11.462899042568804,11.330761824516186
H1_walk_fast_20251205_051120,76247.0,-8.758,0.519,-3.996,-9.079,-0.261,-6.87,-6.16,29.4,-2.8,0.5405038461538467,0.21959999999999802,-8.737211538461539,1.820476923076923,1.0420211538461537,28.04334615384615,-0.769421153846154,-3.6514961538461543,-3.542134615384615,2.048972802930451,3.8036109694100064,6.460568363969658,4.073073737875201,-2.649765226695672,-2.6795420172574342,11.570359692333785,11.394939962478427
H1_walk_fast_20251205_051120,,-8.65,-0.194,-4.374,-8.935,-0.988,-5.197,-10.08,27.16,-4.9,0.6485038461538455,0.36359999999999815,-12.657211538461539,1.107476923076923,0.3150211538461538,25.803346153846153,-1.1474211538461536,-1.9784961538461543,-5.642134615384616,1.721521907475446,2.0361459471645413,5.682294623789105,3.7764205008294303,-2.6986307530811504,-2.6615702474556886,11.667739353526036,11.456712725195299
H1_walk_fast_20251205_051120,,-8.77,-0.598,-5.181,-9.978,-1.833,-3.972,-10.36,25.9,-5.53,0.5285038461538463,-0.6794000000000011,-12.937211538461538,0.703476923076923,-0.5299788461538462,24.54334615384615,-1.954421153846154,-0.7534961538461542,-6.272134615384616,2.143352081040937,1.1446477149024983,5.099155092271872,3.73861706734528,-2.766862087659652,-2.6375907099359805,11.748271262018404,11.516408461455182
H1_walk_fast_20251205_051120,,-9.308,-0.601,-6.104,-9.995,-1.314,-3.147,-9.87,24.71,-6.51,-0.009496153846153987,-0.6964000000000006,-12.447211538461538,0.700476923076923,-0.010978846153846256,23.353346153846154,-2.877421153846154,0.07150384615384597,-7.252134615384615,2.9614710184809367,0.7001473381208154,4.634185757885559,3.9708474176110142,-2.761735818738589,-2.6088329206422065,11.84784064246269,11.572101056962795
H1_walk_fast_20251205_051120,76323.0,-9.213,-0.656,-2.206,-9.99,0.179,-1.529,13.58,33.18,3.78,0.08550384615384665,-0.6914000000000016,11.002788461538461,0.645476923076923,1.4820211538461538,31.823346153846153,1.020578846153846,1.6895038461538459,3.0378653846153845,1.2105918169014147,2.35134937995529,4.611779241083114,4.054756198653312,-2.758293822899022,-2.570761468728951,11.947974796835243,11.620574337509037
H1_walk_fast_20251205_051120,,-9.024,0.287,-1.656,-9.454,-0.617,-1.426,15.26,37.1,8.68,0.2745038461538467,-0.15540000000000198,12.682788461538461,1.588476923076923,0.6860211538461538,35.743346153846154,1.5705788461538461,1.7925038461538458,7.937865384615384,2.250628625226101,1.925576335023034,4.981671847002719,4.3948166239159505,-2.770999261905431,-2.52747494512202,12.052352813255032,11.660415808664274
H1_walk_fast_20251205_051120,,-9.629,1.05,-1.469,-10.098,-0.909,-0.785,14.56,40.74,11.06,-0.3304961538461537,-0.7994000000000021,11.982788461538462,2.3514769230769232,0.39402115384615377,39.383346153846155,1.757578846153846,2.4335038461538456,10.317865384615384,2.954277378297085,2.591569794337752,5.239737585303563,4.775735652375406,-2.7453358142184467,-2.477155353406547,12.148480489700905,11.691245078366096
H1_walk_fast_20251205_051120,,-10.218,0.847,-1.524,-10.376,-0.309,0.208,7.98,44.59,10.36,-0.9194961538461541,-1.0774000000000008,5.402788461538462,2.148476923076923,0.9940211538461539,43.233346153846156,1.702578846153846,3.426503846153846,9.617865384615385,2.8914012162449048,3.7269018530142084,5.128263501848964,5.206676174075367,-2.6838331227732675,-2.420054476842357,12.228078443058887,11.714922423058907
H1_walk_fast_20251205_051120,76399.0,-11.005,-0.431,1.213,-11.015,-2.101,1.768,13.86,72.87,12.88,-1.706496153846155,-1.716400000000002,11.28278846153846,0.8704769230769229,-0.7979788461538462,71.51334615384616,4.439578846153847,4.986503846153846,12.137865384615385,4.835257958777164,5.333668513004546,5.373824612300691,5.51385052422865,-2.591828026505923,-2.3593788132698084,12.202219371192173,11.73877637207057
H1_walk_fast_20251205_051120,,-11.429,-0.852,1.965,-10.701,-1.61,0.981,9.87,80.85,11.97,-2.1304961538461544,-1.4024000000000019,7.292788461538461,0.449476923076923,-0.3069788461538463,79.49334615384615,5.191578846153846,4.199503846153846,11.227865384615384,5.62970108280751,4.438107065613322,5.586314500079451,5.840460228932613,-2.4981883468084556,-2.297375436169512,12.156034324547077,11.763695045423075
H1_walk_fast_20251205_051120,,-11.39,-2.036,2.331,-10.44,-1.567,0.256,7.91,90.44,10.36,-2.0914961538461547,-1.1414000000000009,5.3327884615384615,-0.7345230769230771,-0.26397884615384615,89.08334615384615,5.557578846153846,3.474503846153846,9.617865384615385,5.983357163274019,3.6666954834229943,5.861955619300692,6.273109194032445,-2.423980925569918,-2.236721329855548,12.074512335877202,11.790162348090515
H1_walk_fast_20251205_051120,,-11.003,-2.505,2.438,-10.282,-1.151,-0.325,13.16,100.52,8.33,-1.7044961538461543,-0.9834000000000014,10.582788461538462,-1.203523076923077,0.15202115384615378,99.16334615384615,5.664578846153846,2.8935038461538456,7.587865384615385,6.036657058294463,3.0598285080905785,6.153128218724687,6.690156781961213,-2.3602583480018224,-2.1803576526504163,11.97983547849285,11.813650590868026
H1_walk_fast_20251205_051120,76474.0,-10.428,-0.754,-0.888,-15.477,1.838,-1.271,-7.42,137.83,-5.11,-1.129496153846155,-6.178400000000002,-9.997211538461539,0.547476923076923,3.141021153846154,136.47334615384617,2.338578846153846,1.9475038461538459,-5.852134615384616,2.654137065513627,7.199403564163705,6.540897482076312,7.02093081235636,-2.224549732306311,-2.128772123471282,11.921157099607697,11.836879454786452
H1_walk_fast_20251205_051120,,-11.079,-0.471,-1.055,-13.613,-2.493,0.514,-13.3,144.06,-6.79,-1.7804961538461548,-4.314400000000001,-15.87721153846154,0.830476923076923,-1.189978846153846,142.70334615384616,2.171578846153846,3.732503846153846,-7.532134615384615,2.9284147859699,5.827665225100606,6.959599848434506,7.321392592541556,-2.134299927302421,-2.081111296794664,11.895072632017005,11.859961845989803
H1_walk_fast_20251205_051120,,-12.034,-0.586,-1.445,-14.427,-3.786,1.878,-17.22,150.43,-7.21,-2.735496153846155,-5.128400000000001,-19.79721153846154,0.715476923076923,-2.4829788461538462,149.07334615384616,1.781578846153846,5.096503846153846,-7.952134615384615,3.3419858797166686,7.644607378035084,7.336075958618016,7.557021327179713,-2.0579092573628497,-2.0357084962339127,11.850972301616348,11.882945903835152
H1_walk_fast_20251205_051120,,-14.039,3.082,-1.35,-15.573,-6.312,7.071,-4.06,155.26,-7.07,-4.740496153846154,-6.274400000000002,-6.637211538461538,4.383476923076923,-5.0089788461538465,153.90334615384614,1.876578846153846,10.289503846153846,-7.812134615384616,6.723743145422065,13.05112461978781,7.732511672066635,7.866418890515552,-2.035247842850869,-1.9915109281815206,11.850040280329935,11.906090833080258
H1_walk_fast_20251205_051120,76550.0,-20.572,-7.487,8.78,-12.539,4.46,-6.518,70.63,215.25,49.98,-11.273496153846153,-3.240400000000001,68.05278846153846,-6.185523076923078,5.763021153846154,213.89334615384615,12.006578846153845,-3.299496153846154,49.23786538461538,17.59290615148165,7.389132550504412,8.117676472499403,8.392311156888491,-1.8883075965601168,-1.9487564314620374,11.753152044841253,11.931233225935456
H1_walk_fast_20251205_051120,,-21.065,-7.641,7.961,-14.779,7.846,-11.692,124.11,229.32,61.74,-11.766496153846155,-5.480400000000001,121.53278846153846,-6.3395230769230775,9.149021153846153,227.96334615384615,11.187578846153846,-8.473496153846154,60.99786538461539,17.429914085279524,13.621288826787646,8.488807307241531,8.908476095888384,-1.698219712276025,-1.9106079120520871,11.637384401406607,11.957513951822778
H1_walk_fast_20251205_051120,,-18.698,-5.293,4.003,-16.994,7.047,-13.228,170.66,243.74,70.77,-9.399496153846155,-7.695400000000001,168.08278846153846,-3.991523076923077,8.350021153846154,242.38334615384616,7.229578846153846,-10.009496153846154,70.02786538461538,12.511978049554486,15.137108299921065,8.96393684787601,9.344633475171348,-1.5068376948533742,-1.877083656345775,11.508934342756037,11.984707530152303
H1_walk_fast_20251205_051120,,-14.489,-0.96,-2.3,-17.875,5.164,-13.731,203.56,256.41,67.13,-5.190496153846155,-8.576400000000001,200.98278846153846,0.341476923076923,6.4670211538461535,255.05334615384618,0.9265788461538462,-10.512496153846154,66.38786538461538,5.283597748714942,15.029623247071893,9.452613471795125,9.818293709576626,-1.315763072093033,-1.8476766170474765,11.422885808826399,12.012496199061205
H1_walk_fast_20251205_051120,76625.0,-15.829,4.42,-12.34,-5.336,-2.761,-14.077,58.8,172.34,19.95,-6.530496153846155,3.9625999999999983,56.22278846153846,5.7214769230769225,-1.4579788461538463,170.98334615384616,-9.113421153846154,-10.858496153846154,19.207865384615385,12.587180912502678,11.650529593066738,9.832275006618518,10.211494969726623,-1.2228085155226907,-1.8220986227103553,11.531567171344134,12.03934600811225
H1_walk_fast_20251205_051120,,-12.343,3.786,-13.494,-4.434,-3.419,-14.393,2.87,132.51,11.55,-3.044496153846154,4.8645999999999985,0.2927884615384615,5.087476923076923,-2.1159788461538462,131.15334615384614,-10.267421153846154,-11.174496153846155,10.807865384615386,11.856277469090868,12.369764101618633,10.208639383956493,10.521508740969617,-1.1617971187731684,-1.801589919565619,11.67190018983199,12.066491514665152
H1_walk_fast_20251205_051120,,-8.796,0.591,-14.508,-4.324,-2.857,-14.223,-32.48,98.56,12.32,0.5025038461538465,4.974599999999999,-35.05721153846154,1.892476923076923,-1.5539788461538464,97.20334615384616,-11.281421153846154,-11.004496153846155,11.577865384615386,11.450084814979563,12.17622400476882,10.531862351757038,10.722695802265674,-1.1771591223753188,-1.7866835260450098,11.822090928469406,12.098125826830419
H1_walk_fast_20251205_051120,,-7.045,-1.922,-14.568,-3.482,-1.194,-14.494,-36.82,77.42,18.06,2.253503846153846,5.816599999999998,-39.39721153846154,-0.620523076923077,0.10902115384615385,76.06334615384615,-11.341421153846154,-11.275496153846154,17.317865384615384,11.579773843324112,12.687849884333646,10.8415471056139,10.829306728415073,-1.253007791943165,-1.7774231397800582,11.852939694874902,12.133544900537125
H1_walk_fast_20251205_051120,76701.0,-2.793,-0.026,-13.855,-0.83,0.809,-10.462,39.34,-28.77,26.39,6.505503846153846,8.468599999999999,36.76278846153846,1.275476923076923,2.112021153846154,-30.126653846153847,-10.628421153846155,-7.243496153846154,25.647865384615386,12.526442347975289,11.3422244663504,10.852089584205249,10.955255337677102,-1.3264118489090295,-1.7729845916755507,11.954170882656983,12.175568750203858
H1_walk_fast_20251205_051120,,-2.931,0.78,-12.96,-1.347,0.981,-9.605,24.99,-49.77,16.8,6.367503846153846,7.951599999999999,22.41278846153846,2.081476923076923,2.2840211538461537,-51.12665384615385,-9.733421153846155,-6.386496153846155,16.057865384615386,11.815969650021348,10.451412742510385,10.824589107716907,11.217620522904607,-1.3968629286755376,-1.77149114667217,12.063041213855882,12.224893707645785
H1_walk_fast_20251205_051120,,-2.237,1.151,-12.405,-1.91,0.744,-9.529,0.14,-74.62,8.4,7.061503846153846,7.3885999999999985,-2.4372115384615385,2.452476923076923,2.0470211538461536,-75.97665384615385,-9.178421153846154,-6.310496153846154,7.657865384615385,11.837351667701732,9.929958070002145,10.945828499838463,11.323855684187835,-1.4692924121161386,-1.7739328325600991,12.167945196312857,12.277962893431253
H1_walk_fast_20251205_051120,,-1.077,1.084,-11.677,-1.62,0.096,-9.598,-23.1,-96.11,5.39,8.221503846153846,7.6785999999999985,-25.677211538461542,2.385476923076923,1.3990211538461539,-97.46665384615385,-8.450421153846154,-6.379496153846155,4.647865384615384,12.028850457139518,10.08048259389633,11.062219698155833,11.433747925718981,-1.5494939837189643,-1.7773637571638983,12.269507513898791,12.332529681682328
H1_walk_fast_20251205_051120,76777.0,0.132,-0.495,-10.857,3.862,-2.362,-9.945,-89.88,-232.96,-1.26,9.430503846153846,13.160599999999999,-92.45721153846154,0.806476923076923,-1.0589788461538463,-234.31665384615386,-7.630421153846154,-6.7264961538461545,-2.002134615384615,12.157636892292883,14.81784664059891,11.38207541574452,11.309177519740283,-1.6552451729530866,-1.78631888543091,12.401973476253614,12.388270664114192
H1_walk_fast_20251205_051120,,1.163,-0.342,-10.203,3.546,-3.065,-8.813,-91.07,-248.08,1.26,10.461503846153846,12.844599999999998,-93.64721153846153,0.9594769230769229,-1.7619788461538461,-249.43665384615386,-6.976421153846154,-5.594496153846155,0.5178653846153847,12.610872721776275,14.120435752118029,11.444856404776262,11.413077706892066,-1.7698743140798796,-1.8010202116774168,12.53113951553301,12.440450282840139
H1_walk_fast_20251205_051120,,1.969,-0.469,-10.732,3.199,-3.226,-8.469,-93.03,-264.18,6.3,11.267503846153845,12.497599999999998,-95.60721153846154,0.832476923076923,-1.9229788461538462,-265.53665384615385,-7.505421153846154,-5.250496153846154,5.5578653846153845,13.56395987339791,13.69144124131234,11.009783314390642,12.123322654145415,-1.8866631745349014,-1.8279048234068243,12.655007833402932,12.493284835616462
H1_walk_fast_20251205_051120,,3.606,-1.35,-10.787,3.695,-3.597,-8.576,-93.38,-272.37,10.01,12.904503846153846,12.993599999999999,-95.95721153846154,-0.04852307692307711,-2.293978846153846,-273.72665384615385,-7.560421153846155,-5.357496153846155,9.267865384615384,14.956220847123042,14.240742429560251,10.570111407500859,12.262151048379097,-2.0064162401496772,-1.863724804529484,12.774858204886444,12.54866769842304
H1_walk_fast_20251205_051120,76853.0,2.297,-2.182,-8.636,-0.526,0.313,-12.419,-9.38,-356.51,-6.16,11.595503846153846,8.772599999999999,-11.95721153846154,-0.880523076923077,1.6160211538461537,-357.86665384615384,-5.409421153846154,-9.200496153846155,-6.9021346153846155,12.825477283705311,12.814802558237725,10.368431398948657,12.13945902550909,-2.080307961453291,-1.9053653081528212,12.846575525028074,12.613425046892392
H1_walk_fast_20251205_051120,,1.271,0.481,-9.995,-1.759,0.811,-12.029,2.87,-375.06,-2.52,10.569503846153847,7.539599999999998,0.2927884615384615,1.7824769230769228,2.1140211538461537,-376.41665384615385,-6.768421153846154,-8.810496153846154,-3.2621346153846154,12.676875027032287,11.78725990533198,10.434837675484173,12.06851395763934,-2.1506068410101222,-1.95438146742453,12.933861613434352,12.68325130624866
H1_walk_fast_20251205_051120,,0.486,2.075,-11.481,-3.295,2.362,-11.101,-5.11,-390.6,0.56,9.784503846153846,6.003599999999999,-7.687211538461539,3.376476923076923,3.665021153846154,-391.95665384615387,-8.254421153846154,-7.882496153846155,-0.18213461538461528,13.239055121591317,10.564532106702085,10.321426695788372,12.134420880974677,-2.2042617949700865,-2.0066903763509716,13.02471148748913,12.750777924925428
H1_walk_fast_20251205_051120,,0.438,1.45,-12.436,-6.612,3.262,-8.11,-15.82,-401.24,1.47,9.736503846153846,2.6865999999999985,-18.39721153846154,2.7514769230769227,4.565021153846153,-402.59665384615386,-9.209421153846154,-4.891496153846154,0.7278653846153846,13.681504683085942,7.2099911454976535,10.146217758343097,11.952201061666813,-2.25741830391971,-2.062081177273149,13.07693024092137,12.815530965187387
H1_walk_fast_20251205_051120,76928.0,-8.878,4.712,-4.905,-10.909,-4.877,2.51,-15.75,-405.72,-23.73,0.42050384615384573,-1.610400000000002,-18.32721153846154,6.013476923076922,-3.573978846153846,-407.0766538461539,-1.6784211538461542,5.728503846153846,-24.472134615384615,6.257461606649067,6.9413593242357505,9.849060835983993,11.649669607986965,-2.308578674852723,-2.1178795335705334,13.167132427212293,12.871505095865164
H1_walk_fast_20251205_051120,,-12.06,3.19,-2.505,-8.081,-8.284,3.668,-51.59,-381.08,-33.46,-2.7614961538461547,1.2175999999999991,-54.167211538461544,4.491476923076923,-6.980978846153847,-382.43665384615383,0.7215788461538462,6.886503846153846,-34.202134615384615,5.321644669597583,9.881323324005708,9.694447128011843,11.374923917161972,-2.3214287779139284,-2.171015607029006,13.262284371982972,12.923132015081332
H1_walk_fast_20251205_051120,,-14.262,-0.12,-0.455,-5.485,-7.988,3.106,-77.0,-348.81,-47.11,-4.963496153846155,3.8135999999999983,-79.57721153846154,1.1814769230769229,-6.684978846153847,-350.16665384615385,2.771578846153846,6.324503846153846,-47.852134615384614,5.806361260674052,9.961517757527675,9.332896834213782,11.13255767178693,-2.2880335653924733,-2.2175118660277287,13.300955930029858,12.968697741604204
H1_walk_fast_20251205_051120,,-13.58,-2.154,0.823,-3.195,-3.733,2.462,-93.94,-309.47,-58.59,-4.281496153846154,6.103599999999998,-96.51721153846154,-0.8525230769230769,-2.4299788461538463,-310.8266538461539,4.049578846153846,5.6805038461538455,-59.33213461538462,5.954585942221551,8.684863504910355,9.048164532023879,10.92133382599271,-2.22350396700119,-2.2610120913190146,13.313809126544928,13.014260795716703
H1_walk_fast_20251205_051120,77004.0,-2.558,-0.677,6.265,-7.581,2.474,-4.7,17.78,-18.97,15.05,6.740503846153846,1.7175999999999982,15.202788461538463,0.6244769230769229,3.777021153846154,-20.326653846153846,9.491578846153846,-1.4814961538461544,14.307865384615386,11.65823453702256,4.405776822588983,8.755153974034123,10.73435507729414,-2.2907425923051603,-2.2975071439787986,13.30023784484482,13.056766992924157
H1_walk_fast_20251205_051120,,-6.48,1.144,4.25,-21.972,-5.415,-11.622,37.87,39.2,18.76,2.8185038461538454,-12.673400000000003,35.29278846153846,2.4454769230769227,-4.111978846153846,37.843346153846156,7.476578846153846,-8.403496153846154,18.017865384615387,8.356048860247345,15.752529485734152,8.42367068663851,10.5374647458985,-2.4174823252600426,-2.327978749246125,13.206710367204598,13.095737700343168
H1_walk_fast_20251205_051120,,-8.346,3.259,0.986,-28.141,-14.209,8.902,20.93,90.51,12.39,0.9525038461538458,-18.842399999999998,18.35278846153846,4.560476923076923,-12.905978846153847,89.15334615384616,4.212578846153846,12.120503846153845,11.647865384615386,6.281005801455519,25.855501179091476,8.090345235477626,10.123109565983485,-2.5873075015247164,-2.3532970947693057,13.126850417025617,13.13349493182348
H1_walk_fast_20251205_051120,,-7.097,4.149,-2.032,-25.03,-2.807,-10.086,-20.3,133.42,9.66,2.2015038461538454,-15.731400000000002,-22.877211538461538,5.450476923076923,-1.5039788461538461,132.06334615384614,1.194578846153846,-6.8674961538461545,8.917865384615386,5.998444506145115,17.230827076863434,7.772138713288954,9.722816103029611,-2.629539221465179,-2.372515820285588,13.077338834377665,13.170154633867602
H1_walk_fast_20251205_051120,77080.0,-6.954,4.436,-7.023,-8.045,5.027,-13.273,35.63,126.49,-3.36,2.344503846153846,1.2535999999999987,33.05278846153846,5.7374769230769225,6.330021153846154,125.13334615384615,-3.7964211538461536,-10.054496153846154,-4.102134615384616,7.268297827197299,11.947115705300877,7.398889401646756,9.245623079902362,-2.5894907890601333,-2.3859552893933995,13.19262540295918,13.20605620173592
H1_walk_fast_20251205_051120,,-3.979,0.926,-7.212,-8.729,7.258,-13.23,-16.59,140.63,-1.05,5.319503846153846,0.5695999999999994,-19.167211538461537,2.227476923076923,8.561021153846154,139.27334615384615,-3.9854211538461537,-10.011496153846155,-1.7921346153846154,7.0101609386382995,13.185051482458372,6.960424575127673,8.756400673226661,-2.5901832131574642,-2.393729873932148,13.238368552089339,13.24123267052543
H1_walk_fast_20251205_051120,,-1.031,0.012,-8.004,-5.473,9.548,-10.017,-36.54,147.7,-6.79,8.267503846153845,3.825599999999999,-39.11721153846154,1.313476923076923,10.851021153846155,146.34334615384614,-4.777421153846154,-6.798496153846154,-7.532134615384615,9.638495440411898,13.364109599785452,6.565579232255001,8.332487778749783,-2.582840147610179,-2.3977764986154617,13.287259256940116,13.277498893733707
H1_walk_fast_20251205_051120,,-5.958,1.328,-9.162,-9.136,4.798,-7.801,-21.84,145.53,2.8,3.3405038461538457,0.1625999999999994,-24.417211538461537,2.629476923076923,6.101021153846154,144.17334615384615,-5.935421153846155,-4.582496153846154,2.0578653846153845,7.300845095513747,7.632048799614233,6.1447514857361645,7.945251182695178,-2.601957942749783,-2.398315686274796,13.355479236642912,13.314278750508597
H1_walk_fast_20251205_051120,77156.0,-8.811,-2.448,-6.736,-7.734,-0.924,-7.217,-109.55,106.75,9.94,0.4875038461538459,1.5645999999999987,-112.12721153846154,-1.146523076923077,0.37902115384615376,105.39334615384615,-3.5094211538461537,-3.998496153846154,9.197865384615383,3.7240048336427845,4.3104062090927515,5.690860571871828,7.606857767360429,-2.627916386107309,-2.3938996218013084,13.277418326091658,13.351127009462527
H1_walk_fast_20251205_051120,,-8.83,-8.492,-5.513,-7.002,-2.635,-8.086,-46.48,101.57,2.1,0.46850384615384577,2.296599999999999,-49.05721153846154,-7.190523076923078,-1.331978846153846,100.21334615384615,-2.286421153846154,-4.8674961538461545,1.3578653846153848,7.559817436048271,5.5444619228838095,5.223429832507924,7.3872704077709,-2.634545701863443,-2.3853889243639523,13.195239594495213,13.389891917001295
H1_walk_fast_20251205_051120,,-10.349,-2.223,-6.023,-8.275,-0.39,-8.069,3.57,95.48,1.96,-1.0504961538461544,1.0235999999999983,0.9927884615384612,-0.9215230769230769,0.9130211538461538,94.12334615384616,-2.7964211538461536,-4.850496153846155,1.2178653846153846,3.1261347092256906,5.040702086599336,5.040118863912872,7.177070003643355,-2.535314582875828,-2.37312418941515,13.138879772251626,13.429175144869022
H1_walk_fast_20251205_051120,,-8.854,1.314,-6.753,-9.227,0.048,-7.99,3.08,91.56,2.17,0.44450384615384664,0.07159999999999833,0.5027884615384615,2.615476923076923,1.3510211538461538,90.20334615384616,-3.526421153846154,-4.771496153846154,1.4278653846153846,4.412929793083857,4.959592751860624,4.905691683067487,6.864754024516232,-2.5278687862489764,-2.359562002974197,13.247680620780912,13.469186266072908
H1_walk_fast_20251205_051120,77231.0,-9.579,-1.196,-7.435,-9.402,2.338,-6.743,-17.57,65.87,11.69,-0.2804961538461548,-0.1034000000000006,-20.14721153846154,0.10547692307692302,3.641021153846154,64.51334615384616,-4.208421153846153,-3.5244961538461546,10.947865384615383,4.219077159968048,5.068510603839309,4.757006000172631,6.553395086794703,-2.418163781270518,-2.3515044032897228,13.273106323706683,13.507191441566373
H1_walk_fast_20251205_051120,,-9.373,-1.283,-6.636,-9.502,2.355,-6.564,-3.57,60.41,14.91,-0.07449615384615349,-0.20340000000000202,-6.147211538461539,0.018476923076923057,3.658021153846154,59.05334615384615,-3.409421153846154,-3.3454961538461543,14.167865384615386,3.4102849848535977,4.961333977609788,4.608090452810244,6.310302211479534,-2.3417557206694455,-2.349296069158291,13.282745906793076,13.543364792415579
H1_walk_fast_20251205_051120,,-9.208,-0.304,-6.571,-9.701,1.531,-6.076,18.9,55.37,17.5,0.09050384615384566,-0.40240000000000187,16.322788461538458,0.9974769230769229,2.8340211538461535,54.01334615384615,-3.3444211538461537,-2.857496153846154,16.757865384615386,3.491175162109928,4.044611962808428,4.229301743257372,6.295504003140069,-2.3135221565557824,-2.346792642738333,13.383661494741725,13.578260325870307
H1_walk_fast_20251205_051120,,-9.56,1.362,-6.64,-9.986,1.216,-5.858,32.9,49.7,17.43,-0.26149615384615466,-0.687400000000002,30.322788461538458,2.663476923076923,2.519021153846154,48.343346153846156,-3.4134211538461536,-2.639496153846154,16.687865384615385,4.337503144870796,3.7128057153173324,3.9633926375062787,5.870303426129906,-2.269561177503224,-2.3416408398203,13.484291768680155,13.615053345933037
H1_walk_fast_20251205_051120,77307.0,-9.749,1.51,-5.832,-9.452,-0.148,-3.759,15.33,27.3,5.81,-0.4504961538461547,-0.1534000000000013,12.752788461538461,2.811476923076923,1.155021153846154,25.943346153846154,-2.605421153846154,-0.5404961538461541,5.067865384615384,3.859477770700757,1.2844226400038994,3.8900880762716197,5.001179358414665,-2.2360893713380015,-2.3328105369094003,13.588448597979191,13.657542861744902
H1_walk_fast_20251205_051120,,-9.545,1.318,-5.619,-9.88,0.081,-3.463,15.61,23.87,3.43,-0.2464961538461541,-0.5814000000000021,13.03278846153846,2.619476923076923,1.3840211538461538,22.513346153846154,-2.3924211538461537,-0.2444961538461543,2.687865384615385,3.556135357626879,1.5209598559919995,3.7865532795352115,4.500236905944549,-2.2085554381571333,-2.325092968987027,13.68944639341373,13.702119938435326
H1_walk_fast_20251205_051120,,-9.363,0.395,-5.142,-10.012,0.342,-3.226,15.47,21.21,1.89,-0.0644961538461537,-0.7134000000000018,12.892788461538462,1.696476923076923,1.6450211538461539,19.853346153846154,-1.9154211538461543,-0.007496153846154208,1.1478653846153846,2.5594983690158553,1.7930673018388963,3.6289312839586767,4.22555332059765,-2.1855202032194585,-2.3161286718235274,13.789497328443252,13.73942434101487
H1_walk_fast_20251205_051120,,-9.33,-0.201,-4.568,-9.94,0.278,-3.008,18.9,19.25,1.54,-0.03149615384615423,-0.6414000000000009,16.322788461538458,1.100476923076923,1.5810211538461538,17.893346153846153,-1.3414211538461536,0.21050384615384576,0.7978653846153847,1.7353536175425164,1.7191084079122487,3.477867746828724,3.8867323079661107,-2.164625720152796,-2.3090476051815645,13.890137889581558,13.773898788878949
H1_walk_fast_20251205_051120,77383.0,-9.868,-0.086,-2.711,-9.1,0.445,-3.061,28.0,18.13,0.28,-0.5694961538461545,0.198599999999999,25.42278846153846,1.215476923076923,1.7480211538461539,16.773346153846152,0.5155788461538462,0.15750384615384583,-0.4621346153846153,1.4378913611185784,1.7663033079986272,3.269710567014864,3.5574812744403324,-2.0894441186594133,-2.298813993719383,13.982766220291248,13.809944671368923
H1_walk_fast_20251205_051120,,-9.627,-0.06,-2.398,-9.026,0.101,-2.764,29.75,19.67,1.05,-0.3284961538461548,0.27259999999999884,27.17278846153846,1.241476923076923,1.4040211538461538,18.313346153846155,0.8285788461538459,0.454503846153846,0.3078653846153847,1.5283054596244492,1.5007197961698657,3.160152581220484,3.4505477375378626,-2.0361401705484563,-2.2847047985741393,14.084817836929338,13.846997088536776
H1_walk_fast_20251205_051120,,-9.61,-0.034,-2.505,-8.969,-0.165,-2.338,32.06,21.07,0.35,-0.3114961538461536,0.3295999999999992,29.482788461538462,1.267476923076923,1.1380211538461538,19.713346153846153,0.7215788461538462,0.8805038461538457,-0.39213461538461536,1.4913764231776652,1.47614881691957,3.1902517734354374,3.4712619016162187,-1.989695566183872,-2.266966077056357,14.188496351773258,13.891017725025856
H1_walk_fast_20251205_051120,,-9.5,0.474,-2.848,-8.378,-0.72,-1.835,32.41,21.63,-1.47,-0.20149615384615416,0.9205999999999985,29.832788461538456,1.775476923076923,0.5830211538461538,20.273346153846152,0.3785788461538462,1.3835038461538458,-2.212134615384615,1.82653796761761,1.7611078667005557,3.079394290686002,3.4581990823341004,-1.9688119304491303,-2.24653283975214,14.302573523283975,13.942259403446164
H1_walk_fast_20251205_051120,77458.0,-8.181,-1.165,-1.646,-7.566,-1.543,-2.568,21.49,29.26,-3.43,1.1175038461538467,1.7325999999999988,18.91278846153846,0.13647692307692294,-0.23997884615384613,27.903346153846154,1.5805788461538461,0.6505038461538457,-4.172134615384616,1.9405335054077806,1.8661853767678798,3.1862384055527624,3.503163729584443,-2.0785359735961486,-2.2294825661807556,14.289090492859902,14.000652540001594
H1_walk_fast_20251205_051120,,-8.167,-1.469,-1.486,-7.124,-0.775,-3.982,25.83,32.48,-1.61,1.131503846153846,2.174599999999999,23.252788461538458,-0.1675230769230771,0.5280211538461538,31.12334615384615,1.740578846153846,-0.7634961538461544,-2.3521346153846157,2.08278171079952,2.364448746716006,3.2655799843607003,3.5354904272627934,-2.1660872795839703,-2.2127349509590726,14.254316248624267,14.060168626098719
H1_walk_fast_20251205_051120,,-8.466,-1.591,-1.646,-6.647,0.349,-5.75,33.32,35.77,1.75,0.8325038461538465,2.6515999999999984,30.74278846153846,-0.289523076923077,1.6520211538461538,34.413346153846156,1.5805788461538461,-2.5314961538461542,1.0078653846153847,1.8097280886478435,4.021023405762896,3.3713847856717862,3.5697664917190957,-2.225653505386255,-2.2006939384756645,14.207521714667791,14.124152925967783
H1_walk_fast_20251205_051120,,-8.433,-1.687,-2.139,-6.741,0.608,-6.664,40.6,38.29,5.6,0.865503846153846,2.557599999999999,38.02278846153846,-0.3855230769230771,1.911021153846154,36.93334615384615,1.0875788461538463,-3.445496153846154,4.857865384615384,1.4424121107189403,4.697314483469903,3.4916360075129376,3.623230106576959,-2.2835354493911866,-2.193187128773319,14.16332888883561,14.193053739871914
H1_walk_fast_20251205_051120,77534.0,-7.38,-0.029,-6.947,-8.334,-0.244,-6.145,84.56,38.08,22.19,1.918503846153846,0.964599999999999,81.98278846153846,1.272476923076923,1.0590211538461538,36.72334615384615,-3.720421153846154,-2.926496153846154,21.447865384615387,4.375087209354388,3.258275418495184,3.611365163400912,3.662861097566947,-2.3577196258413236,-2.1901484954712283,14.231577828134057,14.258394241567562
H1_walk_fast_20251205_051120,,-8.327,-1.335,-6.387,-8.526,1.39,-6.356,88.9,37.45,25.62,0.9715038461538459,0.7725999999999988,86.32278846153847,-0.03352307692307699,2.6930211538461535,36.093346153846156,-3.1604211538461535,-3.137496153846154,24.877865384615387,3.306539790998493,4.20632331264042,3.6953841711042,3.742998689168232,-2.4288824554834823,-2.191437039076331,14.236342828328674,14.319910798673039
H1_walk_fast_20251205_051120,,-9.433,-1.728,-6.365,-9.177,2.154,-6.554,100.1,35.98,28.91,-0.134496153846154,0.12159999999999904,97.52278846153845,-0.426523076923077,3.4570211538461537,34.62334615384615,-3.138421153846154,-3.3354961538461545,28.167865384615386,3.1701259422074015,4.805342486281522,3.767646440770815,3.911823743914446,-2.3564190628091333,-2.196358389274388,14.1625398700273,14.37718983571108
H1_walk_fast_20251205_051120,,-8.837,-1.421,-6.272,-10.115,1.74,-6.255,114.52,34.02,31.22,0.4615038461538461,-0.8164000000000016,111.94278846153846,-0.11952307692307707,3.043021153846154,32.663346153846156,-3.045421153846154,-3.036496153846154,30.477865384615384,3.0825089732595417,4.375705154038338,3.8121639313994677,4.045345033341676,-2.4060754804664324,-2.204793437072394,14.134704196555449,14.430244105034413
H1_walk_fast_20251205_051120,77610.0,-10.502,1.445,-6.205,-10.067,2.192,-6.423,137.13,32.27,44.24,-1.2034961538461548,-0.7684000000000015,134.55278846153846,2.746476923076923,3.495021153846154,30.913346153846156,-2.978421153846154,-3.2044961538461543,43.49786538461539,4.226408765251514,4.803582728115225,3.887359227941548,4.074217585148353,-2.3167662495934622,-2.2166086952454296,14.22445220167941,14.483084759254469
H1_walk_fast_20251205_051120,,-10.517,2.0,-5.954,-9.873,1.881,-6.834,146.79,29.33,46.83,-1.2184961538461536,-0.5744000000000007,144.21278846153845,3.301476923076923,3.184021153846154,27.97334615384615,-2.7274211538461537,-3.615496153846154,46.087865384615384,4.452337464859871,4.851776840150022,3.9605522185932625,4.102623173255857,-2.2351188689734314,-2.232185560741379,14.318842083007103,14.53534327013514
H1_walk_fast_20251205_051120,,-10.244,2.211,-5.887,-9.34,1.397,-7.246,156.87,27.65,52.36,-0.9454961538461539,-0.041400000000001214,154.29278846153846,3.512476923076923,2.700021153846154,26.29334615384615,-2.6604211538461535,-4.027496153846155,51.617865384615385,4.506583831231579,4.848974475130003,4.008689916502093,4.13493479128058,-2.1667096266449803,-2.2546034186641606,14.42195487480775,14.58631888083305
H1_walk_fast_20251205_051120,,-10.105,2.254,-6.157,-9.227,1.208,-7.777,165.69,26.74,58.52,-0.8064961538461546,0.07159999999999833,163.11278846153846,3.555476923076923,2.511021153846154,25.38334615384615,-2.930421153846154,-4.558496153846154,57.77786538461539,4.677522884562961,5.204828621548749,4.046961908596317,4.1783506591856145,-2.103281531953799,-2.2835165676051288,14.527523233423231,14.63342873625741
H1_walk_fast_20251205_051120,77686.0,-9.005,1.754,-8.27,-7.061,-0.871,-8.995,204.05,16.17,101.22,0.29350384615384506,2.2375999999999987,201.47278846153847,3.055476923076923,0.4320211538461538,14.813346153846155,-5.043421153846154,-5.7764961538461534,100.47786538461538,5.904081695761467,6.209782915108222,4.079203992735767,4.26947300944589,-2.0920074700198312,-2.3128242933290255,14.657101322692819,14.67259240864805
H1_walk_fast_20251205_051120,,-9.009,2.529,-8.44,-6.2,-2.108,-8.055,209.65,13.86,110.04,0.2895038461538455,3.0985999999999985,207.07278846153847,3.830476923076923,-0.8049788461538463,12.503346153846152,-5.213421153846154,-4.836496153846154,109.29786538461539,6.475810842090223,5.80008689149773,4.091636673200167,4.336088271544704,-2.0924307904852233,-2.34097839012513,14.795098859306169,14.710619647694122
H1_walk_fast_20251205_051120,,-8.748,2.625,-8.959,-5.745,-2.613,-7.82,208.39,12.46,117.32,0.5505038461538465,3.5535999999999985,205.81278846153845,3.926476923076923,-1.3099788461538462,11.103346153846154,-5.732421153846154,-4.6014961538461545,116.57786538461538,6.9700019940562905,5.959688279703185,4.1228649747636785,4.376302221657851,-2.105097456701907,-2.362672832060488,14.936698120302312,14.752921097316177
H1_walk_fast_20251205_051120,,-8.181,1.163,-9.177,-5.252,-2.589,-7.942,203.42,13.02,125.51,1.1175038461538467,4.046599999999999,200.84278846153845,2.464476923076923,-1.2859788461538462,11.663346153846152,-5.950421153846154,-4.723496153846154,124.76786538461539,6.53681675272354,6.351387963914233,4.177569630083014,4.370549462776106,-2.1465786684084556,-2.3793299752011237,15.074167068300481,14.80047825976834
H1_walk_fast_20251205_051120,77761.0,-4.776,-2.426,-7.906,-5.339,-0.361,-6.25,312.41,23.45,176.54,4.522503846153846,3.9595999999999982,309.8327884615385,-1.1245230769230772,0.9420211538461538,22.093346153846152,-4.679421153846153,-3.0314961538461542,175.79786538461536,6.604133215197263,5.075017728548113,4.173091064931328,4.241441447337063,-2.2345176907014315,-2.392141394729468,15.082514538828558,14.853435439136843
H1_walk_fast_20251205_051120,,-4.671,-2.888,-7.54,-5.106,1.407,-6.164,329.42,29.4,186.9,4.627503846153846,4.192599999999999,326.8427884615385,-1.586523076923077,2.710021153846154,28.04334615384615,-4.3134211538461535,-2.945496153846154,186.15786538461538,6.521997345156281,5.796383096950728,4.179429168538869,4.0960304759646045,-2.3030633112358996,-2.4006516573805246,15.083722253422584,14.911306160920448
H1_walk_fast_20251205_051120,,-4.477,-2.895,-5.899,-5.717,2.376,-5.633,343.7,35.35,196.07,4.8215038461538455,3.581599999999999,341.12278846153845,-1.593523076923077,3.6790211538461537,33.993346153846154,-2.672421153846154,-2.4144961538461542,195.32786538461536,5.738296782032725,5.673874063405474,4.079273376006638,4.006309318414111,-2.3640444764874786,-2.4038355269265903,15.077703560968267,14.969545384144991
H1_walk_fast_20251205_051120,,-5.769,-2.326,-6.178,-6.549,2.391,-5.147,350.77,34.86,197.89,3.5295038461538457,2.7495999999999983,348.19278846153844,-1.024523076923077,3.694021153846154,33.50334615384615,-2.951421153846154,-1.9284961538461545,197.14786538461536,4.713590113971863,4.992513381099972,3.990436947700677,3.8947252191317414,-2.427866680905285,-2.4009525046862548,15.068857395820404,15.02978707187879
H1_walk_fast_20251205_051120,77837.0,-6.966,2.12,-5.025,-8.559,-2.034,-5.54,240.31,32.69,169.19,2.3325038461538457,0.7395999999999994,237.73278846153846,3.421476923076923,-0.730978846153846,31.33334615384615,-1.7984211538461543,-2.3214961538461543,168.44786538461537,4.514576079109948,2.543753648812497,3.9228478880399056,3.747119494286715,-2.4927169157183915,-2.3967751033254454,15.163354338164691,15.09381518868312
H1_walk_fast_20251205_051120,,-7.298,1.129,-5.051,-8.863,-2.45,-5.348,218.19,31.99,161.63,2.000503846153846,0.4355999999999991,215.61278846153846,2.430476923076923,-1.1469788461538464,30.63334615384615,-1.824421153846154,-2.129496153846154,160.88786538461537,3.638371374487097,2.457653698707361,3.854893434050769,3.61914341200343,-2.569624223047477,-2.387231450505829,15.24885917247895,15.160945774400506
H1_walk_fast_20251205_051120,,-7.71,-0.304,-5.154,-8.859,-2.828,-5.286,203.21,31.5,154.98,1.5885038461538459,0.43959999999999866,200.63278846153847,0.9974769230769229,-1.524978846153846,30.143346153846153,-1.9274211538461539,-2.067496153846154,154.23786538461536,2.689471506748158,2.6064053766414297,3.742281512966653,3.4741794598364875,-2.6723084246517352,-2.3782764068815045,15.308132098436928,15.227372710973167
H1_walk_fast_20251205_051120,,-8.157,-1.304,-5.477,-9.038,-2.836,-5.339,198.66,30.38,148.89,1.1415038461538458,0.2605999999999984,196.08278846153846,-0.002523076923077072,-1.532978846153846,29.023346153846152,-2.2504211538461543,-2.1204961538461546,148.14786538461536,2.523377254074277,2.6295323617007473,3.6159217298790356,3.323770651821588,-2.787882043013624,-2.3690886804465228,15.309674077962645,15.292543070621768
H1_walk_fast_20251205_051120,77913.0,-9.28,-2.046,-5.434,-9.998,1.855,-5.298,253.82,23.87,122.43,0.01850384615384648,-0.6994000000000007,251.24278846153845,-0.7445230769230768,3.158021153846154,22.513346153846154,-2.207421153846154,-2.0794961538461543,121.68786538461539,2.3296706108033765,3.8453299236867498,3.4843635454127786,3.2017011130366835,-2.751696435005189,-2.360193581406928,15.206751833930001,15.35742594901419
H1_walk_fast_20251205_051120,,-9.344,-0.905,-5.339,-10.167,1.637,-4.893,261.59,21.21,116.76,-0.045496153846153575,-0.8684000000000012,259.01278846153843,0.39647692307692295,2.940021153846154,19.853346153846154,-2.1124211538461544,-1.674496153846154,116.01786538461539,2.1497876596920116,3.4931046812697204,3.356865165381682,3.075944111833787,-2.7008184471478565,-2.3526944298789245,15.291281738481779,15.422455278979161
H1_walk_fast_20251205_051120,,-9.67,0.199,-5.504,-9.782,1.182,-4.657,258.51,16.1,109.41,-0.3714961538461541,-0.4834000000000014,255.93278846153845,1.500476923076923,2.4850211538461537,14.743346153846154,-2.2774211538461535,-1.4384961538461543,108.66786538461538,2.752469346059066,2.9117480797096866,3.1873560333950337,2.9351885230289216,-2.642591463915452,-2.344814801357346,15.38892818303343,15.486995511502785
H1_walk_fast_20251205_051120,,-9.715,1.256,-5.587,-9.598,0.644,-4.231,246.47,10.01,101.15,-0.416496153846154,-0.2994000000000021,243.89278846153846,2.5574769230769228,1.947021153846154,8.653346153846154,-2.3604211538461537,-1.012496153846154,100.40786538461539,3.5051027491022357,2.214877015790643,3.002151940761564,2.8229699776005663,-2.5991730012404886,-2.3367119751977423,15.490802472380464,15.550743416624634
H1_walk_fast_20251205_051120,77989.0,-9.756,0.151,-3.967,-9.957,-1.218,-3.197,149.24,-26.53,62.16,-0.4574961538461544,-0.6584000000000021,146.66278846153847,1.452476923076923,0.08502115384615383,-27.88665384615385,-0.740421153846154,0.021503846153845707,61.41786538461538,1.6932853947040054,0.6642150043477958,2.8446106499099404,2.68524526013527,-2.558750413123199,-2.3292831971487535,15.584408378248904,15.613251050950648
H1_walk_fast_20251205_051120,,-9.988,0.079,-3.676,-10.132,-1.618,-3.003,141.89,-33.18,55.16,-0.6894961538461537,-0.833400000000001,139.31278846153845,1.380476923076923,-0.3149788461538463,-34.53665384615385,-0.4494211538461541,0.21550384615384566,54.41786538461538,1.6072028045150293,0.9166292277859737,2.702098540235144,2.5324369829524134,-2.504802278318666,-2.3211496106933645,15.667967655209338,15.674969140932662
