session_id,Timestamp,AccX,AccY,AccZ,GyroX,GyroY,GyroZ,MagnX,MagnY,MagnZ,AccX_corr,GyroX_corr,MagnX_corr,AccY_corr,GyroY_corr,MagnY_corr,AccZ_corr,GyroZ_corr,MagnZ_corr,AccNorm,GyroNorm,AccNorm_filt,GyroNorm_filt
H1_squat_slow_20251205_013454,79222.0,-9.275,-0.361,-3.613,-9.359,-0.361,-3.436,3.08,2.52,0.14,0.0746692307692296,-0.013646153846154974,0.5569038461538462,-0.21322884615384613,-0.21146346153846154,1.0936153846153847,-0.3035461538461539,-0.11998269230769276,-0.6168076923076923,0.3783943741264687,0.24351357156023934,0.3005826630998599,0.2186717291188899
H1_squat_slow_20251205_013454,,-9.273,-0.254,-3.649,-9.366,-0.359,-3.369,3.64,2.38,0.0,0.07666923076923027,-0.020646153846154647,1.1169038461538463,-0.10622884615384615,-0.20946346153846154,0.9536153846153845,-0.33954615384615394,-0.052982692307693036,-0.7568076923076923,0.3639427555174564,0.2170446292182447,0.29961915594899774,0.22230636872659662
H1_squat_slow_20251205_013454,,-9.342,-0.122,-3.597,-9.399,-0.29,-3.242,3.43,2.03,-0.14,0.007669230769229429,-0.05364615384615412,0.9069038461538463,0.02577115384615386,-0.14046346153846154,0.6036153846153844,-0.2875461538461539,0.07401730769230719,-0.8968076923076923,0.28880055412493555,0.16759014197699632,0.2977341707682602,0.22350957278667835
H1_squat_slow_20251205_013454,,-9.294,-0.182,-3.563,-9.38,-0.266,-3.254,2.66,1.82,-0.21,0.05566923076922947,-0.03464615384615577,0.13690384615384632,-0.03422884615384614,-0.11646346153846157,0.3936153846153847,-0.2535461538461541,0.06201730769230718,-0.9668076923076923,0.2618326360361501,0.13641935457718057,0.2959681210999835,0.22206108897278615
H1_squat_slow_20251205_013454,79297.0,-9.306,-0.354,-3.271,-9.301,-0.488,-3.398,2.73,1.89,-0.14,0.043669230769230793,0.044353846153844856,0.20690384615384616,-0.20622884615384612,-0.3384634615384615,0.46361538461538454,0.03845384615384617,-0.08198269230769295,-0.8968076923076923,0.2142802767077426,0.35106401168911405,0.2895903993735131,0.229335985331794
H1_squat_slow_20251205_013454,,-9.289,-0.385,-3.381,-9.316,-0.445,-3.381,2.24,2.03,-0.14,0.060669230769230253,0.029353846153844287,-0.2830961538461536,-0.23722884615384615,-0.2954634615384616,0.6036153846153844,-0.0715461538461537,-0.0649826923076926,-0.8968076923076923,0.25510220136210665,0.3039458104463192,0.28749923425746077,0.23527363167928644
H1_squat_slow_20251205_013454,,-9.335,-0.426,-3.364,-9.356,-0.404,-3.408,2.17,1.96,-0.14,0.014669230769229102,-0.01064615384615486,-0.3530961538461539,-0.27822884615384613,-0.25446346153846156,0.5336153846153846,-0.0545461538461538,-0.09198269230769274,-0.8968076923076923,0.28390449109316634,0.2707873880630776,0.2785099936019686,0.23314559765680495
H1_squat_slow_20251205_013454,,-9.273,-0.481,-3.369,-9.359,-0.294,-3.448,2.38,2.03,0.0,0.07666923076923027,-0.013646153846154974,-0.14309615384615393,-0.3332288461538461,-0.14446346153846154,0.6036153846153844,-0.05954615384615414,-0.13198269230769277,-0.7568076923076923,0.3470812286679287,0.19615131991208876,0.2754200766048758,0.23158022022042674
H1_squat_slow_20251205_013454,79373.0,-9.34,-0.213,-3.573,-9.28,-0.211,-3.486,4.2,1.82,0.35,0.009669230769230097,0.06535384615384565,1.6769038461538464,-0.06522884615384614,-0.06146346153846155,0.3936153846153847,-0.2635461538461539,-0.16998269230769303,-0.4068076923076923,0.27167052030231653,0.19220561385027835,0.27379347720915503,0.2242109162909564
H1_squat_slow_20251205_013454,,-9.325,-0.235,-3.549,-9.268,-0.199,-3.372,3.71,1.75,0.28,0.024669230769230666,0.07735384615384433,1.1869038461538461,-0.08722884615384613,-0.04946346153846157,0.32361538461538464,-0.23954615384615385,-0.055982692307692705,-0.47680769230769227,0.2561245836903637,0.10753749755400337,0.2738509840374358,0.21767158532571226
H1_squat_slow_20251205_013454,,-9.313,-0.304,-3.604,-9.337,-0.246,-3.285,3.64,1.47,0.28,0.036669230769229344,0.008353846153845268,1.1169038461538463,-0.15622884615384613,-0.09646346153846155,0.04361538461538461,-0.294546153846154,0.03101730769230704,-0.47680769230769227,0.3354243902898705,0.10167133093465246,0.27205688963197816,0.21454641325675639
H1_squat_slow_20251205_013454,,-9.273,-0.263,-3.503,-9.356,-0.4,-3.238,4.2,0.98,0.21,0.07666923076923027,-0.01064615384615486,1.6769038461538464,-0.11522884615384615,-0.25046346153846155,-0.4463846153846154,-0.19354615384615403,0.07801730769230719,-0.5468076923076923,0.23794110952362008,0.2625490172464954,0.27300137518686957,0.2112307853215124
H1_squat_slow_20251205_013454,79449.0,-9.373,-0.512,-3.116,-9.301,-0.431,-3.381,1.19,1.19,-0.14,-0.023330769230769377,0.044353846153844856,-1.3330961538461539,-0.36422884615384615,-0.2814634615384616,-0.23638461538461542,0.19345384615384598,-0.0649826923076926,-0.8968076923076923,0.4130754988560535,0.29225279151687883,0.2731130491369471,0.21223278499780596
H1_squat_slow_20251205_013454,,-9.383,-0.426,-3.247,-9.318,-0.395,-3.424,1.26,1.19,-0.28,-0.033330769230769164,0.027353846153845396,-1.2630961538461538,-0.27822884615384613,-0.24546346153846157,-0.23638461538461542,0.06245384615384619,-0.10798269230769275,-1.0368076923076923,0.28709356298778915,0.2695566836267836,0.27696216021971176,0.2134212788383796
H1_squat_slow_20251205_013454,,-9.347,-0.419,-3.302,-9.282,-0.352,-3.429,0.77,1.19,-0.35,0.002669230769230424,0.06335384615384498,-1.7530961538461538,-0.2712288461538461,-0.20246346153846154,-0.23638461538461542,0.007453846153846033,-0.11298269230769264,-1.1068076923076924,0.27134437823793467,0.24035442962782255,0.2777497055467618,0.2085166291676501
H1_squat_slow_20251205_013454,,-9.299,-0.409,-3.352,-9.323,-0.294,-3.453,0.14,1.33,-0.21,0.05066923076923047,0.022353846153844614,-2.3830961538461537,-0.2612288461538461,-0.14446346153846154,-0.09638461538461529,-0.04254615384615379,-0.13698269230769267,-0.9668076923076923,0.26947737607583294,0.20033383176440347,0.2766081005444496,0.20314554702966867
H1_squat_slow_20251205_013454,79524.0,-9.328,-0.218,-3.482,-9.332,-0.495,-3.319,0.07,0.91,-0.14,0.021669230769230552,0.013353846153844273,-2.453096153846154,-0.07022884615384614,-0.3454634615384615,-0.5163846153846153,-0.17254615384615413,-0.002982692307692769,-0.8968076923076923,0.1875468517499866,0.34573432707591967,0.2717152346405517,0.20211297491796965
H1_squat_slow_20251205_013454,,-9.342,-0.278,-3.525,-9.299,-0.481,-3.348,0.0,0.84,-0.14,0.007669230769229429,0.046353846153845524,-2.523096153846154,-0.13022884615384617,-0.3314634615384615,-0.5863846153846154,-0.21554615384615383,-0.031982692307692684,-0.8968076923076923,0.25194942728457165,0.33621361958665813,0.2691007013066267,0.2036062684967521
H1_squat_slow_20251205_013454,,-9.342,-0.246,-3.372,-9.349,-0.337,-3.369,-0.07,0.84,-0.21,0.007669230769229429,-0.003646153846155187,-2.5930961538461537,-0.09822884615384614,-0.18746346153846158,-0.5863846153846154,-0.0625461538461538,-0.052982692307693036,-0.9668076923076923,0.11670366180310886,0.19484098525213778,0.26809877547054145,0.1983074102991459
H1_squat_slow_20251205_013454,,-9.392,-0.359,-3.333,-9.318,-0.311,-3.434,-0.49,0.77,-0.14,-0.042330769230769505,0.027353846153845396,-3.0130961538461536,-0.21122884615384613,-0.16146346153846156,-0.6563846153846153,-0.023546153846154105,-0.11798269230769298,-0.8968076923076923,0.21671165366011264,0.20183804892923993,0.27159966057991497,0.1956627066877716
H1_squat_slow_20251205_013454,79600.0,-9.332,-0.364,-3.415,-9.316,-0.189,-3.257,0.35,0.91,0.14,0.017669230769229216,0.029353846153844287,-2.1730961538461537,-0.21622884615384613,-0.03946346153846156,-0.5163846153846153,-0.10554615384615396,0.059017307692307064,-0.6168076923076923,0.24126148929473998,0.07682483770155092,0.27129159688982274,0.19269323731263108
H1_squat_slow_20251205_013454,,-9.304,-0.419,-3.312,-9.354,-0.122,-3.391,0.42,0.91,0.14,0.045669230769229685,-0.008646153846154192,-2.103096153846154,-0.2712288461538461,0.027536538461538446,-0.5163846153846153,-0.0025461538461537536,-0.07498269230769283,-0.6168076923076923,0.27505862743133175,0.08034563505558526,0.2671532413819727,0.19384506247696617
H1_squat_slow_20251205_013454,,-9.325,-0.357,-3.408,-9.411,-0.249,-3.4,0.7,0.77,0.0,0.024669230769230666,-0.06564615384615458,-1.8230961538461539,-0.20922884615384613,-0.09946346153846156,-0.6563846153846153,-0.09854615384615384,-0.08398269230769273,-0.7568076923076923,0.2325868127119102,0.14579262773972698,0.2666008269331054,0.19804642853581542
H1_squat_slow_20251205_013454,,-9.356,-0.383,-3.132,-9.351,-0.266,-3.384,1.19,0.84,-0.07,-0.006330769230769917,-0.005646153846155855,-1.3330961538461539,-0.23522884615384615,-0.11646346153846157,-0.5863846153846154,0.17745384615384596,-0.06798269230769272,-0.8268076923076924,0.29472454294937145,0.13497134281090042,0.2638142976996573,0.20486335147493617
H1_squat_slow_20251205_013454,79675.0,-9.313,-0.369,-3.47,-9.34,-0.383,-3.352,-1.82,0.77,-0.7,0.036669230769229344,0.005353846153845154,-4.343096153846154,-0.22122884615384614,-0.23346346153846156,-0.6563846153846153,-0.16054615384615412,-0.03598269230769269,-1.4568076923076922,0.27579322393880906,0.23628077722885088,0.26121163691126364,0.22016830589300695
H1_squat_slow_20251205_013454,,-9.332,-0.462,-3.51,-9.292,-0.369,-3.226,-1.33,0.7,-0.7,0.017669230769229216,0.0533538461538452,-3.853096153846154,-0.31422884615384616,-0.21946346153846155,-0.7263846153846154,-0.2005461538461537,0.0900173076923072,-1.4568076923076922,0.37318993728882743,0.2431336248527206,0.26233677185416404,0.22422185330287225
H1_squat_slow_20251205_013454,,-9.296,-0.481,-3.522,-9.316,-0.261,-3.329,-0.28,0.7,-0.56,0.05366923076923058,0.029353846153844287,-2.8030961538461536,-0.3332288461538461,-0.11146346153846157,-0.7263846153846154,-0.21254615384615372,-0.012982692307693,-1.3168076923076923,0.3988705526297691,0.1159926801212727,0.2587914506493607,0.22834527703332977
H1_squat_slow_20251205_013454,,-9.366,-0.359,-3.568,-9.344,-0.211,-3.269,0.42,0.42,-0.42,-0.016330769230769704,0.0013538461538455948,-2.103096153846154,-0.21122884615384613,-0.06146346153846155,-1.0063846153846154,-0.258546153846154,0.04701730769230705,-1.1768076923076922,0.3342610254573407,0.07739649363072788,0.2591894837059442,0.2385089757655303
H1_squat_slow_20251205_013454,79751.0,-9.306,-0.187,-3.46,-9.328,-0.251,-3.412,-1.19,-0.56,-0.98,0.043669230769230793,0.01735384615384561,-3.7130961538461538,-0.03922884615384614,-0.10146346153846156,-1.9863846153846154,-0.15054615384615389,-0.09598269230769274,-1.7368076923076923,0.16158604062358944,0.14074326707282103,0.26812776449341413,0.23787663134498735
H1_squat_slow_20251205_013454,,-9.354,-0.309,-3.417,-9.354,-0.27,-3.443,-1.68,-0.56,-0.98,-0.004330769230769249,-0.008646153846154192,-4.203096153846154,-0.16122884615384614,-0.12046346153846157,-1.9863846153846154,-0.10754615384615374,-0.12698269230769288,-1.7368076923076923,0.19385476935410006,0.1752449876255238,0.27220557655538213,0.2455615125065428
H1_squat_slow_20251205_013454,,-9.273,-0.313,-3.262,-9.265,-0.313,-3.427,-1.75,-0.56,-0.84,0.07666923076923027,0.08035384615384444,-4.273096153846154,-0.16522884615384614,-0.16346346153846156,-1.9863846153846154,0.04745384615384607,-0.11098269230769287,-1.5968076923076922,0.18823020496952592,0.2132936985513539,0.2715988353064402,0.24559533980254084
H1_squat_slow_20251205_013454,,-9.368,-0.395,-3.551,-9.32,-0.371,-3.391,-0.91,-0.63,-0.77,-0.018330769230770372,0.025353846153844728,-3.433096153846154,-0.24722884615384616,-0.22146346153846155,-2.0563846153846153,-0.24154615384615408,-0.07498269230769283,-1.5268076923076923,0.34612521420581865,0.2351835165505878,0.2707330423524769,0.24414197758479644
H1_squat_slow_20251205_013454,79827.0,-9.411,-0.414,-3.271,-9.335,-0.34,-3.283,0.28,-1.19,-1.05,-0.06133076923076963,0.01035384615384416,-2.243096153846154,-0.2662288461538461,-0.19046346153846158,-2.6163846153846153,0.03845384615384617,0.03301730769230726,-1.8068076923076923,0.27589483515076874,0.1935811843094235,0.27489642156823535,0.25215551417630444
H1_squat_slow_20251205_013454,,-9.38,-0.385,-3.297,-9.39,-0.371,-3.307,0.7,-1.05,-1.12,-0.030330769230770827,-0.044646153846155556,-1.8230961538461539,-0.23722884615384615,-0.22146346153846155,-2.4763846153846156,0.012453846153845927,0.009017307692307241,-1.8768076923076924,0.23948398546382835,0.22609877418480176,0.2792117647790359,0.2598529023277937
H1_squat_slow_20251205_013454,,-9.368,-0.4,-3.262,-9.349,-0.45,-3.34,1.47,-1.12,-1.05,-0.018330769230770372,-0.003646153846155187,-1.0530961538461538,-0.25222884615384616,-0.3004634615384616,-2.5463846153846155,0.04745384615384607,-0.023982692307692677,-1.8068076923076923,0.2573077446317643,0.3014411313803574,0.28209162461048987,0.26357120400970435
H1_squat_slow_20251205_013454,,-9.39,-0.325,-3.283,-9.337,-0.433,-3.29,1.89,-1.12,-0.98,-0.04033076923077061,0.008353846153845268,-0.6330961538461539,-0.17722884615384615,-0.2834634615384616,-2.5463846153846155,0.02645384615384616,0.026017307692307146,-1.7368076923076923,0.18367482362071486,0.2847774939711444,0.28870354993799524,0.26366832074977925
H1_squat_slow_20251205_013454,79903.0,-9.373,-0.414,-3.293,-9.335,-0.45,-2.917,3.71,-0.98,-0.91,-0.023330769230769377,0.01035384615384416,1.1869038461538461,-0.2662288461538461,-0.3004634615384616,-2.4063846153846153,0.01645384615384593,0.39901730769230737,-1.6668076923076924,0.2677552097916343,0.4996001458044919,0.29488286424236587,0.27824186505036697
H1_squat_slow_20251205_013454,,-9.373,-0.397,-3.216,-9.399,-0.438,-3.094,3.92,-0.91,-0.77,-0.023330769230769377,-0.05364615384615412,1.396903846153846,-0.24922884615384616,-0.2884634615384616,-2.3363846153846155,0.09345384615384589,0.22201730769230732,-1.5268076923076923,0.26719461803903094,0.36794124990299387,0.30448706322293934,0.28981857748689116
H1_squat_slow_20251205_013454,,-9.323,-0.409,-3.125,-9.356,-0.45,-3.053,3.78,-0.98,-0.84,0.026669230769229557,-0.01064615384615486,1.256903846153846,-0.2612288461538461,-0.3004634615384616,-2.4063846153846153,0.18445384615384608,0.26301730769230725,-1.5968076923076922,0.32089714753116605,0.399461808508774,0.31670519437241756,0.2869197176072896
H1_squat_slow_20251205_013454,,-9.359,-0.345,-3.087,-9.409,-0.529,-2.946,3.29,-0.91,-0.91,-0.00933076923077003,-0.06364615384615568,0.7669038461538462,-0.19722884615384612,-0.37946346153846156,-2.3363846153846155,0.2224538461538459,0.370017307692307,-1.6668076923076924,0.2974424224589598,0.5338128506639976,0.32697711305013566,0.2858525647757249
H1_squat_slow_20251205_013454,79979.0,-9.373,-0.543,-2.998,-9.325,-0.371,-3.29,3.5,0.63,-0.35,-0.023330769230769377,0.020353846153845723,0.9769038461538462,-0.3952288461538462,-0.22146346153846155,-0.7963846153846154,0.31145384615384586,0.026017307692307146,-1.1068076923076924,0.5037396787121534,0.2239134746937045,0.32769114018237333,0.30733143165661087
H1_squat_slow_20251205_013454,,-9.416,-0.455,-3.104,-9.301,-0.546,-3.285,4.76,0.91,0.0,-0.06633076923077041,0.044353846153844856,2.236903846153846,-0.30722884615384616,-0.39646346153846157,-0.5163846153846153,0.205453846153846,0.03101730769230704,-0.7568076923076923,0.37550048968700106,0.4001407419648459,0.3281004852756401,0.32961770924016276
H1_squat_slow_20251205_013454,,-9.335,-0.316,-3.278,-9.344,-0.457,-3.156,4.2,0.63,-0.14,0.014669230769229102,0.0013538461538455948,1.6769038461538464,-0.16822884615384615,-0.3074634615384616,-0.7963846153846154,0.031453846153846055,0.16001730769230704,-0.8968076923076923,0.17177157927749617,0.3466138367718689,0.3447461732991858,0.3470469947958714
H1_squat_slow_20251205_013454,,-9.34,-0.376,-3.288,-9.378,-0.357,-3.104,3.57,0.91,-0.14,0.009669230769230097,-0.0326461538461551,1.046903846153846,-0.22822884615384614,-0.20746346153846154,-0.5163846153846153,0.021453846153846268,0.2120173076923071,-0.8968076923076923,0.22943881048152578,0.2984262019253034,0.3601988727460458,0.36486125052153984
H1_squat_slow_20251205_013454,80054.0,-9.44,-0.347,-3.257,-9.335,-0.534,-3.195,1.47,1.19,-0.28,-0.09033076923076955,0.01035384615384416,-1.0530961538461538,-0.19922884615384612,-0.38446346153846156,-0.23638461538461542,0.05245384615384596,0.12101730769230734,-1.0368076923076923,0.22495152141282967,0.4031929366313455,0.37950407062409397,0.38125906941705306
H1_squat_slow_20251205_013454,,-9.385,-0.392,-3.092,-9.395,-0.507,-3.139,0.14,1.4,-0.28,-0.03533076923076983,-0.04964615384615456,-2.3830961538461537,-0.24422884615384616,-0.35746346153846154,-0.02638461538461545,0.217453846153846,0.1770173076923074,-1.0368076923076923,0.3289105771409267,0.40197014086796085,0.3992885325055772,0.39164232404929195
H1_squat_slow_20251205_013454,,-9.366,-0.404,-3.125,-9.368,-0.261,-3.185,-0.07,1.33,-0.21,-0.016330769230769704,-0.022646153846155315,-2.5930961538461537,-0.25622884615384617,-0.11146346153846157,-0.09638461538461529,0.18445384615384608,0.13101730769230713,-0.9668076923076923,0.31613784491254243,0.17350068143122815,0.4278320615927397,0.39165855643621206
H1_squat_slow_20251205_013454,,-9.344,-0.574,-3.175,-9.354,-0.158,-3.398,-0.28,1.4,-0.07,0.005669230769230538,-0.008646153846154192,-2.8030961538461536,-0.4262288461538461,-0.008463461538461559,-0.02638461538461545,0.13445384615384626,-0.08198269230769295,-0.8268076923076924,0.44696868594647204,0.08287067029753194,0.44510815159305134,0.3845831378447825
H1_squat_slow_20251205_013454,80130.0,-9.253,-0.321,-3.649,-9.416,-0.665,-3.384,-3.71,0.35,-0.91,0.09666923076922984,-0.07064615384615536,-6.233096153846153,-0.17322884615384615,-0.5154634615384616,-1.0763846153846153,-0.33954615384615394,-0.06798269230769272,-1.6668076923076924,0.3932489846255468,0.5247047795550085,0.4411170268770622,0.3994859286348746
H1_squat_slow_20251205_013454,,-9.253,-0.677,-3.393,-9.397,-0.44,-3.637,-3.5,0.21,-0.56,0.09666923076922984,-0.05164615384615523,-6.023096153846154,-0.5292288461538461,-0.2904634615384616,-1.2163846153846154,-0.08354615384615371,-0.32098269230769283,-1.3168076923076923,0.5444337164442804,0.4359658661605299,0.44836099651395905,0.41365756315410196
H1_squat_slow_20251205_013454,,-9.289,-0.737,-3.273,-9.411,-0.218,-3.446,-1.4,0.07,-0.35,0.060669230769230253,-0.06564615384615458,-3.9230961538461537,-0.5892288461538462,-0.06846346153846156,-1.3563846153846153,0.03645384615384595,-0.129982692307693,-1.1068076923076924,0.5934646338252443,0.16091042035921038,0.45779621090281275,0.4181002175477652
H1_squat_slow_20251205_013454,,-9.383,-0.785,-3.362,-9.342,-0.249,-3.125,1.89,0.07,0.07,-0.033330769230769164,0.0033538461538444864,-0.6330961538461539,-0.6372288461538462,-0.09946346153846156,-1.3563846153846153,-0.05254615384615402,0.19101730769230718,-0.6868076923076922,0.6402598229094972,0.21538765123203843,0.47226404402535405,0.42311282160249825
H1_squat_slow_20251205_013454,80206.0,-9.359,-0.421,-2.994,-9.361,-0.663,-2.879,-0.56,-0.35,0.91,-0.00933076923077003,-0.01564615384615564,-3.083096153846154,-0.2732288461538461,-0.5134634615384616,-1.7763846153846155,0.31545384615384586,0.4370173076923072,0.15319230769230774,0.4174352580679479,0.6744432190243072,0.4718515575531657,0.414647794634579
H1_squat_slow_20251205_013454,,-9.316,-0.476,-3.209,-9.428,-0.615,-2.86,-0.28,-0.28,1.12,0.03366923076922923,-0.08264615384615581,-2.8030961538461536,-0.3282288461538461,-0.4654634615384615,-1.7063846153846154,0.100453846153846,0.4560173076923073,0.3631923076923078,0.34490399788227644,0.656839710803077,0.474180800026442,0.4066458241976196
H1_squat_slow_20251205_013454,,-9.356,-0.708,-3.111,-9.328,-0.526,-2.857,0.7,0.0,1.47,-0.006330769230769917,0.01735384615384561,-1.8230961538461539,-0.560228846153846,-0.37646346153846155,-1.4263846153846154,0.19845384615384587,0.459017307692307,0.7131923076923077,0.5943739292357777,0.5939046915212458,0.46421075815105045,0.4098619291203356
H1_squat_slow_20251205_013454,,-9.351,-0.653,-2.994,-9.294,-0.538,-2.812,2.31,0.42,1.96,-0.0013307692307709118,0.05135384615384453,-0.21309615384615377,-0.5052288461538461,-0.38846346153846156,-1.0063846153846154,0.31545384615384586,0.5040173076923073,1.2031923076923077,0.5956249549724613,0.6384156364929031,0.45193289538505366,0.405688548022816
H1_squat_slow_20251205_013454,80282.0,-9.349,-0.577,-2.769,-9.411,-0.424,-2.742,2.94,2.1,3.43,0.0006692307692297561,-0.06564615384615458,0.4169038461538461,-0.4292288461538461,-0.2744634615384616,0.6736153846153847,0.540453846153846,0.5740173076923072,2.673192307692308,0.690165349798778,0.6396369898346972,0.4549101134815726,0.4113899396080724
H1_squat_slow_20251205_013454,,-9.395,-0.658,-2.618,-9.438,-0.23,-2.826,3.29,3.08,3.92,-0.04533076923076962,-0.0926461538461556,0.7669038461538462,-0.5102288461538462,-0.08046346153846157,1.6536153846153847,0.6914538461538462,0.4900173076923071,3.1631923076923076,0.8605212231243837,0.5051481369887988,0.45864478118575835,0.4207450445889397
H1_squat_slow_20251205_013454,,-9.399,-0.699,-2.455,-9.414,-0.024,-3.185,4.48,3.99,4.48,-0.04933076923076918,-0.06864615384615469,1.9569038461538466,-0.5512288461538462,0.12553653846153845,2.563615384615385,0.854453846153846,0.13101730769230713,3.723192307692308,1.0180265914169926,0.1940032263693466,0.45802963219607545,0.4200242720400157
H1_squat_slow_20251205_013454,,-9.426,-0.512,-2.73,-9.325,-0.115,-3.329,4.9,4.13,4.55,-0.0763307692307702,0.020353846153845723,2.3769038461538465,-0.36422884615384615,0.03453653846153844,2.7036153846153845,0.5794538461538461,-0.012982692307693,3.7931923076923075,0.6886623254719314,0.04213789080763269,0.457436579269748,0.4192929923460521
H1_squat_slow_20251205_013454,80357.0,-9.287,-0.285,-3.338,-9.232,-0.55,-3.865,-1.68,5.46,3.08,0.06266923076922915,0.1133538461538457,-4.203096153846154,-0.13722884615384612,-0.4004634615384616,4.033615384615384,-0.028546153846154,-0.548982692307693,2.323192307692308,0.15353850201604533,0.6889136919227544,0.4590384127724721,0.4325763145603591
H1_squat_slow_20251205_013454,,-9.344,-0.519,-3.333,-9.275,-0.608,-3.776,-3.36,5.74,3.15,0.005669230769230538,0.07035384615384466,-5.883096153846154,-0.37122884615384616,-0.4584634615384615,4.313615384615385,-0.023546153846154105,-0.4599826923076926,2.3931923076923076,0.37201803418003476,0.6532399914710524,0.45919320576643047,0.4412976943955459
H1_squat_slow_20251205_013454,,-9.445,-0.548,-3.616,-9.347,-0.692,-3.606,-3.99,5.18,2.94,-0.09533076923077033,-0.0016461538461545189,-6.5130961538461545,-0.4002288461538462,-0.5424634615384615,3.7536153846153844,-0.306546153846154,-0.2899826923076927,2.1831923076923077,0.513070783901831,0.6151091600397389,0.4583479485104656,0.43297589534870656
H1_squat_slow_20251205_013454,,-9.399,-0.524,-3.829,-9.418,-0.579,-3.558,-4.97,4.34,2.73,-0.04933076923076918,-0.07264615384615425,-7.493096153846153,-0.37622884615384616,-0.4294634615384615,2.9136153846153845,-0.5195461538461541,-0.24198269230769265,1.9731923076923077,0.6433582792251029,0.498268955326053,0.4542559145417612,0.4322004336589011
H1_squat_slow_20251205_013454,80433.0,-9.395,-0.337,-3.551,-9.39,-0.251,-3.175,3.22,2.52,4.76,-0.04533076923076962,-0.044646153846155556,0.6969038461538464,-0.18922884615384616,-0.10146346153846156,1.0936153846153847,-0.24154615384615408,0.14101730769230736,4.0031923076923075,0.31017249925426854,0.17937110734287265,0.4384543160689096,0.4285842246476707
H1_squat_slow_20251205_013454,,-9.426,-0.208,-3.654,-9.459,-0.292,-3.046,3.36,1.82,4.62,-0.0763307692307702,-0.11364615384615462,0.836903846153846,-0.06022884615384613,-0.14246346153846154,0.3936153846153847,-0.34454615384615384,0.27001730769230736,3.863192307692308,0.3580027267641439,0.32576161930305225,0.4287628060265601,0.4339961503839832
H1_squat_slow_20251205_013454,,-9.328,-0.179,-3.551,-9.464,-0.201,-3.037,1.68,1.19,4.2,0.021669230769230552,-0.1186461538461554,-0.8430961538461539,-0.031228846153846135,-0.05146346153846157,-0.23638461538461542,-0.24154615384615408,0.27901730769230726,3.443192307692308,0.24451858995197215,0.30753220268432047,0.43412017167657474,0.42606340041249574
H1_squat_slow_20251205_013454,,-9.318,-0.189,-3.331,-9.457,-0.072,-3.058,1.05,1.26,4.2,0.03166923076923034,-0.11164615384615573,-1.4730961538461538,-0.041228846153846144,0.07753653846153845,-0.16638461538461535,-0.02154615384615388,0.25801730769230735,3.443192307692308,0.05627605777108424,0.2916328334293378,0.4353978560806755,0.41720433432704634
H1_squat_slow_20251205_013454,80508.0,-9.399,0.01,-3.123,-9.244,-0.529,-3.015,1.05,1.82,3.78,-0.04933076923076918,0.10135384615384524,-1.4730961538461538,0.15777115384615387,-0.37946346153846156,0.3936153846153847,0.18645384615384586,0.30101730769230706,3.0231923076923075,0.24917924978699205,0.4948500179885355,0.4292087654635042,0.4129515563580399
H1_squat_slow_20251205_013454,,-9.373,0.17,-3.238,-9.375,-0.617,-3.044,0.49,1.82,3.36,-0.023330769230769377,-0.029646153846154988,-2.033096153846154,0.31777115384615384,-0.4674634615384615,0.3936153846153847,0.07145384615384609,0.27201730769230714,2.6031923076923076,0.32654017079035297,0.5416589314278515,0.42744407333279943,0.42436770439763305
H1_squat_slow_20251205_013454,,-9.256,0.038,-3.29,-9.375,-0.462,-3.094,-0.91,1.89,3.01,0.09366923076922973,-0.029646153846154988,-3.433096153846154,0.18577115384615386,-0.3124634615384616,0.46361538461538454,0.019453846153846044,0.22201730769230732,2.2531923076923075,0.20895764768107458,0.3844528503593233,0.4239172479092649,0.4344711361287784
H1_squat_slow_20251205_013454,,-9.189,-0.337,-3.118,-9.435,-0.409,-3.049,-1.33,2.24,3.22,0.1606692307692299,-0.08964615384615549,-3.853096153846154,-0.18922884615384616,-0.25946346153846156,0.8136153846153849,0.1914538461538462,0.26701730769230725,2.463192307692308,0.3134912010564134,0.3829568688249077,0.39742115875967643,0.43812787217130766
H1_squat_slow_20251205_013454,80584.0,-9.349,-0.28,-2.977,-9.263,0.302,-3.558,2.38,3.99,4.27,0.0006692307692297561,0.08235384615384511,-0.14309615384615393,-0.13222884615384617,0.4515365384615384,2.563615384615385,0.3324538461538462,-0.24198269230769265,3.5131923076923073,0.35778551598336855,0.5188670590032084,0.37552442661003604,0.4357215375914698
H1_squat_slow_20251205_013454,,-9.359,-0.282,-2.879,-9.189,-0.026,-3.553,2.17,4.62,4.55,-0.00933076923077003,0.15635384615384496,-0.3530961538461539,-0.13422884615384612,0.12353653846153845,3.1936153846153847,0.4304538461538461,-0.23698269230769275,3.7931923076923075,0.45099330378939084,0.30962654601238887,0.3661572198197121,0.4566637922784166
H1_squat_slow_20251205_013454,,-9.421,-0.029,-2.965,-9.292,-0.424,-3.446,2.66,5.18,4.62,-0.07133076923076942,0.0533538461538452,0.13690384615384632,0.11877115384615386,-0.2744634615384616,3.7536153846153844,0.3444538461538462,-0.129982692307693,3.863192307692308,0.371272295970461,0.308338004337187,0.3733898346939309,0.464558599795014
H1_squat_slow_20251205_013454,,-9.337,0.285,-3.376,-9.366,-0.534,-3.159,1.26,4.9,4.06,0.01266923076923021,-0.020646153846154647,-1.2630961538461538,0.43277115384615383,-0.38446346153846156,3.473615384615385,-0.06654615384615381,0.15701730769230737,3.3031923076923073,0.4380408332579639,0.4158038622255882,0.36871440567050384,0.45195037123916937
H1_squat_slow_20251205_013454,80660.0,-9.507,-0.235,-3.278,-9.347,-0.172,-3.379,8.19,5.18,3.85,-0.15733076923076972,-0.0016461538461545189,5.666903846153845,-0.08722884615384613,-0.022463461538461543,3.7536153846153844,0.031453846153846055,-0.06298269230769282,3.093192307692308,0.18262307353110363,0.06688898606721931,0.3618143982864017,0.4424321607187887
H1_squat_slow_20251205_013454,,-9.368,0.235,-3.372,-9.359,-0.493,-3.223,7.98,4.76,3.36,-0.018330769230770372,-0.013646153846154974,5.456903846153846,0.38277115384615384,-0.3434634615384615,3.3336153846153844,-0.0625461538461538,0.09301730769230732,2.6031923076923076,0.38828056180841,0.35609772037616383,0.3625761051361807,0.4316362177788347
H1_squat_slow_20251205_013454,,-9.342,0.376,-3.498,-9.368,-0.617,-3.329,3.57,4.2,2.73,0.007669230769229429,-0.022646153846155315,1.046903846153846,0.5237711538461538,-0.4674634615384615,2.773615384615385,-0.18854615384615414,-0.012982692307693,1.9731923076923077,0.5567267649683286,0.4681917197656326,0.3745383571189355,0.43738711491581966
H1_squat_slow_20251205_013454,,-9.232,0.201,-3.396,-9.229,-0.555,-3.379,-1.33,4.34,2.45,0.11766923076923064,0.11635384615384581,-3.853096153846154,0.34877115384615387,-0.4054634615384616,2.9136153846153845,-0.08654615384615383,-0.06298269230769282,1.6931923076923079,0.3781237923888976,0.42650399258139404,0.377096676446282,0.4315137534397651
H1_squat_slow_20251205_013454,80736.0,-9.227,-0.558,-3.242,-9.148,0.273,-3.443,-1.26,4.9,3.43,0.12266923076922964,0.19735384615384532,-3.783096153846154,-0.4102288461538462,0.4225365384615385,3.473615384615385,0.06745384615384609,-0.12698269230769288,2.673192307692308,0.43345757318932293,0.4833324643270769,0.3804226743873542,0.43333140481098137
H1_squat_slow_20251205_013454,,-9.371,-0.66,-3.111,-9.229,0.641,-3.802,0.63,5.53,4.34,-0.021330769230770485,0.11635384615384581,-1.893096153846154,-0.5122288461538462,0.7905365384615385,4.103615384615384,0.19845384615384587,-0.48598269230769287,3.5831923076923076,0.5497429595741372,0.9352354855223245,0.40199902331181087,0.44240202064664924
H1_squat_slow_20251205_013454,,-9.375,-0.66,-3.001,-9.337,0.534,-3.905,3.99,6.02,5.25,-0.025330769230770045,0.008353846153845268,1.4669038461538464,-0.5122288461538462,0.6835365384615385,4.593615384615385,0.3084538461538462,-0.5889826923076926,4.493192307692308,0.5984678887868787,0.9023262148444777,0.41450612039005386,0.44897450318063387
H1_squat_slow_20251205_013454,,-9.244,-0.278,-3.273,-9.284,0.352,-3.64,6.37,5.25,5.32,0.10566923076923018,0.061353846153844316,3.8469038461538463,-0.13022884615384617,0.5015365384615385,3.8236153846153846,0.03645384615384595,-0.32398269230769294,4.563192307692308,0.17162290523508575,0.6002232740945599,0.4189342663551787,0.4483492130017233
H1_squat_slow_20251205_013454,80811.0,-9.203,0.268,-3.226,-9.397,-0.268,-3.34,-5.11,2.66,1.96,0.14666923076923055,-0.05164615384615523,-7.633096153846154,0.4157711538461539,-0.11846346153846157,1.2336153846153848,0.0834538461538461,-0.023982692307692677,1.2031923076923077,0.4487115555263423,0.1314385272935632,0.4326425289953326,0.4457720138956266
H1_squat_slow_20251205_013454,,-9.344,0.175,-3.003,-9.251,-0.61,-2.965,-5.32,2.73,0.98,0.005669230769230538,0.09435384615384557,-7.8430961538461546,0.32277115384615385,-0.4604634615384615,1.3036153846153846,0.30645384615384597,0.3510173076923073,0.2231923076923077,0.4451149489235083,0.5866365126682466,0.44527317147131407,0.43516373407808806
H1_squat_slow_20251205_013454,,-9.423,0.182,-3.36,-9.282,-0.591,-2.541,-7.07,2.31,0.14,-0.07333076923077009,0.06335384615384498,-9.593096153846155,0.32977115384615385,-0.4414634615384615,0.8836153846153847,-0.050546153846153796,0.7750173076923073,-0.6168076923076923,0.3415864887457336,0.8941786873542883,0.4534223179220088,0.4292472339774725
H1_squat_slow_20251205_013454,,-9.383,0.089,-3.384,-9.088,-0.038,-3.151,-9.45,2.73,0.28,-0.033330769230769164,0.2573538461538458,-11.973096153846154,0.23677115384615385,0.11153653846153844,1.3036153846153846,-0.07454615384615382,0.16501730769230738,-0.47680769230769227,0.2504568795709319,0.32542604901909317,0.4558463561378342,0.43658012375354577
H1_squat_slow_20251205_013454,80887.0,-9.349,0.177,-3.386,-9.294,-0.455,-3.118,-2.59,4.13,1.12,0.0006692307692297561,0.05135384615384453,-5.113096153846154,0.32477115384615385,-0.3054634615384616,2.7036153846153845,-0.07654615384615404,0.1980173076923073,0.3631923076923078,0.3336705919151757,0.3676356865098407,0.46271988678643616,0.4788817899338496
H1_squat_slow_20251205_013454,,-9.294,0.273,-3.819,-9.158,-0.053,-3.262,-5.25,3.64,1.54,0.05566923076922947,0.18735384615384554,-7.773096153846154,0.4207711538461539,0.09653653846153845,2.2136153846153848,-0.5095461538461539,0.05401730769230717,0.7831923076923077,0.6631626573193561,0.21757443888724684,0.4526192667066299,0.5152689893932227
H1_squat_slow_20251205_013454,,-9.323,-0.048,-3.922,-9.256,0.108,-3.132,-6.93,4.55,2.24,0.026669230769229557,0.08935384615384478,-9.453096153846154,0.09977115384615386,0.25753653846153846,3.1236153846153845,-0.6125461538461541,0.18401730769230706,1.483192307692308,0.6211910508058947,0.3288944329044833,0.4599947270523652,0.5541650954358516
H1_squat_slow_20251205_013454,,-9.206,-0.546,-3.278,-9.34,-0.005,-3.221,-5.18,6.16,2.59,0.14366923076923044,0.005353846153845154,-7.703096153846154,-0.3982288461538462,0.14453653846153844,4.733615384615385,0.031453846153846055,0.0950173076923071,1.8331923076923076,0.4245190292751503,0.17305422092563183,0.4794321934655714,0.5742464925520695
H1_squat_slow_20251205_013454,80963.0,-9.131,-0.268,-3.092,-9.311,0.043,-3.02,-7.49,6.44,3.15,0.21866923076922973,0.03435384615384507,-10.013096153846154,-0.12022884615384616,0.19253653846153845,5.013615384615385,0.217453846153846,0.29601730769230716,2.3931923076923076,0.3309945364198515,0.3547911383359449,0.49318949916821947,0.5738717945387273
H1_squat_slow_20251205_013454,,-9.244,-0.565,-2.867,-9.076,0.268,-3.139,-6.09,8.05,3.71,0.10566923076923018,0.2693538461538445,-8.613096153846154,-0.4172288461538461,0.4175365384615385,6.623615384615386,0.4424538461538461,0.1770173076923074,2.9531923076923077,0.6172611298069577,0.5274688451567029,0.5084176882248721,0.5745354702478568
H1_squat_slow_20251205_013454,,-9.361,-0.598,-2.953,-9.072,0.299,-2.907,-2.24,9.17,4.34,-0.011330769230770699,0.27335384615384584,-4.7630961538461545,-0.4502288461538461,0.4485365384615384,7.743615384615385,0.35645384615384623,0.40901730769230715,3.5831923076923076,0.5743637738213079,0.6657345638721359,0.528434536071659,0.597508408397999
H1_squat_slow_20251205_013454,,-9.368,-0.359,-2.922,-9.141,0.309,-3.161,1.47,10.08,4.41,-0.018330769230770372,0.204353846153845,-1.0530961538461538,-0.21122884615384613,0.4585365384615384,8.653615384615385,0.3874538461538459,0.15501730769230715,3.653192307692308,0.4416719658836013,0.5254013867761776,0.5398178289919758,0.634254795341753
H1_squat_slow_20251205_013454,81039.0,-9.289,0.414,-3.29,-9.155,-0.28,-3.534,0.56,11.2,4.34,0.060669230769230253,0.19035384615384565,-1.9630961538461538,0.5617711538461538,-0.13046346153846158,9.773615384615384,0.019453846153846044,-0.21798269230769263,3.5831923076923076,0.5653724763250743,0.3174456736008065,0.5996184825092008,0.6470089380610046
H1_squat_slow_20251205_013454,,-9.282,0.354,-3.704,-9.244,-0.129,-3.288,-0.42,11.06,3.85,0.06766923076922993,0.10135384615384524,-2.9430961538461538,0.5017711538461538,0.02053653846153844,9.633615384615386,-0.3945461538461541,0.02801730769230737,3.093192307692308,0.641887905431932,0.10714159356890769,0.6642322192222618,0.6721388697127407
H1_squat_slow_20251205_013454,,-9.105,-0.017,-3.807,-9.184,0.105,-3.522,-1.4,11.76,3.78,0.24466923076922953,0.16135384615384574,-3.9230961538461537,0.13077115384615384,0.25453653846153845,10.333615384615385,-0.49754615384615386,-0.20598269230769262,3.0231923076923075,0.5696633237014311,0.36503805638720294,0.7026187588082053,0.7127317861557222
H1_squat_slow_20251205_013454,,-9.093,-0.213,-3.75,-9.206,0.208,-3.637,-0.28,12.88,3.64,0.25666923076923,0.1393538461538455,-2.8030961538461536,-0.06522884615384614,0.35753653846153843,11.453615384615386,-0.4405461538461539,-0.32098269230769283,2.883192307692308,0.5140182974008508,0.5002816801902942,0.7312271146689298,0.7351668695704006
H1_squat_slow_20251205_013454,81115.0,-9.225,0.043,-3.81,-9.105,0.438,-4.573,2.94,14.14,4.9,0.12466923076923031,0.24035384615384459,0.4169038461538461,0.19077115384615384,0.5875365384615384,12.713615384615386,-0.500546153846154,-1.2569826923076932,4.143192307692308,0.5499840928341129,1.408181325025087,0.7571615008197413,0.7667930179817202
H1_squat_slow_20251205_013454,,-9.177,-0.16,-3.281,-9.115,0.024,-4.647,3.92,15.68,5.39,0.17266923076923035,0.2303538461538448,1.396903846153846,-0.012228846153846146,0.17353653846153844,14.253615384615385,0.02845384615384594,-1.330982692307693,4.633192307692307,0.1754247111829998,1.3618710481692888,0.7942233750801927,0.8164658181078551
H1_squat_slow_20251205_013454,,-9.028,-0.146,-3.501,-9.117,-0.45,-4.326,6.79,15.61,5.6,0.3216692307692295,0.22835384615384413,4.266903846153847,0.0017711538461538667,-0.3004634615384616,14.183615384615385,-0.1915461538461538,-1.0099826923076924,4.843192307692307,0.3743850425202227,1.0781877431755673,0.8457296711404106,0.8629175784344837
H1_squat_slow_20251205_013454,,-9.014,0.311,-3.999,-9.158,-0.797,-3.879,7.28,14.42,4.9,0.3356692307692306,0.18735384615384554,4.756903846153847,0.45877115384615386,-0.6474634615384616,12.993615384615385,-0.689546153846154,-0.5629826923076928,4.143192307692308,0.8936546885517707,0.8782140453978312,0.8919839427943923,0.915561093292776
H1_squat_slow_20251205_013454,81190.0,-9.103,-0.651,-4.032,-9.083,-0.45,-3.542,4.06,11.83,7.56,0.2466692307692302,0.2623538461538448,1.5369038461538458,-0.5032288461538461,-0.3004634615384616,10.403615384615385,-0.722546153846154,-0.22598269230769263,6.803192307692307,0.9144167132371789,0.4584495714187365,0.925540956070971,0.9500068100686558
H1_squat_slow_20251205_013454,,-9.074,-0.431,-3.975,-8.938,0.017,-3.259,5.46,10.99,8.26,0.2756692307692301,0.4073538461538444,2.936903846153846,-0.28322884615384614,0.16653653846153843,9.563615384615385,-0.665546153846154,0.057017307692307284,7.5031923076923075,0.7740567078618636,0.44375956101875785,0.9629800496414324,0.9899012232950379
H1_squat_slow_20251205_013454,,-9.057,-0.443,-4.168,-9.005,0.857,-3.513,5.04,10.99,9.24,0.29266923076922957,0.34035384615384423,2.516903846153846,-0.29522884615384615,1.0065365384615383,9.563615384615385,-0.8585461538461541,-0.19698269230769272,8.483192307692308,0.9538956172057863,1.080628856230777,0.996216435937063,1.027810728800579
H1_squat_slow_20251205_013454,,-9.012,-0.565,-3.963,-9.167,1.563,-4.097,5.6,12.6,10.08,0.3376692307692295,0.1783538461538452,3.076903846153846,-0.4172288461538461,1.7125365384615383,11.173615384615385,-0.653546153846154,-0.7809826923076932,9.323192307692308,0.8457085755023735,1.8906415460599268,1.016008081204894,1.0600407881047174
H1_squat_slow_20251205_013454,81266.0,-9.091,1.706,-4.374,-8.897,0.72,-4.068,6.58,11.83,8.75,0.25866923076923065,0.44835384615384477,4.056903846153846,1.8537711538461539,0.8695365384615384,10.403615384615385,-1.0645461538461536,-0.7519826923076924,7.993192307692308,2.1532848802347275,1.233933925545021,1.0459244846186975,1.0996527510445337
H1_squat_slow_20251205_013454,,-8.995,1.347,-4.343,-8.942,0.852,-3.953,0.56,11.76,7.63,0.35466923076923074,0.40335384615384484,-1.9630961538461538,1.4947711538461539,1.0015365384615385,10.333615384615385,-1.033546153846154,-0.6369826923076927,6.873192307692308,1.8515800597746719,1.2536014970397,1.0899267563035917,1.1437839798003913
H1_squat_slow_20251205_013454,,-9.033,0.95,-4.197,-9.057,0.905,-3.778,-1.19,12.6,5.95,0.3166692307692305,0.28835384615384463,-3.7130961538461538,1.0977711538461539,1.0545365384615384,11.173615384615385,-0.887546153846154,-0.46198269230769284,5.193192307692308,1.446761584760873,1.1868543548110793,1.1316677975257439,1.2028214486147024
H1_squat_slow_20251205_013454,,-9.0,0.735,-4.025,-8.94,0.907,-3.613,0.98,13.72,4.55,0.34966923076922996,0.4053538461538455,-1.5430961538461538,0.8827711538461538,1.0565365384615384,12.293615384615386,-0.7155461538461543,-0.2969826923076928,3.7931923076923075,1.1889322013023447,1.1699486814498876,1.1680626128256038,1.2685558031076594
H1_squat_slow_20251205_013454,81341.0,-9.057,0.821,-3.398,-8.804,0.522,-4.8,4.34,18.2,0.28,0.29266923076922957,0.5413538461538447,1.816903846153846,0.9687711538461539,0.6715365384615385,16.773615384615383,-0.08854615384615405,-1.4839826923076926,-0.47680769230769227,1.0158805286668349,1.7164585460485942,1.218381873522785,1.3278112145148186
H1_squat_slow_20251205_013454,,-9.088,0.936,-3.79,-8.77,0.108,-4.805,2.66,15.96,0.14,0.26166923076923077,0.5753538461538454,0.13690384615384632,1.0837711538461539,0.25753653846153846,14.533615384615386,-0.48054615384615396,-1.4889826923076925,-0.6168076923076923,1.2140656103426686,1.6169188522986053,1.26823322600977,1.376081461335269
H1_squat_slow_20251205_013454,,-8.997,1.046,-4.427,-8.772,-0.182,-4.783,-0.98,13.37,-0.35,0.35266923076923007,0.5733538461538448,-3.503096153846154,1.193771153846154,-0.03246346153846155,11.943615384615384,-1.1175461538461535,-1.4669826923076932,-1.1068076923076924,1.6728342894808406,1.5753814550021825,1.3127634917835431,1.3888407916628795
H1_squat_slow_20251205_013454,,-8.842,0.838,-4.81,-8.808,-0.445,-4.779,-4.27,12.6,-0.63,0.5076692307692294,0.5373538461538452,-6.793096153846154,0.9857711538461538,-0.2954634615384616,11.173615384615385,-1.5005461538461535,-1.4629826923076927,-1.3868076923076922,1.8657737203228806,1.586305825202847,1.3788977024633957,1.4130389749722676
H1_squat_slow_20251205_013454,81417.0,-9.028,-0.452,-4.736,-8.614,-0.29,-4.288,0.49,13.23,-1.4,0.3216692307692295,0.7313538461538442,-2.033096153846154,-0.30422884615384616,-0.14046346153846154,11.803615384615386,-1.4265461538461537,-0.9719826923076931,-2.156807692307692,1.493673395996937,1.2244830690773554,1.4405031619690727,1.426049724252793
H1_squat_slow_20251205_013454,,-9.007,-0.395,-4.642,-8.799,-0.55,-4.319,2.1,13.37,-0.7,0.3426692307692303,0.5463538461538455,-0.42309615384615373,-0.24722884615384616,-0.4004634615384616,11.943615384615384,-1.3325461538461543,-1.0029826923076928,-1.4568076923076922,1.397935462107145,1.2103089648115701,1.4767558492753514,1.4507151609322984
H1_squat_slow_20251205_013454,,-8.875,-0.318,-4.393,-8.914,-0.577,-4.511,2.59,13.86,0.0,0.47466923076922996,0.4313538461538453,0.06690384615384604,-0.17022884615384615,-0.4274634615384615,12.433615384615385,-1.0835461538461537,-1.194982692307693,-0.7568076923076923,1.1951405801062547,1.340438281480017,1.5056600977155137,1.4911693874153984
H1_squat_slow_20251205_013454,,-8.677,-0.184,-4.219,-9.028,-0.5,-4.597,3.01,14.63,1.12,0.6726692307692304,0.31735384615384454,0.48690384615384597,-0.03622884615384614,-0.35046346153846153,13.203615384615386,-0.9095461538461542,-1.2809826923076932,0.3631923076923078,1.131843906770558,1.365450387064292,1.5352365487706192,1.5327696007693574
H1_squat_slow_20251205_013454,81493.0,-9.124,-0.376,-4.623,-8.873,0.347,-4.867,5.25,12.53,6.09,0.2256692307692294,0.4723538461538457,2.726903846153846,-0.22822884615384614,0.49653653846153845,11.103615384615384,-1.3135461538461541,-1.5509826923076928,5.333192307692308,1.3521902625802023,1.695645600307363,1.5597253892025287,1.549508947287641
H1_squat_slow_20251205_013454,,-8.777,-0.17,-4.788,-9.002,0.476,-4.829,6.3,11.97,6.23,0.5726692307692307,0.34335384615384434,3.776903846153846,-0.022228846153846155,0.6255365384615384,10.543615384615386,-1.4785461538461542,-1.5129826923076926,5.473192307692308,1.5857310296908518,1.6728133344284757,1.587414611852851,1.5306382089606008
H1_squat_slow_20251205_013454,,-8.571,-0.017,-4.759,-8.815,0.507,-4.965,6.72,12.18,6.65,0.7786692307692302,0.5303538461538455,4.196903846153846,0.13077115384615384,0.6565365384615385,10.753615384615385,-1.4495461538461543,-1.6489826923076927,5.893192307692308,1.6506395481010316,1.852419862772898,1.5640620848603608,1.5440994247727664
H1_squat_slow_20251205_013454,,-8.729,0.089,-4.752,-8.648,0.34,-4.92,6.93,11.83,6.86,0.6206692307692308,0.6973538461538453,4.4069038461538454,0.23677115384615385,0.48953653846153844,10.403615384615385,-1.4425461538461537,-1.6039826923076927,6.103192307692308,1.5881531032282872,1.8162348103857884,1.5518809787946835,1.5620886275461958
H1_squat_slow_20251205_013454,81569.0,-8.693,0.22,-5.03,-8.631,0.56,-4.934,0.28,8.47,6.51,0.6566692307692303,0.7143538461538448,-2.243096153846154,0.3677711538461539,0.7095365384615385,7.043615384615386,-1.7205461538461542,-1.617982692307693,5.7531923076923075,1.8779641018281414,1.9056787529733399,1.5555580919902279,1.591733537384934
H1_squat_slow_20251205_013454,,-8.832,0.189,-5.011,-8.804,0.546,-4.834,1.61,8.4,6.3,0.5176692307692292,0.5413538461538447,-0.9130961538461537,0.33677115384615386,0.6955365384615385,6.973615384615385,-1.701546153846154,-1.5179826923076924,5.5431923076923075,1.8101534620624615,1.7553080975220077,1.5786332921405806,1.6220153156485806
H1_squat_slow_20251205_013454,,-8.935,0.232,-4.922,-8.859,0.598,-4.81,3.22,8.26,6.23,0.41466923076922946,0.486353846153845,0.6969038461538464,0.3797711538461539,0.7475365384615384,6.833615384615385,-1.6125461538461536,-1.4939826923076924,5.473192307692308,1.7077710029522126,1.7399239135429567,1.6167535318292816,1.6267396401161942
H1_squat_slow_20251205_013454,,-8.737,0.524,-4.972,-8.636,0.818,-4.905,4.34,7.7,5.88,0.6126692307692299,0.7093538461538458,1.816903846153846,0.6717711538461539,0.9675365384615384,6.273615384615384,-1.6625461538461543,-1.588982692307693,5.123192307692308,1.8949141888591667,1.9910238142133796,1.645869540415422,1.6365954741313555
H1_squat_slow_20251205_013454,81644.0,-8.574,0.857,-4.824,-8.832,0.254,-4.573,0.77,6.93,4.2,0.7756692307692301,0.5133538461538443,-1.7530961538461538,1.004771153846154,0.4035365384615385,5.503615384615385,-1.5145461538461538,-1.2569826923076932,3.443192307692308,1.9761269896678295,1.4164672244692296,1.651803604831179,1.6479424308897537
H1_squat_slow_20251205_013454,,-8.648,0.768,-4.738,-8.626,0.139,-4.623,0.14,6.93,3.64,0.7016692307692303,0.7193538461538456,-2.3830961538461537,0.9157711538461539,0.2885365384615385,5.503615384615385,-1.4285461538461544,-1.306982692307693,2.883192307692308,1.836224558515009,1.5195153990649661,1.65540456560952,1.657917021321015
H1_squat_slow_20251205_013454,,-8.765,0.61,-4.673,-8.526,0.043,-4.57,0.28,6.86,3.08,0.5846692307692294,0.8193538461538452,-2.243096153846154,0.7577711538461538,0.19253653846153845,5.4336153846153845,-1.363546153846154,-1.253982692307693,2.323192307692308,1.6659271726814031,1.5102594599793444,1.6693917429239185,1.687431760512888
H1_squat_slow_20251205_013454,,-8.859,0.486,-4.628,-8.543,0.12,-4.585,0.77,6.72,2.8,0.49066923076922997,0.8023538461538458,-1.7530961538461538,0.6337711538461539,0.26953653846153847,5.293615384615384,-1.318546153846154,-1.2689826923076928,2.0431923076923075,1.5430444352946027,1.5253651082216932,1.684217293862495,1.7163424170993016
H1_squat_slow_20251205_013454,81720.0,-8.624,0.321,-4.645,-8.77,0.261,-4.657,3.92,6.16,4.34,0.7256692307692294,0.5753538461538454,1.396903846153846,0.46877115384615387,0.4105365384615385,4.733615384615385,-1.3355461538461535,-1.3409826923076928,3.5831923076923076,1.5906054684354363,1.5158518657061428,1.7108899009477445,1.7635013388199428
H1_squat_slow_20251205_013454,,-8.794,0.498,-4.623,-8.849,0.055,-4.609,4.48,6.93,4.06,0.5556692307692295,0.4963538461538448,1.9569038461538466,0.6457711538461539,0.20453653846153844,5.503615384615385,-1.3135461538461541,-1.2929826923076928,3.3031923076923073,1.5656283644107514,1.400002349556883,1.7436625754923116,1.7993634490493084
H1_squat_slow_20251205_013454,,-8.825,0.538,-4.592,-8.746,0.005,-4.774,3.5,7.49,3.85,0.5246692307692307,0.5993538461538446,0.9769038461538462,0.685771153846154,0.15453653846153845,6.063615384615385,-1.2825461538461536,-1.4579826923076928,3.093192307692308,1.5461191784299886,1.583925536661326,1.776786071476514,1.816739970514424
H1_squat_slow_20251205_013454,,-8.777,0.414,-4.618,-8.641,-0.029,-4.882,1.82,7.84,3.78,0.5726692307692307,0.704353846153845,-0.7030961538461538,0.5617711538461538,0.12053653846153844,6.413615384615385,-1.3085461538461542,-1.5659826923076925,3.0231923076923075,1.5348713020670575,1.7213207691488688,1.8069828582304774,1.8361629407054316
H1_squat_slow_20251205_013454,81796.0,-8.708,0.136,-4.683,-8.586,0.56,-4.975,10.29,8.89,3.78,0.6416692307692298,0.7593538461538447,7.766903846153845,0.28377115384615387,0.7095365384615385,7.463615384615386,-1.3735461538461538,-1.6589826923076925,3.0231923076923075,1.5423665278450238,1.9576220106182651,1.8280317921623994,1.8448837352076888
H1_squat_slow_20251205_013454,,-8.6,0.407,-4.836,-8.607,0.541,-4.992,11.69,8.4,4.2,0.7496692307692303,0.7383538461538457,9.166903846153845,0.5547711538461538,0.6905365384615385,6.973615384615385,-1.5265461538461542,-1.6759826923076928,3.443192307692308,1.7888874052115211,1.9572749163046983,1.8590721186651475,1.8512623759947717
H1_squat_slow_20251205_013454,,-8.502,0.584,-4.975,-8.533,0.4,-4.872,11.48,8.54,4.69,0.8476692307692293,0.8123538461538455,8.956903846153846,0.7317711538461538,0.5495365384615385,7.113615384615384,-1.6655461538461536,-1.5559826923076927,3.933192307692308,2.007006760573054,1.839290982206549,1.8860811201844618,1.8547077006950383
H1_squat_slow_20251205_013454,,-8.509,0.591,-4.932,-8.476,0.275,-4.92,10.71,8.82,4.76,0.8406692307692296,0.8693538461538441,8.186903846153847,0.7387711538461539,0.4245365384615385,7.393615384615385,-1.6225461538461543,-1.6039826923076927,4.0031923076923075,1.9710818335823235,1.8731705366928078,1.9049232590242984,1.8640836747936698
H1_squat_slow_20251205_013454,81872.0,-8.653,0.211,-4.96,-8.693,-0.005,-5.063,6.23,9.38,5.32,0.6966692307692295,0.6523538461538454,3.7069038461538466,0.3587711538461539,0.14453653846153844,7.953615384615386,-1.6505461538461539,-1.7469826923076925,4.563192307692308,1.8271199642905285,1.8704023307205304,1.9256741160368909,1.8935343839203271
H1_squat_slow_20251205_013454,,-8.691,0.022,-5.147,-8.624,0.067,-5.001,6.3,9.31,5.39,0.6586692307692292,0.7213538461538445,3.776903846153846,0.16977115384615385,0.21653653846153845,7.883615384615386,-1.8375461538461542,-1.6849826923076932,4.633192307692307,1.9593987005597346,1.8456451764156434,1.9513983491568336,1.9004503560749657
H1_squat_slow_20251205_013454,,-8.835,-0.062,-5.092,-8.464,0.144,-5.078,7.21,9.73,5.32,0.5146692307692291,0.8813538461538446,4.686903846153847,0.08577115384615386,0.29353653846153843,8.303615384615386,-1.7825461538461536,-1.761982692307693,4.563192307692308,1.8573400061713001,1.9918662880660498,1.972439514346328,1.9152923192326798
H1_squat_slow_20251205_013454,,-8.856,-0.124,-5.023,-8.552,0.419,-5.018,8.82,10.08,5.6,0.4936692307692301,0.7933538461538454,6.296903846153846,0.02377115384615386,0.5685365384615384,8.653615384615385,-1.7135461538461536,-1.7019826923076926,4.843192307692307,1.7833997865101383,1.9619860360583277,2.0042294520182686,1.927810038539114
H1_squat_slow_20251205_013454,81948.0,-8.607,0.634,-4.86,-8.375,1.211,-5.264,12.88,10.29,7.42,0.7426692307692306,0.970353846153845,10.356903846153847,0.7817711538461538,1.3605365384615384,8.863615384615384,-1.5505461538461542,-1.947982692307693,6.663192307692308,1.8886283643227455,2.566570246216689,2.0266564276661283,1.9752108656493002
H1_squat_slow_20251205_013454,,-8.536,0.878,-4.8,-8.591,1.005,-5.154,10.01,8.4,7.7,0.8136692307692304,0.7543538461538457,7.4869038461538455,1.0257711538461538,1.1545365384615383,6.973615384615385,-1.4905461538461537,-1.8379826923076927,6.943192307692308,1.9839334449292956,2.2978652530277937,2.042213513361637,2.020476101598745
H1_squat_slow_20251205_013454,,-8.437,1.139,-4.862,-8.528,0.802,-5.059,6.72,6.58,8.05,0.9126692307692306,0.8173538461538445,4.196903846153846,1.286771153846154,0.9515365384615385,5.153615384615385,-1.552546153846154,-1.742982692307693,7.293192307692308,2.2134011581694693,2.1474351584003704,2.0722713014177763,2.049346974421816
H1_squat_slow_20251205_013454,,-8.39,1.24,-4.975,-8.43,0.751,-5.075,3.08,5.67,7.42,0.9596692307692294,0.9153538461538453,0.5569038461538462,1.387771153846154,0.9005365384615385,4.243615384615385,-1.6655461538461536,-1.758982692307693,6.663192307692308,2.3708474852938988,2.177810559394675,2.1120739181071846,2.0742361609965276
H1_squat_slow_20251205_013454,82023.0,-8.457,0.768,-5.097,-8.569,0.361,-5.176,4.69,5.39,2.24,0.8926692307692292,0.7763538461538442,2.1669038461538466,0.9157711538461539,0.5105365384615385,3.9636153846153843,-1.7875461538461543,-1.859982692307693,1.483192307692308,2.197911830331013,2.0791605198315812,2.1299024467446293,2.0935166609118756
H1_squat_slow_20251205_013454,,-8.519,1.058,-5.205,-8.832,0.101,-5.214,6.65,5.04,1.05,0.8306692307692298,0.5133538461538443,4.126903846153846,1.205771153846154,0.25053653846153845,3.6136153846153847,-1.895546153846154,-1.8979826923076932,0.29319230769230775,2.395201592299733,1.982079470849944,2.15409423581628,2.110927648054188
H1_squat_slow_20251205_013454,,-8.385,1.125,-5.336,-8.801,-0.05,-5.233,6.23,4.97,0.07,0.9646692307692302,0.5443538461538449,3.7069038461538466,1.272771153846154,0.09953653846153844,3.5436153846153844,-2.026546153846154,-1.9169826923076925,-0.6868076923076922,2.5801981413303143,1.99525719518027,2.171059054515174,2.127610827264332
H1_squat_slow_20251205_013454,,-8.339,0.787,-5.152,-8.658,0.089,-5.178,5.04,5.53,-0.49,1.0106692307692295,0.6873538461538455,2.516903846153846,0.9347711538461538,0.23853653846153844,4.103615384615384,-1.842546153846154,-1.8619826923076928,-1.2468076923076923,2.3000490718982043,1.999083424086424,2.177111042840133,2.153024961488443
H1_squat_slow_20251205_013454,82099.0,-8.507,0.409,-5.317,-8.076,0.416,-5.401,8.05,4.97,-1.89,0.8426692307692303,1.2693538461538445,5.5269038461538464,0.5567711538461538,0.5655365384615384,3.5436153846153844,-2.007546153846154,-2.0849826923076926,-2.646807692307692,2.247293285279621,2.505642350836059,2.19608752181235,2.1680470472802464
H1_squat_slow_20251205_013454,,-8.361,0.735,-5.504,-8.303,0.057,-5.209,8.4,5.25,-2.24,0.9886692307692293,1.0423538461538442,5.876903846153846,0.8827711538461538,0.20653653846153844,3.8236153846153846,-2.1945461538461535,-1.8929826923076924,-2.9968076923076925,2.5637442499776837,2.1708390902339736,2.217372243268053,2.1778726741693477
H1_squat_slow_20251205_013454,,-8.402,0.912,-5.394,-8.634,-0.067,-4.97,7.63,4.48,-2.03,0.9476692307692307,0.7113538461538447,5.1069038461538465,1.0597711538461538,0.08253653846153844,3.053615384615385,-2.084546153846154,-1.6539826923076926,-2.786807692307692,2.5231972845946764,1.8023582665697973,2.24081338772078,2.169504140165477
H1_squat_slow_20251205_013454,,-8.294,0.809,-5.559,-8.756,0.129,-5.042,4.97,3.85,-1.26,1.0556692307692295,0.5893538461538448,2.446903846153846,0.9567711538461539,0.2785365384615385,2.4236153846153847,-2.249546153846154,-1.7259826923076926,-2.016807692307692,2.662762937985472,1.8449761010322538,2.2559071144765666,2.1663175969475206
H1_squat_slow_20251205_013454,82174.0,-8.119,0.213,-5.157,-8.591,1.584,-5.303,5.18,2.8,-0.49,1.2306692307692302,0.7543538461538457,2.656903846153846,0.3607711538461539,1.7335365384615384,1.3736153846153845,-1.847546153846154,-1.9869826923076928,-1.2468076923076923,2.2490285395257503,2.7426809648441868,2.248390514320156,2.179329787538719
H1_squat_slow_20251205_013454,,-8.737,0.541,-5.025,-8.581,1.323,-5.449,5.04,2.87,-0.42,0.6126692307692299,0.7643538461538455,2.516903846153846,0.6887711538461538,1.4725365384615383,1.4436153846153847,-1.7155461538461543,-2.1329826923076927,-1.1768076923076922,1.9475286633778344,2.702261242907251,2.2505591742305424,2.1918473691259206
H1_squat_slow_20251205_013454,,-8.471,0.955,-5.217,-8.457,0.581,-5.269,5.74,2.52,-0.14,0.8786692307692299,0.8883538461538443,3.2169038461538464,1.1027711538461538,0.7305365384615384,1.0936153846153847,-1.9075461538461536,-1.952982692307693,-0.8968076923076923,2.3721079578950492,2.2664945591059995,2.2591823776131124,2.1789586870644237
H1_squat_slow_20251205_013454,,-8.373,1.307,-5.231,-8.375,-0.194,-5.118,5.74,2.94,-1.54,0.9766692307692306,0.970353846153845,3.2169038461538464,1.4547711538461539,-0.04446346153846156,1.5136153846153846,-1.9215461538461538,-1.8019826923076931,-2.2968076923076923,2.6004963983353595,2.0471212004993804,2.278840497659379,2.1763046987227432
H1_squat_slow_20251205_013454,82250.0,-8.461,-0.565,-5.063,-8.509,0.134,-5.205,-0.21,3.85,-3.5,0.8886692307692297,0.8363538461538447,-2.733096153846154,-0.4172288461538461,0.2835365384615385,2.4236153846153847,-1.7535461538461536,-1.888982692307693,-4.256807692307692,2.0096609230035507,2.0852185344603815,2.2769527111987644,2.1772521088068157
H1_squat_slow_20251205_013454,,-8.315,-0.861,-5.071,-8.471,0.567,-5.173,3.08,4.34,-2.94,1.0346692307692305,0.8743538461538449,0.5569038461538462,-0.7132288461538461,0.7165365384615384,2.9136153846153845,-1.7615461538461537,-1.8569826923076929,-3.6968076923076922,2.1638578179299848,2.1740064348489847,2.2654679088237644,2.1831973544883674
H1_squat_slow_20251205_013454,,-8.507,-0.806,-4.98,-8.459,0.979,-5.229,7.0,4.62,-2.31,0.8426692307692303,0.8863538461538454,4.476903846153846,-0.6582288461538461,1.1285365384615385,3.1936153846153847,-1.6705461538461543,-1.912982692307693,-3.0668076923076923,1.9834518140162642,2.3913846700820125,2.2588523906247904,2.2005780083525774
H1_squat_slow_20251205_013454,,-8.624,-0.273,-5.111,-8.418,1.005,-5.475,10.01,3.43,-1.19,0.7256692307692294,0.9273538461538458,7.4869038461538455,-0.12522884615384616,1.1545365384615383,2.003615384615385,-1.8015461538461537,-2.1589826923076925,-1.9468076923076922,1.9462391016604559,2.618042406131584,2.2443046499024244,2.2161879641587015
H1_squat_slow_20251205_013454,82326.0,-8.447,0.763,-5.456,-8.074,-0.297,-5.142,-1.54,0.42,-0.84,0.9026692307692308,1.2713538461538452,-4.063096153846153,0.9107711538461538,-0.14746346153846154,-1.0063846153846154,-2.1465461538461543,-1.8259826923076932,-1.5968076923076922,2.5003952138507,2.2298652127934395,2.227071690393775,2.2314426477940335
H1_squat_slow_20251205_013454,,-8.337,0.658,-5.477,-8.392,-0.179,-5.219,-1.89,-0.07,-1.12,1.0126692307692302,0.9533538461538456,-4.413096153846154,0.8057711538461538,-0.02946346153846155,-1.4963846153846154,-2.1675461538461542,-1.9029826923076931,-1.8768076923076924,2.5244845914306078,2.128636835809433,2.217110533957383,2.2405735259586725
H1_squat_slow_20251205_013454,,-8.236,0.445,-5.394,-9.0,-0.349,-4.92,-1.68,-0.14,-1.12,1.1136692307692293,0.345353846153845,-4.203096153846154,0.5927711538461539,-0.19946346153846153,-1.5663846153846155,-2.084546153846154,-1.6039826923076927,-1.8768076923076924,2.4365897200614266,1.6528204466198964,2.208866386589274,2.224718422121822
H1_squat_slow_20251205_013454,,-8.112,-0.017,-5.305,-8.729,-0.522,-4.925,-1.61,-0.21,-0.56,1.2376692307692299,0.6163538461538458,-4.133096153846154,0.13077115384615384,-0.37246346153846155,-1.6363846153846153,-1.9955461538461536,-1.6089826923076926,-1.3168076923076923,2.351835596210188,1.7627950527487768,2.197287951288948,2.2289956557674753
H1_squat_slow_20251205_013454,82402.0,-8.708,-0.452,-4.812,-8.452,0.921,-5.183,3.43,2.17,1.89,0.6416692307692298,0.893353846153845,0.9069038461538463,-0.30422884615384616,1.0705365384615384,0.7436153846153846,-1.5025461538461542,-1.8669826923076926,1.1331923076923076,1.6619084021046246,2.330183243437211,2.187654288430067,2.2461073940497105
H1_squat_slow_20251205_013454,,-8.557,-0.297,-4.963,-8.473,1.012,-5.083,3.85,2.31,3.15,0.7926692307692296,0.8723538461538443,1.3269038461538463,-0.14922884615384613,1.1615365384615384,0.8836153846153847,-1.653546153846154,-1.766982692307693,2.3931923076923076,1.8397849441801883,2.2874431573255674,2.167538989664942,2.2625841212432167
H1_squat_slow_20251205_013454,,-8.246,0.146,-5.087,-8.48,0.888,-5.092,5.53,2.45,3.78,1.1036692307692295,0.8653538461538446,3.0069038461538464,0.2937711538461538,1.0375365384615385,1.0236153846153848,-1.7775461538461537,-1.7759826923076925,3.0231923076923075,2.1128316522695547,2.231464512617775,2.1664328330150835,2.2593315419953646
H1_squat_slow_20251205_013454,,-8.323,0.761,-5.394,-8.528,0.476,-5.293,6.58,2.8,3.57,1.0266692307692296,0.8173538461538445,4.056903846153846,0.9087711538461538,0.6255365384615384,1.3736153846153845,-2.084546153846154,-1.976982692307693,2.8131923076923075,2.4950445661322256,2.2288615561441003,2.18111783220069,2.261800607167944
H1_squat_slow_20251205_013454,82477.0,-8.512,0.089,-5.291,-8.435,-0.17,-5.288,1.19,1.96,2.52,0.8376692307692295,0.9103538461538445,-1.3330961538461539,0.23677115384615385,-0.02046346153846157,0.5336153846153846,-1.9815461538461543,-1.971982692307693,1.7631923076923077,2.164318710193496,2.172067820586257,2.1956130593488306,2.280009296350243
H1_squat_slow_20251205_013454,,-8.464,-0.232,-5.181,-8.284,-0.239,-5.391,3.5,2.45,2.66,0.8856692307692295,1.0613538461538443,0.9769038461538462,-0.08422884615384615,-0.08946346153846155,1.0236153846153848,-1.871546153846154,-2.074982692307693,1.9031923076923078,2.0722426235438984,2.3323869471150114,2.1938409502980876,2.3016112856459054
H1_squat_slow_20251205_013454,,-8.445,-0.297,-5.116,-8.236,0.074,-5.58,5.11,2.8,3.22,0.9046692307692297,1.1093538461538444,2.5869038461538465,-0.14922884615384613,0.22353653846153843,1.3736153846153845,-1.8065461538461536,-2.263982692307693,2.463192307692308,2.0259083571576797,2.531057520301047,2.220776579129438,2.3240436551894925
H1_squat_slow_20251205_013454,,-8.457,-0.127,-5.118,-8.464,0.287,-5.492,5.6,2.52,4.13,0.8926692307692292,0.8813538461538446,3.076903846153846,0.020771153846153856,0.4365365384615384,1.0936153846153847,-1.8085461538461542,-2.175982692307693,3.3731923076923076,2.016960333518224,2.387938321809169,2.245205809129514,2.349267856135952
H1_squat_slow_20251205_013454,82553.0,-8.562,0.227,-5.255,-8.256,0.806,-5.219,4.76,3.43,6.09,0.7876692307692306,1.0893538461538448,2.236903846153846,0.3747711538461539,0.9555365384615385,2.003615384615385,-1.9455461538461538,-1.9029826923076931,5.333192307692308,2.1321411941054302,2.3918789696988996,2.2765888212793053,2.346568679510319
H1_squat_slow_20251205_013454,,-8.579,0.136,-5.178,-8.588,0.912,-5.133,3.22,3.01,6.37,0.7706692307692293,0.7573538461538458,0.6969038461538464,0.28377115384615387,1.0615365384615385,1.5836153846153844,-1.8685461538461539,-1.8169826923076928,5.613192307692308,2.0410590045520163,2.2364862563670362,2.3014893415626654,2.338660147528426
H1_squat_slow_20251205_013454,,-8.476,0.261,-5.099,-8.729,1.034,-4.929,2.24,2.8,7.07,0.8736692307692291,0.6163538461538458,-0.2830961538461536,0.40877115384615387,1.1835365384615384,1.3736153846153845,-1.7895461538461541,-1.612982692307693,6.313192307692308,2.0329454537087748,2.0934096510779567,2.3000950640439846,2.345174067511423
H1_squat_slow_20251205_013454,,-8.181,0.507,-5.133,-8.545,1.165,-5.001,2.66,2.59,7.21,1.1686692307692308,0.8003538461538451,0.13690384615384632,0.6547711538461538,1.3145365384615384,1.1636153846153845,-1.823546153846154,-1.6849826923076932,6.453192307692308,2.26270493216921,2.282047165020955,2.3023432391214476,2.3518803093501712
H1_squat_slow_20251205_013454,82628.0,-8.447,1.139,-4.951,-8.394,0.105,-5.336,3.5,5.18,3.64,0.9026692307692308,0.9513538461538449,0.9769038461538462,1.286771153846154,0.25453653846153845,3.7536153846153844,-1.6415461538461535,-2.019982692307693,2.883192307692308,2.272722050263775,2.2472634619079117,2.298556352922832,2.3702914032208433
H1_squat_slow_20251205_013454,,-8.363,0.988,-4.831,-8.579,0.469,-5.365,0.84,5.25,3.22,0.9866692307692304,0.7663538461538444,-1.683096153846154,1.135771153846154,0.6185365384615384,3.8236153846153846,-1.5215461538461543,-2.048982692307693,2.463192307692308,2.139765170092222,2.273371008063412,2.2999440097341757,2.3856553073920854
H1_squat_slow_20251205_013454,,-8.189,0.641,-5.03,-8.552,0.936,-5.609,-1.26,5.11,2.45,1.16066923076923,0.7933538461538454,-3.783096153846154,0.7887711538461539,1.0855365384615385,3.683615384615385,-1.7205461538461542,-2.292982692307693,1.6931923076923079,2.220268466629435,2.658113904400034,2.3277872038711624,2.3751721888204482
H1_squat_slow_20251205_013454,,-8.167,0.285,-5.269,-8.559,1.187,-5.607,-1.47,5.32,2.17,1.1826692307692301,0.7863538461538457,-3.993096153846154,0.43277115384615383,1.3365365384615384,3.893615384615385,-1.959546153846154,-2.290982692307693,1.4131923076923076,2.329338642203591,2.7664569373943095,2.344698595370296,2.373434582777025
H1_squat_slow_20251205_013454,82704.0,-8.873,1.23,-5.64,-7.827,-0.239,-5.595,3.85,3.57,-2.38,0.4766692307692306,1.518353846153845,1.3269038461538463,1.377771153846154,-0.08946346153846155,2.1436153846153845,-2.3305461538461536,-2.2789826923076926,-3.136807692307692,2.74898386374671,2.739920477845778,2.3489263926181825,2.367116685673951
H1_squat_slow_20251205_013454,,-9.153,1.0,-5.583,-7.98,-0.349,-5.53,2.8,1.19,-3.22,0.19666923076922949,1.3653538461538446,0.276903846153846,1.147771153846154,-0.19946346153846153,-0.23638461538461542,-2.273546153846154,-2.213982692307693,-3.9768076923076925,2.5544215630160445,2.608772922186602,2.336404768041402,2.364636239815484
H1_squat_slow_20251205_013454,,-8.638,0.809,-5.743,-8.057,-0.034,-5.65,0.91,-0.91,-2.8,0.71166923076923,1.2883538461538446,-1.6130961538461537,0.9567711538461539,0.11553653846153844,-2.3363846153846155,-2.4335461538461542,-2.333982692307693,-3.556807692307692,2.7099872726186702,2.6684601425936543,2.3348178725223665,2.3635986966509313
H1_squat_slow_20251205_013454,,-8.04,0.333,-5.736,-8.332,0.546,-5.865,-0.77,-1.19,-1.96,1.3096692307692308,1.0133538461538443,-3.293096153846154,0.4807711538461539,0.6955365384615385,-2.6163846153846153,-2.4265461538461537,-2.548982692307693,-2.7168076923076923,2.7990177979319446,2.8298356594569274,2.3337620769423135,2.348029700079007
H1_squat_slow_20251205_013454,82780.0,-8.665,0.62,-5.913,-8.287,0.44,-5.296,-1.82,-2.52,0.56,0.6846692307692308,1.0583538461538442,-4.343096153846154,0.7677711538461538,0.5895365384615384,-3.9463846153846154,-2.603546153846154,-1.979982692307693,-0.19680769230769224,2.799410129910851,2.321206077815554,2.3249549949903545,2.3303037133864426
H1_squat_slow_20251205_013454,,-8.672,0.33,-5.767,-8.387,0.761,-5.334,-3.85,-3.43,0.35,0.6776692307692294,0.9583538461538446,-6.373096153846154,0.4777711538461539,0.9105365384615385,-4.8563846153846155,-2.4575461538461543,-2.0179826923076924,-0.4068076923076923,2.59365262902781,2.412420574602362,2.3257710491097643,2.3154544445949763
H1_squat_slow_20251205_013454,,-8.437,-0.024,-5.595,-8.325,0.742,-5.296,-3.64,-3.36,0.49,0.9126692307692306,1.0203538461538457,-6.163096153846154,0.12377115384615386,0.8915365384615385,-4.786384615384615,-2.2855461538461537,-1.979982692307693,-0.2668076923076923,2.464143998365001,2.399227132351364,2.3239605848087193,2.2935378830355284
H1_squat_slow_20251205_013454,,-8.184,0.091,-5.602,-8.624,0.835,-5.269,-2.17,-2.87,0.98,1.1656692307692307,0.7213538461538445,-4.693096153846154,0.23877115384615386,0.9845365384615384,-4.296384615384616,-2.2925461538461542,-1.952982692307693,0.2231923076923077,2.582937143444638,2.302999123616893,2.3239248468027864,2.2748696195962315
H1_squat_slow_20251205_013454,82856.0,-8.861,0.943,-5.319,-8.248,0.237,-5.102,-2.8,-2.31,0.98,0.4886692307692293,1.0973538461538457,-5.323096153846153,1.0907711538461538,0.38653653846153846,-3.7363846153846154,-2.009546153846154,-1.7859826923076931,0.2231923076923077,2.338130678897424,2.1315088872573584,2.3217100328153366,2.2718794798436637
H1_squat_slow_20251205_013454,,-8.796,0.991,-5.334,-8.284,0.043,-5.19,-2.94,-2.59,-0.21,0.5536692307692306,1.0613538461538443,-5.463096153846154,1.1387711538461538,0.19253653846153845,-4.016384615384615,-2.0245461538461536,-1.8739826923076932,-0.9668076923076923,2.3879146733051297,2.1622565612010756,2.3108700226943517,2.25918566164172
H1_squat_slow_20251205_013454,,-8.672,0.936,-5.324,-8.428,0.12,-5.138,-3.64,-2.94,-1.12,0.6776692307692294,0.9173538461538442,-6.163096153846154,1.0837711538461539,0.26953653846153847,-4.366384615384615,-2.0145461538461538,-1.8219826923076927,-1.8768076923076924,2.385831449666282,2.057622160574644,2.2965071853482626,2.251020239252535
H1_squat_slow_20251205_013454,,-8.334,0.598,-5.209,-8.416,0.39,-5.284,-4.13,-2.45,-1.61,1.0156692307692303,0.9293538461538446,-6.653096153846153,0.7457711538461538,0.5395365384615385,-3.8763846153846155,-1.8995461538461536,-1.9679826923076926,-2.3668076923076926,2.279481123157658,2.2422654001965596,2.290137035929116,2.2456742537713885
H1_squat_slow_20251205_013454,82932.0,-8.39,0.514,-5.202,-8.471,0.369,-5.116,-1.4,-2.59,-0.84,0.9596692307692294,0.8743538461538449,-3.9230961538461537,0.6617711538461539,0.5185365384615385,-4.016384615384615,-1.8925461538461539,-1.7999826923076925,-1.5968076923076922,2.2227543807145995,2.0671991879378595,2.2902891317917584,2.2288346793712805
H1_squat_slow_20251205_013454,,-8.433,0.5,-5.166,-8.488,0.512,-5.19,-2.24,-2.31,-0.56,0.9166692307692301,0.8573538461538455,-4.7630961538461545,0.6477711538461539,0.6615365384615385,-3.7363846153846154,-1.8565461538461543,-1.8739826923076932,-1.3168076923076923,2.169482327135941,2.164369963823943,2.2817619543785037,2.21659535177641
H1_squat_slow_20251205_013454,,-8.524,0.39,-5.19,-8.528,0.491,-5.193,-3.57,-2.17,-0.35,0.8256692307692308,0.8173538461538445,-6.093096153846154,0.5377711538461538,0.6405365384615385,-3.5963846153846153,-1.8805461538461543,-1.8769826923076924,-1.1068076923076924,2.1230594266985654,2.145091698307885,2.256157039439844,2.2146940635405694
H1_squat_slow_20251205_013454,,-8.524,0.299,-5.126,-8.672,0.455,-5.018,-3.64,-2.03,0.0,0.8256692307692308,0.6733538461538444,-6.163096153846154,0.44677115384615385,0.6045365384615384,-3.456384615384615,-1.8165461538461543,-1.7019826923076926,-0.7568076923076923,2.0447919384625255,1.9275930362449891,2.2325615035886544,2.218914376697765
H1_squat_slow_20251205_013454,83007.0,-8.698,0.436,-4.879,-8.373,0.089,-5.128,-0.07,-1.89,0.49,0.6516692307692296,0.9723538461538457,-2.5930961538461537,0.5837711538461539,0.23853653846153844,-3.3163846153846155,-1.5695461538461535,-1.811982692307693,-0.2668076923076923,1.796924226406746,2.070181866294366,2.224272325460562,2.194027484503212
H1_squat_slow_20251205_013454,,-8.538,0.579,-5.032,-8.428,-0.041,-5.092,-0.21,-2.17,0.56,0.8116692307692297,0.9173538461538442,-2.733096153846154,0.7267711538461539,0.10853653846153843,-3.5963846153846153,-1.722546153846154,-1.7759826923076925,-0.19680769230769224,2.0381777406228734,2.001857333231053,2.202565336607442,2.1683604384452972
H1_squat_slow_20251205_013454,,-8.428,0.44,-5.085,-8.603,-0.05,-4.977,-1.12,-2.24,1.05,0.9216692307692291,0.7423538461538453,-3.643096153846154,0.5877711538461539,0.09953653846153844,-3.6663846153846156,-1.7755461538461539,-1.6609826923076931,0.29319230769230775,2.0850691222782642,1.8220483691532519,2.175759547892997,2.1666776211024756
H1_squat_slow_20251205_013454,,-8.332,0.158,-5.051,-8.777,0.026,-4.963,-2.1,-2.1,1.4,1.0176692307692292,0.5683538461538458,-4.623096153846154,0.30577115384615383,0.17553653846153844,-3.5263846153846155,-1.741546153846154,-1.646982692307693,0.6431923076923076,2.0401298163977644,1.751111406945322,2.1495604522090503,2.159481287870512
H1_squat_slow_20251205_013454,83083.0,-8.674,0.06,-5.154,-8.413,0.258,-5.056,0.84,-2.1,3.92,0.6756692307692305,0.9323538461538448,-1.683096153846154,0.20777115384615386,0.4075365384615385,-3.5263846153846155,-1.8445461538461538,-1.7399826923076929,3.1631923076923076,1.9753602900350824,2.0156660175111867,2.1389038947173296,2.143992441455041
H1_squat_slow_20251205_013454,,-8.536,0.11,-5.097,-8.526,0.376,-5.008,0.77,-1.75,5.18,0.8136692307692304,0.8193538461538452,-1.7530961538461538,0.25777115384615384,0.5255365384615385,-3.1763846153846154,-1.7875461538461543,-1.6919826923076928,4.423192307692307,1.9808646690235927,1.9520078917704262,2.1220849704133298,2.1315736865080415
H1_squat_slow_20251205_013454,,-8.536,0.06,-5.013,-8.605,0.574,-5.068,0.49,-1.61,5.95,0.8136692307692304,0.7403538461538446,-2.033096153846154,0.20777115384615386,0.7235365384615384,-3.0363846153846152,-1.7035461538461538,-1.7519826923076924,5.193192307692308,1.8992882792654664,2.0349624797891006,2.1107930014580853,2.121519999246894
H1_squat_slow_20251205_013454,,-8.428,0.148,-5.03,-8.571,0.792,-5.068,0.35,-1.82,6.58,0.9216692307692291,0.7743538461538453,-2.1730961538461537,0.2957711538461538,0.9415365384615385,-3.246384615384615,-1.7205461538461542,-1.7519826923076924,5.823192307692308,1.9741412851944062,2.134375385553605,2.0954575966171882,2.106882159382068
H1_squat_slow_20251205_013454,83159.0,-8.385,0.885,-5.027,-8.677,1.029,-5.075,2.31,-1.12,7.28,0.9646692307692302,0.6683538461538454,-0.21309615384615377,1.032771153846154,1.1785365384615383,-2.5463846153846155,-1.717546153846154,-1.758982692307693,6.523192307692308,2.224222959058136,2.2202849699972216,2.0823483403137186,2.11316354779648
H1_squat_slow_20251205_013454,,-8.399,0.809,-4.929,-8.715,1.45,-5.059,1.54,-0.98,7.14,0.9506692307692308,0.6303538461538452,-0.9830961538461538,0.9567711538461539,1.5995365384615383,-2.4063846153846153,-1.6195461538461542,-1.742982692307693,6.383192307692307,2.1076320294589688,2.448234419927683,2.076200272675119,2.107057805351634
H1_squat_slow_20251205_013454,,-8.38,0.668,-4.963,-8.658,1.735,-5.109,1.19,-0.77,6.93,0.9696692307692292,0.6873538461538455,-1.3330961538461539,0.8157711538461538,1.8845365384615385,-2.1963846153846154,-1.653546153846154,-1.7929826923076928,6.173192307692307,2.083256075341551,2.6904869837139196,2.077567170042242,2.1019137760444155
H1_squat_slow_20251205_013454,,-8.6,0.735,-4.867,-8.547,1.718,-5.123,2.45,-0.49,6.93,0.7496692307692303,0.7983538461538444,-0.07309615384615364,0.8827711538461538,1.8675365384615383,-1.9163846153846154,-1.557546153846154,-1.806982692307693,6.173192307692307,1.940937630885121,2.718501064273674,2.0828687902501284,2.0915355640437725
H1_squat_slow_20251205_013454,83235.0,-8.495,1.357,-5.106,-8.717,0.639,-5.068,-0.42,-1.26,0.63,0.8546692307692307,0.6283538461538445,-2.9430961538461538,1.504771153846154,0.7885365384615385,-2.6863846153846156,-1.7965461538461538,-1.7519826923076924,-0.1268076923076923,2.494468641288273,2.0214009455352855,2.074670083236476,2.0872860226410777
H1_squat_slow_20251205_013454,,-8.533,0.952,-5.075,-8.6,0.675,-5.171,-1.12,-0.63,-0.28,0.8166692307692305,0.7453538461538454,-3.643096153846154,1.0997711538461539,0.8245365384615385,-2.0563846153846153,-1.765546153846154,-1.854982692307693,-1.0368076923076923,2.234636087750812,2.162492461951154,2.0678371307389045,2.083598289881534
H1_squat_slow_20251205_013454,,-8.574,0.694,-5.073,-8.423,0.814,-5.162,-0.07,-0.42,-0.98,0.7756692307692301,0.922353846153845,-2.5930961538461537,0.8417711538461539,0.9635365384615384,-1.8463846153846153,-1.7635461538461543,-1.8459826923076927,-1.7368076923076923,2.102459623335292,2.277452826902193,2.075070780155353,2.0811709995684735
H1_squat_slow_20251205_013454,,-8.677,0.598,-4.937,-8.346,0.785,-5.071,1.54,-0.35,-1.68,0.6726692307692304,0.9993538461538449,-0.9830961538461538,0.7457711538461538,0.9345365384615385,-1.7763846153846155,-1.6275461538461542,-1.7549826923076925,-2.436807692307692,1.9124761412451925,2.2253159105712865,2.071719002389336,2.072846896115794
H1_squat_slow_20251205_013454,83310.0,-8.378,0.773,-5.039,-8.526,0.335,-5.071,2.45,-2.94,-1.82,0.9716692307692298,0.8193538461538452,-0.07309615384615364,0.9207711538461538,0.48453653846153844,-4.366384615384615,-1.7295461538461536,-1.7549826923076925,-2.5768076923076926,2.187073503580268,1.9965171255491263,2.0551532656706284,2.0697314383157326
H1_squat_slow_20251205_013454,,-8.521,0.706,-5.095,-8.43,0.282,-5.018,1.89,-3.36,-2.17,0.8286692307692292,0.9153538461538453,-0.6330961538461539,0.8537711538461539,0.4315365384615384,-4.786384615384615,-1.7855461538461537,-1.7019826923076926,-2.926807692307692,2.145645111540641,1.980111494994902,2.0430542058316052,2.0645804838220037
H1_squat_slow_20251205_013454,,-8.6,0.565,-5.073,-8.686,0.38,-4.984,0.98,-3.36,-2.52,0.7496692307692303,0.6593538461538451,-1.5430961538461538,0.7127711538461539,0.5295365384615385,-4.786384615384615,-1.7635461538461543,-1.6679826923076928,-3.2768076923076923,2.0445394860610717,1.8701130184675245,2.036637778775904,2.0502986459160386
H1_squat_slow_20251205_013454,,-8.617,0.409,-5.073,-8.859,0.498,-4.903,1.26,-3.22,-2.8,0.7326692307692291,0.486353846153845,-1.2630961538461538,0.5567711538461538,0.6475365384615385,-4.646384615384616,-1.7635461538461543,-1.5869826923076924,-3.556807692307692,1.9891941474418013,1.7816727247156143,2.0287005676905014,2.0417685330404316
H1_squat_slow_20251205_013454,83386.0,-8.775,0.658,-5.099,-8.397,0.366,-5.257,5.95,-1.96,-2.45,0.5746692307692296,0.9483538461538448,3.4269038461538464,0.8057711538461538,0.5155365384615385,-3.3863846153846153,-1.7895461538461541,-1.9409826923076925,-3.2068076923076925,2.0449907857760685,2.2209382593493485,2.023909454071531,2.042801055092413
H1_squat_slow_20251205_013454,,-8.588,0.72,-5.087,-8.447,0.285,-5.145,5.46,-2.1,-2.45,0.7616692307692308,0.8983538461538458,2.936903846153846,0.8677711538461539,0.4345365384615384,-3.5263846153846155,-1.7775461538461537,-1.8289826923076924,-3.2068076923076925,2.1196313645540656,2.0835160966305586,2.01456660318543,2.0395326441329122
H1_squat_slow_20251205_013454,,-8.526,0.62,-5.267,-8.495,0.34,-4.982,4.62,-2.38,-2.59,0.8236692307692302,0.8503538461538458,2.0969038461538463,0.7677711538461538,0.48953653846153844,-3.8063846153846153,-1.9575461538461543,-1.665982692307693,-3.346807692307692,2.2582937122597895,1.9334544259501782,2.001056875459235,2.037043407808714
H1_squat_slow_20251205_013454,,-8.416,0.486,-5.322,-8.54,0.345,-4.958,4.76,-2.03,-2.73,0.9336692307692296,0.8053538461538459,2.236903846153846,0.6337711538461539,0.49453653846153844,-3.456384615384615,-2.012546153846154,-1.641982692307693,-3.4868076923076923,2.3073244525410024,1.8945364518072312,1.994364531275876,2.023675447435738
H1_squat_slow_20251205_013454,83461.0,-8.629,0.335,-5.011,-8.555,0.51,-5.071,10.29,0.35,-1.33,0.7206692307692304,0.7903538461538453,7.766903846153845,0.4827711538461539,0.6595365384615385,-1.0763846153846153,-1.701546153846154,-1.7549826923076925,-2.0868076923076924,1.9098930443436095,2.034603621837817,1.9980290713021043,2.0051766120320376
H1_squat_slow_20251205_013454,,-8.808,0.345,-5.027,-8.665,0.467,-4.901,9.94,-0.07,-0.42,0.5416692307692301,0.6803538461538459,7.416903846153845,0.49277115384615383,0.6165365384615384,-1.4963846153846154,-1.717546153846154,-1.5849826923076926,-1.1768076923076922,1.8671351735256652,1.8317119844968555,2.0008577804203522,1.9726566136916406
H1_squat_slow_20251205_013454,,-8.646,0.431,-5.073,-8.607,0.589,-5.03,9.45,-0.49,0.56,0.7036692307692292,0.7383538461538457,6.926903846153845,0.5787711538461539,0.7385365384615384,-1.9163846153846154,-1.7635461538461543,-1.713982692307693,-0.19680769230769224,1.9849991112343932,2.007072318154793,1.9781294034990267,1.9589749834572305
H1_squat_slow_20251205_013454,,-8.536,0.469,-4.972,-8.636,0.512,-4.815,9.24,-0.63,1.19,0.8136692307692304,0.7093538461538458,6.716903846153846,0.6167711538461538,0.6615365384615385,-2.0563846153846153,-1.6625461538461543,-1.4989826923076932,0.43319230769230765,1.9510315187064373,1.785430643461389,1.9763710820361478,1.9384817372816672
H1_squat_slow_20251205_013454,83537.0,-8.772,0.459,-4.736,-8.524,0.34,-4.771,7.28,-3.15,1.68,0.5776692307692297,0.8213538461538459,4.756903846153847,0.6067711538461539,0.48953653846153844,-4.576384615384615,-1.4265461538461537,-1.4549826923076927,0.9231923076923076,1.6543599675918663,1.7410464663516487,1.9549203380677551,1.9092923111166067
H1_squat_slow_20251205_013454,,-8.914,0.524,-4.838,-8.564,0.347,-4.642,6.93,-4.41,1.54,0.43566923076923025,0.781353846153845,4.4069038461538454,0.6717711538461539,0.49653653846153845,-5.836384615384615,-1.528546153846154,-1.3259826923076932,0.7831923076923077,1.725554260583166,1.6171865901083682,1.9428843646618446,1.8809915218193085
H1_squat_slow_20251205_013454,,-8.729,0.467,-4.893,-8.667,0.447,-4.69,5.53,-5.6,1.96,0.6206692307692308,0.6783538461538452,3.0069038461538464,0.6147711538461539,0.5965365384615384,-7.026384615384615,-1.5835461538461537,-1.3739826923076932,1.2031923076923077,1.808533186586839,1.644338231956092,1.9224680167287074,1.8568521726109348
H1_squat_slow_20251205_013454,,-8.636,0.38,-4.846,-8.727,0.605,-4.745,4.2,-6.51,2.1,0.7136692307692307,0.6183538461538447,1.6769038461538464,0.5277711538461538,0.7545365384615385,-7.936384615384615,-1.536546153846154,-1.428982692307693,1.3431923076923078,1.7744971808031296,1.7302249570046422,1.8996468692748332,1.832365754800453
H1_squat_slow_20251205_013454,83613.0,-8.748,0.574,-4.815,-8.579,0.928,-4.898,3.57,-7.77,2.38,0.6016692307692306,0.7663538461538444,1.046903846153846,0.7217711538461538,1.0775365384615385,-9.196384615384614,-1.5055461538461543,-1.5819826923076925,1.6231923076923076,1.7747193251722353,2.061808053140631,1.8715029387817377,1.8005373644034384
H1_squat_slow_20251205_013454,,-8.691,0.555,-4.748,-8.689,1.034,-4.855,3.29,-7.21,2.45,0.6586692307692292,0.656353846153845,0.7669038461538462,0.7027711538461539,1.1835365384615384,-8.636384615384616,-1.4385461538461541,-1.5389826923076932,1.6931923076923079,1.731227162155777,2.0493967006065716,1.8462385587210552,1.773711118578761
H1_squat_slow_20251205_013454,,-8.638,0.615,-4.865,-8.758,1.208,-4.884,3.85,-7.21,2.1,0.71166923076923,0.5873538461538459,1.3269038461538463,0.7627711538461539,1.3575365384615383,-8.636384615384616,-1.5555461538461541,-1.5679826923076932,1.3431923076923078,1.8729700381770722,2.155564825568077,1.8159717718038189,1.7281728979567967
H1_squat_slow_20251205_013454,,-8.55,0.773,-4.81,-8.844,1.268,-4.783,4.48,-7.0,1.47,0.7996692307692292,0.5013538461538456,1.9569038461538466,0.9207711538461538,1.4175365384615384,-8.426384615384615,-1.5005461538461535,-1.4669826923076932,0.7131923076923077,1.9336310806916381,2.1006674502303078,1.7799000001717207,1.6850037740163548
H1_squat_slow_20251205_013454,83689.0,-8.835,1.201,-4.941,-8.581,0.584,-5.255,2.17,-7.91,-2.45,0.5146692307692291,0.7643538461538455,-0.3530961538461539,1.348771153846154,0.7335365384615384,-9.336384615384615,-1.6315461538461538,-1.9389826923076927,-3.2068076923076925,2.178534116023491,2.209517263217715,1.73155477736435,1.646062622992281
H1_squat_slow_20251205_013454,,-8.818,0.988,-4.886,-8.756,0.122,-5.073,0.49,-8.4,-2.94,0.5316692307692303,0.5893538461538448,-2.033096153846154,1.135771153846154,0.27153653846153847,-9.826384615384615,-1.576546153846154,-1.7569826923076932,-3.6968076923076922,2.0144840679595535,1.872981107423349,1.683533580825101,1.6071336848332676
H1_squat_slow_20251205_013454,,-8.753,0.761,-4.872,-8.727,0.048,-4.85,-0.98,-8.82,-3.36,0.5966692307692298,0.6183538461538447,-3.503096153846154,0.9087711538461538,0.19753653846153846,-10.246384615384615,-1.5625461538461538,-1.5339826923076925,-4.116807692307692,1.9035308413338152,1.6656785594406192,1.6534018712205703,1.5711211323284304
H1_squat_slow_20251205_013454,,-8.545,0.696,-5.162,-8.904,0.086,-4.867,-1.33,-9.38,-3.15,0.80466923076923,0.4413538461538451,-3.853096153846154,0.8437711538461539,0.23553653846153844,-10.806384615384616,-1.8525461538461538,-1.5509826923076928,-3.906807692307692,2.18891972971596,1.6296680613865069,1.6260141937438328,1.544080361979043
H1_squat_slow_20251205_013454,83765.0,-8.878,0.211,-4.736,-8.806,0.148,-4.704,5.39,-11.34,-2.45,0.47166923076922984,0.5393538461538459,2.866903846153846,0.3587711538461539,0.29753653846153844,-12.766384615384615,-1.4265461538461537,-1.3879826923076926,-3.2068076923076925,1.5447402801570858,1.5185277466106213,1.5949921141526877,1.5057348688263583
H1_squat_slow_20251205_013454,,-8.777,0.304,-4.733,-8.926,0.237,-4.692,3.99,-11.76,-1.75,0.5726692307692307,0.41935384615384486,1.4669038461538464,0.45177115384615385,0.38653653846153846,-13.186384615384615,-1.4235461538461536,-1.375982692307693,-2.5068076923076923,1.599540832691521,1.4894953888415292,1.5651153960526314,1.4843578083294784
H1_squat_slow_20251205_013454,,-8.61,0.22,-4.745,-8.904,0.249,-4.549,2.87,-11.69,-1.33,0.7396692307692305,0.4413538461538451,0.3469038461538463,0.3677711538461539,0.39853653846153847,-13.116384615384614,-1.435546153846154,-1.2329826923076932,-2.0868076923076924,1.6562484573186966,1.3688940461314107,1.5345997659512274,1.4662042208780923
H1_squat_slow_20251205_013454,,-8.703,0.12,-4.695,-8.875,0.254,-4.508,3.22,-11.48,-0.84,0.6466692307692306,0.470353846153845,0.6969038461538464,0.26777115384615385,0.4035365384615385,-12.906384615384615,-1.3855461538461542,-1.1919826923076928,-1.5968076923076922,1.552295277739915,1.3434646319223784,1.5006065986611015,1.4522708315976882
H1_squat_slow_20251205_013454,83840.0,-8.787,0.287,-4.413,-8.985,0.593,-3.953,6.58,-13.16,0.28,0.5626692307692291,0.3603538461538456,4.056903846153846,0.43477115384615383,0.7425365384615384,-14.586384615384615,-1.1035461538461542,-0.6369826923076927,-0.47680769230769227,1.3127972932405794,1.0425748681451468,1.4740291463354467,1.4320109441280784
H1_squat_slow_20251205_013454,,-8.689,0.412,-4.322,-8.957,0.665,-3.917,6.79,-13.3,0.21,0.6606692307692299,0.3883538461538443,4.266903846153847,0.5597711538461538,0.8145365384615385,-14.726384615384616,-1.012546153846154,-0.6009826923076926,-0.5468076923076923,1.3323202658640676,1.0841903332740022,1.4413101668507287,1.3953200293791488
H1_squat_slow_20251205_013454,,-8.801,0.507,-4.233,-8.849,0.629,-3.788,6.93,-13.3,0.21,0.5486692307692298,0.4963538461538448,4.4069038461538454,0.6547711538461538,0.7785365384615385,-14.726384615384616,-0.9235461538461536,-0.47198269230769263,-0.5468076923076923,1.2580543259279169,1.0369445231782688,1.4022126698917794,1.335168200016898
H1_squat_slow_20251205_013454,,-8.832,0.596,-4.068,-8.892,0.596,-3.719,6.44,-13.23,0.07,0.5176692307692292,0.45335384615384555,3.9169038461538466,0.7437711538461538,0.7455365384615384,-14.656384615384615,-0.7585461538461535,-0.4029826923076927,-0.6868076923076922,1.1817653021195185,0.9611188741790758,1.3837289523884442,1.2737666752060481
H1_squat_slow_20251205_013454,83916.0,-8.985,0.718,-3.656,-8.902,0.522,-3.764,4.55,-11.2,-0.98,0.3646692307692305,0.44335384615384577,2.026903846153846,0.8657711538461539,0.6715365384615385,-12.626384615384614,-0.34654615384615406,-0.4479826923076926,-1.7368076923076923,1.0013179192681438,0.9209844993242623,1.3365711183624998,1.2260472515926872
H1_squat_slow_20251205_013454,,-9.002,0.742,-3.766,-9.057,0.526,-3.805,3.85,-11.06,-1.47,0.3476692307692293,0.28835384615384463,1.3269038461538463,0.8897711538461539,0.6755365384615385,-12.486384615384615,-0.45654615384615393,-0.488982692307693,-2.226807692307692,1.058773342520532,0.88238405967288,1.3091601721693311,1.1723527598823045
H1_squat_slow_20251205_013454,,-8.949,0.797,-3.774,-8.973,0.68,-3.932,2.73,-10.71,-1.82,0.4006692307692301,0.37235384615384426,0.20690384615384616,0.9447711538461538,0.8295365384615385,-12.136384615384616,-0.46454615384615394,-0.6159826923076928,-2.5768076923076926,1.1264685946258128,1.09827725671205,1.2789272738810817,1.1158437047229295
H1_squat_slow_20251205_013454,,-8.933,0.73,-3.934,-8.952,0.704,-3.941,2.31,-9.87,-2.31,0.4166692307692301,0.39335384615384505,-0.21309615384615377,0.8777711538461539,0.8535365384615384,-11.296384615384614,-0.6245461538461541,-0.6249826923076927,-3.0668076923076923,1.1550555591304923,1.1286519554127836,1.2460071710788019,1.074604827644087
H1_squat_slow_20251205_013454,83992.0,-8.926,0.675,-4.039,-8.952,0.101,-4.212,0.63,-7.98,-4.76,0.4236692307692298,0.39335384615384505,-1.893096153846154,0.822771153846154,0.25053653846153845,-9.406384615384615,-0.7295461538461536,-0.8959826923076926,-5.516807692307692,1.178425041864623,1.0100894961849936,1.1983237879273128,1.0201541188684335
H1_squat_slow_20251205_013454,,-8.942,0.634,-4.085,-8.949,-0.144,-4.48,-0.84,-7.7,-5.04,0.4076692307692298,0.39635384615384517,-3.3630961538461537,0.7817711538461538,0.005536538461538454,-9.126384615384616,-0.7755461538461539,-1.1639826923076932,-5.796807692307692,1.1742368481049656,1.2296270705425074,1.1329145564096141,0.9741682358728975
H1_squat_slow_20251205_013454,,-9.021,0.38,-3.905,-8.933,-0.34,-4.501,-1.82,-7.14,-5.18,0.32866923076922916,0.4123538461538452,-4.343096153846154,0.5277711538461538,-0.19046346153846158,-8.566384615384615,-0.5955461538461537,-1.1849826923076932,-5.936807692307692,0.8609535849553586,1.2690531926156094,1.0969581380595748,0.9367063177704681
H1_squat_slow_20251205_013454,,-9.038,0.239,-3.989,-8.995,-0.519,-4.463,-2.73,-7.91,-5.46,0.3116692307692297,0.3503538461538458,-5.253096153846154,0.38677115384615385,-0.36946346153846155,-9.336384615384615,-0.6795461538461538,-1.146982692307693,-6.216807692307692,0.8417319110398923,1.2549184688178665,1.0484998211335612,0.893161504844067
H1_squat_slow_20251205_013454,84068.0,-9.045,-0.498,-4.326,-8.983,0.304,-4.271,4.2,-9.45,-2.59,0.30466923076923,0.36235384615384447,1.6769038461538464,-0.35022884615384614,0.4535365384615384,-10.876384615384614,-1.0165461538461535,-0.9549826923076927,-3.346807692307692,1.117519426119822,1.1175811577462318,0.9974787024412268,0.8632229496951663
H1_squat_slow_20251205_013454,,-9.115,-0.349,-4.18,-8.906,0.024,-3.932,6.93,-9.24,-1.96,0.23466923076922974,0.43935384615384443,4.4069038461538454,-0.20122884615384612,0.17353653846153844,-10.666384615384615,-0.8705461538461536,-0.6159826923076928,-2.7168076923076923,0.9238037142004579,0.7762611735324798,0.9585742613553503,0.8294239746522278
H1_squat_slow_20251205_013454,,-9.186,-0.022,-4.039,-9.033,-0.055,-3.692,8.05,-9.94,-1.47,0.16366923076923,0.31235384615384554,5.5269038461538464,0.12577115384615387,0.09453653846153845,-11.366384615384614,-0.7295461538461536,-0.375982692307693,-2.226807692307692,0.7581844042395623,0.4978604897221023,0.9343994358713025,0.8076607204727744
H1_squat_slow_20251205_013454,,-9.146,0.328,-4.448,-9.062,0.108,-3.558,6.23,-10.92,-1.12,0.20366923076922916,0.2833538461538456,3.7069038461538466,0.47577115384615387,0.25753653846153846,-12.346384615384615,-1.1385461538461543,-0.24198269230769265,-1.8768076923076924,1.2506505070690617,0.4529570555244814,0.9099956690555987,0.7884230653293289
H1_squat_slow_20251205_013454,84143.0,-9.155,0.469,-3.321,-9.115,0.694,-3.585,9.03,-10.08,0.0,0.1946692307692306,0.2303538461538448,6.506903846153845,0.6167711538461538,0.8435365384615384,-11.506384615384615,-0.011546153846154095,-0.2689826923076928,-0.7568076923076923,0.6468663535025136,0.9148598116206869,0.8976728839597674,0.7663790775930541
H1_squat_slow_20251205_013454,,-9.203,1.036,-3.57,-9.091,0.483,-3.494,7.7,-10.78,-0.42,0.14666923076923055,0.2543538461538457,5.176903846153847,1.183771153846154,0.6325365384615385,-12.206384615384614,-0.26054615384615376,-0.17798269230769304,-1.1768076923076922,1.2209464796692424,0.7046106657603576,0.8887794122951767,0.7436578693689502
H1_squat_slow_20251205_013454,,-9.217,1.146,-3.807,-9.1,0.522,-3.508,4.06,-11.06,-1.26,0.13266923076922943,0.24535384615384537,1.5369038461538458,1.2937711538461538,0.6715365384615385,-12.486384615384615,-0.49754615384615386,-0.19198269230769283,-2.016807692307692,1.3924787605290099,0.7402818290739686,0.87339883357445,0.7210060775437659
H1_squat_slow_20251205_013454,,-9.186,0.952,-3.635,-9.229,0.632,-3.446,0.63,-10.22,-1.89,0.16366923076923,0.11635384615384581,-1.893096153846154,1.0997711538461539,0.7815365384615385,-11.646384615384616,-0.3255461538461537,-0.129982692307693,-2.646807692307692,1.1585613951002838,0.8007703033734412,0.8601679818195765,0.6917596354727702
H1_squat_slow_20251205_013454,84219.0,-9.304,0.514,-3.333,-9.11,-0.232,-3.333,-0.84,-8.96,-4.62,0.045669230769229685,0.23535384615384558,-3.3630961538461537,0.6617711538461539,-0.08246346153846157,-10.386384615384616,-0.023546153846154105,-0.016982692307693004,-5.376807692307692,0.6637628793950968,0.24996013127363154,0.825172581697667,0.655037519099401
H1_squat_slow_20251205_013454,,-9.344,0.34,-3.331,-9.06,-0.378,-3.082,-2.03,-8.68,-5.11,0.005669230769230538,0.2853538461538445,-4.553096153846154,0.4877711538461539,-0.22846346153846156,-10.106384615384615,-0.02154615384615388,0.23401730769230733,-5.866807692307693,0.48827971025579714,0.434035103502567,0.7900282628564634,0.6266893236922073
H1_squat_slow_20251205_013454,,-9.268,0.316,-3.697,-9.265,-0.416,-2.848,-3.64,-8.68,-5.67,0.08166923076922927,0.08035384615384444,-6.163096153846154,0.46377115384615386,-0.26646346153846157,-10.106384615384615,-0.387546153846154,0.4680173076923073,-6.426807692307692,0.6098734030560583,0.5445178759474576,0.7498319588053964,0.6047544168851737
H1_squat_slow_20251205_013454,,-9.153,0.089,-3.453,-9.332,-0.122,-2.96,-4.76,-7.84,-5.46,0.19666923076922949,0.013353846153844273,-7.283096153846154,0.23677115384615385,0.027536538461538446,-9.266384615384615,-0.14354615384615377,0.3560173076923072,-6.216807692307692,0.3396245926151743,0.3573302527550995,0.7144824205169586,0.5794101793218311
H1_squat_slow_20251205_013454,84294.0,-9.452,0.144,-3.195,-9.186,0.297,-3.668,1.19,-5.25,-3.29,-0.10233076923077,0.15935384615384507,-1.3330961538461539,0.2917711538461538,0.4465365384615384,-6.676384615384615,0.11445384615384624,-0.35198269230769297,-4.046807692307692,0.3296993713180014,0.590491612259995,0.70840473359174,0.5615163702358145
H1_squat_slow_20251205_013454,,-9.256,0.361,-3.467,-9.296,0.299,-3.427,0.56,-5.18,-2.94,0.09366923076922973,0.04935384615384564,-1.9630961538461538,0.5087711538461539,0.4485365384615384,-6.606384615384615,-0.157546153846154,-0.11098269230769287,-3.6968076923076922,0.5407798095071247,0.4646912808059783,0.7007131322742908,0.5459069567465895
H1_squat_slow_20251205_013454,,-9.11,0.424,-3.599,-9.308,0.309,-3.441,0.0,-4.97,-2.94,0.23966923076923052,0.03735384615384518,-2.523096153846154,0.5717711538461538,0.4585365384615384,-6.396384615384616,-0.2895461538461541,-0.12498269230769266,-3.6968076923076922,0.6842518306553352,0.4767302594793563,0.6753602909468884,0.5274557576329412
H1_squat_slow_20251205_013454,,-9.088,0.361,-3.709,-9.433,0.369,-3.57,0.07,-4.83,-3.36,0.26166923076923077,-0.08764615384615482,-2.453096153846154,0.5087711538461539,0.5185365384615385,-6.256384615384615,-0.399546153846154,-0.25398269230769266,-4.116807692307692,0.6978223286557705,0.5840112995444202,0.662521385506576,0.5210294212865632
H1_squat_slow_20251205_013454,84370.0,-9.354,0.493,-3.994,-9.136,-0.093,-3.726,-1.19,-6.58,-5.04,-0.004330769230769249,0.20935384615384578,-3.7130961538461538,0.6407711538461538,0.056536538461538444,-8.006384615384615,-0.6845461538461541,-0.4099826923076928,-5.796807692307692,0.9376619134363003,0.46380084203511907,0.6459887996516446,0.5201475526026405
H1_squat_slow_20251205_013454,,-9.256,0.388,-4.089,-9.306,0.031,-3.637,-3.22,-6.72,-5.18,0.09366923076922973,0.03935384615384585,-5.743096153846154,0.5357711538461538,0.18053653846153844,-8.146384615384616,-0.7795461538461543,-0.32098269230769283,-5.936807692307692,0.9505350388401631,0.3703674603523778,0.607626526510329,0.5291192716245781
H1_squat_slow_20251205_013454,,-9.251,0.055,-3.867,-9.237,0.089,-3.52,-3.29,-6.37,-5.04,0.09866923076923051,0.10835384615384491,-5.813096153846153,0.20277115384615385,0.23853653846153844,-7.796384615384616,-0.5575461538461539,-0.20398269230769284,-5.796807692307692,0.6014228725292474,0.3320379118694716,0.5909967919324767,0.517092641059022
H1_squat_slow_20251205_013454,,-9.177,-0.139,-4.003,-9.227,-0.144,-3.345,-1.26,-6.51,-5.25,0.17266923076923035,0.1183538461538447,-3.783096153846154,0.008771153846153845,0.005536538461538454,-7.936384615384615,-0.693546153846154,-0.028982692307693014,-6.006807692307692,0.7147711968938198,0.1219765658269917,0.5527300986315954,0.5150795805682796
H1_squat_slow_20251205_013454,84446.0,-9.371,-0.112,-3.522,-9.284,-0.043,-3.242,0.28,-7.49,-4.97,-0.021330769230770485,0.061353846153844316,-2.243096153846154,0.035771153846153855,0.10653653846153845,-8.916384615384615,-0.21254615384615372,0.07401730769230719,-5.726807692307692,0.21658819145616973,0.14350223100444862,0.5217317549957392,0.5107268054014935
H1_squat_slow_20251205_013454,,-9.392,-0.034,-3.518,-9.296,-0.06,-2.938,0.35,-8.05,-4.83,-0.042330769230769505,0.04935384615384564,-2.1730961538461537,0.11377115384615386,0.08953653846153845,-9.476384615384616,-0.20854615384615371,0.378017307692307,-5.586807692307692,0.24130326925919898,0.3915988748257486,0.4988310463911819,0.5029205028595569
H1_squat_slow_20251205_013454,,-9.287,-0.031,-3.324,-9.428,0.146,-3.001,1.33,-7.63,-4.41,0.06266923076922915,-0.08264615384615581,-1.1930961538461538,0.11677115384615386,0.29553653846153843,-9.056384615384616,-0.014546153846153764,0.3150173076923073,-5.166807692307692,0.1333211365368785,0.43978191920212073,0.49001854642573234,0.5222073265112765
H1_squat_slow_20251205_013454,,-9.289,0.072,-3.424,-9.469,0.385,-3.159,3.5,-7.28,-3.99,0.060669230769230253,-0.1236461538461544,0.9769038461538462,0.21977115384615387,0.5345365384615385,-8.706384615384616,-0.11454615384615385,0.15701730769230737,-4.7468076923076925,0.2551488526055853,0.5706768938956014,0.47963280811918796,0.54258405104078
H1_squat_slow_20251205_013454,84522.0,-9.366,0.55,-3.226,-9.316,-0.17,-2.513,7.91,-6.37,-4.13,-0.016330769230769704,0.029353846153844287,5.386903846153846,0.697771153846154,-0.02046346153846157,-7.796384615384616,0.0834538461538461,0.8030173076923073,-4.886807692307692,0.7029337248996747,0.8038141563791729,0.4949672938595157,0.5608022351335992
H1_squat_slow_20251205_013454,,-9.311,0.481,-3.187,-9.457,0.007,-2.489,5.81,-5.88,-4.2,0.03866923076923001,-0.11164615384615573,3.286903846153846,0.6287711538461538,0.15653653846153845,-7.306384615384616,0.12245384615384625,0.8270173076923073,-4.9568076923076925,0.6417502767862102,0.8490737180980181,0.521647864604632,0.5834405080152579
H1_squat_slow_20251205_013454,,-9.206,0.06,-2.927,-9.454,0.215,-2.804,4.97,-4.9,-4.06,0.14366923076923044,-0.10864615384615561,2.446903846153846,0.20777115384615386,0.36453653846153844,-6.326384615384615,0.38245384615384603,0.5120173076923074,-4.816807692307692,0.45834555160735907,0.6378499807913787,0.5502067411236364,0.5904192028526268
H1_squat_slow_20251205_013454,,-9.265,-0.201,-2.728,-9.435,0.194,-2.821,6.93,-4.13,-4.06,0.08466923076922939,-0.08964615384615549,4.4069038461538454,-0.053228846153846154,0.3435365384615384,-5.556384615384616,0.5814538461538459,0.495017307692307,-4.816807692307692,0.5899921727523367,0.6091764285266501,0.5651028128095782,0.6120402059610008
H1_squat_slow_20251205_013454,84597.0,-9.356,0.158,-3.19,-9.507,-0.22,-3.757,3.36,-3.01,-4.62,-0.006330769230769917,-0.16164615384615466,0.836903846153846,0.30577115384615383,-0.07046346153846156,-4.436384615384615,0.11945384615384613,-0.44098269230769294,-5.376807692307692,0.3283371720113461,0.4749319039401105,0.5686365617385521,0.6171129843364973
H1_squat_slow_20251205_013454,,-9.22,0.05,-3.4,-9.447,-0.062,-3.989,1.89,-2.8,-4.9,0.12966923076922932,-0.10164615384615416,-0.6330961538461539,0.19777115384615385,0.08753653846153844,-4.226384615384616,-0.09054615384615383,-0.6729826923076927,-5.656807692307693,0.25323140539485633,0.6862217500948619,0.561089441161434,0.6196951109203113
H1_squat_slow_20251205_013454,,-9.146,-0.215,-3.312,-9.299,-0.077,-3.912,1.54,-2.38,-4.69,0.20366923076922916,0.046353846153845524,-0.9830961538461538,-0.06722884615384614,0.07253653846153844,-3.8063846153846153,-0.0025461538461537536,-0.5959826923076927,-5.446807692307693,0.21449325447835257,0.6021674169162282,0.5412368573037978,0.6228040016749079
H1_squat_slow_20251205_013454,,-9.337,-0.364,-3.374,-9.27,-0.115,-3.963,3.29,-2.31,-4.2,0.01266923076923021,0.07535384615384544,0.7669038461538462,-0.21622884615384613,0.03453653846153844,-3.7363846153846154,-0.06454615384615403,-0.6469826923076929,-4.9568076923076925,0.22601245384632912,0.652271093001057,0.5287689130523932,0.6250944412706061
H1_squat_slow_20251205_013454,84673.0,-9.313,-0.194,-3.893,-9.435,-0.543,-2.836,3.64,-6.79,-4.97,0.036669230769229344,-0.08964615384615549,1.1169038461538463,-0.04622884615384615,-0.39346346153846157,-8.216384615384616,-0.5835461538461537,0.4800173076923073,-5.726807692307692,0.58652182599675,0.6271096747375281,0.5232935254036382,0.6267810922234501
H1_squat_slow_20251205_013454,,-9.363,-0.17,-3.872,-9.507,-0.431,-2.814,4.2,-7.77,-4.83,-0.01333076923076959,-0.16164615384615466,1.6769038461538464,-0.022228846153846155,-0.2814634615384616,-9.196384615384614,-0.5625461538461538,0.5020173076923071,-5.586807692307692,0.5631429713817939,0.5978064372830895,0.5150006952147896,0.6305127956907562
H1_squat_slow_20251205_013454,,-9.34,-0.177,-3.743,-9.471,-0.361,-2.606,3.85,-8.33,-4.69,0.009669230769230097,-0.12564615384615507,1.3269038461538463,-0.029228846153846133,-0.21146346153846154,-9.756384615384615,-0.4335461538461538,0.7100173076923073,-5.446807692307693,0.4346378802934078,0.751417546218341,0.51759772056775,0.6494665658101924
H1_squat_slow_20251205_013454,,-9.349,-0.345,-3.216,-9.445,-0.39,-2.388,4.83,-8.33,-4.2,0.0006692307692297561,-0.09964615384615527,2.3069038461538462,-0.19722884615384612,-0.24046346153846157,-9.756384615384615,0.09345384615384589,0.9280173076923073,-4.9568076923076925,0.21825051428564077,0.9638299412696565,0.5167913552335531,0.6696519629682273
H1_squat_slow_20251205_013454,84749.0,-9.414,-0.479,-2.359,-9.421,-0.263,-2.307,6.37,-6.02,-2.59,-0.06433076923076975,-0.07564615384615436,3.8469038461538463,-0.3312288461538461,-0.11346346153846157,-7.4463846153846145,0.9504538461538461,1.0090173076923072,-3.346807692307692,1.008570032304584,1.0181906623607575,0.5390009377758216,0.6698837770388741
H1_squat_slow_20251205_013454,,-9.397,-0.455,-2.324,-9.509,-0.33,-2.402,7.35,-5.25,-2.17,-0.047330769230770287,-0.16364615384615533,4.826903846153845,-0.30722884615384616,-0.18046346153846157,-6.676384615384615,0.9854538461538462,0.914017307692307,-2.926807692307692,1.0333194319881962,0.9459253476782281,0.5601847693003047,0.6579519512278639
H1_squat_slow_20251205_013454,,-9.342,-0.325,-2.252,-9.493,-0.282,-2.57,8.33,-4.62,-1.75,0.007669230769229429,-0.14764615384615531,5.806903846153846,-0.17722884615384615,-0.13246346153846153,-6.046384615384616,1.0574538461538463,0.7460173076923073,-2.5068076923076923,1.0722301608121168,0.7719376780315835,0.5649377683564739,0.628936795879294
H1_squat_slow_20251205_013454,,-9.397,-0.12,-2.383,-9.347,-0.34,-2.307,8.26,-3.71,-1.4,-0.047330769230770287,-0.0016461538461545189,5.7369038461538455,0.027771153846153862,-0.19046346153846158,-5.136384615384616,0.9264538461538461,1.0090173076923072,-2.156807692307692,0.9280776733416107,1.0268373616237045,0.5675992258403635,0.6041708522154938
H1_squat_slow_20251205_013454,84825.0,-9.438,-0.179,-2.539,-9.459,-0.495,-2.828,9.1,-0.14,-0.35,-0.08833076923077066,-0.11364615384615462,6.576903846153845,-0.031228846153846135,-0.3454634615384615,-1.5663846153846155,0.7704538461538459,0.48801730769230733,-1.1068076923076924,0.7761293028086584,0.6086224972422627,0.563959200474005,0.5852644826117438
H1_squat_slow_20251205_013454,,-9.548,-0.038,-2.862,-9.552,-0.436,-2.769,7.07,-0.14,-0.63,-0.1983307692307701,-0.2066461538461546,4.546903846153846,0.10977115384615385,-0.2864634615384616,-1.5663846153846155,0.447453846153846,0.547017307692307,-1.3868076923076922,0.5015971936506968,0.6511465907235838,0.5485936682977512,0.5711019607686068
H1_squat_slow_20251205_013454,,-9.347,-0.153,-2.888,-9.541,-0.022,-2.824,4.13,0.07,-0.84,0.002669230769230424,-0.19564615384615536,1.606903846153846,-0.0052288461538461395,0.12753653846153845,-1.3563846153846153,0.4214538461538462,0.49201730769230734,-1.5968076923076922,0.42149473313775804,0.5446320016546325,0.5409644544026937,0.5666041663178651
H1_squat_slow_20251205_013454,,-9.351,-0.402,-2.737,-9.519,-0.041,-2.938,3.01,0.7,-0.56,-0.0013307692307709118,-0.17364615384615512,0.48690384615384597,-0.25422884615384617,0.10853653846153843,-0.7263846153846154,0.572453846153846,0.378017307692307,-1.3168076923076923,0.6263684883036444,0.4299188898405325,0.5392502187665671,0.5615456772142885
H1_squat_slow_20251205_013454,84901.0,-9.404,-0.383,-2.919,-9.402,0.168,-3.123,1.82,2.1,-0.56,-0.05433076923076996,-0.056646153846154235,-0.7030961538461538,-0.23522884615384615,0.31753653846153845,0.6736153846153847,0.39045384615384604,0.19301730769230696,-1.3168076923076923,0.4590627936616169,0.37589083664341294,0.5528586692763663,0.5580535195653785
H1_squat_slow_20251205_013454,,-9.363,-0.44,-2.905,-9.371,-0.093,-3.106,3.36,2.17,-0.42,-0.01333076923076959,-0.02564615384615543,0.836903846153846,-0.29222884615384614,0.056536538461538444,0.7436153846153846,0.4044538461538463,0.2100173076923073,-1.1768076923076922,0.4991576119837615,0.21900085597695496,0.5658622731076315,0.5534310580406626
H1_squat_slow_20251205_013454,,-9.471,-0.302,-3.104,-9.397,-0.323,-2.706,5.67,1.82,-0.49,-0.12133076923077013,-0.05164615384615523,3.146903846153846,-0.15422884615384613,-0.17346346153846157,0.3936153846153847,0.205453846153846,0.6100173076923072,-1.2468076923076923,0.2841108506331382,0.6363002541097851,0.5667583762740017,0.5494946112324355
H1_squat_slow_20251205_013454,,-9.428,-0.105,-3.108,-9.536,-0.5,-2.491,6.44,1.54,-0.56,-0.07833076923077087,-0.19064615384615458,3.9169038461538466,0.04277115384615386,-0.35046346153846153,0.11361538461538467,0.20145384615384598,0.8250173076923071,-1.3168076923076923,0.22033777057007972,0.916419200934657,0.5652013986270089,0.5463437868420313
H1_squat_slow_20251205_013454,84976.0,-9.605,-0.385,-2.69,-9.55,-0.206,-2.924,4.83,2.31,-0.63,-0.25533076923077047,-0.2046461538461557,2.3069038461538462,-0.23722884615384615,-0.056463461538461546,0.8836153846153847,0.6194538461538461,0.39201730769230725,-1.3868076923076922,0.7107702826358563,0.4458090850389378,0.5565877847478877,0.5312719609861138
H1_squat_slow_20251205_013454,,-9.466,-0.361,-2.541,-9.507,-0.055,-3.135,4.62,2.66,-0.42,-0.11633076923076935,-0.16164615384615466,2.0969038461538463,-0.21322884615384613,0.09453653846153845,1.2336153846153848,0.7684538461538462,0.1810173076923074,-1.1768076923076922,0.8059284722421476,0.26044942280933575,0.5527974441308346,0.5107230565059117
H1_squat_slow_20251205_013454,,-9.469,-0.342,-2.515,-9.371,-0.136,-3.276,3.99,3.22,-0.21,-0.11933076923076946,-0.02564615384615543,1.4669038461538464,-0.19422884615384617,0.013536538461538433,1.7936153846153848,0.794453846153846,0.04001730769230738,-0.9668076923076923,0.8265117003600737,0.04942011731635393,0.5225345459167469,0.48598383482904955
H1_squat_slow_20251205_013454,,-9.45,-0.349,-2.635,-9.33,-0.354,-3.309,3.78,3.85,-0.28,-0.10033076923076933,0.015353846153844941,1.256903846153846,-0.20122884615384612,-0.20446346153846154,2.4236153846153847,0.6744538461538463,0.007017307692307018,-1.0368076923076923,0.7109481713673383,0.20515918283921486,0.4956420383156257,0.4624048782941387
H1_squat_slow_20251205_013454,85052.0,-9.306,-0.507,-3.273,-9.44,-0.258,-3.29,0.77,3.36,-0.56,0.043669230769230793,-0.09464615384615449,-1.7530961538461538,-0.35922884615384615,-0.10846346153846156,1.9336153846153845,0.03645384615384595,0.026017307692307146,-1.3168076923076923,0.3637048920820399,0.14628437109387818,0.4687578870175787,0.4489317621255351
H1_squat_slow_20251205_013454,,-9.45,-0.294,-3.379,-9.328,-0.383,-3.259,2.94,3.01,-0.28,-0.10033076923076933,0.01735384615384561,0.4169038461538461,-0.14622884615384613,-0.23346346153846156,1.5836153846153844,-0.06954615384615392,0.057017307692307284,-1.0368076923076923,0.19048833616974034,0.24095086060508542,0.4432876566488491,0.4286886705525654
H1_squat_slow_20251205_013454,,-9.464,-0.201,-3.278,-9.32,-0.498,-3.238,3.29,2.59,-0.35,-0.11433076923077046,0.025353846153844728,0.7669038461538462,-0.053228846153846154,-0.3484634615384615,1.1636153846153845,0.031453846153846055,0.07801730769230719,-1.1068076923076924,0.12997761073984754,0.35798924822083106,0.4245865138033521,0.42466669909331817
H1_squat_slow_20251205_013454,,-9.471,-0.246,-3.171,-9.428,-0.672,-3.149,2.87,2.31,-0.35,-0.12133076923077013,-0.08264615384615581,0.3469038461538463,-0.09822884615384614,-0.5224634615384616,0.8836153846153847,0.13845384615384626,0.16701730769230716,-1.1068076923076924,0.20866127885556365,0.5547010334018685,0.41893308804725954,0.41882724064715043
H1_squat_slow_20251205_013454,85127.0,-9.418,-0.644,-3.041,-9.462,-0.179,-2.819,3.5,1.33,0.0,-0.0683307692307693,-0.11664615384615473,0.9769038461538462,-0.49622884615384616,-0.02946346153846155,-0.09638461538461529,0.26845384615384615,0.49701730769230723,-0.7568076923076923,0.5683129677331312,0.511371318044568,0.41716471017427253,0.41742473032324506
H1_squat_slow_20251205_013454,,-9.5,-0.476,-2.876,-9.423,-0.263,-2.802,4.34,1.54,0.42,-0.15033076923077004,-0.07764615384615503,1.816903846153846,-0.3282288461538461,-0.11346346153846157,0.11361538461538467,0.4334538461538462,0.5140173076923071,-0.3368076923076923,0.5641061534592247,0.5320870933584451,0.40293953531120597,0.42437656368533155
H1_squat_slow_20251205_013454,,-9.512,-0.354,-2.759,-9.416,-0.337,-2.831,4.2,1.96,0.56,-0.1623307692307705,-0.07064615384615536,1.6769038461538464,-0.20622884615384612,-0.18746346153846158,0.5336153846153846,0.5504538461538462,0.4850173076923072,-0.19680769230769224,0.6098205083223772,0.524762057723623,0.3981835185814022,0.434040983572027
H1_squat_slow_20251205_013454,,-9.476,-0.23,-2.809,-9.481,-0.349,-2.86,3.43,1.89,0.35,-0.1263307692307709,-0.13564615384615486,0.9069038461538463,-0.08222884615384615,-0.19946346153846153,0.46361538461538454,0.5004538461538459,0.4560173076923073,-0.4068076923076923,0.5226615525599797,0.5158850031325785,0.393934072058844,0.4509499167948112
H1_squat_slow_20251205_013454,85203.0,-9.481,-0.27,-3.199,-9.299,-0.486,-3.434,2.45,2.45,0.42,-0.13133076923076992,0.046353846153845524,-0.07309615384615364,-0.12222884615384616,-0.3364634615384615,1.0236153846153848,0.11045384615384624,-0.11798269230769298,-0.3368076923076923,0.21068391943625853,0.35955007396448957,0.4056936505286753,0.44050812831909086
H1_squat_slow_20251205_013454,,-9.428,-0.129,-3.398,-9.423,-0.572,-3.312,2.03,1.96,0.14,-0.07833076923077087,-0.07764615384615503,-0.493096153846154,0.018771153846153854,-0.4224634615384615,0.5336153846153846,-0.08854615384615405,0.004017307692307348,-0.6168076923076923,0.11970165824226095,0.42955842478439943,0.41923906695560303,0.4141853899347708
H1_squat_slow_20251205_013454,,-9.368,-0.134,-3.53,-9.524,-0.369,-3.07,1.33,1.61,0.0,-0.018330769230770372,-0.17864615384615412,-1.1930961538461538,0.01377115384615385,-0.21946346153846155,0.18361538461538474,-0.22054615384615373,0.24601730769230734,-0.7568076923076923,0.22173467873830088,0.3749708987623426,0.4113560421912971,0.4015947794246785
H1_squat_slow_20251205_013454,,-9.232,-0.328,-3.565,-9.521,-0.17,-3.034,0.77,1.47,0.21,0.11766923076923064,-0.17564615384615578,-1.7530961538461538,-0.18022884615384616,-0.02046346153846157,0.04361538461538461,-0.25554615384615387,0.2820173076923074,-0.5468076923076923,0.33411423435904575,0.3328724777705437,0.40047163500597516,0.39992583114228375
H1_squat_slow_20251205_013454,85279.0,-9.502,-0.242,-2.982,-9.466,-0.419,-3.015,4.62,0.14,0.49,-0.1523307692307707,-0.12064615384615429,2.0969038461538463,-0.09422884615384614,-0.26946346153846157,-1.2863846153846152,0.3274538461538459,0.30101730769230706,-0.2668076923076923,0.37324222706289556,0.42163665764789116,0.3803197606157539,0.4069784244483231
H1_squat_slow_20251205_013454,,-9.45,-0.237,-3.08,-9.476,-0.383,-2.893,3.08,-0.14,0.35,-0.10033076923076933,-0.13064615384615585,0.5569038461538462,-0.08922884615384613,-0.23346346153846156,-1.5663846153846155,0.229453846153846,0.4230173076923074,-0.4068076923076923,0.26585168375464063,0.5005169807264909,0.36118281763580423,0.41065218475594023
H1_squat_slow_20251205_013454,,-9.342,-0.347,-3.099,-9.495,-0.328,-2.869,2.59,-0.21,0.21,0.007669230769229429,-0.1496461538461542,0.06690384615384604,-0.19922884615384612,-0.17846346153846157,-1.6363846153846153,0.21045384615384588,0.44701730769230696,-0.5468076923076923,0.2898995888257367,0.5040512393018347,0.35616905629282847,0.42643418947203027
H1_squat_slow_20251205_013454,,-9.368,-0.404,-3.065,-9.483,-0.256,-2.848,3.22,0.07,0.21,-0.018330769230770372,-0.13764615384615553,0.6969038461538464,-0.25622884615384617,-0.10646346153846156,-1.3563846153846153,0.24445384615384613,0.4680173076923073,-0.5468076923076923,0.3546081239922901,0.49932067112322404,0.35778599927080357,0.44440779129729263
H1_squat_slow_20251205_013454,85355.0,-9.416,-0.225,-2.948,-9.359,-0.555,-3.01,2.59,0.49,0.14,-0.06633076923077041,-0.013646153846154974,0.06690384615384604,-0.07722884615384615,-0.4054634615384616,-0.9363846153846154,0.3614538461538461,0.3060173076923074,-0.6168076923076923,0.37551690844009733,0.5081667332330922,0.3851501087704922,0.4452280954858374
H1_squat_slow_20251205_013454,,-9.45,-0.211,-3.082,-9.375,-0.522,-2.833,1.54,0.35,0.07,-0.10033076923076933,-0.029646153846154988,-0.9830961538461538,-0.06322884615384614,-0.37246346153846155,-1.0763846153846153,0.22745384615384623,0.483017307692307,-0.6868076923076922,0.2565139418639115,0.6106665572547818,0.4071336384692487,0.4406205583131767
H1_squat_slow_20251205_013454,,-9.356,-0.373,-3.061,-9.442,-0.457,-2.778,0.91,0.49,0.21,-0.006330769230769917,-0.09664615384615516,-1.6130961538461537,-0.22522884615384614,-0.3074634615384616,-0.9363846153846154,0.24845384615384614,0.5380173076923072,-0.5468076923076923,0.3354063586867208,0.6271657536974946,0.409938452331215,0.4356129366992886
H1_squat_slow_20251205_013454,,-9.402,-0.467,-3.094,-9.466,-0.483,-2.761,1.61,0.21,0.35,-0.05233076923076929,-0.12064615384615429,-0.9130961538461537,-0.31922884615384617,-0.3334634615384615,-1.2163846153846154,0.21545384615384622,0.5550173076923071,-0.4068076923076923,0.3886720023972466,0.6586331197693447,0.4090419231592478,0.4333285365532485
H1_squat_slow_20251205_013454,85430.0,-9.497,-0.4,-2.797,-9.454,-0.333,-3.02,2.66,1.26,1.05,-0.14733076923076993,-0.10864615384615561,0.13690384615384632,-0.25222884615384616,-0.18346346153846158,-0.16638461538461535,0.5124538461538459,0.29601730769230716,0.29319230769230775,0.5898598908487511,0.364813753741055,0.4027075116964476,0.4269042553236147
H1_squat_slow_20251205_013454,,-9.474,-0.29,-2.769,-9.445,-0.246,-3.13,2.17,1.47,1.12,-0.12433076923077024,-0.09964615384615527,-0.3530961538461539,-0.14222884615384612,-0.09646346153846155,0.04361538461538461,0.540453846153846,0.1860173076923073,0.3631923076923078,0.5725185976702019,0.23202800294233544,0.3979096793294529,0.4219409950014512
H1_squat_slow_20251205_013454,,-9.454,-0.292,-2.836,-9.416,-0.153,-3.221,1.33,1.82,1.19,-0.10433076923077067,-0.07064615384615536,-1.1930961538461538,-0.14422884615384612,-0.003463461538461554,0.3936153846153847,0.4734538461538462,0.0950173076923071,0.43319230769230765,0.505811638763902,0.11845321177653907,0.40499465247747524,0.42453116970460236
H1_squat_slow_20251205_013454,,-9.505,-0.383,-2.869,-9.38,-0.081,-3.113,1.4,1.96,1.33,-0.15533076923077083,-0.03464615384615577,-1.123096153846154,-0.23522884615384615,0.06853653846153844,0.5336153846153846,0.44045384615384586,0.2030173076923072,0.5731923076923078,0.5229338854237776,0.21705676746707153,0.4128926858661067,0.42436388954956084
H1_squat_slow_20251205_013454,85506.0,-9.433,-0.285,-3.053,-9.404,-0.313,-3.161,0.14,1.19,0.56,-0.08333076923076987,-0.0586461538461549,-2.3830961538461537,-0.13722884615384612,-0.16346346153846156,-0.23638461538461542,0.25645384615384614,0.15501730769230715,-0.19680769230769224,0.30256296621432105,0.23278754327337708,0.42058778493906374,0.41425935374072753
H1_squat_slow_20251205_013454,,-9.505,-0.256,-3.211,-9.354,-0.325,-3.072,-0.84,0.63,0.07,-0.15533076923077083,-0.008646153846154192,-3.3630961538461537,-0.10822884615384615,-0.17546346153846157,-0.7963846153846154,0.09845384615384623,0.24401730769230712,-0.6868076923076922,0.21338765388864722,0.3006769508372609,0.41975807963175527,0.41063490976471745
H1_squat_slow_20251205_013454,,-9.493,-0.33,-3.283,-9.399,-0.433,-2.84,-2.1,0.07,-0.28,-0.14333076923077037,-0.05364615384615412,-4.623096153846154,-0.18222884615384616,-0.2834634615384616,-1.3563846153846153,0.02645384615384616,0.4760173076923073,-1.0368076923076923,0.23334709716466978,0.5566164937122191,0.41889470013657165,0.4042936908724528
H1_squat_slow_20251205_013454,,-9.447,-0.354,-3.264,-9.44,-0.467,-2.69,-3.43,-0.42,-0.56,-0.09733076923076922,-0.09464615384615449,-5.953096153846154,-0.20622884615384612,-0.3174634615384616,-1.8463846153846153,0.04545384615384629,0.6260173076923072,-1.3168076923076923,0.23252885359709127,0.7082645080619084,0.41793803857105327,0.39622698243557636
H1_squat_slow_20251205_013454,85582.0,-9.512,-0.474,-2.551,-9.385,-0.223,-2.946,-2.8,0.28,0.0,-0.1623307692307705,-0.039646153846154775,-5.323096153846153,-0.3262288461538461,-0.07346346153846156,-1.1463846153846153,0.7584538461538459,0.370017307692307,-0.7568076923076923,0.8414444577317538,0.379317157122993,0.4143931452319761,0.3888938490042599
H1_squat_slow_20251205_013454,,-9.502,-0.4,-2.587,-9.397,-0.302,-2.912,-1.68,0.77,0.21,-0.1523307692307707,-0.05164615384615523,-4.203096153846154,-0.25222884615384616,-0.15246346153846155,-0.6563846153846153,0.7224538461538459,0.40401730769230726,-0.5468076923076923,0.7802330510232336,0.43490506691268976,0.4091358712561965,0.3861902021564402
H1_squat_slow_20251205_013454,,-9.541,-0.316,-2.721,-9.478,-0.369,-3.034,-1.54,1.05,0.35,-0.19133076923077041,-0.13264615384615475,-4.063096153846153,-0.16822884615384615,-0.21946346153846155,-0.3763846153846153,0.588453846153846,0.2820173076923074,-0.4068076923076923,0.6412381281442543,0.3811731560834775,0.40151138814220577,0.3784393990456357
H1_squat_slow_20251205_013454,,-9.466,-0.287,-2.8,-9.462,-0.452,-2.972,-1.26,1.61,0.63,-0.11633076923076935,-0.11664615384615473,-3.783096153846154,-0.13922884615384612,-0.3024634615384616,0.18361538461538474,0.5094538461538463,0.3440173076923072,-0.1268076923076923,0.5407963949880775,0.47269268956140287,0.3968068989576175,0.3659985947342428
H1_squat_slow_20251205_013454,85658.0,-9.445,-0.447,-2.994,-9.445,-0.23,-2.982,1.68,2.94,1.12,-0.09533076923077033,-0.09964615384615527,-0.8430961538461539,-0.29922884615384615,-0.08046346153846157,1.5136153846153846,0.31545384615384586,0.334017307692307,0.3631923076923078,0.4451258102895706,0.3577307457531438,0.39474827358631565,0.3544699629114142
H1_squat_slow_20251205_013454,,-9.488,-0.347,-2.994,-9.445,-0.278,-2.965,2.59,2.94,1.19,-0.1383307692307696,-0.09964615384615527,0.06690384615384604,-0.19922884615384612,-0.12846346153846158,1.5136153846153846,0.31545384615384586,0.3510173076923073,0.43319230769230765,0.39791791101811885,0.38684023475632856,0.3917690534889847,0.34030150809008514
H1_squat_slow_20251205_013454,,-9.447,-0.357,-2.989,-9.474,-0.23,-2.917,2.66,2.94,1.12,-0.09733076923076922,-0.1286461538461552,0.13690384615384632,-0.20922884615384613,-0.08046346153846157,1.5136153846153846,0.3204538461538462,0.39901730769230737,0.3631923076923078,0.39489322128483795,0.42689461624641933,0.3833576477123696,0.3391550295883224
H1_squat_slow_20251205_013454,,-9.488,-0.268,-3.041,-9.481,-0.206,-2.917,2.94,2.94,1.19,-0.1383307692307696,-0.13564615384615486,0.4169038461538461,-0.12022884615384616,-0.056463461538461546,1.5136153846153846,0.26845384615384615,0.39901730769230737,0.43319230769230765,0.3250505263466813,0.425209140753321,0.37580644603979924,0.34091312593245154
H1_squat_slow_20251205_013454,85734.0,-9.474,-0.17,-2.907,-9.366,-0.256,-3.345,0.77,2.87,0.98,-0.12433076923077024,-0.020646153846154647,-1.7530961538461538,-0.022228846153846155,-0.10646346153846156,1.4436153846153847,0.40245384615384605,-0.028982692307693014,0.2231923076923077,0.42180725463518287,0.11225296773267503,0.3703548698915243,0.35428532572224714
H1_squat_slow_20251205_013454,,-9.447,-0.266,-3.037,-9.373,-0.376,-3.386,0.14,2.8,0.77,-0.09733076923076922,-0.02764615384615432,-2.3830961538461537,-0.11822884615384616,-0.22646346153846156,1.3736153846153845,0.27245384615384616,-0.06998269230769294,0.013192307692307725,0.31254189636902563,0.2386369343942817,0.37108652490389943,0.359483464101728
H1_squat_slow_20251205_013454,,-9.459,-0.29,-3.008,-9.323,-0.404,-3.29,0.42,3.01,0.77,-0.10933076923076968,0.022353846153844614,-2.103096153846154,-0.14222884615384612,-0.25446346153846156,1.5836153846153844,0.3014538461538461,0.026017307692307146,0.013192307692307725,0.35079436018812066,0.25676496644901153,0.38117026719359015,0.36863257591626397
H1_squat_slow_20251205_013454,,-9.404,-0.328,-3.159,-9.426,-0.421,-3.25,0.77,3.08,0.91,-0.05433076923076996,-0.08064615384615514,-1.7530961538461538,-0.18022884615384616,-0.27146346153846157,1.6536153846153847,0.15045384615384627,0.06601730769230718,0.15319230769230774,0.24097848305116198,0.2907825613677036,0.3910530534413755,0.37015786817842816
H1_squat_slow_20251205_013454,85809.0,-9.428,-0.273,-3.178,-9.399,-0.345,-3.077,3.64,2.1,1.12,-0.07833076923077087,-0.05364615384615412,1.1169038461538463,-0.12522884615384616,-0.19546346153846153,0.6736153846153847,0.13145384615384614,0.23901730769230722,0.3631923076923078,0.1977323620097302,0.31338977008760505,0.3958115204750011,0.3596634386625545
