Timestamp,AccX,AccY,AccZ,GyroX,GyroY,GyroZ,MagnX,MagnY,MagnZ
0.0,-9.397,-1.307,-2.958,-9.347,-1.283,-3.008,2.52,0.91,0.91
,-9.356,-1.275,-2.986,-9.366,-1.307,-2.989,2.45,0.98,1.05
,-9.361,-1.295,-3.015,-9.349,-1.292,-2.972,2.31,0.84,0.84
,-9.38,-1.321,-3.001,-9.387,-1.29,-2.967,2.66,0.91,0.84
75.0,-9.38,-1.307,-2.958,-9.351,-1.311,-2.912,2.73,0.98,0.91
,-9.375,-1.295,-2.907,-9.373,-1.364,-2.898,2.73,1.12,0.77
,-9.39,-1.268,-2.924,-9.375,-1.29,-2.903,2.52,1.19,0.84
,-9.39,-1.29,-2.936,-9.395,-1.28,-2.941,2.24,1.12,0.84
150.0,-9.351,-1.302,-2.919,-9.421,-1.383,-2.931,2.17,1.47,0.77
,-9.337,-1.299,-2.941,-9.399,-1.29,-2.977,2.03,1.4,0.91
,-9.356,-1.259,-2.989,-9.378,-1.256,-2.986,2.24,1.61,0.91
,-9.354,-1.268,-2.927,-9.349,-1.256,-3.008,2.38,1.61,0.98
226.0,-9.404,-1.285,-2.994,-9.351,-1.316,-2.984,2.59,1.54,0.91
,-9.402,-1.302,-2.994,-9.395,-1.285,-3.02,2.73,1.54,0.84
,-9.356,-1.292,-2.994,-9.392,-1.278,-2.96,2.59,1.47,0.84
,-9.356,-1.28,-2.979,-9.392,-1.321,-3.013,2.59,1.4,0.84
302.0,-9.411,-1.297,-2.958,-9.404,-1.266,-2.95,2.38,1.61,0.77
,-9.407,-1.307,-2.929,-9.387,-1.24,-2.948,2.52,1.47,0.77
,-9.368,-1.292,-2.919,-9.409,-1.318,-2.967,2.45,1.47,0.63
,-9.39,-1.261,-2.919,-9.356,-1.326,-3.005,2.73,1.61,0.7
378.0,-9.392,-1.342,-2.974,-9.363,-1.273,-3.001,2.59,2.03,0.77
,-9.39,-1.292,-2.972,-9.323,-1.311,-3.072,2.59,1.96,0.7
,-9.375,-1.261,-2.96,-9.378,-1.299,-3.025,2.59,1.82,0.7
,-9.39,-1.263,-2.97,-9.404,-1.352,-3.027,2.73,1.68,0.7
453.0,-9.399,-1.307,-3.029,-9.399,-1.316,-2.919,2.66,1.68,0.7
,-9.404,-1.307,-2.979,-9.366,-1.285,-2.989,2.66,1.54,0.63
,-9.363,-1.285,-2.915,-9.397,-1.304,-2.974,2.66,1.54,0.63
,-9.332,-1.297,-2.931,-9.344,-1.338,-2.986,2.59,1.68,0.7
529.0,-9.385,-1.318,-2.979,-9.438,-1.237,-2.984,2.03,1.54,0.7
,-9.351,-1.397,-2.91,-9.407,-1.283,-2.962,1.96,1.61,0.77
,-9.366,-1.34,-3.008,-9.404,-1.251,-2.977,2.8,1.61,0.77
,-9.39,-1.295,-3.015,-9.397,-1.271,-3.025,3.15,1.47,0.77
605.0,-9.342,-1.326,-3.005,-9.423,-1.28,-2.986,2.38,1.47,0.91
,-9.387,-1.328,-3.022,-9.351,-1.311,-2.903,2.59,1.4,0.98
,-9.356,-1.318,-2.982,-9.363,-1.326,-2.948,2.8,1.4,0.91
,-9.351,-1.278,-2.943,-9.392,-1.307,-2.934,2.73,1.47,0.91
681.0,-9.409,-1.292,-2.946,-9.387,-1.321,-2.967,2.52,1.54,0.91
,-9.392,-1.318,-2.974,-9.378,-1.326,-2.991,2.52,1.4,0.84
,-9.385,-1.295,-2.953,-9.397,-1.304,-3.027,2.38,1.33,0.84
,-9.356,-1.302,-2.943,-9.34,-1.297,-2.96,2.38,1.4,0.77
757.0,-9.395,-1.297,-2.96,-9.409,-1.307,-2.965,2.45,1.4,0.84
,-9.404,-1.292,-2.97,-9.39,-1.295,-2.946,2.52,1.33,0.91
,-9.378,-1.283,-2.931,-9.38,-1.316,-2.922,2.52,1.33,0.91
,-9.383,-1.273,-3.003,-9.378,-1.297,-2.919,2.66,1.33,0.84
832.0,-9.411,-1.302,-2.931,-9.359,-1.244,-2.994,2.31,1.54,0.84
,-9.435,-1.283,-2.965,-9.351,-1.29,-3.017,2.17,1.61,0.77
,-9.366,-1.304,-2.95,-9.395,-1.28,-3.013,2.03,1.75,0.84
,-9.361,-1.266,-2.991,-9.378,-1.33,-3.037,1.96,1.61,0.84
908.0,-9.387,-1.297,-2.996,-9.354,-1.22,-3.075,2.59,1.68,1.05
,-9.337,-1.278,-2.984,-9.392,-1.206,-2.965,2.45,1.54,0.91
,-9.421,-1.359,-3.132,-9.378,-1.134,-3.238,2.52,1.54,0.91
,-9.359,-1.256,-3.101,-9.423,-1.23,-3.003,3.01,1.4,0.91
983.0,-9.395,-1.383,-2.862,-9.435,-1.211,-2.867,1.54,1.19,0.98
,-9.347,-1.304,-2.895,-9.421,-1.388,-2.852,2.38,1.33,1.12
,-9.464,-1.175,-2.848,-9.363,-1.591,-2.903,3.57,1.26,1.4
,-9.452,-1.027,-2.804,-9.296,-1.826,-3.025,3.22,1.12,1.61
1059.0,-9.347,-1.898,-3.049,-9.33,-1.503,-3.135,3.78,1.12,2.8
,-9.292,-1.847,-3.211,-9.325,-1.4,-3.08,5.46,0.91,3.29
,-9.246,-1.668,-3.276,-9.349,-1.376,-2.97,6.3,0.7,3.57
,-9.296,-1.589,-3.245,-9.347,-1.328,-2.833,5.88,0.49,3.78
1135.0,-9.306,-1.208,-2.611,-9.414,-1.283,-2.781,1.33,0.77,4.62
,-9.402,-1.216,-2.594,-9.366,-1.318,-2.883,0.21,0.84,4.62
,-9.447,-1.196,-2.728,-9.268,-1.302,-2.915,-0.84,0.91,4.48
,-9.418,-1.204,-2.752,-9.325,-1.28,-2.793,-1.96,1.12,4.41
1211.0,-9.368,-1.184,-2.723,-9.385,-1.034,-3.144,-3.22,2.03,3.57
,-9.407,-1.117,-2.647,-9.301,-1.094,-3.314,-3.15,2.03,3.36
,-9.521,-0.993,-2.85,-9.217,-1.149,-3.24,-4.06,2.03,3.22
,-9.497,-0.986,-2.991,-9.284,-1.055,-3.154,-5.25,1.96,3.08
1286.0,-9.351,-1.022,-3.099,-9.402,-1.113,-2.982,-0.21,1.05,2.8
,-9.469,-1.012,-3.214,-9.375,-1.199,-2.871,0.07,0.49,2.52
,-9.459,-0.931,-3.027,-9.344,-1.11,-2.807,-0.56,0.21,2.31
,-9.466,-0.945,-2.967,-9.469,-1.113,-2.637,-1.61,0.21,2.17
1362.0,-9.49,-1.17,-2.735,-9.541,-1.007,-2.379,-0.35,0.21,2.38
,-9.442,-1.177,-2.462,-9.536,-0.998,-2.67,0.49,0.91,2.66
,-9.447,-1.07,-2.596,-9.43,-1.005,-2.742,0.7,1.33,2.8
,-9.375,-1.094,-2.19,-9.38,-1.24,-2.886,0.7,2.1,3.36
1438.0,-9.284,-1.378,-2.927,-9.677,-0.689,-2.692,-0.56,4.2,4.27
,-9.335,-1.113,-2.728,-9.27,-0.658,-2.716,0.98,4.48,4.48
,-9.39,-1.094,-2.745,-9.275,-0.816,-2.477,0.98,4.9,4.62
,-9.416,-0.924,-2.328,-9.368,-1.05,-2.824,2.03,5.6,4.69
1514.0,-9.299,-1.113,-2.534,-9.328,-0.67,-3.204,-7.28,7.49,3.36
,-9.462,-1.17,-2.426,-9.191,-0.957,-3.216,-5.6,8.47,3.36
,-9.447,-0.983,-2.776,-9.141,-1.206,-2.589,-6.58,7.91,2.8
,-9.356,-0.797,-2.852,-9.296,-1.323,-2.994,-7.77,7.21,2.73
1590.0,-9.215,-1.323,-3.245,-9.079,-1.627,-3.36,-12.46,5.53,2.38
,-9.433,-1.146,-3.745,-9.179,-1.412,-3.178,-9.52,5.74,3.5
,-9.332,-1.342,-3.731,-9.459,-1.22,-2.484,-7.98,6.02,4.55
,-9.069,-1.577,-3.659,-9.478,-0.849,-2.778,-5.6,6.3,5.39
1665.0,-9.373,-0.833,-2.915,-9.162,-1.206,-1.981,7.77,6.79,8.19
,-9.268,-0.416,-3.532,-9.15,-0.873,-2.563,6.37,7.28,8.82
,-9.438,-0.972,-2.86,-9.064,-0.639,-2.434,3.92,7.98,8.89
,-9.0,-1.283,-2.51,-9.438,-0.574,-2.651,4.97,9.87,8.89
1741.0,-9.459,-0.491,-2.481,-9.04,-0.732,-3.635,10.29,12.18,8.12
,-9.641,-0.285,-2.67,-8.973,-0.936,-3.491,8.75,11.83,7.98
,-9.397,-0.309,-3.128,-8.792,-1.034,-3.664,6.93,11.55,7.63
,-9.335,-0.56,-3.228,-9.014,-0.9,-3.104,5.32,11.9,7.63
1816.0,-9.349,-0.45,-3.508,-9.273,-0.179,-3.726,20.51,16.59,5.25
,-9.287,-0.412,-3.632,-9.55,-0.136,-4.039,19.25,15.96,5.25
,-9.304,-0.474,-3.592,-9.442,-0.249,-4.288,17.71,15.89,5.67
,-9.344,-0.364,-3.714,-9.287,-0.285,-4.367,16.87,15.96,5.74
1892.0,-9.079,-0.56,-4.448,-9.39,-1.417,-4.075,4.97,8.75,0.84
,-9.002,-0.945,-4.269,-9.05,-1.29,-4.07,2.66,7.7,0.35
,-8.988,-0.998,-4.369,-9.225,-1.139,-4.305,2.59,6.93,0.21
,-9.174,-1.431,-4.145,-9.234,-0.644,-4.537,3.29,6.37,0.14
1968.0,-9.186,-0.45,-4.099,-9.081,-0.266,-3.831,15.4,2.87,1.47
,-9.397,-0.105,-4.082,-9.289,-0.567,-3.683,14.49,1.82,0.35
,-9.189,0.227,-4.094,-9.261,-0.79,-3.494,12.11,0.77,-0.77
,-9.115,-0.031,-4.034,-9.289,-0.749,-3.271,7.7,0.28,-1.82
2044.0,-9.11,-0.849,-3.266,-9.454,-0.117,-3.747,5.6,2.87,-3.57
,-9.241,-0.735,-3.015,-9.174,0.335,-3.81,5.74,2.59,-3.57
,-9.275,-1.163,-3.029,-9.1,0.519,-3.841,3.36,2.24,-2.31
,-9.304,-0.821,-3.242,-9.21,0.306,-3.731,4.76,2.17,-2.24
2119.0,-9.445,0.584,-3.623,-9.107,-1.421,-3.422,-0.7,2.17,-11.13
,-9.215,0.203,-3.568,-9.215,-1.989,-3.266,-3.85,2.1,-12.11
,-9.186,-0.184,-3.463,-8.978,-2.4,-3.47,-5.46,2.8,-12.46
,-9.062,-0.546,-3.585,-8.882,-2.826,-3.441,-6.58,3.5,-12.04
2195.0,-8.966,-3.089,-3.324,-8.823,-2.486,-3.771,-0.14,5.25,-2.24
,-9.04,-3.049,-3.439,-8.897,-1.843,-3.853,2.59,4.48,-0.14
,-8.947,-2.855,-3.853,-8.811,-1.68,-3.843,4.97,4.13,1.47
,-8.892,-2.752,-3.766,-8.787,-1.316,-4.02,7.14,3.78,3.01
2271.0,-8.729,-1.481,-3.778,-8.942,-1.632,-3.513,11.34,6.09,6.65
,-8.971,-1.567,-3.498,-9.052,-1.433,-3.343,11.06,8.05,9.03
,-9.062,-1.656,-3.312,-9.753,-0.483,-3.503,10.85,8.12,11.13
,-9.411,-1.78,-3.214,-8.983,-0.78,-3.853,12.53,8.19,13.16
2347.0,-9.275,-0.55,-3.616,-9.206,0.613,-3.972,19.74,9.24,14.63
,-9.457,-0.235,-3.855,-8.99,0.763,-4.271,21.91,8.54,13.23
,-9.335,0.129,-4.185,-8.811,0.459,-4.089,20.65,8.4,11.97
,-9.263,0.235,-3.948,-8.952,0.558,-4.006,20.3,8.68,10.78
2423.0,-9.481,0.005,-3.711,-9.146,-0.625,-4.156,4.41,9.31,2.8
,-9.67,-0.079,-3.611,-9.397,-0.895,-4.178,3.99,8.54,1.96
,-9.387,-0.302,-3.958,-8.923,-1.223,-4.118,3.99,8.05,0.98
,-8.978,-0.392,-4.097,-8.859,-1.536,-4.13,4.9,8.12,-0.14
2498.0,-8.722,-1.804,-4.216,-9.351,-1.496,-3.85,7.0,7.21,1.4
,-8.617,-1.773,-4.3,-9.409,-1.472,-3.747,9.31,7.63,1.89
,-8.636,-1.888,-4.111,-9.421,-1.139,-4.025,9.94,7.7,2.17
,-9.155,-1.598,-4.018,-9.287,-1.125,-3.96,11.62,7.56,1.54
2574.0,-9.241,-0.467,-4.374,-9.088,-0.658,-4.319,13.3,5.6,0.77
,-9.005,-0.409,-4.439,-9.323,-0.665,-4.223,13.09,5.25,-0.21
,-8.679,-0.278,-4.434,-9.306,-0.943,-4.039,12.46,4.76,-0.7
,-8.854,-0.495,-4.391,-9.263,-0.845,-3.807,10.78,4.97,-0.84
2649.0,-9.189,-0.735,-3.903,-9.131,-0.431,-4.19,8.4,3.5,-2.17
,-9.818,1.204,-5.968,-9.337,-0.682,-3.984,11.27,3.57,-1.26
,-8.76,0.388,-5.446,-9.074,-0.447,-4.408,8.61,4.06,-2.31
,-8.921,-0.175,-4.468,-8.794,-0.529,-4.57,4.97,3.5,-4.41
2725.0,-8.837,-0.763,-4.542,-8.825,-2.008,-4.185,1.96,0.98,-7.28
,-8.966,-1.187,-4.314,-8.44,-3.027,-4.602,0.91,1.4,-6.79
,-9.069,-1.965,-3.948,-8.952,-1.972,-5.492,0.07,1.12,-5.95
,-8.871,-2.199,-4.025,-9.15,-2.608,-4.322,2.03,0.35,-4.48
2801.0,-9.167,-2.881,-3.814,-8.949,-1.814,-4.061,9.94,0.7,3.99
,-9.105,-2.295,-4.097,-9.131,-1.275,-4.113,12.53,0.42,5.39
,-8.911,-2.06,-4.221,-9.107,-0.749,-4.164,11.62,0.63,6.51
,-8.813,-2.491,-3.731,-9.119,-0.321,-3.987,7.98,1.19,7.98
2877.0,-9.162,0.022,-4.171,-9.179,-0.141,-4.128,10.43,0.77,7.98
,-8.995,0.072,-4.228,-9.289,-0.383,-4.02,8.47,0.42,6.79
,-8.94,0.06,-4.223,-9.229,-0.771,-3.994,7.0,0.91,5.81
,-9.06,0.062,-4.192,-9.141,-1.17,-3.857,5.11,1.54,4.97
2952.0,-9.098,-1.486,-3.958,-9.062,-1.792,-4.202,-0.42,1.47,2.66
,-8.854,-1.776,-3.958,-9.119,-1.811,-4.08,-1.19,1.61,3.5
,-8.849,-1.821,-4.049,-9.005,-1.539,-4.121,-1.68,1.89,4.27
,-8.875,-1.766,-4.221,-9.15,-1.285,-4.116,-1.61,2.31,5.18
3028.0,-8.772,-0.83,-4.281,-9.32,0.098,-4.109,-0.91,3.64,7.91
,-8.856,-0.491,-4.322,-9.131,-0.067,-4.2,-0.7,4.2,7.98
,-9.227,-0.153,-4.178,-9.002,-0.409,-4.147,-0.77,4.27,7.63
,-9.308,0.01,-4.2,-9.038,-0.553,-4.075,-2.03,3.64,6.79
3104.0,-9.217,-0.646,-4.166,-9.287,-0.349,-4.743,-8.82,3.99,3.29
,-9.229,-0.694,-4.271,-9.146,-0.627,-4.326,-9.31,3.57,2.8
,-9.244,-0.589,-4.348,-9.028,-0.9,-4.31,-9.59,3.43,1.96
,-9.069,-0.66,-4.334,-8.949,-0.725,-4.271,-10.43,3.57,1.33
3180.0,-8.93,-0.495,-4.226,-9.131,-0.258,-4.085,-12.32,2.87,-0.7
,-9.072,-0.333,-4.281,-9.153,-0.426,-4.314,-12.95,2.87,-1.19
,-9.198,-0.225,-4.197,-9.095,-0.455,-4.346,-13.02,2.94,-2.03
,-9.119,-0.278,-4.219,-8.995,-0.72,-4.302,-12.88,3.36,-3.08
3255.0,-8.983,-0.775,-4.298,-9.174,-0.983,-4.295,-19.6,1.68,-3.64
,-8.923,-1.007,-4.365,-9.052,-1.151,-4.554,-18.83,1.89,-3.43
,-9.057,-1.079,-4.274,-8.813,-1.12,-4.791,-16.66,2.24,-3.29
,-8.904,-1.055,-4.307,-8.871,-1.51,-4.623,-16.52,2.73,-3.36
3331.0,-8.887,-1.74,-4.611,-8.942,-0.995,-4.702,-12.25,-0.14,0.63
,-8.844,-1.61,-4.762,-9.016,-0.797,-4.807,-8.75,-0.14,1.82
,-9.0,-1.46,-4.623,-9.162,-0.672,-4.688,-4.97,0.07,2.17
,-9.17,-1.204,-4.515,-9.04,-0.529,-4.774,-1.75,-0.63,2.31
3407.0,-8.653,-0.897,-4.453,-9.275,-0.273,-4.152,-2.31,-3.85,5.25
,-8.66,-0.723,-4.259,-9.15,-0.191,-4.137,0.21,-3.29,4.83
,-9.081,-0.596,-4.101,-8.887,-0.146,-4.427,2.17,-2.87,4.97
,-9.033,-0.347,-4.142,-8.83,-0.412,-4.312,1.96,-3.08,5.39
3482.0,-8.866,-0.593,-4.283,-9.016,0.519,-4.611,-1.19,-6.44,5.46
,-8.976,-0.653,-4.003,-9.342,0.203,-4.283,0.28,-6.58,5.25
,-8.942,-1.266,-3.587,-9.206,0.127,-4.161,0.56,-7.63,3.43
,-9.045,0.622,-4.877,-9.421,-0.11,-4.075,19.95,-9.45,-1.89
3558.0,-9.213,0.302,-4.29,-9.095,-0.615,-4.008,1.82,-12.95,-3.29
,-8.914,-0.261,-4.223,-9.194,-0.641,-4.123,2.24,-13.72,-3.85
,-8.985,-0.359,-4.302,-9.265,-0.802,-4.195,0.56,-14.7,-3.43
,-9.021,-0.347,-4.214,-9.103,-1.07,-4.003,-1.19,-14.77,-3.15
3634.0,-8.94,-1.029,-3.999,-9.165,-0.763,-4.011,-1.82,-18.62,-1.05
,-8.909,-1.017,-4.214,-9.107,-0.9,-3.759,-0.07,-19.04,-0.35
,-9.083,-1.053,-3.91,-8.99,-1.11,-3.597,1.54,-19.53,0.14
,-9.16,-0.869,-3.999,-9.062,-1.18,-3.518,2.73,-20.16,0.0
3710.0,-9.222,-0.974,-3.422,-9.062,-0.309,-3.173,9.1,-21.35,2.17
,-9.32,-0.562,-3.458,-9.179,-0.364,-2.828,10.71,-21.56,2.38
,-9.277,-0.292,-3.276,-9.325,-0.282,-3.271,11.34,-21.49,2.45
,-9.172,-0.122,-3.47,-9.344,-0.323,-3.104,10.08,-21.63,1.75
3785.0,-9.304,-0.316,-2.917,-9.962,-0.311,-2.242,6.93,-22.33,-1.26
,-9.435,-0.39,-2.678,-9.529,-0.199,-3.068,6.02,-21.77,-1.89
,-9.576,-0.526,-2.522,-9.026,-0.196,-3.082,4.97,-21.14,-2.59
,-9.799,-0.474,-2.247,-9.127,-0.706,-2.749,5.74,-20.72,-3.43
3861.0,-9.311,-0.84,-2.702,-9.249,-0.524,-2.974,-3.08,-20.51,-6.09
,-9.373,-0.756,-2.4,-9.308,-0.787,-2.718,1.05,-19.39,-6.86
,-9.395,-0.57,-2.666,-9.261,-1.149,-3.183,2.1,-20.02,-7.84
,-9.395,-0.503,-3.053,-9.014,-1.395,-2.111,0.21,-21.56,-7.77
3937.0,-9.433,-1.01,-1.759,-9.366,-0.184,-1.996,11.34,-18.2,-5.46
,-9.794,-0.56,-1.984,-9.136,-0.208,-1.658,12.53,-18.34,-6.44
,-9.627,-0.306,-1.711,-9.344,-0.708,-1.225,9.59,-18.76,-6.58
,-9.792,-0.101,-2.477,-9.423,-0.708,-0.713,3.64,-19.53,-7.21
4013.0,-9.751,-0.828,-0.684,-9.083,-1.122,-1.091,-2.8,-13.3,-9.45
,-9.887,-0.668,-0.601,-9.304,-1.63,-1.094,-3.01,-12.18,-9.03
,-9.962,-0.677,-1.474,-9.737,-1.694,-1.194,-7.35,-11.69,-8.96
,-9.531,-1.074,-1.479,-9.94,-1.273,-1.56,-9.87,-10.15,-8.82
4088.0,-9.911,-0.878,-1.572,-9.201,-0.885,-2.654,6.93,-3.36,-4.55
,-9.954,-1.034,-1.933,-9.519,-1.292,-2.539,5.88,-2.8,-3.78
,-9.404,-0.842,-2.525,-9.667,-1.125,-2.137,4.55,-2.66,-4.34
,-9.182,-1.137,-2.434,-9.801,-1.007,-2.044,4.83,-2.52,-4.06
4164.0,-9.876,-0.969,-2.706,-9.529,-1.546,-1.979,7.84,-3.99,-4.41
,-9.509,-1.053,-2.644,-9.6,-1.223,-1.754,5.88,-4.83,-4.55
,-9.363,-1.11,-2.615,-9.727,-1.24,-1.596,4.76,-4.97,-4.41
,-9.399,-1.247,-2.362,-9.682,-1.359,-1.278,5.11,-4.9,-4.55
4240.0,-9.533,-1.357,-0.926,-9.828,-1.39,-1.309,3.64,-2.87,-3.29
,-9.641,-1.34,-0.905,-9.667,-1.46,-1.445,3.22,-1.33,-2.87
,-9.746,-1.431,-0.852,-9.469,-1.429,-1.496,2.94,-0.56,-2.59
,-9.804,-1.347,-1.015,-9.608,-1.46,-1.579,2.87,0.77,-2.1
4315.0,-9.648,-1.338,-1.584,-9.61,-0.95,-2.357,0.28,4.97,-0.77
,-9.713,-1.249,-1.579,-9.457,-1.022,-2.369,-0.28,5.6,-0.63
,-9.809,-1.146,-1.768,-9.447,-1.027,-2.496,-1.05,5.74,-0.7
,-9.794,-0.981,-2.01,-9.591,-1.084,-2.647,-1.82,5.81,-0.77
4391.0,-9.684,-1.043,-2.651,-9.734,-1.316,-2.273,0.84,4.41,-0.42
,-9.569,-1.039,-2.56,-9.562,-1.07,-2.347,1.33,3.71,-0.42
,-9.538,-1.127,-2.398,-9.55,-1.261,-2.082,1.96,3.08,-0.49
,-9.526,-1.22,-2.283,-9.586,-1.326,-2.053,2.8,3.01,-0.42
4467.0,-9.653,-1.237,-2.036,-9.612,-1.05,-2.146,4.48,2.31,0.07
,-9.629,-1.23,-2.044,-9.636,-1.003,-2.225,4.2,2.24,0.07
,-9.677,-1.161,-2.003,-9.612,-1.01,-2.225,3.64,2.52,0.07
,-9.639,-1.158,-2.02,-9.603,-1.074,-2.173,3.15,2.59,-0.14
4543.0,-9.615,-1.249,-2.149,-9.608,-1.29,-2.185,-0.77,1.89,-0.56
,-9.56,-1.381,-2.07,-9.576,-1.285,-2.362,-0.21,2.17,-0.42
,-9.622,-1.39,-2.058,-9.557,-1.232,-2.379,0.91,2.31,-0.14
,-9.615,-1.374,-2.101,-9.509,-1.184,-2.295,1.82,2.31,0.14
4618.0,-9.581,-1.161,-2.23,-9.603,-1.058,-1.972,3.22,1.82,0.63
,-9.634,-1.161,-2.194,-9.66,-1.022,-1.965,3.64,1.75,0.7
,-9.663,-1.079,-2.106,-9.806,-1.019,-1.96,3.57,1.96,0.84
,-9.634,-1.125,-2.0,-9.765,-1.06,-2.048,3.43,2.17,0.84
4694.0,-9.619,-1.117,-2.216,-9.569,-1.194,-2.225,1.61,2.52,0.35
,-9.624,-1.232,-2.19,-9.651,-1.129,-2.113,1.19,2.52,0.14
,-9.593,-1.251,-2.302,-9.66,-1.134,-2.127,1.75,2.38,0.14
,-9.548,-1.242,-2.302,-9.608,-1.153,-2.12,2.45,2.45,0.14
4770.0,-9.596,-1.125,-2.099,-9.574,-1.216,-2.23,3.78,2.45,0.28
,-9.603,-1.156,-2.149,-9.564,-1.211,-2.19,3.78,2.45,0.21
,-9.581,-1.149,-2.192,-9.6,-1.275,-2.175,3.64,2.52,0.21
,-9.584,-1.216,-2.257,-9.605,-1.211,-2.134,3.08,2.38,0.21
4846.0,-9.641,-1.237,-2.12,-9.552,-1.22,-2.168,2.17,2.52,-0.28
,-9.658,-1.18,-2.084,-9.574,-1.218,-2.125,2.03,2.66,-0.21
,-9.629,-1.168,-2.132,-9.55,-1.199,-2.149,1.75,2.45,-0.21
,-9.624,-1.22,-2.142,-9.677,-1.199,-2.218,1.4,2.66,-0.14
4921.0,-9.615,-1.235,-2.173,-9.567,-1.273,-2.233,0.84,2.8,-0.07
,-9.603,-1.328,-2.204,-9.591,-1.259,-2.154,0.7,2.87,-0.07
,-9.588,-1.34,-2.264,-9.586,-1.261,-2.18,0.91,2.8,0.0
,-9.574,-1.28,-2.276,-9.591,-1.251,-2.209,1.12,2.87,0.14
4997.0,-9.639,-1.23,-2.154,-9.581,-1.28,-1.859,1.05,2.66,0.14
,-9.6,-1.261,-2.087,-9.627,-1.311,-1.866,0.63,2.52,0.07
,-9.615,-1.287,-1.943,-9.608,-1.335,-1.907,0.42,2.94,0.21
,-9.598,-1.273,-1.912,-9.591,-1.316,-1.847,0.35,3.43,0.42
5072.0,-9.639,-1.292,-1.945,-9.596,-1.472,-1.548,-1.54,5.25,0.98
,-9.555,-1.333,-1.866,-9.514,-1.395,-1.455,-1.61,5.81,1.05
,-9.483,-1.347,-1.807,-9.533,-1.364,-1.309,-1.61,6.44,1.19
,-9.579,-1.412,-1.668,-9.631,-1.421,-1.431,-1.33,7.14,1.4
5148.0,-9.634,-1.426,-1.433,-9.493,-1.321,-1.393,-1.12,11.97,2.38
,-9.66,-1.431,-1.417,-9.483,-1.146,-1.579,-1.4,13.16,2.52
,-9.734,-1.756,-1.029,-9.538,-1.268,-1.735,-4.48,13.86,2.59
,-9.538,-1.4,-1.354,-9.706,-1.263,-2.324,-3.57,14.84,2.66
5224.0,-9.438,-1.05,-3.273,-9.229,-1.299,-2.857,-7.84,17.43,4.55
,-9.201,-1.374,-2.776,-9.273,-1.153,-2.907,-9.31,17.43,5.53
,-9.256,-1.57,-2.915,-9.328,-1.127,-2.41,-8.12,17.01,6.02
,-9.349,-1.462,-3.049,-9.512,-1.106,-2.807,-4.62,16.31,6.37
5300.0,-9.414,-1.024,-2.862,-9.407,-1.089,-3.343,-1.47,17.5,7.42
,-9.289,-1.182,-2.611,-9.112,-0.737,-3.096,-1.75,18.13,8.4
,-9.277,-1.433,-3.053,-9.189,-0.517,-3.34,-2.17,17.92,8.96
,-9.462,-1.467,-2.639,-9.055,-0.842,-2.982,0.21,18.55,9.8
5376.0,-9.344,-0.957,-2.505,-9.143,-1.031,-1.876,2.8,19.6,9.45
,-9.258,-1.163,-2.757,-9.452,-0.431,-2.678,5.74,19.88,9.03
,-9.127,-1.268,-2.34,-9.435,-0.792,-1.9,9.94,20.65,9.59
,-9.241,-1.106,-2.407,-9.643,-0.79,-1.665,13.58,21.7,10.01
5451.0,-9.586,-0.725,-2.288,-8.765,-1.283,-4.013,7.98,25.41,11.34
,-9.284,-0.708,-3.439,-8.794,-1.027,-4.561,4.27,23.73,11.06
,-9.115,-0.814,-4.408,-8.954,-0.687,-4.558,2.24,22.61,11.48
,-8.859,-1.082,-4.623,-9.277,-0.316,-4.448,2.38,23.1,11.97
5527.0,-9.488,0.215,-4.111,-9.244,0.084,-3.652,11.69,17.71,7.56
,-9.579,0.402,-3.319,-8.964,-0.146,-3.551,9.66,19.11,7.35
,-9.663,0.215,-2.998,-8.878,-0.639,-3.494,4.55,19.11,5.95
,-9.608,0.249,-3.317,-9.1,-0.694,-2.929,1.12,17.22,4.48
5603.0,-9.383,-0.459,-3.273,-9.024,-1.23,-3.953,-3.99,16.87,-0.7
,-9.081,-0.354,-3.869,-9.067,-1.165,-3.759,-5.81,13.51,-1.68
,-9.033,-0.56,-4.149,-9.139,-1.326,-4.173,-8.26,11.9,-1.54
,-9.098,-0.909,-4.329,-8.997,-1.4,-4.451,-9.17,12.11,-1.61
5679.0,-9.048,-1.486,-4.286,-9.057,-0.68,-4.563,5.95,11.76,2.52
,-9.131,-1.467,-4.121,-9.237,-0.299,-4.712,8.96,11.48,3.36
,-9.052,-1.122,-3.671,-8.861,0.081,-4.702,12.11,12.6,3.71
,-9.179,-0.586,-4.046,-8.861,0.287,-4.389,14.49,11.97,3.36
5754.0,-9.325,0.223,-4.319,-8.71,-0.495,-3.855,9.45,10.08,-1.54
,-9.299,0.321,-4.652,-9.086,-0.668,-3.668,5.18,7.35,-3.08
,-9.32,-0.211,-4.446,-9.143,-1.244,-3.594,-0.42,3.85,-3.36
,-8.756,-0.235,-4.346,-9.311,-1.352,-3.769,-3.43,3.36,-4.27
5830.0,-9.024,-1.57,-3.934,-8.801,-1.536,-4.042,1.19,6.65,-1.54
,-8.804,-1.524,-3.965,-8.954,-1.28,-4.032,2.8,7.56,-0.28
,-8.818,-1.606,-3.893,-8.746,-0.876,-4.073,5.6,8.47,1.05
,-8.681,-1.749,-3.845,-8.897,-0.488,-4.147,7.77,7.98,1.96
5905.0,-9.27,-0.936,-3.802,-9.088,-0.165,-4.29,9.17,9.31,3.01
,-8.945,-0.34,-4.145,-9.179,0.036,-4.57,11.9,9.45,1.4
,-9.117,-0.328,-4.319,-8.923,0.041,-4.14,12.18,7.98,1.54
,-9.11,-0.187,-4.362,-9.174,-0.077,-4.216,10.64,7.84,1.47
5981.0,-9.134,0.318,-4.482,-8.155,-2.474,-5.111,10.92,7.14,-3.22
,-9.21,-0.144,-4.113,-8.966,-2.929,-4.367,6.51,6.09,-2.87
,-8.856,-0.814,-4.271,-8.847,-3.247,-4.044,1.68,4.76,-1.68
,-8.885,-0.182,-4.922,-8.981,-3.12,-4.523,1.05,5.6,1.12
6057.0,-9.105,-2.324,-4.585,-8.598,-1.23,-4.771,15.26,5.95,10.43
,-9.15,-2.137,-4.925,-8.918,-1.376,-4.441,17.92,5.81,11.2
,-9.184,-1.476,-4.91,-9.177,-1.077,-4.408,18.9,5.67,11.76
,-8.885,-1.326,-5.025,-8.964,-0.632,-4.468,19.74,4.41,12.04
6133.0,-8.93,-0.603,-4.219,-9.208,1.316,-4.145,17.43,2.38,14.56
,-9.174,-0.079,-4.173,-9.136,0.972,-4.472,19.32,3.08,13.02
,-9.146,0.83,-4.578,-9.217,1.295,-4.987,20.09,3.64,12.04
,-9.165,0.581,-4.355,-9.332,1.129,-4.676,17.78,3.71,10.29
6209.0,-8.672,0.457,-4.441,-9.241,-1.359,-3.91,8.47,1.89,1.4
,-8.466,-0.376,-4.011,-9.038,-1.993,-3.975,3.85,2.66,1.82
,-8.82,-1.029,-3.932,-8.873,-1.802,-3.946,4.76,2.52,1.26
,-9.134,-0.96,-4.219,-8.732,-1.426,-4.116,6.3,2.8,0.91
6284.0,-8.693,-1.225,-4.092,-8.689,-0.227,-4.207,10.99,1.54,2.8
,-8.851,-0.646,-4.369,-8.784,-0.213,-4.042,11.97,1.4,1.61
,-9.021,-0.337,-4.137,-8.973,0.022,-4.525,11.69,1.75,0.42
,-8.918,-0.318,-3.951,-9.095,-0.177,-4.52,9.17,1.47,0.21
6360.0,-9.198,-0.275,-4.501,-9.28,-0.57,-4.829,6.37,1.75,-1.61
,-8.902,-0.893,-4.176,-9.134,-1.39,-4.104,5.81,1.82,-0.98
,-8.806,-1.06,-4.293,-9.021,-1.383,-4.14,7.0,1.96,-0.7
,-9.139,-1.127,-4.279,-8.966,-1.23,-4.269,8.82,2.59,-0.7
6436.0,-9.095,-0.895,-4.322,-8.997,-0.905,-4.465,12.25,2.94,0.49
,-8.973,-0.608,-4.683,-8.981,-0.967,-4.377,11.13,2.73,0.07
,-8.945,-0.522,-4.865,-8.971,-1.165,-4.369,10.08,2.24,-0.7
,-8.985,-0.849,-4.535,-8.904,-1.28,-4.46,8.12,1.96,-0.63
6512.0,-8.923,-1.529,-4.362,-8.897,-0.818,-4.475,7.28,2.24,1.33
,-9.088,-1.429,-4.357,-8.827,-0.747,-4.575,8.82,2.24,2.45
,-9.012,-1.247,-4.293,-9.086,-0.818,-4.384,9.45,1.82,3.08
,-8.844,-1.232,-4.271,-9.172,-0.811,-4.334,7.77,1.4,3.64
6587.0,-8.995,-1.012,-4.271,-8.875,-1.259,-4.396,3.15,1.26,1.33
,-8.947,-1.05,-4.3,-8.787,-1.397,-4.29,2.94,1.19,1.75
,-8.899,-1.22,-4.472,-8.938,-1.56,-4.18,2.94,1.54,2.31
,-8.947,-1.182,-4.343,-9.048,-1.603,-4.044,2.59,2.03,3.08
6663.0,-8.911,-1.563,-4.022,-9.024,-0.89,-4.245,0.0,3.78,7.07
,-8.861,-1.646,-4.159,-8.756,-0.696,-4.3,-0.42,4.55,8.19
,-9.072,-1.441,-4.324,-8.741,-0.412,-4.152,0.0,5.39,8.89
,-9.15,-1.146,-4.283,-8.926,0.089,-4.113,0.07,5.95,9.1
6738.0,-9.251,0.519,-4.288,-8.906,0.493,-4.274,-1.96,6.3,6.37
,-9.196,0.826,-4.274,-8.787,0.249,-4.305,-2.66,5.46,4.62
,-9.026,1.007,-4.48,-9.007,0.122,-4.31,-4.27,4.76,2.8
,-9.036,0.792,-4.326,-9.005,-0.158,-4.271,-7.56,4.83,1.26
6814.0,-9.021,-0.292,-4.305,-8.949,-1.084,-4.42,-13.16,5.88,-3.36
,-8.945,-0.541,-4.338,-8.708,-1.419,-4.389,-13.02,5.95,-3.78
,-8.997,-0.905,-4.436,-8.593,-1.555,-4.334,-12.88,5.74,-4.06
,-9.04,-1.039,-4.336,-8.605,-1.084,-4.547,-11.83,5.88,-4.2
6890.0,-8.672,-1.189,-4.606,-9.088,-0.4,-4.642,-10.71,6.58,-1.4
,-8.926,-1.11,-4.592,-8.792,-0.646,-4.451,-10.57,6.72,-0.7
,-9.021,-0.914,-4.688,-8.78,-0.476,-4.566,-9.52,6.23,-0.28
,-9.172,-0.67,-4.537,-8.861,-0.313,-4.673,-9.52,5.95,-0.35
6966.0,-8.804,-0.323,-4.752,-8.856,-0.828,-4.803,-10.43,6.79,-1.54
,-9.11,0.426,-5.575,-8.593,-0.548,-5.37,-4.34,6.37,-2.73
,-9.067,-0.108,-5.3,-8.851,-1.149,-4.515,-7.14,5.39,-2.1
,-9.014,-0.768,-4.738,-8.681,-1.409,-4.279,-10.43,4.83,-1.61
7042.0,-8.748,-0.873,-4.563,-8.873,-0.471,-4.786,-10.43,1.89,0.35
,-8.789,-1.024,-4.714,-8.77,-0.531,-4.681,-9.24,1.12,0.56
,-8.727,-0.739,-4.745,-8.911,-0.388,-4.805,-7.14,1.26,0.56
,-8.772,-0.57,-4.877,-8.856,-0.55,-4.618,-5.67,1.68,0.77
7117.0,-9.009,-0.665,-4.671,-8.646,-0.596,-4.843,-2.45,2.66,1.89
,-8.859,-0.804,-4.597,-8.715,-0.323,-4.815,-4.48,1.47,1.4
,-8.672,-0.715,-4.523,-8.875,-0.335,-4.721,-3.57,0.77,1.26
,-8.753,-0.639,-4.616,-8.763,-0.232,-4.755,-2.38,0.35,2.1
7193.0,-8.832,-0.048,-4.855,-8.777,-0.165,-4.681,-0.14,-0.7,1.61
,-8.758,0.246,-4.803,-8.961,-0.388,-4.592,-1.4,-0.07,1.75
,-8.796,-0.211,-4.96,-8.811,-0.256,-4.704,-1.12,-0.21,2.1
,-8.813,-0.108,-4.642,-8.689,-0.297,-4.786,-1.68,0.35,1.61
7269.0,-8.758,-0.165,-4.81,-8.854,-0.481,-4.628,-1.26,-1.89,-0.28
,-8.83,-0.459,-4.47,-8.799,0.388,-5.415,-2.1,-2.45,-0.98
,-8.88,-0.242,-4.558,-8.894,-0.534,-4.446,-1.82,-3.29,-1.33
,-8.964,-0.211,-4.791,-8.732,-0.883,-4.75,-2.24,-3.92,-1.82
7345.0,-8.677,-1.859,-4.269,-8.978,-0.608,-4.654,-6.3,-7.21,-2.03
,-9.002,-0.78,-4.152,-8.71,-1.472,-3.936,-4.83,-7.91,-2.17
,-8.66,-1.886,-3.884,-8.945,-0.964,-4.178,-3.08,-9.17,-3.36
,-8.981,-0.263,-4.501,-8.918,-0.806,-4.314,0.7,-9.66,-2.87
7420.0,-8.782,-0.778,-4.276,-8.851,-0.55,-4.338,1.05,-10.08,0.28
,-8.909,-0.514,-4.319,-8.911,-0.593,-4.243,1.61,-10.5,0.98
,-8.906,-0.419,-4.336,-9.009,-0.543,-4.116,1.96,-10.85,1.68
,-8.873,-0.467,-4.434,-8.882,-0.357,-4.353,1.12,-11.34,2.03
7496.0,-8.76,-0.136,-4.468,-9.088,-0.481,-3.9,4.06,-12.11,1.75
,-8.921,-0.007,-4.484,-9.179,-0.522,-3.79,4.83,-12.25,1.82
,-8.914,-0.024,-4.463,-9.103,-0.522,-4.135,3.78,-12.32,1.47
,-9.045,-0.306,-4.109,-9.019,-0.354,-4.054,2.73,-11.97,1.19
7571.0,-9.117,-0.323,-3.886,-9.0,-0.481,-3.9,4.2,-13.02,-0.35
,-9.182,-0.268,-3.762,-9.04,-0.467,-4.066,3.43,-13.02,-0.98
,-9.184,-0.294,-4.046,-9.105,-0.51,-3.664,1.26,-13.58,-1.33
,-9.031,-0.462,-3.917,-9.239,-0.34,-3.506,-0.28,-13.86,-1.47
7647.0,-9.27,-0.352,-3.922,-9.067,-0.438,-3.891,4.83,-13.93,-2.24
,-9.031,-0.184,-3.994,-9.076,-0.172,-3.939,3.22,-14.35,-2.1
,-8.909,-0.323,-3.881,-9.155,-0.148,-4.396,2.45,-14.7,-2.03
,-9.115,-0.424,-4.161,-8.957,-0.459,-3.987,2.31,-15.26,-2.38
7723.0,-9.105,-0.225,-3.314,-9.198,-0.206,-3.604,3.43,-16.17,-3.85
,-9.32,-0.522,-3.364,-9.1,-0.282,-4.324,5.46,-15.75,-3.57
,-9.426,-0.694,-3.276,-9.028,-0.701,-3.81,5.67,-16.17,-3.85
,-9.162,-0.299,-3.723,-8.866,-0.646,-3.652,4.69,-16.73,-4.55
7799.0,-9.143,-1.503,-2.546,-9.213,0.115,-3.434,8.96,-15.4,-3.08
,-9.519,-1.591,-2.479,-9.361,0.17,-3.702,12.11,-15.33,-2.31
,-9.581,-1.106,-2.737,-9.009,0.483,-3.589,16.73,-15.75,-1.82
,-9.466,-0.203,-3.606,-9.05,0.146,-3.116,18.13,-16.59,-2.03
7875.0,-9.323,-0.196,-2.589,-9.531,-0.459,-2.501,10.71,-15.12,-6.37
,-9.445,-0.084,-2.563,-9.117,-0.694,-2.405,11.27,-14.35,-6.93
,-9.686,-0.311,-2.304,-9.038,-0.993,-2.132,9.38,-13.79,-7.49
,-9.634,-0.357,-2.41,-9.28,-1.074,-2.182,4.27,-14.0,-8.26
7950.0,-9.545,-1.161,-2.139,-9.464,-1.0,-2.548,-3.71,-8.89,-8.05
,-9.615,-1.062,-1.974,-9.186,-0.759,-2.962,-4.41,-8.61,-7.77
,-9.646,-0.823,-2.333,-9.256,-1.017,-3.128,-6.09,-8.12,-7.56
,-9.524,-0.852,-2.3,-9.356,-1.321,-2.996,-7.28,-7.35,-7.21
8026.0,-9.495,-1.309,-3.278,-9.11,-1.01,-3.747,-5.04,-6.23,-5.39
,-9.497,-1.448,-3.41,-9.115,-1.199,-3.293,-3.36,-7.07,-4.9
,-9.572,-1.268,-3.652,-9.294,-1.117,-3.214,-1.96,-7.98,-4.2
,-9.407,-1.17,-3.927,-9.646,-1.309,-2.359,0.42,-9.24,-3.99
8102.0,-9.753,-0.852,-2.209,-9.378,-0.933,-2.111,9.73,-10.92,-2.8
,-9.758,-0.756,-1.993,-9.392,-1.084,-1.989,7.7,-10.92,-3.08
,-9.641,-0.756,-2.17,-9.414,-1.029,-1.831,4.9,-10.64,-3.36
,-9.373,-0.761,-2.19,-9.426,-0.952,-1.618,2.1,-9.73,-3.36
8178.0,-9.533,-1.05,-1.491,-9.541,-1.072,-1.455,3.01,-4.27,-2.17
,-9.643,-0.976,-1.462,-9.653,-1.091,-1.723,3.29,-3.22,-1.82
,-9.655,-1.0,-1.488,-9.574,-1.07,-1.85,3.5,-1.96,-1.47
,-9.471,-1.106,-1.295,-9.548,-0.976,-2.082,3.22,-0.35,-1.12
8253.0,-9.514,-1.027,-2.168,-9.545,-0.814,-2.749,5.95,4.55,0.21
,-9.581,-1.0,-2.168,-9.43,-0.914,-2.86,6.02,5.25,0.21
,-9.689,-0.926,-2.374,-9.385,-0.983,-3.037,5.67,5.46,0.21
,-9.715,-0.852,-2.544,-9.351,-1.065,-3.175,5.11,5.39,-0.14
8329.0,-9.347,-1.012,-3.101,-9.478,-0.955,-2.943,2.38,3.99,-0.7
,-9.447,-0.972,-3.037,-9.452,-0.995,-2.955,2.45,3.71,-0.49
,-9.423,-0.921,-3.001,-9.459,-0.952,-2.977,2.17,2.94,-0.84
,-9.474,-0.95,-2.915,-9.435,-1.06,-2.843,1.4,2.45,-1.12
8404.0,-9.459,-1.089,-2.704,-9.45,-1.187,-2.558,1.05,1.05,-0.91
,-9.612,-1.113,-2.651,-9.488,-1.122,-2.608,2.24,0.98,-0.7
,-9.514,-1.163,-2.601,-9.488,-1.103,-2.587,3.15,0.98,-0.35
,-9.5,-1.139,-2.611,-9.521,-1.074,-2.563,3.78,0.84,-0.14
8480.0,-9.557,-1.062,-2.52,-9.517,-0.972,-2.685,4.9,1.33,0.28
,-9.56,-1.062,-2.501,-9.495,-0.998,-2.654,4.41,1.33,0.42
,-9.533,-1.015,-2.536,-9.478,-1.0,-2.685,4.2,1.61,0.49
,-9.533,-0.95,-2.62,-9.519,-0.993,-2.845,4.2,1.75,0.49
8556.0,-9.469,-0.983,-2.869,-9.481,-1.036,-2.807,2.17,1.4,0.07
,-9.476,-1.055,-2.883,-9.483,-1.048,-2.659,1.89,0.91,0.0
,-9.445,-1.027,-2.915,-9.564,-1.031,-2.613,2.1,0.77,-0.14
,-9.464,-1.06,-2.888,-9.545,-1.005,-2.594,2.31,0.42,-0.14
8632.0,-9.567,-1.072,-2.534,-9.497,-1.031,-2.618,2.94,0.56,0.35
,-9.533,-1.053,-2.568,-9.476,-1.096,-2.582,3.01,0.35,0.21
,-9.564,-1.07,-2.575,-9.485,-1.058,-2.587,3.15,0.49,0.21
,-9.481,-1.053,-2.544,-9.49,-1.094,-2.546,3.15,0.56,0.28
8708.0,-9.538,-0.988,-2.534,-9.502,-1.079,-2.539,3.85,0.98,0.63
,-9.526,-1.034,-2.553,-9.483,-1.091,-2.534,3.85,0.98,0.56
,-9.574,-1.041,-2.589,-9.514,-1.149,-2.548,3.64,0.98,0.49
,-9.541,-1.065,-2.58,-9.512,-1.074,-2.637,3.64,1.05,0.63
8783.0,-9.572,-1.058,-2.625,-9.55,-1.046,-2.563,4.62,1.47,0.98
,-9.533,-1.055,-2.596,-9.495,-1.048,-2.63,4.34,1.75,1.05
,-9.497,-1.036,-2.536,-9.478,-1.084,-2.668,4.27,1.89,1.05
,-9.507,-1.034,-2.57,-9.476,-1.084,-2.63,3.99,1.75,0.84
8859.0,-9.529,-1.122,-2.637,-9.531,-1.024,-2.541,3.36,1.68,0.77
,-9.483,-1.043,-2.63,-9.576,-1.077,-2.584,3.43,1.96,0.84
,-9.509,-1.062,-2.618,-9.543,-1.024,-2.527,3.43,1.96,0.77
,-9.49,-1.067,-2.615,-9.555,-1.122,-2.544,3.08,1.75,0.63
8935.0,-9.471,-1.082,-2.572,-9.469,-1.043,-2.615,2.45,2.03,0.56
,-9.488,-1.022,-2.563,-9.517,-0.976,-2.541,2.24,2.38,0.7
,-9.423,-1.055,-2.572,-9.502,-1.015,-2.565,1.75,2.38,0.7
,-9.459,-1.067,-2.632,-9.543,-1.012,-2.558,1.82,2.52,0.63
9011.0,-9.531,-1.0,-2.563,-9.521,-1.082,-2.721,0.49,2.87,0.28
,-9.464,-1.012,-2.51,-9.485,-1.108,-2.74,0.42,2.8,0.35
,-9.493,-1.094,-2.58,-9.469,-1.156,-2.783,0.35,3.01,0.35
,-9.55,-1.072,-2.728,-9.438,-1.129,-2.831,0.63,2.8,0.42
9086.0,-9.464,-1.086,-2.788,-9.471,-1.094,-2.781,2.66,2.38,1.05
,-9.497,-1.062,-2.74,-9.493,-1.096,-2.804,2.59,2.45,1.12
,-9.49,-1.027,-2.737,-9.423,-1.211,-2.783,2.31,2.1,1.12
,-9.49,-1.039,-2.781,-9.435,-1.117,-2.797,1.75,1.82,0.91
9162.0,-9.474,-1.034,-2.759,-9.505,-1.094,-2.627,1.12,0.98,1.05
,-9.442,-1.07,-2.718,-9.452,-1.17,-2.568,1.19,1.05,1.26
,-9.485,-1.034,-2.702,-9.481,-1.199,-2.515,1.12,0.84,1.26
,-9.526,-1.036,-2.656,-9.485,-1.158,-2.41,0.91,0.77,1.4
9237.0,-9.447,-1.149,-2.288,-9.476,-1.213,-2.173,1.19,1.54,1.47
,-9.541,-1.201,-2.249,-9.462,-1.211,-2.12,1.26,2.1,1.75
,-9.507,-1.144,-2.297,-9.526,-1.127,-2.154,1.19,2.59,1.68
,-9.454,-1.206,-2.199,-9.517,-1.024,-2.273,1.12,3.43,1.96
9313.0,-9.507,-0.991,-2.211,-9.631,-1.129,-2.391,3.71,6.44,3.5
,-9.39,-0.83,-2.479,-9.471,-1.194,-2.388,2.38,6.86,3.85
,-9.466,-1.211,-1.907,-9.277,-1.419,-2.046,0.91,7.7,4.2
,-9.643,-1.23,-1.883,-9.383,-1.335,-2.027,2.45,8.26,4.27
9389.0,-9.555,-1.213,-2.228,-9.311,-1.117,-2.213,3.92,10.71,6.09
,-9.672,-1.06,-2.364,-9.643,-1.132,-2.429,4.27,11.06,6.16
,-9.483,-1.0,-2.556,-9.71,-0.916,-3.154,2.8,11.13,6.3
,-9.304,-0.995,-2.419,-9.397,-0.943,-3.345,1.61,11.69,7.0
9465.0,-9.186,-1.443,-2.766,-9.483,-0.914,-3.52,-2.17,11.69,8.05
,-9.103,-1.342,-3.422,-9.22,-0.763,-3.537,1.61,11.69,8.75
,-9.203,-1.261,-3.51,-9.32,-0.646,-3.245,5.74,11.69,9.17
,-9.275,-1.216,-3.333,-9.363,-0.881,-3.41,8.05,11.62,9.31
9540.0,-9.275,-1.034,-3.281,-9.526,-0.601,-3.094,7.0,8.26,10.99
,-9.414,-0.881,-3.436,-9.548,-0.191,-3.396,8.12,7.56,11.06
,-9.301,-0.845,-3.63,-9.361,0.278,-3.396,7.7,6.51,10.99
,-9.201,-0.754,-3.513,-9.361,0.261,-3.197,8.96,6.65,10.99
9616.0,-9.201,-0.122,-3.326,-9.624,-0.433,-2.108,3.99,4.9,6.44
,-9.256,-0.608,-2.761,-9.485,-0.424,-2.139,3.92,6.23,6.86
,-9.524,-0.859,-2.58,-9.502,-0.244,-1.948,5.95,7.56,6.23
,-9.397,-0.739,-2.285,-9.375,-0.005,-2.716,7.98,8.26,5.53
9692.0,-9.296,-0.084,-2.919,-9.392,-0.23,-2.934,-0.42,9.38,2.24
,-9.268,-0.077,-3.087,-9.49,-0.115,-3.008,-1.96,10.15,1.68
,-9.074,-0.017,-3.221,-9.5,-0.026,-3.29,-1.47,11.41,0.91
,-9.107,-0.132,-3.01,-9.292,-0.034,-3.242,-0.56,13.16,0.07
9768.0,-9.483,-0.261,-2.824,-9.241,-1.754,-3.558,-4.48,11.97,-3.5
,-9.445,-0.414,-2.955,-9.002,-2.017,-3.637,-5.88,12.6,-3.92
,-9.328,-0.876,-3.163,-8.995,-2.101,-3.532,-7.14,11.97,-3.92
,-9.292,-1.28,-3.352,-9.06,-1.783,-3.472,-7.21,10.99,-3.64
9844.0,-9.143,-1.675,-3.798,-9.146,-1.345,-3.24,9.31,9.38,-0.35
,-9.253,-1.29,-3.912,-9.273,-1.218,-3.553,11.13,7.84,0.28
,-9.206,-1.077,-3.659,-9.256,-1.113,-3.716,12.32,8.33,1.26
,-9.172,-1.11,-3.441,-9.395,-0.742,-3.754,9.73,8.68,2.03
9919.0,-9.124,-0.603,-3.908,-9.294,-0.486,-3.338,14.28,8.68,4.41
,-9.052,-0.816,-3.754,-9.356,-0.074,-3.467,12.88,10.01,4.69
,-9.095,-0.79,-3.496,-9.117,0.242,-3.51,13.93,11.06,4.97
,-9.057,-0.747,-3.518,-9.045,0.483,-3.206,14.77,11.34,4.76
9995.0,-9.153,0.79,-3.247,-9.27,-0.117,-3.302,12.74,14.14,-0.56
,-9.208,0.29,-2.982,-9.189,-0.414,-3.472,8.75,14.7,-1.26
,-9.373,0.172,-3.041,-8.99,-0.615,-3.501,7.77,13.58,-2.73
,-9.335,0.213,-3.388,-8.971,-0.78,-3.544,7.21,12.81,-4.13
10070.0,-9.107,-0.883,-3.522,-8.952,-1.359,-3.597,0.7,11.83,-4.97
,-9.239,-0.928,-3.642,-8.784,-1.649,-3.613,2.59,11.34,-4.62
,-9.055,-0.988,-3.69,-8.94,-1.369,-3.984,3.36,11.97,-4.83
,-8.887,-1.019,-3.647,-9.162,-1.402,-4.137,3.22,12.53,-4.83
10146.0,-9.282,-1.503,-3.91,-8.897,-0.562,-4.168,9.87,12.67,-0.07
,-9.17,-1.101,-4.322,-9.167,-0.672,-4.403,10.08,11.9,-0.77
,-8.93,-0.646,-4.252,-9.55,-0.962,-4.702,10.43,12.74,-2.1
,-8.801,-0.823,-4.305,-8.866,-2.132,-4.011,9.31,13.86,-1.75
10222.0,-8.658,-1.831,-4.369,-9.131,-1.201,-4.707,4.76,10.85,3.36
,-8.672,-2.194,-4.556,-8.868,-1.409,-4.156,6.58,11.69,5.25
,-9.265,-2.45,-4.087,-8.787,-0.696,-4.709,6.23,10.71,7.28
,-9.624,-2.194,-4.231,-8.837,-0.45,-4.86,8.26,7.35,7.98
10298.0,-9.105,-0.34,-4.879,-8.636,-0.658,-5.303,5.88,3.64,5.6
,-8.916,-0.562,-4.817,-9.251,-1.196,-4.104,1.75,2.8,6.93
,-8.509,-1.182,-4.197,-9.318,-1.11,-3.958,-2.73,2.87,7.77
,-8.703,0.811,-5.829,-9.459,-0.672,-3.642,4.2,3.57,9.38
10373.0,-9.091,-0.395,-4.034,-8.866,-0.168,-4.645,13.02,2.66,7.14
,-8.842,-0.043,-4.398,-8.906,-0.493,-4.513,12.53,3.15,5.95
,-9.031,-0.065,-4.558,-8.897,0.019,-4.042,11.97,3.22,4.62
,-8.966,0.077,-4.642,-8.952,-0.246,-4.329,10.71,3.08,3.71
10449.0,-8.899,-0.498,-4.338,-9.292,-0.625,-4.042,6.09,2.87,2.1
,-9.021,-0.538,-4.36,-9.335,-0.246,-4.082,3.99,3.57,1.47
,-9.048,-0.665,-4.097,-9.239,-0.361,-3.893,3.22,4.06,1.12
,-9.229,-0.684,-3.994,-8.976,-0.105,-4.283,2.8,4.48,0.98
10525.0,-8.842,-0.337,-4.408,-8.904,-1.536,-4.503,4.48,2.8,-2.8
,-8.971,-0.586,-4.525,-8.82,-1.584,-4.669,3.29,2.8,-3.36
,-8.926,-0.749,-4.556,-9.045,-2.063,-4.082,2.73,3.22,-3.08
,-8.744,-1.235,-4.587,-9.06,-2.326,-4.137,2.8,3.08,-1.82
10601.0,-8.914,-1.838,-4.633,-8.868,-0.962,-4.85,11.69,1.96,5.25
,-8.902,-1.491,-4.515,-8.952,-1.256,-4.525,13.86,1.4,5.95
,-8.926,-0.998,-4.637,-9.048,-1.598,-4.24,15.19,0.07,6.58
,-8.892,-0.816,-5.087,-9.127,-1.735,-3.465,13.51,-1.05,6.16
10677.0,-9.086,-1.237,-3.644,-9.036,0.366,-4.494,12.32,-0.98,7.07
,-8.88,-0.593,-4.063,-9.076,0.256,-4.42,12.95,-0.49,6.72
,-8.904,-0.177,-3.877,-9.179,0.299,-4.408,12.25,0.07,5.67
,-8.995,0.285,-4.164,-9.064,-0.218,-4.456,12.04,0.21,4.34
10752.0,-8.945,-0.419,-4.147,-9.064,-1.031,-3.944,5.11,-0.7,2.8
,-8.935,-0.593,-4.085,-9.072,-1.012,-3.936,3.99,-0.63,2.24
,-8.842,-0.754,-4.18,-8.976,-0.816,-4.037,3.36,-0.21,1.82
,-8.911,-0.806,-4.161,-9.167,-0.732,-4.106,3.01,0.42,1.61
10828.0,-9.198,-0.847,-4.255,-8.894,-0.979,-4.233,1.19,0.98,0.42
,-9.189,-1.055,-4.087,-9.031,-0.84,-4.281,0.63,1.33,0.21
,-9.057,-1.058,-4.037,-9.174,-0.869,-4.424,1.47,1.12,0.49
,-8.832,-1.022,-4.159,-9.167,-0.998,-4.274,1.61,1.33,0.91
10903.0,-9.036,-1.079,-4.128,-9.067,-0.708,-4.293,-2.03,2.1,2.38
,-8.806,-1.039,-4.185,-9.057,-0.756,-4.355,-1.82,2.03,2.87
,-8.947,-1.053,-4.288,-9.062,-0.816,-4.226,-1.96,2.24,2.94
,-9.04,-0.931,-4.145,-9.031,-0.596,-4.322,-2.1,2.8,2.8
10979.0,-9.15,-0.503,-4.29,-8.961,-0.294,-4.24,-3.92,3.08,1.26
,-9.1,-0.268,-4.13,-9.038,-0.179,-4.46,-4.2,3.57,0.7
,-9.076,-0.342,-4.389,-8.875,-0.168,-4.396,-5.88,2.87,0.49
,-9.028,-0.483,-4.279,-9.005,-0.249,-4.393,-6.72,2.87,0.0
11055.0,-9.203,-0.306,-4.259,-8.871,-0.773,-4.08,-8.33,1.19,-3.29
,-9.215,-0.302,-4.491,-8.997,-0.919,-4.202,-7.98,0.77,-4.34
,-9.043,-0.388,-4.458,-9.088,-0.715,-4.556,-9.38,0.56,-4.69
,-8.973,-0.543,-4.245,-9.028,-0.928,-4.614,-11.62,1.33,-4.76
11131.0,-8.961,-0.924,-4.771,-9.222,-1.237,-4.161,-10.85,1.26,-3.57
,-8.923,-1.108,-4.649,-9.186,-1.067,-4.267,-10.36,1.61,-3.43
,-8.99,-1.417,-4.123,-8.902,-1.079,-4.341,-9.17,2.59,-2.8
,-9.17,-1.699,-3.977,-8.744,-0.938,-4.456,-9.17,3.29,-2.59
11206.0,-8.868,-0.857,-4.611,-9.165,-0.538,-4.257,-6.23,-0.49,-1.19
,-8.871,-0.878,-4.501,-8.808,-0.933,-3.85,-8.05,-1.19,-0.49
,-9.026,-1.156,-4.207,-8.717,-0.952,-4.121,-8.47,-1.33,0.14
,-9.316,-0.651,-4.293,-8.993,-0.246,-4.889,-6.37,-1.54,0.14
11282.0,-9.057,-0.488,-4.477,-9.119,-0.45,-4.006,-0.21,-1.75,-0.35
,-8.818,-0.694,-4.166,-9.105,-0.61,-4.046,-1.61,-0.98,0.7
,-8.959,-0.455,-4.051,-9.009,-0.56,-4.135,-0.63,-0.35,1.61
,-9.273,-0.17,-4.116,-9.009,-0.653,-3.807,-0.63,-0.7,1.4
11357.0,-8.849,-0.373,-4.243,-8.856,-0.84,-4.13,0.42,-2.31,0.63
,-9.062,-0.995,-3.843,-8.957,-1.307,-3.917,0.0,-3.15,1.4
,-8.997,-0.799,-4.022,-9.206,-1.323,-3.592,-0.56,-4.83,1.75
,-8.899,-0.854,-4.106,-9.048,-0.871,-3.965,-1.89,-5.18,2.52
11433.0,-8.952,-0.804,-4.011,-9.129,-0.184,-4.051,5.67,-1.47,3.64
,-8.909,-0.833,-3.917,-9.021,-0.584,-3.977,5.6,-0.77,4.34
,-9.024,-0.601,-3.989,-8.918,-0.175,-3.996,7.07,-0.14,4.97
,-8.957,-0.873,-3.991,-8.863,-0.376,-4.233,7.77,-0.21,4.76
11509.0,-8.93,-0.275,-4.231,-8.813,-0.302,-3.271,3.99,-2.87,3.5
,-8.947,-0.457,-3.989,-9.033,0.053,-4.121,4.97,-3.43,2.45
,-8.952,-0.184,-4.489,-9.273,0.325,-4.446,5.81,-4.41,1.96
,-9.203,0.739,-4.621,-9.072,0.038,-4.164,4.9,-4.83,0.21
11585.0,-9.076,-0.144,-4.142,-8.969,-0.912,-3.838,-3.22,-7.49,-2.38
,-9.045,-0.165,-4.003,-9.27,-0.129,-3.912,-3.71,-7.77,-3.01
,-9.122,-0.392,-3.977,-9.16,-0.878,-3.821,-4.06,-8.26,-3.08
,-8.978,-1.658,-3.51,-8.918,-0.897,-3.831,-5.32,-9.17,-4.9
11661.0,-9.009,-0.964,-3.774,-9.206,-0.797,-3.802,-5.18,-9.66,-4.13
,-9.155,-0.505,-4.068,-9.127,-0.816,-3.553,-0.77,-9.8,-4.76
,-9.299,-0.995,-3.64,-9.136,-0.476,-3.776,-2.8,-9.87,-4.06
,-9.217,-1.208,-3.625,-9.067,-0.711,-3.458,-2.17,-9.87,-3.36
11736.0,-9.184,-0.61,-3.561,-9.268,-0.869,-3.154,-1.26,-10.5,-3.29
,-9.155,-0.694,-3.503,-9.33,-0.816,-3.163,-2.8,-10.5,-3.36
,-9.198,-0.747,-3.132,-9.28,-0.675,-3.419,-3.29,-9.8,-2.87
,-9.201,-0.9,-3.072,-9.16,-0.534,-3.515,-2.17,-9.17,-2.59
11812.0,-9.335,-0.33,-3.862,-9.351,-0.866,-2.816,0.63,-8.05,-2.31
,-9.215,-0.414,-3.506,-9.409,-0.976,-3.108,-0.63,-7.63,-2.87
,-9.079,-0.548,-3.053,-9.469,-0.821,-3.089,-0.77,-6.86,-3.08
,-9.148,-0.694,-3.058,-9.241,-0.861,-3.185,-1.54,-6.86,-3.64
11888.0,-9.316,-0.809,-3.216,-9.148,-0.481,-3.783,-1.12,-4.83,-2.94
,-9.081,-0.715,-3.561,-9.148,-0.407,-3.668,-1.75,-4.76,-3.29
,-9.028,-0.675,-3.721,-9.361,-0.644,-3.764,-1.47,-5.04,-3.36
,-9.055,-0.622,-3.649,-9.227,-0.627,-3.527,1.82,-5.18,-2.8
11964.0,-9.239,-0.641,-3.398,-9.38,-0.763,-3.604,0.49,-7.28,-3.78
,-9.414,-1.115,-3.271,-9.217,-1.189,-3.475,-0.42,-7.28,-3.78
,-9.215,-0.838,-3.187,-9.139,-1.003,-3.439,0.42,-7.28,-4.06
,-9.273,-0.967,-3.348,-9.146,-1.12,-3.496,0.7,-7.49,-3.99
12039.0,-9.44,-1.273,-3.192,-9.208,-0.794,-3.565,1.82,-8.33,-2.66
,-9.263,-0.632,-3.307,-9.158,-0.821,-3.163,2.1,-8.68,-3.08
,-9.366,-0.72,-3.654,-9.201,-0.715,-3.609,1.19,-9.59,-3.36
,-9.337,-0.665,-3.486,-9.139,-0.601,-3.329,1.47,-10.01,-3.15
12115.0,-9.366,-0.885,-2.898,-9.529,-0.861,-2.225,5.95,-10.92,-3.15
,-9.497,-0.713,-2.611,-9.538,-0.871,-2.563,6.86,-10.29,-3.08
,-9.672,-0.794,-2.809,-9.414,-1.019,-2.599,6.16,-10.36,-3.5
,-9.471,-0.677,-2.41,-9.349,-0.873,-2.912,5.46,-9.59,-3.71
12190.0,-9.359,-1.027,-2.895,-9.407,-1.067,-2.994,0.42,-8.26,-3.64
,-9.342,-1.031,-3.072,-9.514,-0.873,-3.197,1.75,-8.05,-3.29
,-9.275,-0.902,-3.125,-9.392,-1.043,-2.934,2.8,-8.19,-3.29
,-9.363,-1.06,-3.089,-9.421,-1.232,-2.568,2.8,-8.4,-3.08
12266.0,-9.34,-1.235,-2.702,-9.375,-1.22,-2.142,3.5,-8.96,-2.59
,-9.282,-1.137,-2.508,-9.428,-1.18,-2.072,3.43,-8.96,-2.73
,-9.423,-1.273,-2.264,-9.517,-0.998,-2.362,1.54,-8.54,-2.45
,-9.373,-1.201,-2.144,-9.433,-0.969,-2.34,1.4,-7.98,-2.38
12342.0,-9.392,-1.082,-2.249,-9.799,-1.254,-1.833,0.49,-4.9,-1.54
,-9.347,-1.137,-2.3,-9.708,-1.012,-2.455,1.26,-4.06,-1.26
,-9.526,-1.134,-2.139,-9.557,-1.012,-2.446,2.45,-3.01,-0.7
,-9.624,-1.101,-2.233,-9.378,-1.144,-2.276,3.71,-2.17,-0.21
12418.0,-9.385,-1.287,-2.268,-9.732,-0.797,-2.123,5.04,0.84,1.19
,-9.433,-1.115,-2.247,-9.653,-0.878,-2.218,6.79,1.4,1.26
,-9.445,-1.003,-2.139,-9.56,-1.027,-2.369,6.72,2.1,1.12
,-9.533,-0.859,-1.979,-9.421,-1.058,-2.539,6.16,2.8,0.98
12494.0,-9.438,-0.94,-2.706,-9.564,-0.969,-2.608,3.78,4.76,0.84
,-9.483,-0.883,-2.848,-9.591,-0.981,-2.785,4.34,4.83,0.77
,-9.368,-0.928,-2.804,-9.517,-0.95,-2.862,4.13,4.97,0.98
,-9.442,-0.974,-2.632,-9.493,-1.036,-2.936,4.06,5.11,0.98
12569.0,-9.45,-1.058,-3.144,-9.459,-1.005,-2.962,0.63,3.78,0.07
,-9.407,-1.091,-3.19,-9.5,-0.921,-2.903,0.7,3.22,0.07
,-9.323,-1.039,-3.137,-9.495,-0.933,-2.895,1.33,3.01,0.07
,-9.428,-1.062,-3.041,-9.474,-0.943,-2.783,1.89,2.8,0.14
12645.0,-9.452,-1.003,-2.816,-9.43,-1.07,-2.879,2.03,1.68,-0.07
,-9.49,-0.991,-2.938,-9.402,-1.125,-2.804,2.38,1.33,-0.21
,-9.445,-1.084,-2.929,-9.45,-1.168,-2.613,2.59,1.05,-0.07
,-9.392,-1.053,-2.922,-9.478,-1.079,-2.536,3.01,0.98,0.14
12721.0,-9.466,-1.07,-2.431,-9.588,-1.029,-2.529,5.04,1.12,0.28
,-9.512,-1.077,-2.386,-9.55,-0.926,-2.599,4.62,1.68,0.35
,-9.536,-1.113,-2.295,-9.5,-0.945,-2.702,4.27,2.24,0.28
,-9.619,-1.048,-2.29,-9.474,-0.993,-2.893,4.2,2.73,0.42
12797.0,-9.325,-1.029,-2.917,-9.469,-0.991,-3.087,1.75,3.08,-0.07
,-9.337,-1.029,-2.934,-9.404,-1.055,-2.95,2.03,3.01,0.0
,-9.411,-1.01,-2.958,-9.397,-1.048,-2.986,2.45,2.87,-0.21
,-9.517,-1.007,-3.01,-9.509,-1.043,-3.015,2.87,2.66,-0.14
12872.0,-9.428,-1.022,-2.996,-9.509,-1.017,-2.828,3.36,1.33,-0.07
,-9.368,-1.117,-2.895,-9.483,-1.022,-2.819,3.29,1.12,0.0
,-9.485,-1.082,-2.816,-9.469,-1.091,-2.879,3.71,1.12,0.14
,-9.505,-1.036,-2.879,-9.442,-1.122,-2.9,3.99,0.91,-0.07
12948.0,-9.414,-1.113,-2.927,-9.512,-1.067,-2.749,2.87,-0.07,-0.07
,-9.399,-1.098,-2.881,-9.471,-1.101,-2.742,3.08,0.0,0.0
,-9.43,-1.113,-2.809,-9.509,-1.153,-2.718,3.36,-0.07,0.14
,-9.423,-1.115,-2.816,-9.49,-1.146,-2.694,3.36,-0.14,0.0
13023.0,-9.45,-1.106,-2.714,-9.459,-1.096,-2.68,3.64,-0.07,0.42
,-9.464,-1.113,-2.742,-9.44,-1.153,-2.608,3.92,-0.07,0.49
,-9.454,-1.046,-2.706,-9.445,-1.177,-2.532,4.06,0.0,0.56
,-9.49,-1.079,-2.687,-9.485,-1.173,-2.558,4.13,0.14,0.56
13099.0,-9.488,-1.134,-2.544,-9.478,-1.091,-2.486,3.57,1.05,0.77
,-9.476,-1.141,-2.563,-9.488,-1.048,-2.453,3.43,1.19,0.77
,-9.483,-1.094,-2.584,-9.49,-1.079,-2.632,3.5,1.4,0.77
,-9.469,-1.041,-2.548,-9.509,-1.096,-2.69,3.5,1.68,0.84
13175.0,-9.474,-1.096,-2.716,-9.471,-1.067,-2.852,2.52,2.24,0.91
,-9.466,-1.091,-2.752,-9.548,-1.101,-2.953,3.01,2.31,0.91
,-9.445,-1.106,-2.771,-9.524,-1.082,-2.998,2.94,2.1,0.98
,-9.433,-1.122,-2.797,-9.497,-1.003,-3.003,3.43,2.24,1.12
13251.0,-9.493,-0.95,-2.936,-9.454,-1.115,-2.824,2.8,0.77,0.28
,-9.433,-1.007,-2.917,-9.454,-1.115,-2.752,2.17,0.63,0.28
,-9.423,-1.072,-2.804,-9.497,-1.153,-2.699,2.1,0.42,0.28
,-9.44,-1.106,-2.819,-9.478,-1.115,-2.79,2.45,0.56,0.28
13327.0,-9.507,-1.084,-2.812,-9.533,-1.12,-2.498,3.57,0.35,0.49
,-9.445,-1.113,-2.668,-9.526,-1.108,-2.484,3.08,0.7,0.56
,-9.45,-1.17,-2.56,-9.505,-1.161,-2.395,3.01,0.84,0.77
,-9.469,-1.156,-2.513,-9.459,-1.213,-2.347,3.64,0.91,0.91
13402.0,-9.452,-1.259,-2.245,-9.598,-0.95,-1.689,3.43,2.8,1.82
,-9.43,-1.318,-1.962,-9.691,-0.945,-1.761,3.57,3.78,2.17
,-9.541,-1.223,-1.843,-9.663,-0.857,-2.187,3.71,4.69,2.24
,-9.665,-1.07,-1.766,-9.462,-1.125,-2.326,2.87,5.6,2.17
13478.0,-9.289,-1.287,-2.587,-9.481,-1.515,-2.747,-10.43,8.47,1.26
,-9.177,-1.354,-2.843,-9.485,-1.342,-2.733,-9.31,8.61,1.75
,-9.213,-1.646,-2.642,-9.404,-1.225,-3.063,-6.79,9.1,2.73
,-9.347,-1.381,-2.783,-9.366,-1.295,-2.754,-1.4,9.87,3.78
13554.0,-9.5,-1.242,-2.56,-9.253,-1.007,-3.563,5.39,10.5,6.93
,-9.543,-1.055,-3.106,-9.162,-1.149,-3.551,5.25,9.45,6.44
,-9.404,-1.089,-2.891,-9.191,-1.299,-3.312,3.43,9.17,6.65
,-9.22,-0.936,-3.228,-9.261,-1.094,-3.001,3.57,9.1,7.21
13630.0,-9.538,-0.869,-2.972,-9.213,-0.584,-3.769,8.82,8.68,8.12
,-9.655,-0.62,-3.159,-9.129,-1.084,-3.652,8.05,7.63,7.35
,-9.572,-0.256,-3.764,-9.198,-1.479,-3.139,4.9,5.6,6.3
,-9.165,-0.27,-3.908,-9.349,-1.242,-3.276,-1.19,3.57,5.6
13705.0,-9.359,-1.007,-2.742,-9.485,-1.058,-2.637,3.29,5.32,5.81
,-9.572,-0.749,-3.058,-9.538,-0.871,-2.173,3.29,4.27,5.53
,-9.313,-0.584,-3.415,-9.538,-0.493,-2.541,0.35,3.08,5.04
,-9.373,-0.845,-2.986,-9.28,-0.584,-2.62,-0.63,3.29,5.88
13781.0,-9.371,-0.637,-2.491,-9.27,-0.447,-2.876,4.13,5.53,5.81
,-9.323,-0.864,-2.879,-9.256,-0.249,-2.965,3.22,5.74,5.95
,-9.402,-0.715,-2.632,-9.273,-0.16,-2.721,5.6,7.21,6.02
,-9.459,-0.639,-2.984,-9.335,-0.275,-2.496,6.37,7.77,5.74
13856.0,-9.409,-0.354,-2.089,-9.11,-1.129,-3.324,1.61,10.5,1.89
,-9.608,-0.555,-2.584,-8.935,-1.539,-2.922,-0.84,9.59,0.91
,-9.392,-0.663,-2.955,-9.165,-1.723,-2.745,-2.87,8.47,0.84
,-9.378,-1.046,-3.049,-9.033,-1.529,-2.639,-3.64,8.54,1.75
13932.0,-9.375,-1.084,-2.793,-9.316,-0.464,-3.553,15.96,14.7,3.43
,-9.395,-0.486,-3.099,-9.186,-0.632,-3.51,16.03,13.23,3.29
,-9.433,-0.424,-3.197,-9.086,-0.952,-3.659,13.09,12.25,3.71
,-9.454,-0.302,-3.589,-8.959,-1.254,-3.4,8.4,11.13,3.29
14008.0,-9.198,-1.192,-3.424,-9.548,-0.632,-3.367,6.16,12.88,3.78
,-9.34,-1.295,-3.716,-9.471,-0.304,-3.501,8.47,12.53,3.78
,-9.447,-0.754,-3.218,-9.117,-0.165,-3.632,8.75,11.76,3.36
,-9.43,-0.61,-3.537,-8.923,-0.129,-3.795,6.16,10.43,2.73
14084.0,-8.873,-0.462,-3.563,-9.351,-0.187,-3.908,0.63,9.52,-0.42
,-8.952,-0.603,-3.285,-9.215,-0.402,-4.135,2.38,10.78,-0.49
,-9.22,-0.95,-3.051,-9.206,-0.57,-3.941,4.13,11.13,-0.07
,-9.584,-0.83,-3.106,-9.091,-0.78,-3.838,5.46,9.66,0.14
14160.0,-9.311,-0.78,-3.642,-8.957,0.28,-4.111,5.46,10.71,0.77
,-9.438,-0.459,-3.659,-9.153,-0.182,-4.097,5.81,8.54,0.07
,-8.985,-0.156,-3.951,-9.222,-0.861,-3.685,5.81,6.93,-1.12
,-8.863,0.354,-4.089,-9.261,-1.405,-3.494,5.11,6.58,-3.01
14235.0,-9.146,-1.345,-3.666,-8.928,-0.893,-3.841,2.52,8.26,-2.8
,-9.203,-1.237,-3.692,-9.234,-0.574,-4.101,5.53,8.75,-1.19
,-9.014,-1.082,-3.774,-9.265,-0.491,-4.037,7.35,8.19,-0.56
,-8.918,-0.964,-3.893,-9.155,-0.749,-4.054,8.61,8.47,0.28
14311.0,-9.143,-0.68,-4.011,-8.964,-1.251,-3.881,11.13,9.31,-0.21
,-8.949,-0.974,-4.049,-9.249,-1.256,-3.743,10.5,9.87,0.07
,-9.289,-1.05,-4.13,-9.036,-1.149,-3.778,8.33,11.76,2.8
,-8.751,-1.189,-4.011,-9.361,-1.536,-3.752,11.34,11.34,2.17
14387.0,-9.17,-1.642,-4.049,-8.926,-1.452,-4.159,13.51,8.26,6.02
,-9.016,-2.012,-3.848,-9.105,-1.041,-3.994,11.55,6.58,8.05
,-8.71,-1.852,-4.25,-8.911,-0.337,-3.609,13.16,7.14,9.38
,-8.756,-1.436,-4.044,-9.016,-0.074,-4.118,13.72,7.35,10.22
14463.0,-9.067,0.146,-4.097,-9.844,0.194,-4.587,14.28,6.58,5.39
,-9.139,-0.335,-3.757,-8.454,-1.094,-4.259,11.55,6.37,4.83
,-9.119,-0.208,-3.963,-9.105,-0.811,-4.137,9.8,6.37,4.83
,-9.117,-1.062,-3.881,-9.182,-0.861,-4.135,4.34,7.63,6.58
14538.0,-9.313,-0.66,-3.97,-8.804,-1.256,-4.018,13.86,9.03,6.86
,-9.258,-0.565,-4.53,-8.665,-1.39,-4.125,16.1,7.21,7.0
,-9.316,-0.711,-4.446,-9.048,-1.393,-4.281,14.84,6.51,6.58
,-9.072,-0.991,-4.427,-9.273,-1.184,-4.216,14.07,6.86,6.37
14614.0,-9.179,-0.938,-4.353,-9.591,0.969,-4.503,15.75,6.58,6.65
,-9.117,-0.737,-4.219,-9.095,2.759,-7.035,16.38,6.23,6.79
,-9.067,-0.428,-4.563,-8.777,0.261,-4.922,16.03,5.74,6.16
,-9.136,-0.146,-4.288,-8.689,-0.483,-3.939,14.14,5.88,4.97
14689.0,-8.981,-0.541,-4.295,-8.82,-1.364,-4.07,4.83,3.57,0.49
,-8.983,-1.106,-4.238,-8.873,-0.988,-4.456,3.57,3.99,0.98
,-9.383,-1.752,-3.841,-8.959,-0.421,-4.623,3.5,3.85,1.82
,-9.179,-1.395,-4.128,-9.146,-0.421,-4.154,6.58,3.57,1.33
14765.0,-8.825,-0.105,-4.52,-9.019,-1.297,-4.319,9.45,0.42,0.0
,-8.885,0.05,-4.75,-9.237,-1.431,-4.573,5.11,0.35,0.0
,-9.024,-0.201,-4.625,-9.414,-1.692,-4.48,1.47,0.84,-0.63
,-8.926,-0.759,-4.331,-9.407,-1.945,-4.032,-0.14,0.77,-0.7
14841.0,-9.048,-1.706,-4.192,-9.395,-1.323,-4.503,9.31,-1.54,4.06
,-8.593,-1.682,-4.31,-9.316,-1.259,-4.36,7.84,-1.96,4.48
,-8.679,-1.555,-4.365,-9.074,-0.993,-4.398,8.4,-0.91,4.76
,-9.016,-1.469,-4.326,-9.091,-1.029,-4.003,9.31,-0.91,5.04
14917.0,-8.909,-0.763,-3.984,-9.179,0.165,-3.807,9.24,-3.36,6.3
,-8.662,-0.682,-4.111,-9.213,0.457,-3.91,9.24,-3.57,6.02
,-8.684,-0.754,-3.62,-9.208,0.196,-3.903,4.62,-2.87,6.93
,-9.06,-0.321,-3.711,-9.17,0.062,-3.721,4.9,-1.75,6.79
14992.0,-9.072,0.034,-3.62,-9.057,-0.921,-3.79,3.22,-0.28,1.33
,-9.033,-0.132,-3.838,-9.141,-1.201,-3.769,2.31,-0.35,0.77
,-8.861,-0.311,-3.673,-9.076,-1.242,-3.836,0.98,0.49,0.35
,-9.069,-0.455,-3.747,-9.043,-1.05,-4.006,-0.49,0.77,0.07
15068.0,-9.076,-0.991,-4.13,-8.981,-1.22,-4.142,1.19,3.01,-0.98
,-9.15,-0.988,-4.116,-9.167,-1.302,-4.046,0.84,2.87,-0.91
,-9.036,-1.089,-4.149,-9.217,-1.362,-3.96,-0.56,2.8,-0.49
,-8.861,-1.216,-4.173,-9.229,-1.125,-3.939,-1.33,2.94,0.28
15144.0,-8.904,-0.907,-4.068,-9.007,-0.412,-4.085,2.1,2.24,3.78
,-8.823,-0.761,-4.118,-9.182,-0.464,-4.034,0.77,3.01,3.92
,-8.964,-0.771,-3.867,-9.15,-0.55,-3.932,-0.35,3.78,3.78
,-9.005,-0.538,-4.066,-9.014,-0.524,-4.142,-0.56,3.71,3.15
15220.0,-8.933,-0.526,-4.302,-9.074,-1.091,-3.843,-1.26,3.78,2.03
,-9.162,-0.668,-4.168,-8.985,-0.852,-4.082,-2.38,4.2,2.31
,-9.012,-0.981,-4.099,-8.875,-0.581,-4.066,-2.8,3.99,2.59
,-8.942,-1.086,-4.003,-8.959,-0.536,-4.101,-2.17,4.2,2.94
15296.0,-9.0,-0.553,-4.123,-8.935,-0.005,-4.666,-3.99,4.13,2.38
,-9.155,-0.56,-4.176,-8.947,-0.359,-4.396,-4.34,3.92,1.89
,-9.127,-0.177,-4.346,-9.179,-0.426,-4.2,-3.57,3.5,1.05
,-9.033,0.232,-4.635,-9.351,-0.455,-4.207,-4.27,3.29,0.0
15371.0,-9.313,-0.191,-4.334,-9.105,-0.775,-4.298,-8.26,2.87,-2.59
,-9.131,-0.124,-4.405,-9.194,-0.869,-4.357,-8.4,2.38,-3.22
,-8.88,-0.34,-4.307,-9.076,-0.775,-4.587,-9.66,1.61,-3.5
,-8.911,-0.608,-4.451,-9.062,-0.732,-4.436,-11.62,1.54,-3.57
15447.0,-8.878,-0.983,-4.082,-9.019,-0.28,-4.068,-12.95,1.47,-3.22
,-9.048,-0.637,-4.073,-8.835,-0.797,-3.984,-11.34,1.89,-3.08
,-9.277,-0.581,-3.963,-9.127,-0.811,-4.042,-10.15,1.82,-3.78
,-9.115,-0.409,-3.841,-9.019,-0.629,-4.015,-9.52,1.4,-4.34
15522.0,-8.832,-0.725,-4.353,-9.024,-0.732,-4.188,-9.59,3.71,-2.94
,-8.945,-0.684,-4.068,-9.115,-0.648,-4.099,-8.89,4.97,-2.31
,-9.086,-0.838,-4.003,-8.971,-0.514,-4.329,-9.66,5.11,-1.96
,-9.076,-0.881,-4.049,-8.768,-0.629,-4.259,-9.52,5.18,-1.75
15598.0,-8.756,-0.945,-4.346,-8.973,-0.876,-4.578,-10.43,1.61,-1.61
,-9.083,-0.816,-4.614,-8.701,-1.103,-4.156,-9.73,1.54,-1.4
,-9.196,-1.015,-4.633,-8.77,-0.833,-4.759,-8.61,1.47,-0.7
,-9.15,-0.782,-4.623,-8.935,-0.952,-4.525,-6.79,1.68,-0.98
15674.0,-9.055,-1.115,-4.252,-8.978,-0.546,-4.317,-1.4,3.78,2.31
,-8.952,-0.529,-4.537,-9.131,-0.416,-4.147,0.56,3.15,2.87
,-8.837,-0.747,-4.48,-8.938,-0.416,-4.386,0.63,3.01,3.22
,-8.926,-0.388,-4.35,-8.878,-0.373,-4.535,1.47,2.24,2.24
15750.0,-8.969,-0.378,-4.503,-8.775,-0.491,-4.331,0.49,-1.89,2.66
,-9.15,-0.184,-4.484,-8.804,-0.622,-4.202,1.4,-2.73,2.03
,-9.225,-0.507,-4.238,-8.83,-0.287,-4.319,0.35,-3.22,1.96
,-9.028,-0.254,-4.25,-8.873,-0.452,-4.367,-0.91,-3.64,1.61
15825.0,-8.995,-0.519,-4.252,-8.921,-0.615,-4.111,-0.35,-4.48,0.49
,-8.933,-0.452,-4.31,-9.033,-0.598,-4.152,-1.4,-5.11,1.05
,-8.851,-0.383,-4.372,-9.191,-0.074,-4.049,-2.66,-5.53,1.12
,-8.885,-0.321,-4.113,-9.129,-0.151,-4.436,-3.78,-5.74,0.63
15901.0,-9.11,-0.337,-4.468,-8.923,-0.459,-4.078,-3.64,-9.59,-1.12
,-9.182,-0.369,-4.322,-8.861,-0.292,-4.389,-4.83,-10.08,-1.61
,-8.875,-0.622,-4.149,-9.038,-0.692,-4.255,-5.46,-10.85,-2.8
,-8.971,0.141,-4.288,-10.603,-0.467,-6.1,-6.16,-10.85,-3.85
15977.0,-8.842,-0.529,-4.267,-9.045,-0.256,-4.063,-1.33,-13.51,-0.63
,-9.191,-1.101,-3.855,-9.21,-0.617,-4.113,-1.26,-13.23,0.14
,-8.909,-1.266,-3.867,-9.112,-0.34,-3.738,-0.35,-13.02,0.28
,-8.655,-1.577,-4.027,-9.177,-0.292,-3.747,6.65,-14.07,-1.61
16053.0,-8.947,-1.113,-3.561,-9.153,-0.086,-3.513,4.76,-14.42,0.56
,-9.256,-0.156,-3.331,-9.153,0.034,-3.439,6.72,-14.21,-0.84
,-9.217,-0.172,-3.161,-9.055,-0.108,-3.156,6.09,-14.21,-0.49
,-9.237,-0.019,-3.458,-9.115,-0.311,-3.034,4.69,-14.49,-0.21
16129.0,-9.387,-0.325,-2.74,-9.174,-0.318,-3.448,0.98,-12.32,-1.89
,-9.387,-0.251,-3.101,-9.198,-0.476,-3.501,-0.21,-12.81,-2.59
,-9.371,-0.163,-3.309,-9.124,-0.684,-3.498,-0.98,-13.02,-2.66
,-9.225,-0.321,-3.692,-9.287,-0.012,-3.759,-3.36,-13.02,-2.8
16204.0,-9.265,-0.787,-2.929,-9.323,-0.828,-3.144,-2.87,-12.18,-4.41
,-9.299,-1.055,-2.697,-9.21,-0.804,-3.082,-2.38,-11.69,-3.5
,-9.469,-0.964,-3.065,-9.34,-0.778,-2.682,0.28,-11.2,-2.8
,-9.311,-1.053,-2.943,-9.414,-0.294,-3.053,1.12,-10.71,-2.45
16280.0,-9.541,-0.151,-2.824,-9.39,-0.39,-3.084,6.44,-9.1,-2.45
,-9.361,0.203,-3.12,-9.289,-0.663,-3.18,5.11,-9.8,-3.29
,-9.294,0.491,-3.022,-9.117,-0.957,-2.948,0.84,-9.8,-4.06
,-9.349,-0.151,-2.96,-9.253,-1.132,-2.58,-5.04,-10.08,-5.04
16356.0,-9.447,-0.991,-2.893,-9.165,-0.598,-2.611,-2.31,-7.7,-4.9
,-9.383,-0.759,-2.668,-9.402,-0.548,-2.867,-1.33,-7.56,-4.83
,-9.579,-0.665,-2.659,-9.368,-0.342,-3.451,-1.19,-7.21,-4.48
,-9.426,-0.639,-3.084,-9.344,-0.029,-3.247,-1.96,-6.93,-4.41
16432.0,-9.423,-0.117,-3.635,-9.478,-0.273,-3.496,-3.64,-8.26,-5.81
,-9.342,-0.325,-3.273,-9.495,-0.658,-3.446,-5.25,-8.68,-6.09
,-9.375,-0.56,-3.264,-9.287,-0.629,-3.135,-2.66,-9.03,-6.65
,-9.371,-0.318,-3.269,-9.395,-0.974,-2.56,-1.96,-9.1,-7.21
16507.0,-9.531,-1.07,-3.166,-9.512,-1.235,-2.56,-3.5,-10.92,-7.35
,-9.5,-1.383,-2.534,-9.423,-1.003,-2.568,-2.03,-10.78,-6.51
,-9.45,-1.031,-2.68,-9.509,-0.998,-2.527,0.07,-10.64,-5.95
,-9.567,-1.196,-2.838,-9.531,-0.735,-2.654,0.0,-10.78,-5.46
16583.0,-9.383,-0.715,-2.716,-9.433,-1.031,-1.749,7.35,-9.66,-3.36
,-9.284,-0.426,-2.764,-9.541,-1.113,-1.828,8.47,-9.17,-3.01
,-9.407,-0.995,-2.235,-9.627,-1.0,-2.125,7.7,-9.17,-3.08
,-9.555,-0.95,-2.333,-9.509,-1.003,-2.063,9.31,-9.03,-3.22
16658.0,-9.478,-1.247,-1.843,-9.608,-1.027,-1.953,6.79,-5.95,-2.1
,-9.552,-1.302,-1.799,-9.612,-0.871,-2.077,6.23,-5.18,-2.03
,-9.572,-1.287,-1.902,-9.524,-0.761,-2.233,6.93,-4.41,-1.96
,-9.579,-1.122,-1.881,-9.536,-0.718,-2.204,7.0,-3.43,-1.68
16734.0,-9.505,-0.835,-2.417,-9.713,-0.818,-2.115,2.1,-1.26,-1.47
,-9.418,-0.955,-2.225,-9.643,-0.73,-2.161,1.75,-0.77,-1.19
,-9.447,-0.976,-2.125,-9.598,-0.883,-2.17,3.15,-0.21,-1.12
,-9.665,-0.854,-2.225,-9.454,-0.976,-2.041,4.2,0.07,-1.05
16810.0,-9.526,-1.122,-2.06,-9.636,-1.249,-1.78,2.87,2.1,-0.91
,-9.538,-1.194,-1.998,-9.641,-1.125,-1.869,4.2,2.59,-0.49
,-9.457,-1.22,-1.814,-9.694,-0.986,-2.072,5.18,3.57,-0.07
,-9.586,-1.299,-1.759,-9.765,-0.885,-2.309,5.95,4.55,0.42
16886.0,-9.593,-0.811,-2.556,-9.423,-0.797,-3.07,4.97,7.21,0.63
,-9.457,-0.742,-2.759,-9.433,-0.816,-2.967,3.64,7.0,0.35
,-9.521,-0.732,-2.996,-9.509,-0.797,-2.783,2.73,6.72,0.07
,-9.454,-0.771,-3.132,-9.591,-0.89,-2.697,2.03,6.09,-0.14
16962.0,-9.603,-0.943,-2.592,-9.507,-1.098,-2.544,0.56,4.41,-1.26
,-9.593,-0.912,-2.503,-9.512,-1.072,-2.553,0.42,4.41,-1.33
,-9.605,-0.912,-2.536,-9.543,-0.976,-2.596,0.21,4.13,-1.54
,-9.526,-0.976,-2.548,-9.555,-1.027,-2.62,0.14,4.2,-1.33
17037.0,-9.541,-1.062,-2.654,-9.5,-0.919,-2.967,2.45,4.55,-0.7
,-9.469,-1.129,-2.742,-9.49,-1.031,-2.965,2.8,4.48,-0.63
,-9.505,-1.122,-2.783,-9.435,-1.003,-2.982,3.57,4.27,-0.56
,-9.476,-0.969,-2.924,-9.462,-0.983,-2.927,4.27,3.99,-0.42
17113.0,-9.478,-1.058,-2.869,-9.442,-1.077,-2.536,5.88,2.73,0.21
,-9.435,-1.043,-2.833,-9.596,-1.048,-2.462,5.95,2.38,0.28
,-9.426,-1.031,-2.726,-9.641,-1.067,-2.56,5.53,2.24,0.28
,-9.447,-1.046,-2.675,-9.483,-1.027,-2.637,5.18,2.24,0.14
17189.0,-9.428,-1.077,-2.623,-9.505,-0.928,-2.783,1.96,2.45,0.07
,-9.464,-1.127,-2.618,-9.495,-1.027,-2.776,2.1,2.52,0.14
,-9.505,-1.089,-2.745,-9.464,-1.05,-2.778,2.73,2.38,-0.07
,-9.536,-0.991,-2.797,-9.497,-1.024,-2.812,2.87,2.31,-0.07
17265.0,-9.447,-1.022,-2.852,-9.526,-1.029,-2.737,3.99,1.61,0.28
,-9.471,-0.995,-2.807,-9.529,-0.998,-2.721,4.27,1.54,0.21
,-9.45,-1.012,-2.74,-9.454,-1.0,-2.773,4.13,1.33,0.28
,-9.476,-1.031,-2.694,-9.495,-1.012,-2.783,4.13,1.26,0.28
17340.0,-9.476,-1.022,-2.809,-9.533,-1.046,-2.572,3.22,0.91,0.14
,-9.438,-1.106,-2.709,-9.507,-1.084,-2.548,3.36,0.84,0.0
,-9.529,-1.086,-2.592,-9.521,-1.043,-2.615,3.78,0.98,0.14
,-9.572,-1.055,-2.627,-9.471,-1.048,-2.603,4.13,0.98,0.14
17416.0,-9.442,-1.103,-2.599,-9.572,-1.055,-2.572,3.08,1.47,0.21
,-9.485,-1.117,-2.529,-9.507,-1.113,-2.572,3.29,1.61,0.14
,-9.509,-1.098,-2.546,-9.5,-1.055,-2.615,3.57,1.61,0.21
,-9.536,-1.036,-2.577,-9.529,-1.034,-2.675,3.57,1.75,0.35
17491.0,-9.462,-1.003,-2.692,-9.488,-1.019,-2.637,3.57,1.89,0.49
,-9.509,-1.07,-2.572,-9.538,-1.027,-2.63,3.5,1.96,0.49
,-9.483,-1.101,-2.666,-9.442,-1.022,-2.635,3.5,2.1,0.42
,-9.493,-1.031,-2.635,-9.483,-1.046,-2.709,3.5,2.45,0.56
17567.0,-9.476,-1.022,-2.752,-9.452,-1.055,-2.785,2.8,2.38,0.28
,-9.497,-1.043,-2.747,-9.478,-1.067,-2.659,2.66,2.1,0.21
,-9.485,-1.053,-2.687,-9.488,-1.027,-2.675,2.59,1.96,0.21
,-9.438,-1.103,-2.8,-9.526,-1.034,-2.718,2.52,1.68,0.14
17643.0,-9.49,-1.062,-2.642,-9.493,-1.098,-2.639,1.19,1.61,0.07
,-9.512,-1.094,-2.785,-9.495,-1.084,-2.704,1.05,1.54,0.07
,-9.469,-1.175,-2.726,-9.483,-1.055,-2.592,1.19,1.4,0.14
,-9.462,-1.173,-2.666,-9.524,-1.158,-2.63,1.89,1.82,0.49
17719.0,-9.495,-1.237,-2.704,-9.447,-1.132,-2.871,1.61,1.75,0.77
,-9.488,-1.283,-2.721,-9.428,-1.06,-2.867,1.75,1.82,0.98
,-9.442,-1.273,-2.663,-9.435,-1.06,-2.73,2.38,1.82,1.26
,-9.438,-1.297,-2.718,-9.464,-1.103,-2.675,3.22,1.61,1.33
17795.0,-9.459,-1.12,-2.647,-9.505,-1.225,-2.534,2.66,0.98,1.4
,-9.471,-1.05,-2.668,-9.466,-1.177,-2.546,2.24,0.77,1.19
,-9.464,-1.072,-2.572,-9.474,-1.084,-2.525,1.68,0.91,1.26
,-9.45,-1.096,-2.675,-9.541,-0.928,-2.678,2.1,1.33,1.4
17870.0,-9.55,-0.931,-2.812,-9.605,-1.108,-2.402,1.89,0.21,0.98
,-9.457,-1.005,-2.771,-9.636,-1.141,-2.29,-0.56,-0.28,0.49
,-9.373,-0.938,-2.594,-9.557,-1.141,-2.412,-2.03,-0.42,0.49
,-9.433,-0.763,-2.814,-9.495,-1.196,-2.496,-2.94,-0.49,0.42
17946.0,-9.519,-1.419,-2.204,-9.481,-1.421,-1.905,-6.37,0.84,1.33
,-9.557,-1.347,-2.252,-9.526,-1.208,-2.01,-6.37,1.05,1.47
,-9.512,-1.235,-2.577,-9.545,-1.194,-2.285,-8.4,0.7,1.82
,-9.411,-1.417,-1.804,-9.507,-0.821,-2.601,-8.47,1.75,2.66
18022.0,-9.483,-0.854,-2.443,-9.273,-1.28,-2.51,0.91,5.46,5.81
,-9.466,-1.12,-2.797,-9.73,-0.955,-2.764,-0.14,5.67,6.23
,-9.277,-1.237,-2.91,-9.629,-0.622,-3.197,1.75,6.16,7.0
,-9.227,-1.278,-3.025,-9.519,-0.45,-3.276,4.48,6.3,7.35
18098.0,-9.426,-0.625,-3.534,-9.438,-1.421,-2.749,7.35,3.64,7.7
,-9.148,-1.134,-3.19,-9.552,-0.95,-2.668,5.95,4.06,8.33
,-9.282,-1.527,-2.962,-9.457,-0.603,-3.013,8.96,5.25,9.24
,-9.33,-1.57,-2.776,-9.43,-0.524,-2.546,13.3,6.09,9.52
18173.0,-9.603,-0.402,-2.687,-9.373,-0.479,-2.134,17.08,6.16,9.52
,-9.471,-0.395,-2.769,-9.462,-0.397,-1.823,13.44,5.32,8.47
,-9.395,-0.493,-2.654,-9.679,-0.44,-2.197,11.69,5.74,7.56
,-9.332,-0.412,-2.187,-9.509,-0.337,-2.333,10.99,7.0,6.51
18249.0,-9.739,-0.519,-2.089,-9.22,-0.266,-3.372,1.89,7.77,3.5
,-9.519,-0.596,-2.627,-9.21,-0.577,-3.319,-0.63,7.84,2.45
,-9.488,-0.653,-2.084,-9.072,-0.799,-3.348,0.28,8.54,1.89
,-9.576,-0.373,-2.797,-9.134,-1.206,-2.197,0.14,7.84,0.49
18324.0,-9.514,-1.101,-1.857,-9.524,-0.919,-2.324,6.79,14.63,0.42
,-9.368,-1.12,-2.292,-9.186,-0.988,-2.127,8.61,14.56,0.0
,-9.615,-1.0,-2.072,-9.22,-1.07,-2.355,9.8,14.42,0.7
,-9.765,-0.96,-2.362,-9.103,-1.015,-2.168,8.61,13.37,0.98
18400.0,-9.337,-0.684,-2.651,-9.098,-1.725,-2.68,7.91,15.82,0.35
,-9.349,-0.835,-3.398,-9.474,-1.031,-2.922,4.76,14.35,0.7
,-9.241,-1.589,-3.116,-9.524,-0.773,-3.508,2.59,15.26,1.75
,-9.134,-1.91,-2.862,-9.361,-0.285,-3.893,5.88,17.92,2.66
18476.0,-9.119,-0.261,-3.989,-9.387,-0.986,-3.446,12.39,16.31,2.66
,-9.016,-0.675,-3.623,-9.485,-0.625,-3.738,9.52,18.27,2.52
,-8.954,-1.058,-3.108,-9.344,-0.467,-3.788,9.1,20.23,2.38
,-9.105,-1.156,-3.013,-9.002,-0.794,-3.46,11.9,20.37,1.89
18552.0,-8.971,-0.972,-3.183,-9.16,-0.995,-3.539,5.18,17.43,0.91
,-9.1,-0.885,-3.367,-9.32,-0.962,-3.35,6.58,17.43,0.77
,-9.158,-0.902,-3.455,-9.148,-0.503,-3.613,7.28,17.15,0.84
,-9.268,-0.972,-3.565,-9.332,-0.235,-3.932,6.86,16.66,1.26
18628.0,-9.124,-0.311,-4.197,-9.079,-0.56,-4.08,5.81,11.83,-0.63
,-9.136,-0.574,-4.372,-8.696,-0.962,-4.188,5.04,11.41,-0.77
,-9.304,-0.388,-4.099,-8.815,-0.974,-4.137,4.97,10.99,-1.12
,-9.337,-0.258,-4.334,-8.947,-1.153,-3.711,4.55,10.01,-1.96
18703.0,-9.347,-0.668,-3.939,-8.961,-0.139,-3.991,4.55,11.76,-1.68
,-9.299,-0.637,-3.92,-9.117,0.235,-3.721,5.39,11.41,-2.73
,-9.031,-0.797,-3.843,-8.832,0.136,-4.101,7.84,10.29,-2.94
,-9.239,0.084,-4.197,-8.875,0.134,-4.042,8.75,9.59,-4.76
18779.0,-9.155,-0.45,-3.745,-8.935,-2.824,-3.329,-2.45,10.43,-8.47
,-8.957,-0.907,-3.542,-9.012,-2.826,-3.743,-4.69,9.8,-7.21
,-8.969,-1.476,-3.489,-8.839,-2.938,-3.769,-6.16,11.13,-5.32
,-8.981,-2.199,-3.613,-8.981,-2.206,-3.912,-5.25,11.83,-3.15
18855.0,-8.985,-1.419,-4.176,-8.882,-0.933,-4.468,9.1,13.3,4.41
,-8.887,-1.369,-4.424,-9.083,-1.151,-4.413,12.18,12.11,2.03
,-8.593,-0.44,-4.128,-8.693,-2.728,-2.867,13.79,12.25,-0.56
,-8.949,-0.486,-4.815,-8.911,-1.967,-3.86,11.41,12.88,-0.56
18931.0,-9.304,-1.541,-4.551,-8.792,-2.036,-4.901,11.41,13.86,4.83
,-9.158,-1.989,-4.441,-8.356,-1.864,-5.178,13.23,13.16,6.3
,-9.024,-2.259,-4.659,-8.148,-1.73,-5.109,16.38,11.2,8.54
,-9.107,-2.367,-4.781,-8.5,-1.187,-4.908,18.06,9.94,10.08
19006.0,-9.509,-1.476,-4.389,-8.818,-0.318,-4.513,22.05,7.07,12.67
,-9.433,-1.266,-4.027,-8.947,-0.041,-4.326,19.11,5.81,11.69
,-9.256,-0.409,-4.463,-9.134,0.428,-4.759,19.74,5.46,10.64
,-9.103,-0.514,-4.652,-9.246,0.644,-4.949,17.64,5.39,9.8
19082.0,-9.064,0.431,-4.568,-9.014,-0.857,-4.133,12.32,3.15,3.36
,-8.866,0.067,-4.408,-9.167,-0.665,-4.099,8.26,2.73,2.73
,-8.696,-0.572,-4.374,-9.155,-0.275,-4.022,7.21,2.59,2.24
,-8.873,-0.711,-4.357,-8.976,0.007,-4.365,8.26,3.36,1.47
19157.0,-8.76,0.057,-4.949,-8.926,-0.95,-4.645,8.61,2.17,-4.48
,-8.691,-0.419,-4.551,-8.921,-1.149,-4.623,5.81,1.54,-5.32
,-9.028,-0.768,-4.59,-8.804,-1.56,-4.527,3.36,1.47,-5.95
,-9.048,-1.055,-4.413,-8.887,-2.053,-4.35,4.13,0.63,-5.6
19233.0,-8.916,-2.199,-4.207,-8.897,-2.213,-4.547,4.41,-0.07,-3.57
,-9.033,-1.938,-4.635,-9.038,-2.319,-4.307,7.28,-0.77,-3.22
,-8.854,-1.926,-4.769,-8.978,-2.333,-4.192,8.47,-1.54,-2.03
,-8.811,-2.237,-4.728,-8.626,-1.895,-4.374,8.96,-1.68,-0.42
19309.0,-8.813,-1.653,-4.518,-9.083,-1.022,-4.25,13.51,-3.29,6.3
,-8.729,-1.572,-4.429,-9.141,-0.957,-4.329,12.39,-2.87,6.93
,-8.758,-1.412,-4.35,-9.086,-1.041,-4.044,11.2,-3.08,7.14
,-8.83,-1.127,-4.482,-8.861,-0.914,-4.03,11.41,-3.43,7.28
19385.0,-8.973,-0.727,-3.874,-9.162,-0.285,-4.034,7.98,-2.8,7.0
,-9.811,1.519,-5.851,-9.172,-0.163,-4.145,10.15,-3.08,6.44
,-8.914,0.263,-5.056,-9.229,-0.455,-3.685,10.29,-2.59,5.67
,-8.894,-0.479,-3.934,-8.959,-0.672,-3.754,5.46,-2.38,4.76
19460.0,-8.658,-0.747,-3.754,-9.122,-1.333,-3.955,0.42,-0.91,-0.21
,-8.873,-1.012,-3.733,-9.014,-1.443,-4.08,-1.12,0.07,-0.63
,-9.1,-1.297,-3.743,-8.871,-1.5,-3.802,-1.61,0.77,-0.7
,-9.241,-1.333,-3.829,-8.993,-1.452,-3.912,-0.63,0.98,-0.84
19536.0,-9.043,-1.508,-3.953,-8.859,-1.534,-4.152,0.28,2.38,0.56
,-8.94,-1.673,-4.128,-8.892,-1.429,-4.085,-0.56,1.96,1.47
,-8.906,-1.788,-4.13,-8.832,-1.134,-4.336,-0.91,2.24,2.45
,-8.88,-1.73,-4.166,-9.141,-0.838,-4.542,-0.49,2.73,3.01
19612.0,-9.237,-0.799,-4.279,-8.976,-0.907,-4.104,-2.03,2.66,2.87
,-9.016,-0.634,-4.324,-9.105,-0.876,-4.401,-3.36,2.17,2.8
,-8.873,-0.828,-4.372,-9.146,-0.857,-4.439,-5.88,2.17,3.22
,-8.882,-1.077,-4.197,-9.186,-0.878,-4.41,-7.91,2.94,3.22
19688.0,-9.237,-0.905,-4.25,-9.067,-0.282,-4.439,-9.52,2.52,1.61
,-9.0,-0.663,-4.357,-9.014,-0.687,-4.07,-9.45,2.24,0.91
,-9.062,-0.634,-4.281,-8.818,-1.019,-4.257,-10.64,2.45,0.07
,-8.854,-0.199,-4.42,-8.851,-1.156,-4.432,-11.41,2.52,-1.12
19764.0,-8.818,-1.027,-4.472,-8.899,-1.421,-4.13,-15.4,2.52,-0.42
,-9.143,-1.015,-4.673,-9.136,-1.345,-4.338,-14.84,1.82,-0.7
,-8.935,-1.096,-4.365,-8.985,-1.469,-4.257,-15.82,1.68,-0.49
,-9.083,-1.405,-4.36,-9.16,-1.24,-4.372,-16.1,1.61,0.0
19839.0,-9.177,-0.981,-4.523,-8.866,-1.01,-4.336,-16.38,0.84,2.52
,-8.394,-1.563,-4.204,-9.072,-1.251,-4.36,-17.01,-0.21,2.24
,-8.849,-0.955,-4.487,-8.521,-1.838,-4.135,-15.89,-0.7,1.96
,-8.892,-0.909,-4.381,-9.15,-1.24,-4.011,-14.42,-1.4,2.45
19915.0,-9.083,-0.747,-4.544,-8.89,-0.436,-4.257,-13.86,-2.87,3.71
,-9.007,-0.656,-4.195,-8.863,-0.369,-3.888,-12.46,-3.36,2.8
,-9.021,-0.005,-4.671,-9.081,-0.665,-3.92,-11.76,-3.85,1.96
,-8.89,-0.28,-4.472,-9.088,-0.747,-3.764,-13.23,-4.76,1.68
19990.0,-8.933,-0.51,-3.884,-8.988,-0.364,-4.176,-10.22,-4.62,0.42
,-9.043,-0.452,-4.022,-9.045,-0.732,-3.999,-10.08,-4.06,0.49
,-8.945,-0.251,-4.245,-8.918,-0.622,-4.032,-9.45,-3.29,0.7
,-9.021,-0.333,-4.214,-8.935,-0.94,-3.58,-8.19,-2.52,0.56
20066.0,-8.959,-0.646,-3.762,-8.921,-0.369,-4.245,-0.77,0.0,0.98
,-9.016,-0.663,-3.975,-8.995,-0.211,-3.934,0.35,0.63,0.98
,-9.057,-0.696,-3.891,-8.854,-0.294,-3.987,1.12,0.35,1.12
,-9.0,-0.699,-3.877,-8.89,-0.12,-4.07,0.14,-0.56,1.19
20142.0,-9.021,-0.361,-3.951,-9.103,-0.632,-4.123,-4.62,-4.13,-1.19
,-9.057,-0.692,-3.862,-8.981,-0.651,-4.049,-5.74,-3.64,-1.89
,-8.993,-0.421,-4.013,-9.062,-0.462,-4.274,-5.25,-3.15,-1.47
,-8.945,-0.407,-4.396,-9.05,-0.464,-4.054,-3.64,-2.17,-1.05
20218.0,-9.038,-0.546,-4.152,-8.897,-0.873,-4.468,-1.19,-1.05,-1.26
,-9.074,-0.675,-4.271,-9.275,-0.972,-4.283,-1.82,-1.75,-1.26
,-8.993,-0.857,-4.365,-9.062,-0.653,-4.396,-1.68,-1.68,-0.98
,-8.988,-0.893,-4.453,-8.914,-0.617,-4.216,-0.28,-1.26,-0.77
20293.0,-8.981,-0.558,-4.101,-9.002,-0.876,-4.001,-3.01,-9.38,-1.68
,-9.016,-0.706,-4.168,-9.031,-0.938,-3.924,-4.2,-9.59,-1.26
,-9.136,-0.83,-3.977,-8.923,-1.098,-3.884,-3.92,-9.38,-1.19
,-9.074,-0.852,-3.9,-9.072,-1.074,-3.711,-2.66,-9.38,-1.12
20369.0,-9.335,-0.871,-3.692,-8.966,-0.445,-3.683,3.43,-10.57,0.35
,-9.189,-0.541,-3.601,-9.1,-0.68,-3.238,2.38,-12.32,-0.35
,-9.189,-0.333,-3.565,-9.079,-0.704,-3.336,0.63,-13.3,-0.63
,-9.028,-0.237,-3.644,-9.15,-0.476,-3.269,-0.98,-14.21,-1.19
20445.0,-9.282,-0.436,-3.137,-9.177,-0.287,-3.522,0.63,-9.8,-2.03
,-9.246,-0.392,-3.065,-8.756,-1.747,-3.297,0.35,-9.17,-2.31
,-9.328,-0.235,-3.056,-9.256,-0.462,-3.508,0.21,-8.54,-2.17
,-9.263,-0.237,-3.398,-9.091,-0.586,-3.766,-1.54,-9.17,-2.87
20521.0,-9.22,-0.715,-3.175,-9.311,-0.902,-3.185,-2.52,-7.98,-3.99
,-9.201,-0.536,-3.077,-9.251,-0.857,-3.683,-0.42,-7.77,-4.55
,-9.313,-0.648,-3.101,-9.239,-0.787,-3.266,-1.12,-7.7,-4.13
,-9.239,-0.895,-3.479,-9.268,-0.936,-3.463,-2.94,-7.98,-3.92
20597.0,-9.287,-0.826,-3.245,-9.32,-0.548,-3.218,1.26,-7.21,-2.52
,-9.447,0.337,-4.156,-9.184,-0.747,-2.924,6.65,-8.12,-3.92
,-9.308,-0.51,-3.599,-9.44,-0.62,-2.52,1.19,-9.38,-4.2
,-9.203,-0.553,-3.376,-9.399,-0.622,-2.917,-2.1,-9.38,-3.78
20672.0,-9.387,-0.505,-3.008,-9.246,-0.694,-3.589,0.91,-6.3,-4.13
,-9.328,-0.237,-3.525,-9.308,-0.727,-3.247,0.0,-6.51,-4.34
,-9.414,0.074,-3.496,-9.356,-0.759,-3.582,-5.11,-6.51,-5.11
,-9.289,-0.275,-3.743,-9.397,-0.763,-3.3,-2.38,-6.58,-5.18
20748.0,-9.351,-0.589,-3.69,-9.158,-0.771,-3.704,-1.47,-8.75,-5.6
,-9.318,-0.593,-3.314,-9.194,-1.194,-3.044,-1.54,-8.47,-5.6
,-9.404,-0.787,-3.69,-9.416,-0.852,-3.266,-2.24,-8.68,-5.46
,-9.373,-1.062,-3.386,-9.198,-1.888,-3.326,-1.54,-8.4,-4.9
20823.0,-9.311,-0.38,-3.113,-9.387,-0.421,-3.348,11.27,-6.79,-3.85
,-9.363,-0.68,-3.238,-9.428,-0.701,-3.104,11.13,-6.72,-2.94
,-9.399,-0.845,-3.108,-9.433,-0.653,-3.266,13.09,-6.44,-1.89
,-9.476,-0.885,-3.125,-9.407,-0.885,-2.927,16.1,-6.23,-1.54
20899.0,-9.198,-0.83,-2.316,-9.813,-0.457,-3.252,16.87,-6.09,-1.82
,-9.378,-0.766,-2.479,-9.497,-0.512,-3.25,18.06,-5.39,-1.33
,-9.636,-1.041,-1.977,-9.229,-0.849,-3.113,16.31,-5.11,-1.75
,-9.947,-0.907,-2.407,-8.945,-0.83,-2.982,15.19,-5.67,-2.31
20975.0,-9.086,-1.146,-2.778,-9.552,-1.06,-2.218,10.43,-5.39,-3.5
,-9.502,-1.103,-2.639,-9.423,-1.199,-2.417,12.67,-5.25,-3.36
,-9.634,-0.931,-2.783,-9.251,-1.28,-2.264,12.67,-5.46,-3.22
,-9.684,-0.926,-2.453,-9.234,-1.184,-2.302,10.71,-5.32,-2.87
21051.0,-9.277,-1.232,-2.012,-9.445,-1.251,-2.34,8.61,-2.73,-2.31
,-9.464,-1.354,-1.922,-9.368,-1.137,-2.493,6.79,-2.1,-2.24
,-9.562,-1.302,-2.228,-9.387,-1.043,-2.67,6.3,-1.75,-2.03
,-9.507,-1.194,-2.343,-9.469,-1.007,-2.831,6.16,-1.68,-2.1
21126.0,-9.411,-1.012,-2.891,-9.474,-1.175,-2.568,3.08,-0.77,-2.52
,-9.337,-1.046,-2.659,-9.483,-1.204,-2.594,2.17,-0.77,-2.45
,-9.414,-1.137,-2.606,-9.435,-1.338,-2.491,1.96,-0.63,-2.31
,-9.466,-1.18,-2.716,-9.361,-1.464,-2.367,1.47,-0.77,-2.45
21202.0,-9.457,-1.464,-2.28,-9.552,-1.242,-2.237,3.36,0.98,-0.77
,-9.572,-1.326,-2.359,-9.641,-1.113,-2.501,4.34,1.26,-0.42
,-9.509,-1.254,-2.371,-9.557,-1.115,-2.769,4.62,1.61,-0.21
,-9.447,-1.29,-2.209,-9.454,-1.077,-2.893,4.27,2.66,0.42
21277.0,-9.445,-1.158,-3.137,-9.454,-1.184,-2.733,2.1,2.94,1.05
,-9.344,-1.228,-3.18,-9.478,-1.117,-2.577,3.08,2.73,1.05
,-9.296,-1.204,-3.084,-9.526,-1.132,-2.458,3.99,2.45,1.19
,-9.373,-1.247,-2.991,-9.581,-1.11,-2.489,4.97,2.1,1.33
21353.0,-9.524,-1.22,-2.527,-9.34,-1.096,-2.654,4.76,2.66,1.61
,-9.483,-1.18,-2.51,-9.404,-1.098,-2.505,4.34,2.73,1.75
,-9.452,-1.213,-2.623,-9.509,-1.098,-2.558,4.55,3.15,1.75
,-9.471,-1.163,-2.697,-9.641,-1.005,-2.816,4.55,3.22,1.68
21429.0,-9.521,-1.017,-2.793,-9.397,-1.072,-2.891,1.47,3.36,1.33
,-9.457,-1.091,-2.8,-9.529,-1.05,-2.936,0.77,3.36,1.26
,-9.43,-1.115,-2.998,-9.55,-1.048,-2.962,0.91,3.01,0.98
,-9.409,-1.027,-2.938,-9.474,-1.048,-2.941,1.54,3.08,0.84
21505.0,-9.371,-1.086,-2.831,-9.462,-1.015,-2.675,0.7,2.17,0.63
,-9.375,-1.125,-2.697,-9.464,-1.187,-2.565,1.4,2.24,0.42
,-9.474,-1.091,-2.682,-9.497,-1.201,-2.58,2.1,2.24,0.42
,-9.483,-0.993,-2.802,-9.469,-1.115,-2.771,2.24,2.1,0.28
21581.0,-9.483,-1.01,-2.86,-9.445,-1.108,-2.836,1.4,2.38,0.14
,-9.409,-1.077,-2.86,-9.495,-1.168,-2.862,0.49,2.38,0.28
,-9.395,-1.184,-2.876,-9.44,-1.129,-2.809,0.42,2.31,0.21
,-9.423,-1.201,-2.967,-9.445,-1.101,-2.807,1.19,2.17,0.28
21656.0,-9.452,-1.086,-2.871,-9.466,-1.194,-2.728,2.73,1.89,0.63
,-9.409,-1.134,-2.97,-9.488,-1.127,-2.575,2.31,1.68,0.63
,-9.414,-1.177,-2.86,-9.517,-1.125,-2.63,2.24,2.03,0.7
,-9.404,-1.208,-2.759,-9.567,-1.05,-2.625,2.59,2.17,0.7
21732.0,-9.505,-1.06,-2.682,-9.416,-1.184,-2.929,0.28,2.94,0.35
,-9.454,-1.17,-2.79,-9.464,-1.125,-2.943,-0.49,2.94,0.28
,-9.416,-1.177,-2.821,-9.426,-1.084,-2.996,-0.56,3.08,0.42
,-9.438,-1.139,-2.848,-9.39,-1.012,-3.051,-0.21,3.08,0.49
21808.0,-9.426,-1.07,-3.053,-9.438,-1.11,-3.01,1.12,2.59,0.63
,-9.445,-1.082,-3.092,-9.421,-1.072,-2.943,0.98,2.24,0.42
,-9.399,-1.125,-3.005,-9.442,-1.074,-2.965,1.12,1.96,0.42
,-9.378,-1.067,-3.013,-9.459,-1.015,-2.994,1.54,1.75,0.28
21884.0,-9.371,-1.043,-2.958,-9.45,-1.129,-2.927,2.1,0.84,0.28
,-9.402,-1.084,-2.996,-9.428,-1.173,-2.883,1.82,0.7,0.28
,-9.418,-1.103,-2.946,-9.452,-1.177,-2.828,1.96,0.49,0.28
,-9.414,-1.17,-2.938,-9.45,-1.192,-2.874,2.03,0.49,0.28
21959.0,-9.445,-1.108,-2.848,-9.45,-1.168,-2.769,4.55,0.42,0.98
,-9.399,-1.156,-2.843,-9.438,-1.201,-2.685,4.62,0.35,0.98
,-9.399,-1.108,-2.754,-9.407,-1.225,-2.726,4.48,0.28,1.05
,-9.44,-1.151,-2.807,-9.481,-1.177,-2.666,4.34,0.56,0.91
22035.0,-9.438,-1.132,-2.673,-9.404,-1.199,-2.742,4.34,0.84,0.98
,-9.476,-1.048,-2.706,-9.471,-1.208,-2.716,4.13,0.98,0.98
,-9.466,-1.015,-2.754,-9.478,-1.158,-2.764,3.43,1.12,0.98
,-9.433,-1.041,-2.673,-9.5,-1.175,-2.728,3.01,1.26,0.84
22110.0,-9.462,-1.129,-2.694,-9.476,-1.113,-2.998,3.15,1.75,1.05
,-9.452,-1.091,-2.85,-9.385,-1.139,-2.95,3.01,1.89,1.05
,-9.447,-1.091,-2.907,-9.433,-1.134,-2.986,2.87,1.61,0.91
,-9.407,-1.091,-3.003,-9.471,-1.108,-2.907,2.87,1.54,0.98
22186.0,-9.454,-1.043,-2.881,-9.483,-1.17,-2.706,3.57,0.91,0.91
,-9.481,-1.146,-2.998,-9.452,-1.201,-2.682,2.8,0.77,0.77
,-9.493,-1.117,-2.845,-9.457,-1.151,-2.632,3.15,0.7,0.84
,-9.454,-1.149,-2.747,-9.44,-1.194,-2.548,3.43,0.98,0.98
22262.0,-9.404,-1.106,-2.62,-9.435,-1.139,-2.544,2.59,1.68,0.91
,-9.474,-1.11,-2.587,-9.39,-1.125,-2.539,2.24,1.96,0.91
,-9.464,-1.079,-2.63,-9.423,-1.122,-2.532,1.47,2.24,0.91
,-9.426,-1.05,-2.639,-9.474,-1.199,-2.383,0.84,2.66,0.84
22338.0,-9.493,-1.163,-2.352,-9.543,-1.24,-2.625,-1.33,4.97,1.05
,-9.471,-1.175,-2.505,-9.45,-1.151,-2.764,-1.82,5.32,0.98
,-9.373,-1.134,-2.441,-9.404,-1.098,-2.771,-2.24,5.74,1.05
,-9.414,-1.22,-2.374,-9.351,-0.995,-3.02,-2.17,6.3,1.33
22414.0,-9.27,-1.074,-3.068,-9.502,-1.292,-3.104,-3.71,5.95,0.91
,-9.198,-0.89,-3.319,-9.359,-1.122,-3.178,-2.59,6.3,1.33
,-9.325,-1.201,-2.967,-9.418,-1.086,-2.977,-1.4,6.09,1.54
,-9.404,-1.283,-2.694,-9.418,-1.24,-2.843,0.35,5.74,1.82
22489.0,-9.483,-0.998,-3.168,-9.335,-1.266,-2.838,3.57,4.06,2.03
,-9.543,-0.96,-3.123,-9.368,-1.338,-2.618,1.75,3.64,2.1
,-9.43,-1.074,-2.915,-9.49,-1.259,-2.371,-0.84,3.29,2.38
,-9.392,-1.137,-2.9,-9.627,-1.091,-2.84,-1.05,3.43,2.8
22565.0,-9.45,-0.986,-3.202,-9.196,-1.24,-3.001,6.58,5.95,5.04
,-9.323,-0.833,-3.357,-9.284,-1.28,-2.943,5.88,5.88,5.25
,-9.318,-0.876,-3.41,-9.306,-1.182,-2.694,5.25,5.53,5.46
,-9.251,-1.024,-3.362,-9.445,-0.967,-2.599,4.76,5.32,5.46
22641.0,-9.5,-0.811,-2.804,-9.182,-1.141,-3.29,6.51,5.88,5.67
,-9.526,-0.816,-2.776,-9.112,-1.17,-3.549,3.99,6.44,5.81
,-9.493,-0.986,-2.996,-9.005,-1.132,-3.374,1.47,7.07,6.09
,-9.342,-0.986,-3.199,-9.148,-0.916,-2.974,0.56,7.56,6.23
22717.0,-9.385,-0.756,-3.128,-9.098,-1.213,-2.615,2.45,5.32,4.69
,-9.421,-1.005,-3.123,-9.258,-1.259,-2.319,-0.21,4.13,4.06
,-9.44,-1.072,-2.962,-9.435,-0.981,-2.556,-1.05,4.2,4.41
,-9.232,-1.108,-2.812,-9.311,-0.699,-2.965,-0.56,4.83,4.27
22792.0,-9.373,-0.771,-3.451,-9.471,-0.493,-2.828,10.15,7.91,5.39
,-9.119,-1.096,-3.731,-9.641,0.045,-2.793,9.38,7.63,5.81
,-9.028,-1.043,-3.4,-9.694,0.256,-3.293,12.11,8.4,6.16
,-9.15,-0.713,-3.022,-9.344,0.072,-3.412,17.01,9.87,5.67
22868.0,-9.311,-0.67,-3.015,-9.351,-1.754,-3.585,0.28,6.93,0.98
,-9.249,-1.058,-3.001,-9.136,-2.003,-3.642,-1.96,7.56,0.49
,-9.239,-1.419,-2.819,-9.024,-2.115,-3.343,-0.63,8.05,0.49
,-9.383,-1.601,-3.278,-9.148,-2.228,-2.539,0.49,7.0,0.56
22943.0,-9.301,-1.67,-2.862,-9.246,-0.574,-3.534,10.64,8.75,4.62
,-9.387,-1.35,-3.242,-9.383,-0.206,-3.137,14.63,7.49,5.46
,-9.409,-0.931,-3.537,-9.186,-0.536,-3.029,15.54,6.16,5.88
,-9.363,-0.622,-3.774,-9.057,-0.905,-2.855,14.35,5.81,6.02
23019.0,-9.323,-1.189,-2.795,-9.28,-0.433,-3.075,9.8,9.03,6.16
,-9.43,-1.237,-2.86,-9.335,-0.455,-3.223,10.22,8.82,6.44
,-9.239,-1.043,-2.874,-9.215,-0.297,-3.439,10.64,9.45,6.02
,-9.313,-0.699,-2.979,-9.241,-0.194,-3.405,11.48,10.57,5.18
23095.0,-9.098,0.134,-3.558,-9.258,0.096,-3.75,8.33,9.52,0.98
,-9.162,0.328,-3.424,-9.418,-0.498,-3.25,6.51,9.87,-0.98
,-9.273,0.567,-3.57,-9.253,-0.835,-3.216,4.97,9.66,-2.52
,-9.234,0.38,-3.757,-9.289,-1.031,-3.218,2.52,9.31,-3.64
23171.0,-9.11,-1.218,-3.446,-9.11,-0.799,-3.29,-4.9,7.28,-4.97
,-8.921,-1.249,-3.723,-9.019,-0.888,-3.41,-2.38,7.91,-4.9
,-9.076,-0.933,-3.786,-9.15,-0.94,-3.3,0.77,9.31,-5.39
,-9.007,-1.0,-3.558,-9.172,-1.031,-3.314,1.61,11.41,-5.6
23247.0,-9.06,-1.127,-3.656,-8.964,-1.608,-3.527,5.11,14.77,-5.6
,-9.052,-1.263,-3.489,-9.031,-1.311,-3.86,5.74,15.96,-4.62
,-9.232,-1.184,-3.774,-8.677,-1.263,-3.972,7.77,16.38,-3.71
,-9.095,-1.484,-3.963,-8.753,-1.622,-3.905,8.75,15.68,-2.38
23322.0,-8.885,-1.426,-4.147,-9.452,-1.893,-4.063,8.96,14.0,0.49
,-9.005,-1.522,-3.68,-9.299,-1.472,-4.379,8.54,13.86,1.54
,-9.134,-1.685,-4.101,-8.916,-1.464,-4.566,9.38,14.98,2.45
,-9.234,-1.917,-4.027,-8.681,-1.476,-4.307,10.36,14.35,3.78
23398.0,-9.033,-1.275,-4.592,-9.15,-0.919,-4.547,13.93,10.01,6.79
,-9.014,-1.127,-4.379,-9.112,-0.244,-4.331,13.23,9.87,6.72
,-9.012,-0.972,-4.362,-8.973,-0.57,-4.563,13.58,10.15,6.44
,-9.263,-0.189,-4.202,-9.067,-0.476,-5.188,13.72,9.24,6.02
23474.0,-8.813,-1.012,-4.48,-9.237,-1.862,-4.173,0.56,7.77,5.67
,-8.758,-1.476,-4.484,-9.244,-1.596,-4.185,6.37,6.65,4.34
,-9.036,-1.522,-4.582,-9.294,-1.175,-4.166,9.73,5.53,5.11
,-9.399,-1.701,-4.633,-9.088,-0.55,-4.381,11.62,5.95,5.88
23550.0,-8.954,-0.316,-4.59,-8.67,-0.897,-4.606,12.95,0.63,4.48
,-8.916,-0.096,-5.14,-9.014,-1.173,-4.616,11.97,0.7,2.59
,-8.971,-0.28,-5.128,-8.894,-1.412,-4.154,9.31,0.21,2.1
,-8.811,-0.531,-5.152,-10.345,0.531,-4.719,7.63,-0.49,2.52
23625.0,-9.005,-1.811,-3.817,-9.093,0.036,-3.857,5.11,-0.21,6.72
,-8.078,-2.915,-3.336,-9.033,0.455,-4.204,-21.21,-1.96,13.23
,-9.081,-1.84,-2.812,-8.823,0.603,-4.582,-7.21,0.98,6.72
,-8.983,-0.723,-3.506,-8.693,0.017,-4.362,8.89,1.82,2.87
23701.0,-8.957,-0.462,-4.111,-9.454,-1.156,-3.848,5.18,4.27,0.84
,-8.868,-1.84,-2.869,-8.859,-2.058,-2.802,5.18,4.83,1.68
,-9.73,-1.06,-3.824,-9.057,-1.263,-4.506,8.33,3.99,2.17
,-9.5,-0.976,-3.668,-7.128,-0.153,-5.698,9.38,3.92,1.4
23776.0,-10.426,-1.129,-4.384,-8.655,-1.91,-4.48,-32.27,7.14,5.18
,-8.911,-1.749,-3.293,-8.665,-2.84,-4.267,-6.93,5.32,-1.47
,-9.241,-0.476,-4.786,-9.016,-2.63,-4.532,6.72,3.15,-1.33
,-8.947,-1.036,-4.75,-8.93,-2.45,-4.238,4.62,1.75,-0.49
23852.0,-9.043,-1.986,-4.398,-8.746,-0.426,-4.482,11.13,-0.28,6.93
,-8.973,-1.749,-4.408,-8.983,-0.117,-4.537,12.25,-0.14,7.35
,-8.923,-1.429,-4.221,-9.038,-0.251,-4.353,14.63,-0.56,7.63
,-9.139,-0.852,-4.171,-9.244,-0.359,-4.121,15.61,-1.82,7.42
23928.0,-9.124,-0.584,-4.197,-8.961,-0.656,-4.089,5.67,-3.29,4.48
,-9.043,-0.787,-4.152,-8.818,-0.802,-3.932,6.09,-3.64,4.27
,-9.021,-0.689,-4.123,-8.945,-0.481,-3.888,6.86,-3.64,4.13
,-9.091,-0.744,-4.312,-9.016,-0.227,-4.02,6.16,-3.43,4.2
24004.0,-9.222,-0.29,-3.987,-9.215,-1.299,-3.812,1.61,-2.94,2.38
,-9.038,-0.634,-3.967,-9.076,-1.496,-3.798,-1.61,-2.66,1.26
,-9.043,-1.034,-3.845,-8.854,-1.567,-3.733,-2.38,-2.1,0.42
,-9.143,-1.228,-3.824,-8.717,-1.632,-3.841,-1.33,-2.03,0.0
24080.0,-8.978,-1.749,-3.632,-9.282,-0.919,-3.75,-0.63,0.56,3.92
,-9.002,-1.677,-3.496,-9.005,-0.668,-3.955,0.77,0.91,4.55
,-9.232,-1.484,-3.525,-8.837,-0.696,-4.078,2.38,1.26,4.69
,-9.39,-1.199,-3.728,-8.93,-0.864,-3.877,3.36,1.33,4.62
24155.0,-9.119,-1.007,-3.647,-8.988,-0.447,-4.018,0.28,3.15,4.83
,-9.229,-0.823,-3.783,-8.969,-0.51,-4.082,2.03,2.87,4.97
,-9.141,-0.605,-4.006,-9.057,-0.701,-4.089,2.31,2.94,4.69
,-9.134,-0.416,-4.094,-9.009,-1.041,-3.762,1.89,2.94,4.27
24231.0,-9.033,-1.053,-3.563,-8.949,-0.168,-4.288,-1.75,4.83,3.43
,-8.988,-0.905,-3.927,-9.179,-0.237,-4.348,-0.42,5.32,3.22
,-9.064,-0.629,-3.955,-9.385,-0.696,-3.951,0.21,6.02,2.73
,-9.112,-0.349,-4.109,-9.119,-0.632,-4.011,-0.21,6.09,2.24
24307.0,-9.139,-0.347,-4.221,-9.072,-0.627,-4.326,-6.23,6.37,-1.47
,-8.961,-0.062,-4.322,-9.359,-0.979,-4.314,-6.09,7.49,-2.8
,-9.045,-0.292,-4.637,-9.112,-0.689,-4.649,-7.63,6.3,-3.15
,-9.052,-0.505,-4.341,-9.072,-1.003,-4.547,-9.52,6.44,-3.15
24383.0,-9.117,-0.912,-4.776,-8.926,-1.201,-4.379,-7.21,3.85,-2.59
,-9.139,-1.029,-4.293,-8.966,-1.29,-4.422,-8.12,3.57,-2.24
,-9.213,-0.785,-4.31,-9.062,-1.33,-4.348,-8.12,3.15,-2.45
,-8.88,-0.945,-4.396,-9.083,-1.213,-4.279,-8.89,2.59,-1.89
24458.0,-9.098,-1.019,-4.36,-9.182,-0.648,-4.07,-7.28,2.17,1.4
,-8.904,-0.866,-4.487,-8.973,-0.538,-4.329,-5.39,2.17,0.91
,-9.05,-0.558,-4.271,-8.748,-0.888,-4.585,-5.95,1.96,0.77
,-9.208,-0.34,-4.322,-8.796,-1.115,-4.338,-7.0,2.38,0.28
24534.0,-8.993,-0.907,-4.393,-9.115,0.038,-4.384,-8.89,1.68,2.66
,-9.026,-0.62,-4.204,-9.177,-0.074,-3.697,-6.58,0.63,1.89
,-9.182,-0.261,-4.283,-8.981,-0.565,-3.853,-5.32,-0.21,0.77
,-9.227,-0.227,-4.343,-8.983,-0.189,-4.006,-6.02,-0.63,0.42
24609.0,-9.055,-0.124,-4.058,-8.923,-0.218,-3.862,-9.59,-0.7,-2.87
,-9.091,0.23,-3.989,-8.99,-0.424,-3.845,-8.68,-1.26,-3.85
,-9.122,-0.112,-3.929,-8.952,-0.613,-3.719,-11.9,-1.4,-4.34
,-8.854,-0.306,-3.601,-8.894,-0.639,-3.776,-12.88,-1.19,-4.34
24685.0,-8.624,-1.005,-3.778,-9.246,-0.881,-4.341,-8.26,-0.21,-3.92
,-8.782,-0.89,-4.226,-9.129,-0.861,-4.379,-5.88,0.0,-3.36
,-9.16,-0.907,-4.219,-8.804,-1.043,-4.513,-4.13,0.63,-2.8
,-9.186,-1.043,-4.281,-8.758,-1.625,-3.958,-2.03,-0.07,-2.45
24761.0,-9.122,-0.763,-4.767,-8.976,-1.261,-4.575,3.71,2.94,-3.08
,-9.129,-0.871,-4.755,-8.866,-1.383,-4.697,0.63,1.96,-2.94
,-9.048,-0.754,-4.85,-9.024,-1.713,-4.357,-1.68,0.14,-2.87
,-9.136,-0.809,-4.824,-8.899,-1.457,-4.487,-3.78,-2.24,-1.75
24837.0,-9.122,-1.591,-4.377,-8.926,-0.852,-4.35,-1.75,-5.18,1.68
,-8.971,-1.151,-4.489,-9.009,-0.663,-4.185,1.4,-4.69,2.03
,-8.945,-1.318,-4.228,-9.088,-0.457,-4.087,1.33,-3.5,3.36
,-8.947,-0.981,-4.324,-8.981,-0.524,-4.094,4.13,-1.68,4.27
24912.0,-9.021,-0.581,-4.118,-8.942,0.179,-3.991,5.32,-4.83,5.95
,-9.086,-0.323,-4.14,-8.923,0.11,-3.965,5.04,-5.81,6.02
,-9.026,-0.163,-4.111,-8.983,0.0,-3.917,5.46,-6.93,5.32
,-8.985,-0.093,-4.085,-9.194,-0.136,-3.862,5.04,-7.21,4.62
24988.0,-9.32,-0.187,-3.924,-8.959,-0.452,-3.833,-1.61,-9.31,0.35
,-9.098,-0.12,-3.908,-9.016,-0.648,-3.733,-1.54,-9.24,-0.28
,-9.05,-0.182,-3.79,-8.981,-0.857,-3.391,-1.89,-9.17,-0.77
,-8.983,-0.395,-3.788,-9.069,-0.665,-3.666,-2.17,-9.17,-1.12
25064.0,-9.11,-1.06,-3.482,-9.201,-0.57,-3.745,1.61,-7.28,-1.19
,-9.22,-0.799,-3.551,-9.131,-0.689,-3.64,3.43,-7.42,-0.98
,-9.239,-0.55,-3.654,-9.045,-0.629,-3.927,5.04,-7.21,-0.77
,-9.21,-0.558,-3.702,-8.945,-0.603,-3.762,4.83,-7.35,-0.35
25140.0,-9.06,-0.639,-3.515,-9.22,-0.311,-3.412,5.25,-8.33,-1.05
,-9.234,-0.445,-3.542,-9.208,-0.495,-3.195,6.93,-8.33,-1.4
,-9.141,-0.27,-3.613,-9.237,-0.637,-3.101,5.74,-8.61,-2.03
,-9.16,-0.639,-3.412,-9.27,-0.857,-3.319,3.71,-8.68,-2.38
25216.0,-9.261,-1.015,-3.448,-9.287,-0.615,-3.862,-2.03,-8.61,-3.71
,-9.249,-1.055,-3.721,-9.091,-0.737,-3.676,-1.12,-8.68,-3.08
,-9.251,-0.883,-3.719,-9.093,-0.675,-3.752,1.05,-8.47,-2.59
,-9.287,-0.759,-3.649,-9.189,-0.84,-3.479,2.8,-8.12,-2.17
25291.0,-9.359,-0.814,-3.451,-9.335,-0.634,-2.972,2.59,-9.24,-2.03
,-9.306,-0.878,-3.508,-9.375,-0.534,-3.228,3.85,-8.82,-2.24
,-9.268,-0.794,-2.955,-9.445,-0.637,-3.467,5.74,-7.7,-2.1
,-9.308,-0.849,-2.778,-9.227,-0.369,-3.47,6.51,-7.35,-2.1
25367.0,-9.206,-0.601,-3.206,-9.423,-0.373,-3.154,2.45,-7.49,-2.1
,-9.263,-0.701,-3.216,-9.385,-0.574,-3.135,3.85,-7.07,-2.73
,-9.146,-0.385,-2.8,-9.363,-0.759,-2.852,5.67,-6.93,-3.92
,-9.325,-0.266,-3.199,-9.313,-0.828,-2.977,3.5,-7.56,-4.83
25442.0,-9.091,-0.735,-3.293,-9.182,-0.828,-3.173,0.28,-6.58,-5.74
,-9.27,-0.914,-3.242,-9.368,-0.682,-3.652,-0.21,-6.86,-5.46
,-9.378,-0.866,-3.348,-9.344,-0.993,-3.396,1.12,-6.79,-4.97
,-9.363,-1.041,-3.221,-9.165,-0.715,-3.408,1.89,-6.65,-4.9
25518.0,-9.237,-0.816,-3.403,-9.306,-0.859,-3.039,3.29,-7.7,-4.69
,-9.423,-0.852,-3.58,-9.354,-0.933,-3.082,5.25,-7.98,-4.62
,-9.572,-1.091,-3.475,-8.988,-2.414,-2.668,6.79,-8.33,-4.62
,-9.27,-0.704,-3.448,-9.677,0.084,-2.692,8.82,-8.68,-4.83
25594.0,-9.624,-0.701,-3.324,-9.294,-1.098,-2.611,13.51,-8.82,-6.79
,-9.407,-0.651,-2.888,-9.323,-1.192,-2.654,8.54,-8.75,-6.37
,-9.354,-0.629,-3.037,-9.399,-1.321,-2.355,4.9,-8.82,-6.86
,-9.325,-0.909,-2.852,-9.49,-1.117,-2.666,2.17,-8.33,-6.86
25670.0,-9.533,-1.151,-2.584,-9.351,-1.259,-2.541,2.87,-7.0,-5.25
,-9.485,-1.28,-2.63,-9.404,-1.204,-2.424,2.87,-6.58,-4.41
,-9.261,-1.261,-2.666,-9.514,-1.273,-2.24,4.97,-6.3,-3.99
,-9.232,-1.187,-2.673,-9.572,-1.043,-2.446,6.58,-5.95,-3.64
25745.0,-9.6,-1.041,-2.716,-9.438,-1.393,-2.309,6.86,-4.62,-3.01
,-9.397,-1.228,-2.584,-9.579,-1.33,-2.125,4.48,-4.55,-2.87
,-9.275,-1.304,-2.551,-9.682,-1.072,-2.345,4.34,-3.99,-2.52
,-9.313,-1.546,-2.278,-9.533,-1.108,-2.383,5.88,-3.22,-1.96
25821.0,-9.397,-1.072,-2.692,-9.471,-1.335,-2.46,7.28,-1.54,-0.84
,-9.301,-1.23,-2.718,-9.481,-1.208,-2.17,6.16,-1.33,-0.63
,-9.287,-1.424,-2.606,-9.533,-1.141,-2.008,6.3,-0.98,-0.28
,-9.349,-1.421,-2.529,-9.627,-1.12,-2.108,8.05,-0.77,-0.14
25897.0,-9.593,-1.053,-2.446,-9.392,-1.512,-2.539,5.32,0.91,-0.28
,-9.509,-1.07,-2.697,-9.591,-1.285,-2.56,3.5,0.98,-0.14
,-9.335,-1.318,-2.692,-9.627,-1.108,-2.627,2.52,1.4,0.14
,-9.237,-1.579,-2.462,-9.586,-1.007,-2.62,3.5,2.1,0.49
25973.0,-9.579,-1.06,-2.654,-9.438,-1.194,-2.814,4.76,2.87,0.35
,-9.507,-1.091,-2.694,-9.462,-1.199,-2.73,3.99,2.87,0.35
,-9.438,-1.101,-2.812,-9.495,-1.151,-2.644,3.99,2.87,0.28
,-9.409,-1.094,-2.903,-9.524,-1.024,-2.754,3.85,2.73,0.07
26049.0,-9.514,-1.017,-2.845,-9.502,-1.261,-2.603,3.08,2.59,-0.49
,-9.39,-1.041,-2.761,-9.562,-1.182,-2.62,2.03,2.45,-0.56
,-9.387,-1.146,-2.723,-9.538,-1.225,-2.608,1.47,2.66,-0.56
,-9.418,-1.285,-2.651,-9.517,-1.297,-2.568,1.75,2.59,-0.63
26124.0,-9.474,-1.213,-2.749,-9.457,-1.316,-2.694,1.75,3.01,-0.63
,-9.39,-1.225,-2.771,-9.44,-1.271,-2.635,1.68,3.22,-0.49
,-9.402,-1.302,-2.711,-9.457,-1.249,-2.635,1.89,3.5,-0.35
,-9.426,-1.34,-2.601,-9.529,-1.292,-2.62,2.66,3.5,-0.14
26200.0,-9.541,-1.287,-2.802,-9.407,-1.304,-3.096,2.66,4.06,0.28
,-9.442,-1.318,-2.876,-9.411,-1.223,-3.003,2.59,3.71,0.14
,-9.371,-1.402,-2.972,-9.416,-1.187,-2.958,2.38,3.5,0.42
,-9.414,-1.376,-2.967,-9.43,-1.204,-2.864,2.94,3.36,0.49
26275.0,-9.445,-1.144,-2.773,-9.426,-1.273,-2.757,4.41,2.52,0.56
,-9.49,-1.137,-2.84,-9.464,-1.275,-2.869,4.06,2.38,0.56
,-9.462,-1.168,-2.79,-9.438,-1.273,-2.871,3.43,2.52,0.63
,-9.421,-1.216,-2.735,-9.426,-1.338,-2.812,2.94,2.45,0.56
26351.0,-9.466,-1.266,-2.788,-9.457,-1.168,-2.85,2.31,1.96,0.21
,-9.438,-1.275,-2.745,-9.428,-1.182,-2.895,2.73,2.17,0.14
,-9.466,-1.244,-2.814,-9.471,-1.268,-2.812,2.94,2.03,0.21
,-9.469,-1.244,-2.816,-9.402,-1.228,-2.907,2.87,2.1,0.35
26427.0,-9.411,-1.206,-2.91,-9.392,-1.304,-2.824,2.73,1.54,0.28
,-9.428,-1.271,-2.773,-9.421,-1.333,-2.848,2.59,1.68,0.35
,-9.45,-1.335,-2.903,-9.426,-1.242,-2.84,2.45,1.68,0.35
,-9.426,-1.29,-2.886,-9.445,-1.182,-2.85,2.52,1.54,0.28
26503.0,-9.411,-1.156,-2.893,-9.466,-1.225,-2.675,2.17,1.47,0.42
,-9.399,-1.292,-2.726,-9.478,-1.28,-2.651,1.96,1.75,0.56
,-9.44,-1.309,-2.596,-9.407,-1.292,-2.678,1.82,1.68,0.63
,-9.493,-1.318,-2.603,-9.414,-1.383,-2.714,2.38,1.89,0.56
26578.0,-9.404,-1.385,-2.749,-9.459,-1.182,-2.778,0.84,2.38,0.56
,-9.435,-1.287,-2.749,-9.438,-1.211,-2.769,1.19,2.52,0.7
,-9.414,-1.232,-2.793,-9.435,-1.28,-2.871,1.61,2.66,0.77
,-9.433,-1.216,-2.826,-9.426,-1.333,-2.905,1.68,2.52,0.84
26654.0,-9.378,-1.352,-2.938,-9.438,-1.275,-2.948,1.75,2.31,1.19
,-9.38,-1.424,-2.86,-9.457,-1.228,-2.936,2.24,2.24,1.26
,-9.385,-1.347,-2.886,-9.404,-1.283,-2.982,2.94,2.31,1.4
,-9.43,-1.266,-2.871,-9.411,-1.299,-2.915,3.29,2.38,1.54
26730.0,-9.375,-1.283,-2.915,-9.395,-1.206,-2.821,2.24,2.03,1.82
,-9.409,-1.359,-2.912,-9.402,-1.242,-2.907,2.31,1.89,1.82
,-9.471,-1.28,-2.895,-9.466,-1.297,-2.972,3.01,1.89,1.89
,-9.416,-1.23,-2.879,-9.457,-1.259,-2.965,3.36,1.82,2.03
26806.0,-9.383,-1.225,-2.876,-9.373,-1.122,-2.924,2.31,1.4,2.03
,-9.399,-1.256,-2.742,-9.332,-1.194,-2.855,2.17,1.4,1.96
,-9.481,-1.17,-2.955,-9.306,-1.292,-2.831,1.68,1.05,1.82
,-9.421,-1.046,-3.106,-9.418,-1.254,-2.912,1.26,0.7,1.75
26882.0,-9.481,-1.17,-2.96,-9.471,-1.311,-2.711,0.28,0.49,1.75
,-9.509,-1.113,-2.895,-9.438,-1.187,-2.745,0.07,0.77,1.68
,-9.469,-1.201,-2.788,-9.39,-1.189,-2.673,-0.77,0.91,1.96
,-9.483,-1.338,-2.623,-9.38,-1.273,-2.615,-1.47,1.26,2.03
26957.0,-9.378,-1.292,-2.501,-9.423,-0.995,-2.85,-3.5,2.38,2.17
,-9.493,-1.251,-2.448,-9.284,-1.0,-2.776,-3.64,2.66,2.03
,-9.579,-1.074,-2.546,-9.249,-0.656,-3.52,-4.27,2.73,1.68
,-9.643,-1.01,-2.795,-9.328,-1.266,-2.723,-7.14,2.24,0.98
27033.0,-9.351,-1.46,-2.613,-9.392,-1.077,-2.898,-12.04,2.17,1.12
,-9.512,-1.173,-2.771,-9.373,-1.213,-2.97,-8.4,2.59,1.47
,-9.581,-1.053,-2.9,-9.385,-1.184,-2.874,-8.05,2.45,1.75
,-9.464,-1.007,-2.752,-9.366,-1.127,-2.972,-8.75,2.66,2.03
27108.0,-9.361,-1.18,-2.819,-9.493,-1.039,-2.742,-9.87,1.82,2.59
,-9.373,-1.223,-2.493,-9.387,-1.206,-3.137,-9.73,2.31,2.87
,-9.39,-1.196,-2.685,-9.304,-1.268,-3.051,-9.52,2.45,2.8
,-9.383,-1.134,-2.577,-9.251,-1.618,-2.888,-9.66,2.45,2.94
27184.0,-9.162,-1.263,-2.862,-9.493,-0.744,-3.515,-4.06,2.45,3.43
,-9.471,-1.17,-2.711,-9.373,-0.878,-3.391,-2.87,2.45,3.78
,-9.474,-1.043,-2.759,-9.351,-1.067,-3.326,-1.82,1.96,3.85
,-9.407,-0.804,-2.903,-9.299,-1.259,-3.137,0.0,1.75,4.34
27260.0,-9.227,-1.22,-3.056,-9.533,-0.596,-2.831,5.39,4.06,7.35
,-9.316,-1.129,-2.752,-9.418,-0.589,-2.556,7.84,4.27,7.84
,-9.447,-0.995,-2.927,-9.488,-0.625,-2.816,9.31,3.71,8.12
,-9.526,-0.787,-2.883,-9.268,-0.859,-3.077,8.68,3.43,8.33
27336.0,-9.342,-0.857,-3.128,-9.229,-0.988,-2.723,-1.26,1.96,6.79
,-9.258,-0.969,-2.965,-9.478,-0.512,-2.797,0.56,3.22,6.86
,-9.237,-1.127,-2.623,-9.497,-0.464,-3.195,3.78,5.04,7.0
,-9.33,-1.031,-2.883,-9.531,-0.706,-3.032,6.72,5.53,6.86
27411.0,-9.562,-0.919,-2.91,-9.514,-0.419,-1.819,8.12,6.37,7.91
,-9.359,-1.007,-2.661,-9.407,-0.325,-2.008,8.12,6.23,7.35
,-9.232,-1.067,-2.491,-9.6,-0.574,-2.015,9.31,6.44,6.86
,-9.177,-0.732,-1.89,-9.543,-0.826,-2.359,10.22,7.21,6.02
27487.0,-9.493,-1.108,-2.553,-9.179,-0.38,-2.938,-7.0,8.82,3.92
,-9.335,-1.218,-2.651,-9.316,-0.433,-3.175,-6.65,9.8,4.2
,-9.292,-1.175,-2.338,-9.328,-0.782,-3.214,-3.22,11.97,4.69
,-9.225,-0.775,-2.639,-9.261,-1.027,-3.245,-0.21,12.25,4.27
27563.0,-9.244,-1.519,-3.183,-9.225,-1.175,-3.008,-0.07,13.37,6.37
,-9.306,-1.493,-3.24,-9.277,-1.027,-2.941,3.01,13.86,6.93
,-9.304,-1.694,-2.958,-9.411,-0.895,-3.01,5.18,14.49,7.84
,-9.347,-1.302,-2.917,-9.21,-0.369,-3.343,8.33,14.21,7.91
27639.0,-9.196,0.053,-3.448,-9.198,-0.735,-3.558,12.39,11.48,6.58
,-9.179,0.168,-3.635,-9.33,-0.821,-3.496,10.85,11.55,5.67
,-8.985,0.045,-3.565,-9.529,-0.68,-3.338,7.98,12.39,5.46
,-9.186,-0.364,-3.429,-9.38,-0.493,-3.692,6.72,13.09,5.67
27715.0,-9.22,-0.337,-3.733,-9.378,-0.069,-3.561,6.65,10.92,5.81
,-9.016,-0.584,-3.637,-9.275,0.141,-3.958,6.58,12.74,5.81
,-9.026,-0.715,-3.259,-9.323,0.223,-3.903,7.56,14.49,5.32
,-9.186,-0.493,-3.252,-9.335,0.105,-3.759,9.66,14.77,4.48
27790.0,-9.064,0.282,-3.884,-9.115,0.29,-4.195,3.78,11.62,0.63
,-9.072,0.397,-4.458,-8.923,-0.218,-3.879,8.33,10.71,-0.84
,-9.395,0.747,-4.523,-9.093,-0.546,-3.668,5.39,9.52,-2.59
,-9.488,0.44,-4.247,-9.217,-1.05,-3.908,0.91,8.96,-3.78
27866.0,-9.476,-1.012,-3.888,-8.863,-1.182,-3.699,-1.47,7.42,-3.85
,-9.258,-1.256,-3.903,-9.005,-1.031,-3.805,-0.63,7.77,-3.36
,-9.055,-1.158,-3.731,-9.287,-0.402,-3.879,-0.07,8.05,-3.08
,-8.703,-1.469,-3.585,-9.021,-0.311,-3.888,1.82,8.05,-2.59
27941.0,-8.868,-0.146,-3.836,-9.182,-0.96,-3.771,6.23,7.07,-2.8
,-9.036,-0.175,-3.865,-8.739,-1.63,-3.9,3.71,7.63,-2.31
,-9.062,-0.479,-4.269,-8.863,-2.134,-3.604,5.11,8.75,-0.84
,-9.033,-1.022,-3.594,-9.143,-2.577,-3.403,4.69,8.75,0.07
28017.0,-9.131,-1.91,-4.068,-8.756,-0.802,-4.398,17.92,10.43,8.75
,-9.155,-1.572,-4.396,-8.89,-0.742,-4.027,22.05,9.87,9.8
,-9.05,-1.141,-4.544,-10.17,2.225,-5.556,22.82,8.82,9.87
,-8.89,-1.22,-4.757,-9.086,-0.203,-5.09,21.42,8.61,9.66
28093.0,-9.32,-0.112,-3.948,-9.349,0.861,-4.673,13.65,9.8,7.77
,-9.476,0.019,-4.073,-8.722,0.419,-4.515,15.05,9.03,8.26
,-8.579,-0.632,-4.446,-8.902,0.325,-4.515,19.81,8.54,8.47
,-9.438,0.457,-4.417,-8.887,-0.232,-4.692,16.45,7.84,7.0
28169.0,-9.134,0.9,-5.453,-9.454,-0.708,-4.513,7.42,8.05,7.49
,-9.021,-0.567,-4.893,-9.27,-1.079,-4.295,6.72,8.19,5.53
,-9.371,-1.017,-4.106,-9.055,-0.852,-4.2,7.0,7.07,5.18
,-9.014,-1.079,-4.176,-8.748,-0.45,-4.219,9.45,6.23,5.74
28244.0,-9.043,-0.436,-4.331,-8.44,-0.285,-4.575,12.88,7.14,4.69
,-9.208,-0.057,-4.305,-8.722,-0.658,-4.649,13.72,7.35,3.22
,-9.6,0.225,-4.223,-9.016,-0.778,-4.307,13.44,6.23,2.24
,-9.038,0.23,-4.582,-9.356,-1.043,-4.188,10.99,4.27,1.89
28320.0,-9.294,-0.852,-4.288,-9.031,-0.668,-4.357,10.22,4.97,3.71
,-9.531,-1.067,-3.594,-8.906,-0.572,-4.113,9.03,4.48,3.64
,-8.583,-1.357,-3.644,-9.045,-0.593,-4.496,6.93,3.29,3.15
,-8.921,0.512,-5.355,-8.959,-0.665,-4.396,2.17,4.83,4.9
28396.0,-9.06,-0.873,-4.453,-9.385,-1.015,-3.369,7.21,4.69,1.68
,-9.1,-0.849,-4.145,-8.971,-0.737,-3.929,6.86,5.32,2.17
,-9.136,-1.062,-4.116,-9.069,-0.646,-4.31,7.35,4.55,2.8
,-8.622,-1.85,-3.252,-8.94,-0.179,-4.312,-2.52,5.04,6.3
28472.0,-9.117,-0.306,-4.202,-8.799,0.089,-4.499,8.82,3.85,0.98
,-8.813,-0.048,-4.147,-8.916,-0.182,-4.465,7.42,3.36,-0.14
,-8.851,0.007,-4.511,-9.05,-0.246,-4.585,6.65,3.15,-1.05
,-8.801,0.024,-4.379,-8.954,-0.689,-4.738,6.16,2.8,-1.96
28548.0,-8.868,-1.184,-4.781,-9.095,-1.551,-4.544,1.61,1.54,-1.89
,-8.93,-1.417,-4.597,-9.04,-1.254,-4.41,2.52,1.61,-0.91
,-9.074,-1.634,-4.594,-9.062,-1.366,-4.042,4.55,1.26,0.0
,-9.086,-1.493,-4.494,-8.789,-1.084,-4.305,6.51,1.26,0.49
28623.0,-8.935,-1.05,-4.013,-9.407,0.206,-5.126,6.72,0.49,3.08
,-8.806,-0.976,-4.149,-8.961,-0.828,-3.735,5.88,0.14,3.5
,-8.842,-0.658,-4.365,-9.103,-0.572,-4.039,5.25,0.35,3.92
,-9.672,2.206,-6.975,-8.83,-0.428,-4.314,9.38,0.77,6.58
28699.0,-8.935,-0.452,-4.214,-8.942,-0.354,-4.367,5.18,-0.84,3.29
,-8.916,-0.419,-4.386,-8.892,-0.139,-4.429,5.46,-0.98,3.01
,-8.981,-0.531,-4.123,-8.887,-0.086,-4.518,4.55,-0.84,3.22
,-9.103,-0.689,-4.042,-8.82,-0.124,-4.568,4.62,-1.19,2.94
28774.0,-9.162,-0.424,-4.491,-8.837,-1.426,-4.152,1.12,-1.26,-0.42
,-9.134,-0.995,-4.264,-8.815,-1.33,-4.121,0.14,-1.68,0.07
,-9.217,-1.311,-3.862,-9.074,-1.153,-4.051,0.07,-1.61,1.26
,-8.921,-1.472,-4.118,-9.213,-1.065,-4.204,-0.42,-1.61,2.31
28850.0,-9.119,-0.876,-3.989,-9.088,-0.742,-3.999,3.29,-0.49,4.41
,-8.847,-0.447,-4.24,-9.203,-0.689,-4.037,2.8,-0.84,4.06
,-8.698,-0.258,-4.463,-9.237,-0.613,-4.032,1.26,-0.63,3.5
,-8.842,-0.474,-4.305,-9.244,-0.598,-4.037,-0.28,0.21,2.87
28926.0,-9.179,-0.593,-4.3,-8.715,-0.436,-4.59,-0.77,1.82,3.78
,-9.043,-0.524,-4.319,-8.885,-0.5,-4.42,-2.17,2.17,3.71
,-8.978,-0.488,-4.166,-9.167,-0.371,-4.499,-3.29,2.24,3.57
,-8.799,-0.371,-4.527,-9.44,-0.409,-4.542,-4.41,1.68,3.64
29002.0,-9.04,-0.436,-4.489,-9.392,-0.043,-4.188,-10.08,1.47,0.42
,-8.997,-0.237,-4.434,-8.945,-0.103,-4.513,-9.66,1.61,-0.35
,-8.993,-0.33,-4.475,-8.947,-0.053,-4.422,-8.96,1.4,-0.84
,-9.122,-0.122,-4.451,-9.091,-0.096,-4.214,-8.47,1.89,-1.26
29077.0,-9.172,-0.036,-4.238,-8.796,-0.514,-4.36,-12.88,0.98,-4.62
,-8.985,-0.318,-4.212,-8.545,-0.948,-4.379,-14.07,0.84,-3.92
,-9.095,-0.806,-4.302,-8.997,-0.835,-4.415,-13.51,0.0,-2.87
,-9.268,-1.043,-4.379,-9.284,-1.366,-4.166,-14.21,-0.07,-2.03
29153.0,-9.284,-1.433,-3.963,-9.127,-1.101,-4.47,-12.67,0.56,1.33
,-9.119,-1.378,-4.35,-9.103,-0.972,-4.36,-7.42,0.07,2.8
,-8.835,-1.201,-4.374,-9.404,-0.081,-4.518,-6.44,0.42,4.97
,-8.959,-1.259,-4.539,-9.155,-0.139,-4.664,-4.55,0.28,5.81
29229.0,-9.074,0.357,-4.695,-8.83,0.036,-4.173,-4.48,-0.77,6.16
,-8.545,-1.213,-4.649,-8.772,-0.179,-4.343,-5.18,-0.56,4.9
,-9.459,0.459,-4.042,-9.091,-0.057,-3.857,-7.21,-1.12,2.94
,-9.0,-0.053,-4.269,-9.124,0.993,-3.989,-7.28,-3.15,3.71
29305.0,-9.177,0.457,-4.171,-9.083,-0.254,-4.204,-0.91,-2.73,2.45
,-9.095,0.536,-4.032,-8.648,0.177,-4.355,-3.5,-1.82,0.84
,-9.057,0.658,-4.183,-8.799,0.026,-4.403,-3.57,-1.33,0.21
,-9.385,-0.079,-3.805,-9.002,-0.199,-4.264,-6.72,-2.52,0.28
29380.0,-8.966,-0.124,-4.044,-8.871,-0.392,-4.13,-3.64,-3.57,-1.4
,-9.098,-0.096,-4.049,-8.794,-0.433,-4.087,-3.36,-3.71,-1.68
,-9.162,-0.048,-4.238,-8.911,-0.213,-3.92,-4.76,-4.41,-1.82
,-9.103,-0.318,-4.056,-9.06,-0.275,-4.527,-6.37,-3.85,-1.89
29456.0,-9.17,-0.086,-4.257,-9.1,0.007,-4.243,-2.73,-1.05,-1.96
,-8.985,-0.292,-4.398,-9.033,0.12,-4.135,-2.73,-1.75,-1.61
,-9.036,-0.737,-3.908,-9.036,0.163,-4.14,-4.06,-2.31,-1.68
,-9.093,-0.5,-4.075,-9.076,-0.208,-3.824,-1.82,-3.01,-2.24
29532.0,-9.11,0.139,-4.228,-9.098,-0.337,-3.941,-2.17,-5.04,-3.57
,-9.038,-0.01,-4.226,-8.928,-0.414,-3.936,-2.31,-5.18,-3.36
,-8.916,-0.304,-3.891,-8.93,-0.646,-3.96,-1.75,-4.34,-2.87
,-9.016,-0.292,-4.022,-9.012,-0.811,-3.886,-0.7,-4.34,-2.8
29607.0,-9.062,-1.24,-6.963,-9.076,-0.031,-4.03,8.82,-10.29,-5.11
,-8.916,-0.208,-3.699,-8.863,-0.175,-4.08,6.09,-8.12,-3.01
,-9.359,-0.026,-4.003,-9.005,-0.302,-3.979,5.88,-7.49,-2.87
,-9.208,-0.302,-3.676,-9.036,-0.45,-3.85,2.52,-7.7,-3.08
29683.0,-9.112,-0.57,-3.865,-9.32,-0.536,-2.546,0.63,-9.8,-3.99
,-9.227,-0.634,-3.64,-9.497,-0.254,-3.259,2.87,-8.96,-3.85
,-9.237,-0.524,-3.429,-9.222,-0.127,-3.475,5.18,-8.75,-4.34
,-8.959,-1.515,-3.678,-9.081,0.141,-3.611,7.0,-8.96,-4.97
29759.0,-9.332,0.751,-4.104,-9.072,-0.56,-3.233,9.38,-10.5,-9.03
,-9.232,0.196,-3.865,-9.194,-0.304,-3.273,2.73,-10.01,-7.91
,-9.031,-0.366,-3.362,-9.246,-0.397,-3.63,0.35,-9.31,-7.07
,-9.107,-0.38,-3.415,-9.239,-0.486,-3.568,1.47,-8.89,-7.21
29835.0,-9.162,-0.596,-3.841,-9.344,-1.125,-2.596,-1.33,-9.52,-6.86
,-9.055,-0.756,-3.553,-9.373,-0.988,-2.525,-0.56,-9.17,-7.14
,-9.1,-1.048,-3.515,-9.459,-0.794,-2.797,0.21,-8.61,-6.58
,-9.198,-0.859,-3.417,-9.39,-0.756,-3.338,3.92,-8.12,-6.23
29910.0,-9.182,-0.483,-3.479,-9.301,-0.33,-3.144,3.64,-7.0,-4.06
,-9.139,-0.474,-3.439,-9.292,-0.632,-2.857,4.48,-6.65,-3.78
,-9.256,-0.574,-3.288,-9.301,-0.617,-2.96,6.02,-6.02,-3.99
,-9.244,-0.414,-3.13,-9.229,-0.684,-3.039,7.77,-5.67,-4.48
29986.0,-9.296,-0.78,-2.905,-9.277,-0.823,-3.228,4.48,-4.27,-5.11
,-9.28,-0.677,-3.4,-9.347,-1.115,-2.989,4.76,-4.41,-5.25
,-9.462,-0.792,-3.293,-9.49,-1.005,-3.025,4.06,-4.69,-4.97
,-9.344,-0.526,-3.381,-9.452,-1.034,-3.013,4.83,-4.06,-4.76
30062.0,-9.411,-0.749,-2.759,-9.361,-0.562,-3.752,5.95,-3.29,-4.83
,-9.232,-0.888,-3.075,-9.241,-0.538,-3.364,4.48,-3.36,-5.11
,-9.134,-0.639,-3.211,-9.481,-0.543,-3.896,3.08,-3.36,-5.18
,-9.237,-0.84,-3.269,-9.325,-0.409,-4.121,3.36,-3.43,-4.9
30138.0,-9.227,-0.517,-3.826,-9.524,-1.041,-3.013,7.77,-5.88,-5.88
,-9.354,-1.11,-3.609,-9.383,-0.881,-2.864,9.8,-6.16,-5.74
,-9.036,-0.67,-3.259,-9.507,-0.878,-2.733,10.5,-6.16,-6.23
,-9.34,-1.187,-3.3,-9.653,-1.101,-2.436,11.83,-6.44,-5.95
30213.0,-9.299,-0.818,-2.481,-9.34,-0.938,-3.025,6.16,-5.32,-6.37
,-9.433,-0.95,-2.635,-9.407,-1.405,-2.771,4.13,-4.97,-6.51
,-9.481,-1.062,-2.809,-9.16,-0.981,-2.577,3.01,-4.41,-6.72
,-9.383,-1.194,-2.781,-9.249,-1.235,-2.271,2.24,-4.13,-6.79
30289.0,-9.373,-1.204,-2.326,-9.308,-1.311,-2.465,3.99,-1.75,-5.32
,-9.517,-1.156,-2.245,-9.445,-1.374,-2.546,3.85,-1.05,-4.97
,-9.45,-1.199,-2.34,-9.289,-1.381,-2.469,3.15,-0.49,-4.55
,-9.368,-1.259,-2.343,-9.239,-1.132,-2.613,3.15,0.07,-3.92
30365.0,-9.351,-1.249,-2.587,-9.337,-1.285,-3.185,5.95,2.87,-1.54
,-9.466,-1.445,-2.656,-9.191,-1.376,-3.123,5.53,3.22,-1.26
,-9.407,-1.383,-2.843,-9.182,-1.512,-3.013,5.74,3.22,-1.19
,-9.387,-1.266,-2.867,-9.296,-1.498,-2.886,6.09,3.29,-0.84
30440.0,-9.435,-1.342,-2.862,-9.325,-1.046,-2.979,7.84,4.06,0.28
,-9.509,-1.204,-2.67,-9.284,-1.182,-2.912,7.42,4.41,0.42
,-9.5,-1.067,-2.735,-9.328,-1.309,-2.838,5.95,4.55,0.42
,-9.373,-1.065,-2.955,-9.438,-1.273,-2.764,4.27,4.69,0.49
30516.0,-9.483,-1.065,-2.86,-9.294,-1.23,-3.233,3.5,5.95,0.77
,-9.497,-1.01,-2.917,-9.284,-1.311,-3.242,1.75,5.81,0.49
,-9.457,-1.058,-2.974,-9.349,-1.287,-3.094,-0.21,6.02,0.49
,-9.361,-1.108,-3.221,-9.497,-1.18,-3.082,-1.47,5.95,0.28
30592.0,-9.478,-0.983,-3.4,-9.201,-1.342,-3.465,2.17,5.32,0.7
,-9.383,-0.926,-3.326,-9.318,-1.328,-3.376,1.05,4.69,0.7
,-9.189,-1.082,-3.482,-9.375,-1.175,-3.223,-0.14,4.41,0.77
,-9.167,-1.273,-3.563,-9.471,-1.062,-3.13,-0.14,4.2,0.84
30668.0,-9.44,-1.01,-3.111,-9.27,-1.144,-3.29,2.8,3.29,0.91
,-9.366,-0.988,-3.147,-9.325,-1.156,-3.254,1.75,3.29,0.84
,-9.332,-1.048,-3.18,-9.328,-1.144,-3.221,0.63,3.22,0.7
,-9.325,-1.137,-3.288,-9.344,-1.077,-3.271,-0.07,3.08,0.35
30743.0,-9.287,-1.029,-3.355,-9.304,-1.151,-3.161,-0.28,2.38,0.21
,-9.265,-1.106,-3.326,-9.311,-1.067,-3.218,-1.4,2.03,0.21
,-9.249,-1.22,-3.326,-9.323,-1.043,-3.199,-1.4,1.89,0.28
,-9.258,-1.208,-3.259,-9.301,-1.086,-3.209,-0.14,1.82,0.42
30819.0,-9.354,-1.22,-3.185,-9.292,-1.182,-3.345,1.05,1.54,0.84
,-9.337,-1.201,-3.25,-9.337,-1.17,-3.3,1.4,1.61,0.91
,-9.349,-1.201,-3.295,-9.311,-1.096,-3.278,1.68,1.47,0.98
,-9.318,-1.213,-3.317,-9.316,-1.103,-3.264,1.96,1.26,1.05
30895.0,-9.323,-1.106,-3.211,-9.34,-1.062,-3.281,2.66,0.7,1.54
,-9.347,-1.122,-3.151,-9.273,-1.043,-3.307,2.8,0.84,1.47
,-9.378,-1.11,-3.137,-9.251,-1.132,-3.293,2.66,0.7,1.33
,-9.368,-1.074,-3.168,-9.306,-1.113,-3.23,2.31,0.56,1.26
30971.0,-9.337,-1.072,-3.161,-9.361,-1.127,-3.147,2.38,0.42,1.19
,-9.395,-1.062,-3.199,-9.33,-1.091,-3.159,2.31,0.07,1.05
,-9.311,-1.079,-3.135,-9.323,-1.139,-3.214,2.1,-0.07,1.12
,-9.32,-1.101,-3.132,-9.258,-1.158,-3.192,2.24,0.07,1.05
31046.0,-9.332,-1.101,-3.192,-9.368,-1.082,-3.104,2.94,-0.07,1.19
,-9.304,-1.106,-3.154,-9.342,-1.132,-3.084,3.22,0.0,1.12
,-9.368,-1.06,-3.202,-9.368,-1.187,-3.065,3.08,-0.07,1.12
,-9.399,-1.034,-3.142,-9.342,-1.117,-3.137,2.38,0.0,0.98
31122.0,-9.375,-1.168,-3.197,-9.363,-1.108,-3.245,2.17,0.21,1.47
,-9.347,-1.187,-3.175,-9.34,-1.039,-3.209,1.89,0.14,1.47
,-9.34,-1.187,-3.175,-9.313,-1.036,-3.204,2.31,0.28,1.68
,-9.296,-1.216,-3.18,-9.294,-1.084,-3.089,2.8,0.0,1.68
31197.0,-9.313,-1.165,-3.044,-9.363,-1.029,-2.97,2.24,-0.14,1.89
,-9.299,-1.177,-3.02,-9.361,-1.094,-2.915,2.8,0.0,2.1
,-9.347,-1.17,-2.984,-9.45,-1.072,-3.02,3.57,0.14,2.24
,-9.332,-1.065,-2.991,-9.407,-1.067,-3.139,3.85,0.28,2.24
31273.0,-9.342,-1.036,-3.092,-9.395,-0.986,-3.333,1.89,0.56,2.03
,-9.299,-0.974,-3.142,-9.359,-1.005,-3.329,2.03,0.84,2.03
,-9.359,-0.972,-3.163,-9.306,-1.007,-3.336,1.75,0.7,1.96
,-9.447,-0.972,-3.211,-9.316,-1.06,-3.388,1.19,0.63,1.75
31349.0,-9.306,-1.103,-3.384,-9.342,-0.864,-3.166,1.4,-0.42,1.61
,-9.316,-1.096,-3.257,-9.363,-0.885,-3.075,2.1,-0.56,1.61
,-9.399,-1.005,-3.269,-9.39,-0.945,-3.029,2.45,-1.05,1.33
,-9.323,-0.969,-3.206,-9.402,-1.022,-2.929,1.89,-1.33,1.12
31425.0,-9.375,-1.103,-2.998,-9.421,-1.086,-2.917,-1.68,-1.61,0.91
,-9.328,-1.094,-3.022,-9.399,-1.108,-2.936,-1.26,-1.61,0.98
,-9.363,-1.115,-3.003,-9.418,-1.134,-2.912,-1.4,-1.61,1.05
,-9.38,-1.089,-2.958,-9.395,-1.117,-2.962,-1.75,-1.47,1.19
31501.0,-9.418,-1.089,-2.967,-9.318,-1.089,-2.666,-3.64,-1.75,1.4
,-9.356,-1.11,-2.883,-9.347,-1.101,-2.589,-4.41,-1.75,1.26
,-9.359,-1.062,-2.857,-9.378,-1.134,-2.513,-4.9,-1.82,1.33
,-9.344,-1.077,-2.843,-9.433,-1.156,-2.522,-4.55,-1.4,1.75
31576.0,-9.497,-1.07,-2.625,-9.222,-1.194,-2.697,-0.63,1.12,3.57
,-9.418,-1.086,-2.766,-9.445,-1.127,-2.347,-0.98,1.26,3.85
,-9.311,-1.17,-2.735,-9.483,-0.969,-2.709,-0.91,2.03,4.13
,-9.292,-1.175,-2.742,-9.366,-0.727,-2.651,-0.84,2.66,4.41
31652.0,-9.347,-0.854,-2.711,-9.459,-0.57,-2.781,-2.38,4.48,4.62
,-9.22,-0.988,-2.395,-9.332,-0.373,-3.13,-3.01,5.46,4.62
,-9.474,-0.928,-2.331,-9.244,-0.39,-3.056,-1.54,6.37,4.48
,-9.5,-0.778,-2.635,-9.28,-0.605,-2.838,-1.05,6.23,3.78
31728.0,-9.505,-0.51,-2.891,-9.22,-0.634,-3.417,-0.49,7.21,1.89
,-9.454,-0.546,-2.965,-9.445,-0.62,-3.314,-0.98,6.72,1.05
,-9.521,-0.541,-2.852,-9.311,-0.794,-3.668,-1.54,6.79,0.98
,-9.366,-0.687,-3.388,-8.983,-1.074,-3.652,-4.27,6.02,0.7
31804.0,-9.158,-1.34,-3.467,-9.34,-1.409,-2.711,-5.32,7.91,0.98
,-9.21,-1.374,-3.192,-9.184,-1.003,-3.661,-2.24,8.19,1.68
,-9.524,-1.244,-3.037,-8.988,-1.409,-3.467,1.89,8.12,2.03
,-9.5,-1.158,-3.266,-9.217,-1.893,-2.871,1.82,7.07,2.03
31879.0,-9.201,-1.689,-2.903,-9.351,-0.488,-3.084,6.79,8.75,6.72
,-9.28,-1.275,-2.553,-9.349,-0.55,-3.228,13.58,10.15,7.28
,-9.541,-0.668,-2.536,-9.131,-0.838,-3.072,18.13,10.78,6.93
,-9.478,-0.215,-2.795,-9.28,-0.847,-2.458,16.31,9.45,6.23
31955.0,-9.342,-0.725,-2.534,-9.174,-0.778,-3.262,6.86,11.83,4.69
,-9.21,-0.546,-3.001,-9.256,-0.684,-3.149,6.09,10.64,4.06
,-9.253,-0.342,-3.372,-9.411,-0.33,-3.092,4.13,9.73,3.92
,-9.201,-0.68,-3.556,-9.507,0.053,-3.625,0.35,8.75,3.71
32030.0,-9.301,0.211,-4.267,-9.079,-1.065,-3.192,-3.22,6.58,-1.68
,-9.27,0.282,-4.482,-9.172,-1.0,-3.453,-6.44,5.67,-2.24
,-9.174,-0.134,-4.312,-9.395,-1.0,-3.589,-8.89,6.58,-2.38
,-9.048,-0.687,-3.553,-9.191,-1.292,-3.506,-9.52,9.03,-2.17
32106.0,-9.012,-1.539,-2.953,-9.308,-0.593,-3.743,-2.38,11.34,0.42
,-9.213,-1.488,-2.917,-9.174,-0.359,-3.754,2.52,12.32,1.19
,-9.179,-1.074,-3.355,-9.002,-0.112,-3.802,5.53,11.62,0.77
,-9.311,-0.9,-3.427,-9.007,-0.337,-3.896,6.51,10.99,0.49
32182.0,-9.162,-0.761,-3.979,-8.88,-1.625,-3.486,2.1,8.82,-1.12
,-9.347,-1.182,-3.826,-9.081,-1.242,-4.149,0.56,8.54,-0.77
,-9.174,-1.347,-3.817,-8.949,-1.039,-3.769,1.05,8.47,0.21
,-9.012,-1.486,-3.716,-9.261,-0.66,-4.037,2.17,8.89,1.47
32258.0,-9.17,-0.397,-4.113,-9.194,-0.763,-3.501,11.97,8.4,2.03
,-8.976,-0.328,-4.183,-9.359,-0.694,-3.472,10.57,8.26,1.19
,-8.873,-0.266,-4.044,-9.423,-1.031,-3.338,9.8,9.52,0.7
,-8.978,-0.299,-3.927,-9.284,-0.993,-3.35,8.33,9.94,0.07
32334.0,-8.988,-0.883,-3.429,-9.038,-0.605,-4.003,5.81,10.71,0.42
,-8.942,-0.792,-3.671,-9.239,-0.328,-3.994,8.19,11.13,0.77
,-9.16,-0.826,-3.915,-9.05,-0.132,-4.214,9.1,10.57,1.68
,-8.969,-0.878,-3.709,-8.72,-0.22,-4.336,9.8,9.66,1.19
32409.0,-8.777,-0.457,-4.209,-8.993,-2.34,-3.738,7.28,9.59,-2.87
,-8.854,-0.861,-4.078,-8.947,-2.455,-3.953,6.23,10.22,-3.15
,-8.914,-0.993,-3.728,-8.892,-2.687,-4.231,6.93,10.36,-1.89
,-8.926,-1.577,-3.702,-8.88,-2.649,-4.427,6.58,9.8,0.35
32485.0,-8.789,-2.379,-4.606,-8.954,-1.027,-4.097,18.55,8.26,10.71
,-8.727,-3.022,-3.64,-9.045,-0.787,-4.587,7.7,9.8,15.96
,-8.614,-1.479,-4.678,-9.119,-0.644,-4.362,17.5,8.47,12.74
,-8.782,-1.39,-4.513,-9.141,-0.538,-4.118,20.23,8.19,11.9
32561.0,-9.119,-0.208,-4.286,-9.04,-0.117,-4.441,19.04,7.42,9.73
,-8.942,-0.349,-4.154,-9.139,0.139,-4.487,18.06,7.77,9.66
,-8.873,-1.929,-2.716,-8.366,-0.424,-4.032,0.84,7.21,14.63
,-9.062,-1.242,-3.635,-8.667,-0.438,-4.432,9.1,6.65,12.04
32637.0,-9.375,-0.546,-4.305,-8.964,-0.531,-4.456,16.73,8.26,7.77
,-9.196,-0.677,-3.874,-8.938,-0.577,-4.767,15.4,7.63,6.72
,-9.031,-0.689,-3.881,-8.871,-1.108,-4.484,16.8,6.37,6.44
,-9.04,-0.56,-4.274,-8.835,-0.718,-4.862,18.13,6.09,6.58
32712.0,-8.579,-0.756,-4.872,-9.325,-0.785,-4.089,19.6,6.44,5.11
,-8.837,-1.031,-4.728,-8.973,-0.847,-4.31,19.32,6.3,5.88
,-8.94,-0.675,-4.609,-9.213,-1.129,-4.405,18.2,5.95,6.09
,-9.249,-1.05,-4.226,-9.368,-1.05,-4.36,17.36,4.69,6.72
32788.0,-9.397,-0.854,-4.326,-8.643,-0.816,-4.489,17.15,2.66,2.24
,-9.17,-1.249,-4.25,-8.815,-0.857,-4.671,-2.24,3.36,6.65
,-9.287,-0.782,-4.161,-8.911,-0.682,-4.539,4.69,3.15,2.31
,-8.559,-0.519,-4.451,-9.067,-0.835,-4.456,12.39,1.12,1.4
32863.0,-8.614,-4.355,-1.962,-8.787,-0.304,-4.793,-14.84,0.98,6.3
,-9.581,-1.381,-3.544,-8.643,-0.637,-4.673,2.17,0.91,2.03
,-9.474,-0.658,-4.695,-8.447,-1.129,-4.678,14.77,0.0,-0.28
,-9.287,-0.546,-4.422,-8.722,-1.452,-4.618,13.93,-1.61,-0.42
32939.0,-9.131,-1.541,-4.247,-8.983,-1.177,-4.269,6.79,-1.19,2.45
,-9.186,-1.424,-4.302,-8.787,-1.35,-4.343,7.84,-1.54,3.08
,-9.201,-1.402,-4.269,-8.667,-0.928,-4.678,8.26,-1.75,3.36
,-9.038,-1.354,-4.188,-9.079,-0.699,-4.587,7.77,-1.61,4.13
33015.0,-8.988,-0.943,-4.286,-8.961,-0.325,-4.401,7.7,-2.94,5.6
,-8.897,-0.921,-3.924,-9.012,-0.225,-4.255,7.63,-2.87,6.02
,-8.775,-0.759,-4.145,-9.165,-0.244,-4.101,8.33,-3.64,5.81
,-8.83,-0.637,-4.417,-9.172,-0.323,-4.006,8.05,-3.85,5.6
33091.0,-9.117,-0.349,-3.838,-9.064,-0.665,-3.721,3.78,-3.78,1.68
,-8.94,-0.402,-3.841,-8.954,-0.778,-3.728,3.5,-3.5,0.63
,-8.811,-0.481,-3.781,-8.89,-0.835,-3.731,2.73,-2.8,0.07
,-9.021,-0.493,-3.666,-8.909,-0.859,-3.711,2.24,-1.89,-0.21
33167.0,-8.94,-0.916,-3.745,-8.93,-1.151,-3.69,-1.12,1.19,-0.56
,-9.067,-0.981,-3.618,-8.88,-1.256,-3.714,-1.19,1.19,-0.63
,-9.036,-1.077,-3.707,-8.772,-1.323,-3.786,-1.12,1.33,-0.35
,-9.11,-1.065,-3.85,-9.009,-1.211,-3.812,-0.98,1.61,-0.28
33242.0,-9.196,-1.036,-3.79,-9.043,-0.613,-3.994,3.15,4.69,1.68
,-9.019,-0.928,-3.743,-8.952,-0.727,-4.125,3.29,4.9,2.1
,-8.976,-0.715,-3.872,-9.086,-0.804,-4.07,2.94,4.83,2.45
,-8.871,-0.596,-3.888,-9.148,-0.742,-4.089,2.24,5.32,2.38
33318.0,-9.072,-0.797,-4.113,-8.906,-0.983,-4.365,1.68,6.09,1.12
,-9.021,-0.704,-4.453,-9.012,-0.854,-4.41,1.05,6.02,1.05
,-9.028,-0.759,-4.472,-9.007,-0.916,-4.482,0.28,6.23,1.05
,-8.973,-0.926,-4.396,-8.976,-0.876,-4.501,-0.35,5.74,1.19
33394.0,-8.952,-0.811,-4.673,-9.052,-1.565,-4.513,-2.17,6.65,0.84
,-9.162,-0.897,-4.826,-8.993,-1.551,-4.642,-4.06,5.67,1.33
,-9.026,-1.146,-4.774,-8.772,-1.311,-4.436,-6.44,5.04,1.54
,-8.933,-1.357,-4.771,-8.887,-1.079,-4.331,-7.28,5.04,1.68
33470.0,-8.782,-0.696,-4.63,-9.251,0.28,-4.393,-5.81,4.2,3.57
,-8.775,-0.28,-4.53,-9.091,0.696,-4.362,-6.09,4.27,2.52
,-9.182,0.043,-4.525,-8.861,0.431,-4.547,-7.14,4.2,1.05
,-9.287,0.105,-4.262,-8.882,0.038,-4.618,-7.98,3.78,-0.84
33545.0,-9.112,-0.369,-4.377,-9.026,-0.306,-4.803,-15.4,1.96,-4.13
,-9.347,-0.639,-4.331,-8.863,-0.615,-4.602,-14.14,2.38,-4.69
,-9.256,-0.433,-4.465,-8.942,-0.916,-4.413,-11.9,1.68,-5.04
,-8.887,-0.596,-4.487,-9.057,-0.883,-4.491,-11.76,1.05,-4.69
33621.0,-9.11,-0.883,-4.441,-8.777,-1.553,-4.109,-16.8,-0.21,-2.94
,-9.005,-1.299,-4.477,-9.167,-1.082,-4.475,-18.2,-0.07,-2.66
,-8.926,-1.194,-4.7,-8.911,-1.053,-4.499,-16.73,0.07,-2.52
,-8.818,-1.512,-4.652,-9.067,-0.864,-4.324,-15.89,0.14,-0.91
33696.0,-8.763,-0.993,-4.599,-9.093,-0.23,-4.805,-8.82,-1.54,1.33
,-8.966,-0.967,-4.444,-9.201,-0.443,-4.642,-9.03,-1.96,1.19
,-8.899,-0.639,-4.585,-8.959,-0.696,-4.542,-8.26,-2.45,1.33
,-8.804,-0.251,-4.611,-9.074,-0.579,-4.441,-7.7,-2.52,1.05
33772.0,-9.091,-0.792,-4.082,-8.796,-0.957,-4.69,-9.45,-2.59,0.7
,-8.847,-0.921,-4.298,-8.904,-0.538,-4.207,-10.08,-4.83,2.31
,-8.782,-0.96,-4.29,-9.086,-0.019,-4.487,-8.54,-4.34,2.8
,-8.758,-0.828,-4.558,-8.94,-0.455,-4.171,-6.65,-4.2,3.64
33848.0,-9.028,-0.254,-4.2,-9.246,-0.352,-4.468,-5.81,-5.32,2.45
,-8.842,-0.227,-4.207,-9.107,-0.349,-4.207,-6.23,-4.97,2.59
,-8.708,-0.814,-4.034,-8.76,-0.653,-4.171,-6.72,-3.57,3.01
,-9.22,-0.45,-4.226,-8.76,-0.316,-4.324,-3.64,-3.64,3.15
33924.0,-8.801,-0.414,-4.18,-9.191,-0.134,-4.075,-3.29,-5.39,2.87
,-8.844,-0.175,-4.463,-9.179,-0.038,-4.238,-1.4,-4.13,3.85
,-9.021,-0.735,-3.695,-9.019,0.041,-4.125,-1.26,-2.59,3.15
,-9.012,-0.462,-3.838,-8.894,0.129,-4.319,0.84,-2.66,3.22
34000.0,-8.921,0.029,-3.984,-8.969,0.024,-4.257,-3.29,-5.46,-0.28
,-9.043,0.215,-4.082,-9.083,-0.105,-4.188,-3.08,-5.81,-0.98
,-9.146,-0.254,-3.893,-9.055,-0.151,-4.166,-5.04,-6.58,-1.05
,-9.076,-0.017,-4.082,-9.174,0.012,-3.989,-4.41,-7.49,-1.4
34075.0,-8.813,-0.302,-3.817,-9.031,-0.83,-4.188,-7.28,-9.73,-5.74
,-9.033,-0.311,-4.118,-9.083,-0.96,-3.795,-7.28,-9.38,-5.18
,-9.261,1.05,-5.114,-9.227,-1.017,-3.64,-2.52,-9.31,-6.51
,-8.981,-0.773,-4.022,-9.153,-0.828,-3.697,-7.56,-9.52,-4.97
34151.0,-9.028,-0.651,-3.699,-9.162,-0.45,-3.85,0.7,-8.26,-1.96
,-9.038,-0.589,-3.855,-9.213,-0.421,-3.723,0.91,-9.45,-1.61
,-8.959,-0.22,-4.092,-9.256,-0.27,-3.57,1.61,-10.36,-2.17
,-8.973,-0.536,-4.011,-9.148,-0.196,-3.711,0.63,-10.5,-2.03
34227.0,-9.124,-0.103,-3.692,-9.433,-0.254,-3.283,4.69,-10.85,-2.31
,-9.158,0.105,-3.757,-9.227,-0.658,-3.094,2.66,-11.27,-2.87
,-9.361,-0.022,-3.628,-9.249,-0.383,-3.415,0.21,-11.69,-3.64
,-9.387,-0.426,-3.197,-9.103,-0.349,-3.542,-2.73,-11.76,-4.69
34303.0,-9.079,-0.354,-3.754,-9.411,-0.864,-3.429,-3.29,-11.97,-6.23
,-8.911,-0.782,-3.183,-9.249,-0.565,-3.228,-1.89,-11.13,-5.46
,-9.088,-1.043,-3.388,-9.098,-0.392,-3.357,-0.84,-10.78,-5.53
,-9.344,-0.909,-2.886,-9.308,-0.469,-3.245,3.08,-10.43,-5.25
34378.0,-9.351,-0.668,-2.986,-9.356,-0.483,-3.01,1.75,-9.94,-5.67
,-9.275,-0.739,-3.089,-9.344,-0.625,-3.084,2.17,-9.52,-6.09
,-9.196,-0.543,-3.331,-9.457,-0.388,-3.206,4.76,-9.31,-5.95
,-9.349,-0.641,-2.852,-9.38,-0.5,-3.396,6.09,-8.89,-5.39
34454.0,-9.363,-0.625,-3.503,-9.387,-0.61,-3.202,5.67,-9.1,-6.44
,-9.103,-0.402,-3.161,-9.344,-0.675,-3.295,7.14,-8.54,-6.51
,-9.325,-0.366,-3.288,-9.189,-0.737,-3.369,9.03,-8.26,-6.79
,-9.476,-0.514,-3.482,-9.222,-0.766,-3.412,6.86,-8.54,-7.14
34529.0,-9.246,-0.682,-3.005,-9.538,-0.814,-2.759,8.82,-8.61,-7.28
,-9.294,-0.598,-2.876,-9.433,-0.914,-2.797,9.38,-8.12,-7.42
,-9.462,-0.598,-2.635,-9.311,-1.012,-2.563,7.14,-7.77,-7.42
,-9.622,-0.797,-2.721,-9.371,-1.149,-2.694,5.6,-7.63,-7.28
34605.0,-9.148,-0.704,-2.582,-9.332,-0.897,-3.333,7.07,-5.04,-7.56
,-9.217,-0.696,-2.647,-9.311,-1.39,-3.216,6.44,-5.18,-7.21
,-9.517,-0.675,-3.233,-9.141,-1.177,-2.788,4.2,-5.88,-7.35
,-9.383,-0.816,-2.927,-9.387,-1.115,-2.955,2.17,-6.09,-7.49
34681.0,-9.605,-0.706,-2.953,-9.548,-1.235,-2.489,17.78,-6.86,-8.75
,-9.634,-0.29,-2.888,-9.311,-1.177,-2.685,15.12,-6.3,-7.91
,-9.514,-0.847,-2.699,-9.232,-1.297,-2.761,9.8,-5.67,-6.93
,-9.543,-1.199,-2.283,-9.344,-1.333,-2.807,5.53,-5.18,-6.79
34757.0,-9.404,-1.316,-2.656,-9.526,-1.077,-2.649,7.21,-3.36,-4.27
,-9.38,-1.225,-2.493,-9.488,-1.041,-2.891,9.03,-3.15,-3.99
,-9.505,-1.144,-2.477,-9.426,-0.991,-3.096,8.4,-3.08,-3.71
,-9.5,-1.098,-2.544,-9.375,-1.113,-3.092,8.19,-2.66,-3.22
34833.0,-9.447,-1.187,-3.218,-9.459,-1.225,-2.793,8.26,-3.22,-3.15
,-9.344,-1.173,-3.171,-9.536,-1.151,-2.706,9.24,-3.57,-3.22
,-9.332,-1.299,-2.879,-9.469,-0.981,-2.649,10.15,-3.99,-3.22
,-9.426,-1.299,-2.888,-9.454,-1.077,-2.546,10.99,-4.2,-3.22
34908.0,-9.423,-1.039,-2.429,-9.545,-1.51,-1.644,11.34,-3.71,-2.45
,-9.397,-1.292,-1.957,-9.502,-1.606,-1.677,11.06,-2.94,-2.1
,-9.464,-1.352,-1.883,-9.56,-1.531,-1.709,12.11,-2.38,-1.89
,-9.564,-1.429,-1.847,-9.545,-1.534,-1.728,11.83,-1.47,-1.61
34984.0,-9.629,-1.524,-1.864,-9.411,-1.287,-2.635,7.21,3.71,-0.49
,-9.598,-1.424,-2.022,-9.409,-1.177,-2.8,5.53,4.48,-0.49
,-9.519,-1.405,-2.28,-9.404,-1.132,-2.919,3.71,4.9,-0.49
,-9.459,-1.402,-2.455,-9.387,-1.173,-3.01,2.59,5.18,-0.49
35060.0,-9.442,-1.235,-3.12,-9.438,-1.316,-3.13,2.24,4.55,-0.49
,-9.426,-1.297,-3.223,-9.454,-1.287,-3.159,2.87,4.13,-0.28
,-9.45,-1.364,-3.123,-9.426,-1.357,-3.12,3.71,3.57,0.07
,-9.378,-1.376,-3.12,-9.306,-1.409,-3.039,5.04,3.15,0.28
35136.0,-9.368,-1.474,-2.977,-9.435,-1.297,-2.493,3.99,0.84,-0.21
,-9.466,-1.419,-2.869,-9.488,-1.34,-2.453,4.41,0.56,-0.21
,-9.426,-1.275,-2.845,-9.533,-1.352,-2.438,4.27,0.21,-0.28
,-9.418,-1.199,-2.632,-9.521,-1.419,-2.541,3.5,0.35,-0.21
35211.0,-9.49,-1.455,-2.642,-9.481,-1.385,-2.984,-0.07,0.98,-0.21
,-9.407,-1.493,-2.613,-9.373,-1.338,-2.986,-0.07,1.19,-0.21
,-9.447,-1.419,-2.773,-9.33,-1.405,-3.039,0.42,1.19,-0.14
,-9.44,-1.33,-2.883,-9.399,-1.354,-3.082,0.49,0.98,-0.07
35287.0,-9.414,-1.263,-2.766,-9.5,-1.4,-2.381,3.92,-0.21,0.77
,-9.418,-1.144,-2.795,-9.442,-1.409,-2.367,3.64,-0.63,0.42
,-9.545,-1.261,-2.718,-9.519,-1.467,-2.321,1.82,-1.19,0.14
,-9.526,-1.297,-2.544,-9.426,-1.476,-2.278,0.42,-1.19,0.07
35362.0,-9.469,-1.536,-2.206,-9.524,-1.381,-2.443,-1.82,0.56,0.42
,-9.529,-1.493,-2.24,-9.457,-1.338,-2.608,-0.91,1.12,0.7
,-9.579,-1.409,-2.276,-9.387,-1.34,-2.678,-0.63,1.61,0.77
,-9.545,-1.383,-2.264,-9.366,-1.354,-2.702,-0.91,2.1,0.98
35438.0,-9.462,-1.271,-2.728,-9.409,-1.297,-2.917,0.56,2.45,1.33
,-9.505,-1.156,-2.879,-9.39,-1.342,-2.953,1.05,2.31,1.26
,-9.517,-1.117,-2.824,-9.399,-1.287,-2.927,0.0,2.03,1.12
,-9.488,-1.204,-2.769,-9.414,-1.235,-2.891,-0.91,2.1,1.12
35514.0,-9.459,-1.225,-2.917,-9.481,-1.338,-2.778,1.47,1.19,1.26
,-9.497,-1.261,-2.84,-9.428,-1.256,-2.737,1.05,0.98,1.19
,-9.454,-1.316,-2.69,-9.416,-1.247,-2.697,0.42,0.77,1.19
,-9.462,-1.414,-2.723,-9.44,-1.24,-2.522,0.84,0.84,1.26
35590.0,-9.474,-1.34,-2.534,-9.509,-1.311,-2.594,0.21,1.05,1.33
,-9.457,-1.357,-2.46,-9.45,-1.326,-2.685,0.28,1.12,1.33
,-9.524,-1.472,-2.393,-9.421,-1.273,-2.714,0.56,1.47,1.4
,-9.533,-1.393,-2.448,-9.404,-1.23,-2.694,1.75,1.89,1.68
35665.0,-9.418,-1.084,-2.819,-9.433,-1.29,-2.783,4.62,2.31,2.03
,-9.438,-1.134,-2.728,-9.43,-1.295,-2.785,3.78,2.31,1.96
,-9.462,-1.184,-2.749,-9.433,-1.254,-2.828,2.66,2.17,1.82
,-9.452,-1.263,-2.771,-9.39,-1.146,-2.728,2.31,2.1,1.82
35741.0,-9.452,-1.223,-2.771,-9.469,-1.297,-2.654,1.68,1.19,1.33
,-9.485,-1.299,-2.757,-9.407,-1.304,-2.697,1.12,1.19,1.26
,-9.505,-1.283,-2.699,-9.404,-1.335,-2.527,0.63,0.98,1.26
,-9.457,-1.318,-2.608,-9.442,-1.292,-2.627,0.77,1.05,1.4
35817.0,-9.485,-1.302,-2.589,-9.512,-1.285,-2.754,1.05,1.19,1.75
,-9.497,-1.287,-2.584,-9.466,-1.029,-2.986,0.7,1.33,1.82
,-9.469,-1.378,-2.685,-9.452,-1.089,-2.867,0.14,1.33,1.89
,-9.524,-1.421,-2.682,-9.435,-1.256,-2.637,-0.14,1.4,1.68
35893.0,-9.361,-1.316,-2.515,-9.397,-1.496,-2.268,-2.59,0.63,1.4
,-9.423,-1.278,-2.656,-9.397,-1.402,-2.283,-1.82,0.84,1.75
,-9.512,-1.409,-2.541,-9.481,-1.285,-2.216,-1.61,1.4,2.03
,-9.474,-1.5,-2.474,-9.521,-1.321,-2.182,-1.47,1.68,2.24
35969.0,-9.545,-1.249,-2.151,-9.624,-1.225,-1.862,-4.13,3.92,2.73
,-9.39,-1.156,-2.058,-9.531,-1.424,-2.032,-4.9,4.76,2.8
,-9.485,-1.153,-2.022,-9.49,-1.027,-2.467,-5.32,5.6,3.08
,-9.414,-0.763,-2.68,-9.43,-1.067,-2.486,-6.37,6.58,3.22
36044.0,-9.363,-1.079,-2.429,-9.462,-1.235,-2.388,-8.89,8.19,3.85
,-9.316,-0.933,-2.728,-9.663,-0.924,-2.721,-8.12,8.68,4.2
,-9.416,-1.268,-2.247,-9.696,-0.665,-2.965,-8.05,9.59,4.55
,-9.414,-1.354,-2.436,-9.462,-0.491,-3.57,-6.79,9.52,4.41
36120.0,-9.227,-0.591,-4.128,-9.256,-1.491,-3.041,-11.55,6.37,2.8
,-8.942,-1.177,-3.764,-9.433,-1.108,-3.269,-12.46,7.21,3.64
,-9.007,-1.261,-3.845,-9.505,-1.196,-3.139,-10.78,8.12,4.13
,-9.17,-1.689,-2.989,-9.454,-1.225,-2.733,-6.37,8.4,4.41
36195.0,-9.593,-1.366,-2.974,-9.093,-1.613,-2.943,3.22,6.23,7.84
,-9.433,-1.515,-3.269,-9.423,-1.462,-3.029,3.5,6.09,8.61
,-9.335,-1.536,-3.07,-9.162,-1.412,-3.029,5.53,6.3,9.59
,-9.198,-1.642,-3.247,-9.385,-1.414,-2.553,8.54,6.44,10.71
36271.0,-9.404,-1.374,-2.393,-9.239,-0.404,-2.553,20.58,10.01,13.09
,-9.462,-0.972,-1.888,-9.241,-0.495,-2.24,22.33,10.92,13.23
,-9.464,-0.773,-2.194,-9.191,-0.493,-2.56,22.89,10.92,12.95
,-9.375,-0.383,-2.362,-9.213,-0.361,-2.864,20.44,10.85,12.46
36347.0,-9.239,-0.227,-3.443,-9.119,0.637,-3.209,16.94,13.09,11.13
,-9.198,0.354,-3.709,-9.227,0.144,-2.781,16.03,11.55,9.45
,-9.318,0.507,-3.628,-9.198,-0.191,-2.776,13.02,11.2,7.28
,-9.332,0.711,-3.654,-9.284,-0.907,-2.943,8.82,11.34,4.62
36423.0,-9.466,-1.273,-3.046,-9.33,-0.459,-3.711,-4.34,14.42,-0.07
,-9.596,-1.33,-3.092,-9.196,-0.412,-3.936,-1.47,14.77,0.84
,-9.481,-1.218,-3.271,-9.127,-0.443,-3.664,2.31,15.19,1.19
,-9.404,-0.878,-3.563,-9.179,-0.467,-3.857,4.34,14.77,0.77
36498.0,-9.079,-0.756,-4.046,-9.275,-1.716,-3.144,-2.87,7.49,-2.17
,-9.16,-1.053,-4.171,-9.086,-1.728,-3.25,-4.2,7.49,-2.1
,-9.115,-1.366,-4.149,-9.172,-1.584,-2.931,-5.18,9.31,-0.91
,-9.045,-1.685,-3.374,-9.318,-1.027,-3.096,-3.85,11.62,-0.63
36574.0,-9.38,-0.895,-3.238,-8.971,-0.861,-2.852,10.36,10.85,2.59
,-9.244,-0.648,-3.498,-8.976,-0.794,-2.96,10.36,10.57,2.59
,-9.098,-0.711,-3.47,-9.16,-0.718,-3.037,8.47,12.39,2.73
,-8.868,-0.943,-3.293,-9.284,-0.591,-3.151,7.21,15.19,2.94
36650.0,-9.136,-0.447,-3.331,-9.052,-0.615,-3.57,8.75,14.91,0.91
,-9.186,-0.385,-3.204,-9.055,-0.562,-3.8,7.42,15.05,0.0
,-8.981,0.11,-3.676,-9.184,-0.302,-4.135,4.27,16.24,1.05
,-8.818,-0.648,-3.218,-9.263,-0.208,-4.587,1.05,15.75,-0.42
36726.0,-9.024,-0.806,-3.762,-8.985,-0.56,-4.439,-1.19,16.24,-2.87
,-8.935,-0.567,-4.353,-9.095,-0.682,-4.384,2.17,14.42,-4.55
,-8.993,-0.177,-4.788,-9.284,-0.596,-4.585,3.15,15.61,-2.8
,-8.873,-0.34,-4.762,-9.04,-1.287,-4.513,3.92,15.54,-4.41
36802.0,-9.062,-1.199,-4.748,-9.069,-0.802,-4.29,2.38,13.86,-3.29
,-8.942,-1.455,-4.489,-9.016,-1.263,-4.226,4.83,13.16,-2.8
,-8.837,-1.381,-4.279,-8.993,-0.893,-4.367,2.66,12.95,-1.82
,-8.681,-1.247,-4.401,-9.007,-0.426,-4.767,5.39,12.11,-2.87
36877.0,-8.835,-0.225,-4.446,-9.026,-0.926,-4.262,7.0,8.75,-2.45
,-8.789,-0.01,-4.578,-8.885,-1.922,-4.286,5.32,8.61,-3.43
,-9.119,-0.452,-4.279,-8.789,-2.551,-4.013,2.38,7.63,-3.22
,-8.899,-0.706,-4.31,-8.811,-3.69,-3.508,1.82,6.86,-2.87
36953.0,-8.94,-2.072,-4.451,-8.6,-1.491,-4.678,6.51,10.01,3.5
,-8.677,-2.015,-4.324,-9.028,-1.488,-4.561,8.75,9.59,4.62
,-8.792,-1.697,-4.489,-9.335,-1.003,-4.769,11.41,9.1,5.11
,-8.425,-1.551,-5.102,-9.05,-1.082,-4.563,14.35,8.26,5.32
37028.0,-9.363,-0.814,-4.606,-8.813,0.235,-5.044,16.31,8.26,5.81
,-9.323,-0.665,-4.695,-8.339,-0.263,-5.097,16.38,7.56,5.67
,-8.882,-0.215,-4.585,-8.629,-0.414,-5.044,16.59,5.95,5.11
,-8.952,-0.249,-4.826,-9.067,-0.833,-4.676,14.84,5.32,4.76
37104.0,-9.062,-1.005,-4.554,-8.873,-1.61,-4.233,8.61,3.43,2.03
,-8.854,-1.082,-4.441,-8.619,-1.299,-4.558,9.38,2.87,1.68
,-9.048,-1.431,-4.398,-8.471,-1.33,-4.501,8.75,2.59,1.54
,-9.04,-1.754,-4.434,-8.878,-1.713,-4.19,8.89,2.66,1.61
37180.0,-8.861,-1.285,-4.573,-9.057,-1.601,-4.269,11.13,3.29,3.78
,-8.665,-1.527,-4.47,-8.732,-1.12,-4.331,8.33,2.66,5.46
,-9.0,-2.228,-3.967,-8.71,-0.799,-4.535,7.63,2.73,5.67
,-9.083,-1.855,-4.453,-8.94,-0.378,-4.779,13.02,2.45,5.53
37256.0,-8.854,-0.158,-4.951,-8.459,-1.51,-4.353,14.42,1.82,3.99
,-8.952,-0.498,-4.685,-8.55,-2.479,-3.551,12.6,1.75,3.43
,-9.139,-0.785,-4.578,-9.038,-1.196,-4.587,12.04,1.12,3.71
,-8.854,-0.694,-4.719,-8.88,-1.24,-4.539,10.29,0.42,4.34
37331.0,-8.428,-2.74,-3.75,-8.658,-1.642,-4.362,11.48,-1.12,5.11
,-8.99,-1.041,-4.96,-8.674,-1.816,-4.441,15.61,-1.96,4.9
,-8.835,-1.318,-4.688,-8.701,-1.788,-4.525,14.49,-1.61,4.97
,-8.961,-1.709,-4.614,-8.832,-1.409,-4.336,11.48,-1.26,5.88
37407.0,-8.811,-1.053,-4.535,-8.885,-0.294,-4.633,13.23,-2.24,8.89
,-8.839,-0.933,-4.453,-8.746,-0.562,-4.137,11.62,-2.31,8.82
,-8.942,-0.876,-4.346,-8.954,-0.589,-4.116,11.13,-2.66,8.96
,-8.859,-0.495,-4.154,-8.856,-0.627,-4.156,10.36,-2.45,9.38
37482.0,-9.062,-0.471,-4.118,-9.014,0.072,-4.25,9.31,-0.77,6.93
,-8.875,-0.445,-3.946,-9.014,-0.041,-4.252,9.1,-0.77,6.51
,-8.83,-0.06,-4.235,-8.997,-0.141,-4.381,9.66,-0.56,5.39
,-8.82,0.124,-4.429,-9.057,-0.345,-4.329,9.24,-0.42,4.2
37558.0,-8.859,-0.849,-4.223,-8.734,-1.084,-3.893,1.33,-0.84,-0.7
,-8.911,-1.034,-4.14,-8.796,-1.144,-4.137,1.68,-0.56,-1.05
,-9.093,-1.168,-4.006,-8.772,-1.345,-4.109,2.87,-0.42,-1.12
,-8.918,-1.086,-3.996,-8.942,-1.474,-4.027,2.8,-0.21,-1.12
37634.0,-8.933,-1.34,-4.121,-8.926,-1.141,-4.326,1.33,2.38,0.21
,-9.016,-1.266,-4.099,-8.945,-1.299,-4.274,2.17,2.66,0.21
,-9.014,-1.283,-4.082,-8.796,-1.493,-4.14,2.17,2.87,0.56
,-8.945,-1.139,-4.221,-8.751,-1.496,-4.049,2.66,2.8,0.77
37710.0,-8.789,-1.486,-3.848,-8.964,-0.581,-4.403,2.45,3.99,3.99
,-8.818,-1.201,-3.843,-9.028,-0.352,-4.707,3.22,4.06,4.13
,-8.842,-0.979,-4.039,-9.112,-0.462,-4.647,3.57,4.48,4.27
,-8.899,-0.89,-4.338,-9.1,-0.782,-4.427,3.78,4.41,3.92
37786.0,-8.976,-1.029,-4.099,-9.079,-0.73,-4.439,-0.77,4.06,1.4
,-8.71,-1.29,-3.979,-9.148,-0.244,-4.642,-1.68,4.41,2.38
,-8.552,-1.333,-4.145,-9.112,-0.144,-4.74,-2.8,5.18,3.36
,-8.765,-1.216,-4.413,-8.957,-0.254,-4.652,-2.8,6.02,3.64
37861.0,-8.808,-0.258,-4.731,-8.768,-0.883,-4.434,-8.75,5.46,-2.8
,-8.873,-0.244,-4.764,-8.744,-0.995,-4.829,-9.66,5.46,-3.15
