Timestamp,AccX,AccY,AccZ,GyroX,GyroY,GyroZ,MagnX,MagnY,MagnZ
0.0,-9.44,0.098,-3.058,-9.44,0.115,-3.022,2.45,1.47,0.56
,-9.447,0.098,-3.068,-9.45,0.136,-2.953,2.52,1.33,0.63
,-9.464,0.098,-3.101,-9.471,0.11,-2.962,2.73,1.26,0.63
,-9.44,0.079,-3.053,-9.445,0.098,-2.984,3.01,1.47,0.77
76.0,-9.442,0.055,-2.967,-9.474,0.103,-2.998,2.66,1.4,0.63
,-9.452,0.086,-3.034,-9.44,0.103,-3.015,2.73,1.19,0.56
,-9.445,0.108,-3.029,-9.428,0.132,-2.984,2.66,1.4,0.56
,-9.442,0.086,-3.027,-9.435,0.124,-2.994,2.59,1.4,0.56
152.0,-9.464,0.048,-3.005,-9.474,0.132,-2.974,2.73,1.47,0.63
,-9.452,0.041,-3.003,-9.471,0.122,-2.998,2.66,1.68,0.63
,-9.44,0.084,-3.013,-9.469,0.117,-2.96,2.73,1.47,0.56
,-9.488,0.101,-3.027,-9.43,0.081,-2.972,2.87,1.61,0.7
227.0,-9.459,0.091,-3.017,-9.519,0.101,-3.02,2.87,1.68,0.7
,-9.466,0.11,-3.032,-9.462,0.127,-3.013,3.08,1.75,0.7
,-9.471,0.122,-3.005,-9.452,0.057,-3.037,3.01,1.82,0.77
,-9.452,0.124,-2.998,-9.402,0.089,-3.01,2.87,1.89,0.7
302.0,-9.5,0.081,-3.046,-9.445,0.101,-3.008,2.87,1.68,0.63
,-9.45,0.084,-3.022,-9.426,0.065,-3.041,3.01,1.54,0.63
,-9.433,0.072,-3.058,-9.399,0.103,-3.058,3.15,1.54,0.7
,-9.488,0.151,-3.008,-9.445,0.112,-3.049,3.15,1.68,0.7
378.0,-9.454,0.11,-3.022,-9.438,0.077,-2.965,2.45,1.54,0.56
,-9.428,0.086,-3.008,-9.428,0.086,-2.955,2.31,1.54,0.49
,-9.509,0.055,-3.008,-9.418,0.129,-3.034,2.31,1.68,0.56
,-9.445,0.077,-2.97,-9.438,0.124,-3.053,2.38,1.68,0.56
454.0,-9.459,0.086,-3.025,-9.421,0.129,-3.077,2.59,1.96,0.7
,-9.45,0.096,-3.128,-9.438,0.117,-3.056,2.73,1.68,0.63
,-9.464,0.129,-3.056,-9.409,0.06,-3.039,2.73,1.68,0.56
,-9.423,0.115,-3.039,-9.466,0.101,-3.087,2.66,1.75,0.63
530.0,-9.414,0.084,-3.044,-9.474,0.16,-2.994,2.45,1.26,0.63
,-9.426,0.072,-3.032,-9.478,0.115,-3.003,2.38,1.12,0.56
,-9.397,0.081,-3.01,-9.45,0.048,-3.027,2.45,1.19,0.56
,-9.469,0.101,-2.962,-9.411,0.06,-3.061,2.38,1.19,0.49
605.0,-9.433,0.093,-3.046,-9.447,0.081,-2.986,2.59,1.33,0.56
,-9.426,0.079,-2.991,-9.414,0.014,-2.936,2.52,1.4,0.63
,-9.481,0.091,-3.005,-9.485,0.062,-2.97,2.52,1.26,0.63
,-9.488,0.098,-3.015,-9.471,0.053,-2.936,2.45,1.26,0.63
681.0,-9.45,0.053,-3.017,-9.407,0.103,-3.056,2.59,1.68,0.84
,-9.478,0.06,-3.027,-9.426,0.146,-3.082,2.59,1.47,0.7
,-9.421,0.115,-3.056,-9.438,0.115,-3.015,2.73,1.61,0.77
,-9.383,0.122,-3.056,-9.469,0.072,-3.003,2.66,1.68,0.77
757.0,-9.416,0.089,-2.977,-9.421,0.065,-2.994,2.52,1.47,0.7
,-9.435,0.069,-2.996,-9.402,0.055,-3.022,2.52,1.47,0.77
,-9.457,0.081,-3.039,-9.416,0.067,-3.005,2.59,1.54,0.7
,-9.435,0.043,-3.022,-9.45,0.05,-2.996,2.59,1.4,0.63
833.0,-9.45,0.096,-2.984,-9.476,0.086,-3.075,2.45,1.47,0.77
,-9.447,0.084,-2.982,-9.44,0.045,-3.049,2.52,1.61,0.91
,-9.466,0.105,-2.982,-9.435,0.05,-3.058,2.38,1.61,0.91
,-9.402,0.077,-3.039,-9.476,0.077,-3.08,2.52,1.61,0.84
909.0,-9.438,0.129,-3.061,-9.469,0.077,-3.005,2.73,1.26,0.91
,-9.466,0.098,-3.092,-9.433,0.12,-2.991,2.52,1.26,0.77
,-9.452,0.108,-3.025,-9.478,0.112,-3.046,2.45,1.4,0.77
,-9.433,0.072,-3.037,-9.407,0.108,-3.034,2.38,1.33,0.77
984.0,-9.438,0.072,-3.061,-9.418,0.122,-2.982,1.75,1.05,0.49
,-9.466,0.067,-3.065,-9.421,0.062,-2.974,2.03,0.91,0.56
,-9.392,0.11,-3.041,-9.423,0.105,-2.781,2.03,0.91,0.56
,-9.426,0.081,-3.025,-9.43,-0.093,-2.819,2.03,0.77,0.49
1060.0,-9.435,0.048,-2.95,-9.452,0.12,-3.192,2.17,0.77,0.49
,-9.469,0.153,-3.072,-9.402,0.105,-2.931,3.08,0.84,0.49
,-9.435,0.215,-3.202,-9.488,0.007,-3.049,3.01,0.7,0.56
,-9.452,0.141,-3.051,-9.445,-0.05,-3.017,2.59,0.77,0.49
1135.0,-9.442,0.141,-2.948,-9.519,0.01,-3.087,3.71,0.77,0.63
,-9.469,0.072,-2.953,-9.524,0.079,-2.934,3.57,0.91,0.84
,-9.459,0.156,-2.996,-9.529,0.103,-2.989,3.36,0.7,0.77
,-9.409,0.115,-3.216,-9.469,0.168,-3.082,3.57,0.56,0.56
1211.0,-9.457,0.105,-3.02,-9.459,0.105,-2.836,2.73,0.77,0.56
,-9.428,0.057,-3.001,-9.442,0.153,-2.919,2.87,0.63,0.42
,-9.407,0.053,-2.898,-9.466,0.093,-3.025,2.38,0.56,0.49
,-9.442,0.101,-2.793,-9.497,0.093,-2.955,2.73,0.56,0.63
1287.0,-9.464,-0.041,-2.927,-9.481,0.11,-2.922,1.68,0.63,0.49
,-9.471,0.014,-2.982,-9.447,0.153,-2.924,2.8,0.77,0.7
,-9.464,0.069,-3.051,-9.38,0.17,-2.833,3.71,0.63,0.7
,-9.476,0.163,-2.907,-9.488,0.048,-2.943,3.78,0.63,0.77
1363.0,-9.483,0.036,-2.927,-9.493,0.156,-2.97,1.26,0.42,0.21
,-9.459,0.034,-2.862,-9.469,0.211,-3.053,1.33,0.42,0.28
,-9.45,0.01,-2.946,-9.471,0.108,-3.075,1.4,0.56,0.28
,-9.464,0.079,-2.8,-9.43,0.029,-3.111,1.75,0.77,0.35
1438.0,-9.459,0.029,-3.053,-9.485,0.117,-2.831,2.52,-0.21,0.0
,-9.411,0.057,-3.049,-9.476,0.019,-2.903,3.22,-0.35,0.14
,-9.442,0.12,-3.02,-9.464,-0.022,-2.764,3.5,-0.42,0.14
,-9.476,0.191,-2.915,-9.43,-0.002,-2.556,2.94,-0.49,-0.07
1514.0,-9.557,0.12,-2.395,-9.483,-0.163,-1.732,2.73,0.56,0.35
,-9.624,0.117,-2.333,-9.548,-0.148,-1.603,2.1,0.98,0.21
,-9.533,0.086,-2.278,-9.643,-0.127,-1.563,0.7,1.82,0.14
,-9.483,-0.062,-2.008,-9.639,-0.062,-1.563,-0.84,3.01,0.28
1589.0,-9.608,0.005,-1.866,-9.411,-0.309,-2.319,-2.24,10.64,1.89
,-9.538,-0.06,-2.079,-9.526,-0.658,-2.091,-3.29,12.11,2.17
,-9.404,-0.12,-2.079,-9.428,-0.029,-2.826,-3.92,13.44,2.73
,-9.44,-0.256,-2.18,-9.335,0.256,-3.19,-3.43,14.98,3.36
1665.0,-9.313,0.266,-2.977,-9.241,0.096,-3.613,0.14,18.27,4.83
,-9.38,0.261,-3.061,-9.162,-0.065,-3.695,-0.77,18.55,4.9
,-9.392,0.223,-2.91,-9.225,-0.182,-3.616,-0.35,18.69,5.04
,-9.428,0.306,-3.544,-9.287,-0.062,-3.79,-0.77,17.92,4.62
1741.0,-9.196,0.22,-4.128,-9.356,0.342,-3.606,5.53,15.68,5.18
,-9.139,0.443,-3.944,-9.174,0.538,-3.623,5.32,14.77,5.25
,-9.21,0.361,-4.006,-9.052,0.385,-3.63,3.36,14.14,5.04
,-9.311,0.223,-3.345,-9.174,0.232,-3.781,2.94,13.86,5.04
1817.0,-9.287,-0.215,-3.307,-9.057,0.483,-3.271,-2.24,13.02,4.34
,-9.28,-0.517,-2.319,-8.969,0.139,-3.74,1.47,15.26,5.32
,-9.301,-0.179,-2.046,-9.127,-0.45,-3.999,6.79,16.66,5.67
,-9.21,0.357,-2.728,-9.249,-0.627,-4.025,6.16,16.17,5.18
1893.0,-9.184,-0.507,-4.039,-9.222,0.392,-3.063,4.41,15.68,8.4
,-9.005,-0.098,-3.888,-9.172,0.323,-3.331,9.1,15.82,8.19
,-8.823,0.16,-3.307,-9.088,0.378,-3.79,11.55,16.03,8.89
,-9.225,0.28,-3.058,-9.155,0.615,-3.975,13.72,16.52,9.38
1968.0,-9.026,1.283,-4.511,-8.871,1.129,-4.2,18.2,16.87,10.71
,-9.074,1.043,-3.436,-8.837,0.735,-3.853,14.91,17.99,8.89
,-9.177,1.153,-3.52,-8.902,0.553,-3.321,12.18,17.85,6.44
,-9.014,1.35,-3.965,-8.854,0.601,-3.707,9.24,17.22,4.76
2044.0,-8.995,0.5,-3.446,-9.04,-0.328,-4.08,0.63,18.48,2.8
,-9.064,0.297,-3.671,-8.789,-0.11,-4.219,-2.38,18.2,3.01
,-8.978,-0.136,-3.597,-8.739,-0.084,-4.066,-5.04,18.55,3.64
,-9.036,-0.335,-3.664,-8.756,0.311,-4.558,-3.5,19.53,4.55
2120.0,-8.638,0.443,-4.444,-8.988,1.309,-4.87,6.16,19.67,6.58
,-8.658,0.455,-4.008,-8.921,1.058,-5.059,9.38,20.86,6.51
,-8.839,0.924,-4.073,-8.923,0.613,-4.81,14.14,20.93,6.02
,-8.863,1.333,-4.649,-8.897,0.27,-4.606,15.89,19.81,5.53
2196.0,-9.024,0.096,-4.513,-8.591,0.098,-4.599,9.24,18.97,4.2
,-8.875,0.242,-4.46,-8.705,-0.029,-4.774,10.01,18.34,3.36
,-8.784,0.4,-4.535,-8.641,0.069,-4.69,9.03,17.92,3.01
,-8.576,0.369,-4.46,-8.48,0.464,-4.915,6.3,18.13,3.01
2271.0,-8.375,0.948,-5.09,-9.088,1.364,-4.774,9.38,16.38,4.13
,-8.538,1.39,-5.205,-9.016,1.094,-4.771,10.15,15.61,3.57
,-8.844,1.586,-5.104,-8.677,0.799,-4.793,8.89,15.26,2.52
,-8.993,1.481,-5.018,-8.629,0.218,-4.587,6.65,15.4,1.33
2347.0,-8.607,0.055,-4.477,-8.416,0.16,-5.243,-0.49,14.28,-0.49
,-8.545,-0.117,-4.719,-8.236,0.409,-5.408,0.35,13.79,0.28
,-8.701,0.084,-5.288,-8.287,0.756,-5.346,3.64,13.93,1.54
,-8.665,-0.093,-5.195,-8.406,1.177,-5.145,3.22,13.16,2.31
2423.0,-8.801,1.46,-5.08,-8.358,1.438,-5.621,3.5,14.0,-2.52
,-8.698,1.68,-5.128,-8.576,0.952,-5.47,1.33,13.51,-3.36
,-8.447,1.737,-5.135,-8.65,0.28,-5.14,-0.49,12.95,-3.78
,-8.296,1.622,-5.48,-8.588,-0.263,-4.946,-1.89,12.25,-4.76
2499.0,-8.492,-0.682,-4.7,-8.483,-0.254,-5.413,-0.42,12.46,-5.04
,-8.361,-0.759,-4.633,-8.21,-0.235,-5.638,0.84,11.55,-3.92
,-8.289,-0.644,-4.755,-8.055,-0.211,-5.841,2.73,11.27,-2.87
,-8.411,-0.459,-5.042,-8.031,-0.141,-5.937,3.22,11.41,-1.68
2574.0,-8.131,-0.129,-5.784,-8.67,0.158,-5.437,7.91,10.36,4.27
,-8.303,-0.254,-5.714,-8.703,0.476,-5.267,8.68,9.94,5.32
,-8.677,-0.278,-5.434,-8.873,0.919,-5.329,9.24,9.1,6.09
,-8.792,-0.108,-5.487,-8.83,1.275,-5.571,10.57,8.26,7.0
2650.0,-8.861,1.421,-5.784,-7.995,0.718,-5.76,8.54,5.39,1.61
,-8.38,1.402,-5.92,-8.411,0.436,-5.726,7.21,5.25,-0.63
,-8.007,1.23,-5.925,-8.555,0.196,-5.717,7.07,5.53,-2.1
,-7.808,1.062,-5.776,-8.6,-0.077,-5.702,7.28,5.53,-2.8
2725.0,-8.516,-0.026,-5.331,-8.425,0.972,-5.707,9.59,1.54,-2.52
,-8.39,0.129,-5.329,-8.334,0.835,-5.937,10.71,1.4,-3.29
,-8.385,0.526,-5.334,-8.277,0.627,-6.037,10.5,0.91,-3.5
,-8.425,0.763,-5.499,-8.244,0.261,-5.987,8.54,-0.21,-3.57
2801.0,-8.234,-0.079,-5.731,-8.662,-0.653,-5.355,4.48,-3.71,-4.06
,-8.205,-0.239,-5.781,-8.579,-0.601,-5.291,5.67,-4.69,-2.24
,-8.155,-0.531,-5.59,-8.55,-0.263,-5.341,6.02,-5.11,-0.63
,-8.49,-0.73,-5.3,-8.536,0.129,-5.535,6.3,-6.09,1.05
2877.0,-8.538,0.503,-5.571,-8.459,0.503,-5.528,9.87,-7.98,0.84
,-8.476,0.732,-5.42,-8.294,0.206,-5.386,8.12,-9.38,0.56
,-8.234,0.715,-5.497,-8.344,-0.055,-5.212,7.42,-9.73,0.14
,-8.315,0.744,-5.619,-8.488,-0.196,-5.087,6.51,-9.87,-0.7
2953.0,-8.72,-0.232,-5.006,-8.282,-0.67,-4.817,11.27,-8.12,-0.77
,-8.815,-0.287,-4.908,-8.641,-0.333,-4.85,10.64,-8.89,0.63
,-8.562,-0.481,-4.992,-8.906,-0.019,-4.944,8.61,-9.52,2.03
,-8.301,-0.629,-4.781,-8.758,0.055,-4.779,7.42,-8.47,3.08
3029.0,-8.715,0.089,-4.53,-8.686,0.091,-4.661,10.22,-5.81,3.71
,-8.449,0.199,-4.692,-8.794,0.115,-4.779,9.87,-5.53,4.62
,-8.241,0.304,-4.759,-8.801,0.144,-4.688,10.08,-4.62,5.25
,-8.409,0.191,-4.822,-8.686,0.424,-4.661,9.73,-3.08,5.32
3104.0,-8.442,0.668,-4.776,-8.581,0.402,-4.824,12.11,-0.42,3.64
,-8.512,0.747,-4.838,-8.325,0.313,-4.86,10.36,0.07,2.73
,-9.009,0.579,-4.865,-8.492,0.345,-4.949,8.82,-0.07,2.17
,-8.832,0.526,-4.893,-8.71,0.39,-5.027,7.77,-0.28,1.82
3180.0,-8.624,0.385,-4.87,-8.667,-0.33,-4.953,4.41,1.54,1.96
,-8.607,0.256,-4.965,-8.698,-0.325,-5.068,3.01,1.33,2.17
,-8.533,-0.285,-4.824,-8.581,-0.845,-4.855,1.54,1.4,2.17
,-8.605,-0.445,-4.817,-8.457,-1.127,-4.791,2.17,1.75,2.59
3256.0,-8.698,-0.593,-5.049,-8.672,-0.373,-5.341,7.21,5.53,6.37
,-8.753,-0.199,-5.279,-8.839,-0.428,-5.233,7.77,5.6,7.28
,-8.67,-0.077,-5.341,-8.806,-0.16,-5.185,6.51,5.39,7.91
,-8.6,-0.17,-5.415,-8.799,0.29,-5.312,5.04,5.18,8.61
3332.0,-8.758,0.56,-5.296,-8.725,0.699,-5.312,4.76,5.81,9.59
,-8.55,0.529,-5.183,-8.801,1.007,-5.542,2.17,5.32,9.73
,-8.433,0.558,-5.051,-8.658,1.003,-5.439,-0.28,5.18,9.66
,-8.44,0.503,-5.083,-8.67,1.043,-5.343,-1.61,4.97,9.38
3407.0,-8.593,1.041,-5.245,-8.746,1.168,-5.26,-5.88,2.59,4.97
,-8.6,0.995,-5.353,-8.751,1.039,-5.2,-7.21,1.68,4.34
,-8.607,1.046,-5.229,-8.569,0.84,-5.262,-7.21,1.4,3.64
,-8.588,1.007,-5.252,-8.658,0.617,-5.233,-7.14,1.12,2.94
3483.0,-8.717,0.617,-5.286,-8.392,0.861,-5.803,-10.36,2.59,1.19
,-8.595,0.775,-5.516,-8.485,0.23,-5.468,-8.61,2.59,1.19
,-8.392,0.749,-5.449,-8.698,-0.098,-5.293,-9.03,3.01,0.7
,-8.677,0.608,-5.13,-8.928,-0.495,-5.343,-11.27,1.82,0.07
3558.0,-8.796,-0.467,-5.611,-8.366,0.383,-5.602,-9.73,1.26,1.47
,-8.519,-0.065,-5.934,-8.39,0.385,-5.525,-5.32,1.75,2.1
,-8.619,-0.086,-5.669,-8.634,0.524,-5.781,-1.61,1.4,2.45
,-8.646,0.254,-5.635,-8.646,0.529,-5.631,-1.54,-1.61,1.89
3634.0,-8.536,0.526,-5.528,-8.404,1.122,-5.331,-0.7,-4.83,0.77
,-8.461,0.581,-5.406,-8.495,1.309,-5.083,1.47,-4.06,0.42
,-8.397,0.761,-5.374,-8.413,1.417,-5.004,4.41,-3.85,-0.28
,-8.413,0.931,-5.36,-8.33,1.149,-4.86,7.0,-3.85,-0.7
3710.0,-8.363,0.933,-4.858,-8.619,0.146,-4.805,4.55,-7.0,-2.59
,-8.579,0.658,-4.984,-8.693,0.237,-4.886,2.94,-8.05,-2.73
,-8.813,0.507,-5.013,-8.665,0.235,-4.745,2.24,-9.03,-2.73
,-8.978,0.493,-5.152,-8.557,0.017,-4.707,2.31,-9.94,-2.73
3786.0,-8.674,0.067,-4.716,-8.464,0.254,-4.759,-2.94,-11.69,-0.21
,-8.701,0.06,-4.764,-8.502,0.191,-4.795,-2.31,-11.83,-0.14
,-8.751,0.261,-4.898,-8.638,0.019,-4.652,-1.26,-12.46,-0.07
,-8.591,0.373,-4.886,-8.861,0.014,-4.57,-1.12,-12.6,0.56
3861.0,-8.935,0.302,-4.635,-8.569,0.239,-4.41,0.14,-14.49,1.89
,-8.823,0.471,-4.573,-8.794,0.196,-4.255,0.56,-14.14,2.31
,-8.521,0.395,-4.726,-8.835,0.156,-4.159,-0.21,-13.86,2.8
,-8.6,0.412,-4.506,-8.945,0.297,-4.101,-2.59,-14.07,2.8
3937.0,-8.954,0.5,-4.171,-8.918,0.924,-4.149,2.1,-13.72,3.22
,-8.77,0.72,-4.228,-8.837,0.668,-4.063,2.59,-15.19,3.5
,-8.916,0.759,-4.08,-8.581,0.615,-4.056,1.96,-14.0,4.48
,-8.959,1.005,-4.13,-8.696,0.397,-3.838,2.52,-13.37,3.64
4013.0,-8.981,0.266,-3.891,-8.938,0.995,-3.79,-1.05,-11.2,2.31
,-9.162,0.33,-3.64,-8.569,0.952,-3.999,2.1,-10.36,2.52
,-9.296,0.704,-3.563,-8.512,0.749,-4.07,5.32,-9.94,1.61
,-9.201,1.015,-3.735,-8.574,0.68,-4.279,4.9,-9.8,0.28
4089.0,-8.701,0.591,-4.08,-8.93,0.543,-3.731,-2.17,-9.38,-0.77
,-9.074,0.507,-3.664,-8.811,0.469,-4.011,-0.07,-8.4,-0.63
,-9.284,0.467,-3.625,-8.813,0.51,-4.372,0.91,-7.77,-0.98
,-9.28,0.479,-3.427,-8.799,0.641,-4.058,1.61,-7.35,-1.26
4165.0,-9.167,0.694,-3.542,-8.437,0.792,-4.386,1.19,-6.79,-0.28
,-9.459,0.766,-3.537,-8.744,0.658,-4.415,0.63,-6.86,-2.31
,-9.241,0.897,-3.642,-9.119,0.514,-3.853,-1.54,-7.42,-3.92
,-8.715,0.955,-4.202,-9.385,0.677,-3.699,-4.76,-8.26,-4.06
4240.0,-9.21,0.914,-3.668,-9.186,0.883,-4.393,2.73,-7.7,-4.34
,-8.815,0.969,-3.944,-9.112,0.715,-4.255,-0.07,-8.26,-5.18
,-8.725,0.931,-4.063,-9.031,0.613,-4.058,-3.36,-8.96,-5.04
,-8.949,0.802,-4.235,-8.916,0.254,-3.685,-4.69,-9.66,-5.39
4316.0,-8.957,0.034,-3.029,-9.15,0.534,-3.498,-3.43,-9.1,-5.11
,-9.229,0.11,-3.118,-9.1,0.294,-3.618,-1.75,-9.73,-4.55
,-9.229,0.546,-3.355,-9.265,0.287,-3.446,-0.21,-10.57,-4.41
,-9.167,0.73,-3.446,-9.275,0.27,-3.13,-0.77,-10.36,-4.06
4391.0,-9.356,0.479,-3.139,-8.916,0.337,-4.13,2.03,-8.75,-4.06
,-9.619,0.517,-3.257,-9.172,0.309,-3.733,2.31,-8.54,-3.71
,-9.533,0.572,-4.121,-9.306,0.493,-3.029,1.61,-9.59,-4.2
,-9.055,0.613,-4.274,-9.502,1.024,-3.874,1.05,-9.73,-3.78
4467.0,-9.263,0.931,-3.826,-9.253,0.531,-3.36,3.5,-11.55,-4.83
,-9.067,0.299,-3.374,-9.136,0.459,-3.494,1.54,-11.06,-4.13
,-9.122,0.273,-3.546,-8.995,0.373,-3.192,5.11,-10.36,-4.27
,-9.227,0.345,-3.379,-9.27,0.122,-3.051,9.87,-10.22,-4.34
4543.0,-9.464,-0.002,-2.702,-9.057,0.438,-3.348,6.23,-9.1,-4.27
,-9.526,0.455,-3.113,-9.292,0.361,-3.003,6.65,-9.17,-4.55
,-9.351,0.414,-3.398,-9.533,0.459,-2.697,4.2,-9.66,-4.76
,-8.949,0.376,-3.295,-9.584,0.546,-2.448,4.41,-9.31,-4.41
4619.0,-9.588,0.359,-2.426,-9.414,0.124,-2.364,2.66,-6.79,-4.34
,-9.38,0.132,-2.405,-9.507,0.129,-2.185,2.03,-5.74,-4.2
,-9.301,-0.007,-2.393,-9.579,0.069,-2.17,2.87,-4.62,-3.64
,-9.407,-0.007,-2.347,-9.529,0.048,-2.161,4.34,-3.43,-3.08
4694.0,-9.588,-0.074,-2.379,-9.258,0.084,-3.379,4.13,1.96,-1.54
,-9.505,-0.156,-2.656,-9.22,0.165,-3.321,4.48,2.73,-1.12
,-9.39,0.065,-3.001,-9.383,0.369,-3.206,4.97,2.94,-0.98
,-9.316,0.101,-3.25,-9.421,0.445,-3.094,4.55,3.01,-0.98
4770.0,-9.378,0.4,-2.917,-9.61,0.079,-2.857,1.75,3.15,-1.05
,-9.371,0.388,-2.828,-9.67,0.151,-3.075,1.4,3.29,-1.12
,-9.476,0.227,-2.783,-9.552,0.105,-3.13,1.4,3.5,-0.91
,-9.541,0.179,-2.819,-9.356,0.065,-3.19,1.54,3.92,-0.91
4845.0,-9.347,-0.014,-3.276,-9.337,0.16,-3.431,1.19,4.62,-0.84
,-9.342,0.005,-3.352,-9.311,0.16,-3.463,1.89,4.62,-0.63
,-9.268,0.079,-3.295,-9.237,0.144,-3.563,2.52,4.69,-0.49
,-9.371,0.175,-3.34,-9.184,0.048,-3.613,3.01,4.41,-0.35
4921.0,-9.182,0.122,-3.53,-9.332,0.141,-3.321,4.62,2.94,0.21
,-9.179,0.191,-3.486,-9.483,0.096,-3.283,4.97,2.52,0.42
,-9.213,0.129,-3.35,-9.464,0.072,-3.333,4.76,2.31,0.49
,-9.251,0.172,-3.305,-9.418,0.014,-3.364,4.27,2.1,0.42
4997.0,-9.371,-0.029,-3.431,-9.409,0.158,-3.276,1.47,1.19,-0.14
,-9.335,0.057,-3.439,-9.442,0.108,-3.195,2.03,0.84,-0.07
,-9.32,0.148,-3.431,-9.414,0.115,-3.116,2.38,0.84,0.0
,-9.273,0.146,-3.372,-9.404,0.156,-3.151,2.38,0.77,0.21
5073.0,-9.328,0.06,-3.214,-9.39,0.206,-3.116,3.08,0.84,0.49
,-9.222,0.177,-3.252,-9.447,0.215,-2.982,3.5,0.63,0.56
,-9.234,0.146,-3.221,-9.471,0.153,-3.061,3.85,0.77,0.63
,-9.383,0.144,-3.197,-9.43,0.191,-3.039,4.06,0.84,0.84
5149.0,-9.344,0.196,-3.12,-9.351,0.165,-3.216,3.57,1.54,0.42
,-9.445,0.213,-3.23,-9.378,0.191,-3.192,3.43,1.61,0.35
,-9.435,0.22,-3.247,-9.354,0.199,-3.238,2.87,1.75,0.21
,-9.387,0.115,-3.242,-9.411,0.242,-3.252,2.45,1.68,0.07
5224.0,-9.395,0.23,-3.319,-9.404,0.256,-3.281,0.91,1.4,-0.42
,-9.371,0.136,-3.273,-9.452,0.199,-3.211,0.98,1.47,-0.42
,-9.366,0.12,-3.326,-9.385,0.151,-3.187,1.47,1.4,-0.35
,-9.378,0.158,-3.326,-9.349,0.048,-3.214,2.03,1.19,-0.28
5300.0,-9.383,0.091,-3.238,-9.45,0.029,-3.027,2.03,1.05,-0.63
,-9.399,0.0,-3.144,-9.373,0.043,-3.123,2.52,0.98,-0.35
,-9.392,0.112,-3.077,-9.337,0.069,-3.209,2.73,1.26,-0.14
,-9.45,0.048,-3.096,-9.287,0.086,-3.247,2.24,1.4,-0.14
5376.0,-9.296,0.081,-3.29,-9.287,0.108,-3.293,1.12,1.68,-0.21
,-9.251,0.096,-3.288,-9.273,0.112,-3.297,1.54,1.54,-0.07
,-9.27,0.077,-3.314,-9.316,0.124,-3.333,1.47,1.47,0.07
,-9.335,0.105,-3.266,-9.375,0.196,-3.326,1.12,1.4,0.0
5452.0,-9.33,0.065,-3.235,-9.318,0.122,-3.254,0.84,0.77,0.14
,-9.28,0.093,-3.35,-9.268,0.0,-3.214,1.4,0.63,0.21
,-9.344,0.103,-3.269,-9.294,-0.06,-3.211,1.89,0.35,0.21
,-9.375,0.115,-3.281,-9.316,0.053,-3.13,1.68,0.28,0.14
5527.0,-9.392,0.194,-3.132,-9.287,0.053,-2.984,2.17,0.42,0.42
,-9.421,0.206,-3.123,-9.344,0.153,-2.936,1.33,0.35,0.42
,-9.423,0.108,-3.058,-9.356,0.211,-2.907,0.7,0.56,0.42
,-9.335,0.01,-2.941,-9.316,0.196,-2.831,0.56,0.84,0.49
5603.0,-9.397,0.182,-2.749,-9.397,-0.024,-2.536,-0.84,2.87,0.7
,-9.483,0.172,-2.74,-9.421,0.002,-2.659,-1.33,3.57,0.77
,-9.351,0.007,-2.632,-9.385,0.029,-2.627,-1.61,4.27,0.98
,-9.316,-0.024,-2.513,-9.368,-0.002,-2.568,-1.19,5.25,1.4
5678.0,-9.387,0.081,-2.615,-9.512,-0.459,-2.513,0.07,9.38,2.66
,-9.438,-0.019,-2.745,-9.416,-0.16,-3.183,0.0,9.94,2.8
,-9.471,-0.007,-2.757,-9.225,0.158,-3.427,0.42,10.36,3.08
,-9.464,-0.096,-2.9,-9.318,0.297,-3.743,1.05,10.92,3.57
5754.0,-9.194,0.38,-3.678,-9.019,-0.024,-3.932,5.39,10.36,3.78
,-9.172,0.395,-3.735,-9.196,-0.29,-3.36,6.44,9.73,3.85
,-9.323,0.436,-4.001,-9.325,-0.38,-3.312,6.3,8.33,3.22
,-9.162,0.258,-4.061,-9.447,-0.144,-3.247,4.27,7.42,3.01
5830.0,-9.445,-0.179,-3.257,-9.351,-0.529,-2.558,7.63,8.4,4.9
,-9.225,0.038,-3.297,-9.517,-0.187,-3.161,6.79,8.12,5.25
,-9.009,0.081,-3.453,-9.203,0.05,-2.929,7.0,8.75,6.16
,-9.024,-0.285,-3.187,-9.038,0.629,-3.484,7.7,9.87,7.49
5906.0,-9.069,0.349,-3.455,-9.002,0.524,-3.807,15.82,11.9,9.03
,-9.313,-0.177,-2.685,-9.031,0.756,-4.147,14.21,13.3,10.36
,-9.569,-0.22,-3.13,-9.048,0.546,-3.714,17.36,14.0,10.5
,-9.289,0.086,-3.819,-9.122,0.05,-3.448,18.13,13.44,8.89
5981.0,-9.265,-0.105,-3.206,-9.268,0.72,-2.771,21.0,15.89,9.52
,-9.22,-0.136,-2.551,-9.407,0.392,-1.969,26.11,16.73,9.66
,-9.119,0.579,-3.35,-9.323,0.526,-2.551,28.49,16.52,8.47
,-9.143,0.938,-3.372,-9.064,0.955,-3.216,26.46,16.87,7.98
6057.0,-8.787,1.163,-3.427,-9.009,0.096,-3.893,13.23,21.0,3.92
,-8.713,0.991,-3.836,-8.909,0.163,-4.006,5.46,21.21,3.08
,-8.827,0.39,-3.403,-8.772,0.244,-4.257,-1.4,22.75,3.22
,-8.969,-0.019,-3.269,-8.952,0.117,-4.154,0.42,24.85,2.94
6133.0,-9.088,0.081,-4.243,-8.689,0.01,-5.229,5.39,21.84,2.17
,-9.139,0.093,-4.434,-8.825,-0.043,-5.24,6.16,21.28,1.54
,-8.856,0.175,-4.692,-8.748,0.146,-5.066,5.95,21.0,0.42
,-8.629,0.038,-4.925,-8.6,0.347,-5.14,4.55,20.3,0.0
6209.0,-8.538,0.333,-4.743,-9.007,0.467,-4.59,11.34,17.43,0.77
,-8.543,0.66,-4.96,-8.928,0.629,-5.047,12.39,17.01,0.7
,-8.775,0.601,-4.716,-8.739,0.584,-5.372,12.11,16.73,0.56
,-8.969,0.517,-4.594,-8.643,0.498,-5.353,10.22,15.96,-0.21
6285.0,-8.739,0.199,-5.408,-8.952,-0.459,-4.738,6.72,10.92,-1.33
,-8.734,-0.168,-5.164,-8.861,-0.163,-4.884,6.44,10.29,-1.26
,-8.847,-0.354,-4.944,-8.662,0.022,-4.999,6.79,10.01,-1.26
,-8.988,-0.498,-4.877,-8.461,-0.117,-4.776,7.28,9.31,-1.26
6360.0,-8.521,-0.256,-4.558,-9.093,0.818,-4.281,8.12,6.72,0.56
,-8.543,-0.179,-4.539,-8.844,1.058,-4.769,8.89,6.72,0.84
,-8.698,0.191,-4.439,-8.571,1.18,-4.908,10.99,7.14,0.7
,-8.868,0.495,-4.405,-8.569,1.003,-4.757,11.13,7.07,0.42
6436.0,-8.61,0.751,-4.676,-8.732,0.182,-4.661,0.84,5.6,-3.64
,-8.71,0.684,-4.649,-8.725,-0.175,-4.736,2.17,6.16,-4.55
,-8.71,0.55,-4.697,-8.811,-0.617,-4.793,3.71,6.86,-4.83
,-8.722,0.443,-4.683,-8.839,-0.962,-4.905,3.43,7.49,-4.69
6511.0,-8.784,-1.421,-4.496,-8.471,-0.522,-4.939,-1.96,7.91,-0.7
,-8.6,-1.263,-4.893,-8.626,-0.366,-4.97,2.1,7.63,0.56
,-8.612,-1.007,-4.929,-8.76,-0.184,-4.97,5.46,7.14,1.96
,-8.504,-0.701,-4.958,-8.871,-0.129,-4.645,5.32,6.02,3.08
6587.0,-8.911,0.258,-4.815,-8.681,0.974,-4.999,4.48,5.11,4.48
,-8.626,0.5,-4.977,-8.854,1.029,-4.992,4.13,5.04,4.13
,-8.526,0.615,-4.889,-8.667,0.869,-5.004,3.71,5.11,3.64
,-8.562,0.749,-4.951,-8.526,0.672,-4.915,4.2,5.04,3.22
6663.0,-8.547,0.414,-4.848,-8.737,-0.696,-5.221,-0.28,4.97,0.14
,-8.643,0.313,-5.016,-8.705,-0.943,-4.901,-0.14,3.92,0.28
,-8.739,0.022,-5.209,-8.435,-0.988,-4.803,0.0,3.22,0.42
,-8.732,-0.287,-5.389,-8.265,-1.177,-4.932,0.42,2.59,0.28
6739.0,-8.387,-1.156,-4.977,-8.753,0.744,-5.006,3.78,-0.28,5.32
,-8.765,-0.821,-4.86,-8.756,1.132,-5.001,6.37,0.91,5.95
,-8.866,-0.373,-4.872,-8.612,1.316,-5.205,8.68,1.12,6.09
,-8.89,0.108,-4.96,-8.564,1.144,-5.154,9.94,1.4,5.25
6814.0,-8.617,0.957,-5.152,-8.471,-0.242,-5.116,0.77,1.68,-1.4
,-8.581,0.804,-5.061,-8.686,-0.751,-4.893,0.56,2.31,-1.82
,-8.579,0.337,-4.609,-8.674,-0.73,-4.917,-0.07,2.24,-1.47
,-8.677,0.194,-4.97,-8.619,-0.73,-4.819,-0.42,0.77,-0.98
6890.0,-8.629,-0.567,-4.738,-8.55,0.639,-4.807,7.0,2.87,2.73
,-8.837,-0.309,-4.657,-8.308,0.634,-4.793,8.05,3.64,2.52
,-8.916,-0.122,-4.664,-8.547,0.598,-4.587,8.68,3.5,2.03
,-8.973,0.313,-4.716,-8.689,0.5,-4.625,8.33,2.66,1.89
6965.0,-8.88,0.651,-4.64,-8.543,0.763,-5.025,2.73,2.94,-0.42
,-8.892,0.696,-4.826,-8.753,0.656,-5.061,3.57,2.31,-1.47
,-8.555,0.861,-4.984,-8.629,0.357,-5.004,4.34,2.24,-2.24
,-8.464,0.897,-5.092,-8.409,0.33,-4.977,5.04,2.38,-2.8
7041.0,-8.378,0.462,-5.099,-8.526,-0.469,-5.111,6.09,2.87,-3.92
,-8.361,0.469,-5.432,-8.76,-0.799,-4.862,5.25,2.73,-4.13
,-8.813,-0.091,-4.903,-8.679,-0.725,-4.877,2.87,3.08,-3.43
,-8.796,-0.416,-4.862,-8.641,-0.699,-5.035,3.22,2.52,-2.52
7117.0,-8.619,-0.725,-5.054,-8.71,0.036,-5.032,7.28,2.38,0.77
,-8.595,-0.28,-5.118,-8.533,-0.079,-4.927,8.75,2.45,0.56
,-8.658,0.27,-5.363,-8.526,0.014,-5.073,8.4,2.66,0.35
,-8.67,0.17,-5.276,-8.614,-0.036,-5.205,5.39,3.15,0.0
7193.0,-8.777,-0.074,-5.303,-8.471,-0.514,-5.351,0.84,3.22,1.47
,-8.739,-0.182,-5.54,-8.562,-0.4,-5.243,1.96,2.94,1.68
,-8.906,-0.364,-5.43,-8.536,-0.39,-5.09,2.66,3.29,1.96
,-8.909,-0.479,-5.183,-8.437,-0.158,-5.329,2.87,3.01,3.01
7269.0,-8.588,0.012,-5.585,-8.619,-0.215,-5.36,4.06,3.43,3.78
,-8.768,-0.311,-5.487,-8.562,-0.172,-5.264,2.73,3.5,3.99
,-8.849,-0.407,-5.334,-8.512,-0.416,-5.219,2.1,3.43,4.2
,-8.837,-0.297,-5.499,-8.473,-0.696,-5.162,2.31,3.15,4.41
7344.0,-8.528,-0.66,-5.202,-8.717,0.273,-5.214,-0.14,3.43,9.24
,-8.727,-0.433,-5.217,-8.681,0.584,-5.24,0.98,3.78,10.5
,-8.715,-0.134,-5.41,-8.466,0.89,-5.214,2.03,3.57,11.2
,-8.552,0.141,-5.475,-8.638,1.137,-4.994,2.24,3.57,11.2
7420.0,-8.76,1.216,-4.958,-8.593,0.881,-5.068,-5.88,0.07,8.47
,-8.658,1.153,-4.841,-8.753,0.739,-5.095,-7.84,-0.7,7.07
,-8.514,1.204,-5.039,-8.713,0.651,-5.2,-7.56,-0.07,6.51
,-8.514,1.149,-5.066,-8.693,0.598,-5.15,-8.12,0.56,6.58
7496.0,-8.784,0.926,-5.666,-8.54,0.232,-5.365,-7.56,0.28,2.87
,-8.631,0.601,-5.197,-8.339,0.206,-5.382,-9.66,-0.07,2.24
,-8.516,0.445,-5.169,-8.464,0.057,-5.31,-10.99,0.07,1.54
,-8.701,0.148,-4.934,-8.672,-0.043,-5.322,-11.48,-1.19,1.19
7572.0,-8.629,-0.203,-5.492,-8.504,-0.012,-5.298,-10.22,-4.48,0.14
,-8.734,-0.347,-5.437,-8.516,0.062,-5.2,-8.12,-4.41,0.77
,-8.921,-0.304,-5.398,-8.564,0.275,-5.078,-6.3,-5.74,1.68
,-8.636,-0.179,-5.451,-8.61,0.45,-5.15,-4.2,-6.16,2.03
7647.0,-8.531,0.419,-5.188,-8.66,0.258,-4.886,3.01,-4.83,0.84
,-8.698,0.321,-5.138,-8.54,0.34,-4.877,3.01,-4.41,1.4
,-8.729,0.246,-4.958,-8.49,0.376,-4.92,3.92,-3.5,1.47
,-8.708,0.328,-4.884,-8.507,0.424,-4.886,4.9,-2.94,1.54
7723.0,-8.595,0.493,-4.862,-8.66,0.83,-4.681,6.44,-7.35,3.5
,-8.567,0.483,-4.709,-8.629,0.201,-4.386,6.23,-7.84,3.22
,-8.684,0.445,-4.637,-8.758,0.663,-4.795,6.3,-7.84,2.94
,-8.746,0.651,-4.719,-8.693,0.548,-4.862,5.74,-8.4,3.01
7798.0,-8.77,0.519,-4.716,-8.705,0.57,-4.774,2.17,-10.15,3.29
,-8.725,0.562,-4.771,-8.564,0.519,-4.676,2.03,-10.71,2.8
,-8.739,0.574,-4.75,-8.672,0.416,-4.525,1.82,-10.92,2.31
,-8.72,0.565,-4.87,-8.815,0.345,-4.513,1.26,-11.48,2.31
7874.0,-8.787,0.383,-4.544,-8.744,0.756,-4.422,1.54,-12.81,2.45
,-8.76,0.536,-4.587,-8.804,0.771,-4.374,2.17,-13.44,2.17
,-8.823,0.672,-4.573,-8.849,0.876,-4.283,1.68,-13.58,2.1
,-8.784,0.761,-4.472,-8.947,0.859,-4.161,0.98,-13.44,2.03
7950.0,-8.959,0.816,-4.183,-8.715,0.373,-4.204,-4.83,-14.07,-1.54
,-8.837,0.593,-4.195,-8.861,0.519,-4.025,-7.49,-13.65,-1.75
,-8.681,0.302,-4.039,-8.894,0.476,-3.881,-7.84,-13.16,-1.47
,-8.969,0.263,-3.463,-9.064,0.376,-3.96,-5.88,-12.67,-1.54
8026.0,-9.079,0.371,-3.912,-8.976,0.397,-3.795,-4.2,-12.67,-1.54
,-8.995,0.27,-3.743,-8.777,0.558,-3.946,-3.85,-11.9,-0.77
,-8.926,0.227,-3.635,-8.763,0.627,-3.999,-3.29,-11.69,-0.42
,-8.973,0.299,-3.74,-8.902,0.548,-3.991,-2.8,-11.34,-0.56
8101.0,-9.038,0.579,-3.922,-9.11,0.471,-3.561,-0.07,-10.78,-0.21
,-9.139,0.56,-3.991,-9.258,0.388,-3.384,0.28,-10.78,-0.35
,-8.935,0.436,-3.905,-9.196,0.433,-3.498,0.21,-10.43,-0.42
,-8.892,0.467,-3.642,-9.127,0.483,-3.439,1.47,-10.08,-0.42
8177.0,-9.076,0.584,-3.819,-9.177,0.715,-3.721,-0.7,-9.52,-0.84
,-8.969,0.629,-3.893,-9.1,0.747,-3.489,-0.21,-9.17,-0.63
,-8.981,0.591,-3.599,-9.182,0.811,-3.422,0.91,-8.61,-0.56
,-9.086,0.61,-3.75,-9.256,0.553,-3.419,1.75,-8.75,-0.91
8253.0,-9.189,0.388,-3.477,-9.249,0.771,-3.903,-1.47,-7.28,-2.38
,-9.153,0.337,-3.408,-9.012,0.756,-3.965,-2.03,-7.07,-2.45
,-9.244,0.364,-3.233,-8.973,0.546,-3.922,-1.89,-7.14,-2.31
,-9.43,0.601,-3.733,-8.904,0.483,-3.824,-3.01,-7.84,-3.15
8329.0,-9.024,0.447,-3.53,-9.234,0.653,-3.575,-1.96,-7.77,-3.78
,-9.22,0.514,-3.271,-9.086,0.4,-3.259,-1.05,-8.05,-3.64
,-9.466,0.737,-3.47,-9.177,0.462,-3.869,-1.26,-8.61,-3.85
,-9.428,0.744,-3.412,-9.088,0.534,-3.412,-3.36,-8.61,-3.99
8405.0,-9.093,0.692,-3.57,-9.031,0.395,-3.903,-1.19,-8.54,-4.34
,-9.237,0.675,-3.448,-9.069,0.299,-3.553,-2.24,-9.1,-4.2
,-9.368,0.476,-3.778,-9.301,0.469,-3.446,-3.43,-9.52,-4.27
,-9.249,0.366,-3.922,-9.34,0.558,-3.135,-4.13,-10.22,-4.41
8480.0,-9.438,0.72,-3.281,-9.404,0.357,-2.972,1.05,-11.13,-4.83
,-9.304,0.543,-3.23,-9.375,0.33,-3.022,-2.03,-11.13,-4.9
,-9.153,0.412,-2.979,-9.318,0.369,-3.068,-2.03,-10.64,-4.27
,-9.318,0.268,-3.135,-9.273,0.103,-2.723,-0.21,-10.36,-4.27
8556.0,-9.356,-0.05,-2.508,-9.39,0.613,-3.647,1.4,-8.68,-2.87
,-9.574,0.134,-2.678,-9.184,0.27,-3.467,3.92,-7.91,-3.01
,-9.624,0.436,-3.017,-9.134,0.048,-3.271,3.5,-7.84,-3.36
,-9.536,0.558,-3.049,-9.335,-0.124,-3.099,0.84,-7.98,-3.43
8631.0,-9.493,0.041,-3.065,-9.416,0.141,-2.843,2.94,-8.19,-3.01
,-9.471,0.184,-2.955,-9.476,0.156,-2.886,3.64,-8.47,-2.73
,-9.404,0.285,-2.9,-9.373,0.249,-2.941,3.71,-8.26,-2.38
,-9.433,0.235,-2.836,-9.244,0.309,-2.905,3.64,-7.84,-1.89
8707.0,-9.349,0.199,-2.771,-9.495,-0.034,-2.168,6.65,-7.42,-1.05
,-9.464,0.132,-2.836,-9.538,-0.005,-1.917,6.02,-7.42,-1.05
,-9.325,0.249,-2.661,-9.617,0.165,-1.819,7.28,-7.14,-0.77
,-9.416,0.139,-2.431,-9.603,0.201,-1.749,6.23,-6.44,-0.42
8783.0,-9.536,0.328,-1.694,-9.555,0.235,-2.355,5.88,-0.63,0.56
,-9.576,0.371,-1.835,-9.402,0.153,-2.503,4.69,0.63,0.42
,-9.617,0.321,-1.855,-9.44,0.175,-2.627,3.57,1.75,0.42
,-9.619,0.366,-2.149,-9.514,0.302,-2.742,2.8,2.8,0.42
8859.0,-9.61,0.498,-2.886,-9.411,0.273,-3.08,4.69,4.97,0.56
,-9.581,0.586,-3.094,-9.445,0.251,-3.037,3.5,4.9,0.21
,-9.409,0.57,-3.001,-9.457,0.223,-2.996,2.24,4.9,0.07
,-9.471,0.462,-3.02,-9.552,0.251,-2.996,1.19,4.69,-0.14
8934.0,-9.514,0.309,-2.864,-9.43,0.227,-3.19,3.36,4.34,-0.21
,-9.552,0.366,-2.824,-9.316,0.218,-3.218,2.59,4.41,-0.42
,-9.495,0.28,-2.783,-9.344,0.139,-3.29,1.4,4.62,-0.7
,-9.507,0.244,-3.104,-9.373,0.189,-3.367,0.84,4.27,-0.98
9010.0,-9.373,0.182,-3.278,-9.524,0.28,-3.005,3.15,3.43,-0.35
,-9.335,0.168,-3.116,-9.512,0.165,-2.972,3.36,3.01,-0.28
,-9.464,0.17,-3.094,-9.45,0.194,-2.965,3.57,2.8,-0.35
,-9.576,0.225,-2.95,-9.474,0.122,-2.977,3.71,3.01,-0.21
9086.0,-9.435,0.148,-3.025,-9.409,0.251,-3.171,3.5,2.94,-0.07
,-9.354,0.244,-3.084,-9.373,0.208,-3.19,4.41,2.8,0.0
,-9.478,0.347,-3.132,-9.407,0.203,-3.204,4.76,2.52,0.07
,-9.426,0.242,-3.144,-9.409,0.158,-3.183,4.76,2.24,0.07
9162.0,-9.397,0.124,-3.101,-9.411,0.127,-2.848,5.81,1.4,0.21
,-9.426,0.134,-2.994,-9.452,0.156,-2.826,6.09,1.47,0.35
,-9.474,0.062,-3.003,-9.485,0.256,-2.888,5.81,1.4,0.35
,-9.404,0.057,-2.936,-9.421,0.225,-2.869,5.74,1.4,0.42
9238.0,-9.433,0.201,-2.867,-9.411,0.201,-2.979,2.38,2.1,0.14
,-9.385,0.096,-2.881,-9.466,0.249,-3.08,1.68,2.17,-0.07
,-9.423,0.072,-2.982,-9.433,0.239,-3.111,1.89,2.17,-0.07
,-9.462,0.168,-2.989,-9.407,0.237,-3.032,1.96,2.31,0.0
9313.0,-9.457,0.163,-3.13,-9.457,0.105,-2.979,0.7,1.89,-0.28
,-9.375,0.141,-3.113,-9.538,0.184,-3.063,1.05,2.03,-0.14
,-9.39,0.129,-3.068,-9.533,0.129,-3.053,1.33,2.03,-0.07
,-9.404,0.103,-3.005,-9.395,0.146,-3.077,1.54,1.89,0.0
9389.0,-9.399,0.165,-3.132,-9.5,0.16,-3.111,0.7,1.75,-0.28
,-9.399,0.141,-3.154,-9.414,0.211,-3.077,0.91,1.61,-0.28
,-9.351,0.158,-3.094,-9.414,0.215,-3.104,1.26,1.75,-0.07
,-9.44,0.184,-3.072,-9.416,0.146,-3.068,1.4,1.47,-0.07
9464.0,-9.351,0.146,-3.015,-9.478,0.211,-2.795,1.26,1.26,-0.07
,-9.375,0.034,-2.907,-9.452,0.196,-2.855,1.61,1.19,0.0
,-9.495,0.108,-2.893,-9.464,0.12,-2.86,2.31,1.33,0.14
,-9.531,0.158,-2.855,-9.474,0.158,-2.893,2.52,1.68,0.35
9540.0,-9.45,0.172,-3.017,-9.438,0.115,-3.116,1.47,2.45,0.28
,-9.44,0.156,-3.044,-9.414,0.16,-3.132,1.4,2.59,0.28
,-9.43,0.16,-3.005,-9.447,0.168,-3.166,1.61,2.73,0.35
,-9.411,0.11,-3.108,-9.414,0.187,-3.099,1.82,2.59,0.35
9616.0,-9.378,0.139,-3.096,-9.44,0.112,-3.044,1.75,2.24,0.49
,-9.454,0.057,-3.178,-9.438,0.163,-3.051,1.61,2.1,0.56
,-9.416,0.074,-3.068,-9.411,0.194,-3.025,2.03,2.03,0.63
,-9.438,0.151,-3.087,-9.445,0.199,-2.938,2.45,2.03,0.63
9692.0,-9.481,0.17,-2.931,-9.478,0.134,-2.979,1.47,2.24,0.35
,-9.43,0.158,-3.003,-9.392,0.12,-3.034,1.54,2.24,0.42
,-9.418,0.132,-2.958,-9.452,0.041,-2.998,1.47,2.24,0.49
,-9.445,0.146,-2.984,-9.399,0.036,-3.025,1.68,2.31,0.63
9767.0,-9.423,0.163,-2.982,-9.452,0.148,-3.156,3.22,3.01,0.91
,-9.476,0.153,-3.065,-9.418,0.151,-3.161,3.5,2.87,0.91
,-9.411,0.325,-3.118,-9.433,0.091,-3.166,3.43,2.87,0.98
,-9.351,0.223,-3.092,-9.488,0.038,-3.235,2.87,2.8,0.91
9843.0,-9.397,0.014,-3.202,-9.423,0.22,-3.125,3.22,2.52,0.77
,-9.366,0.112,-3.221,-9.442,0.203,-3.096,3.99,2.38,0.91
,-9.399,0.191,-3.192,-9.433,0.189,-3.092,4.06,2.17,0.91
,-9.44,0.184,-3.118,-9.414,0.148,-3.132,3.85,2.1,0.98
9919.0,-9.407,0.129,-3.142,-9.416,0.16,-3.13,3.29,1.68,0.84
,-9.363,0.158,-3.137,-9.423,0.053,-3.12,3.43,1.82,0.98
,-9.43,0.175,-3.096,-9.399,-0.06,-3.125,3.29,1.68,0.91
,-9.416,0.194,-3.096,-9.483,-0.11,-3.159,3.01,1.47,0.84
9995.0,-9.454,-0.005,-3.202,-9.328,0.103,-2.986,5.11,1.47,0.98
,-9.38,0.112,-3.161,-9.397,0.156,-3.104,5.18,1.4,0.84
,-9.378,0.112,-3.187,-9.402,0.191,-3.132,4.55,1.33,0.91
,-9.39,0.072,-3.19,-9.383,0.211,-3.113,4.62,1.33,0.98
10070.0,-9.428,0.29,-3.175,-9.385,0.144,-3.07,5.04,0.84,0.98
,-9.481,0.313,-3.147,-9.375,0.199,-2.982,4.34,0.77,0.63
,-9.373,0.321,-3.147,-9.423,0.325,-3.046,3.22,0.63,0.42
,-9.385,0.242,-3.113,-9.5,0.345,-2.979,2.31,0.42,0.21
10146.0,-9.474,0.412,-2.955,-9.481,0.206,-3.034,0.35,0.49,-0.21
,-9.43,0.337,-2.991,-9.435,0.115,-3.142,-0.21,0.49,-0.35
,-9.438,0.29,-3.013,-9.316,0.077,-3.159,-0.7,0.63,-0.35
,-9.399,0.278,-2.977,-9.32,0.117,-3.144,-1.12,0.42,-0.63
10222.0,-9.466,-0.029,-3.075,-9.378,0.096,-2.883,-3.01,0.91,-1.26
,-9.411,0.067,-3.013,-9.332,-0.026,-2.807,-2.87,0.77,-1.33
,-9.344,0.196,-2.972,-9.409,-0.168,-2.673,-3.43,0.7,-1.26
,-9.301,0.129,-2.931,-9.552,0.043,-2.862,-4.13,0.84,-1.19
10298.0,-9.576,0.127,-2.769,-9.392,0.361,-3.29,-0.7,2.8,-0.35
,-9.404,0.45,-2.589,-9.517,-0.474,-2.682,-2.87,2.8,-0.7
,-9.426,0.62,-2.62,-9.428,-0.294,-2.706,-6.23,3.15,-1.12
,-9.462,0.392,-2.704,-9.383,0.34,-2.85,-9.17,3.99,-1.12
10374.0,-9.459,0.376,-2.759,-9.411,-0.122,-3.218,-10.71,4.9,-1.05
,-9.555,0.318,-2.694,-9.332,-0.069,-3.223,-11.62,5.32,-0.91
,-9.505,0.23,-2.986,-9.323,0.084,-3.156,-12.67,5.25,-1.12
,-9.38,0.036,-3.077,-9.337,0.316,-2.893,-13.3,5.25,-0.91
10449.0,-9.476,0.431,-3.087,-9.282,-0.074,-3.096,-8.19,5.6,0.0
,-9.361,0.404,-3.07,-9.359,-0.325,-2.898,-9.94,5.67,-0.28
,-9.313,0.225,-3.135,-9.325,-0.256,-2.778,-11.06,5.6,-0.07
,-9.318,0.105,-3.223,-9.392,-0.01,-3.082,-9.38,6.02,0.28
10525.0,-9.404,0.012,-3.19,-9.471,-0.768,-2.666,-1.54,7.07,3.36
,-9.268,0.151,-3.577,-9.462,0.074,-3.281,2.1,7.35,4.55
,-9.155,-0.512,-3.001,-9.335,0.725,-3.398,2.52,9.03,6.65
,-9.308,-1.029,-2.41,-9.27,0.794,-3.53,5.81,10.78,8.4
10600.0,-9.182,0.445,-3.642,-9.447,0.211,-3.333,13.51,8.68,8.89
,-9.146,-0.012,-3.238,-9.416,0.311,-3.345,14.84,9.73,9.94
,-9.311,-0.122,-3.159,-9.325,0.258,-3.049,19.46,9.94,9.66
,-9.306,0.093,-3.065,-9.447,0.146,-3.068,22.4,10.15,8.68
10676.0,-9.45,0.392,-3.039,-9.074,0.648,-3.393,18.83,8.68,7.98
,-9.296,0.914,-2.986,-9.191,0.316,-3.199,20.16,7.56,7.14
,-9.244,1.256,-3.577,-9.206,0.266,-2.831,18.9,6.93,6.02
,-9.139,1.079,-3.671,-9.366,0.486,-3.051,15.4,7.21,5.46
10752.0,-9.509,0.926,-3.683,-8.832,-0.833,-3.005,18.83,5.04,2.59
,-9.409,1.098,-3.881,-8.94,-0.797,-3.149,14.28,4.27,2.52
,-9.225,0.914,-4.558,-9.124,-0.493,-2.85,7.98,4.9,1.82
,-8.94,0.089,-4.037,-9.083,-0.28,-2.749,4.06,7.56,1.96
10828.0,-9.292,-0.179,-2.328,-9.464,0.345,-3.376,13.44,11.62,5.32
,-9.445,0.057,-2.335,-9.22,0.821,-4.025,11.76,12.6,5.81
,-9.483,0.179,-2.795,-8.868,1.352,-3.967,10.64,12.11,5.6
,-9.328,0.151,-3.015,-8.356,1.575,-3.987,9.87,11.76,5.67
10903.0,-8.562,1.46,-3.484,-9.476,0.866,-3.364,-0.91,11.97,-0.98
,-8.983,1.424,-3.601,-9.174,0.522,-3.515,-1.75,13.51,-2.03
,-9.34,1.058,-3.096,-8.892,-0.081,-3.252,-3.43,14.07,-2.59
,-9.507,1.029,-2.996,-8.928,-0.438,-3.128,-4.27,14.07,-3.01
10979.0,-9.076,-0.534,-3.197,-8.586,0.414,-4.018,-1.68,16.52,-1.89
,-9.162,-0.258,-3.496,-8.598,0.17,-3.843,4.13,15.61,-1.82
,-9.177,-0.105,-3.647,-9.093,0.005,-3.69,6.3,15.33,-1.19
,-9.055,0.235,-3.673,-9.366,0.139,-4.247,7.77,14.56,-0.07
11054.0,-9.265,0.034,-4.508,-8.483,-0.347,-5.317,7.49,17.78,1.96
,-9.217,-0.168,-4.59,-8.605,0.022,-5.279,8.68,17.71,2.66
,-9.088,-0.258,-4.709,-8.918,0.11,-5.231,8.89,15.47,3.15
,-8.792,-0.371,-5.016,-9.191,0.098,-5.013,9.94,13.65,4.34
11130.0,-9.263,0.251,-4.74,-8.99,0.916,-4.341,15.12,12.25,4.62
,-8.811,0.629,-4.74,-9.215,0.811,-4.312,14.14,11.27,4.27
,-8.473,0.902,-4.57,-9.466,0.644,-4.104,11.83,11.27,3.85
,-8.638,0.919,-4.508,-9.112,0.565,-4.276,8.26,10.01,3.43
11206.0,-8.792,0.436,-4.379,-8.894,0.534,-4.585,2.45,9.38,0.7
,-8.801,0.481,-4.204,-8.748,0.574,-4.633,4.27,8.89,0.84
,-8.954,0.584,-4.336,-8.832,0.821,-4.53,5.81,7.28,0.7
,-8.985,0.553,-4.513,-9.007,0.814,-4.535,5.88,6.51,0.56
11282.0,-8.789,0.565,-4.604,-8.851,-0.883,-4.683,0.35,3.71,-1.68
,-8.478,0.077,-4.769,-9.086,-0.991,-4.539,-2.59,4.13,-1.47
,-8.32,-0.28,-5.059,-9.229,-0.909,-4.475,-3.01,5.88,-0.56
,-8.571,-0.589,-5.092,-9.095,-0.512,-4.554,-1.82,7.63,0.91
11358.0,-8.643,-0.179,-4.755,-8.844,0.445,-4.245,10.08,4.9,5.74
,-8.581,0.091,-4.355,-8.61,0.469,-4.341,9.59,7.14,5.95
,-8.961,0.211,-3.759,-8.48,0.153,-4.573,8.33,7.14,6.23
,-8.866,0.467,-4.288,-8.844,0.012,-4.2,7.63,7.21,5.81
11433.0,-9.148,0.05,-4.329,-8.813,0.593,-4.391,10.5,9.73,7.21
,-9.191,-0.017,-4.164,-8.844,0.617,-4.501,13.09,8.54,6.44
,-9.294,0.397,-4.338,-9.206,0.565,-4.582,13.93,7.28,5.88
,-8.914,0.467,-4.69,-9.608,0.653,-4.578,13.58,7.63,5.32
11509.0,-9.619,0.548,-4.42,-7.978,0.419,-5.303,17.01,4.69,-2.59
,-9.495,0.605,-4.733,-8.452,-0.12,-5.482,18.48,3.29,-2.73
,-8.863,0.964,-5.453,-8.564,-0.787,-5.372,19.11,2.87,-3.29
,-8.15,0.916,-5.587,-8.997,-0.864,-4.884,18.34,4.2,-3.43
11585.0,-8.514,-0.347,-5.456,-9.227,0.873,-5.042,17.5,3.22,3.78
,-8.421,-0.079,-5.331,-9.057,1.266,-5.08,17.85,3.43,2.94
,-8.751,0.203,-5.14,-8.847,1.031,-5.15,17.36,2.38,1.4
,-8.899,0.306,-5.128,-8.818,0.797,-4.853,15.61,1.12,0.7
11661.0,-8.875,0.715,-4.824,-8.772,0.211,-4.614,2.1,-1.82,-1.54
,-8.928,0.517,-4.795,-8.909,0.579,-4.958,2.24,-1.75,-2.03
,-8.99,0.409,-4.566,-8.725,1.096,-5.217,2.8,-2.03,-1.75
,-8.827,0.122,-4.771,-8.729,0.986,-4.86,3.36,-2.38,-1.33
11736.0,-8.902,0.682,-4.949,-8.418,-0.352,-4.941,1.82,-4.2,-5.67
,-8.705,0.251,-4.927,-8.595,-0.751,-4.611,-0.21,-4.62,-5.81
,-8.777,0.079,-4.702,-8.839,-1.321,-4.456,-0.21,-4.27,-5.74
,-8.681,0.108,-5.054,-8.918,-1.615,-4.269,-0.28,-4.97,-5.88
11812.0,-9.081,-1.56,-4.161,-8.885,-0.629,-4.518,5.81,-5.46,1.89
,-8.641,-1.493,-4.329,-9.038,-0.385,-4.267,6.86,-5.67,3.57
,-8.411,-1.223,-4.444,-8.875,-0.27,-4.121,8.61,-4.62,4.97
,-8.746,-0.816,-4.59,-8.811,-0.136,-3.934,9.24,-4.13,5.67
11887.0,-8.952,0.189,-3.922,-8.988,0.603,-3.85,5.25,-3.15,6.02
,-8.739,0.431,-3.984,-9.048,0.768,-3.91,4.76,-2.59,5.39
,-8.88,0.498,-3.999,-9.04,0.735,-3.783,3.64,-2.17,5.18
,-8.966,0.51,-3.939,-8.945,0.818,-3.86,3.5,-1.47,5.11
11963.0,-8.911,0.701,-4.089,-9.012,-0.053,-3.896,4.62,1.12,3.01
,-8.849,0.44,-3.927,-8.983,-0.036,-3.917,3.57,1.89,3.01
,-8.873,0.168,-3.915,-8.811,0.043,-4.13,2.8,2.38,3.15
,-8.775,0.031,-3.955,-8.789,0.146,-4.202,2.87,3.43,3.29
12039.0,-8.737,0.124,-4.31,-8.751,0.246,-4.616,2.17,6.37,3.29
,-8.83,0.213,-4.338,-8.725,0.215,-4.606,2.59,7.35,2.59
,-9.112,0.345,-4.3,-8.921,0.038,-4.597,2.66,7.56,1.89
,-9.0,0.378,-4.463,-9.088,-0.146,-4.599,2.1,7.14,1.33
12115.0,-8.961,-0.373,-4.652,-8.705,0.136,-4.891,2.03,6.65,2.52
,-8.849,-0.347,-4.647,-8.732,0.103,-4.877,3.78,6.72,3.08
,-8.866,-0.244,-4.843,-8.847,0.057,-4.783,4.41,6.65,3.78
,-8.748,-0.072,-4.783,-8.94,0.144,-4.743,4.34,6.51,4.27
12190.0,-8.921,0.321,-5.016,-9.067,0.335,-4.731,1.26,6.23,4.83
,-8.775,0.263,-4.867,-9.208,0.768,-4.683,0.28,6.09,4.55
,-8.593,0.112,-4.714,-9.024,1.184,-4.896,-0.28,6.58,4.55
,-8.701,0.112,-4.714,-8.758,1.443,-5.013,0.07,7.07,4.9
12266.0,-8.665,1.184,-4.87,-9.095,0.546,-4.771,-2.66,5.39,1.61
,-8.859,0.701,-4.661,-8.753,0.715,-5.011,-5.32,5.74,1.33
,-9.076,0.445,-4.614,-8.538,0.708,-5.039,-6.02,5.74,1.4
,-9.124,0.385,-4.673,-8.531,0.503,-4.941,-4.69,5.04,1.4
12342.0,-8.801,0.366,-4.949,-8.801,0.213,-5.118,-8.33,3.92,-0.14
,-9.088,0.28,-4.867,-8.495,0.122,-5.085,-7.77,3.22,-0.42
,-9.127,0.313,-4.896,-8.461,-0.038,-4.953,-6.93,2.31,-0.63
,-9.064,0.345,-5.047,-8.614,0.101,-4.937,-7.42,1.75,-0.91
12418.0,-8.928,-0.019,-4.86,-8.971,-0.414,-4.824,-8.61,0.84,-0.07
,-8.849,-0.055,-4.927,-9.107,0.117,-4.972,-8.05,0.63,0.49
,-8.835,0.041,-5.185,-9.198,0.737,-5.497,-5.46,0.56,1.12
,-8.82,0.007,-5.193,-9.122,0.199,-4.791,-3.99,0.91,1.4
12494.0,-8.344,0.268,-4.877,-9.217,0.022,-4.688,-1.4,-2.94,0.98
,-8.141,0.366,-4.929,-9.012,0.244,-5.145,0.07,-2.17,0.7
,-8.557,0.483,-4.922,-8.679,0.254,-5.274,1.61,-1.82,-0.14
,-9.067,0.23,-4.834,-8.363,-0.022,-5.13,1.47,-2.38,-0.7
12569.0,-8.516,-0.244,-4.709,-8.681,0.369,-4.893,6.3,-0.98,1.33
,-8.981,-0.067,-4.482,-8.737,0.373,-4.762,9.45,-2.24,1.26
,-9.074,0.029,-4.819,-8.729,0.211,-4.901,10.01,-4.55,1.05
,-8.89,0.27,-4.798,-8.947,0.163,-4.712,9.38,-5.88,1.47
12645.0,-8.923,0.268,-4.657,-8.892,0.357,-4.537,2.87,-8.82,2.45
,-8.634,0.538,-4.774,-8.976,0.436,-4.556,2.94,-9.24,2.17
,-8.579,0.57,-4.831,-8.804,0.419,-4.795,2.31,-9.1,1.68
,-8.746,0.529,-4.755,-8.813,0.17,-4.396,1.12,-8.82,1.26
12720.0,-8.842,0.182,-4.307,-9.05,0.4,-4.128,4.83,-7.0,3.29
,-8.983,0.108,-4.401,-8.997,0.524,-4.188,7.0,-6.51,3.85
,-8.935,0.33,-4.346,-8.837,0.546,-4.312,8.12,-6.02,4.13
,-9.067,0.392,-4.111,-8.703,0.404,-4.267,8.33,-6.09,4.06
12796.0,-8.806,0.266,-4.188,-8.737,0.629,-4.247,-0.77,-8.47,3.99
,-8.947,0.196,-4.233,-8.744,0.596,-4.219,-0.84,-9.1,4.27
,-8.859,0.297,-4.219,-8.964,0.67,-3.97,0.98,-9.24,4.27
,-8.792,0.538,-4.31,-9.124,0.926,-4.066,2.66,-9.52,3.78
12872.0,-9.021,0.955,-4.111,-9.225,0.299,-3.881,3.36,-8.47,2.31
,-8.784,0.852,-4.145,-9.246,0.593,-4.515,1.54,-7.98,1.75
,-8.837,0.579,-3.915,-9.093,0.727,-4.073,0.42,-6.86,1.54
,-9.081,0.407,-3.927,-8.969,0.555,-3.79,-0.14,-6.86,1.26
12948.0,-8.99,0.428,-4.195,-8.911,0.529,-4.173,-2.03,-8.54,0.63
,-9.031,0.318,-4.104,-8.918,0.431,-4.051,-3.36,-8.05,0.42
,-8.983,0.464,-4.259,-8.935,0.244,-3.836,-2.45,-8.89,-0.21
,-8.954,0.519,-4.142,-9.069,0.045,-3.47,-1.47,-9.17,-0.35
13023.0,-9.27,0.17,-3.34,-9.103,0.562,-3.668,-0.21,-9.31,-0.35
,-9.268,0.318,-3.439,-8.995,0.292,-3.781,-1.12,-9.94,-0.56
,-9.249,0.586,-3.743,-8.823,-0.026,-3.422,-1.4,-10.71,-1.05
,-9.201,0.699,-3.824,-9.05,-0.201,-3.247,-2.52,-10.71,-1.47
13099.0,-9.249,0.062,-3.501,-9.033,0.737,-3.484,1.4,-9.52,-0.56
,-9.34,0.474,-3.611,-8.978,0.809,-4.104,3.71,-9.94,-0.84
,-9.39,0.833,-3.898,-8.954,0.404,-3.458,2.38,-10.64,-1.33
,-9.081,0.866,-3.874,-9.0,0.438,-3.719,-2.03,-10.78,-1.75
13174.0,-9.014,0.639,-3.829,-9.459,0.376,-2.816,-4.69,-10.22,-3.43
,-9.043,0.349,-3.551,-9.172,0.792,-2.876,-5.74,-10.01,-2.31
,-9.222,0.041,-3.156,-8.995,0.945,-2.735,-3.36,-9.1,-1.12
,-9.438,0.203,-2.836,-9.124,0.608,-3.159,1.47,-8.61,-1.4
13250.0,-9.16,0.493,-3.247,-9.474,0.914,-2.804,-9.17,-7.91,-3.08
,-9.091,0.433,-3.142,-9.457,1.278,-3.252,-8.47,-6.79,-2.66
,-9.33,0.179,-2.864,-9.129,1.223,-3.393,-6.02,-5.81,-2.38
,-9.383,0.402,-2.546,-9.007,0.842,-3.656,-2.8,-5.18,-3.01
13326.0,-8.981,0.433,-3.594,-9.442,0.144,-3.384,-14.0,-5.25,-6.09
,-9.146,0.129,-3.384,-9.368,-0.017,-3.668,-11.97,-5.18,-6.02
,-9.392,0.184,-3.41,-9.158,-0.201,-3.589,-9.59,-5.39,-5.67
,-9.39,0.148,-3.331,-9.148,-0.153,-3.384,-8.12,-5.81,-5.39
13402.0,-9.249,-0.029,-3.278,-9.44,0.29,-2.979,3.22,-5.25,-1.33
,-9.416,0.268,-3.297,-9.426,0.27,-3.003,4.97,-5.6,-1.26
,-9.387,0.438,-3.211,-9.395,0.447,-2.96,4.13,-5.74,-1.12
,-9.306,0.333,-2.938,-9.478,0.589,-3.226,2.73,-5.25,-0.77
13478.0,-9.428,0.632,-3.175,-9.402,0.625,-3.183,5.11,-4.34,-1.05
,-9.313,0.567,-2.979,-9.407,0.629,-3.597,4.69,-4.06,-1.05
,-9.397,0.586,-2.984,-9.335,0.524,-3.81,4.9,-3.78,-1.19
,-9.414,0.706,-3.34,-9.222,0.412,-3.764,5.18,-3.78,-1.75
13553.0,-9.529,0.189,-3.984,-9.04,0.337,-2.173,2.31,-6.79,-3.43
,-9.402,0.323,-3.776,-9.483,-0.249,-2.134,0.63,-8.4,-5.04
,-9.414,0.56,-3.166,-9.629,-0.141,-2.096,-2.31,-8.96,-5.6
,-9.091,0.689,-2.642,-9.452,-0.05,-1.977,-7.84,-9.52,-6.09
13629.0,-9.462,0.062,-2.096,-9.703,0.168,-2.015,-7.35,-2.94,-3.99
,-9.342,-0.165,-1.902,-9.722,0.235,-2.474,-5.53,-1.12,-2.87
,-9.38,-0.129,-1.85,-9.452,0.385,-2.852,-1.4,0.77,-1.75
,-9.507,-0.002,-1.771,-9.363,0.366,-3.269,3.08,2.45,-0.63
13705.0,-9.304,0.182,-3.62,-9.56,0.416,-3.549,6.72,3.92,0.63
,-9.194,0.249,-3.745,-9.447,0.668,-3.62,7.14,3.5,0.7
,-9.268,0.254,-3.582,-9.261,0.584,-3.41,7.7,3.22,0.84
,-9.694,0.091,-3.776,-9.229,0.06,-3.235,6.23,1.96,-0.07
13781.0,-9.502,-0.249,-3.276,-9.399,0.206,-3.015,0.42,-0.77,-0.77
,-9.392,-0.034,-3.135,-9.325,0.304,-2.934,4.41,-0.28,-0.14
,-9.478,0.115,-3.072,-9.313,0.237,-2.924,6.3,-0.35,0.35
,-9.452,0.196,-3.017,-9.387,0.115,-2.742,6.79,-0.28,0.77
13856.0,-9.464,0.048,-2.625,-9.44,0.335,-2.773,4.34,1.19,1.12
,-9.509,0.055,-2.587,-9.411,0.313,-2.895,4.83,1.68,1.4
,-9.615,0.079,-2.675,-9.375,0.261,-2.871,4.27,1.75,1.4
,-9.529,0.201,-2.773,-9.414,0.292,-2.998,3.57,1.82,1.26
13932.0,-9.478,0.153,-3.084,-9.567,0.127,-3.013,-0.14,1.75,0.84
,-9.445,0.067,-3.032,-9.45,0.385,-2.927,0.49,1.89,1.26
,-9.392,0.091,-3.072,-9.387,0.488,-2.802,1.61,1.68,1.4
,-9.447,0.101,-3.061,-9.514,0.373,-3.003,3.15,1.89,1.82
14007.0,-9.404,0.321,-2.998,-9.483,0.404,-3.08,-0.7,1.4,0.84
,-9.397,0.318,-3.056,-9.507,0.378,-3.049,-0.63,1.4,0.7
,-9.316,0.282,-3.084,-9.521,0.4,-3.228,-0.21,1.75,0.77
,-9.428,0.244,-2.934,-9.481,0.285,-3.238,0.84,2.17,0.98
14083.0,-9.49,0.309,-3.293,-9.418,0.177,-2.84,-0.14,0.98,0.14
,-9.284,0.335,-3.226,-9.538,0.163,-2.659,-1.19,0.28,-0.21
,-9.246,0.299,-3.015,-9.619,0.29,-2.639,-1.82,0.14,-0.14
,-9.44,0.115,-2.996,-9.562,0.402,-2.91,-0.56,0.49,0.0
14159.0,-9.44,0.385,-2.845,-9.459,0.206,-2.833,2.31,2.45,0.84
,-9.275,0.196,-2.804,-9.471,0.23,-2.795,2.24,3.01,1.12
,-9.361,0.048,-2.809,-9.466,0.251,-2.912,3.57,3.78,1.47
,-9.421,0.129,-2.85,-9.5,0.354,-2.862,5.88,4.13,1.68
14235.0,-9.471,0.359,-2.989,-9.464,0.261,-2.996,6.93,5.53,1.82
,-9.438,0.333,-2.936,-9.39,0.28,-2.752,6.65,5.74,1.75
,-9.454,0.333,-2.989,-9.399,0.172,-2.814,5.95,5.81,1.75
,-9.485,0.246,-2.972,-9.399,0.153,-2.819,5.32,5.81,1.61
14310.0,-9.44,0.251,-2.91,-9.368,0.357,-3.132,3.71,6.16,1.4
,-9.497,0.33,-3.072,-9.383,0.275,-3.214,3.64,6.16,1.19
,-9.6,0.378,-3.139,-9.378,0.347,-3.338,2.66,5.95,0.84
,-9.466,0.345,-3.128,-9.426,0.321,-3.506,1.89,5.95,0.77
14386.0,-9.284,0.237,-3.386,-9.316,0.23,-3.63,1.75,5.18,0.35
,-9.299,0.244,-3.429,-9.246,0.256,-3.508,1.96,4.62,0.28
,-9.335,0.211,-3.463,-9.232,0.17,-3.482,2.38,4.34,0.28
,-9.325,0.273,-3.539,-9.296,0.16,-3.369,2.94,3.92,0.28
14462.0,-9.373,0.206,-3.24,-9.426,0.325,-3.345,3.43,2.73,0.35
,-9.459,0.333,-3.223,-9.296,0.189,-3.388,3.29,2.52,0.35
,-9.452,0.352,-3.151,-9.244,0.12,-3.412,2.52,2.45,0.14
,-9.404,0.352,-3.218,-9.253,0.129,-3.4,2.03,2.17,-0.07
14538.0,-9.373,0.261,-3.357,-9.378,0.278,-3.235,3.71,1.33,0.14
,-9.45,0.359,-3.372,-9.395,0.22,-3.245,3.64,1.19,0.14
,-9.385,0.4,-3.324,-9.44,0.256,-3.195,2.8,0.91,0.21
,-9.325,0.359,-3.235,-9.421,0.218,-3.151,2.17,0.77,0.21
14614.0,-9.402,0.208,-3.106,-9.402,0.127,-3.087,3.43,0.7,0.28
,-9.373,0.158,-3.087,-9.378,0.196,-3.104,3.43,0.77,0.35
,-9.349,0.201,-3.077,-9.428,0.227,-3.223,3.43,0.98,0.35
,-9.373,0.22,-3.044,-9.43,0.242,-3.269,3.29,1.19,0.28
14689.0,-9.38,0.325,-3.29,-9.521,0.278,-3.199,3.08,1.12,0.35
,-9.313,0.266,-3.295,-9.478,0.321,-3.218,3.01,0.98,0.42
,-9.275,0.196,-3.214,-9.421,0.278,-3.233,3.29,1.26,0.56
,-9.399,0.22,-3.168,-9.332,0.227,-3.24,4.06,1.12,0.56
14765.0,-9.371,0.258,-3.324,-9.38,0.177,-3.264,3.71,0.49,0.28
,-9.39,0.287,-3.312,-9.356,0.151,-3.18,3.78,0.56,0.42
,-9.39,0.225,-3.264,-9.39,0.179,-3.183,3.99,0.56,0.42
,-9.366,0.17,-3.273,-9.454,0.227,-3.252,4.13,0.49,0.35
14840.0,-9.442,0.249,-3.209,-9.371,0.254,-3.111,3.57,0.0,0.0
,-9.399,0.246,-3.216,-9.428,0.311,-3.056,3.01,0.14,0.07
,-9.359,0.153,-3.156,-9.43,0.366,-3.142,2.66,0.0,0.14
,-9.318,0.175,-3.039,-9.428,0.244,-3.18,3.43,0.0,0.28
14916.0,-9.409,0.17,-3.19,-9.397,0.187,-3.106,3.08,0.14,0.0
,-9.402,0.194,-3.314,-9.351,0.22,-3.106,3.5,-0.21,-0.07
,-9.404,0.144,-3.281,-9.318,0.213,-3.101,3.5,-0.28,-0.14
,-9.387,0.129,-3.276,-9.38,0.089,-3.08,2.8,-0.21,-0.35
14992.0,-9.375,0.045,-3.034,-9.43,0.187,-2.91,2.73,-0.07,0.14
,-9.474,0.148,-3.049,-9.418,0.23,-2.895,3.99,0.0,0.14
,-9.375,0.175,-2.927,-9.433,0.29,-2.977,4.48,0.28,0.42
,-9.428,0.168,-2.881,-9.423,0.194,-3.07,4.69,0.7,0.77
15068.0,-9.433,0.201,-3.168,-9.447,0.203,-3.206,3.57,1.47,0.77
,-9.416,0.165,-3.18,-9.423,0.278,-3.319,3.43,1.47,0.63
,-9.387,0.132,-3.149,-9.34,0.165,-3.221,3.15,1.47,0.56
,-9.466,0.151,-3.156,-9.363,-0.026,-3.132,3.15,1.33,0.49
15143.0,-9.318,-0.124,-2.977,-9.469,0.23,-2.879,2.31,0.98,0.7
,-9.371,-0.124,-2.886,-9.459,0.258,-2.879,3.5,1.12,0.98
,-9.469,-0.026,-2.905,-9.363,0.27,-2.9,4.76,1.54,1.4
,-9.45,0.12,-2.831,-9.347,0.218,-2.953,5.46,1.61,1.54
15219.0,-9.34,0.225,-2.922,-9.517,0.517,-3.025,1.96,2.87,1.4
,-9.399,0.179,-2.903,-9.397,0.299,-3.053,1.68,3.22,1.26
,-9.514,0.218,-2.903,-9.337,0.124,-3.082,1.82,3.57,1.19
,-9.56,0.486,-2.998,-9.38,0.072,-3.187,1.68,3.85,0.98
15295.0,-9.38,0.091,-3.242,-9.378,0.27,-2.984,-1.89,4.13,0.77
,-9.373,0.232,-3.206,-9.435,0.39,-2.91,-0.77,4.13,0.84
,-9.404,0.318,-3.266,-9.526,0.421,-2.977,-0.49,4.13,0.84
,-9.375,0.321,-3.116,-9.459,0.433,-2.989,-1.05,4.2,0.7
15371.0,-9.383,0.304,-3.161,-9.318,0.275,-3.072,-9.73,3.57,-0.91
,-9.263,0.067,-3.25,-9.39,0.352,-2.833,-9.87,3.57,-0.91
,-9.261,-0.031,-3.151,-9.5,0.352,-2.924,-7.91,3.92,-0.77
,-9.299,0.091,-3.151,-9.476,0.093,-2.977,-5.6,4.06,-0.49
15446.0,-9.316,-0.168,-2.781,-9.287,-0.165,-2.824,-8.47,5.11,0.84
,-9.505,-0.223,-2.726,-9.186,-0.199,-2.448,-6.65,5.81,1.19
,-9.452,-0.242,-2.69,-9.203,-0.141,-2.12,-5.32,5.81,1.33
,-9.409,-0.184,-2.649,-9.299,-0.309,-1.653,-3.01,6.65,2.1
15522.0,-9.529,-0.318,-1.146,-9.103,0.278,-2.544,2.8,14.77,6.02
,-9.696,-0.12,-1.345,-8.856,-0.218,-2.19,5.25,16.73,5.95
,-9.619,0.16,-1.768,-9.024,-0.215,-2.742,5.11,17.71,5.6
,-9.287,0.974,-2.692,-8.808,-0.072,-3.496,2.8,18.76,6.16
15598.0,-8.662,0.026,-3.25,-9.289,-0.189,-2.924,3.01,22.19,9.24
,-8.701,0.024,-3.64,-9.225,0.06,-2.577,5.04,22.68,9.03
,-8.784,-0.122,-3.214,-9.387,0.584,-2.764,8.26,24.15,9.66
,-8.921,-0.16,-2.589,-9.153,0.955,-3.419,12.81,26.67,10.78
15673.0,-9.081,1.048,-3.9,-8.574,1.29,-4.891,15.47,23.73,10.5
,-8.88,0.687,-3.857,-8.552,1.414,-5.106,14.14,25.2,10.78
,-8.792,0.579,-3.934,-8.978,1.125,-4.901,15.61,26.04,10.15
,-8.744,0.859,-4.195,-8.997,1.065,-4.46,18.41,25.41,8.4
15749.0,-9.081,1.342,-4.168,-9.11,0.081,-4.793,10.43,22.82,3.64
,-8.935,1.295,-4.752,-9.052,-0.043,-4.197,7.98,21.49,1.05
,-8.961,0.859,-4.994,-8.902,0.333,-4.415,4.55,19.88,0.07
,-9.043,0.443,-4.98,-8.851,0.852,-4.937,2.52,18.9,0.49
15825.0,-8.772,1.266,-5.597,-8.882,1.371,-5.415,10.5,12.11,-1.89
,-8.866,1.273,-5.836,-9.016,1.012,-5.291,7.7,10.29,-1.47
,-8.758,1.311,-5.757,-8.964,0.668,-5.133,4.9,10.36,-1.54
,-8.739,1.397,-5.401,-8.849,0.361,-5.104,3.57,11.2,-3.01
15901.0,-8.945,-0.057,-4.91,-8.885,-0.218,-4.427,-1.75,6.02,-5.95
,-8.971,-0.357,-4.63,-8.997,0.172,-4.647,-0.35,6.3,-5.18
,-8.792,-0.677,-4.408,-9.048,0.5,-4.776,2.38,7.42,-4.55
,-8.854,-0.546,-4.341,-8.827,0.763,-4.96,6.65,6.3,-4.06
15976.0,-8.418,0.804,-5.044,-9.344,-0.404,-4.518,5.95,1.61,-3.64
,-8.636,0.67,-4.927,-8.875,-0.431,-4.683,4.2,2.24,-4.34
,-8.792,0.282,-4.855,-8.531,-0.359,-4.781,3.08,2.17,-4.69
,-9.016,-0.041,-4.702,-8.6,-0.29,-4.86,3.29,2.03,-4.41
16052.0,-9.019,-0.06,-4.884,-8.811,0.043,-4.496,12.32,0.07,-0.07
,-9.194,-0.067,-5.023,-8.461,0.261,-4.417,12.81,-0.91,0.28
,-9.107,-0.096,-4.91,-8.339,0.407,-4.214,12.95,-0.7,0.56
,-8.997,-0.156,-4.582,-8.607,0.433,-4.111,12.95,-0.84,0.63
16128.0,-8.875,0.246,-3.932,-9.148,0.232,-4.367,5.53,-0.7,0.7
,-9.076,0.098,-3.759,-9.072,0.333,-4.501,5.32,0.7,1.54
,-9.136,-0.019,-3.666,-8.851,0.491,-4.963,6.23,1.26,2.1
,-9.251,0.065,-3.891,-8.32,0.168,-4.819,7.63,0.7,2.31
16204.0,-8.308,-0.438,-4.463,-9.241,-0.359,-4.056,7.56,0.14,4.41
,-8.827,-0.713,-4.233,-9.024,0.022,-4.216,8.54,0.84,5.39
,-9.229,-0.835,-4.166,-8.61,0.263,-4.295,10.64,1.33,6.65
,-9.407,-0.701,-4.14,-8.358,0.586,-4.281,12.81,0.84,7.21
16279.0,-8.591,0.792,-4.221,-8.947,1.797,-4.123,9.52,1.19,3.57
,-8.899,1.455,-4.413,-9.076,1.486,-3.92,10.29,0.84,2.24
,-9.06,1.838,-4.42,-9.239,1.034,-3.984,9.8,0.91,0.21
,-9.0,1.974,-4.255,-9.136,0.62,-3.987,6.65,1.33,-2.24
16355.0,-9.038,0.041,-3.965,-8.758,-0.885,-4.448,0.49,5.53,-7.49
,-8.806,-0.349,-4.056,-9.107,-0.945,-4.267,2.1,4.55,-5.25
,-8.447,-0.565,-4.381,-9.258,-1.034,-4.037,3.92,4.76,-3.43
,-8.447,-0.742,-4.544,-9.311,-0.761,-3.991,5.88,6.16,-2.31
16430.0,-9.038,-0.124,-4.439,-8.55,-0.364,-4.929,12.95,6.3,-1.89
,-8.758,0.302,-4.704,-8.571,-0.61,-4.898,11.2,6.23,-2.59
,-8.653,0.306,-4.793,-8.488,-0.641,-4.944,8.96,6.09,-2.45
,-8.619,0.12,-4.953,-8.729,-0.548,-4.824,5.6,5.81,-1.89
16506.0,-8.981,-0.335,-4.7,-8.995,0.756,-4.573,13.58,5.53,2.66
,-9.344,0.122,-4.544,-8.562,0.684,-4.542,17.36,4.69,1.96
,-9.033,0.479,-4.695,-8.378,0.369,-4.599,17.85,3.22,0.98
,-9.026,0.778,-4.621,-8.993,0.318,-4.707,16.66,3.43,0.21
16582.0,-9.076,0.503,-4.915,-9.024,-0.672,-4.353,5.74,3.85,-2.24
,-8.595,0.304,-4.963,-8.83,-0.62,-4.324,4.97,3.5,-2.66
,-8.768,-0.156,-4.853,-8.619,-0.421,-4.436,3.29,3.99,-2.31
,-8.892,-0.586,-4.176,-8.772,-0.321,-4.499,2.38,4.2,-1.12
16658.0,-8.835,-0.354,-4.252,-8.739,0.699,-4.917,4.83,3.08,0.7
,-8.768,-0.266,-4.422,-8.842,0.732,-5.138,4.97,3.08,1.05
,-8.928,-0.074,-4.726,-8.662,0.706,-4.977,6.09,2.38,1.19
,-8.576,0.179,-4.872,-8.993,0.498,-4.838,7.0,2.03,1.47
16734.0,-8.985,0.364,-4.836,-8.909,-0.577,-4.372,4.69,1.26,-1.75
,-8.978,0.251,-4.719,-8.842,-0.964,-4.346,4.34,1.54,-2.38
,-9.119,0.184,-4.664,-8.61,-1.053,-4.223,4.06,1.47,-2.8
,-8.897,-0.203,-4.575,-8.48,-1.058,-4.803,3.43,1.54,-2.8
16809.0,-8.665,-0.701,-4.669,-9.05,-0.593,-4.582,3.71,2.03,3.29
,-8.782,-0.323,-4.858,-8.662,-0.692,-4.487,3.64,1.96,2.8
,-8.983,-0.261,-4.932,-8.655,-0.613,-4.642,2.45,1.68,2.17
,-9.122,-0.44,-4.697,-8.765,-0.565,-4.487,1.89,1.82,1.96
16885.0,-8.866,-0.4,-4.506,-8.823,0.182,-4.681,2.52,3.15,5.81
,-8.861,-0.285,-4.669,-8.768,0.026,-4.681,3.15,3.08,5.67
,-8.947,0.017,-4.683,-8.758,0.062,-4.702,4.27,2.8,5.46
,-8.949,0.27,-4.848,-8.775,0.091,-4.666,4.76,2.03,5.46
16961.0,-8.902,-0.002,-4.568,-8.512,0.27,-4.786,4.2,2.66,4.69
,-9.009,0.072,-4.36,-8.634,0.196,-4.977,4.62,2.8,4.48
,-8.964,0.191,-4.487,-8.638,0.093,-4.898,4.62,2.45,4.76
,-8.701,0.172,-4.525,-8.794,0.002,-4.903,3.99,2.31,5.39
17037.0,-9.048,-0.043,-4.87,-8.725,0.531,-4.85,1.61,3.5,3.71
,-9.095,0.108,-4.824,-8.823,0.244,-4.606,2.8,3.15,3.43
,-8.796,0.361,-4.69,-8.863,0.074,-4.606,3.01,2.73,3.29
,-8.681,0.586,-4.764,-8.827,0.112,-4.743,1.47,2.38,3.22
17112.0,-8.885,0.378,-4.745,-9.007,0.687,-4.609,-3.15,3.15,2.8
,-8.856,0.591,-4.709,-8.751,0.727,-4.752,-2.66,3.01,1.96
,-8.969,0.727,-4.8,-8.868,0.749,-4.956,-3.43,2.31,1.05
,-9.052,0.754,-4.738,-8.842,0.56,-4.927,-4.27,1.89,0.42
17188.0,-8.758,0.239,-4.817,-8.727,-0.019,-4.929,-12.04,0.49,-0.63
,-8.827,-0.007,-4.817,-8.72,0.115,-4.901,-12.46,0.7,-0.35
,-8.923,0.034,-4.764,-8.949,0.27,-5.018,-11.48,0.49,-0.14
,-8.947,0.084,-4.815,-8.997,-0.151,-4.424,-10.85,-0.28,0.14
17263.0,-8.94,0.079,-4.645,-8.667,-0.323,-4.903,-8.26,0.14,-0.98
,-8.964,0.256,-4.977,-8.775,-0.242,-4.882,-7.98,-0.63,-0.84
,-8.794,0.012,-4.996,-8.859,-0.404,-4.941,-10.22,-1.05,-0.35
,-8.71,-0.17,-4.905,-8.758,-0.431,-4.898,-11.62,-1.54,0.49
17339.0,-8.782,-0.562,-4.743,-8.842,-0.06,-4.719,-6.93,-1.75,2.17
,-8.737,-0.299,-5.059,-8.629,0.055,-4.774,-4.69,-2.17,2.73
,-8.933,-0.199,-4.953,-8.729,-0.134,-4.57,-3.5,-2.38,2.66
,-9.064,-0.304,-4.558,-8.911,-0.251,-4.386,-5.53,-3.78,2.8
17415.0,-9.0,0.002,-4.566,-8.894,0.447,-4.719,0.35,-5.46,2.38
,-8.839,0.292,-4.884,-8.978,0.371,-4.537,1.68,-5.81,2.24
,-8.741,0.409,-4.853,-9.186,0.486,-4.338,2.17,-5.32,2.45
,-8.758,0.443,-4.8,-9.074,0.759,-4.57,2.52,-5.18,1.96
17491.0,-8.583,0.713,-4.621,-8.918,0.117,-4.331,-0.7,-10.22,0.56
,-8.483,0.682,-4.666,-8.775,0.127,-4.379,-1.26,-9.87,0.21
,-8.815,0.383,-4.585,-8.768,0.23,-4.434,-2.87,-9.8,0.14
,-8.973,0.17,-4.413,-8.914,0.069,-4.288,-3.57,-9.38,0.35
17566.0,-8.906,-0.108,-4.118,-8.624,0.239,-4.137,3.71,-6.3,1.68
,-9.194,-0.268,-3.91,-8.988,0.218,-3.967,3.29,-6.58,2.52
,-9.002,-0.524,-3.599,-8.949,0.33,-4.094,3.64,-9.24,1.96
,-8.808,0.254,-4.197,-8.94,0.39,-4.032,6.16,-9.59,3.57
17642.0,-8.83,0.505,-4.176,-8.859,0.416,-4.003,3.08,-9.87,4.83
,-8.847,0.495,-4.145,-8.985,0.347,-3.97,3.78,-9.03,4.62
,-8.844,0.553,-4.212,-9.191,0.282,-3.932,4.55,-8.12,4.34
,-8.787,0.488,-4.156,-9.332,0.28,-4.013,5.88,-6.65,4.9
17718.0,-9.215,0.352,-4.066,-8.878,0.34,-4.269,12.74,-4.97,5.11
,-9.048,0.364,-4.13,-9.069,0.56,-4.336,11.97,-5.81,5.39
,-8.918,0.215,-4.197,-8.978,0.625,-4.149,11.06,-6.51,5.46
,-8.835,0.144,-4.238,-9.031,0.696,-4.037,10.85,-7.0,5.46
17794.0,-9.088,0.589,-4.015,-9.198,0.845,-3.879,3.85,-9.24,4.06
,-9.095,0.402,-3.893,-9.174,0.845,-3.778,1.89,-9.17,3.78
,-9.048,0.043,-3.692,-9.208,0.849,-3.611,0.07,-9.59,3.5
,-9.098,0.66,-3.977,-9.517,0.749,-3.51,3.15,-10.85,3.43
17870.0,-9.49,0.9,-3.824,-9.057,0.574,-3.458,-1.96,-12.25,-2.24
,-9.244,0.964,-3.939,-9.143,0.28,-3.288,-4.27,-12.6,-3.29
,-8.959,0.938,-3.628,-9.031,0.151,-3.484,-7.14,-12.39,-3.57
,-8.897,0.747,-3.542,-8.99,0.024,-3.472,-8.26,-11.9,-4.41
17945.0,-8.952,0.067,-3.475,-9.21,-0.041,-3.154,-6.44,-11.06,-5.18
,-9.038,0.045,-3.527,-9.155,0.019,-2.895,-4.97,-10.85,-4.06
,-9.246,-0.034,-3.288,-9.177,0.29,-3.3,-4.41,-10.15,-3.22
,-9.361,-0.065,-3.278,-9.17,0.364,-3.479,-3.78,-9.59,-2.87
18021.0,-9.083,0.445,-3.551,-9.526,0.385,-2.589,-2.94,-8.4,-1.75
,-9.177,0.39,-3.632,-9.488,0.615,-2.831,-3.5,-8.19,-1.4
,-9.275,0.33,-3.094,-9.237,0.708,-3.096,-2.66,-7.14,-1.54
,-9.416,0.313,-2.704,-9.098,0.574,-3.02,-1.33,-5.95,-2.17
18096.0,-9.033,0.438,-3.489,-9.325,0.675,-3.343,-5.46,-5.04,-1.89
,-9.026,0.366,-3.403,-9.347,0.584,-2.924,-2.87,-4.55,-1.82
,-9.158,0.366,-3.295,-9.399,0.436,-2.783,0.14,-4.48,-1.89
,-9.284,0.543,-3.606,-9.387,0.309,-2.802,0.63,-5.25,-2.24
18172.0,-9.313,0.194,-2.699,-9.258,0.057,-3.132,-3.36,-3.08,-3.22
,-9.136,0.268,-2.869,-9.213,-0.246,-2.886,-3.36,-2.87,-3.01
,-9.299,0.189,-2.979,-9.222,0.041,-3.132,-2.94,-2.94,-2.52
,-9.32,0.077,-3.216,-9.237,0.223,-3.168,-2.87,-2.45,-2.24
18248.0,-9.194,0.378,-2.893,-9.507,0.57,-3.195,0.56,-1.26,-0.84
,-9.349,0.333,-2.608,-9.208,0.704,-3.338,0.21,-0.7,-0.35
,-9.469,0.187,-2.402,-9.196,0.503,-3.628,0.84,0.28,-0.14
,-9.617,0.383,-2.594,-9.206,0.237,-3.647,3.01,0.56,-0.21
18324.0,-9.258,0.242,-3.592,-9.356,0.139,-3.52,1.82,-0.35,-0.63
,-9.33,0.328,-3.379,-9.222,0.041,-3.726,1.75,-0.63,-0.84
,-9.457,0.395,-3.195,-9.119,-0.069,-3.537,0.98,-0.91,-1.12
,-9.529,0.256,-3.534,-9.244,-0.06,-3.29,-0.91,-1.05,-1.54
18399.0,-9.421,0.05,-3.269,-9.507,0.632,-3.317,7.28,-1.47,0.98
,-9.423,0.28,-3.096,-9.414,0.507,-3.314,8.68,-1.54,1.19
,-9.459,0.488,-3.233,-9.33,0.342,-3.269,7.56,-1.82,1.05
,-9.462,0.589,-3.099,-9.414,0.316,-3.52,6.23,-1.82,0.84
18475.0,-9.363,0.313,-3.601,-9.342,0.108,-2.936,2.59,-3.22,-0.91
,-9.222,0.263,-3.388,-9.368,0.172,-2.611,3.43,-3.57,-0.7
,-9.234,0.266,-3.362,-9.514,0.189,-2.525,3.22,-3.78,-0.56
,-9.256,0.151,-3.056,-9.457,0.117,-2.242,3.29,-3.78,-0.56
18550.0,-9.541,0.053,-2.168,-9.335,0.395,-2.393,3.43,-0.56,0.35
,-9.572,0.098,-2.125,-9.478,0.402,-2.582,4.34,0.56,0.63
,-9.612,0.244,-2.309,-9.433,0.366,-2.556,5.11,1.19,0.77
,-9.497,0.249,-2.357,-9.447,0.373,-2.663,5.53,2.03,0.98
18626.0,-9.38,0.467,-2.752,-9.194,0.144,-3.436,3.36,5.88,-0.07
,-9.474,0.476,-2.912,-9.349,0.122,-3.333,1.26,5.74,-0.7
,-9.44,0.34,-3.295,-9.529,0.246,-3.546,-0.42,5.81,-0.77
,-9.294,0.218,-3.35,-9.5,0.467,-3.644,-1.05,5.88,-0.63
18702.0,-9.438,0.462,-3.807,-9.287,0.177,-3.597,2.03,3.99,-0.28
,-9.232,0.273,-3.905,-9.397,0.153,-3.273,0.84,3.57,-0.28
,-9.122,0.158,-3.9,-9.447,0.203,-3.037,1.4,3.15,0.07
,-9.162,0.136,-3.8,-9.457,0.168,-2.783,2.94,2.66,0.21
18778.0,-9.462,0.055,-2.522,-9.395,0.206,-2.919,1.68,2.45,0.21
,-9.507,0.175,-2.84,-9.359,0.242,-3.01,0.91,2.52,-0.21
,-9.457,0.258,-2.845,-9.421,0.261,-3.08,0.21,2.94,-0.21
,-9.402,0.225,-2.831,-9.385,0.22,-3.218,-0.56,3.64,-0.07
18854.0,-9.335,0.251,-3.345,-9.28,0.244,-3.86,0.63,4.2,0.28
,-9.33,0.309,-3.503,-9.201,0.244,-3.865,0.63,3.99,0.21
,-9.275,0.278,-3.625,-9.203,0.287,-3.798,0.84,3.71,0.14
,-9.275,0.249,-3.685,-9.222,0.275,-3.654,1.47,3.36,0.35
18929.0,-9.258,0.249,-3.475,-9.445,0.187,-2.924,5.46,0.84,0.91
,-9.373,0.168,-3.35,-9.445,0.263,-2.867,5.67,0.49,0.91
,-9.378,0.139,-3.173,-9.421,0.342,-3.027,5.46,0.49,0.98
,-9.375,0.158,-2.974,-9.318,0.325,-3.101,5.39,0.49,0.91
19005.0,-9.342,0.304,-3.089,-9.347,0.223,-3.4,2.66,2.03,0.49
,-9.32,0.34,-3.094,-9.263,0.179,-3.427,2.66,2.17,0.49
,-9.397,0.349,-3.214,-9.28,0.124,-3.419,2.87,2.24,0.42
,-9.409,0.349,-3.3,-9.258,0.132,-3.331,2.38,2.31,0.35
19081.0,-9.349,0.156,-3.281,-9.351,0.313,-3.159,3.64,1.89,0.49
,-9.359,0.177,-3.123,-9.354,0.28,-3.185,3.92,1.96,0.49
,-9.433,0.246,-3.108,-9.332,0.11,-3.19,3.64,1.89,0.35
,-9.452,0.258,-3.089,-9.313,0.112,-3.123,3.22,2.17,0.28
19157.0,-9.356,0.103,-3.228,-9.368,0.179,-3.281,4.06,2.8,0.7
,-9.366,0.268,-3.23,-9.337,0.258,-3.338,4.34,2.8,0.63
,-9.378,0.242,-3.3,-9.395,0.22,-3.451,3.78,2.8,0.56
,-9.318,0.299,-3.228,-9.325,0.182,-3.441,3.15,3.08,0.49
19232.0,-9.318,0.132,-3.386,-9.399,0.297,-3.329,2.45,2.59,0.56
,-9.313,0.144,-3.379,-9.356,0.235,-3.324,3.29,2.59,0.63
,-9.361,0.213,-3.302,-9.325,0.22,-3.293,3.57,2.38,0.63
,-9.375,0.254,-3.309,-9.342,0.179,-3.305,3.43,2.38,0.56
19308.0,-9.371,0.213,-3.367,-9.251,0.235,-3.381,2.31,2.17,0.21
,-9.332,0.251,-3.333,-9.313,0.244,-3.297,2.31,2.24,0.35
,-9.356,0.175,-3.41,-9.34,0.268,-3.297,1.96,2.24,0.42
,-9.284,0.179,-3.393,-9.335,0.239,-3.233,2.17,2.03,0.42
19383.0,-9.32,0.239,-3.288,-9.261,0.208,-3.472,1.68,1.82,0.35
,-9.371,0.225,-3.336,-9.287,0.139,-3.448,1.61,1.75,0.35
,-9.351,0.206,-3.396,-9.304,0.151,-3.403,1.54,1.68,0.42
,-9.294,0.215,-3.47,-9.342,0.218,-3.381,1.68,1.4,0.42
19459.0,-9.351,0.208,-3.348,-9.282,0.124,-3.285,2.1,1.05,0.35
,-9.411,0.213,-3.285,-9.289,0.16,-3.34,1.61,0.91,0.28
,-9.38,0.239,-3.434,-9.294,0.232,-3.302,1.61,0.98,0.21
,-9.325,0.235,-3.238,-9.337,0.275,-3.273,1.19,0.98,0.28
19535.0,-9.359,0.261,-3.257,-9.347,0.124,-3.238,2.52,1.05,0.63
,-9.371,0.249,-3.223,-9.342,0.098,-3.218,2.03,0.98,0.56
,-9.337,0.179,-3.149,-9.354,0.103,-3.238,1.68,1.19,0.56
,-9.368,0.139,-3.173,-9.418,0.168,-3.276,1.54,1.26,0.49
19611.0,-9.395,0.203,-3.305,-9.332,0.235,-3.355,1.82,1.68,0.49
,-9.383,0.232,-3.348,-9.373,0.313,-3.357,1.68,1.75,0.56
,-9.32,0.175,-3.343,-9.33,0.304,-3.362,1.47,1.82,0.7
,-9.265,0.17,-3.329,-9.354,0.232,-3.357,1.96,1.68,0.63
19687.0,-9.318,0.16,-3.374,-9.328,0.294,-3.336,2.1,1.33,0.56
,-9.28,0.141,-3.295,-9.335,0.278,-3.326,2.38,1.33,0.56
,-9.373,0.235,-3.364,-9.38,0.266,-3.326,2.24,1.33,0.49
,-9.371,0.203,-3.364,-9.383,0.237,-3.35,1.82,1.12,0.21
19762.0,-9.301,0.213,-3.329,-9.344,0.156,-3.264,0.42,0.98,0.0
,-9.306,0.196,-3.364,-9.337,0.175,-3.3,0.7,0.98,0.14
,-9.335,0.132,-3.376,-9.349,0.223,-3.319,1.19,0.7,0.0
,-9.299,0.168,-3.331,-9.359,0.211,-3.281,1.61,0.77,0.21
19838.0,-9.342,0.168,-3.305,-9.363,0.177,-3.293,0.7,0.63,0.28
,-9.366,0.127,-3.336,-9.416,0.225,-3.367,0.77,0.42,0.28
,-9.378,0.115,-3.331,-9.32,0.136,-3.288,1.4,0.7,0.42
,-9.392,0.172,-3.302,-9.311,0.115,-3.336,1.61,0.7,0.49
19914.0,-9.294,0.089,-3.419,-9.366,0.292,-3.403,0.77,0.21,0.56
,-9.304,0.12,-3.338,-9.356,0.345,-3.372,1.19,0.21,0.7
,-9.311,0.201,-3.396,-9.28,0.246,-3.372,1.61,0.0,0.7
,-9.335,0.201,-3.386,-9.356,0.237,-3.352,2.1,-0.35,0.7
19990.0,-9.308,0.278,-3.197,-9.356,0.199,-3.025,1.89,-0.49,0.77
,-9.39,0.33,-3.202,-9.349,0.146,-3.061,1.89,-0.7,0.49
,-9.373,0.359,-3.233,-9.351,0.124,-3.003,0.98,-0.63,0.42
,-9.38,0.292,-3.144,-9.335,0.16,-3.005,0.21,-0.35,0.35
20065.0,-9.347,0.129,-3.032,-9.428,0.342,-3.393,-1.05,0.56,0.77
,-9.399,0.194,-3.089,-9.38,0.333,-3.355,-0.56,0.84,0.91
,-9.366,0.201,-3.149,-9.335,0.328,-3.398,-0.28,0.91,0.91
,-9.402,0.313,-3.295,-9.284,0.287,-3.34,-0.28,0.84,0.77
20141.0,-9.284,0.215,-3.3,-9.45,0.33,-3.252,-3.22,0.0,0.07
,-9.414,0.187,-3.307,-9.282,0.282,-3.295,-2.31,0.0,0.0
,-9.454,0.371,-3.558,-9.273,0.132,-3.209,0.35,-0.14,0.0
,-9.538,0.359,-3.405,-9.383,-0.034,-3.123,-0.63,-0.42,-0.28
20216.0,-9.426,-0.146,-2.934,-9.411,0.045,-2.726,-1.82,-0.07,0.42
,-9.416,-0.036,-2.922,-9.442,0.026,-2.852,1.19,0.35,0.84
,-9.45,0.156,-2.965,-9.392,0.168,-2.802,3.57,0.91,1.33
,-9.423,0.122,-2.843,-9.368,0.251,-2.807,4.62,1.68,1.82
20292.0,-9.344,0.172,-2.718,-9.22,0.081,-2.871,5.11,3.29,3.08
,-9.402,0.139,-2.666,-9.292,-0.01,-2.788,4.62,3.85,3.29
,-9.399,0.065,-2.764,-9.258,0.045,-2.752,3.78,3.85,3.08
,-9.363,0.041,-2.967,-9.349,0.12,-2.355,3.85,3.99,3.22
20368.0,-9.514,0.287,-2.146,-9.28,0.455,-3.171,8.26,8.54,4.9
,-9.596,0.476,-2.431,-9.284,0.17,-3.113,7.21,8.82,4.06
,-9.44,0.538,-2.431,-9.328,-0.074,-3.128,4.83,9.17,3.78
,-9.368,0.577,-2.941,-9.275,0.043,-3.037,1.75,9.03,3.71
20444.0,-9.162,0.55,-3.338,-9.203,0.651,-3.838,7.42,10.99,3.57
,-9.234,1.06,-3.484,-9.206,0.249,-3.668,6.79,9.31,2.24
,-9.313,1.304,-3.922,-9.177,0.029,-3.963,2.59,7.7,1.12
,-9.213,1.115,-4.089,-9.165,-0.014,-4.015,-2.38,7.0,0.56
20519.0,-9.174,-0.27,-3.285,-9.313,0.622,-3.721,4.34,8.05,1.4
,-9.282,-0.196,-3.3,-9.206,0.237,-3.85,8.12,8.33,2.03
,-9.337,0.098,-3.022,-9.172,-0.261,-3.74,11.97,7.77,2.45
,-9.325,0.438,-3.376,-9.174,-0.459,-3.496,12.53,6.23,1.82
20595.0,-9.141,-0.287,-3.144,-9.385,0.692,-3.329,10.15,8.19,3.29
,-9.072,0.201,-3.257,-9.337,0.57,-3.108,13.23,8.47,2.38
,-9.062,0.598,-3.218,-9.404,0.474,-3.02,13.37,8.61,2.31
,-9.148,0.761,-3.324,-9.21,0.589,-3.522,10.57,7.91,2.45
20671.0,-9.112,0.524,-3.709,-8.799,-0.634,-3.391,1.19,7.77,0.63
,-9.268,0.323,-3.843,-9.052,-0.739,-3.235,-0.63,7.0,1.4
,-9.165,0.05,-3.788,-9.222,-0.756,-3.151,-1.47,7.07,2.24
,-8.892,-0.158,-3.652,-9.105,-0.732,-2.919,-0.49,8.12,2.66
20747.0,-9.112,-0.529,-2.903,-9.407,1.871,-4.14,12.95,12.11,7.07
,-9.189,-0.017,-2.893,-9.213,1.893,-4.092,16.03,13.3,6.65
,-9.344,0.694,-3.065,-8.892,1.46,-3.743,18.34,12.67,5.81
,-9.397,1.407,-3.702,-8.667,0.684,-3.393,17.92,10.64,4.83
20823.0,-8.691,-0.254,-3.446,-9.105,-0.687,-3.685,-4.69,14.49,1.4
,-9.052,-0.842,-3.53,-8.899,-0.048,-3.728,-1.68,14.07,2.73
,-9.275,-1.12,-3.676,-9.021,0.689,-3.604,3.43,14.35,4.83
,-9.27,-1.096,-3.659,-8.971,1.254,-3.912,9.52,15.47,6.79
20898.0,-8.971,1.677,-4.209,-8.789,1.01,-3.877,13.3,12.39,2.38
,-9.131,1.862,-4.245,-9.153,0.488,-3.764,7.42,13.09,0.7
,-8.969,1.838,-4.133,-9.172,0.27,-3.979,1.89,13.86,-0.91
,-8.77,1.498,-3.987,-9.079,0.371,-3.92,-2.03,14.91,-2.17
20974.0,-9.043,0.72,-3.984,-8.94,1.328,-4.7,7.0,15.12,-1.33
,-9.141,0.998,-4.003,-8.713,1.079,-4.575,8.54,13.79,-2.52
,-9.007,1.213,-4.494,-8.727,0.79,-4.384,8.75,11.83,-4.06
,-8.933,1.275,-4.647,-8.825,0.352,-4.477,7.77,11.34,-5.46
21049.0,-8.878,-0.163,-4.776,-8.89,-2.582,-4.824,-3.57,12.18,-7.98
,-8.835,-0.869,-5.023,-8.842,-2.694,-4.678,-5.53,10.85,-5.32
,-8.878,-1.799,-5.059,-9.134,-1.996,-4.884,-7.63,10.29,-1.61
,-8.873,-2.51,-4.898,-9.158,-1.163,-4.982,-6.51,9.87,2.66
21125.0,-8.904,-0.201,-4.781,-8.875,1.78,-4.52,18.83,4.97,10.22
,-8.72,0.613,-4.786,-8.739,1.766,-4.424,16.24,4.76,9.94
,-8.744,1.149,-4.884,-8.921,1.89,-4.288,12.67,4.97,8.96
,-8.839,1.441,-4.609,-9.103,1.843,-4.078,9.38,5.53,7.42
21201.0,-9.366,1.989,-4.099,-8.461,1.39,-5.056,5.6,5.25,0.56
,-9.244,1.883,-4.274,-8.256,0.589,-5.307,8.26,6.23,-2.03
,-9.397,2.139,-4.606,-8.425,-0.299,-5.284,10.5,5.04,-4.55
,-8.873,1.974,-5.154,-8.643,-1.249,-4.884,10.15,3.92,-6.02
21277.0,-8.813,-1.692,-4.683,-8.646,-0.407,-4.745,9.94,5.88,-1.26
,-8.981,-1.634,-4.681,-8.835,-0.115,-4.771,14.84,5.67,-0.77
,-9.452,-1.28,-4.396,-8.899,0.041,-5.087,17.99,4.13,-0.28
,-9.287,-0.613,-4.659,-8.698,-0.187,-4.889,18.27,1.05,-0.21
21352.0,-8.753,-0.357,-4.654,-8.856,0.17,-4.168,7.56,-1.12,1.47
,-8.756,-0.383,-4.666,-9.162,0.72,-4.374,7.56,-2.17,2.31
,-8.729,-0.538,-4.324,-9.299,1.177,-4.465,8.75,-2.1,2.94
,-8.818,-0.132,-4.063,-9.186,1.354,-4.618,11.48,-2.03,3.22
21428.0,-8.935,1.462,-4.958,-8.823,0.136,-4.393,17.71,-1.05,-3.01
,-8.969,1.381,-5.013,-8.378,-0.632,-4.472,15.61,-0.77,-4.62
,-8.66,1.048,-5.097,-8.435,-0.864,-4.513,13.23,-2.03,-5.81
,-8.662,0.546,-4.836,-8.89,-0.742,-4.477,11.34,-2.38,-5.46
21504.0,-9.117,-0.223,-4.491,-8.509,-0.146,-4.704,13.02,-3.92,-1.47
,-9.167,0.203,-4.578,-8.634,-0.514,-4.817,14.77,-4.27,-3.08
,-9.301,0.4,-4.226,-8.667,-0.696,-4.788,13.02,-6.51,-3.5
,-8.978,0.483,-4.771,-8.966,-0.725,-4.702,7.98,-8.54,-4.06
21580.0,-9.141,-0.952,-4.46,-8.842,-0.285,-3.979,5.32,-6.23,1.19
,-8.961,-1.041,-4.326,-8.612,0.163,-4.468,7.91,-6.02,1.61
,-9.002,-0.883,-4.058,-8.39,0.151,-4.465,10.43,-5.67,2.8
,-9.088,-0.476,-4.233,-8.703,0.0,-4.293,11.9,-6.93,3.78
21655.0,-8.928,-0.323,-4.013,-9.368,-0.845,-3.697,6.37,-2.1,4.06
,-9.765,-0.474,-3.86,-8.564,-0.73,-3.982,7.84,-2.17,4.27
,-9.713,-0.876,-3.601,-8.588,-0.38,-4.097,9.73,-2.73,4.55
,-9.584,-0.818,-3.656,-8.887,-0.337,-3.989,11.41,-3.22,5.46
21731.0,-9.311,-0.108,-3.939,-8.777,1.096,-4.252,13.65,-0.28,8.4
,-9.289,0.225,-3.472,-9.162,1.0,-4.24,12.95,-0.35,8.68
,-9.055,0.782,-3.915,-9.22,0.866,-4.109,11.2,-1.12,8.19
,-8.49,1.01,-4.257,-9.325,0.972,-4.147,7.91,-0.91,7.14
21807.0,-9.349,0.838,-4.073,-8.519,0.031,-4.142,4.55,1.54,1.19
,-9.32,0.615,-3.826,-8.964,-0.053,-4.068,3.71,1.82,0.91
,-9.234,0.584,-3.85,-9.119,-0.251,-4.257,2.8,1.05,1.61
,-8.806,0.309,-4.147,-9.208,-0.227,-4.214,0.98,1.26,2.03
21882.0,-9.246,-0.213,-4.329,-8.909,-0.172,-3.967,2.03,3.01,0.49
,-8.99,-0.29,-4.235,-8.902,0.158,-4.25,1.26,2.94,0.56
,-8.842,-0.4,-4.058,-9.083,0.27,-4.312,0.77,3.5,1.19
,-8.799,-0.376,-3.934,-9.134,0.225,-4.389,0.7,3.99,2.03
21958.0,-8.99,0.218,-4.413,-9.282,0.203,-4.152,-4.13,4.06,2.87
,-8.885,0.361,-4.491,-8.933,0.189,-4.523,-3.36,4.76,2.45
,-9.043,0.361,-4.518,-8.835,0.024,-4.398,-3.36,4.83,1.96
,-9.34,0.246,-4.25,-8.945,-0.117,-4.46,-3.5,4.62,1.96
22034.0,-8.966,-0.237,-4.369,-9.067,0.39,-4.379,-8.82,4.2,4.76
,-9.045,-0.342,-4.212,-8.897,0.775,-4.396,-7.63,4.62,4.55
,-9.117,-0.366,-4.2,-8.835,0.926,-4.298,-6.23,4.62,4.2
,-9.112,-0.057,-4.329,-9.191,0.787,-4.183,-4.41,4.34,4.62
22110.0,-9.282,0.715,-4.166,-8.949,-0.002,-4.2,-11.48,3.08,1.68
,-9.246,0.725,-4.118,-9.091,-0.072,-4.298,-11.48,3.29,1.19
,-9.093,0.658,-4.161,-9.1,0.328,-4.554,-11.83,3.15,1.26
,-8.928,0.302,-4.214,-9.174,0.433,-4.506,-15.61,3.01,1.75
22185.0,-8.995,0.273,-4.42,-9.086,-0.029,-4.824,-10.01,1.47,2.73
,-8.911,0.093,-4.398,-8.981,-0.146,-4.858,-11.27,1.68,2.45
,-8.957,0.084,-4.568,-9.11,-0.476,-4.558,-12.18,1.82,2.87
,-9.0,-0.108,-4.647,-8.964,-0.581,-4.731,-13.3,1.68,3.78
22261.0,-8.993,-0.503,-4.781,-9.052,0.206,-4.19,-7.63,0.49,4.55
,-9.177,-0.306,-4.602,-8.94,0.756,-4.884,-3.64,0.07,4.48
,-9.304,0.139,-4.659,-9.311,0.974,-4.568,-0.77,-1.12,3.99
,-9.158,0.342,-4.759,-9.232,1.144,-4.836,0.07,-1.61,3.5
22337.0,-8.894,1.187,-4.824,-9.093,1.055,-4.307,-2.1,-6.09,0.77
,-8.497,1.082,-4.614,-9.15,1.173,-4.338,-2.8,-4.34,0.07
,-8.717,1.058,-4.307,-8.942,1.089,-4.456,-3.5,-4.41,-0.49
,-8.981,1.053,-4.293,-8.882,0.83,-4.367,-3.99,-5.25,-0.7
22413.0,-8.758,0.644,-4.334,-9.007,-0.11,-4.135,-4.06,-6.09,-2.73
,-8.906,0.526,-4.185,-9.105,-0.172,-4.085,-2.31,-5.81,-3.15
,-9.005,0.311,-4.214,-9.139,-0.132,-4.336,-1.75,-5.67,-3.29
,-8.878,-0.057,-4.092,-8.981,-0.254,-4.19,-3.5,-6.16,-3.57
22488.0,-8.576,-0.158,-4.178,-9.139,0.548,-3.685,2.38,-10.99,1.4
,-8.586,-0.043,-4.006,-9.083,0.656,-3.735,3.92,-10.43,1.96
,-8.847,0.201,-3.979,-9.143,0.646,-3.735,5.32,-10.64,2.52
,-9.093,0.488,-3.747,-9.067,0.747,-3.831,6.16,-10.22,2.94
22564.0,-8.985,0.701,-3.824,-9.249,0.766,-3.563,10.22,-5.04,3.15
,-9.22,0.751,-3.766,-9.323,0.84,-3.683,8.82,-7.28,2.17
,-8.949,0.9,-3.695,-9.103,0.833,-3.58,6.72,-9.59,1.54
,-8.89,0.852,-3.606,-8.902,0.68,-3.649,5.46,-10.08,0.98
22639.0,-8.904,0.479,-3.869,-9.141,0.601,-3.393,-5.39,-12.25,-1.75
,-9.308,0.11,-2.96,-9.256,0.366,-3.458,-4.2,-10.5,-0.98
,-9.328,0.495,-3.273,-9.373,0.156,-3.52,-0.07,-10.08,-1.75
,-9.048,0.574,-3.278,-9.167,0.235,-3.597,1.26,-8.19,-2.03
22715.0,-8.964,0.057,-3.312,-9.282,0.651,-3.802,-1.68,-7.7,-1.19
,-9.124,-0.069,-3.053,-8.89,0.342,-3.845,0.7,-6.65,-1.12
,-9.442,0.189,-3.288,-8.902,-0.026,-3.398,3.64,-7.14,-1.4
,-9.304,0.445,-3.405,-8.954,-0.299,-2.931,5.18,-7.35,-1.4
22791.0,-9.196,-0.29,-2.709,-9.265,0.905,-3.673,12.81,-1.96,2.03
,-9.533,0.28,-2.991,-9.174,0.62,-3.252,16.45,-3.08,2.1
,-9.567,0.668,-3.436,-9.261,0.359,-3.029,15.96,-4.55,2.66
,-9.586,0.888,-3.728,-9.418,0.507,-3.159,12.67,-6.16,3.22
22867.0,-9.631,0.828,-3.209,-8.988,0.522,-3.13,13.16,-5.39,-0.35
,-9.533,1.278,-3.271,-8.983,0.218,-2.828,10.99,-6.86,-0.42
,-9.383,1.254,-3.12,-9.06,0.069,-2.709,5.18,-7.14,-0.42
,-9.227,0.94,-3.061,-9.474,0.053,-3.008,1.47,-6.23,-0.98
22943.0,-9.634,0.256,-3.242,-9.213,0.232,-2.611,4.34,-4.97,-1.19
,-9.538,0.361,-3.128,-9.258,0.287,-2.515,4.83,-4.2,-0.63
,-9.423,0.225,-3.037,-9.359,0.529,-2.058,3.29,-3.57,-0.63
,-9.196,0.211,-2.912,-9.56,0.797,-2.371,4.9,-2.52,-0.98
23018.0,-9.665,0.864,-2.448,-9.148,0.503,-3.293,0.98,-1.05,-3.08
,-9.464,0.859,-2.898,-9.141,0.651,-3.376,-2.87,-0.84,-3.85
,-9.256,0.692,-2.766,-9.344,0.62,-3.867,-5.67,0.0,-3.99
,-9.213,0.522,-3.118,-9.105,0.522,-3.678,-6.3,0.7,-4.48
23094.0,-9.081,0.302,-3.685,-9.447,0.017,-3.455,-9.1,-1.4,-5.74
,-9.217,0.285,-3.594,-9.273,0.014,-3.317,-8.26,-1.75,-5.95
,-9.337,0.084,-3.482,-9.227,-0.057,-3.23,-7.77,-1.54,-6.09
,-9.39,0.101,-3.151,-9.332,-0.208,-3.393,-5.95,-1.68,-5.81
23170.0,-9.328,-0.211,-3.285,-9.43,0.349,-2.996,-2.31,-2.24,-2.52
,-9.328,-0.074,-3.321,-9.507,0.246,-2.922,1.47,-2.45,-1.89
,-9.421,0.134,-3.446,-9.466,0.299,-2.881,2.73,-2.87,-1.68
,-9.359,0.335,-3.266,-9.56,0.29,-3.077,3.15,-2.66,-1.19
23246.0,-9.478,0.297,-3.029,-9.366,0.34,-3.254,4.34,-1.82,-0.7
,-9.421,0.352,-3.254,-9.328,0.488,-3.283,4.2,-1.75,-0.84
,-9.318,0.33,-3.352,-9.363,0.629,-3.352,3.92,-1.61,-0.91
,-9.344,0.258,-3.19,-9.301,0.436,-3.317,3.71,-1.89,-1.26
23321.0,-9.304,0.165,-3.049,-9.469,0.311,-2.477,-1.75,-3.08,-2.52
,-9.361,0.074,-2.962,-9.619,0.12,-2.553,0.42,-2.8,-2.31
,-9.402,0.074,-2.895,-9.538,0.024,-2.525,2.03,-2.52,-2.24
,-9.373,0.136,-2.563,-9.385,0.213,-2.706,2.8,-2.17,-2.1
23397.0,-9.32,0.065,-2.716,-9.66,0.266,-2.359,-2.1,-0.07,-1.82
,-9.308,0.014,-2.632,-9.782,0.412,-2.625,-1.47,1.05,-1.61
,-9.282,0.053,-2.398,-9.545,0.378,-2.917,-0.07,2.1,-1.26
,-9.411,0.026,-2.268,-9.361,0.17,-2.996,1.26,3.01,-0.91
23472.0,-9.301,0.06,-3.163,-9.543,0.232,-3.192,-1.33,4.48,-1.19
,-9.332,0.139,-3.228,-9.481,0.136,-3.233,0.49,4.27,-1.33
,-9.407,0.313,-3.218,-9.407,0.096,-3.29,0.63,4.06,-1.4
,-9.459,0.29,-3.144,-9.387,0.067,-3.501,-0.21,4.13,-1.47
23548.0,-9.323,0.136,-3.582,-9.363,0.206,-3.496,1.68,2.94,-0.84
,-9.275,0.232,-3.611,-9.385,0.235,-3.443,3.22,2.59,-0.63
,-9.268,0.165,-3.671,-9.373,0.16,-3.51,4.2,2.24,-0.35
,-9.249,0.242,-3.568,-9.351,0.105,-3.451,5.11,1.75,-0.28
23624.0,-9.428,0.084,-3.53,-9.289,0.103,-2.795,5.81,-0.56,0.0
,-9.308,0.072,-3.482,-9.407,0.175,-2.95,6.16,-0.98,0.0
,-9.294,0.029,-3.458,-9.483,0.031,-2.879,6.72,-1.05,0.14
,-9.261,0.024,-3.195,-9.426,-0.065,-2.769,7.42,-1.19,0.35
23700.0,-9.442,-0.16,-2.687,-9.44,0.215,-2.864,6.09,-0.28,0.56
,-9.497,-0.179,-2.642,-9.462,0.129,-2.864,7.21,0.42,0.77
,-9.502,-0.038,-2.663,-9.361,0.098,-2.903,8.4,0.91,1.12
,-9.462,0.12,-2.793,-9.483,0.079,-3.008,8.54,1.12,1.4
23775.0,-9.426,0.112,-3.101,-9.517,0.213,-2.96,7.63,2.24,1.54
,-9.347,0.191,-3.096,-9.447,0.22,-2.97,7.14,2.24,1.54
,-9.325,0.201,-2.934,-9.505,0.122,-3.106,6.65,2.45,1.54
,-9.457,0.187,-2.905,-9.402,0.055,-3.116,6.09,2.52,1.47
23851.0,-9.304,0.045,-3.072,-9.481,0.151,-3.187,2.17,2.73,0.7
,-9.347,0.069,-3.065,-9.464,0.089,-3.015,2.38,3.01,0.84
,-9.397,0.089,-3.094,-9.445,0.06,-3.061,1.89,2.94,0.7
,-9.325,0.165,-3.063,-9.454,0.06,-3.108,1.47,2.87,0.63
23927.0,-9.442,0.067,-3.159,-9.361,0.077,-3.202,-0.56,3.22,0.49
,-9.418,0.074,-3.154,-9.342,0.168,-3.25,-0.35,3.22,0.56
,-9.411,0.11,-3.199,-9.378,0.132,-3.192,-0.14,3.15,0.63
,-9.383,0.053,-3.161,-9.38,0.132,-3.185,0.0,3.08,0.56
24003.0,-9.454,0.122,-3.218,-9.351,0.112,-3.101,0.91,2.73,0.77
,-9.416,0.112,-3.147,-9.368,0.069,-3.044,1.26,2.73,0.91
,-9.438,0.122,-3.173,-9.421,0.16,-3.032,1.33,2.52,0.77
,-9.407,0.122,-3.166,-9.447,0.156,-3.116,1.26,2.59,0.84
24079.0,-9.459,0.081,-3.142,-9.383,0.141,-3.175,0.21,2.8,0.77
,-9.442,0.055,-3.173,-9.457,0.194,-3.23,-0.28,2.59,0.77
,-9.359,0.084,-3.175,-9.459,0.189,-3.242,-0.49,2.8,0.7
,-9.371,0.098,-3.185,-9.385,0.168,-3.221,-0.77,2.87,0.56
24154.0,-9.344,0.053,-3.216,-9.349,0.101,-3.068,-1.54,2.52,0.35
,-9.301,0.081,-3.223,-9.395,0.024,-3.027,-0.98,2.45,0.28
,-9.337,0.168,-3.214,-9.426,0.053,-2.955,-0.56,2.38,0.28
,-9.332,0.213,-3.195,-9.442,0.112,-3.061,-0.7,2.45,0.42
24230.0,-9.416,0.127,-3.154,-9.392,0.184,-3.226,-0.35,2.87,0.7
,-9.375,0.108,-3.084,-9.399,0.093,-3.202,-0.35,3.01,0.91
,-9.375,0.153,-3.166,-9.416,0.141,-3.336,-0.63,3.01,0.84
,-9.359,0.141,-3.223,-9.378,0.151,-3.367,-1.19,2.73,0.63
24305.0,-9.402,0.153,-3.52,-9.287,0.16,-3.568,-1.96,2.31,0.35
,-9.359,0.232,-3.592,-9.332,0.223,-3.51,-0.91,2.24,0.49
,-9.296,0.27,-3.68,-9.399,0.189,-3.47,0.28,2.03,0.84
,-9.22,0.191,-3.606,-9.368,0.232,-3.3,1.05,1.54,0.91
24381.0,-9.378,0.211,-3.247,-9.375,0.194,-3.034,4.13,-0.07,1.47
,-9.363,0.227,-3.226,-9.402,0.16,-3.07,4.06,-0.14,1.33
,-9.404,0.244,-3.171,-9.421,0.201,-3.039,3.57,-0.14,1.12
,-9.387,0.211,-3.137,-9.418,0.215,-3.032,2.94,-0.14,1.05
24457.0,-9.385,0.177,-3.022,-9.349,0.218,-3.096,3.01,0.7,1.26
,-9.397,0.184,-3.032,-9.378,0.158,-3.168,3.15,0.84,1.26
,-9.435,0.213,-3.089,-9.383,0.182,-3.202,2.87,0.98,1.12
,-9.359,0.218,-3.087,-9.368,0.196,-3.197,2.73,1.19,1.19
24533.0,-9.418,0.266,-3.187,-9.38,0.132,-3.302,2.87,1.19,1.12
,-9.418,0.261,-3.24,-9.402,0.084,-3.271,2.59,1.19,1.05
,-9.395,0.235,-3.264,-9.375,0.103,-3.281,2.24,1.05,0.98
,-9.378,0.235,-3.254,-9.356,0.146,-3.147,1.89,0.98,0.98
24608.0,-9.433,0.196,-3.192,-9.39,0.132,-3.144,2.8,0.7,0.98
,-9.407,0.158,-3.132,-9.397,0.153,-3.106,2.38,0.77,1.05
,-9.414,0.223,-3.13,-9.404,0.249,-3.084,1.96,0.7,1.05
,-9.373,0.151,-3.147,-9.407,0.246,-3.106,1.54,0.84,0.98
24684.0,-9.366,0.196,-3.065,-9.44,0.302,-3.056,1.61,1.05,0.91
,-9.347,0.158,-3.001,-9.397,0.261,-2.991,1.54,1.05,0.91
,-9.418,0.124,-2.946,-9.373,0.302,-3.144,1.68,1.4,0.98
,-9.421,0.218,-2.974,-9.402,0.235,-3.25,1.89,1.61,0.77
24760.0,-9.359,0.184,-3.25,-9.411,0.196,-3.221,0.56,1.54,0.63
,-9.361,0.065,-3.195,-9.342,0.225,-3.209,0.77,1.61,0.63
,-9.395,0.158,-3.19,-9.356,0.182,-3.23,1.4,1.61,0.7
,-9.409,0.187,-3.254,-9.349,0.227,-3.312,1.47,1.75,0.63
24836.0,-9.407,0.304,-3.252,-9.421,0.268,-3.295,2.17,1.12,0.63
,-9.407,0.33,-3.314,-9.361,0.12,-3.3,2.03,0.91,0.49
,-9.337,0.136,-3.211,-9.363,0.194,-3.168,1.4,0.77,0.56
,-9.373,0.187,-3.247,-9.373,0.203,-3.125,2.17,0.77,0.56
24912.0,-9.375,0.115,-2.943,-9.38,0.175,-2.833,2.87,1.12,0.84
,-9.404,0.189,-2.898,-9.404,0.177,-2.977,3.64,1.33,0.98
,-9.438,0.148,-2.903,-9.428,0.144,-3.008,3.78,1.68,1.33
,-9.395,0.22,-2.967,-9.45,0.177,-3.017,3.85,1.82,1.47
24987.0,-9.421,0.251,-3.032,-9.392,0.373,-3.132,1.96,3.01,1.12
,-9.387,0.309,-2.96,-9.457,0.373,-3.281,1.05,3.15,1.05
,-9.363,0.366,-3.156,-9.366,0.266,-3.23,0.0,3.29,0.84
,-9.371,0.369,-3.125,-9.433,0.199,-3.35,-0.84,3.29,0.63
25063.0,-9.375,0.215,-3.324,-9.5,0.237,-3.077,-3.36,2.45,0.0
,-9.342,0.158,-3.357,-9.483,0.574,-3.36,-3.36,2.38,0.07
,-9.347,0.179,-3.362,-9.378,0.39,-3.025,-2.87,2.1,0.14
,-9.423,0.177,-3.295,-9.361,0.361,-3.195,-3.01,1.89,0.07
25138.0,-9.356,0.258,-3.23,-9.471,0.077,-3.221,-7.84,0.98,-0.7
,-9.373,-0.141,-2.965,-9.342,0.067,-3.056,-8.12,1.12,-0.42
,-9.371,0.043,-3.278,-9.445,0.177,-3.032,-3.85,1.47,-0.14
,-9.385,0.06,-3.211,-9.433,0.273,-3.262,-0.91,1.82,0.21
25214.0,-9.306,0.268,-3.34,-9.308,0.017,-2.955,-0.21,0.42,0.7
,-9.268,0.211,-3.434,-9.476,0.261,-3.211,0.07,0.07,1.4
,-9.308,0.01,-3.319,-9.373,0.457,-3.149,0.84,0.35,2.17
,-9.351,-0.055,-3.226,-9.287,0.357,-2.824,3.01,0.63,2.45
25290.0,-9.311,0.151,-2.525,-9.378,0.23,-2.668,3.85,2.66,2.59
,-9.423,0.122,-1.984,-9.332,0.089,-2.869,4.62,4.13,2.94
,-9.672,0.096,-2.551,-9.34,-0.246,-2.515,4.27,4.2,2.31
,-9.447,0.151,-2.723,-9.38,-0.292,-2.661,2.73,3.71,2.24
25366.0,-9.332,-0.005,-2.534,-9.416,0.297,-2.663,5.6,5.6,3.85
,-9.311,0.325,-2.85,-9.416,0.199,-2.553,6.79,5.67,3.29
,-9.167,0.45,-2.795,-9.457,0.261,-2.668,5.95,5.95,3.22
,-9.356,0.369,-2.745,-9.371,0.409,-2.9,5.81,7.42,3.99
25441.0,-9.366,0.517,-3.005,-9.194,0.785,-3.697,8.96,9.45,3.5
,-9.256,0.431,-2.946,-8.914,0.567,-4.027,7.07,9.8,3.57
,-9.38,0.213,-2.678,-8.976,0.213,-3.683,6.79,10.43,3.36
,-9.249,0.565,-3.252,-9.172,-0.103,-3.343,8.54,10.71,2.66
25517.0,-9.296,-0.17,-3.015,-9.036,0.05,-3.783,6.16,11.69,3.01
,-9.414,-0.053,-3.331,-9.107,-0.242,-3.314,7.84,11.55,2.1
,-9.225,0.048,-3.422,-9.344,-0.16,-2.943,8.61,9.8,1.33
,-9.237,0.156,-3.642,-9.17,0.208,-3.266,8.4,8.75,2.03
25592.0,-9.196,0.503,-3.34,-9.021,-0.057,-2.924,7.28,11.41,2.03
,-9.194,0.593,-3.582,-9.074,-0.038,-2.733,4.2,10.5,2.03
,-9.033,0.302,-3.388,-9.28,0.01,-2.678,1.33,10.64,2.94
,-9.155,-0.017,-3.025,-9.165,0.191,-3.07,0.49,12.18,3.64
25668.0,-9.079,0.168,-3.355,-9.103,0.603,-4.008,6.02,12.39,5.18
,-9.244,0.108,-3.317,-9.155,1.127,-4.003,6.44,13.51,6.37
,-9.146,0.026,-3.549,-9.074,1.816,-4.094,7.77,14.49,6.86
,-9.129,0.132,-3.695,-8.607,2.19,-4.228,10.71,14.77,6.37
25744.0,-8.772,2.173,-4.075,-9.009,1.175,-4.039,8.05,16.24,-2.03
,-9.174,1.898,-3.934,-9.026,0.866,-3.802,4.06,16.03,-3.64
,-9.361,1.582,-3.695,-8.985,0.637,-4.034,0.63,14.84,-5.11
,-9.423,1.529,-3.738,-8.942,0.237,-4.125,-0.77,14.0,-6.02
25820.0,-8.957,-0.117,-3.912,-8.782,-0.641,-4.044,-1.33,12.04,-7.28
,-8.995,-0.258,-3.872,-8.871,-0.586,-4.092,0.0,11.69,-7.0
,-8.954,-0.526,-4.034,-9.062,-0.323,-4.219,0.84,12.39,-6.86
,-8.947,-0.306,-4.298,-9.407,-0.201,-4.168,2.45,13.72,-6.51
25895.0,-9.11,-0.074,-4.669,-9.141,-0.692,-4.293,5.32,9.59,-3.08
,-8.603,-0.519,-4.604,-9.277,-0.694,-4.022,3.08,10.85,-1.68
,-8.473,-0.809,-4.353,-9.208,-0.653,-3.857,3.64,12.53,0.56
,-8.899,-0.976,-4.137,-9.038,-0.526,-4.039,6.3,12.67,2.17
25971.0,-8.949,-0.369,-4.377,-8.399,-0.11,-4.75,15.19,10.29,8.82
,-9.031,-0.254,-4.829,-8.918,-0.103,-4.664,14.84,8.26,10.22
,-8.684,-0.124,-5.312,-9.332,0.165,-4.69,14.49,7.49,10.92
,-8.315,-0.246,-5.439,-9.548,0.658,-4.896,14.77,8.61,11.06
26047.0,-9.311,0.696,-5.133,-8.483,0.311,-4.968,16.38,4.9,5.67
,-9.191,0.806,-4.982,-8.737,0.057,-4.673,14.0,4.06,4.69
,-8.89,0.735,-5.011,-8.806,0.17,-4.803,11.55,3.36,4.62
,-8.725,0.498,-4.937,-9.098,0.16,-4.704,9.17,2.94,5.11
26123.0,-9.265,0.306,-4.755,-8.985,1.141,-4.676,13.44,2.59,3.78
,-9.296,0.483,-4.791,-8.567,0.955,-4.987,14.98,2.1,3.08
,-9.232,0.79,-4.896,-8.33,0.5,-4.853,16.31,1.4,1.75
,-9.129,0.962,-4.59,-8.579,0.124,-4.503,15.54,0.7,0.56
26199.0,-8.969,0.012,-4.468,-8.947,0.878,-4.305,4.69,-0.84,-0.28
,-9.146,0.199,-4.212,-8.933,1.242,-4.274,6.23,-1.12,-0.98
,-9.0,0.055,-4.417,-8.748,1.146,-4.604,8.4,-1.61,-1.82
,-9.0,0.371,-4.228,-8.648,0.708,-4.477,9.59,-2.17,-2.94
26274.0,-8.643,0.266,-4.489,-9.471,-1.452,-4.011,-3.43,-2.73,-5.04
,-8.763,-0.062,-4.525,-9.136,-1.369,-4.118,-3.64,-2.38,-4.69
,-8.887,-0.598,-4.537,-9.428,-0.993,-3.881,-3.85,-1.33,-4.06
,-9.179,-1.053,-4.223,-9.162,-0.227,-4.106,-2.59,-0.7,-2.8
26350.0,-8.232,0.45,-4.477,-9.634,0.325,-4.391,11.97,-2.59,0.28
,-8.299,0.596,-4.448,-9.395,0.019,-4.101,8.68,-0.84,0.14
,-8.926,0.677,-4.41,-9.043,0.022,-4.259,5.53,-0.21,-0.28
,-9.079,0.39,-4.29,-8.483,0.089,-4.367,3.64,-0.07,-0.35
26425.0,-8.519,0.191,-4.448,-8.89,-0.349,-4.398,6.58,-0.77,1.4
,-8.859,-0.005,-4.532,-8.887,-0.168,-4.405,5.32,-0.21,1.89
,-9.385,-0.098,-4.314,-8.949,-0.369,-4.568,5.95,-0.7,2.38
,-9.167,-0.189,-4.525,-8.83,-0.433,-4.446,6.23,-1.26,2.52
26501.0,-9.076,-0.184,-4.281,-8.985,0.412,-3.716,4.83,-0.14,2.38
,-9.332,0.366,-4.329,-8.83,0.428,-3.977,7.07,-1.26,1.47
,-9.332,0.55,-4.48,-8.65,0.474,-4.056,6.51,-1.47,0.0
,-9.306,0.438,-3.924,-8.99,0.416,-3.965,5.04,-0.98,-0.91
26577.0,-8.897,0.12,-3.987,-9.098,-0.706,-3.924,0.07,0.98,1.89
,-8.871,-0.079,-3.716,-8.894,-0.522,-4.039,0.14,1.4,3.22
,-9.139,-0.316,-3.836,-8.741,-0.462,-4.049,0.42,1.33,3.92
,-9.127,-0.474,-3.999,-9.019,-0.189,-3.944,0.7,1.89,4.34
26653.0,-9.033,-0.005,-4.075,-8.691,0.206,-4.176,3.71,4.83,4.13
,-9.098,-0.034,-3.967,-8.909,0.33,-4.19,2.59,5.53,3.99
,-9.122,-0.007,-4.125,-9.067,0.498,-4.192,2.17,5.53,3.99
,-8.873,0.081,-4.185,-8.964,0.378,-4.094,2.03,6.09,4.2
26728.0,-8.978,0.153,-3.948,-9.191,0.692,-4.305,1.26,7.14,5.04
,-8.906,0.043,-3.96,-9.392,0.682,-4.561,2.38,7.56,4.9
,-8.83,0.27,-3.96,-9.198,0.438,-4.611,4.34,8.4,4.41
,-8.94,0.548,-4.111,-8.969,0.33,-4.58,5.25,9.17,3.29
26804.0,-8.758,0.057,-4.563,-9.217,0.053,-4.755,-0.91,9.03,1.82
,-8.536,-0.254,-4.381,-9.064,0.34,-4.901,-2.73,10.01,3.08
,-8.612,-0.488,-4.417,-9.036,0.481,-4.903,-2.94,11.06,4.27
,-8.954,-0.304,-4.661,-9.072,0.771,-4.996,-1.47,11.48,4.97
26880.0,-8.99,0.826,-4.829,-9.007,0.565,-4.872,-4.55,7.84,2.31
,-8.899,0.821,-4.798,-8.916,0.555,-4.891,-7.0,7.21,1.82
,-8.871,0.617,-4.709,-9.024,0.517,-4.74,-9.17,6.65,1.82
,-8.978,0.467,-4.838,-9.026,0.677,-4.779,-9.94,6.51,2.38
26956.0,-8.839,0.483,-4.75,-8.933,0.572,-4.934,-9.03,4.2,1.82
,-8.76,0.548,-4.86,-8.887,0.33,-4.733,-9.66,4.2,2.03
,-8.804,0.608,-4.819,-8.952,0.452,-5.166,-9.87,4.27,2.17
,-8.875,0.696,-5.023,-8.818,0.093,-5.257,-10.5,4.2,1.61
27032.0,-9.009,-0.538,-4.664,-8.873,0.196,-5.492,-22.82,2.94,0.49
,-8.976,-0.792,-4.52,-9.076,0.213,-5.339,-20.58,2.31,1.12
,-8.794,-0.574,-4.987,-9.062,-0.002,-4.992,-14.91,1.54,1.54
,-8.748,-0.416,-5.193,-8.988,0.354,-4.984,-10.22,1.68,1.75
27107.0,-8.44,-2.453,-4.829,-8.739,0.507,-4.795,-7.21,0.14,2.45
,-8.732,-0.56,-3.747,-8.66,0.648,-4.85,-1.54,-1.54,-2.03
,-9.079,0.383,-4.664,-8.708,0.771,-4.901,7.49,-4.27,-2.1
,-8.894,0.498,-4.908,-8.806,0.761,-4.872,8.26,-5.53,-0.77
27183.0,-8.777,0.785,-4.719,-8.82,0.457,-4.295,5.11,-5.25,-1.75
,-8.756,0.83,-4.58,-8.66,0.38,-4.413,5.25,-5.18,-2.24
,-8.835,0.711,-4.482,-8.713,0.187,-4.329,4.2,-5.04,-1.96
,-9.062,0.548,-4.178,-8.741,0.316,-4.496,1.89,-5.74,-1.4
27258.0,-8.94,0.306,-4.353,-8.713,-0.01,-4.537,1.4,-8.82,-0.49
,-8.981,0.077,-4.415,-8.591,-0.191,-4.374,3.22,-9.59,-1.47
,-8.993,0.282,-4.527,-8.787,-0.388,-4.197,2.59,-10.57,-0.07
,-8.866,0.153,-4.403,-9.115,-0.579,-4.188,0.63,-10.64,0.84
27334.0,-9.17,-0.476,-4.176,-9.119,0.256,-3.97,4.55,-9.1,5.39
,-8.971,-0.215,-4.324,-9.127,0.507,-3.977,6.93,-9.59,6.51
,-8.832,0.038,-4.322,-8.782,0.823,-4.166,9.17,-9.45,7.14
,-8.823,0.225,-4.223,-8.758,0.969,-3.972,10.01,-9.66,7.14
27410.0,-8.808,1.036,-3.888,-9.098,1.132,-3.735,0.35,-15.05,4.34
,-8.942,0.988,-3.769,-8.914,0.782,-3.783,-0.07,-14.07,3.43
,-9.091,1.055,-3.676,-8.973,0.5,-3.549,0.07,-12.95,2.8
,-9.141,1.149,-3.597,-9.088,0.235,-3.412,0.14,-11.83,2.1
27486.0,-8.792,0.251,-4.307,-9.06,0.826,-3.783,0.84,-12.53,0.21
,-9.136,0.194,-3.381,-8.665,0.648,-3.699,0.14,-11.97,1.33
,-9.325,0.727,-3.611,-8.887,0.325,-3.585,2.66,-11.62,0.91
,-9.028,0.771,-3.85,-9.048,0.081,-3.635,0.07,-11.13,0.07
27561.0,-9.182,-0.017,-3.618,-9.105,0.68,-3.396,-1.05,-4.9,1.96
,-9.241,0.189,-3.644,-9.033,0.704,-3.29,2.24,-4.13,2.38
,-9.328,0.151,-3.668,-9.129,0.646,-3.472,3.15,-4.83,2.03
,-9.263,0.543,-3.465,-9.124,0.44,-3.458,3.36,-6.09,1.47
27637.0,-9.005,0.553,-3.585,-9.165,0.646,-3.324,-3.99,-9.45,0.49
,-9.186,0.591,-3.403,-9.088,0.771,-3.214,-3.78,-8.75,-0.28
,-9.22,0.503,-3.104,-9.196,0.792,-3.494,-3.85,-7.42,-0.91
,-9.244,0.574,-3.154,-9.261,0.78,-3.987,-3.43,-6.37,-1.26
27713.0,-9.16,0.823,-3.884,-9.227,0.347,-2.989,-4.13,-4.69,-0.14
,-9.124,0.704,-3.862,-9.344,0.261,-3.108,-2.73,-3.78,0.07
,-9.189,0.438,-3.582,-9.469,0.189,-2.955,-2.03,-3.22,-0.49
,-9.167,0.16,-2.778,-9.373,0.05,-2.699,0.63,-2.59,-0.84
27789.0,-9.462,0.129,-2.869,-9.17,0.672,-3.015,-1.54,-3.29,0.14
,-9.237,0.294,-3.226,-9.351,0.601,-2.764,-1.47,-3.43,-0.28
,-9.06,0.388,-3.049,-9.383,0.395,-2.903,-1.68,-2.87,0.0
,-9.115,0.732,-3.484,-9.49,0.538,-2.747,-1.33,-2.45,0.21
27864.0,-9.483,0.653,-2.95,-8.916,0.491,-3.903,-0.21,-0.7,-0.7
,-9.445,0.821,-3.266,-8.976,0.469,-3.798,-0.42,-0.7,-1.19
,-9.299,0.73,-3.348,-9.201,0.505,-4.111,-3.29,-0.7,-1.61
,-9.186,0.61,-3.955,-9.141,0.581,-3.932,-6.09,-1.33,-2.38
27940.0,-9.122,0.526,-3.589,-9.452,0.11,-2.513,-0.98,-2.45,-1.26
,-9.201,0.438,-3.3,-9.572,0.285,-2.946,-1.12,-2.52,-0.77
,-9.433,0.395,-3.065,-9.447,0.426,-3.135,0.91,-1.96,-0.56
,-9.497,0.189,-2.752,-9.265,0.699,-3.36,1.47,-1.4,0.0
28015.0,-9.165,0.89,-3.427,-9.203,0.56,-2.953,0.7,-0.91,0.07
,-9.052,0.854,-3.393,-9.361,0.313,-3.053,-0.35,-0.63,-0.21
,-9.191,0.766,-3.465,-9.423,0.424,-3.008,-0.14,-0.84,-0.7
,-9.304,0.751,-3.338,-9.395,0.66,-3.312,-1.4,-0.91,-1.05
28091.0,-9.222,0.67,-3.228,-9.404,0.431,-3.01,-2.24,0.0,-0.77
,-9.174,0.486,-3.111,-9.483,0.39,-2.848,-2.38,0.42,-0.56
,-9.371,0.249,-3.106,-9.567,0.447,-2.931,-1.82,0.7,-0.56
,-9.38,0.354,-3.163,-9.493,0.627,-3.135,-1.33,0.63,-0.49
28167.0,-9.387,0.727,-3.345,-9.323,0.591,-3.743,-2.45,1.68,-0.7
,-9.155,0.838,-3.659,-9.44,0.845,-3.807,-4.06,1.54,-0.91
,-9.05,0.357,-3.542,-9.256,0.866,-3.716,-4.27,1.54,-0.49
,-9.127,0.101,-3.443,-9.215,0.84,-3.793,-1.68,1.33,-0.49
28243.0,-9.134,0.615,-3.728,-9.323,0.62,-3.343,-1.82,-1.61,-1.47
,-9.16,0.419,-3.51,-9.184,0.632,-3.233,-1.4,-1.47,-1.4
,-9.186,0.342,-3.338,-9.16,0.45,-3.056,-0.21,-1.82,-1.26
,-9.366,0.486,-3.441,-9.217,0.503,-2.819,0.84,-2.52,-1.33
28319.0,-9.435,0.727,-2.838,-9.387,0.27,-2.649,2.66,-1.96,-1.12
,-9.505,0.79,-2.831,-9.392,0.122,-2.644,1.96,-1.75,-1.33
,-9.392,0.648,-2.769,-9.469,0.134,-2.639,0.63,-1.05,-1.19
,-9.332,0.471,-2.704,-9.543,0.321,-2.977,0.56,-0.21,-0.91
28394.0,-9.545,0.498,-3.211,-9.134,0.39,-3.704,6.3,2.24,0.63
,-9.395,0.577,-3.632,-9.194,0.302,-3.374,6.02,2.1,0.7
,-9.206,0.615,-3.908,-9.409,0.395,-3.216,5.67,1.82,0.84
,-9.048,0.529,-3.927,-9.55,0.522,-3.049,6.23,1.47,0.98
28470.0,-9.596,0.61,-3.216,-9.306,0.651,-3.156,6.72,0.21,0.56
,-9.435,0.605,-3.159,-9.361,0.692,-3.104,5.25,0.42,0.63
,-9.263,0.538,-3.259,-9.359,0.644,-3.063,4.62,0.63,0.63
,-9.244,0.548,-3.25,-9.325,0.562,-3.013,5.18,0.91,0.49
28546.0,-9.32,0.471,-2.989,-9.366,0.354,-3.075,3.78,1.61,0.28
,-9.402,0.493,-3.08,-9.296,0.201,-3.051,3.85,1.96,0.07
,-9.416,0.514,-3.08,-9.337,0.27,-3.027,3.5,2.24,-0.07
,-9.397,0.493,-3.075,-9.399,0.294,-3.195,3.43,2.38,-0.14
28622.0,-9.428,0.345,-3.149,-9.206,0.433,-3.601,5.67,3.29,0.35
,-9.474,0.414,-3.223,-9.217,0.383,-3.647,5.11,3.36,0.21
,-9.447,0.469,-3.302,-9.28,0.412,-3.611,4.76,3.43,0.21
,-9.316,0.436,-3.496,-9.337,0.498,-3.513,4.13,3.15,0.14
28697.0,-9.34,0.546,-3.439,-9.328,0.392,-3.226,6.93,1.96,0.56
,-9.363,0.469,-3.415,-9.301,0.328,-3.288,6.09,1.82,0.42
,-9.349,0.476,-3.319,-9.323,0.4,-3.24,5.25,1.68,0.28
,-9.375,0.436,-3.324,-9.409,0.445,-3.216,4.55,1.75,0.14
28773.0,-9.411,0.541,-3.271,-9.289,0.268,-3.159,2.66,1.82,-0.42
,-9.356,0.462,-3.257,-9.414,0.357,-3.216,1.89,2.1,-0.35
,-9.282,0.285,-3.223,-9.404,0.459,-3.238,1.4,2.03,-0.28
,-9.28,0.206,-3.254,-9.349,0.479,-3.319,1.89,2.17,-0.21
28848.0,-9.359,0.476,-3.386,-9.373,0.416,-3.372,2.59,2.31,-0.07
,-9.34,0.447,-3.367,-9.34,0.467,-3.326,2.8,2.45,-0.14
,-9.311,0.409,-3.396,-9.332,0.517,-3.376,2.94,2.38,-0.21
,-9.311,0.366,-3.324,-9.34,0.517,-3.384,3.5,2.17,-0.14
28924.0,-9.28,0.498,-3.403,-9.383,0.335,-3.13,3.01,1.89,-0.35
,-9.229,0.431,-3.271,-9.378,0.328,-3.077,2.52,1.89,-0.35
,-9.311,0.359,-3.259,-9.361,0.345,-3.192,2.1,1.96,-0.49
,-9.368,0.33,-3.149,-9.371,0.369,-3.195,1.75,2.1,-0.63
29000.0,-9.34,0.392,-3.216,-9.318,0.39,-3.336,0.7,2.8,-0.77
,-9.308,0.369,-3.19,-9.318,0.421,-3.424,0.77,3.01,-0.63
,-9.323,0.306,-3.305,-9.323,0.347,-3.463,1.05,3.08,-0.56
,-9.33,0.333,-3.226,-9.239,0.335,-3.419,1.54,3.08,-0.49
29076.0,-9.27,0.246,-3.527,-9.347,0.424,-3.472,2.45,2.66,-0.21
,-9.313,0.189,-3.47,-9.316,0.445,-3.467,3.36,2.52,-0.07
,-9.337,0.299,-3.52,-9.27,0.366,-3.408,4.2,2.31,0.07
,-9.304,0.388,-3.451,-9.311,0.29,-3.388,4.55,2.24,0.14
29152.0,-9.289,0.22,-3.312,-9.342,0.433,-3.448,3.43,1.89,0.07
,-9.344,0.141,-3.29,-9.256,0.404,-3.489,3.57,1.82,0.07
,-9.335,0.29,-3.288,-9.299,0.325,-3.518,3.99,1.54,-0.07
,-9.313,0.395,-3.331,-9.306,0.294,-3.53,3.85,1.68,-0.07
29227.0,-9.282,0.38,-3.57,-9.292,0.404,-3.441,3.71,0.91,-0.21
,-9.282,0.445,-3.491,-9.287,0.34,-3.518,3.99,0.84,-0.07
,-9.344,0.426,-3.52,-9.325,0.282,-3.46,3.92,0.63,-0.21
,-9.32,0.433,-3.348,-9.344,0.278,-3.398,3.36,0.28,-0.35
29303.0,-9.32,0.282,-3.451,-9.306,0.304,-3.582,4.2,-0.35,-0.14
,-9.311,0.33,-3.451,-9.28,0.235,-3.498,4.69,-0.49,0.0
,-9.325,0.349,-3.503,-9.275,0.196,-3.498,4.9,-0.7,0.0
,-9.318,0.337,-3.518,-9.33,0.136,-3.453,4.9,-1.12,0.0
29379.0,-9.328,0.251,-3.369,-9.349,0.373,-3.137,7.14,-2.24,0.35
,-9.361,0.297,-3.314,-9.387,0.333,-3.049,7.07,-2.03,0.42
,-9.306,0.369,-3.257,-9.33,0.302,-3.017,6.44,-1.96,0.28
,-9.34,0.354,-3.211,-9.354,0.263,-2.955,5.88,-1.89,0.35
29455.0,-9.411,0.316,-2.967,-9.404,0.294,-3.324,2.94,-0.63,-0.21
,-9.435,0.258,-3.101,-9.383,0.273,-3.271,2.31,-0.42,-0.28
,-9.409,0.345,-3.111,-9.301,0.254,-3.23,1.75,-0.14,-0.35
,-9.301,0.416,-3.206,-9.344,0.313,-3.302,1.19,0.21,-0.42
29530.0,-9.375,0.261,-3.415,-9.337,0.246,-3.329,0.0,0.77,-0.42
,-9.349,0.34,-3.501,-9.34,0.242,-3.238,0.28,0.56,-0.28
,-9.409,0.347,-3.46,-9.354,0.347,-3.259,0.14,0.49,-0.21
,-9.318,0.227,-3.446,-9.395,0.28,-3.345,0.21,0.35,-0.07
29606.0,-9.306,0.366,-3.173,-9.332,0.11,-3.125,1.12,-0.14,0.07
,-9.371,0.211,-2.996,-9.368,0.187,-3.262,0.98,0.07,0.21
,-9.354,0.156,-3.049,-9.371,0.287,-3.218,1.61,0.07,0.35
,-9.371,0.091,-3.128,-9.402,0.244,-3.12,2.24,0.0,0.35
29681.0,-9.366,0.304,-3.185,-9.397,0.304,-3.058,5.04,0.0,0.98
,-9.395,0.292,-3.039,-9.332,0.309,-3.094,4.62,0.21,1.05
,-9.349,0.251,-2.905,-9.371,0.366,-3.111,4.41,0.49,1.12
,-9.414,0.335,-2.994,-9.354,0.357,-3.094,4.41,0.7,0.84
29757.0,-9.409,0.275,-3.116,-9.509,0.275,-3.07,2.45,1.26,0.49
,-9.387,0.266,-3.171,-9.497,0.392,-3.063,2.24,1.33,0.35
,-9.349,0.246,-3.183,-9.569,0.522,-3.07,2.1,1.4,0.42
,-9.373,0.201,-3.139,-9.433,0.414,-3.238,2.73,1.47,0.35
29833.0,-9.201,0.376,-3.276,-9.404,0.005,-2.795,-3.99,-0.21,-1.12
,-9.249,0.273,-3.211,-9.464,-0.17,-2.276,-4.9,-0.28,-0.91
,-9.359,0.05,-2.946,-9.519,0.299,-2.771,-4.62,-0.07,-0.98
,-9.438,0.01,-2.91,-9.407,0.342,-2.833,-3.43,0.21,-1.05
29909.0,-9.366,0.201,-2.481,-9.349,0.022,-2.876,-2.03,2.87,0.63
,-9.454,-0.024,-2.469,-9.318,0.117,-2.785,-2.17,3.57,0.91
,-9.34,0.086,-2.675,-9.38,0.053,-3.015,-1.4,4.41,0.98
,-9.397,0.074,-2.919,-9.308,0.045,-3.147,-1.26,5.11,1.26
29984.0,-9.208,-0.017,-2.998,-9.244,-0.038,-3.132,-1.75,6.02,3.29
,-9.318,-0.029,-2.927,-9.375,-0.002,-3.027,-0.28,6.79,3.92
,-9.306,-0.148,-2.965,-9.416,0.196,-3.513,1.61,7.56,4.62
,-9.268,-0.091,-2.931,-9.459,0.352,-3.436,4.55,7.77,5.11
30060.0,-9.33,0.574,-3.513,-9.261,0.28,-3.498,9.1,5.95,5.39
,-9.098,0.756,-3.805,-9.158,0.024,-3.293,5.53,5.11,4.27
,-8.961,0.687,-3.68,-9.201,0.086,-3.101,4.27,5.32,3.92
,-9.055,0.543,-3.439,-9.28,0.464,-3.324,5.88,6.79,4.06
30135.0,-9.459,0.866,-3.527,-9.098,-0.146,-2.496,20.09,7.98,4.76
,-9.476,0.768,-3.759,-9.115,0.17,-2.795,16.24,7.21,4.48
,-9.32,0.316,-3.58,-9.273,0.433,-2.814,11.9,7.84,4.97
,-9.055,-0.194,-2.907,-9.332,0.574,-3.072,10.57,9.38,5.46
30211.0,-9.344,0.687,-3.096,-9.091,0.866,-3.376,9.17,10.22,4.2
,-9.289,0.546,-3.089,-9.162,0.893,-3.202,4.83,10.92,3.78
,-9.249,0.505,-3.29,-9.117,0.909,-3.319,3.29,10.92,2.73
,-9.17,0.782,-3.573,-9.217,0.94,-3.238,3.64,10.78,1.47
30287.0,-9.39,0.981,-3.384,-9.105,-0.555,-3.283,1.33,10.92,-1.68
,-9.359,0.811,-3.436,-8.88,-0.84,-3.242,-0.35,10.43,-1.82
,-9.308,0.493,-3.539,-9.174,-0.689,-3.288,-2.45,10.29,-1.26
,-9.028,-0.012,-3.431,-9.287,-0.266,-3.601,-4.06,10.85,-0.77
30363.0,-9.208,-0.048,-3.874,-9.098,-0.687,-3.659,2.24,10.71,0.77
,-9.007,-0.074,-3.898,-9.45,-0.503,-3.898,0.49,11.27,1.89
,-8.78,-0.416,-3.817,-9.306,-0.23,-4.223,-0.7,12.6,3.29
,-8.827,-0.682,-3.776,-8.885,-0.112,-4.362,0.07,13.65,4.76
30439.0,-8.725,-0.127,-4.281,-9.225,2.144,-4.42,9.66,11.62,9.59
,-8.842,-0.017,-4.07,-9.1,2.462,-4.446,12.53,13.37,10.08
,-9.052,0.586,-4.034,-9.045,2.192,-4.336,16.94,13.72,9.24
,-9.294,1.414,-4.216,-9.277,1.807,-3.9,20.02,12.67,7.49
30514.0,-9.153,1.766,-4.161,-8.949,0.481,-4.221,-3.01,7.98,-1.89
,-8.988,1.318,-4.027,-9.052,0.282,-4.29,-5.32,7.98,-3.57
,-9.052,0.866,-3.905,-9.194,0.024,-4.089,-5.46,7.91,-4.06
,-8.971,0.56,-4.116,-9.337,0.158,-4.109,-4.48,7.35,-4.13
30590.0,-9.323,0.385,-4.042,-8.923,0.708,-4.058,2.38,6.23,-4.41
,-8.911,0.983,-4.477,-9.143,0.761,-3.996,2.31,3.92,-5.53
,-8.528,1.132,-4.453,-9.478,0.713,-3.747,-0.35,4.06,-6.23
,-8.492,0.893,-4.391,-9.454,0.859,-3.905,-4.06,5.6,-6.23
30666.0,-9.292,0.663,-3.924,-8.851,-0.933,-3.398,-7.56,4.2,-8.54
,-8.772,0.668,-4.145,-8.921,-0.936,-3.853,-8.4,4.27,-8.19
,-8.504,0.333,-4.154,-9.072,-1.031,-4.056,-8.33,6.23,-7.0
,-8.674,-0.196,-3.948,-9.182,-1.139,-3.982,-7.7,7.91,-5.46
30742.0,-9.366,-1.158,-4.011,-8.052,-0.952,-4.482,7.35,8.33,3.5
,-9.17,-1.062,-4.47,-8.478,-0.852,-4.049,8.82,7.07,4.83
,-8.933,-1.012,-4.422,-9.222,-0.447,-3.955,9.59,5.74,6.65
,-8.552,-0.96,-4.491,-9.409,0.002,-4.03,10.01,5.39,7.98
30817.0,-9.237,0.62,-4.267,-8.693,1.866,-4.776,16.17,4.48,10.57
,-9.062,1.345,-4.496,-8.622,1.615,-4.858,15.26,3.5,9.03
,-8.638,1.67,-4.597,-8.894,1.189,-4.716,12.74,3.71,6.58
,-8.796,1.938,-4.281,-8.921,0.481,-4.563,9.66,3.57,4.76
30893.0,-8.837,-0.392,-4.367,-9.517,-0.122,-4.082,0.0,6.37,4.34
,-9.002,-0.787,-3.984,-9.155,0.699,-4.374,3.15,6.72,5.18
,-9.153,-0.794,-4.168,-8.78,1.352,-4.525,7.42,6.3,5.18
,-9.351,-0.651,-4.185,-8.784,1.63,-4.657,12.67,6.72,4.48
30968.0,-8.533,1.508,-4.98,-8.703,-0.488,-4.554,8.96,3.22,-1.82
,-8.571,1.067,-4.819,-8.976,-0.962,-4.111,3.85,4.55,-2.24
,-8.837,0.78,-4.85,-9.225,-0.814,-4.36,1.12,5.39,-1.96
,-8.524,0.005,-4.712,-9.103,-0.613,-4.324,-0.35,5.67,-1.54
31044.0,-8.902,-0.084,-3.769,-9.002,0.756,-4.956,15.68,4.06,4.06
,-8.988,0.337,-4.393,-9.11,0.823,-4.695,16.52,4.27,3.64
,-9.179,0.603,-4.63,-8.547,0.629,-4.759,14.91,4.2,2.8
,-8.971,1.062,-4.815,-8.679,0.826,-4.843,13.09,4.2,2.24
31120.0,-8.832,0.749,-4.757,-8.935,0.17,-4.482,7.0,2.87,0.77
,-8.71,0.651,-4.635,-8.646,0.17,-4.659,5.95,3.78,0.21
,-9.423,0.503,-4.396,-8.856,0.168,-4.695,4.48,3.64,-0.14
,-9.27,0.33,-4.401,-8.904,0.112,-4.949,3.71,2.94,-0.28
31196.0,-9.036,0.354,-4.728,-8.904,0.469,-4.46,5.67,1.26,0.98
,-8.978,0.574,-4.908,-8.806,0.199,-4.334,7.21,0.35,-0.21
,-8.923,0.579,-4.714,-8.899,0.086,-4.322,6.93,0.07,-1.12
,-8.94,0.608,-4.642,-8.892,0.153,-4.472,5.81,-0.07,-2.03
31272.0,-8.933,0.034,-4.463,-8.835,0.555,-4.692,3.64,-0.28,0.91
,-8.83,-0.191,-4.525,-8.93,0.78,-4.743,3.78,0.07,1.4
,-8.861,-0.201,-4.448,-9.115,0.699,-4.728,5.74,0.07,1.82
,-8.854,0.055,-4.578,-9.055,0.424,-4.53,7.14,0.0,1.82
31347.0,-9.002,0.208,-4.408,-8.818,-0.081,-4.281,2.31,0.28,-1.75
,-8.923,0.043,-4.496,-9.076,-0.105,-4.712,2.31,-0.07,-1.54
,-8.758,0.026,-4.326,-9.098,-0.483,-4.025,2.45,0.28,-0.7
,-8.837,-0.067,-4.204,-8.94,0.019,-4.439,1.96,0.42,0.28
31423.0,-8.842,-0.141,-4.274,-8.794,0.199,-4.164,2.66,1.05,2.17
,-8.935,-0.189,-4.18,-8.947,0.077,-4.343,3.22,1.19,1.89
,-8.804,0.144,-4.168,-8.887,0.022,-4.408,3.71,2.03,1.61
,-8.825,0.39,-4.161,-8.878,0.043,-4.422,2.66,2.59,1.33
31499.0,-8.849,0.129,-4.48,-8.935,0.098,-4.183,3.29,4.55,2.52
,-8.789,0.081,-4.326,-8.758,0.115,-4.523,4.13,4.9,2.59
,-8.789,0.115,-4.307,-8.878,0.242,-4.489,4.55,5.6,2.59
,-8.844,0.019,-4.25,-9.043,0.156,-4.463,3.43,6.37,3.22
31575.0,-9.076,-0.029,-4.542,-8.978,0.445,-5.099,1.05,8.82,3.85
,-9.127,0.12,-4.697,-8.976,0.519,-5.231,2.03,8.82,4.27
,-9.17,0.244,-4.812,-8.914,0.57,-5.173,2.1,8.26,4.41
,-8.964,0.354,-4.858,-8.734,0.598,-5.288,1.61,7.77,4.48
31650.0,-8.868,0.522,-5.224,-8.799,0.668,-5.284,-1.54,3.99,4.2
,-9.093,0.476,-5.063,-8.605,0.735,-5.226,-1.75,3.22,3.78
,-9.122,0.447,-4.925,-8.83,0.452,-5.042,-2.94,2.24,3.29
,-9.079,0.577,-4.908,-9.076,0.203,-4.893,-4.83,1.12,2.8
31726.0,-9.158,0.081,-4.92,-8.741,0.689,-5.25,-8.75,-0.21,2.52
,-9.127,0.089,-5.042,-8.811,0.677,-4.736,-7.77,-0.63,3.15
,-8.751,0.318,-4.958,-8.794,0.859,-4.803,-7.21,-1.12,3.64
,-8.734,0.567,-4.929,-8.861,0.983,-4.877,-7.77,-2.38,4.27
31801.0,-9.086,0.804,-4.805,-9.057,0.761,-4.788,-11.34,-4.55,2.24
,-9.055,0.842,-5.027,-9.27,1.007,-4.743,-12.53,-4.9,1.26
,-8.732,0.668,-5.08,-9.186,1.187,-4.953,-12.6,-4.76,0.49
,-8.818,0.761,-5.087,-8.801,0.9,-4.987,-10.15,-4.27,0.14
31877.0,-8.696,0.632,-4.929,-8.794,-0.034,-4.96,-10.71,-8.19,-3.15
,-8.693,0.491,-5.102,-8.275,-6.181,-3.005,-11.13,-8.26,-3.5
,-8.808,0.23,-4.905,-9.686,0.124,-2.804,-11.41,-8.05,-2.66
,-8.856,-0.129,-4.8,-9.464,1.766,-5.114,-9.45,-7.98,-1.89
31953.0,-8.646,1.065,-4.984,-9.213,0.651,-4.212,15.05,-17.01,-3.71
,-8.445,0.787,-4.661,-8.926,0.804,-4.293,8.4,-15.89,-3.71
,-8.55,0.849,-4.642,-8.794,0.878,-4.219,5.46,-15.75,-5.04
,-8.94,0.739,-4.523,-8.782,0.816,-4.197,3.99,-15.75,-4.62
32029.0,-8.949,0.864,-4.302,-8.914,0.036,-3.587,2.17,-17.92,-5.67
,-9.124,0.684,-4.022,-8.921,-0.105,-3.594,3.5,-17.92,-6.72
,-8.966,0.12,-3.575,-8.899,-0.526,-3.376,4.13,-17.15,-5.88
,-8.961,-0.017,-3.484,-9.028,-0.84,-3.254,5.95,-16.45,-5.18
32104.0,-9.072,-0.838,-3.338,-9.086,-0.596,-3.683,11.41,-11.9,-0.21
,-9.074,-0.792,-3.508,-9.074,-0.467,-3.46,14.21,-12.11,0.91
,-9.093,-0.768,-3.659,-9.036,-0.031,-3.525,15.19,-12.67,2.1
,-9.105,-0.627,-3.723,-9.088,0.215,-3.673,15.47,-13.65,3.5
32180.0,-9.17,0.347,-3.597,-9.1,0.409,-2.611,12.53,-17.85,5.53
,-9.072,0.577,-3.527,-9.552,0.67,-2.515,11.34,-17.22,5.74
,-8.861,0.524,-3.451,-9.387,0.885,-3.003,10.15,-16.03,6.02
,-8.169,0.268,-4.02,-9.292,0.979,-3.084,14.14,-18.27,4.13
32256.0,-9.043,1.039,-3.013,-9.21,0.873,-2.776,8.75,-13.3,1.68
,-9.282,1.024,-2.922,-9.165,1.007,-2.826,8.26,-12.04,0.98
,-9.27,0.972,-2.836,-9.091,1.034,-2.769,7.14,-10.15,0.42
,-9.569,0.871,-2.766,-9.497,0.921,-2.702,5.18,-10.15,-1.12
32332.0,-9.586,0.694,-2.735,-9.177,0.505,-2.891,-3.71,-8.4,-5.74
,-9.471,0.369,-2.764,-9.206,0.548,-3.199,-5.39,-7.35,-6.44
,-9.397,0.211,-2.606,-9.284,0.359,-2.95,-5.32,-6.3,-6.79
,-9.206,0.251,-2.656,-9.454,-0.043,-2.915,-5.11,-6.72,-7.7
32408.0,-9.284,-0.433,-2.508,-9.615,-0.419,-3.025,-7.42,-3.57,-6.44
,-9.253,-0.749,-2.977,-9.739,-0.065,-3.089,-5.04,-2.73,-6.09
,-9.27,-0.694,-2.828,-9.495,-0.11,-2.86,-0.77,-2.1,-4.97
,-9.445,-0.591,-2.922,-9.466,0.079,-2.888,3.92,-1.54,-2.87
32483.0,-9.277,0.034,-3.032,-9.548,0.541,-2.821,9.17,-0.21,-0.77
,-9.158,0.077,-3.022,-9.703,0.682,-2.795,8.54,-0.42,-0.98
,-9.091,0.242,-2.833,-9.481,0.687,-2.793,9.45,-0.28,-0.56
,-9.323,0.426,-2.936,-9.407,0.742,-2.795,10.36,-0.56,-0.77
32559.0,-9.44,0.39,-2.639,-9.251,-0.27,-2.718,1.12,-0.49,-3.78
,-9.299,0.103,-2.556,-9.428,-0.471,-2.276,-1.96,-0.35,-4.34
,-9.225,0.079,-2.62,-9.442,-0.546,-2.642,-1.75,-0.07,-4.69
,-9.332,-0.101,-2.68,-9.418,-0.531,-2.489,-0.49,0.14,-4.13
32634.0,-9.579,-0.4,-2.56,-9.306,-0.108,-3.137,2.1,2.45,-1.75
,-9.569,-0.225,-2.97,-9.43,-0.038,-3.061,2.31,2.59,-1.75
,-9.335,-0.041,-2.759,-9.536,0.031,-3.065,2.03,2.94,-1.4
,-9.404,0.022,-3.025,-9.519,0.153,-3.24,1.05,3.08,-1.26
32710.0,-9.509,0.227,-3.431,-9.385,-0.024,-3.104,2.8,2.52,-1.61
,-9.299,0.27,-3.546,-9.543,0.01,-3.25,2.52,1.82,-1.75
,-9.174,0.282,-3.309,-9.418,0.146,-3.278,2.45,1.61,-1.4
,-9.273,0.014,-3.094,-9.34,0.043,-3.087,2.59,1.89,-0.98
32786.0,-9.351,-0.115,-2.955,-9.325,0.077,-2.967,1.12,0.98,-1.61
,-9.488,-0.328,-3.118,-9.351,0.041,-2.895,0.56,1.12,-1.4
,-9.356,-0.328,-3.02,-9.38,0.096,-2.974,1.68,1.12,-1.19
,-9.306,-0.069,-2.8,-9.442,0.038,-3.044,3.43,1.82,-0.91
32862.0,-9.304,-0.069,-3.077,-9.497,0.242,-3.199,-0.56,1.47,-1.12
,-9.304,-0.165,-3.276,-9.557,0.4,-3.455,0.0,1.26,-1.19
,-9.318,-0.124,-2.943,-9.464,0.366,-3.733,1.4,1.61,-1.12
,-9.438,0.005,-3.166,-9.198,0.282,-3.728,2.52,1.33,-1.54
32937.0,-9.074,-0.031,-3.479,-9.541,-0.294,-2.46,-4.2,-1.33,-2.66
,-9.347,-0.347,-3.211,-9.617,-0.297,-2.465,-1.89,-1.26,-2.24
,-9.481,-0.419,-3.032,-9.572,-0.33,-2.644,1.26,-1.19,-1.82
,-9.529,-0.366,-2.816,-9.399,-0.225,-2.895,2.94,-1.19,-1.47
33013.0,-9.246,-0.22,-2.95,-9.608,-0.031,-2.24,2.31,0.42,0.07
,-9.237,-0.335,-2.769,-9.694,0.232,-2.525,2.38,1.26,0.49
,-9.258,-0.318,-2.51,-9.619,0.153,-2.338,4.41,2.17,0.91
,-9.495,-0.225,-2.41,-9.584,0.16,-2.601,5.88,2.66,0.77
33089.0,-9.493,0.16,-2.95,-9.471,0.043,-3.405,-0.91,5.53,0.07
,-9.447,0.141,-3.496,-9.44,0.333,-2.974,-1.75,4.97,-0.42
,-9.294,0.112,-3.692,-9.332,0.328,-2.86,-2.66,4.34,-0.98
,-9.459,0.041,-3.699,-9.392,-0.055,-2.905,-4.13,3.22,-2.03
33165.0,-9.576,-0.378,-3.065,-9.191,-0.38,-3.204,-8.82,2.03,-2.45
,-9.464,-0.385,-3.489,-9.356,-0.11,-3.163,-5.88,2.38,-1.61
,-9.287,-0.715,-3.154,-9.44,0.057,-3.144,-2.94,3.36,-0.42
,-9.201,-0.644,-3.238,-9.368,0.057,-3.206,1.68,3.71,0.56
33240.0,-9.284,0.041,-3.309,-9.375,-0.11,-3.137,5.46,4.34,1.82
,-9.222,-0.124,-3.307,-9.512,-0.048,-3.082,5.39,4.41,1.96
,-9.27,-0.223,-3.307,-9.531,0.0,-3.149,6.02,4.55,2.03
,-9.308,-0.232,-3.13,-9.521,0.163,-3.163,7.7,4.83,2.45
33316.0,-9.474,0.129,-3.216,-9.304,-0.168,-3.096,7.49,3.99,2.45
,-9.328,0.132,-3.104,-9.416,-0.122,-3.087,6.23,3.78,2.1
,-9.313,0.0,-3.262,-9.476,-0.148,-3.065,4.9,3.5,1.89
,-9.335,-0.103,-3.197,-9.442,-0.168,-3.029,4.13,3.43,1.82
33392.0,-9.435,-0.103,-3.046,-9.318,-0.081,-3.147,4.13,3.5,1.75
,-9.428,-0.045,-3.147,-9.378,0.002,-3.23,3.99,3.57,1.68
,-9.34,-0.081,-3.214,-9.407,0.089,-3.403,3.57,3.5,1.61
,-9.287,-0.053,-3.218,-9.392,0.122,-3.302,3.36,3.78,1.54
33467.0,-9.442,-0.022,-3.357,-9.34,-0.096,-3.381,0.49,3.36,0.63
,-9.414,-0.01,-3.355,-9.363,-0.136,-3.482,0.56,3.22,0.42
,-9.402,0.012,-3.441,-9.378,-0.098,-3.405,0.21,2.8,0.07
,-9.402,-0.05,-3.446,-9.361,-0.134,-3.348,-0.35,2.59,-0.07
33543.0,-9.385,-0.11,-3.264,-9.368,-0.05,-3.262,2.66,1.96,0.56
,-9.428,-0.139,-3.175,-9.371,-0.045,-3.29,3.22,1.89,0.7
,-9.423,-0.163,-3.195,-9.33,-0.01,-3.276,3.71,1.96,0.77
,-9.416,-0.038,-3.218,-9.294,-0.086,-3.163,4.13,1.68,0.84
33619.0,-9.373,-0.026,-3.214,-9.397,-0.055,-3.228,4.62,1.68,0.91
,-9.378,0.029,-3.24,-9.411,-0.007,-3.307,4.27,1.54,0.63
,-9.32,0.06,-3.295,-9.33,0.014,-3.223,3.5,1.68,0.42
,-9.27,-0.06,-3.211,-9.33,-0.022,-3.266,3.01,1.89,0.42
33695.0,-9.318,-0.065,-3.262,-9.442,-0.108,-3.099,1.54,1.61,-0.07
,-9.368,-0.074,-3.223,-9.411,-0.098,-3.185,1.89,1.89,-0.07
,-9.361,-0.105,-3.156,-9.399,-0.124,-3.18,1.89,2.03,-0.07
,-9.383,-0.165,-3.058,-9.38,-0.146,-3.24,1.89,2.03,0.07
33770.0,-9.316,-0.122,-3.302,-9.356,-0.089,-3.357,1.82,2.17,0.0
,-9.335,-0.093,-3.345,-9.308,-0.045,-3.367,2.38,2.24,0.0
,-9.39,-0.081,-3.357,-9.265,-0.019,-3.324,2.38,2.1,-0.14
,-9.368,-0.084,-3.3,-9.347,-0.117,-3.247,2.59,2.03,0.07
33846.0,-9.361,-0.081,-3.281,-9.387,-0.12,-3.293,2.17,1.82,-0.07
,-9.383,-0.101,-3.235,-9.368,-0.074,-3.312,2.24,1.75,-0.07
,-9.421,-0.098,-3.276,-9.354,-0.062,-3.343,1.82,1.68,-0.21
,-9.375,-0.153,-3.317,-9.292,-0.093,-3.343,1.68,1.61,-0.14
33922.0,-9.361,-0.074,-3.257,-9.306,-0.196,-3.34,2.52,1.75,0.28
,-9.368,-0.096,-3.391,-9.282,-0.175,-3.345,2.73,1.4,0.14
,-9.311,-0.132,-3.372,-9.342,-0.151,-3.226,2.52,1.33,0.14
,-9.296,-0.168,-3.376,-9.39,-0.151,-3.223,2.38,1.05,0.14
33998.0,-9.39,-0.086,-3.171,-9.337,-0.117,-3.269,3.22,1.12,0.49
,-9.38,-0.091,-3.13,-9.368,-0.086,-3.312,2.87,1.12,0.35
,-9.383,-0.072,-3.168,-9.349,-0.089,-3.343,2.45,1.19,0.42
,-9.351,-0.11,-3.183,-9.347,-0.148,-3.309,2.45,1.4,0.49
34073.0,-9.294,-0.134,-3.355,-9.371,-0.165,-3.197,2.38,1.26,0.49
,-9.28,-0.108,-3.331,-9.375,-0.191,-3.257,2.45,1.33,0.63
,-9.294,-0.191,-3.269,-9.356,-0.12,-3.3,2.38,1.19,0.7
,-9.361,-0.201,-3.223,-9.361,-0.074,-3.295,2.45,1.12,0.63
34149.0,-9.335,-0.115,-3.326,-9.387,-0.055,-3.338,2.73,1.05,1.05
,-9.313,-0.115,-3.372,-9.416,-0.117,-3.288,2.94,0.98,1.05
,-9.265,-0.127,-3.376,-9.387,-0.132,-3.345,3.01,0.91,1.12
,-9.332,-0.101,-3.314,-9.323,-0.117,-3.321,3.15,0.77,1.05
34224.0,-9.34,-0.127,-3.302,-9.407,-0.108,-3.166,2.45,0.28,1.12
,-9.301,-0.17,-3.271,-9.366,-0.11,-3.116,2.73,0.49,1.19
,-9.359,-0.182,-3.156,-9.359,-0.117,-3.034,3.08,0.49,1.33
,-9.373,-0.127,-3.135,-9.316,-0.144,-3.092,3.29,0.63,1.33
34300.0,-9.313,-0.089,-3.077,-9.371,-0.093,-3.068,1.33,1.33,1.4
,-9.344,-0.041,-3.065,-9.335,-0.05,-2.986,1.05,1.68,1.54
,-9.318,-0.05,-3.104,-9.368,0.129,-2.982,0.42,1.82,1.4
,-9.361,-0.045,-3.092,-9.418,0.11,-2.836,-0.28,2.03,1.4
34376.0,-9.414,0.098,-2.879,-9.349,-0.302,-3.319,-4.06,3.92,0.98
,-9.452,0.053,-2.967,-9.328,-0.249,-3.486,-5.88,4.48,0.98
,-9.469,-0.062,-3.058,-9.332,-0.132,-3.743,-7.28,4.97,0.91
,-9.502,-0.165,-3.254,-9.27,-0.038,-3.747,-8.19,4.97,0.98
34452.0,-9.275,-0.041,-3.697,-9.158,0.146,-3.408,-8.47,3.57,0.7
,-9.447,-0.036,-3.666,-9.194,-0.258,-3.027,-10.64,2.52,-0.14
,-9.469,0.079,-3.51,-9.33,-0.565,-3.218,-13.72,1.26,-1.05
,-9.39,0.215,-3.477,-9.347,-0.503,-3.192,-16.38,0.21,-1.19
34528.0,-9.476,-0.409,-3.104,-9.344,-0.275,-2.754,-7.77,1.75,1.75
,-9.395,-0.235,-3.228,-9.373,-0.148,-2.879,-5.81,1.54,2.03
,-9.361,-0.108,-3.099,-9.378,-0.026,-3.125,-5.18,1.68,2.94
,-9.332,-0.196,-2.938,-9.407,0.105,-3.408,-4.9,2.45,3.78
34603.0,-9.287,-0.045,-3.544,-9.363,0.048,-2.594,-3.99,1.61,4.62
,-9.134,-0.12,-3.3,-9.404,0.208,-2.472,-4.13,1.54,5.11
,-9.139,-0.249,-3.132,-9.543,0.299,-2.766,-3.22,1.61,5.25
,-9.22,-0.187,-2.737,-9.464,0.254,-3.424,-0.63,2.52,5.32
34679.0,-9.306,-0.01,-3.553,-9.215,0.605,-3.568,-2.94,4.34,6.86
,-9.215,-0.23,-3.431,-9.129,0.905,-3.955,-0.35,5.67,8.26
,-9.301,-0.304,-3.367,-9.1,0.857,-3.817,3.78,6.3,8.54
,-9.213,0.038,-3.211,-9.203,0.412,-3.805,9.24,6.58,8.12
34755.0,-9.232,0.124,-3.025,-9.414,0.069,-3.032,1.68,3.78,6.86
,-9.462,0.218,-3.008,-9.141,-0.273,-2.417,3.43,3.36,5.46
,-9.318,0.359,-3.041,-9.139,-0.495,-1.907,3.22,2.1,3.57
,-9.316,0.4,-3.025,-9.222,-0.361,-1.773,2.31,2.52,3.36
34831.0,-9.45,0.39,-2.166,-9.012,0.61,-2.804,19.18,11.27,5.88
,-9.378,0.881,-2.374,-8.804,0.459,-2.575,17.5,10.08,6.09
,-9.605,0.912,-2.958,-8.93,0.469,-2.575,11.06,9.17,6.02
,-9.206,0.782,-2.941,-9.1,0.526,-2.723,5.04,10.36,5.6
34906.0,-9.134,0.414,-2.891,-9.28,0.156,-3.594,-4.41,14.0,0.21
,-9.222,0.345,-2.769,-9.22,0.014,-3.601,-5.53,14.0,0.63
,-9.316,0.342,-3.204,-8.894,-0.093,-3.51,-5.67,14.35,0.63
,-9.22,0.237,-3.443,-8.734,-0.065,-3.881,-4.62,15.61,0.77
34982.0,-8.947,-0.084,-3.8,-8.94,0.263,-3.924,9.45,20.72,5.39
,-9.215,0.017,-3.826,-8.813,0.208,-4.075,11.27,19.88,6.09
,-9.361,0.201,-3.941,-8.964,0.258,-4.003,12.53,19.11,6.09
,-9.062,0.218,-4.027,-9.012,0.357,-4.104,11.62,19.18,5.67
35057.0,-8.94,0.251,-4.221,-9.057,0.5,-4.034,7.0,16.38,4.97
,-8.885,0.325,-4.149,-8.988,0.605,-4.372,6.72,17.36,4.69
,-8.93,0.345,-4.078,-9.105,0.732,-4.549,7.21,19.04,4.55
,-9.04,0.419,-3.905,-9.021,0.909,-4.815,8.33,20.3,4.06
35133.0,-8.969,0.773,-4.872,-8.868,0.184,-4.728,9.66,14.28,3.5
,-8.93,0.704,-4.714,-8.966,0.079,-4.733,8.19,13.3,3.08
,-8.849,0.548,-4.704,-8.981,0.089,-4.563,7.42,12.32,2.38
,-8.772,0.309,-4.786,-8.935,0.232,-4.575,7.28,12.11,1.68
35209.0,-8.954,0.402,-4.657,-8.65,0.804,-4.678,10.43,12.32,1.61
,-8.949,0.574,-5.004,-8.514,0.804,-4.415,10.43,10.15,1.12
,-9.103,0.682,-5.023,-8.67,0.598,-4.408,9.8,7.7,0.91
,-9.009,0.708,-4.838,-9.002,0.424,-4.24,7.35,5.95,0.7
35285.0,-9.134,0.486,-4.417,-8.569,-0.476,-4.762,3.71,7.98,-1.12
,-9.045,0.459,-4.491,-8.308,-0.873,-4.575,3.29,8.05,-0.63
,-8.794,0.256,-4.647,-8.598,-0.821,-4.554,2.66,8.05,0.0
,-8.72,-0.103,-4.712,-9.033,-0.668,-4.444,1.68,7.98,0.84
35360.0,-9.385,-0.242,-4.389,-8.756,0.792,-5.023,11.76,6.65,7.21
,-9.045,0.12,-4.405,-8.476,0.761,-4.987,12.39,6.93,6.72
,-9.103,0.517,-4.673,-8.421,0.421,-4.755,12.67,6.86,5.04
,-9.062,0.857,-5.104,-8.49,0.163,-4.7,12.18,6.02,3.5
35436.0,-9.007,0.11,-4.322,-8.949,1.101,-4.724,6.93,5.67,3.5
,-9.05,0.172,-4.365,-8.808,1.441,-5.3,8.54,4.9,3.36
,-8.964,0.455,-4.456,-8.545,1.223,-5.444,10.29,4.9,2.45
,-9.031,0.845,-4.573,-8.662,0.775,-5.135,11.41,4.69,1.68
35512.0,-8.409,0.12,-4.886,-9.021,-0.615,-4.585,3.01,2.94,-0.63
,-8.452,-0.337,-4.862,-9.141,-0.5,-4.621,2.94,3.08,0.07
,-8.765,-0.641,-4.446,-9.292,-0.194,-4.736,4.2,2.8,1.12
,-8.856,-0.802,-4.48,-9.127,0.196,-4.85,5.74,1.96,1.75
35588.0,-8.811,0.316,-4.949,-8.531,-0.17,-4.609,11.06,0.91,0.35
,-8.449,0.292,-4.843,-9.366,0.043,-4.338,10.29,0.84,0.35
,-8.263,0.208,-4.666,-9.131,0.285,-4.334,8.4,0.91,1.61
,-8.251,-0.081,-4.664,-8.763,0.737,-4.566,6.02,1.61,3.43
35664.0,-9.091,1.326,-4.57,-8.375,1.646,-4.769,15.47,3.5,-0.7
,-8.756,1.608,-4.247,-8.457,0.993,-4.913,15.54,4.06,-2.8
,-8.928,2.13,-4.365,-8.782,0.184,-4.776,13.09,3.85,-4.34
,-8.667,2.161,-4.736,-8.823,-0.593,-4.673,9.38,3.92,-6.37
35739.0,-9.088,-0.823,-4.511,-8.626,0.151,-4.889,9.59,6.58,-4.69
,-9.241,-0.656,-4.434,-8.564,0.01,-5.188,13.37,5.67,-3.57
,-9.069,-0.304,-4.594,-8.806,-0.337,-5.209,15.82,3.99,-2.66
,-8.768,-0.019,-4.575,-8.753,-0.644,-5.351,13.72,2.87,-2.52
35815.0,-8.729,-0.972,-5.413,-8.844,-0.818,-4.889,2.87,0.98,-1.12
,-8.777,-0.976,-5.188,-8.985,-0.089,-5.095,4.97,0.7,0.14
,-8.516,-0.768,-5.147,-9.093,0.447,-5.095,5.95,0.35,1.89
,-8.385,-0.656,-5.422,-9.0,0.763,-5.214,7.49,1.26,3.36
35890.0,-8.861,0.687,-5.157,-8.423,-0.242,-4.463,9.17,-2.31,-0.07
,-8.957,0.316,-4.929,-8.425,-0.376,-4.434,7.35,-2.31,-0.77
,-8.854,0.048,-4.757,-8.772,-0.534,-4.391,6.86,-3.15,-0.63
,-8.48,-0.057,-4.494,-8.954,-0.318,-4.439,5.88,-3.29,0.49
35966.0,-9.062,-0.158,-4.346,-8.859,0.503,-4.386,7.56,-0.7,2.8
,-9.048,0.127,-4.48,-8.605,0.455,-4.525,8.82,-0.84,1.96
,-8.993,0.438,-4.637,-8.241,0.208,-4.75,9.45,-1.05,1.19
,-8.871,0.541,-4.647,-8.531,-0.005,-4.661,8.68,-0.91,0.42
36042.0,-9.019,0.01,-4.494,-8.897,-0.163,-4.448,2.38,-0.28,2.1
,-8.99,-0.079,-4.58,-8.839,-0.282,-4.329,2.31,-0.77,2.31
,-8.768,-0.062,-4.549,-8.78,-0.361,-4.223,2.8,-0.84,1.96
,-8.835,-0.057,-4.472,-8.693,-0.383,-4.243,3.01,-0.42,1.4
36118.0,-8.636,-0.239,-4.558,-8.835,-0.498,-4.58,2.87,1.75,2.94
,-8.758,-0.045,-4.771,-8.887,-0.471,-4.64,3.85,1.82,3.57
,-8.83,-0.019,-4.736,-8.94,-0.292,-4.508,3.08,1.96,4.13
,-8.902,-0.426,-4.389,-8.823,-0.297,-4.606,3.22,1.61,4.62
36193.0,-8.748,-0.38,-4.558,-8.878,0.366,-4.91,5.11,2.94,5.88
,-8.722,-0.371,-4.389,-8.949,0.433,-4.8,5.32,3.57,6.09
,-8.77,-0.043,-4.444,-8.93,0.199,-4.767,5.67,3.5,6.65
,-8.794,0.235,-4.783,-8.978,0.134,-4.719,4.55,3.5,6.86
36269.0,-8.823,0.364,-4.59,-8.851,1.283,-4.934,1.19,4.2,5.6
,-8.674,0.761,-4.726,-8.825,1.283,-5.013,1.54,4.06,5.25
,-8.727,1.12,-4.963,-8.988,1.029,-4.999,0.49,3.85,4.55
,-8.861,1.175,-4.946,-9.064,0.708,-4.846,-1.47,3.78,3.85
36344.0,-9.064,0.51,-4.506,-8.667,-0.246,-4.929,-9.1,2.73,-1.19
,-8.897,0.605,-4.716,-8.837,-0.486,-4.975,-8.82,1.89,-1.61
,-8.698,0.584,-5.071,-8.954,-0.443,-5.066,-9.52,1.47,-1.89
,-8.643,0.189,-4.97,-8.945,-0.206,-5.097,-11.34,1.4,-1.89
36420.0,-8.842,-0.215,-5.19,-8.885,0.12,-4.755,-4.62,2.94,-1.33
,-8.957,-0.486,-4.745,-7.976,0.038,-4.769,-8.12,4.76,-0.7
,-9.112,-0.67,-4.14,-8.026,0.034,-4.963,-5.95,5.74,0.84
,-9.725,-0.369,-3.573,-8.466,-0.266,-4.812,-5.53,2.73,2.45
36496.0,-8.732,-0.153,-4.884,-8.622,0.313,-4.791,-7.21,0.14,5.25
,-8.878,0.194,-5.128,-8.885,0.526,-4.606,-4.34,-0.28,5.53
,-8.887,0.345,-5.114,-8.916,0.857,-4.669,-4.62,-1.12,5.88
,-8.667,0.452,-5.166,-8.947,0.648,-4.637,-4.97,-1.12,6.37
36572.0,-8.918,0.625,-4.532,-8.842,0.29,-4.654,-5.88,-2.31,2.24
,-8.873,0.294,-4.465,-8.964,0.196,-4.836,-6.51,-2.31,1.96
,-8.725,0.211,-4.623,-8.945,0.062,-5.434,-6.09,-2.52,1.75
,-8.665,0.562,-4.819,-8.93,0.172,-4.843,-4.41,-2.03,1.82
36648.0,-8.914,-0.034,-4.611,-8.976,0.747,-4.235,-2.31,-2.52,3.08
,-8.672,-0.323,-4.52,-8.902,0.849,-4.614,-1.26,-2.1,3.71
,-8.72,-0.696,-5.056,-9.261,0.512,-4.329,0.49,-1.68,3.92
,-8.229,0.165,-4.393,-9.036,0.888,-4.767,7.49,-3.36,-5.74
36723.0,-8.552,0.802,-4.771,-8.727,0.732,-4.444,-1.54,-8.33,2.17
,-8.509,0.668,-4.692,-8.715,0.742,-4.506,-2.52,-7.49,1.82
,-8.691,0.634,-4.609,-8.631,0.431,-4.506,-2.59,-7.28,1.61
,-8.794,0.196,-4.202,-8.691,0.148,-4.377,-3.22,-7.35,0.49
36799.0,-8.703,0.031,-4.255,-8.973,0.029,-4.432,3.36,-2.45,2.66
,-8.815,-0.062,-4.089,-8.758,0.211,-4.468,6.3,-2.17,3.08
,-9.021,-0.182,-4.118,-8.782,0.256,-4.558,8.26,-2.87,3.64
,-9.074,-0.117,-4.374,-8.765,0.165,-4.527,9.45,-3.78,4.41
36875.0,-8.758,0.321,-4.472,-9.043,1.029,-4.362,7.56,-5.67,6.93
,-8.878,0.656,-4.48,-8.921,0.969,-4.295,7.56,-6.51,6.51
,-8.928,0.828,-4.53,-8.799,0.991,-4.274,6.37,-7.56,5.74
,-9.007,0.986,-4.563,-8.768,0.885,-4.274,4.83,-8.33,5.04
36951.0,-8.897,0.854,-3.853,-8.988,1.022,-4.046,3.22,-8.26,1.89
,-9.072,1.01,-3.869,-9.069,0.933,-4.022,2.87,-8.4,0.91
,-9.16,1.192,-4.125,-9.033,1.039,-4.094,2.66,-9.24,-0.63
,-9.222,1.211,-4.283,-9.091,0.878,-4.008,-0.35,-9.59,-1.96
37026.0,-8.973,0.562,-4.085,-9.301,0.534,-4.068,-9.31,-9.31,-6.23
,-8.713,0.225,-4.003,-9.306,0.735,-4.252,-10.5,-9.17,-5.67
,-8.82,0.031,-3.953,-9.043,0.847,-4.484,-8.4,-9.24,-4.76
,-8.902,0.151,-3.972,-8.741,0.615,-4.374,-5.11,-9.45,-4.76
37102.0,-8.705,0.266,-4.066,-9.186,0.225,-3.967,-8.68,-9.66,-5.32
,-8.973,-0.043,-3.836,-8.978,0.263,-4.056,-7.49,-9.59,-5.04
,-9.215,-0.182,-3.893,-8.856,0.053,-3.936,-5.46,-10.29,-5.25
,-9.141,0.043,-4.109,-8.933,-0.086,-3.819,-2.66,-11.06,-5.32
37177.0,-8.978,0.065,-3.853,-9.265,0.364,-3.408,0.98,-11.13,-2.45
,-8.973,0.038,-3.754,-9.079,0.517,-3.326,1.19,-11.27,-1.54
,-9.038,0.079,-3.577,-9.244,0.617,-3.393,2.59,-10.99,-0.63
,-9.21,0.235,-3.427,-9.162,0.687,-3.295,3.99,-10.78,-0.42
37253.0,-9.17,0.689,-3.381,-9.194,0.56,-3.18,2.24,-9.87,-1.82
,-9.189,0.909,-3.62,-9.351,0.325,-2.979,1.4,-10.22,-2.8
,-9.162,0.849,-3.604,-9.373,0.199,-2.929,-0.14,-10.29,-3.29
,-9.136,0.735,-3.307,-9.32,0.117,-2.685,-0.91,-9.66,-3.36
37329.0,-9.284,0.053,-2.615,-9.021,0.199,-3.515,2.31,-4.83,-2.17
,-9.43,-0.134,-3.089,-9.134,0.17,-3.223,2.87,-4.69,-1.68
,-9.277,-0.005,-3.273,-9.428,0.302,-3.049,3.85,-4.97,-1.19
,-9.292,0.105,-3.408,-9.713,0.579,-3.23,4.06,-4.9,-0.77
37405.0,-9.478,0.876,-3.405,-9.136,0.196,-3.128,4.48,-4.76,-2.52
,-9.344,0.821,-3.709,-9.318,0.483,-3.518,-0.56,-4.9,-3.01
,-9.062,0.522,-3.539,-9.308,0.503,-3.515,-3.57,-4.83,-2.73
,-9.026,0.268,-3.431,-9.308,0.359,-3.092,-2.59,-4.55,-2.8
37481.0,-9.294,0.05,-2.95,-9.349,0.275,-2.704,-3.15,-3.64,-3.08
,-9.28,-0.069,-2.814,-9.392,0.179,-2.862,-1.82,-3.01,-2.87
,-9.284,0.048,-2.96,-9.316,0.048,-2.869,1.96,-2.52,-2.45
,-9.32,0.199,-2.685,-9.258,0.034,-2.757,1.96,-2.17,-1.96
37556.0,-9.32,0.144,-2.936,-9.497,0.416,-3.025,-1.33,0.98,-0.98
,-9.361,0.062,-2.795,-9.383,0.395,-3.039,-0.7,1.54,-1.12
,-9.416,0.512,-3.106,-9.273,0.318,-3.393,0.91,1.54,-1.05
,-9.49,0.534,-3.003,-9.141,0.23,-3.393,-0.35,1.82,-1.05
37632.0,-9.148,0.256,-3.384,-9.261,0.505,-3.453,-2.94,3.43,-1.33
,-9.289,0.342,-3.424,-9.351,0.378,-3.508,-0.98,3.5,-1.12
,-9.323,0.378,-3.403,-9.387,0.251,-3.711,0.14,3.08,-1.19
,-9.287,0.531,-3.546,-9.167,0.225,-3.941,0.21,2.59,-1.33
37708.0,-9.093,0.184,-3.762,-9.454,0.287,-3.223,-0.28,0.98,-1.68
,-9.141,0.067,-3.628,-9.38,0.369,-3.216,1.05,0.84,-1.4
,-9.299,0.01,-3.455,-9.27,0.309,-3.273,3.08,0.84,-1.05
,-9.414,0.101,-3.235,-9.153,0.108,-3.175,4.48,0.63,-0.77
37784.0,-9.115,-0.077,-3.027,-9.471,0.302,-2.998,0.07,1.19,-0.7
,-9.306,-0.079,-2.761,-9.328,0.416,-3.151,1.54,1.96,-0.42
,-9.459,-0.012,-2.663,-9.203,0.218,-3.257,2.45,2.31,-0.21
,-9.538,0.148,-2.74,-9.217,0.148,-3.321,1.96,2.52,-0.35
37859.0,-9.241,0.093,-3.302,-9.368,0.254,-3.372,-1.96,4.34,-0.42
,-9.277,0.16,-3.3,-9.366,0.246,-3.817,-0.77,4.48,-0.21
,-9.392,0.246,-3.24,-9.256,0.285,-3.905,0.0,4.48,0.07
,-9.418,0.251,-3.276,-9.22,0.16,-3.92,0.0,4.48,0.28
37935.0,-9.229,0.187,-4.022,-9.287,0.409,-3.802,2.31,2.94,0.91
,-9.198,0.254,-3.936,-9.229,0.424,-3.807,3.85,2.31,1.05
,-9.227,0.328,-4.046,-9.251,0.304,-3.843,4.9,1.68,1.05
,-9.27,0.385,-3.79,-9.213,0.213,-3.697,5.32,0.98,0.91
38010.0,-9.162,0.182,-3.503,-9.397,0.369,-3.202,3.01,-1.33,0.14
,-9.275,0.208,-3.305,-9.292,0.196,-3.128,3.71,-1.4,0.14
,-9.361,0.254,-3.281,-9.268,0.017,-3.001,4.2,-1.47,0.07
,-9.404,0.323,-3.19,-9.265,-0.029,-2.891,3.92,-1.54,-0.07
38086.0,-9.428,0.115,-2.812,-9.256,0.122,-3.417,3.36,0.91,0.49
,-9.509,0.213,-2.86,-9.213,0.067,-3.534,3.36,1.12,0.56
,-9.512,0.285,-3.003,-9.208,0.165,-3.57,2.8,1.4,0.77
,-9.361,0.22,-3.228,-9.275,0.201,-3.556,2.31,1.75,0.91
38162.0,-9.33,0.215,-3.388,-9.311,0.179,-3.618,5.25,1.75,1.47
,-9.351,0.282,-3.297,-9.222,0.139,-3.601,5.39,1.75,1.54
,-9.402,0.282,-3.388,-9.198,0.203,-3.676,5.18,1.54,1.4
,-9.363,0.251,-3.453,-9.206,0.182,-3.611,4.62,1.4,1.19
38238.0,-9.251,0.191,-3.419,-9.308,0.213,-3.3,4.34,0.42,1.12
,-9.313,0.292,-3.381,-9.258,0.203,-3.295,3.78,0.35,0.98
,-9.387,0.261,-3.257,-9.268,0.141,-3.216,2.87,0.28,0.77
,-9.354,0.266,-3.288,-9.323,0.203,-3.173,1.89,0.28,0.49
38313.0,-9.411,0.266,-3.24,-9.282,0.23,-3.266,3.08,0.91,0.77
,-9.411,0.278,-3.171,-9.282,0.23,-3.369,2.59,0.98,0.56
,-9.347,0.258,-3.218,-9.316,0.215,-3.36,1.96,1.19,0.42
,-9.275,0.251,-3.235,-9.395,0.249,-3.41,1.4,1.4,0.35
38389.0,-9.385,0.244,-3.448,-9.265,0.203,-3.422,1.68,1.4,0.28
,-9.277,0.232,-3.463,-9.342,0.213,-3.424,1.82,1.54,0.35
,-9.268,0.201,-3.46,-9.349,0.184,-3.434,1.89,1.26,0.35
,-9.265,0.175,-3.472,-9.32,0.227,-3.391,1.96,1.12,0.35
38464.0,-9.284,0.187,-3.396,-9.347,0.232,-3.386,2.24,0.98,0.49
,-9.308,0.246,-3.4,-9.311,0.223,-3.319,2.66,1.05,0.56
,-9.313,0.223,-3.448,-9.347,0.244,-3.285,3.01,1.12,0.56
,-9.316,0.256,-3.393,-9.323,0.266,-3.233,2.87,0.98,0.56
38540.0,-9.361,0.292,-3.314,-9.344,0.196,-3.3,3.22,0.84,0.35
,-9.335,0.251,-3.259,-9.34,0.261,-3.288,2.94,1.05,0.49
,-9.368,0.235,-3.278,-9.332,0.256,-3.338,2.94,1.19,0.42
,-9.344,0.201,-3.293,-9.32,0.237,-3.271,3.08,1.12,0.35
38616.0,-9.354,0.266,-3.355,-9.275,0.17,-3.362,3.01,1.47,0.28
,-9.344,0.28,-3.345,-9.253,0.156,-3.314,2.87,1.68,0.21
,-9.33,0.278,-3.36,-9.34,0.179,-3.159,2.8,1.61,0.07
,-9.337,0.278,-3.422,-9.383,0.189,-3.23,2.73,1.54,-0.07
38692.0,-9.373,0.215,-3.183,-9.323,0.191,-3.364,2.73,2.17,0.07
,-9.39,0.182,-3.171,-9.325,0.194,-3.513,2.45,2.38,0.21
,-9.363,0.158,-3.254,-9.265,0.165,-3.52,2.45,2.45,0.21
,-9.332,0.134,-3.348,-9.256,0.187,-3.46,2.8,2.52,0.07
38768.0,-9.253,0.17,-3.472,-9.304,0.158,-3.302,3.43,2.1,0.14
,-9.318,0.182,-3.372,-9.33,0.144,-3.283,3.71,2.17,0.14
,-9.349,0.244,-3.424,-9.373,0.101,-3.319,3.92,2.17,0.14
,-9.332,0.254,-3.384,-9.313,0.139,-3.295,3.64,1.89,0.21
38843.0,-9.311,0.22,-3.273,-9.304,0.206,-3.41,3.22,2.45,0.14
,-9.335,0.28,-3.355,-9.304,0.158,-3.443,2.66,2.38,-0.07
,-9.306,0.244,-3.362,-9.311,0.163,-3.419,1.75,2.45,-0.14
,-9.311,0.218,-3.333,-9.328,0.206,-3.434,1.26,2.59,-0.14
38919.0,-9.32,0.156,-3.35,-9.273,0.139,-3.448,2.66,2.73,0.28
,-9.301,0.168,-3.333,-9.311,0.072,-3.534,2.87,2.66,0.21
