Timestamp,AccX,AccY,AccZ,GyroX,GyroY,GyroZ,MagnX,MagnY,MagnZ
0.0,-9.237,-1.271,-3.364,-9.241,-1.206,-3.503,2.59,1.68,0.98
,-9.208,-1.261,-3.446,-9.179,-1.259,-3.544,2.45,1.68,0.91
,-9.217,-1.23,-3.329,-9.174,-1.29,-3.568,2.17,1.54,0.84
,-9.227,-1.173,-3.412,-9.158,-1.345,-3.597,2.03,1.68,0.84
76.0,-9.148,-1.302,-3.611,-9.225,-1.268,-3.441,2.59,1.47,0.84
,-9.203,-1.251,-3.508,-9.189,-1.326,-3.417,2.87,1.54,0.84
,-9.244,-1.184,-3.439,-9.244,-1.333,-3.422,2.73,1.4,0.77
,-9.225,-1.228,-3.451,-9.196,-1.266,-3.427,2.45,1.19,0.84
152.0,-9.232,-1.285,-3.429,-9.182,-1.321,-3.661,2.87,1.75,0.98
,-9.239,-1.204,-3.503,-9.172,-1.278,-3.625,2.8,1.68,0.91
,-9.208,-1.242,-3.539,-9.16,-1.261,-3.597,2.59,1.75,0.91
,-9.253,-1.268,-3.604,-9.22,-1.22,-3.568,2.66,1.47,0.77
227.0,-9.206,-1.223,-3.486,-9.177,-1.254,-3.36,3.85,1.05,0.91
,-9.206,-1.256,-3.439,-9.225,-1.228,-3.324,3.78,1.12,0.91
,-9.244,-1.275,-3.431,-9.237,-1.228,-3.35,3.5,1.05,1.05
,-9.246,-1.292,-3.391,-9.237,-1.261,-3.386,3.29,1.05,0.91
302.0,-9.258,-1.244,-3.429,-9.186,-1.184,-3.561,2.17,1.82,0.77
,-9.201,-1.29,-3.458,-9.208,-1.223,-3.57,2.1,1.75,0.7
,-9.177,-1.259,-3.443,-9.155,-1.261,-3.575,2.1,1.68,0.63
,-9.184,-1.228,-3.491,-9.182,-1.242,-3.544,2.31,1.54,0.7
378.0,-9.215,-1.326,-3.513,-9.222,-1.249,-3.455,2.59,1.33,0.63
,-9.217,-1.29,-3.53,-9.261,-1.271,-3.451,2.59,1.33,0.7
,-9.184,-1.28,-3.513,-9.22,-1.261,-3.46,2.59,1.19,0.56
,-9.162,-1.263,-3.482,-9.222,-1.273,-3.448,2.31,1.19,0.49
454.0,-9.208,-1.216,-3.396,-9.217,-1.321,-3.486,2.45,1.68,0.56
,-9.232,-1.213,-3.436,-9.179,-1.311,-3.558,2.45,1.68,0.49
,-9.268,-1.218,-3.451,-9.22,-1.295,-3.549,2.31,1.61,0.49
,-9.155,-1.242,-3.486,-9.15,-1.254,-3.537,2.1,1.47,0.42
530.0,-9.17,-1.256,-3.53,-9.27,-1.302,-3.489,2.87,1.4,0.49
,-9.215,-1.266,-3.501,-9.22,-1.251,-3.475,3.01,1.4,0.56
,-9.191,-1.235,-3.532,-9.217,-1.206,-3.503,2.87,1.4,0.56
,-9.177,-1.295,-3.479,-9.196,-1.283,-3.479,2.73,1.26,0.49
605.0,-9.162,-1.314,-3.463,-9.21,-1.283,-3.463,2.17,1.19,0.49
,-9.191,-1.354,-3.498,-9.251,-1.273,-3.436,2.45,1.19,0.49
,-9.153,-1.311,-3.532,-9.203,-1.225,-3.408,2.66,1.19,0.49
,-9.177,-1.261,-3.477,-9.225,-1.304,-3.477,2.87,1.33,0.49
681.0,-9.217,-1.254,-3.525,-9.17,-1.311,-3.537,2.45,1.05,0.49
,-9.206,-1.309,-3.539,-9.196,-1.24,-3.508,2.45,0.91,0.49
,-9.165,-1.33,-3.611,-9.296,-1.242,-3.424,2.66,1.05,0.63
,-9.162,-1.357,-3.546,-9.182,-1.302,-3.417,2.73,0.98,0.7
757.0,-9.179,-1.247,-3.357,-9.165,-1.302,-3.522,3.15,1.12,0.84
,-9.241,-1.268,-3.408,-9.191,-1.278,-3.515,3.01,1.05,0.77
,-9.17,-1.23,-3.417,-9.139,-1.29,-3.491,2.73,0.84,0.77
,-9.179,-1.29,-3.446,-9.189,-1.275,-3.482,2.59,1.12,0.7
833.0,-9.234,-1.251,-3.396,-9.21,-1.287,-3.357,2.66,1.26,0.84
,-9.225,-1.314,-3.388,-9.196,-1.261,-3.439,2.59,1.19,0.84
,-9.217,-1.299,-3.364,-9.263,-1.23,-3.465,3.08,1.26,0.84
,-9.237,-1.278,-3.362,-9.229,-1.273,-3.498,3.22,1.54,0.84
909.0,-9.189,-1.292,-3.429,-9.196,-1.285,-3.484,2.17,1.82,0.56
,-9.194,-1.275,-3.47,-9.206,-1.278,-3.53,2.31,1.61,0.63
,-9.184,-1.295,-3.491,-9.234,-1.256,-3.494,2.38,1.54,0.77
,-9.196,-1.311,-3.491,-9.189,-1.266,-3.453,2.31,1.61,0.84
984.0,-9.162,-1.333,-3.465,-9.237,-1.278,-3.458,2.31,1.47,0.77
,-9.203,-1.249,-3.46,-9.174,-1.275,-3.422,2.66,1.33,0.7
,-9.261,-1.235,-3.455,-9.206,-1.199,-3.396,2.38,1.33,0.63
,-9.203,-1.275,-3.458,-9.217,-1.247,-3.41,2.03,1.47,0.56
1060.0,-9.215,-1.287,-3.398,-9.174,-1.292,-3.489,1.68,1.61,0.49
,-9.206,-1.275,-3.388,-9.186,-1.292,-3.544,1.82,1.61,0.42
,-9.246,-1.259,-3.424,-9.217,-1.347,-3.51,2.03,1.47,0.49
,-9.182,-1.263,-3.498,-9.227,-1.354,-3.542,2.03,1.54,0.49
1135.0,-9.208,-1.302,-3.458,-9.127,-1.268,-3.506,3.15,1.4,0.63
,-9.201,-1.28,-3.479,-9.22,-1.302,-3.458,3.15,1.4,0.77
,-9.198,-1.297,-3.539,-9.196,-1.199,-3.498,2.94,1.26,0.91
,-9.177,-1.338,-3.494,-9.256,-1.208,-3.441,2.94,1.05,0.84
1211.0,-9.268,-1.24,-3.446,-9.222,-1.302,-3.463,3.36,1.19,0.91
,-9.225,-1.249,-3.415,-9.229,-1.34,-3.467,3.43,1.26,0.91
,-9.229,-1.302,-3.436,-9.225,-1.304,-3.441,3.43,1.05,0.77
,-9.179,-1.237,-3.391,-9.227,-1.285,-3.422,3.57,1.19,0.77
1287.0,-9.213,-1.256,-3.453,-9.213,-1.271,-3.458,3.43,1.33,0.84
,-9.208,-1.225,-3.446,-9.215,-1.256,-3.443,3.15,1.47,0.63
,-9.182,-1.244,-3.51,-9.225,-1.23,-3.415,2.87,1.33,0.63
,-9.129,-1.261,-3.463,-9.232,-1.199,-3.362,2.52,1.26,0.56
1363.0,-9.237,-1.263,-3.357,-9.136,-1.278,-3.498,2.1,1.4,0.42
,-9.239,-1.273,-3.419,-9.21,-1.297,-3.503,2.1,1.19,0.28
,-9.237,-1.244,-3.446,-9.21,-1.29,-3.479,2.03,1.26,0.35
,-9.208,-1.273,-3.475,-9.189,-1.323,-3.427,1.96,1.47,0.28
1438.0,-9.215,-1.292,-3.431,-9.206,-1.333,-3.503,2.38,1.47,0.35
,-9.208,-1.285,-3.477,-9.184,-1.362,-3.508,2.38,1.47,0.35
,-9.217,-1.283,-3.453,-9.158,-1.352,-3.475,2.1,1.4,0.28
,-9.182,-1.314,-3.458,-9.203,-1.309,-3.506,2.1,1.47,0.28
1514.0,-9.217,-1.302,-3.458,-9.17,-1.352,-3.436,2.59,1.26,0.56
,-9.196,-1.314,-3.463,-9.206,-1.364,-3.436,2.73,1.33,0.63
,-9.227,-1.28,-3.439,-9.206,-1.295,-3.374,2.73,1.33,0.63
,-9.172,-1.271,-3.484,-9.222,-1.263,-3.408,2.73,1.26,0.7
1590.0,-9.232,-1.283,-3.391,-9.249,-1.228,-3.501,2.73,1.4,0.77
,-9.203,-1.333,-3.398,-9.182,-1.244,-3.534,2.66,1.4,0.7
,-9.249,-1.33,-3.419,-9.186,-1.302,-3.561,2.73,1.47,0.7
,-9.196,-1.266,-3.458,-9.162,-1.299,-3.522,2.94,1.61,0.77
1666.0,-9.208,-1.347,-3.491,-9.241,-1.242,-3.398,3.08,1.26,0.77
,-9.213,-1.374,-3.446,-9.206,-1.261,-3.386,3.15,1.26,0.84
,-9.206,-1.326,-3.398,-9.194,-1.299,-3.422,3.15,1.47,0.98
,-9.213,-1.297,-3.319,-9.167,-1.316,-3.508,3.15,1.47,0.91
1741.0,-9.225,-1.273,-3.496,-9.186,-1.297,-3.475,2.8,1.26,0.84
,-9.282,-1.266,-3.518,-9.184,-1.278,-3.489,2.73,1.47,0.84
,-9.203,-1.295,-3.472,-9.167,-1.297,-3.446,2.45,1.54,0.84
,-9.21,-1.28,-3.51,-9.239,-1.295,-3.467,2.87,1.4,0.84
1817.0,-9.222,-1.338,-3.465,-9.206,-1.35,-3.436,3.08,1.26,0.77
,-9.258,-1.29,-3.455,-9.177,-1.338,-3.415,3.22,1.19,0.84
,-9.217,-1.259,-3.41,-9.201,-1.302,-3.419,3.22,1.33,0.84
,-9.213,-1.357,-3.455,-9.241,-1.307,-3.47,3.01,1.26,0.84
1893.0,-9.177,-1.237,-3.498,-9.186,-1.352,-3.62,3.08,1.19,0.77
,-9.201,-1.304,-3.472,-9.189,-1.307,-3.594,3.08,1.19,0.77
,-9.253,-1.323,-3.534,-9.172,-1.29,-3.58,3.29,0.98,0.77
,-9.196,-1.352,-3.556,-9.201,-1.357,-3.542,3.92,0.98,0.91
1968.0,-9.184,-1.328,-3.463,-9.253,-1.287,-3.247,6.09,0.56,1.4
,-9.275,-1.206,-3.448,-9.225,-1.237,-3.259,5.88,0.56,1.33
,-9.244,-1.168,-3.247,-9.239,-1.247,-3.197,4.83,0.42,1.12
,-9.201,-1.223,-3.343,-9.229,-1.242,-3.24,2.66,0.56,0.84
2044.0,-9.244,-1.218,-3.202,-9.232,-1.268,-3.29,0.42,1.19,0.21
,-9.239,-1.223,-3.185,-9.246,-1.299,-3.393,0.07,1.4,0.14
,-9.282,-1.247,-3.211,-9.198,-1.304,-3.398,-0.42,1.61,0.14
,-9.239,-1.251,-3.247,-9.217,-1.352,-3.436,-0.91,2.03,-0.07
2120.0,-9.179,-1.338,-3.494,-9.217,-1.347,-3.606,-0.35,2.45,0.0
,-9.186,-1.34,-3.525,-9.172,-1.328,-3.558,0.0,2.52,0.21
,-9.196,-1.321,-3.553,-9.206,-1.316,-3.573,0.49,2.45,0.28
,-9.143,-1.352,-3.616,-9.203,-1.35,-3.565,1.05,2.24,0.42
2196.0,-9.196,-1.385,-3.546,-9.194,-1.402,-3.441,1.96,1.82,0.98
,-9.258,-1.345,-3.534,-9.227,-1.321,-3.412,2.31,1.75,1.05
,-9.191,-1.345,-3.52,-9.253,-1.342,-3.393,2.38,1.54,1.12
,-9.153,-1.366,-3.484,-9.263,-1.285,-3.4,2.45,1.61,1.26
2271.0,-9.186,-1.251,-3.415,-9.182,-1.192,-3.472,3.71,1.61,1.47
,-9.174,-1.263,-3.455,-9.213,-1.22,-3.424,3.85,1.61,1.61
,-9.229,-1.235,-3.441,-9.208,-1.211,-3.41,3.85,1.4,1.47
,-9.227,-1.144,-3.46,-9.201,-1.256,-3.451,3.78,1.68,1.61
2347.0,-9.227,-1.285,-3.477,-9.16,-1.235,-3.525,2.59,1.54,1.05
,-9.186,-1.249,-3.455,-9.172,-1.292,-3.539,2.52,1.54,0.91
,-9.253,-1.22,-3.489,-9.215,-1.263,-3.506,2.31,1.54,0.84
,-9.222,-1.235,-3.489,-9.201,-1.225,-3.508,2.03,1.33,0.7
2423.0,-9.213,-1.24,-3.439,-9.239,-1.268,-3.36,2.31,1.05,0.49
,-9.217,-1.323,-3.405,-9.237,-1.263,-3.386,2.45,0.91,0.49
,-9.189,-1.251,-3.391,-9.184,-1.299,-3.424,2.66,1.05,0.56
,-9.256,-1.307,-3.326,-9.162,-1.333,-3.386,2.94,1.05,0.56
2499.0,-9.217,-1.321,-3.443,-9.15,-1.307,-3.551,2.87,1.33,0.77
,-9.217,-1.297,-3.486,-9.206,-1.311,-3.506,2.94,1.4,0.7
,-9.237,-1.297,-3.448,-9.215,-1.342,-3.503,2.87,1.19,0.7
,-9.22,-1.28,-3.498,-9.203,-1.299,-3.484,2.66,1.19,0.77
2574.0,-9.198,-1.23,-3.489,-9.273,-1.271,-3.396,2.94,0.91,0.84
,-9.191,-1.275,-3.398,-9.184,-1.278,-3.379,2.8,1.05,0.84
,-9.227,-1.287,-3.384,-9.206,-1.307,-3.436,2.8,1.12,0.84
,-9.249,-1.283,-3.355,-9.222,-1.323,-3.453,2.8,1.12,0.77
2650.0,-9.234,-1.335,-3.46,-9.246,-1.216,-3.396,2.45,1.12,0.7
,-9.182,-1.304,-3.448,-9.232,-1.247,-3.472,2.66,1.19,0.77
,-9.191,-1.28,-3.443,-9.217,-1.295,-3.453,2.87,1.19,0.84
,-9.194,-1.256,-3.408,-9.182,-1.381,-3.515,2.94,1.12,0.84
2725.0,-9.17,-1.345,-3.508,-9.198,-1.266,-3.374,3.5,1.12,1.05
,-9.208,-1.292,-3.484,-9.201,-1.266,-3.321,3.99,1.12,1.12
,-9.21,-1.304,-3.441,-9.234,-1.299,-3.386,3.92,1.12,1.12
,-9.203,-1.275,-3.398,-9.258,-1.278,-3.362,3.71,1.12,1.19
2801.0,-9.201,-1.271,-3.393,-9.234,-1.223,-3.367,3.01,1.19,0.98
,-9.191,-1.278,-3.386,-9.196,-1.235,-3.388,3.22,1.26,1.05
,-9.234,-1.244,-3.352,-9.194,-1.285,-3.367,3.15,1.4,0.91
,-9.277,-1.213,-3.396,-9.244,-1.283,-3.386,3.01,1.47,0.84
2877.0,-9.253,-1.249,-3.362,-9.261,-1.287,-3.46,2.66,1.68,0.63
,-9.244,-1.249,-3.391,-9.217,-1.254,-3.501,2.45,1.61,0.63
,-9.246,-1.29,-3.412,-9.165,-1.249,-3.58,2.1,1.68,0.56
,-9.241,-1.323,-3.388,-9.186,-1.249,-3.587,2.1,1.75,0.56
2953.0,-9.213,-1.347,-3.58,-9.246,-1.247,-3.312,2.31,1.12,0.56
,-9.208,-1.295,-3.503,-9.261,-1.242,-3.281,2.59,1.12,0.56
,-9.229,-1.335,-3.405,-9.256,-1.292,-3.297,2.73,1.05,0.63
,-9.263,-1.302,-3.376,-9.215,-1.316,-3.3,3.01,1.05,0.7
3029.0,-9.208,-1.287,-3.357,-9.251,-1.223,-3.415,2.52,1.61,0.63
,-9.196,-1.261,-3.36,-9.244,-1.244,-3.484,2.73,1.75,0.7
,-9.196,-1.316,-3.345,-9.21,-1.285,-3.479,2.59,1.89,0.77
,-9.222,-1.295,-3.376,-9.153,-1.35,-3.527,2.52,1.89,0.7
3104.0,-9.155,-1.28,-3.532,-9.227,-1.376,-3.467,2.31,1.68,0.56
,-9.217,-1.242,-3.542,-9.201,-1.357,-3.408,2.52,1.68,0.63
,-9.182,-1.311,-3.486,-9.251,-1.278,-3.396,2.31,1.54,0.63
,-9.22,-1.335,-3.496,-9.189,-1.304,-3.381,2.03,1.33,0.63
3180.0,-9.153,-1.321,-3.381,-9.17,-1.333,-3.482,2.31,1.26,0.63
,-9.227,-1.256,-3.451,-9.206,-1.316,-3.496,2.31,1.19,0.63
,-9.213,-1.278,-3.441,-9.208,-1.271,-3.431,2.38,1.19,0.77
,-9.217,-1.338,-3.475,-9.206,-1.235,-3.441,2.52,1.12,0.7
3256.0,-9.22,-1.223,-3.41,-9.227,-1.275,-3.453,3.36,1.12,0.98
,-9.179,-1.323,-3.491,-9.229,-1.263,-3.376,3.08,0.98,0.84
,-9.21,-1.369,-3.393,-9.194,-1.247,-3.362,3.29,0.91,0.91
,-9.251,-1.359,-3.405,-9.225,-1.249,-3.345,3.57,1.05,0.98
3332.0,-9.215,-1.24,-3.381,-9.263,-1.328,-3.4,2.52,1.05,0.91
,-9.215,-1.189,-3.372,-9.213,-1.29,-3.393,2.52,1.12,0.84
,-9.251,-1.235,-3.388,-9.277,-1.309,-3.41,2.17,1.05,0.84
,-9.227,-1.273,-3.386,-9.162,-1.299,-3.467,2.03,1.26,0.84
3407.0,-9.165,-1.333,-3.391,-9.229,-1.261,-3.386,2.03,1.26,0.84
,-9.213,-1.318,-3.458,-9.213,-1.223,-3.439,2.59,1.47,0.91
,-9.237,-1.247,-3.391,-9.232,-1.278,-3.419,2.8,1.61,0.84
,-9.229,-1.297,-3.388,-9.222,-1.285,-3.439,2.73,1.47,0.91
3483.0,-9.263,-1.256,-3.412,-9.256,-1.244,-3.352,2.31,1.4,0.77
,-9.21,-1.24,-3.417,-9.191,-1.326,-3.403,2.24,1.4,0.77
,-9.203,-1.299,-3.386,-9.253,-1.378,-3.424,2.03,1.26,0.63
,-9.222,-1.237,-3.396,-9.215,-1.357,-3.419,2.1,1.4,0.63
3558.0,-9.191,-1.314,-3.453,-9.208,-1.338,-3.458,3.01,1.61,0.77
,-9.265,-1.268,-3.46,-9.196,-1.33,-3.498,2.94,1.47,0.77
,-9.239,-1.244,-3.494,-9.208,-1.254,-3.439,2.87,1.26,0.77
,-9.21,-1.318,-3.443,-9.203,-1.261,-3.451,3.22,1.54,0.98
3634.0,-9.263,-1.285,-3.4,-9.273,-1.225,-3.362,3.01,1.19,0.91
,-9.213,-1.249,-3.408,-9.241,-1.259,-3.376,2.87,1.19,0.77
,-9.215,-1.249,-3.362,-9.241,-1.254,-3.396,2.8,1.33,0.7
,-9.21,-1.263,-3.312,-9.261,-1.299,-3.393,2.87,1.4,0.77
3710.0,-9.215,-1.311,-3.408,-9.225,-1.287,-3.429,2.31,1.54,0.49
,-9.241,-1.242,-3.422,-9.174,-1.354,-3.439,2.59,1.75,0.49
,-9.287,-1.228,-3.367,-9.21,-1.316,-3.465,2.38,1.75,0.49
,-9.249,-1.24,-3.434,-9.196,-1.299,-3.482,2.24,1.61,0.35
3786.0,-9.189,-1.321,-3.467,-9.222,-1.263,-3.467,2.52,1.47,0.49
,-9.213,-1.326,-3.443,-9.182,-1.295,-3.431,2.52,1.47,0.63
,-9.277,-1.28,-3.472,-9.22,-1.318,-3.393,2.59,1.54,0.63
,-9.237,-1.29,-3.424,-9.215,-1.297,-3.364,2.73,1.4,0.56
3862.0,-9.27,-1.263,-3.34,-9.215,-1.311,-3.475,3.15,1.47,0.7
,-9.265,-1.247,-3.36,-9.143,-1.328,-3.522,3.01,1.61,0.7
,-9.277,-1.254,-3.355,-9.184,-1.374,-3.477,2.8,1.68,0.63
,-9.296,-1.302,-3.398,-9.16,-1.304,-3.506,2.52,1.26,0.49
3937.0,-9.229,-1.299,-3.465,-9.215,-1.302,-3.398,3.15,1.33,0.63
,-9.239,-1.311,-3.417,-9.177,-1.295,-3.396,3.08,1.33,0.63
,-9.292,-1.271,-3.429,-9.246,-1.259,-3.415,2.94,1.33,0.56
,-9.244,-1.297,-3.441,-9.215,-1.275,-3.345,2.73,1.19,0.49
4013.0,-9.22,-1.304,-3.319,-9.268,-1.256,-3.357,2.73,1.47,0.63
,-9.21,-1.263,-3.324,-9.258,-1.323,-3.408,2.8,1.4,0.56
,-9.22,-1.309,-3.331,-9.191,-1.333,-3.429,2.52,1.4,0.56
,-9.282,-1.295,-3.369,-9.17,-1.283,-3.451,2.38,1.68,0.63
4089.0,-9.182,-1.261,-3.443,-9.215,-1.263,-3.446,2.66,1.75,0.56
,-9.253,-1.275,-3.491,-9.229,-1.314,-3.36,2.52,1.89,0.63
,-9.217,-1.316,-3.475,-9.246,-1.263,-3.384,2.38,1.82,0.56
,-9.229,-1.323,-3.415,-9.177,-1.29,-3.333,2.52,1.61,0.49
4165.0,-9.222,-1.328,-3.278,-9.261,-1.318,-3.355,1.89,1.82,0.42
,-9.186,-1.271,-3.29,-9.213,-1.359,-3.431,1.96,2.1,0.42
,-9.265,-1.235,-3.307,-9.174,-1.259,-3.455,2.1,2.38,0.42
,-9.258,-1.278,-3.314,-9.237,-1.342,-3.532,1.61,2.24,0.49
4240.0,-9.246,-1.378,-3.568,-9.17,-1.364,-3.606,1.47,2.03,0.28
,-9.237,-1.362,-3.601,-9.179,-1.307,-3.544,1.82,1.96,0.42
,-9.15,-1.369,-3.618,-9.215,-1.326,-3.494,2.1,1.82,0.56
,-9.143,-1.378,-3.613,-9.203,-1.342,-3.446,2.45,1.75,0.56
4316.0,-9.22,-1.33,-3.439,-9.217,-1.299,-3.352,2.87,1.05,0.84
,-9.237,-1.278,-3.393,-9.191,-1.307,-3.391,3.01,1.12,0.98
,-9.22,-1.299,-3.417,-9.177,-1.259,-3.345,2.94,1.12,0.98
,-9.215,-1.316,-3.415,-9.206,-1.314,-3.405,3.01,1.26,0.91
4391.0,-9.232,-1.34,-3.338,-9.244,-1.304,-3.362,3.08,1.61,1.05
,-9.265,-1.33,-3.408,-9.237,-1.271,-3.379,3.15,1.61,1.05
,-9.253,-1.34,-3.376,-9.251,-1.29,-3.443,3.08,1.54,0.98
,-9.203,-1.266,-3.412,-9.215,-1.275,-3.467,3.01,1.54,0.91
4467.0,-9.253,-1.278,-3.58,-9.177,-1.297,-3.498,2.38,1.68,0.91
,-9.184,-1.292,-3.575,-9.217,-1.299,-3.46,2.59,1.33,0.84
,-9.134,-1.297,-3.577,-9.184,-1.297,-3.398,2.66,1.47,0.91
,-9.16,-1.326,-3.568,-9.206,-1.309,-3.369,2.73,1.4,0.91
4543.0,-9.229,-1.307,-3.357,-9.203,-1.309,-3.384,2.73,1.33,0.84
,-9.232,-1.295,-3.305,-9.217,-1.304,-3.391,2.45,1.47,0.91
,-9.246,-1.254,-3.35,-9.198,-1.311,-3.41,2.31,1.47,0.77
,-9.225,-1.256,-3.336,-9.21,-1.266,-3.491,2.03,1.54,0.7
4619.0,-9.198,-1.323,-3.477,-9.217,-1.314,-3.539,1.89,1.75,0.7
,-9.198,-1.33,-3.482,-9.184,-1.33,-3.489,1.96,1.68,0.63
,-9.198,-1.299,-3.534,-9.206,-1.261,-3.47,2.24,1.75,0.77
,-9.198,-1.335,-3.482,-9.232,-1.335,-3.431,2.24,1.54,0.84
4694.0,-9.198,-1.259,-3.46,-9.174,-1.278,-3.405,2.87,1.47,0.98
,-9.179,-1.28,-3.439,-9.198,-1.307,-3.379,2.94,1.33,0.91
,-9.201,-1.307,-3.41,-9.229,-1.256,-3.376,2.8,1.33,0.98
,-9.237,-1.28,-3.374,-9.261,-1.263,-3.345,2.94,1.54,1.05
4770.0,-9.282,-1.278,-3.419,-9.184,-1.266,-3.534,2.38,1.68,0.77
,-9.256,-1.321,-3.475,-9.222,-1.237,-3.525,2.31,1.68,0.77
,-9.177,-1.366,-3.472,-9.146,-1.302,-3.508,2.24,1.54,0.77
,-9.177,-1.323,-3.522,-9.206,-1.311,-3.479,2.66,1.61,0.77
4845.0,-9.239,-1.244,-3.537,-9.251,-1.342,-3.46,3.01,1.4,0.84
,-9.253,-1.285,-3.486,-9.186,-1.292,-3.408,3.08,1.33,0.84
,-9.208,-1.283,-3.453,-9.217,-1.275,-3.386,2.73,1.26,0.84
,-9.213,-1.314,-3.446,-9.237,-1.273,-3.364,2.66,1.47,0.84
4921.0,-9.289,-1.237,-3.398,-9.241,-1.335,-3.448,2.59,1.54,0.84
,-9.227,-1.292,-3.388,-9.237,-1.268,-3.403,2.1,1.4,0.77
,-9.186,-1.273,-3.41,-9.237,-1.278,-3.441,2.17,1.47,0.77
,-9.191,-1.342,-3.384,-9.215,-1.283,-3.484,2.24,1.75,0.84
4997.0,-9.203,-1.326,-3.52,-9.249,-1.24,-3.374,2.1,1.4,0.56
,-9.172,-1.321,-3.486,-9.256,-1.28,-3.379,2.17,1.47,0.63
,-9.251,-1.283,-3.467,-9.28,-1.302,-3.448,2.59,1.75,0.7
,-9.21,-1.254,-3.408,-9.196,-1.338,-3.467,2.59,1.68,0.77
5073.0,-9.196,-1.323,-3.556,-9.191,-1.266,-3.494,2.03,1.61,0.56
,-9.167,-1.342,-3.53,-9.184,-1.271,-3.534,2.45,1.54,0.56
,-9.182,-1.357,-3.558,-9.203,-1.287,-3.429,2.66,1.4,0.7
,-9.21,-1.364,-3.568,-9.239,-1.297,-3.374,3.15,1.26,0.84
5149.0,-9.162,-1.251,-3.398,-9.208,-1.247,-3.364,3.78,1.33,1.12
,-9.251,-1.256,-3.35,-9.229,-1.266,-3.412,3.5,1.4,0.98
,-9.201,-1.235,-3.376,-9.191,-1.268,-3.376,3.08,1.4,0.91
,-9.22,-1.22,-3.352,-9.215,-1.287,-3.451,2.8,1.61,0.77
5224.0,-9.191,-1.33,-3.451,-9.273,-1.247,-3.431,2.73,1.61,0.77
,-9.213,-1.318,-3.374,-9.198,-1.273,-3.441,3.01,1.82,0.77
,-9.273,-1.266,-3.41,-9.191,-1.328,-3.482,3.08,1.68,0.7
,-9.282,-1.235,-3.415,-9.201,-1.278,-3.491,3.08,1.47,0.63
5300.0,-9.172,-1.251,-3.501,-9.194,-1.342,-3.422,2.59,1.47,0.42
,-9.186,-1.251,-3.458,-9.186,-1.326,-3.451,2.45,1.61,0.49
,-9.201,-1.273,-3.47,-9.158,-1.307,-3.381,2.24,1.33,0.42
,-9.208,-1.292,-3.427,-9.222,-1.295,-3.405,2.1,1.47,0.42
5376.0,-9.244,-1.314,-3.393,-9.196,-1.304,-3.498,2.8,1.89,0.56
,-9.203,-1.29,-3.362,-9.148,-1.359,-3.479,2.73,1.82,0.42
,-9.227,-1.287,-3.396,-9.208,-1.359,-3.537,2.52,1.96,0.49
,-9.282,-1.268,-3.403,-9.194,-1.321,-3.585,2.24,1.82,0.42
5452.0,-9.206,-1.285,-3.503,-9.194,-1.302,-3.496,2.66,1.75,0.42
,-9.174,-1.287,-3.496,-9.15,-1.378,-3.525,2.45,1.54,0.42
,-9.174,-1.285,-3.453,-9.165,-1.388,-3.553,2.31,1.47,0.35
,-9.239,-1.292,-3.527,-9.15,-1.374,-3.58,2.38,1.61,0.49
5527.0,-9.225,-1.326,-3.508,-9.241,-1.237,-3.314,3.71,0.98,0.84
,-9.213,-1.338,-3.451,-9.241,-1.302,-3.269,3.64,0.98,0.77
,-9.203,-1.278,-3.343,-9.27,-1.29,-3.324,3.71,1.19,0.77
,-9.244,-1.24,-3.314,-9.167,-1.316,-3.381,3.57,1.05,0.77
5603.0,-9.198,-1.345,-3.396,-9.198,-1.362,-3.393,2.66,1.47,0.63
,-9.186,-1.251,-3.415,-9.227,-1.374,-3.4,2.73,1.54,0.7
,-9.203,-1.247,-3.415,-9.172,-1.357,-3.398,2.59,1.4,0.63
,-9.203,-1.359,-3.403,-9.215,-1.323,-3.479,2.38,1.75,0.63
5678.0,-9.184,-1.371,-3.527,-9.227,-1.247,-3.455,2.24,1.82,0.77
,-9.17,-1.376,-3.508,-9.239,-1.299,-3.489,2.31,1.89,0.84
,-9.213,-1.292,-3.508,-9.239,-1.295,-3.477,2.38,1.68,0.84
,-9.222,-1.278,-3.503,-9.172,-1.34,-3.506,2.45,1.68,0.98
5754.0,-9.165,-1.383,-3.52,-9.177,-1.299,-3.443,2.45,1.33,0.91
,-9.165,-1.34,-3.556,-9.229,-1.29,-3.506,2.8,1.12,0.91
,-9.229,-1.295,-3.518,-9.208,-1.283,-3.439,2.8,0.98,0.91
,-9.194,-1.342,-3.501,-9.196,-1.299,-3.422,2.87,1.05,0.98
5830.0,-9.17,-1.35,-3.41,-9.186,-1.335,-3.384,3.01,0.98,0.98
,-9.217,-1.295,-3.396,-9.213,-1.283,-3.408,3.36,1.12,0.98
,-9.206,-1.271,-3.412,-9.182,-1.275,-3.388,3.01,1.05,0.91
,-9.194,-1.299,-3.405,-9.215,-1.287,-3.412,2.66,0.98,0.91
5906.0,-9.227,-1.318,-3.453,-9.232,-1.244,-3.4,2.45,1.4,0.84
,-9.167,-1.33,-3.443,-9.206,-1.271,-3.355,2.45,1.26,0.77
,-9.21,-1.307,-3.429,-9.241,-1.244,-3.35,2.52,1.19,0.84
,-9.194,-1.318,-3.415,-9.246,-1.263,-3.348,2.66,1.26,0.77
5982.0,-9.294,-1.333,-3.388,-9.184,-1.287,-3.53,2.17,1.4,0.63
,-9.229,-1.283,-3.463,-9.225,-1.263,-3.486,2.1,1.33,0.63
,-9.206,-1.321,-3.506,-9.191,-1.304,-3.52,2.17,1.4,0.63
,-9.139,-1.326,-3.52,-9.203,-1.302,-3.51,2.38,1.47,0.7
6057.0,-9.203,-1.266,-3.477,-9.222,-1.357,-3.369,2.31,1.05,0.63
,-9.177,-1.33,-3.451,-9.215,-1.338,-3.355,2.24,0.91,0.63
,-9.215,-1.316,-3.465,-9.196,-1.285,-3.317,2.52,1.12,0.7
,-9.198,-1.33,-3.364,-9.203,-1.259,-3.348,2.66,0.98,0.7
6133.0,-9.229,-1.292,-3.412,-9.217,-1.242,-3.417,2.66,1.47,0.84
,-9.208,-1.287,-3.441,-9.232,-1.278,-3.451,2.73,1.4,0.7
,-9.194,-1.314,-3.446,-9.203,-1.283,-3.386,2.66,1.33,0.77
,-9.213,-1.316,-3.475,-9.21,-1.273,-3.376,2.66,1.33,0.7
6209.0,-9.225,-1.273,-3.376,-9.206,-1.352,-3.486,2.38,1.82,0.77
,-9.222,-1.273,-3.405,-9.17,-1.307,-3.451,2.45,1.61,0.84
,-9.206,-1.256,-3.41,-9.194,-1.295,-3.498,2.17,1.61,0.77
,-9.232,-1.321,-3.446,-9.203,-1.256,-3.542,2.03,1.75,0.77
6285.0,-9.196,-1.259,-3.522,-9.208,-1.268,-3.369,2.45,1.4,0.77
,-9.22,-1.345,-3.47,-9.206,-1.295,-3.352,2.59,1.47,0.77
,-9.196,-1.299,-3.41,-9.241,-1.326,-3.384,2.8,1.33,0.84
,-9.234,-1.268,-3.386,-9.256,-1.323,-3.391,2.94,1.26,0.77
6360.0,-9.232,-1.309,-3.415,-9.213,-1.287,-3.482,2.17,1.47,0.7
,-9.232,-1.328,-3.472,-9.203,-1.326,-3.451,2.38,1.4,0.77
,-9.203,-1.357,-3.467,-9.213,-1.321,-3.431,2.52,1.4,0.84
,-9.232,-1.268,-3.472,-9.222,-1.307,-3.448,2.59,1.26,0.84
6436.0,-9.206,-1.29,-3.477,-9.208,-1.285,-3.467,3.01,1.12,0.84
,-9.191,-1.261,-3.47,-9.213,-1.295,-3.439,3.08,1.05,0.84
,-9.232,-1.321,-3.53,-9.182,-1.235,-3.396,3.15,1.12,0.98
,-9.206,-1.244,-3.534,-9.261,-1.28,-3.319,3.36,1.12,0.98
6511.0,-9.282,-1.251,-3.305,-9.179,-1.307,-3.412,2.94,1.33,0.91
,-9.241,-1.237,-3.343,-9.249,-1.287,-3.422,2.66,1.33,0.7
,-9.208,-1.263,-3.369,-9.206,-1.263,-3.467,2.31,1.33,0.56
,-9.162,-1.283,-3.446,-9.201,-1.271,-3.46,2.31,1.4,0.63
6587.0,-9.198,-1.302,-3.503,-9.251,-1.304,-3.379,2.03,0.91,0.35
,-9.15,-1.371,-3.446,-9.232,-1.314,-3.372,2.1,1.05,0.56
,-9.246,-1.299,-3.417,-9.22,-1.316,-3.372,2.45,1.05,0.56
,-9.253,-1.299,-3.396,-9.213,-1.297,-3.427,2.31,1.19,0.56
6663.0,-9.208,-1.29,-3.475,-9.229,-1.302,-3.451,2.31,1.12,0.49
,-9.198,-1.307,-3.503,-9.16,-1.292,-3.412,2.38,1.05,0.49
,-9.191,-1.292,-3.482,-9.194,-1.342,-3.424,2.8,1.33,0.49
,-9.246,-1.287,-3.448,-9.22,-1.333,-3.429,2.73,1.19,0.42
6739.0,-9.251,-1.383,-3.396,-9.241,-1.323,-3.451,2.31,1.19,0.56
,-9.22,-1.33,-3.439,-9.213,-1.34,-3.448,2.52,1.26,0.63
,-9.208,-1.338,-3.439,-9.217,-1.326,-3.486,2.66,1.26,0.63
,-9.189,-1.362,-3.465,-9.215,-1.359,-3.443,2.8,1.33,0.77
6814.0,-9.222,-1.314,-3.439,-9.215,-1.256,-3.329,3.08,1.19,0.98
,-9.268,-1.273,-3.408,-9.249,-1.311,-3.367,3.29,0.98,0.98
,-9.273,-1.287,-3.384,-9.21,-1.266,-3.297,3.08,0.91,1.05
,-9.234,-1.275,-3.266,-9.263,-1.287,-3.281,3.01,1.19,1.05
6890.0,-9.253,-1.247,-3.364,-9.189,-1.342,-3.484,2.52,1.4,0.84
,-9.217,-1.266,-3.405,-9.217,-1.318,-3.441,2.17,1.33,0.77
,-9.232,-1.342,-3.434,-9.203,-1.304,-3.451,2.1,1.33,0.7
,-9.217,-1.321,-3.443,-9.229,-1.29,-3.403,2.17,1.33,0.7
6966.0,-9.21,-1.321,-3.405,-9.213,-1.273,-3.41,2.59,1.33,0.84
,-9.208,-1.359,-3.384,-9.213,-1.311,-3.436,2.66,1.54,0.91
,-9.241,-1.307,-3.396,-9.201,-1.316,-3.441,2.8,1.47,0.91
,-9.268,-1.283,-3.427,-9.244,-1.295,-3.47,2.94,1.47,0.91
7042.0,-9.241,-1.29,-3.489,-9.225,-1.261,-3.362,2.87,1.19,0.84
,-9.21,-1.287,-3.439,-9.225,-1.28,-3.336,3.01,1.26,0.84
,-9.201,-1.266,-3.458,-9.249,-1.204,-3.379,3.15,1.33,0.84
,-9.203,-1.28,-3.412,-9.251,-1.278,-3.338,3.36,1.19,0.91
7118.0,-9.139,-1.316,-3.324,-9.21,-1.278,-3.384,2.52,1.4,0.63
,-9.225,-1.304,-3.384,-9.253,-1.271,-3.398,2.59,1.54,0.63
,-9.229,-1.273,-3.393,-9.201,-1.335,-3.441,2.66,1.54,0.63
,-9.217,-1.261,-3.319,-9.201,-1.33,-3.513,2.59,1.54,0.56
7193.0,-9.239,-1.309,-3.51,-9.256,-1.29,-3.388,2.38,1.54,0.63
,-9.258,-1.295,-3.556,-9.234,-1.285,-3.384,2.38,1.54,0.63
,-9.198,-1.299,-3.513,-9.253,-1.266,-3.338,2.45,1.4,0.49
,-9.146,-1.35,-3.431,-9.275,-1.328,-3.369,2.8,1.26,0.49
7269.0,-9.203,-1.307,-3.362,-9.172,-1.369,-3.465,2.66,1.19,0.7
,-9.232,-1.311,-3.419,-9.215,-1.304,-3.496,2.8,1.4,0.77
,-9.182,-1.299,-3.412,-9.206,-1.28,-3.486,2.66,1.4,0.84
,-9.196,-1.357,-3.51,-9.246,-1.302,-3.448,2.52,1.05,0.77
7344.0,-9.225,-1.263,-3.405,-9.213,-1.259,-3.357,3.01,0.84,0.63
,-9.234,-1.292,-3.388,-9.251,-1.311,-3.36,2.87,0.84,0.63
,-9.196,-1.292,-3.367,-9.265,-1.268,-3.364,2.8,1.12,0.77
,-9.215,-1.323,-3.309,-9.244,-1.292,-3.379,2.8,1.12,0.77
7420.0,-9.213,-1.342,-3.405,-9.213,-1.263,-3.312,2.31,1.26,0.77
,-9.206,-1.318,-3.36,-9.249,-1.318,-3.34,2.38,1.19,0.63
,-9.237,-1.311,-3.36,-9.277,-1.314,-3.463,2.45,1.26,0.63
,-9.22,-1.261,-3.336,-9.196,-1.338,-3.448,2.45,1.19,0.56
7496.0,-9.201,-1.362,-3.496,-9.217,-1.311,-3.396,2.45,1.26,0.63
,-9.186,-1.369,-3.498,-9.296,-1.292,-3.305,2.73,1.19,0.63
,-9.229,-1.33,-3.501,-9.253,-1.292,-3.376,3.08,1.26,0.77
,-9.201,-1.302,-3.439,-9.213,-1.318,-3.305,3.29,1.19,0.77
7572.0,-9.261,-1.297,-3.331,-9.251,-1.302,-3.329,2.87,1.19,0.7
,-9.194,-1.354,-3.305,-9.217,-1.318,-3.336,3.01,1.26,0.7
,-9.203,-1.342,-3.297,-9.253,-1.307,-3.393,3.01,1.33,0.63
,-9.256,-1.263,-3.326,-9.232,-1.292,-3.374,3.01,1.47,0.63
7647.0,-9.182,-1.318,-3.405,-9.213,-1.314,-3.448,2.59,1.75,0.63
,-9.234,-1.321,-3.403,-9.213,-1.314,-3.424,2.45,1.54,0.42
,-9.201,-1.295,-3.424,-9.196,-1.345,-3.441,2.1,1.47,0.42
,-9.22,-1.299,-3.455,-9.229,-1.352,-3.429,2.03,1.47,0.35
7723.0,-9.215,-1.335,-3.436,-9.222,-1.335,-3.396,2.66,1.54,0.56
,-9.196,-1.338,-3.415,-9.22,-1.326,-3.448,2.8,1.47,0.56
,-9.215,-1.318,-3.408,-9.229,-1.309,-3.41,2.8,1.47,0.56
,-9.217,-1.376,-3.446,-9.265,-1.304,-3.424,2.8,1.47,0.7
7799.0,-9.217,-1.352,-3.386,-9.213,-1.316,-3.424,3.01,1.4,0.77
,-9.217,-1.314,-3.364,-9.184,-1.323,-3.41,2.94,1.61,0.91
,-9.258,-1.275,-3.391,-9.172,-1.371,-3.408,2.8,1.47,0.77
,-9.246,-1.323,-3.415,-9.206,-1.354,-3.412,2.73,1.47,0.77
7875.0,-9.258,-1.323,-3.398,-9.208,-1.338,-3.384,3.01,1.47,0.77
,-9.256,-1.309,-3.336,-9.215,-1.326,-3.431,2.94,1.47,0.91
,-9.194,-1.259,-3.369,-9.201,-1.314,-3.388,2.66,1.47,0.84
,-9.208,-1.285,-3.338,-9.191,-1.374,-3.424,2.45,1.54,0.84
7950.0,-9.249,-1.33,-3.429,-9.191,-1.326,-3.46,2.73,1.75,0.84
,-9.249,-1.321,-3.417,-9.241,-1.338,-3.482,2.73,1.54,0.84
,-9.229,-1.316,-3.427,-9.198,-1.323,-3.412,2.45,1.54,0.84
,-9.189,-1.309,-3.436,-9.225,-1.347,-3.403,2.03,1.47,0.84
8026.0,-9.217,-1.287,-3.355,-9.227,-1.318,-3.391,2.8,1.47,0.77
,-9.196,-1.297,-3.367,-9.206,-1.321,-3.376,2.73,1.4,0.77
,-9.253,-1.283,-3.317,-9.182,-1.35,-3.398,2.45,1.33,0.77
,-9.203,-1.285,-3.412,-9.249,-1.333,-3.391,2.45,1.33,0.77
8102.0,-9.222,-1.326,-3.355,-9.273,-1.304,-3.376,2.59,1.54,0.77
,-9.229,-1.345,-3.295,-9.273,-1.318,-3.446,2.52,1.68,0.77
,-9.253,-1.266,-3.329,-9.215,-1.333,-3.477,2.52,1.75,0.84
,-9.241,-1.292,-3.343,-9.162,-1.352,-3.494,2.52,1.82,0.77
8177.0,-9.227,-1.326,-3.467,-9.234,-1.369,-3.472,2.38,1.75,0.77
,-9.21,-1.299,-3.477,-9.189,-1.29,-3.47,2.45,1.75,0.77
,-9.165,-1.335,-3.508,-9.194,-1.335,-3.486,2.24,1.54,0.7
,-9.158,-1.309,-3.455,-9.22,-1.345,-3.412,2.38,1.54,0.84
8253.0,-9.191,-1.352,-3.412,-9.194,-1.333,-3.352,2.87,1.26,0.84
,-9.222,-1.29,-3.403,-9.213,-1.352,-3.329,2.73,1.12,0.77
,-9.225,-1.314,-3.396,-9.232,-1.316,-3.317,2.52,1.19,0.77
,-9.234,-1.33,-3.415,-9.21,-1.299,-3.314,2.59,1.19,0.7
8329.0,-9.215,-1.321,-3.355,-9.198,-1.304,-3.553,2.52,1.61,0.77
,-9.287,-1.28,-3.386,-9.21,-1.316,-3.546,2.17,1.61,0.7
,-9.244,-1.323,-3.403,-9.146,-1.297,-3.525,1.96,1.68,0.7
,-9.227,-1.347,-3.477,-9.241,-1.318,-3.534,2.17,1.75,0.77
8405.0,-9.208,-1.302,-3.403,-9.222,-1.29,-3.345,2.66,1.47,0.77
,-9.213,-1.323,-3.398,-9.253,-1.316,-3.362,2.59,1.4,0.91
,-9.186,-1.335,-3.364,-9.191,-1.35,-3.357,2.45,1.33,0.77
,-9.227,-1.333,-3.336,-9.253,-1.304,-3.352,2.45,1.12,0.77
8480.0,-9.222,-1.309,-3.434,-9.189,-1.268,-3.484,2.87,1.4,0.84
,-9.189,-1.354,-3.419,-9.227,-1.316,-3.482,2.73,1.33,0.84
,-9.234,-1.345,-3.427,-9.237,-1.359,-3.427,2.8,1.4,0.91
,-9.186,-1.328,-3.472,-9.208,-1.323,-3.398,3.15,1.47,0.98
8556.0,-9.201,-1.304,-3.374,-9.241,-1.316,-3.362,3.08,1.33,0.91
,-9.234,-1.263,-3.307,-9.198,-1.302,-3.415,3.08,1.19,0.84
,-9.282,-1.218,-3.288,-9.201,-1.328,-3.431,2.66,1.4,0.77
,-9.284,-1.297,-3.283,-9.227,-1.364,-3.453,2.24,1.61,0.7
8632.0,-9.22,-1.292,-3.429,-9.213,-1.333,-3.448,2.45,1.47,0.63
,-9.244,-1.254,-3.482,-9.241,-1.333,-3.463,2.45,1.47,0.7
,-9.237,-1.24,-3.422,-9.206,-1.357,-3.429,2.45,1.47,0.63
,-9.263,-1.273,-3.379,-9.203,-1.34,-3.429,2.45,1.47,0.63
8708.0,-9.241,-1.359,-3.47,-9.227,-1.316,-3.41,2.73,1.19,0.7
,-9.21,-1.342,-3.463,-9.21,-1.266,-3.376,2.73,1.33,0.77
,-9.21,-1.318,-3.453,-9.225,-1.251,-3.302,2.66,1.4,0.7
,-9.277,-1.34,-3.384,-9.246,-1.297,-3.343,2.87,1.4,0.7
8783.0,-9.241,-1.297,-3.348,-9.227,-1.326,-3.496,2.73,1.54,0.77
,-9.232,-1.326,-3.412,-9.194,-1.33,-3.436,2.66,1.47,0.63
,-9.246,-1.374,-3.393,-9.162,-1.357,-3.422,2.59,1.33,0.7
,-9.22,-1.33,-3.455,-9.198,-1.307,-3.408,2.73,1.54,0.77
8859.0,-9.241,-1.318,-3.417,-9.206,-1.323,-3.398,2.66,1.47,0.98
,-9.222,-1.326,-3.417,-9.241,-1.326,-3.396,2.38,1.33,0.84
,-9.22,-1.335,-3.369,-9.22,-1.295,-3.4,2.38,1.4,0.91
,-9.225,-1.307,-3.434,-9.234,-1.287,-3.434,2.45,1.4,0.98
8934.0,-9.229,-1.275,-3.422,-9.217,-1.333,-3.4,2.45,1.26,0.91
,-9.208,-1.34,-3.427,-9.206,-1.283,-3.36,2.38,1.19,0.91
,-9.208,-1.318,-3.439,-9.241,-1.254,-3.374,2.59,1.4,0.91
,-9.244,-1.285,-3.458,-9.225,-1.314,-3.343,2.94,1.54,0.98
9010.0,-9.227,-1.283,-3.367,-9.165,-1.311,-3.393,2.45,1.33,0.84
,-9.239,-1.295,-3.393,-9.237,-1.273,-3.372,2.38,1.4,0.84
,-9.246,-1.259,-3.41,-9.275,-1.295,-3.362,2.1,1.19,0.77
,-9.141,-1.338,-3.393,-9.22,-1.259,-3.352,1.96,1.19,0.7
9086.0,-9.265,-1.316,-3.427,-9.174,-1.28,-3.446,2.31,1.54,0.77
,-9.203,-1.366,-3.448,-9.239,-1.283,-3.443,2.59,1.54,0.84
,-9.201,-1.354,-3.408,-9.213,-1.335,-3.405,2.8,1.68,0.91
,-9.229,-1.326,-3.479,-9.249,-1.328,-3.403,3.22,1.82,1.05
9162.0,-9.213,-1.302,-3.36,-9.217,-1.338,-3.403,3.15,1.61,0.91
,-9.251,-1.295,-3.331,-9.256,-1.28,-3.422,3.15,1.68,0.84
,-9.256,-1.223,-3.34,-9.179,-1.273,-3.455,2.73,1.61,0.77
,-9.234,-1.247,-3.357,-9.215,-1.29,-3.465,2.38,1.82,0.77
9238.0,-9.155,-1.307,-3.463,-9.258,-1.302,-3.343,2.31,1.47,0.63
,-9.172,-1.323,-3.443,-9.146,-1.364,-3.34,2.45,1.61,0.63
,-9.225,-1.295,-3.436,-9.244,-1.295,-3.329,2.59,1.89,0.7
,-9.263,-1.285,-3.436,-9.206,-1.285,-3.429,2.73,1.61,0.56
9313.0,-9.215,-1.297,-3.412,-9.244,-1.304,-3.424,2.03,1.61,0.7
,-9.215,-1.316,-3.429,-9.225,-1.295,-3.479,2.03,1.82,0.63
,-9.253,-1.29,-3.475,-9.191,-1.314,-3.479,1.96,1.68,0.56
,-9.174,-1.34,-3.451,-9.194,-1.33,-3.534,2.1,1.61,0.49
9389.0,-9.244,-1.347,-3.582,-9.229,-1.297,-3.367,2.8,1.19,0.7
,-9.203,-1.34,-3.515,-9.21,-1.249,-3.297,3.36,1.26,0.77
,-9.174,-1.311,-3.503,-9.225,-1.23,-3.281,3.57,1.05,0.91
,-9.208,-1.29,-3.451,-9.229,-1.273,-3.25,3.85,1.05,0.84
9465.0,-9.261,-1.295,-3.211,-9.253,-1.285,-3.364,2.59,1.54,0.7
,-9.249,-1.314,-3.24,-9.225,-1.316,-3.458,2.45,1.68,0.7
,-9.251,-1.33,-3.25,-9.213,-1.283,-3.52,2.52,1.82,0.7
,-9.244,-1.268,-3.345,-9.174,-1.283,-3.52,2.45,2.1,0.63
9541.0,-9.174,-1.335,-3.565,-9.261,-1.333,-3.405,2.1,1.96,0.7
,-9.134,-1.311,-3.534,-9.215,-1.316,-3.388,2.45,1.75,0.77
,-9.217,-1.314,-3.472,-9.261,-1.314,-3.417,2.87,1.89,0.84
,-9.182,-1.295,-3.455,-9.232,-1.366,-3.374,3.15,1.82,0.91
9616.0,-9.201,-1.326,-3.403,-9.253,-1.295,-3.448,2.8,1.82,0.84
,-9.189,-1.321,-3.4,-9.239,-1.323,-3.412,2.87,1.82,0.91
,-9.249,-1.261,-3.391,-9.194,-1.335,-3.424,2.8,1.82,0.77
,-9.21,-1.295,-3.412,-9.206,-1.314,-3.422,2.73,1.89,0.77
9692.0,-9.201,-1.266,-3.362,-9.244,-1.35,-3.496,2.66,2.03,0.7
,-9.258,-1.237,-3.305,-9.177,-1.376,-3.522,2.45,1.82,0.56
,-9.261,-1.273,-3.384,-9.198,-1.359,-3.546,2.03,1.96,0.63
,-9.227,-1.266,-3.439,-9.189,-1.359,-3.51,1.68,1.89,0.56
9767.0,-9.162,-1.316,-3.484,-9.215,-1.254,-3.472,2.38,1.75,0.63
,-9.239,-1.328,-3.396,-9.201,-1.371,-3.537,2.59,1.75,0.7
,-9.22,-1.261,-3.343,-9.191,-1.342,-3.496,2.45,1.68,0.7
,-9.246,-1.292,-3.396,-9.174,-1.362,-3.525,2.45,1.75,0.84
