Timestamp,AccX,AccY,AccZ,GyroX,GyroY,GyroZ,MagnX,MagnY,MagnZ
0.0,-9.593,-0.754,-2.479,-9.586,-0.634,-2.436,3.71,0.98,1.12
,-9.562,-0.632,-2.46,-9.581,-0.62,-2.426,4.06,1.19,1.19
,-9.548,-0.613,-2.477,-9.615,-0.658,-2.405,3.92,1.19,1.26
,-9.588,-0.634,-2.493,-9.641,-0.641,-2.388,3.22,1.19,1.05
76.0,-9.61,-0.581,-2.407,-9.593,-0.644,-2.407,2.59,1.33,0.84
,-9.603,-0.598,-2.393,-9.576,-0.658,-2.426,2.38,1.19,0.63
,-9.598,-0.622,-2.419,-9.576,-0.696,-2.436,2.24,1.4,0.7
,-9.663,-0.603,-2.405,-9.591,-0.675,-2.486,2.1,1.4,0.7
152.0,-9.596,-0.658,-2.465,-9.572,-0.656,-2.496,1.89,1.4,0.7
,-9.572,-0.66,-2.45,-9.598,-0.589,-2.493,1.68,1.47,0.7
,-9.598,-0.68,-2.458,-9.569,-0.627,-2.515,1.61,1.61,0.7
,-9.562,-0.672,-2.491,-9.593,-0.665,-2.465,1.68,1.4,0.63
227.0,-9.593,-0.67,-2.505,-9.56,-0.658,-2.443,2.52,1.19,0.84
,-9.617,-0.651,-2.484,-9.596,-0.66,-2.434,2.59,1.19,0.77
,-9.569,-0.658,-2.477,-9.605,-0.646,-2.417,2.52,1.19,0.84
,-9.596,-0.675,-2.436,-9.603,-0.656,-2.419,2.45,1.26,0.84
302.0,-9.586,-0.672,-2.424,-9.6,-0.708,-2.498,2.45,1.4,0.77
,-9.588,-0.672,-2.489,-9.634,-0.692,-2.508,2.31,1.47,0.77
,-9.584,-0.704,-2.469,-9.603,-0.68,-2.513,2.17,1.4,0.77
,-9.572,-0.73,-2.51,-9.538,-0.713,-2.474,2.31,1.4,0.91
378.0,-9.596,-0.68,-2.45,-9.622,-0.689,-2.41,2.45,0.91,0.77
,-9.586,-0.68,-2.446,-9.574,-0.684,-2.438,2.52,1.26,0.84
,-9.557,-0.62,-2.386,-9.6,-0.66,-2.474,2.8,1.47,0.98
,-9.588,-0.656,-2.414,-9.6,-0.653,-2.501,2.87,1.4,0.98
454.0,-9.572,-0.625,-2.496,-9.574,-0.639,-2.458,2.87,1.4,1.19
,-9.617,-0.617,-2.453,-9.631,-0.658,-2.436,2.8,1.47,1.12
,-9.579,-0.634,-2.477,-9.631,-0.637,-2.422,2.66,1.26,1.12
,-9.584,-0.646,-2.467,-9.581,-0.66,-2.429,2.8,1.26,1.12
530.0,-9.605,-0.663,-2.429,-9.588,-0.67,-2.458,2.45,1.19,0.84
,-9.579,-0.668,-2.436,-9.579,-0.675,-2.46,2.17,1.33,0.91
,-9.624,-0.617,-2.446,-9.641,-0.629,-2.513,1.96,1.33,0.98
,-9.627,-0.665,-2.448,-9.639,-0.653,-2.525,1.82,1.19,0.91
606.0,-9.584,-0.629,-2.527,-9.572,-0.68,-2.46,1.89,0.98,0.84
,-9.603,-0.593,-2.486,-9.567,-0.687,-2.424,2.17,1.05,0.91
,-9.612,-0.629,-2.481,-9.608,-0.62,-2.438,2.17,0.77,0.7
,-9.584,-0.651,-2.434,-9.612,-0.598,-2.41,2.17,0.84,0.77
681.0,-9.615,-0.581,-2.379,-9.61,-0.656,-2.381,2.17,0.98,0.63
,-9.624,-0.608,-2.393,-9.622,-0.66,-2.324,2.1,0.98,0.63
,-9.603,-0.67,-2.381,-9.624,-0.665,-2.386,2.1,0.91,0.56
,-9.603,-0.625,-2.379,-9.631,-0.648,-2.367,2.38,1.05,0.7
757.0,-9.579,-0.656,-2.398,-9.591,-0.706,-2.501,2.52,1.68,0.84
,-9.608,-0.651,-2.393,-9.598,-0.658,-2.508,2.38,1.75,0.91
,-9.612,-0.625,-2.486,-9.584,-0.66,-2.498,2.24,1.54,0.7
,-9.619,-0.684,-2.448,-9.524,-0.627,-2.462,2.1,1.61,0.63
832.0,-9.557,-0.613,-2.491,-9.598,-0.672,-2.393,3.01,1.54,0.84
,-9.581,-0.617,-2.429,-9.61,-0.67,-2.429,2.87,1.47,0.84
,-9.574,-0.692,-2.352,-9.569,-0.646,-2.386,2.66,1.33,0.63
,-9.591,-0.687,-2.431,-9.624,-0.608,-2.431,2.66,1.4,0.77
908.0,-9.593,-0.668,-2.426,-9.569,-0.639,-2.45,2.1,1.54,0.7
,-9.588,-0.68,-2.417,-9.603,-0.641,-2.419,2.17,1.54,0.77
,-9.591,-0.663,-2.474,-9.612,-0.711,-2.407,2.38,1.54,0.91
,-9.591,-0.675,-2.443,-9.634,-0.689,-2.395,2.45,1.47,0.84
984.0,-9.598,-0.723,-2.407,-9.584,-0.644,-2.395,2.66,1.33,0.84
,-9.619,-0.644,-2.395,-9.603,-0.634,-2.402,2.59,1.4,0.84
,-9.619,-0.658,-2.364,-9.584,-0.617,-2.458,2.38,1.47,0.7
,-9.56,-0.715,-2.364,-9.6,-0.668,-2.434,2.24,1.4,0.77
1060.0,-9.598,-0.622,-2.498,-9.591,-0.627,-2.45,1.96,1.47,0.7
,-9.627,-0.66,-2.493,-9.588,-0.668,-2.453,2.03,1.61,0.7
,-9.572,-0.641,-2.486,-9.636,-0.62,-2.472,2.24,1.54,0.77
,-9.593,-0.617,-2.508,-9.584,-0.625,-2.441,2.31,1.4,0.84
1135.0,-9.541,-0.615,-2.45,-9.629,-0.692,-2.453,2.8,1.12,0.63
,-9.55,-0.648,-2.422,-9.619,-0.704,-2.4,2.8,1.05,0.7
,-9.617,-0.653,-2.45,-9.56,-0.653,-2.395,2.8,1.12,0.7
,-9.615,-0.651,-2.431,-9.591,-0.641,-2.436,2.8,1.12,0.7
1211.0,-9.598,-0.651,-2.486,-9.576,-0.663,-2.417,2.66,1.19,0.77
,-9.586,-0.653,-2.462,-9.579,-0.66,-2.412,2.66,1.19,0.7
,-9.636,-0.672,-2.441,-9.552,-0.62,-2.426,2.87,1.26,0.84
,-9.564,-0.632,-2.443,-9.579,-0.651,-2.41,2.87,1.19,0.77
1287.0,-9.631,-0.696,-2.41,-9.603,-0.622,-2.391,2.45,1.12,0.63
,-9.624,-0.677,-2.379,-9.6,-0.641,-2.285,2.45,1.05,0.77
,-9.588,-0.692,-2.419,-9.631,-0.668,-2.28,2.52,1.26,0.77
,-9.598,-0.684,-2.405,-9.584,-0.648,-2.276,2.59,1.26,0.77
1363.0,-9.586,-0.706,-2.321,-9.61,-0.663,-2.448,2.17,1.68,0.77
,-9.639,-0.723,-2.307,-9.6,-0.617,-2.481,2.38,2.03,0.84
,-9.588,-0.651,-2.379,-9.608,-0.665,-2.501,2.24,2.03,0.84
,-9.541,-0.672,-2.405,-9.605,-0.653,-2.529,2.1,1.89,0.77
1439.0,-9.624,-0.67,-2.508,-9.608,-0.656,-2.453,2.17,1.75,0.84
,-9.574,-0.617,-2.525,-9.603,-0.706,-2.477,2.59,1.75,0.91
,-9.634,-0.627,-2.517,-9.588,-0.711,-2.455,2.52,1.47,0.84
,-9.591,-0.656,-2.501,-9.608,-0.696,-2.465,2.38,1.61,0.91
1514.0,-9.581,-0.668,-2.429,-9.591,-0.632,-2.391,2.38,0.91,0.7
,-9.596,-0.67,-2.436,-9.603,-0.653,-2.4,2.45,0.91,0.84
,-9.584,-0.658,-2.393,-9.631,-0.66,-2.412,2.31,0.84,0.77
,-9.598,-0.675,-2.357,-9.567,-0.68,-2.405,2.45,1.05,0.84
1590.0,-9.579,-0.687,-2.467,-9.579,-0.617,-2.443,2.66,1.12,0.91
,-9.639,-0.637,-2.467,-9.603,-0.627,-2.436,2.8,1.4,1.05
,-9.567,-0.656,-2.422,-9.615,-0.622,-2.419,2.73,1.19,0.91
,-9.576,-0.687,-2.493,-9.631,-0.61,-2.438,2.8,1.19,0.91
1665.0,-9.591,-0.677,-2.407,-9.56,-0.653,-2.364,2.73,1.12,0.84
,-9.612,-0.658,-2.429,-9.629,-0.641,-2.374,2.73,1.05,0.91
,-9.6,-0.639,-2.422,-9.619,-0.632,-2.364,2.59,0.98,0.77
,-9.622,-0.663,-2.41,-9.643,-0.68,-2.338,2.66,1.12,0.77
1741.0,-9.591,-0.675,-2.34,-9.643,-0.672,-2.402,2.31,1.4,0.77
,-9.615,-0.694,-2.347,-9.584,-0.694,-2.402,2.73,1.47,0.84
,-9.564,-0.699,-2.371,-9.603,-0.668,-2.376,2.94,1.68,0.84
,-9.66,-0.668,-2.414,-9.574,-0.637,-2.429,3.15,1.54,0.91
1817.0,-9.6,-0.629,-2.467,-9.586,-0.637,-2.431,2.45,1.68,0.84
,-9.598,-0.689,-2.472,-9.55,-0.581,-2.455,2.52,1.68,0.91
,-9.627,-0.66,-2.479,-9.55,-0.613,-2.431,2.66,1.47,0.84
,-9.576,-0.672,-2.489,-9.591,-0.648,-2.426,3.01,1.61,0.84
1893.0,-9.572,-0.718,-2.424,-9.588,-0.644,-2.321,2.31,1.4,0.63
,-9.612,-0.701,-2.391,-9.598,-0.644,-2.307,2.59,1.4,0.7
,-9.608,-0.658,-2.335,-9.627,-0.622,-2.278,2.73,1.4,0.63
,-9.598,-0.648,-2.371,-9.605,-0.689,-2.278,2.45,1.4,0.63
1968.0,-9.588,-0.672,-2.29,-9.605,-0.665,-2.477,1.96,2.1,0.7
,-9.576,-0.677,-2.355,-9.608,-0.677,-2.532,2.17,2.24,0.77
,-9.622,-0.665,-2.41,-9.619,-0.663,-2.57,1.89,2.38,0.77
,-9.586,-0.651,-2.443,-9.579,-0.637,-2.517,1.82,2.38,0.63
2044.0,-9.591,-0.617,-2.568,-9.603,-0.641,-2.513,2.24,1.89,0.77
,-9.567,-0.61,-2.57,-9.617,-0.67,-2.472,2.17,1.82,0.77
,-9.564,-0.627,-2.539,-9.6,-0.665,-2.453,2.17,1.47,0.63
,-9.55,-0.644,-2.534,-9.584,-0.67,-2.46,2.17,1.47,0.63
2120.0,-9.581,-0.732,-2.467,-9.6,-0.605,-2.424,2.45,1.05,0.56
,-9.567,-0.694,-2.436,-9.576,-0.637,-2.417,2.59,1.12,0.77
,-9.581,-0.68,-2.398,-9.617,-0.656,-2.422,2.73,1.12,0.77
,-9.557,-0.639,-2.424,-9.579,-0.699,-2.434,2.8,1.26,0.77
2196.0,-9.562,-0.704,-2.443,-9.581,-0.651,-2.431,2.8,1.19,0.91
,-9.588,-0.67,-2.422,-9.605,-0.656,-2.448,2.94,1.33,0.91
,-9.55,-0.668,-2.462,-9.572,-0.682,-2.388,2.59,1.4,0.77
,-9.598,-0.639,-2.446,-9.569,-0.663,-2.474,2.45,1.33,0.84
2271.0,-9.608,-0.665,-2.489,-9.61,-0.663,-2.431,2.45,1.4,0.84
,-9.586,-0.656,-2.496,-9.61,-0.668,-2.448,2.31,1.33,0.84
,-9.6,-0.634,-2.472,-9.608,-0.663,-2.398,2.24,1.12,0.77
,-9.562,-0.656,-2.501,-9.564,-0.622,-2.41,2.38,1.19,0.77
2347.0,-9.548,-0.684,-2.41,-9.557,-0.687,-2.386,2.66,1.12,0.91
,-9.591,-0.672,-2.398,-9.598,-0.648,-2.424,2.59,1.26,0.84
,-9.648,-0.651,-2.395,-9.608,-0.651,-2.481,2.45,0.91,0.77
,-9.627,-0.641,-2.45,-9.541,-0.689,-2.407,2.59,1.05,0.77
2423.0,-9.608,-0.627,-2.434,-9.605,-0.675,-2.4,2.38,1.19,0.84
,-9.653,-0.68,-2.438,-9.603,-0.641,-2.446,2.31,1.19,0.84
,-9.567,-0.668,-2.414,-9.608,-0.625,-2.412,2.24,1.26,0.84
,-9.538,-0.708,-2.443,-9.569,-0.682,-2.388,2.52,1.19,0.77
2498.0,-9.581,-0.66,-2.386,-9.588,-0.665,-2.34,3.01,1.19,0.77
,-9.593,-0.668,-2.369,-9.624,-0.699,-2.386,2.73,1.33,0.7
,-9.619,-0.608,-2.371,-9.617,-0.656,-2.405,2.45,1.33,0.77
,-9.634,-0.668,-2.359,-9.591,-0.694,-2.412,2.1,1.4,0.7
2574.0,-9.619,-0.665,-2.422,-9.608,-0.684,-2.496,2.38,1.54,0.77
,-9.646,-0.651,-2.493,-9.574,-0.687,-2.513,2.52,1.54,0.77
,-9.586,-0.653,-2.503,-9.581,-0.665,-2.517,2.17,1.54,0.63
,-9.564,-0.627,-2.484,-9.586,-0.663,-2.465,2.31,1.47,0.63
2650.0,-9.612,-0.67,-2.496,-9.588,-0.665,-2.343,2.59,0.84,0.77
,-9.651,-0.629,-2.431,-9.61,-0.625,-2.357,2.87,0.91,0.7
,-9.603,-0.646,-2.419,-9.61,-0.723,-2.338,2.59,0.84,0.84
,-9.557,-0.672,-2.357,-9.608,-0.692,-2.376,2.38,0.91,0.91
2726.0,-9.569,-0.672,-2.371,-9.569,-0.634,-2.414,2.94,1.12,0.84
,-9.579,-0.687,-2.4,-9.603,-0.617,-2.407,2.8,1.05,0.84
,-9.588,-0.656,-2.379,-9.581,-0.637,-2.402,2.73,1.19,0.91
,-9.576,-0.634,-2.4,-9.622,-0.625,-2.41,2.66,1.47,0.98
2801.0,-9.576,-0.668,-2.472,-9.598,-0.603,-2.436,2.1,1.19,0.77
,-9.6,-0.701,-2.417,-9.596,-0.629,-2.405,2.17,1.19,0.63
,-9.576,-0.648,-2.448,-9.615,-0.637,-2.376,2.31,1.33,0.77
,-9.6,-0.632,-2.431,-9.576,-0.67,-2.393,2.45,1.19,0.7
2877.0,-9.631,-0.675,-2.393,-9.617,-0.665,-2.412,2.03,1.33,0.56
,-9.629,-0.639,-2.414,-9.608,-0.653,-2.393,2.24,1.33,0.56
,-9.598,-0.692,-2.431,-9.612,-0.694,-2.407,2.38,1.4,0.63
,-9.588,-0.66,-2.422,-9.615,-0.684,-2.402,2.31,1.4,0.7
2953.0,-9.617,-0.665,-2.386,-9.617,-0.689,-2.417,2.73,1.68,0.77
,-9.643,-0.61,-2.395,-9.593,-0.663,-2.472,3.08,1.61,0.84
,-9.612,-0.634,-2.446,-9.619,-0.656,-2.438,2.94,1.54,0.84
,-9.574,-0.687,-2.388,-9.591,-0.641,-2.458,2.87,1.47,0.77
3029.0,-9.605,-0.644,-2.45,-9.622,-0.696,-2.419,2.73,1.33,0.7
,-9.584,-0.66,-2.441,-9.643,-0.672,-2.424,2.8,1.4,0.84
,-9.596,-0.644,-2.436,-9.593,-0.713,-2.417,3.15,1.26,0.84
,-9.55,-0.696,-2.422,-9.608,-0.694,-2.434,3.08,1.26,0.84
3104.0,-9.615,-0.651,-2.431,-9.586,-0.648,-2.355,2.45,1.05,0.77
,-9.581,-0.646,-2.352,-9.641,-0.608,-2.359,2.1,1.26,0.77
,-9.627,-0.692,-2.367,-9.605,-0.68,-2.316,1.89,1.33,0.84
,-9.6,-0.689,-2.371,-9.584,-0.651,-2.355,2.24,1.33,0.84
3180.0,-9.598,-0.672,-2.343,-9.564,-0.656,-2.4,2.38,1.75,1.05
,-9.612,-0.684,-2.328,-9.655,-0.61,-2.45,2.45,1.75,0.98
,-9.569,-0.701,-2.367,-9.624,-0.617,-2.453,2.31,1.89,1.12
,-9.603,-0.694,-2.376,-9.586,-0.61,-2.441,2.38,1.96,1.19
3256.0,-9.574,-0.641,-2.462,-9.6,-0.586,-2.458,1.54,1.75,0.84
,-9.555,-0.653,-2.45,-9.617,-0.668,-2.448,1.89,1.75,0.84
,-9.598,-0.641,-2.441,-9.591,-0.677,-2.455,2.03,1.68,0.84
,-9.643,-0.629,-2.429,-9.596,-0.67,-2.446,2.17,1.54,0.91
3331.0,-9.655,-0.672,-2.431,-9.569,-0.67,-2.479,2.1,1.4,0.84
,-9.555,-0.637,-2.446,-9.641,-0.689,-2.448,2.24,1.54,0.84
,-9.55,-0.634,-2.472,-9.567,-0.68,-2.446,2.17,1.47,0.77
,-9.6,-0.656,-2.472,-9.543,-0.668,-2.474,2.38,1.47,0.84
3407.0,-9.581,-0.629,-2.446,-9.588,-0.639,-2.405,2.87,1.33,0.98
,-9.581,-0.644,-2.448,-9.612,-0.644,-2.393,2.73,1.12,0.84
,-9.574,-0.658,-2.436,-9.596,-0.622,-2.417,2.66,1.12,0.91
,-9.564,-0.648,-2.414,-9.588,-0.651,-2.424,2.66,1.19,0.98
3483.0,-9.622,-0.629,-2.41,-9.588,-0.608,-2.333,2.17,1.26,0.84
,-9.605,-0.668,-2.335,-9.593,-0.644,-2.345,2.03,1.33,0.77
,-9.6,-0.672,-2.4,-9.605,-0.632,-2.35,2.17,1.19,0.91
,-9.636,-0.665,-2.374,-9.629,-0.629,-2.395,2.31,1.33,0.84
3559.0,-9.593,-0.646,-2.369,-9.588,-0.668,-2.422,2.24,1.33,0.77
,-9.605,-0.644,-2.4,-9.61,-0.658,-2.417,2.31,1.61,0.77
,-9.612,-0.646,-2.371,-9.581,-0.641,-2.45,2.24,1.75,0.84
,-9.627,-0.663,-2.386,-9.564,-0.601,-2.458,2.31,1.82,0.91
3634.0,-9.617,-0.598,-2.465,-9.552,-0.701,-2.496,2.45,1.54,0.84
,-9.605,-0.639,-2.462,-9.581,-0.701,-2.462,2.59,1.47,0.84
,-9.622,-0.658,-2.414,-9.617,-0.67,-2.45,2.73,1.54,0.84
,-9.617,-0.651,-2.422,-9.584,-0.668,-2.458,2.87,1.61,0.91
3710.0,-9.593,-0.577,-2.455,-9.612,-0.625,-2.333,2.17,1.26,0.7
,-9.586,-0.601,-2.422,-9.619,-0.67,-2.345,2.17,0.98,0.7
,-9.612,-0.615,-2.374,-9.615,-0.72,-2.355,2.24,0.98,0.63
,-9.608,-0.66,-2.4,-9.596,-0.665,-2.367,2.24,1.12,0.63
3786.0,-9.615,-0.665,-2.4,-9.55,-0.648,-2.405,2.38,1.4,0.77
,-9.627,-0.634,-2.412,-9.555,-0.67,-2.45,2.38,1.54,0.84
,-9.596,-0.656,-2.398,-9.598,-0.617,-2.486,2.31,1.4,0.84
,-9.581,-0.67,-2.41,-9.574,-0.639,-2.486,2.31,1.61,0.77
3862.0,-9.603,-0.68,-2.493,-9.593,-0.646,-2.429,2.59,1.33,0.77
,-9.603,-0.625,-2.443,-9.603,-0.622,-2.395,2.73,1.26,0.84
,-9.603,-0.677,-2.446,-9.598,-0.684,-2.414,2.73,1.4,0.91
,-9.605,-0.641,-2.417,-9.586,-0.68,-2.393,2.52,1.26,0.84
3937.0,-9.636,-0.68,-2.426,-9.617,-0.704,-2.407,2.45,1.12,0.98
,-9.61,-0.665,-2.443,-9.631,-0.656,-2.386,2.66,1.19,0.91
,-9.574,-0.634,-2.443,-9.641,-0.668,-2.391,2.73,1.4,0.98
,-9.584,-0.665,-2.462,-9.617,-0.644,-2.391,2.52,1.4,0.84
4013.0,-9.622,-0.682,-2.426,-9.562,-0.656,-2.386,2.52,1.26,0.84
,-9.593,-0.629,-2.417,-9.576,-0.653,-2.436,2.66,1.4,0.84
,-9.629,-0.682,-2.407,-9.646,-0.656,-2.446,2.66,1.4,0.77
,-9.622,-0.648,-2.424,-9.634,-0.648,-2.419,2.59,1.54,0.91
4089.0,-9.596,-0.577,-2.417,-9.646,-0.639,-2.412,2.66,1.61,0.84
,-9.56,-0.617,-2.388,-9.569,-0.617,-2.398,2.52,1.47,0.77
,-9.598,-0.62,-2.424,-9.6,-0.694,-2.379,2.45,1.33,0.63
,-9.631,-0.622,-2.395,-9.598,-0.67,-2.407,2.59,1.26,0.7
4164.0,-9.581,-0.615,-2.405,-9.588,-0.682,-2.446,2.52,1.33,0.7
,-9.591,-0.653,-2.431,-9.557,-0.682,-2.429,2.66,1.4,0.77
,-9.596,-0.617,-2.374,-9.631,-0.668,-2.417,2.73,1.26,0.7
,-9.596,-0.637,-2.441,-9.619,-0.639,-2.462,2.73,1.33,0.56
4240.0,-9.588,-0.608,-2.505,-9.596,-0.632,-2.407,2.87,1.19,0.63
,-9.588,-0.593,-2.441,-9.588,-0.603,-2.405,3.22,0.98,0.49
,-9.548,-0.644,-2.479,-9.61,-0.627,-2.383,3.43,1.05,0.56
,-9.612,-0.644,-2.453,-9.598,-0.67,-2.324,3.71,0.91,0.56
4316.0,-9.576,-0.665,-2.326,-9.622,-0.651,-2.326,2.45,0.7,0.21
,-9.569,-0.692,-2.316,-9.593,-0.677,-2.304,2.45,0.84,0.28
,-9.598,-0.646,-2.357,-9.624,-0.668,-2.333,2.87,1.12,0.56
,-9.629,-0.644,-2.328,-9.579,-0.713,-2.379,2.8,1.12,0.49
4392.0,-9.564,-0.704,-2.455,-9.584,-0.694,-2.429,2.52,1.4,0.49
,-9.569,-0.675,-2.481,-9.572,-0.689,-2.453,2.59,1.33,0.49
,-9.624,-0.67,-2.503,-9.605,-0.68,-2.436,2.52,1.26,0.56
,-9.627,-0.696,-2.45,-9.612,-0.653,-2.422,2.59,1.33,0.56
4467.0,-9.619,-0.605,-2.405,-9.627,-0.72,-2.367,2.73,1.19,0.63
,-9.605,-0.672,-2.374,-9.584,-0.701,-2.371,2.52,1.12,0.56
,-9.581,-0.687,-2.407,-9.588,-0.672,-2.4,2.45,1.26,0.42
,-9.615,-0.778,-2.331,-9.569,-0.663,-2.367,2.66,1.19,0.56
4543.0,-9.631,-0.658,-2.374,-9.61,-0.632,-2.407,2.66,1.47,0.7
,-9.617,-0.66,-2.379,-9.591,-0.62,-2.477,2.66,1.4,0.7
,-9.624,-0.701,-2.388,-9.579,-0.677,-2.448,2.73,1.54,0.63
,-9.576,-0.648,-2.371,-9.603,-0.682,-2.467,2.87,1.61,0.7
4619.0,-9.622,-0.67,-2.465,-9.591,-0.692,-2.388,3.08,1.12,0.7
,-9.581,-0.665,-2.462,-9.576,-0.713,-2.352,3.08,0.98,0.56
,-9.586,-0.648,-2.424,-9.612,-0.742,-2.381,2.94,0.98,0.56
,-9.588,-0.706,-2.364,-9.629,-0.66,-2.395,2.94,0.91,0.63
4695.0,-9.593,-0.727,-2.333,-9.598,-0.706,-2.328,3.01,1.05,0.77
,-9.591,-0.704,-2.362,-9.555,-0.744,-2.345,3.01,1.26,0.84
,-9.634,-0.689,-2.355,-9.584,-0.713,-2.376,2.94,1.26,0.84
,-9.634,-0.704,-2.345,-9.584,-0.663,-2.4,2.94,1.12,0.77
4770.0,-9.6,-0.689,-2.436,-9.598,-0.723,-2.393,3.01,1.33,0.98
,-9.619,-0.689,-2.412,-9.598,-0.653,-2.367,2.87,1.19,0.84
,-9.574,-0.651,-2.391,-9.603,-0.711,-2.434,3.08,1.33,0.91
,-9.631,-0.639,-2.4,-9.593,-0.687,-2.419,3.01,1.33,0.84
4846.0,-9.555,-0.708,-2.486,-9.598,-0.66,-2.465,1.89,1.19,0.7
,-9.56,-0.715,-2.441,-9.627,-0.682,-2.429,2.1,1.05,0.7
,-9.533,-0.625,-2.424,-9.581,-0.747,-2.407,2.52,0.98,0.7
,-9.562,-0.598,-2.448,-9.598,-0.68,-2.381,2.73,0.91,0.77
4922.0,-9.574,-0.694,-2.381,-9.622,-0.692,-2.28,2.45,0.42,0.56
,-9.629,-0.675,-2.314,-9.572,-0.67,-2.28,2.38,0.7,0.7
,-9.679,-0.708,-2.29,-9.615,-0.608,-2.295,2.52,0.91,0.77
,-9.663,-0.66,-2.292,-9.548,-0.692,-2.333,2.52,0.98,0.7
4998.0,-9.593,-0.692,-2.357,-9.608,-0.675,-2.522,2.38,1.4,0.63
,-9.6,-0.641,-2.412,-9.567,-0.656,-2.501,2.38,1.61,0.77
,-9.569,-0.737,-2.405,-9.562,-0.708,-2.52,2.59,1.4,0.84
,-9.567,-0.711,-2.474,-9.576,-0.67,-2.465,3.01,1.47,0.98
5074.0,-9.619,-0.675,-2.467,-9.567,-0.689,-2.328,2.52,0.98,0.77
,-9.6,-0.637,-2.395,-9.586,-0.696,-2.331,2.45,0.63,0.49
,-9.627,-0.68,-2.357,-9.584,-0.706,-2.302,2.31,0.7,0.56
,-9.586,-0.689,-2.35,-9.574,-0.692,-2.338,2.52,0.77,0.7
5149.0,-9.629,-0.711,-2.319,-9.61,-0.687,-2.364,2.66,1.19,0.7
,-9.619,-0.689,-2.35,-9.648,-0.66,-2.388,2.66,1.26,0.63
,-9.651,-0.73,-2.369,-9.608,-0.699,-2.402,2.45,1.26,0.7
,-9.603,-0.689,-2.352,-9.572,-0.68,-2.414,2.52,1.4,0.63
5225.0,-9.569,-0.694,-2.405,-9.593,-0.67,-2.328,3.01,1.26,0.7
,-9.629,-0.699,-2.402,-9.615,-0.696,-2.398,3.08,1.26,0.7
,-9.619,-0.725,-2.398,-9.603,-0.689,-2.362,3.08,1.05,0.7
,-9.576,-0.637,-2.352,-9.624,-0.735,-2.343,2.94,1.05,0.7
5300.0,-9.643,-0.706,-2.304,-9.567,-0.66,-2.316,2.52,1.4,0.77
,-9.682,-0.677,-2.335,-9.576,-0.68,-2.312,2.66,1.4,0.77
,-9.591,-0.641,-2.319,-9.608,-0.704,-2.381,2.59,1.68,0.77
,-9.562,-0.723,-2.316,-9.694,-0.682,-2.328,2.38,1.82,0.77
5376.0,-9.584,-0.72,-2.34,-9.627,-0.744,-2.405,2.38,1.89,0.84
,-9.612,-0.715,-2.312,-9.593,-0.692,-2.417,2.38,1.89,0.84
,-9.651,-0.648,-2.347,-9.596,-0.72,-2.443,2.31,1.96,0.98
,-9.619,-0.632,-2.364,-9.622,-0.644,-2.446,2.1,1.89,0.77
5452.0,-9.567,-0.672,-2.383,-9.576,-0.706,-2.4,2.73,1.82,0.7
,-9.552,-0.687,-2.407,-9.629,-0.699,-2.398,2.94,1.75,0.77
,-9.574,-0.646,-2.46,-9.612,-0.684,-2.376,3.01,1.82,0.77
,-9.552,-0.694,-2.405,-9.608,-0.689,-2.4,2.8,1.75,0.7
5528.0,-9.639,-0.699,-2.405,-9.574,-0.672,-2.407,2.45,1.68,0.84
,-9.622,-0.692,-2.414,-9.605,-0.67,-2.414,2.45,1.61,0.84
,-9.622,-0.706,-2.352,-9.591,-0.694,-2.383,2.66,1.54,0.84
,-9.658,-0.684,-2.386,-9.584,-0.694,-2.414,2.73,1.61,0.84
5603.0,-9.612,-0.677,-2.424,-9.619,-0.687,-2.431,2.38,1.33,0.7
,-9.619,-0.629,-2.419,-9.603,-0.632,-2.441,2.31,1.47,0.7
,-9.509,-0.699,-2.441,-9.605,-0.672,-2.398,2.1,1.54,0.77
,-9.574,-0.682,-2.448,-9.634,-0.696,-2.438,2.1,1.4,0.77
5679.0,-9.603,-0.751,-2.4,-9.6,-0.715,-2.386,2.1,1.12,0.63
,-9.586,-0.749,-2.376,-9.605,-0.718,-2.307,2.59,1.12,0.77
,-9.608,-0.692,-2.374,-9.627,-0.72,-2.345,2.8,1.05,0.91
,-9.631,-0.692,-2.343,-9.605,-0.641,-2.371,2.73,1.12,0.91
5755.0,-9.622,-0.67,-2.335,-9.548,-0.672,-2.381,2.66,1.4,0.91
,-9.588,-0.704,-2.35,-9.641,-0.689,-2.388,2.66,1.33,0.98
,-9.567,-0.692,-2.376,-9.591,-0.715,-2.4,2.73,1.47,0.98
,-9.605,-0.651,-2.369,-9.562,-0.658,-2.383,2.73,1.54,0.91
5831.0,-9.627,-0.708,-2.41,-9.66,-0.651,-2.393,2.59,1.4,0.84
,-9.631,-0.68,-2.414,-9.622,-0.646,-2.4,2.66,1.4,0.91
,-9.6,-0.656,-2.376,-9.588,-0.706,-2.359,2.8,1.26,0.91
,-9.564,-0.639,-2.4,-9.641,-0.713,-2.35,2.8,1.4,0.91
5907.0,-9.634,-0.692,-2.369,-9.617,-0.67,-2.386,2.1,1.33,0.77
,-9.588,-0.725,-2.355,-9.627,-0.656,-2.398,2.24,1.4,0.77
,-9.579,-0.689,-2.395,-9.541,-0.706,-2.376,2.17,1.12,0.77
,-9.617,-0.644,-2.367,-9.567,-0.72,-2.395,2.1,1.19,0.77
5982.0,-9.667,-0.771,-2.412,-9.667,-0.684,-2.331,2.38,1.4,0.84
,-9.584,-0.672,-2.448,-9.548,-0.684,-2.388,2.45,1.26,0.77
,-9.634,-0.632,-2.429,-9.574,-0.658,-2.359,2.59,1.33,0.84
,-9.627,-0.675,-2.376,-9.6,-0.608,-2.371,2.59,1.4,0.84
6058.0,-9.641,-0.67,-2.402,-9.6,-0.637,-2.328,2.87,1.33,0.84
,-9.61,-0.692,-2.326,-9.612,-0.67,-2.41,2.8,1.19,0.7
,-9.615,-0.692,-2.357,-9.588,-0.689,-2.395,2.87,1.4,0.77
,-9.586,-0.653,-2.34,-9.627,-0.694,-2.367,2.94,1.54,0.84
6133.0,-9.658,-0.699,-2.376,-9.593,-0.675,-2.417,2.24,1.47,0.7
,-9.651,-0.677,-2.379,-9.567,-0.687,-2.391,2.52,1.54,0.77
,-9.627,-0.706,-2.381,-9.593,-0.692,-2.412,2.45,1.47,0.77
,-9.598,-0.687,-2.386,-9.61,-0.634,-2.438,2.59,1.33,0.7
6209.0,-9.672,-0.68,-2.434,-9.641,-0.699,-2.316,2.45,1.33,0.7
,-9.562,-0.687,-2.383,-9.615,-0.708,-2.367,2.38,1.26,0.77
,-9.608,-0.682,-2.343,-9.593,-0.727,-2.343,2.45,1.33,0.77
,-9.598,-0.687,-2.364,-9.615,-0.665,-2.359,2.45,1.12,0.7
6285.0,-9.605,-0.713,-2.367,-9.624,-0.672,-2.405,2.87,1.47,0.77
,-9.6,-0.704,-2.381,-9.586,-0.677,-2.362,2.87,1.33,0.7
,-9.608,-0.704,-2.381,-9.615,-0.704,-2.388,2.8,1.54,0.77
,-9.593,-0.694,-2.412,-9.617,-0.711,-2.367,2.94,1.61,0.84
6361.0,-9.646,-0.711,-2.398,-9.622,-0.706,-2.345,3.22,1.47,0.98
,-9.608,-0.692,-2.424,-9.624,-0.694,-2.34,3.29,1.4,0.98
,-9.646,-0.684,-2.376,-9.591,-0.706,-2.338,3.15,1.4,0.91
,-9.627,-0.732,-2.386,-9.596,-0.68,-2.374,2.94,1.47,1.05
6436.0,-9.555,-0.658,-2.393,-9.603,-0.749,-2.386,2.8,1.26,0.98
,-9.608,-0.663,-2.383,-9.615,-0.68,-2.393,2.8,1.4,0.98
,-9.641,-0.689,-2.359,-9.617,-0.701,-2.429,2.59,1.4,0.98
,-9.619,-0.696,-2.402,-9.619,-0.718,-2.369,2.45,1.33,0.91
6512.0,-9.588,-0.704,-2.335,-9.636,-0.694,-2.383,1.96,1.47,0.91
,-9.576,-0.694,-2.371,-9.615,-0.713,-2.376,2.03,1.33,0.91
,-9.624,-0.677,-2.367,-9.598,-0.684,-2.491,1.96,1.33,1.05
,-9.603,-0.73,-2.386,-9.581,-0.668,-2.465,2.03,1.4,1.19
6587.0,-9.538,-0.644,-2.479,-9.612,-0.627,-2.381,2.1,1.05,0.98
,-9.615,-0.687,-2.479,-9.619,-0.581,-2.395,2.17,1.05,1.05
,-9.591,-0.682,-2.429,-9.612,-0.617,-2.395,2.59,0.98,1.05
,-9.605,-0.706,-2.426,-9.581,-0.663,-2.383,3.15,0.98,1.12
6663.0,-9.6,-0.701,-2.362,-9.636,-0.68,-2.295,2.59,0.77,0.77
,-9.579,-0.67,-2.34,-9.622,-0.699,-2.333,3.01,0.7,0.84
,-9.605,-0.656,-2.297,-9.631,-0.715,-2.297,3.08,0.91,0.91
,-9.641,-0.651,-2.338,-9.631,-0.617,-2.316,3.08,0.7,0.84
6739.0,-9.617,-0.617,-2.288,-9.615,-0.72,-2.379,2.87,1.26,0.91
,-9.555,-0.68,-2.321,-9.545,-0.68,-2.245,2.66,1.19,0.91
,-9.617,-0.711,-2.333,-9.622,-0.689,-2.328,2.73,1.33,1.05
,-9.61,-0.768,-2.331,-9.596,-0.742,-2.316,2.66,1.47,0.98
6815.0,-9.574,-0.804,-2.192,-9.646,-0.699,-2.446,2.52,1.89,1.33
,-9.631,-0.668,-2.134,-9.61,-0.495,-2.515,3.01,1.96,1.33
,-9.593,-0.684,-2.362,-9.672,-0.625,-2.714,2.8,1.96,1.26
,-9.619,-0.668,-2.407,-9.598,-0.457,-2.541,2.87,1.96,1.33
6891.0,-9.6,-0.589,-2.431,-9.624,-0.692,-2.386,0.84,1.33,0.56
,-9.584,-0.672,-2.343,-9.629,-0.617,-2.383,0.42,1.19,0.42
,-9.6,-0.653,-2.324,-9.651,-0.603,-2.333,0.7,1.26,0.28
,-9.581,-0.689,-2.391,-9.6,-0.653,-2.314,1.05,1.12,0.28
6966.0,-9.598,-0.718,-2.326,-9.646,-0.625,-2.345,1.33,1.4,0.35
,-9.572,-0.823,-2.297,-9.61,-0.668,-2.285,1.61,1.61,0.42
,-9.619,-0.737,-2.328,-9.564,-0.715,-2.304,2.17,1.47,0.49
,-9.655,-0.68,-2.321,-9.665,-0.701,-2.328,2.38,1.61,0.49
7042.0,-9.598,-0.639,-2.367,-9.622,-0.739,-2.458,2.87,2.24,0.7
,-9.596,-0.665,-2.391,-9.605,-0.672,-2.402,2.87,2.03,0.63
,-9.605,-0.718,-2.462,-9.615,-0.665,-2.484,3.08,1.89,0.63
,-9.581,-0.723,-2.45,-9.598,-0.749,-2.424,3.43,2.03,0.77
7118.0,-9.574,-0.715,-2.414,-9.612,-0.684,-2.309,3.92,1.75,0.84
,-9.615,-0.692,-2.458,-9.619,-0.66,-2.335,4.06,1.61,0.77
,-9.615,-0.711,-2.448,-9.627,-0.668,-2.314,3.85,1.4,0.98
,-9.598,-0.67,-2.357,-9.605,-0.706,-2.3,3.85,1.68,0.98
7194.0,-9.617,-0.696,-2.362,-9.624,-0.692,-2.316,2.8,1.75,0.77
,-9.636,-0.751,-2.324,-9.555,-0.677,-2.355,2.94,1.89,0.84
,-9.579,-0.689,-2.307,-9.588,-0.67,-2.391,2.94,2.1,0.91
,-9.617,-0.67,-2.307,-9.6,-0.737,-2.405,3.08,2.17,0.84
7269.0,-9.593,-0.675,-2.41,-9.619,-0.701,-2.364,1.4,2.24,0.84
,-9.6,-0.684,-2.424,-9.631,-0.696,-2.367,1.33,2.17,0.91
,-9.619,-0.672,-2.393,-9.615,-0.699,-2.357,1.4,2.17,0.91
,-9.629,-0.644,-2.391,-9.588,-0.704,-2.352,1.26,2.1,0.84
7345.0,-9.619,-0.735,-2.381,-9.596,-0.653,-2.443,1.96,2.31,1.05
,-9.584,-0.694,-2.405,-9.598,-0.689,-2.496,2.03,2.38,1.12
,-9.608,-0.656,-2.398,-9.615,-0.737,-2.472,1.82,2.17,0.98
,-9.634,-0.646,-2.465,-9.579,-0.696,-2.508,1.75,2.24,0.91
7420.0,-9.61,-0.72,-2.496,-9.569,-0.689,-2.472,2.38,1.89,0.98
,-9.612,-0.715,-2.513,-9.591,-0.797,-2.465,2.66,1.96,1.05
,-9.591,-0.689,-2.486,-9.6,-0.771,-2.455,3.08,1.96,0.98
,-9.593,-0.641,-2.465,-9.622,-0.687,-2.46,3.22,1.75,0.98
7496.0,-9.593,-0.713,-2.414,-9.572,-0.603,-2.448,4.34,1.47,1.26
,-9.586,-0.665,-2.465,-9.567,-0.639,-2.426,4.13,1.54,1.26
,-9.579,-0.653,-2.467,-9.557,-0.684,-2.469,3.92,1.47,1.19
,-9.581,-0.641,-2.479,-9.579,-0.742,-2.443,3.71,1.47,1.19
7572.0,-9.584,-0.663,-2.448,-9.579,-0.715,-2.347,3.15,1.4,1.26
,-9.608,-0.639,-2.395,-9.584,-0.672,-2.333,2.73,1.05,1.12
,-9.617,-0.625,-2.343,-9.612,-0.625,-2.338,2.1,1.19,0.98
,-9.572,-0.656,-2.364,-9.612,-0.646,-2.364,1.33,1.26,0.84
7648.0,-9.6,-0.653,-2.388,-9.574,-0.68,-2.465,1.12,1.47,0.77
,-9.593,-0.648,-2.424,-9.61,-0.699,-2.422,1.33,1.54,0.84
,-9.596,-0.704,-2.395,-9.631,-0.646,-2.51,1.26,1.54,0.77
,-9.61,-0.701,-2.417,-9.629,-0.613,-2.446,1.54,1.47,0.84
7724.0,-9.572,-0.648,-2.455,-9.562,-0.672,-2.469,2.03,1.26,0.77
,-9.572,-0.692,-2.489,-9.588,-0.629,-2.41,2.24,1.19,0.7
,-9.605,-0.708,-2.465,-9.627,-0.648,-2.364,2.52,1.19,0.84
,-9.624,-0.644,-2.441,-9.6,-0.701,-2.4,2.8,1.12,0.84
7799.0,-9.617,-0.66,-2.41,-9.581,-0.658,-2.393,2.38,1.12,0.7
,-9.586,-0.658,-2.414,-9.576,-0.68,-2.441,2.45,1.26,0.7
,-9.634,-0.687,-2.386,-9.591,-0.684,-2.431,2.45,1.26,0.77
,-9.603,-0.668,-2.417,-9.615,-0.632,-2.426,2.59,1.19,0.56
7875.0,-9.608,-0.665,-2.436,-9.61,-0.723,-2.405,2.38,1.12,0.49
,-9.636,-0.648,-2.477,-9.61,-0.723,-2.352,2.24,1.05,0.42
,-9.576,-0.687,-2.424,-9.648,-0.67,-2.324,2.17,1.05,0.49
,-9.596,-0.699,-2.431,-9.627,-0.641,-2.338,2.45,1.19,0.49
7951.0,-9.641,-0.682,-2.307,-9.655,-0.656,-2.46,2.24,1.33,0.49
,-9.581,-0.665,-2.328,-9.6,-0.692,-2.441,2.17,1.68,0.56
,-9.576,-0.708,-2.314,-9.605,-0.658,-2.484,2.31,1.68,0.63
,-9.617,-0.658,-2.357,-9.61,-0.648,-2.46,2.73,1.89,0.7
8027.0,-9.543,-0.648,-2.484,-9.622,-0.759,-2.345,3.08,1.68,0.56
,-9.6,-0.689,-2.441,-9.588,-0.644,-2.405,3.01,1.4,0.42
,-9.562,-0.665,-2.324,-9.581,-0.617,-2.443,2.87,1.47,0.49
,-9.545,-0.785,-2.257,-9.593,-0.627,-2.431,2.24,1.4,0.49
8102.0,-9.619,-0.699,-2.41,-9.61,-0.723,-2.441,2.73,1.26,0.49
,-9.617,-0.742,-2.436,-9.596,-0.718,-2.446,2.73,1.4,0.56
,-9.569,-0.725,-2.472,-9.617,-0.696,-2.441,2.94,1.4,0.56
,-9.61,-0.701,-2.412,-9.588,-0.692,-2.422,2.87,1.26,0.49
8178.0,-9.665,-0.658,-2.462,-9.581,-0.727,-2.429,2.87,1.12,0.49
,-9.576,-0.682,-2.429,-9.586,-0.737,-2.443,2.94,1.12,0.56
,-9.615,-0.646,-2.46,-9.608,-0.732,-2.443,2.94,0.98,0.49
,-9.615,-0.687,-2.46,-9.615,-0.687,-2.443,3.01,0.98,0.63
8253.0,-9.615,-0.66,-2.446,-9.593,-0.735,-2.362,3.64,1.05,0.7
,-9.548,-0.677,-2.431,-9.605,-0.761,-2.383,3.29,0.84,0.63
,-9.603,-0.701,-2.419,-9.593,-0.696,-2.388,3.08,0.63,0.63
,-9.643,-0.715,-2.402,-9.627,-0.658,-2.324,3.15,0.63,0.56
8329.0,-9.608,-0.605,-2.197,-9.612,-0.646,-2.407,3.64,0.77,0.7
,-9.562,-0.785,-2.228,-9.617,-0.696,-2.379,2.24,0.77,0.63
,-9.572,-0.799,-2.359,-9.622,-0.732,-2.357,2.8,0.7,0.49
,-9.579,-0.73,-2.376,-9.631,-0.725,-2.357,3.71,0.63,0.56
8405.0,-9.603,-0.706,-2.357,-9.617,-0.735,-2.369,3.22,0.84,0.7
,-9.603,-0.713,-2.371,-9.567,-0.737,-2.398,3.01,0.7,0.63
,-9.572,-0.715,-2.376,-9.572,-0.715,-2.381,2.8,0.7,0.56
,-9.641,-0.715,-2.383,-9.564,-0.67,-2.393,2.8,0.77,0.63
8481.0,-9.605,-0.668,-2.367,-9.636,-0.73,-2.283,3.92,1.05,0.77
,-9.56,-0.715,-2.343,-9.552,-0.739,-2.28,3.5,0.77,0.7
,-9.598,-0.694,-2.34,-9.61,-0.73,-2.283,3.36,0.7,0.63
,-9.629,-0.704,-2.331,-9.655,-0.708,-2.29,3.15,0.77,0.49
8557.0,-9.677,-0.668,-2.283,-9.588,-0.696,-2.362,2.73,1.12,0.56
,-9.61,-0.672,-2.242,-9.622,-0.763,-2.338,2.45,1.26,0.56
,-9.588,-0.706,-2.28,-9.629,-0.749,-2.345,2.24,1.47,0.49
,-9.598,-0.72,-2.405,-9.6,-0.708,-2.379,2.31,1.47,0.56
8632.0,-9.572,-0.701,-2.359,-9.636,-0.747,-2.379,2.8,1.75,0.63
,-9.605,-0.711,-2.345,-9.617,-0.768,-2.402,2.87,1.75,0.56
,-9.572,-0.672,-2.379,-9.596,-0.754,-2.441,2.8,1.68,0.42
,-9.596,-0.73,-2.369,-9.619,-0.682,-2.35,2.66,1.82,0.56
8708.0,-9.6,-0.67,-2.41,-9.624,-0.742,-2.393,2.73,1.75,0.63
,-9.634,-0.704,-2.379,-9.622,-0.756,-2.345,2.31,1.54,0.56
,-9.646,-0.744,-2.388,-9.612,-0.768,-2.386,2.24,1.47,0.56
,-9.653,-0.732,-2.381,-9.579,-0.751,-2.41,2.24,1.61,0.63
8784.0,-9.617,-0.763,-2.359,-9.617,-0.725,-2.393,2.31,1.54,0.7
,-9.579,-0.778,-2.431,-9.598,-0.732,-2.417,2.38,1.47,0.7
,-9.617,-0.715,-2.407,-9.588,-0.751,-2.364,2.45,1.33,0.7
,-9.6,-0.718,-2.429,-9.617,-0.732,-2.367,2.03,1.19,0.7
8860.0,-9.622,-0.706,-2.374,-9.61,-0.778,-2.335,3.08,1.33,0.91
,-9.605,-0.744,-2.393,-9.591,-0.742,-2.374,3.08,1.4,0.91
,-9.603,-0.732,-2.402,-9.608,-0.706,-2.297,2.8,1.26,0.77
,-9.593,-0.744,-2.355,-9.624,-0.675,-2.307,2.59,1.19,0.7
8935.0,-9.586,-0.706,-2.314,-9.615,-0.749,-2.371,2.59,1.47,0.84
,-9.598,-0.744,-2.309,-9.579,-0.778,-2.379,2.52,1.75,0.91
,-9.622,-0.766,-2.312,-9.591,-0.713,-2.424,2.59,1.75,0.98
,-9.588,-0.785,-2.355,-9.622,-0.713,-2.424,2.66,1.82,0.98
9011.0,-9.567,-0.713,-2.407,-9.593,-0.689,-2.441,2.1,1.61,1.05
,-9.564,-0.725,-2.386,-9.564,-0.701,-2.412,2.17,1.75,0.91
,-9.617,-0.687,-2.362,-9.586,-0.72,-2.386,2.31,1.68,0.98
,-9.629,-0.675,-2.412,-9.574,-0.742,-2.381,2.17,1.54,0.98
9086.0,-9.574,-0.735,-2.391,-9.574,-0.668,-2.469,2.52,1.19,0.77
,-9.593,-0.704,-2.391,-9.641,-0.665,-2.455,2.66,1.26,0.84
,-9.605,-0.653,-2.345,-9.569,-0.653,-2.367,2.52,1.12,0.7
,-9.663,-0.715,-2.51,-9.598,-0.699,-2.3,2.66,1.19,0.7
9162.0,-9.572,-0.739,-2.273,-9.584,-0.713,-2.285,2.52,1.54,0.84
,-9.591,-0.775,-2.266,-9.619,-0.687,-2.285,2.66,1.68,0.77
,-9.588,-0.78,-2.295,-9.612,-0.694,-2.302,2.94,1.54,0.91
,-9.648,-0.701,-2.29,-9.619,-0.682,-2.316,3.15,1.68,0.84
9238.0,-9.608,-0.622,-2.228,-9.634,-0.651,-2.534,2.87,2.38,0.7
,-9.572,-0.634,-2.051,-9.627,-0.672,-2.515,2.03,2.52,0.42
,-9.665,-0.895,-2.469,-9.586,-0.73,-2.45,2.59,2.38,0.49
,-9.596,-0.668,-2.541,-9.624,-0.737,-2.493,3.99,2.38,0.7
9314.0,-9.624,-0.763,-2.434,-9.615,-0.696,-2.426,2.73,1.82,0.7
,-9.598,-0.759,-2.443,-9.636,-0.715,-2.381,3.08,1.75,0.63
,-9.574,-0.744,-2.41,-9.612,-0.761,-2.371,3.08,1.68,0.63
,-9.574,-0.754,-2.424,-9.631,-0.751,-2.35,2.94,1.47,0.56
9390.0,-9.619,-0.718,-2.4,-9.574,-0.797,-2.438,2.31,1.61,0.56
,-9.555,-0.718,-2.386,-9.612,-0.759,-2.417,2.24,1.75,0.63
,-9.634,-0.706,-2.359,-9.581,-0.73,-2.391,2.17,1.75,0.7
,-9.574,-0.763,-2.402,-9.555,-0.739,-2.41,2.17,1.54,0.63
9465.0,-9.61,-0.761,-2.407,-9.641,-0.766,-2.462,1.96,1.47,0.7
,-9.588,-0.754,-2.405,-9.612,-0.682,-2.489,2.17,1.61,0.84
,-9.586,-0.763,-2.407,-9.639,-0.718,-2.527,2.45,1.54,0.77
,-9.627,-0.763,-2.45,-9.615,-0.73,-2.479,2.45,1.54,0.84
9541.0,-9.591,-0.749,-2.446,-9.61,-0.742,-2.364,2.38,1.05,0.7
,-9.603,-0.706,-2.436,-9.596,-0.72,-2.34,2.66,0.91,0.77
,-9.579,-0.704,-2.426,-9.591,-0.778,-2.383,2.59,0.77,0.7
,-9.584,-0.699,-2.419,-9.605,-0.735,-2.359,2.45,0.7,0.63
9617.0,-9.603,-0.668,-2.312,-9.593,-0.799,-2.359,2.59,1.05,0.7
,-9.564,-0.742,-2.333,-9.596,-0.756,-2.316,2.24,1.05,0.7
,-9.612,-0.782,-2.316,-9.612,-0.718,-2.35,2.1,1.33,0.77
,-9.617,-0.771,-2.333,-9.641,-0.794,-2.307,2.1,1.33,0.7
9693.0,-9.579,-0.692,-2.407,-9.608,-0.715,-2.45,2.73,1.4,0.84
,-9.6,-0.73,-2.45,-9.61,-0.708,-2.426,2.66,1.54,0.77
,-9.586,-0.723,-2.41,-9.596,-0.648,-2.448,2.59,1.75,0.84
,-9.596,-0.744,-2.424,-9.579,-0.682,-2.405,2.66,1.54,0.91
9768.0,-9.584,-0.682,-2.436,-9.615,-0.732,-2.304,1.89,1.05,0.49
,-9.584,-0.742,-2.386,-9.636,-0.73,-2.304,2.03,1.19,0.56
,-9.605,-0.699,-2.383,-9.608,-0.771,-2.312,2.24,1.12,0.63
,-9.581,-0.715,-2.374,-9.629,-0.792,-2.328,2.31,1.19,0.7
