Timestamp,AccX,AccY,AccZ,GyroX,GyroY,GyroZ,MagnX,MagnY,MagnZ
0.0,-9.342,-0.421,-3.443,-9.308,-0.452,-3.326,2.52,1.05,0.56
,-9.27,-0.505,-3.4,-9.328,-0.4,-3.326,2.52,1.12,0.56
,-9.308,-0.493,-3.427,-9.299,-0.402,-3.326,2.73,1.12,0.49
,-9.344,-0.483,-3.367,-9.308,-0.392,-3.348,3.22,1.19,0.63
75.0,-9.34,-0.536,-3.436,-9.359,-0.431,-3.364,2.31,1.26,0.56
,-9.301,-0.51,-3.393,-9.323,-0.459,-3.352,2.66,1.19,0.49
,-9.268,-0.507,-3.388,-9.277,-0.404,-3.391,3.01,1.4,0.7
,-9.32,-0.44,-3.369,-9.306,-0.474,-3.465,3.15,1.4,0.7
150.0,-9.275,-0.479,-3.415,-9.34,-0.445,-3.367,2.31,1.33,0.63
,-9.304,-0.483,-3.431,-9.323,-0.462,-3.345,2.52,1.19,0.63
,-9.292,-0.419,-3.475,-9.32,-0.462,-3.319,2.87,1.26,0.7
,-9.318,-0.414,-3.381,-9.306,-0.471,-3.403,2.87,1.26,0.63
226.0,-9.378,-0.491,-3.369,-9.32,-0.4,-3.352,2.66,1.4,0.56
,-9.277,-0.476,-3.336,-9.289,-0.455,-3.34,2.8,1.26,0.63
,-9.292,-0.45,-3.398,-9.328,-0.488,-3.367,2.8,1.33,0.63
,-9.316,-0.416,-3.364,-9.296,-0.476,-3.343,2.87,1.4,0.63
302.0,-9.304,-0.481,-3.36,-9.316,-0.452,-3.357,2.73,1.54,0.63
,-9.308,-0.467,-3.369,-9.311,-0.433,-3.4,2.8,1.61,0.56
,-9.316,-0.459,-3.369,-9.296,-0.474,-3.422,2.73,1.47,0.56
,-9.335,-0.455,-3.384,-9.299,-0.447,-3.388,2.66,1.68,0.63
378.0,-9.306,-0.495,-3.434,-9.325,-0.45,-3.408,2.87,1.4,0.49
,-9.306,-0.452,-3.477,-9.306,-0.467,-3.429,2.94,1.26,0.56
,-9.284,-0.457,-3.391,-9.33,-0.505,-3.422,2.87,1.33,0.49
,-9.34,-0.383,-3.4,-9.294,-0.483,-3.369,2.8,1.26,0.49
453.0,-9.27,-0.514,-3.352,-9.337,-0.462,-3.35,2.94,1.26,0.56
,-9.304,-0.522,-3.355,-9.316,-0.5,-3.434,2.87,1.33,0.7
,-9.316,-0.471,-3.355,-9.318,-0.447,-3.41,2.94,1.12,0.63
,-9.28,-0.481,-3.374,-9.306,-0.443,-3.369,2.94,1.19,0.56
529.0,-9.32,-0.469,-3.362,-9.275,-0.488,-3.386,3.08,1.26,0.63
,-9.349,-0.505,-3.333,-9.294,-0.486,-3.386,3.15,1.26,0.63
,-9.378,-0.455,-3.297,-9.308,-0.486,-3.34,2.94,1.4,0.7
,-9.342,-0.467,-3.324,-9.351,-0.464,-3.331,2.8,1.47,0.63
604.0,-9.318,-0.457,-3.312,-9.311,-0.514,-3.352,2.8,1.26,0.56
,-9.383,-0.45,-3.357,-9.34,-0.469,-3.35,2.73,1.4,0.49
,-9.301,-0.491,-3.333,-9.332,-0.414,-3.352,2.59,1.54,0.56
,-9.308,-0.495,-3.305,-9.328,-0.495,-3.384,2.73,1.54,0.56
680.0,-9.313,-0.481,-3.446,-9.318,-0.464,-3.369,2.73,1.19,0.56
,-9.294,-0.491,-3.448,-9.335,-0.452,-3.364,2.87,1.4,0.56
,-9.313,-0.493,-3.446,-9.328,-0.471,-3.317,3.08,1.33,0.63
,-9.299,-0.476,-3.386,-9.323,-0.486,-3.331,3.36,1.47,0.7
756.0,-9.306,-0.512,-3.35,-9.33,-0.483,-3.398,2.94,1.4,0.7
,-9.351,-0.462,-3.4,-9.313,-0.469,-3.326,2.94,1.33,0.56
,-9.328,-0.474,-3.396,-9.349,-0.467,-3.333,2.73,1.4,0.56
,-9.335,-0.541,-3.403,-9.361,-0.498,-3.34,2.73,1.33,0.56
832.0,-9.328,-0.522,-3.293,-9.299,-0.534,-3.403,2.59,1.19,0.56
,-9.32,-0.443,-3.4,-9.325,-0.543,-3.403,2.8,1.12,0.49
,-9.347,-0.436,-3.408,-9.313,-0.464,-3.309,2.94,1.12,0.56
,-9.33,-0.44,-3.391,-9.347,-0.443,-3.3,2.8,1.19,0.63
908.0,-9.332,-0.455,-3.264,-9.304,-0.538,-3.333,2.94,1.26,0.63
,-9.335,-0.507,-3.314,-9.332,-0.479,-3.321,2.8,1.33,0.7
,-9.337,-0.519,-3.288,-9.304,-0.459,-3.374,2.73,1.33,0.7
,-9.306,-0.512,-3.309,-9.311,-0.426,-3.355,2.8,1.26,0.7
983.0,-9.34,-0.491,-3.34,-9.328,-0.486,-3.329,2.59,1.4,0.56
,-9.313,-0.526,-3.364,-9.28,-0.471,-3.288,2.8,1.4,0.56
,-9.308,-0.524,-3.376,-9.33,-0.524,-3.324,3.01,1.26,0.63
,-9.294,-0.507,-3.384,-9.351,-0.491,-3.302,3.15,1.26,0.7
1059.0,-9.313,-0.479,-3.343,-9.354,-0.493,-3.355,2.66,1.26,0.63
,-9.351,-0.505,-3.305,-9.294,-0.507,-3.36,2.66,1.26,0.63
,-9.304,-0.541,-3.293,-9.361,-0.488,-3.364,2.45,1.12,0.63
,-9.299,-0.541,-3.307,-9.356,-0.479,-3.352,2.52,1.26,0.63
1135.0,-9.323,-0.474,-3.364,-9.299,-0.498,-3.412,2.66,1.33,0.7
,-9.299,-0.471,-3.398,-9.289,-0.548,-3.343,2.73,1.4,0.7
,-9.361,-0.474,-3.41,-9.351,-0.531,-3.357,2.66,1.19,0.56
,-9.292,-0.507,-3.41,-9.332,-0.459,-3.317,2.73,1.26,0.77
1211.0,-9.304,-0.479,-3.336,-9.344,-0.476,-3.329,2.59,0.91,0.77
,-9.328,-0.5,-3.376,-9.351,-0.457,-3.321,2.38,0.91,0.7
,-9.323,-0.493,-3.348,-9.328,-0.428,-3.331,2.52,1.12,0.84
,-9.337,-0.498,-3.35,-9.361,-0.514,-3.309,2.59,1.12,0.91
1286.0,-9.323,-0.481,-3.271,-9.308,-0.495,-3.336,2.31,1.12,0.7
,-9.306,-0.498,-3.266,-9.32,-0.586,-3.355,2.73,1.4,0.84
,-9.347,-0.471,-3.3,-9.268,-0.507,-3.364,2.59,1.26,0.7
,-9.349,-0.416,-3.285,-9.308,-0.483,-3.374,2.24,1.4,0.84
1362.0,-9.311,-0.481,-3.391,-9.361,-0.476,-3.352,2.52,1.4,0.91
,-9.294,-0.493,-3.398,-9.332,-0.452,-3.314,2.66,1.19,0.98
,-9.318,-0.467,-3.367,-9.308,-0.526,-3.319,2.59,1.12,1.05
,-9.361,-0.474,-3.333,-9.318,-0.505,-3.324,2.52,1.12,0.91
1437.0,-9.33,-0.431,-3.29,-9.304,-0.424,-3.3,2.73,1.12,0.91
,-9.335,-0.483,-3.307,-9.342,-0.45,-3.312,2.8,1.26,0.91
,-9.383,-0.467,-3.29,-9.34,-0.493,-3.357,2.66,1.26,0.84
,-9.33,-0.517,-3.264,-9.268,-0.459,-3.281,2.66,1.19,0.84
1513.0,-9.296,-0.522,-3.333,-9.318,-0.476,-3.252,2.45,1.26,0.91
,-9.308,-0.459,-3.319,-9.383,-0.486,-3.266,2.73,1.12,0.91
,-9.325,-0.467,-3.331,-9.342,-0.438,-3.25,2.59,1.19,0.84
,-9.328,-0.431,-3.29,-9.347,-0.4,-3.369,2.24,1.26,0.77
1589.0,-9.337,-0.529,-3.374,-9.32,-0.471,-3.297,1.96,1.33,0.77
,-9.296,-0.543,-3.36,-9.371,-0.464,-3.226,2.24,1.4,0.77
,-9.301,-0.536,-3.297,-9.337,-0.486,-3.214,2.38,1.4,0.84
,-9.27,-0.467,-3.312,-9.373,-0.486,-3.233,2.66,1.33,0.77
1665.0,-9.332,-0.479,-3.214,-9.265,-0.486,-3.379,2.66,1.89,0.91
,-9.308,-0.498,-3.278,-9.368,-0.433,-3.345,2.38,2.03,0.91
,-9.323,-0.476,-3.317,-9.342,-0.402,-3.338,2.45,1.89,0.84
,-9.311,-0.45,-3.314,-9.313,-0.426,-3.35,2.59,1.75,0.77
1740.0,-9.344,-0.486,-3.355,-9.328,-0.481,-3.235,2.87,1.82,0.77
,-9.328,-0.541,-3.357,-9.318,-0.445,-3.266,3.01,1.75,0.77
,-9.318,-0.433,-3.295,-9.335,-0.459,-3.245,3.08,1.68,0.77
,-9.306,-0.491,-3.317,-9.337,-0.452,-3.266,3.01,1.61,0.63
1816.0,-9.361,-0.45,-3.262,-9.287,-0.493,-3.408,2.45,2.03,0.7
,-9.311,-0.476,-3.297,-9.284,-0.498,-3.333,2.52,2.1,0.63
,-9.32,-0.464,-3.34,-9.337,-0.498,-3.297,2.38,1.96,0.63
,-9.34,-0.479,-3.36,-9.349,-0.438,-3.319,2.17,1.96,0.42
1892.0,-9.337,-0.474,-3.285,-9.354,-0.459,-3.384,2.31,2.03,0.63
,-9.328,-0.51,-3.35,-9.335,-0.529,-3.455,2.17,2.03,0.63
,-9.363,-0.498,-3.338,-9.328,-0.529,-3.369,2.03,1.96,0.56
,-9.304,-0.507,-3.352,-9.273,-0.56,-3.4,2.17,2.1,0.63
1968.0,-9.308,-0.469,-3.36,-9.395,-0.488,-3.338,3.01,1.96,0.77
,-9.335,-0.44,-3.34,-9.301,-0.462,-3.369,3.08,1.82,0.77
,-9.368,-0.481,-3.309,-9.27,-0.467,-3.379,2.87,1.82,0.77
,-9.378,-0.483,-3.3,-9.325,-0.481,-3.329,2.87,1.75,0.77
2044.0,-9.318,-0.5,-3.372,-9.335,-0.491,-3.278,2.73,1.47,0.56
,-9.351,-0.512,-3.398,-9.354,-0.462,-3.262,2.87,1.54,0.7
,-9.292,-0.474,-3.369,-9.359,-0.486,-3.319,2.94,1.47,0.7
,-9.313,-0.457,-3.333,-9.356,-0.45,-3.276,3.01,1.47,0.77
2119.0,-9.387,-0.447,-3.293,-9.32,-0.51,-3.321,1.96,1.61,0.42
,-9.316,-0.512,-3.36,-9.292,-0.474,-3.295,2.03,1.68,0.56
,-9.328,-0.495,-3.329,-9.351,-0.455,-3.312,2.31,1.68,0.56
,-9.323,-0.498,-3.34,-9.363,-0.459,-3.329,2.45,1.61,0.49
2195.0,-9.34,-0.433,-3.412,-9.325,-0.459,-3.369,2.17,1.68,0.35
,-9.265,-0.512,-3.381,-9.316,-0.524,-3.317,2.31,1.75,0.56
,-9.268,-0.534,-3.405,-9.344,-0.498,-3.321,2.52,1.75,0.63
,-9.33,-0.481,-3.415,-9.349,-0.438,-3.326,2.8,1.47,0.7
2270.0,-9.347,-0.459,-3.36,-9.294,-0.522,-3.384,2.66,1.47,0.56
,-9.325,-0.503,-3.403,-9.304,-0.491,-3.326,2.52,1.47,0.63
,-9.296,-0.567,-3.412,-9.304,-0.45,-3.376,2.52,1.4,0.63
,-9.328,-0.543,-3.376,-9.301,-0.486,-3.321,2.73,1.4,0.63
2346.0,-9.332,-0.436,-3.293,-9.306,-0.5,-3.329,2.66,1.33,0.56
,-9.325,-0.495,-3.312,-9.311,-0.479,-3.343,2.66,1.33,0.63
,-9.301,-0.498,-3.331,-9.308,-0.455,-3.324,2.52,1.47,0.63
,-9.308,-0.505,-3.273,-9.34,-0.483,-3.367,2.8,1.61,0.63
2422.0,-9.28,-0.529,-3.352,-9.318,-0.474,-3.29,2.1,1.54,0.56
,-9.27,-0.529,-3.307,-9.313,-0.514,-3.302,2.52,1.68,0.7
,-9.308,-0.519,-3.364,-9.301,-0.538,-3.362,2.87,1.61,0.7
,-9.332,-0.438,-3.336,-9.253,-0.558,-3.348,2.87,1.54,0.7
2498.0,-9.335,-0.534,-3.343,-9.296,-0.524,-3.278,3.01,1.61,0.77
,-9.292,-0.498,-3.336,-9.337,-0.481,-3.329,3.29,1.47,0.91
,-9.337,-0.45,-3.35,-9.308,-0.462,-3.36,3.22,1.47,0.84
,-9.347,-0.443,-3.314,-9.296,-0.519,-3.386,2.73,1.33,0.7
2573.0,-9.282,-0.467,-3.384,-9.34,-0.483,-3.314,2.59,1.54,0.77
,-9.328,-0.498,-3.424,-9.301,-0.507,-3.333,2.73,1.54,0.77
,-9.306,-0.493,-3.369,-9.347,-0.447,-3.338,2.59,1.54,0.77
,-9.311,-0.498,-3.352,-9.337,-0.459,-3.362,2.52,1.47,0.63
2649.0,-9.316,-0.495,-3.376,-9.265,-0.507,-3.317,2.59,1.47,0.63
,-9.354,-0.522,-3.331,-9.363,-0.522,-3.293,2.87,1.33,0.63
,-9.306,-0.507,-3.362,-9.351,-0.467,-3.266,3.01,1.26,0.7
,-9.294,-0.471,-3.367,-9.366,-0.507,-3.269,2.94,1.12,0.7
2725.0,-9.344,-0.483,-3.276,-9.325,-0.467,-3.319,2.59,1.4,0.7
,-9.323,-0.531,-3.29,-9.284,-0.483,-3.29,2.38,1.54,0.7
,-9.323,-0.512,-3.281,-9.38,-0.476,-3.379,2.24,1.89,0.91
,-9.306,-0.488,-3.336,-9.354,-0.483,-3.329,2.38,1.82,0.91
2801.0,-9.306,-0.51,-3.419,-9.292,-0.567,-3.408,2.24,1.61,0.84
,-9.313,-0.526,-3.374,-9.313,-0.498,-3.357,2.24,1.4,0.7
,-9.287,-0.524,-3.434,-9.359,-0.491,-3.36,2.31,1.47,0.63
,-9.32,-0.51,-3.393,-9.368,-0.462,-3.379,2.17,1.54,0.7
2877.0,-9.337,-0.483,-3.338,-9.301,-0.524,-3.281,2.17,1.05,0.77
,-9.368,-0.546,-3.276,-9.323,-0.503,-3.295,2.31,0.98,0.77
,-9.349,-0.529,-3.345,-9.292,-0.491,-3.3,2.52,1.12,0.91
,-9.294,-0.486,-3.314,-9.335,-0.462,-3.329,2.73,1.4,0.98
2952.0,-9.335,-0.479,-3.36,-9.308,-0.483,-3.329,2.52,1.26,0.98
,-9.311,-0.488,-3.396,-9.328,-0.426,-3.295,2.59,1.33,0.98
,-9.373,-0.491,-3.352,-9.354,-0.452,-3.338,2.38,1.26,0.98
,-9.318,-0.536,-3.343,-9.301,-0.493,-3.331,2.52,1.26,1.05
3028.0,-9.347,-0.531,-3.305,-9.318,-0.505,-3.329,2.03,1.26,0.84
,-9.313,-0.488,-3.362,-9.344,-0.474,-3.29,2.45,1.26,0.91
,-9.313,-0.493,-3.307,-9.361,-0.503,-3.252,2.38,1.19,0.98
,-9.351,-0.479,-3.309,-9.313,-0.474,-3.226,2.31,1.19,0.98
3103.0,-9.332,-0.419,-3.264,-9.318,-0.476,-3.336,2.24,1.19,0.84
,-9.273,-0.495,-3.317,-9.335,-0.452,-3.34,1.96,1.26,0.84
,-9.32,-0.507,-3.348,-9.313,-0.467,-3.319,1.89,1.33,0.77
,-9.361,-0.56,-3.3,-9.359,-0.464,-3.329,2.38,1.4,0.77
3179.0,-9.351,-0.488,-3.297,-9.344,-0.445,-3.319,2.8,1.19,0.98
,-9.323,-0.483,-3.333,-9.301,-0.505,-3.293,2.87,1.33,0.91
,-9.361,-0.469,-3.345,-9.335,-0.431,-3.3,2.87,1.05,0.91
,-9.361,-0.459,-3.326,-9.323,-0.479,-3.355,2.87,1.26,0.91
3255.0,-9.313,-0.495,-3.314,-9.366,-0.445,-3.269,2.38,1.54,0.84
,-9.332,-0.493,-3.302,-9.304,-0.493,-3.211,2.66,1.54,0.84
,-9.325,-0.507,-3.285,-9.371,-0.431,-3.252,2.8,1.19,0.7
,-9.332,-0.412,-3.276,-9.378,-0.467,-3.295,2.87,1.33,0.77
3331.0,-9.366,-0.462,-3.307,-9.289,-0.5,-3.345,2.31,1.82,0.63
,-9.306,-0.491,-3.319,-9.347,-0.471,-3.319,2.24,1.82,0.7
,-9.318,-0.512,-3.372,-9.378,-0.471,-3.29,2.24,1.61,0.63
,-9.256,-0.524,-3.374,-9.347,-0.488,-3.297,2.73,1.89,0.63
3406.0,-9.332,-0.483,-3.285,-9.287,-0.498,-3.384,2.52,1.68,0.56
,-9.308,-0.507,-3.326,-9.335,-0.474,-3.408,2.52,1.61,0.7
,-9.342,-0.503,-3.391,-9.356,-0.469,-3.364,2.38,1.68,0.56
,-9.277,-0.512,-3.379,-9.332,-0.488,-3.317,2.45,1.54,0.63
3482.0,-9.366,-0.486,-3.338,-9.311,-0.44,-3.281,2.94,1.33,0.56
,-9.323,-0.433,-3.35,-9.354,-0.464,-3.233,3.08,1.33,0.63
,-9.325,-0.459,-3.319,-9.368,-0.505,-3.228,2.8,1.4,0.49
,-9.323,-0.471,-3.264,-9.363,-0.541,-3.307,2.73,1.4,0.42
3558.0,-9.306,-0.536,-3.285,-9.33,-0.474,-3.324,2.45,1.68,0.42
,-9.323,-0.524,-3.314,-9.294,-0.495,-3.281,2.52,1.75,0.49
,-9.335,-0.519,-3.343,-9.34,-0.526,-3.23,2.38,1.68,0.56
,-9.284,-0.476,-3.317,-9.335,-0.488,-3.29,2.66,1.68,0.56
3634.0,-9.33,-0.467,-3.338,-9.306,-0.45,-3.427,2.59,1.89,0.7
,-9.301,-0.462,-3.374,-9.33,-0.479,-3.372,2.38,1.89,0.63
,-9.325,-0.534,-3.396,-9.325,-0.538,-3.34,2.45,1.96,0.7
,-9.277,-0.481,-3.345,-9.356,-0.5,-3.326,2.66,1.82,0.7
3709.0,-9.359,-0.457,-3.345,-9.268,-0.459,-3.338,3.15,1.4,0.7
,-9.311,-0.479,-3.319,-9.318,-0.526,-3.329,3.08,1.68,0.77
,-9.28,-0.498,-3.338,-9.299,-0.483,-3.309,3.01,1.75,0.77
,-9.32,-0.443,-3.367,-9.311,-0.486,-3.276,2.94,1.75,0.77
3785.0,-9.349,-0.519,-3.305,-9.363,-0.493,-3.34,2.38,1.68,0.7
,-9.313,-0.505,-3.273,-9.337,-0.445,-3.338,2.38,1.75,0.77
,-9.363,-0.493,-3.309,-9.313,-0.503,-3.374,2.66,1.89,0.84
,-9.332,-0.5,-3.348,-9.332,-0.519,-3.381,2.66,1.89,0.84
3860.0,-9.323,-0.522,-3.379,-9.325,-0.524,-3.324,2.45,1.61,0.63
,-9.253,-0.495,-3.319,-9.342,-0.459,-3.36,2.59,1.68,0.63
,-9.342,-0.5,-3.343,-9.299,-0.503,-3.352,2.59,1.54,0.7
,-9.375,-0.503,-3.326,-9.282,-0.476,-3.352,2.66,1.4,0.77
3936.0,-9.294,-0.5,-3.333,-9.32,-0.476,-3.192,2.66,1.26,0.77
,-9.304,-0.51,-3.23,-9.409,-0.455,-3.269,2.8,1.4,0.84
,-9.33,-0.529,-3.187,-9.332,-0.512,-3.309,2.87,1.68,0.91
,-9.359,-0.5,-3.206,-9.265,-0.536,-3.357,2.8,1.54,0.7
4012.0,-9.263,-0.529,-3.398,-9.344,-0.51,-3.355,2.66,1.82,0.7
,-9.304,-0.471,-3.417,-9.318,-0.503,-3.309,2.73,1.68,0.7
,-9.325,-0.424,-3.403,-9.292,-0.529,-3.23,2.24,1.68,0.56
,-9.313,-0.495,-3.348,-9.332,-0.495,-3.305,2.17,1.54,0.63
4088.0,-9.328,-0.433,-3.285,-9.301,-0.464,-3.388,2.52,1.75,0.7
,-9.32,-0.512,-3.264,-9.308,-0.526,-3.398,2.38,1.82,0.7
,-9.371,-0.507,-3.3,-9.28,-0.514,-3.391,2.31,1.89,0.7
,-9.375,-0.474,-3.338,-9.318,-0.517,-3.384,2.31,1.68,0.7
4164.0,-9.301,-0.503,-3.384,-9.308,-0.51,-3.309,2.94,1.68,0.84
,-9.366,-0.447,-3.329,-9.311,-0.5,-3.34,3.01,1.47,0.77
,-9.328,-0.469,-3.309,-9.349,-0.541,-3.379,2.94,1.61,0.77
,-9.328,-0.452,-3.317,-9.344,-0.514,-3.369,2.94,1.54,0.77
4239.0,-9.332,-0.524,-3.331,-9.318,-0.531,-3.34,3.01,1.54,0.84
,-9.337,-0.474,-3.288,-9.323,-0.447,-3.345,3.08,1.61,0.84
,-9.34,-0.443,-3.302,-9.32,-0.488,-3.362,2.52,1.75,0.7
,-9.32,-0.474,-3.35,-9.33,-0.459,-3.384,2.31,1.61,0.63
4315.0,-9.316,-0.479,-3.35,-9.318,-0.524,-3.307,2.59,1.4,0.49
,-9.349,-0.514,-3.391,-9.296,-0.519,-3.309,2.45,1.47,0.63
,-9.335,-0.514,-3.391,-9.342,-0.5,-3.281,2.31,1.47,0.56
,-9.363,-0.526,-3.369,-9.385,-0.481,-3.238,2.31,1.19,0.49
4391.0,-9.347,-0.503,-3.223,-9.337,-0.469,-3.381,2.73,1.75,0.77
,-9.287,-0.5,-3.235,-9.299,-0.517,-3.376,2.66,1.61,0.7
,-9.337,-0.476,-3.314,-9.313,-0.514,-3.429,2.8,1.68,0.63
,-9.344,-0.488,-3.269,-9.28,-0.517,-3.367,2.8,1.61,0.77
4467.0,-9.28,-0.514,-3.439,-9.332,-0.476,-3.302,3.01,1.68,0.63
,-9.325,-0.464,-3.393,-9.371,-0.447,-3.281,2.8,1.61,0.56
,-9.304,-0.507,-3.352,-9.368,-0.464,-3.285,2.87,1.54,0.56
,-9.301,-0.524,-3.345,-9.323,-0.512,-3.309,2.94,1.47,0.63
4542.0,-9.337,-0.517,-3.283,-9.323,-0.479,-3.36,2.38,1.82,0.63
,-9.344,-0.538,-3.331,-9.284,-0.517,-3.393,2.38,1.82,0.63
,-9.318,-0.479,-3.309,-9.342,-0.498,-3.362,2.45,1.61,0.56
,-9.349,-0.486,-3.386,-9.304,-0.503,-3.362,2.52,1.61,0.56
4618.0,-9.344,-0.5,-3.364,-9.308,-0.538,-3.293,2.87,1.4,0.63
,-9.273,-0.519,-3.324,-9.351,-0.56,-3.319,2.87,1.47,0.7
,-9.332,-0.522,-3.307,-9.328,-0.479,-3.408,2.8,1.54,0.63
,-9.349,-0.491,-3.293,-9.33,-0.447,-3.436,2.66,1.61,0.56
4693.0,-9.301,-0.529,-3.352,-9.342,-0.459,-3.293,2.52,1.47,0.63
,-9.308,-0.546,-3.309,-9.356,-0.479,-3.319,2.8,1.47,0.7
,-9.313,-0.481,-3.295,-9.378,-0.526,-3.357,3.15,1.47,0.84
,-9.359,-0.426,-3.326,-9.323,-0.481,-3.357,3.01,1.33,0.77
4769.0,-9.332,-0.519,-3.374,-9.323,-0.491,-3.3,2.52,1.47,0.77
,-9.306,-0.538,-3.41,-9.337,-0.493,-3.259,2.59,1.33,0.63
,-9.296,-0.505,-3.436,-9.371,-0.505,-3.242,2.59,1.19,0.63
,-9.287,-0.529,-3.357,-9.359,-0.584,-3.324,2.8,1.4,0.7
4845.0,-9.342,-0.512,-3.278,-9.361,-0.488,-3.309,2.45,1.61,0.77
,-9.323,-0.503,-3.29,-9.354,-0.483,-3.319,2.31,1.68,0.7
,-9.294,-0.524,-3.326,-9.342,-0.493,-3.309,2.17,1.75,0.77
,-9.299,-0.519,-3.297,-9.318,-0.481,-3.398,2.31,1.82,0.84
4921.0,-9.313,-0.514,-3.386,-9.387,-0.505,-3.369,2.38,1.75,0.84
,-9.313,-0.507,-3.408,-9.323,-0.517,-3.34,2.59,1.75,0.84
,-9.325,-0.555,-3.386,-9.32,-0.55,-3.288,2.73,1.68,0.84
,-9.32,-0.517,-3.357,-9.332,-0.538,-3.283,2.73,1.54,0.84
4997.0,-9.356,-0.488,-3.285,-9.292,-0.483,-3.372,2.8,1.61,0.84
,-9.292,-0.464,-3.283,-9.306,-0.416,-3.405,2.52,1.61,0.77
,-9.296,-0.486,-3.331,-9.356,-0.476,-3.422,2.1,1.68,0.7
,-9.275,-0.56,-3.3,-9.349,-0.491,-3.417,2.24,1.82,0.84
5072.0,-9.335,-0.517,-3.408,-9.308,-0.488,-3.333,2.31,1.61,0.77
,-9.318,-0.488,-3.374,-9.342,-0.51,-3.398,2.59,1.61,0.77
,-9.33,-0.481,-3.393,-9.337,-0.481,-3.408,2.31,1.47,0.77
,-9.371,-0.507,-3.331,-9.282,-0.51,-3.386,2.24,1.54,0.91
5148.0,-9.311,-0.495,-3.369,-9.328,-0.519,-3.348,2.31,1.26,0.84
,-9.325,-0.486,-3.36,-9.287,-0.522,-3.391,2.59,1.26,0.84
,-9.299,-0.452,-3.338,-9.335,-0.486,-3.367,2.38,1.33,0.77
,-9.332,-0.519,-3.302,-9.316,-0.526,-3.326,2.31,1.12,0.7
5224.0,-9.356,-0.517,-3.238,-9.311,-0.483,-3.295,3.01,1.54,0.98
,-9.363,-0.474,-3.218,-9.34,-0.534,-3.302,2.8,1.61,0.91
,-9.347,-0.44,-3.242,-9.313,-0.471,-3.331,2.45,1.54,0.63
,-9.351,-0.479,-3.269,-9.287,-0.462,-3.355,2.03,1.4,0.63
5300.0,-9.308,-0.474,-3.35,-9.33,-0.483,-3.372,1.68,1.75,0.84
,-9.328,-0.495,-3.393,-9.299,-0.505,-3.376,1.75,1.61,0.77
,-9.323,-0.495,-3.393,-9.296,-0.531,-3.345,2.1,1.47,0.77
,-9.325,-0.483,-3.398,-9.318,-0.488,-3.336,2.38,1.54,0.77
5375.0,-9.328,-0.493,-3.321,-9.304,-0.488,-3.348,2.45,1.47,0.84
,-9.38,-0.498,-3.317,-9.296,-0.531,-3.348,2.45,1.61,0.77
,-9.342,-0.483,-3.262,-9.316,-0.452,-3.374,2.38,1.54,0.84
,-9.347,-0.45,-3.343,-9.287,-0.467,-3.374,2.38,1.4,0.77
5451.0,-9.296,-0.491,-3.336,-9.32,-0.553,-3.321,2.66,1.54,0.91
,-9.347,-0.457,-3.388,-9.308,-0.5,-3.319,2.52,1.4,0.84
,-9.356,-0.433,-3.348,-9.344,-0.464,-3.338,2.38,1.4,0.77
,-9.294,-0.483,-3.403,-9.332,-0.459,-3.314,2.17,1.33,0.7
5526.0,-9.344,-0.498,-3.319,-9.316,-0.512,-3.372,2.24,1.4,0.77
,-9.375,-0.5,-3.391,-9.328,-0.495,-3.348,2.17,1.47,0.91
,-9.356,-0.498,-3.348,-9.308,-0.476,-3.312,2.1,1.33,0.77
,-9.301,-0.512,-3.364,-9.325,-0.486,-3.264,2.1,1.26,0.77
5602.0,-9.359,-0.495,-3.288,-9.313,-0.503,-3.367,2.59,1.26,0.84
,-9.342,-0.474,-3.269,-9.33,-0.44,-3.381,2.59,1.12,0.98
,-9.318,-0.464,-3.309,-9.301,-0.486,-3.398,2.52,1.33,0.84
,-9.349,-0.526,-3.345,-9.332,-0.459,-3.302,2.59,1.4,0.91
5678.0,-9.342,-0.488,-3.259,-9.392,-0.469,-3.269,3.15,1.19,0.91
,-9.328,-0.462,-3.245,-9.306,-0.479,-3.312,3.22,1.26,0.98
,-9.332,-0.407,-3.242,-9.313,-0.457,-3.345,2.94,1.19,0.84
,-9.378,-0.455,-3.245,-9.32,-0.483,-3.329,2.52,1.4,0.77
5754.0,-9.32,-0.474,-3.329,-9.318,-0.457,-3.372,2.24,1.26,0.56
,-9.325,-0.529,-3.307,-9.301,-0.467,-3.369,2.45,1.47,0.7
,-9.33,-0.469,-3.333,-9.32,-0.505,-3.417,2.59,1.61,0.84
,-9.268,-0.476,-3.288,-9.299,-0.495,-3.388,2.66,1.47,0.84
5829.0,-9.318,-0.471,-3.364,-9.32,-0.524,-3.23,3.08,1.54,0.84
,-9.304,-0.44,-3.343,-9.34,-0.514,-3.238,3.01,1.26,0.77
,-9.342,-0.459,-3.266,-9.368,-0.5,-3.257,2.94,1.33,0.77
,-9.311,-0.498,-3.252,-9.351,-0.524,-3.34,2.8,1.61,0.84
5905.0,-9.325,-0.469,-3.4,-9.299,-0.416,-3.331,2.59,1.61,0.77
,-9.301,-0.5,-3.372,-9.349,-0.474,-3.25,2.45,1.54,0.7
,-9.316,-0.543,-3.415,-9.351,-0.481,-3.285,2.45,1.4,0.63
,-9.301,-0.519,-3.374,-9.361,-0.424,-3.305,3.01,1.4,0.7
5980.0,-9.373,-0.493,-3.331,-9.32,-0.514,-3.369,2.38,1.68,0.49
,-9.313,-0.512,-3.393,-9.337,-0.424,-3.321,2.38,1.4,0.49
,-9.325,-0.514,-3.405,-9.323,-0.436,-3.3,2.52,1.54,0.7
,-9.304,-0.522,-3.403,-9.368,-0.436,-3.245,2.73,1.47,0.7
6056.0,-9.371,-0.483,-3.259,-9.33,-0.498,-3.321,2.52,1.61,0.56
,-9.371,-0.507,-3.266,-9.354,-0.476,-3.338,2.45,1.54,0.63
,-9.344,-0.543,-3.312,-9.323,-0.462,-3.362,2.66,1.68,0.63
,-9.325,-0.476,-3.288,-9.347,-0.467,-3.35,2.87,1.68,0.63
6132.0,-9.368,-0.462,-3.321,-9.328,-0.476,-3.35,2.24,1.82,0.56
,-9.301,-0.459,-3.362,-9.316,-0.531,-3.348,2.24,1.61,0.49
,-9.325,-0.486,-3.345,-9.32,-0.51,-3.317,2.24,1.75,0.56
,-9.318,-0.486,-3.314,-9.373,-0.514,-3.319,2.38,1.61,0.56
6208.0,-9.332,-0.479,-3.309,-9.284,-0.55,-3.381,2.52,1.68,0.63
,-9.332,-0.495,-3.35,-9.301,-0.562,-3.321,2.45,1.61,0.7
,-9.325,-0.495,-3.338,-9.318,-0.488,-3.317,2.17,1.47,0.56
,-9.34,-0.543,-3.35,-9.304,-0.493,-3.329,2.1,1.33,0.63
6284.0,-9.344,-0.567,-3.307,-9.335,-0.467,-3.436,2.45,1.61,0.84
,-9.325,-0.471,-3.302,-9.356,-0.479,-3.446,2.66,1.75,0.98
,-9.397,-0.445,-3.314,-9.268,-0.536,-3.412,2.52,1.68,0.77
,-9.378,-0.402,-3.321,-9.299,-0.55,-3.376,2.38,1.61,0.77
6359.0,-9.318,-0.505,-3.326,-9.332,-0.507,-3.35,3.22,1.33,0.91
,-9.375,-0.45,-3.245,-9.33,-0.517,-3.355,3.01,1.19,0.91
,-9.335,-0.447,-3.252,-9.337,-0.507,-3.369,2.73,1.4,0.91
,-9.34,-0.498,-3.305,-9.268,-0.488,-3.345,2.59,1.4,0.77
6435.0,-9.347,-0.498,-3.333,-9.361,-0.471,-3.271,2.31,1.33,0.77
,-9.306,-0.474,-3.314,-9.32,-0.469,-3.259,2.59,1.47,0.84
,-9.337,-0.476,-3.278,-9.359,-0.517,-3.314,2.52,1.47,0.7
,-9.337,-0.505,-3.25,-9.299,-0.457,-3.367,2.52,1.54,0.77
6511.0,-9.282,-0.491,-3.393,-9.337,-0.51,-3.326,2.38,1.75,0.84
,-9.347,-0.498,-3.36,-9.273,-0.486,-3.295,2.52,1.54,0.84
,-9.368,-0.514,-3.384,-9.294,-0.498,-3.297,2.52,1.47,0.91
,-9.311,-0.447,-3.336,-9.335,-0.467,-3.336,2.45,1.54,0.91
6587.0,-9.318,-0.514,-3.34,-9.356,-0.498,-3.288,2.38,1.68,0.84
,-9.328,-0.471,-3.321,-9.354,-0.462,-3.264,2.52,1.68,0.77
,-9.335,-0.467,-3.326,-9.332,-0.467,-3.295,2.59,1.54,0.77
,-9.395,-0.505,-3.281,-9.325,-0.503,-3.333,2.59,1.47,0.77
6662.0,-9.284,-0.464,-3.408,-9.328,-0.424,-3.324,2.52,1.68,0.77
,-9.347,-0.493,-3.388,-9.371,-0.443,-3.276,2.59,1.82,0.77
,-9.328,-0.534,-3.412,-9.328,-0.469,-3.302,2.73,1.47,0.7
,-9.34,-0.483,-3.396,-9.296,-0.507,-3.348,3.01,1.54,0.7
6738.0,-9.32,-0.522,-3.333,-9.342,-0.457,-3.379,2.59,1.61,0.84
,-9.342,-0.498,-3.333,-9.304,-0.507,-3.372,2.87,1.68,0.84
,-9.359,-0.493,-3.309,-9.282,-0.455,-3.396,2.87,1.54,0.77
,-9.366,-0.486,-3.338,-9.28,-0.493,-3.364,2.66,1.47,0.77
6813.0,-9.318,-0.517,-3.355,-9.402,-0.45,-3.24,2.94,1.54,0.77
,-9.344,-0.488,-3.3,-9.351,-0.452,-3.252,3.15,1.47,0.77
,-9.32,-0.498,-3.264,-9.373,-0.491,-3.326,3.08,1.61,0.84
,-9.383,-0.457,-3.214,-9.33,-0.467,-3.372,3.01,1.82,0.84
6889.0,-9.34,-0.469,-3.362,-9.311,-0.488,-3.302,2.45,1.96,0.77
,-9.318,-0.495,-3.403,-9.349,-0.471,-3.314,2.52,1.89,0.77
,-9.301,-0.471,-3.405,-9.375,-0.433,-3.324,2.59,2.03,0.7
,-9.289,-0.51,-3.329,-9.34,-0.464,-3.348,2.73,2.03,0.7
6965.0,-9.323,-0.534,-3.398,-9.328,-0.476,-3.393,2.31,1.82,0.63
,-9.351,-0.512,-3.372,-9.337,-0.517,-3.372,2.52,1.89,0.63
,-9.325,-0.476,-3.388,-9.344,-0.536,-3.345,2.66,1.82,0.63
,-9.289,-0.452,-3.386,-9.335,-0.479,-3.35,2.38,1.82,0.56
7041.0,-9.308,-0.491,-3.312,-9.335,-0.526,-3.321,2.8,1.4,0.56
,-9.311,-0.479,-3.355,-9.301,-0.486,-3.333,2.59,1.61,0.56
,-9.332,-0.474,-3.309,-9.356,-0.459,-3.329,2.45,1.68,0.42
,-9.33,-0.514,-3.317,-9.342,-0.483,-3.307,2.52,1.75,0.49
7117.0,-9.33,-0.524,-3.29,-9.301,-0.505,-3.357,2.45,1.75,0.63
,-9.347,-0.512,-3.317,-9.332,-0.45,-3.381,2.66,1.82,0.63
,-9.344,-0.476,-3.376,-9.323,-0.414,-3.384,2.66,1.75,0.63
,-9.268,-0.5,-3.427,-9.294,-0.464,-3.338,2.45,1.75,0.56
7192.0,-9.335,-0.56,-3.343,-9.299,-0.452,-3.314,2.52,1.54,0.7
,-9.296,-0.565,-3.352,-9.337,-0.548,-3.324,3.01,1.68,0.77
,-9.299,-0.483,-3.314,-9.361,-0.495,-3.336,3.01,1.54,0.7
,-9.325,-0.486,-3.317,-9.342,-0.488,-3.336,2.8,1.61,0.56
7268.0,-9.292,-0.495,-3.333,-9.344,-0.529,-3.374,2.8,1.68,0.7
,-9.296,-0.495,-3.36,-9.347,-0.479,-3.364,2.87,1.61,0.63
,-9.354,-0.534,-3.357,-9.294,-0.474,-3.348,2.73,1.68,0.7
,-9.292,-0.522,-3.386,-9.311,-0.505,-3.329,2.66,1.89,0.77
7344.0,-9.304,-0.522,-3.324,-9.294,-0.562,-3.4,2.38,1.54,0.63
,-9.32,-0.495,-3.372,-9.323,-0.529,-3.384,2.66,1.61,0.7
,-9.34,-0.486,-3.364,-9.33,-0.45,-3.362,2.52,1.82,0.77
,-9.323,-0.503,-3.374,-9.33,-0.529,-3.393,2.38,1.68,0.63
7420.0,-9.351,-0.512,-3.41,-9.325,-0.505,-3.374,2.38,1.75,0.7
,-9.304,-0.514,-3.408,-9.308,-0.481,-3.314,2.66,1.54,0.77
,-9.292,-0.531,-3.405,-9.335,-0.488,-3.336,2.8,1.54,0.77
,-9.294,-0.524,-3.357,-9.361,-0.503,-3.362,2.73,1.4,0.63
7495.0,-9.277,-0.536,-3.345,-9.301,-0.471,-3.441,2.66,1.4,0.77
,-9.34,-0.546,-3.379,-9.313,-0.481,-3.381,2.52,1.33,0.77
,-9.316,-0.536,-3.431,-9.323,-0.467,-3.345,2.66,1.26,0.91
,-9.28,-0.531,-3.417,-9.308,-0.474,-3.321,2.87,1.26,1.05
7571.0,-9.361,-0.483,-3.285,-9.347,-0.56,-3.329,2.8,1.19,0.91
,-9.347,-0.476,-3.309,-9.294,-0.534,-3.364,2.87,1.47,0.98
,-9.337,-0.459,-3.285,-9.318,-0.469,-3.384,2.73,1.54,0.98
,-9.337,-0.519,-3.317,-9.311,-0.491,-3.379,2.59,1.33,0.91
7646.0,-9.349,-0.457,-3.343,-9.313,-0.495,-3.376,2.66,1.47,0.98
,-9.316,-0.507,-3.317,-9.328,-0.524,-3.408,2.66,1.47,0.98
,-9.311,-0.457,-3.35,-9.28,-0.459,-3.364,2.59,1.54,0.91
,-9.337,-0.483,-3.357,-9.308,-0.431,-3.355,2.31,1.54,0.91
7722.0,-9.32,-0.457,-3.384,-9.325,-0.538,-3.388,2.31,1.61,0.77
,-9.335,-0.445,-3.36,-9.308,-0.503,-3.379,2.31,1.47,0.77
,-9.318,-0.433,-3.396,-9.318,-0.519,-3.348,2.17,1.12,0.7
,-9.325,-0.445,-3.403,-9.323,-0.488,-3.283,2.24,1.4,0.63
7798.0,-9.299,-0.493,-3.269,-9.292,-0.486,-3.422,2.8,1.26,0.77
,-9.347,-0.488,-3.319,-9.275,-0.524,-3.419,2.73,1.47,0.84
,-9.301,-0.462,-3.319,-9.284,-0.5,-3.427,2.59,1.54,0.77
,-9.311,-0.464,-3.405,-9.273,-0.51,-3.369,2.45,1.47,0.63
7874.0,-9.277,-0.467,-3.324,-9.316,-0.491,-3.362,2.52,1.26,0.56
,-9.354,-0.462,-3.276,-9.323,-0.476,-3.362,2.38,1.19,0.56
,-9.311,-0.481,-3.278,-9.237,-0.505,-3.4,2.38,1.54,0.7
,-9.378,-0.505,-3.297,-9.299,-0.481,-3.443,2.38,1.54,0.63
7949.0,-9.294,-0.464,-3.405,-9.34,-0.467,-3.309,2.31,1.12,0.56
,-9.296,-0.507,-3.372,-9.359,-0.505,-3.34,2.45,1.26,0.7
,-9.32,-0.486,-3.35,-9.332,-0.529,-3.357,2.52,1.19,0.63
,-9.304,-0.45,-3.324,-9.284,-0.507,-3.345,2.59,1.19,0.63
8025.0,-9.323,-0.51,-3.419,-9.344,-0.483,-3.309,2.45,1.19,0.63
,-9.27,-0.503,-3.362,-9.325,-0.519,-3.247,2.59,1.19,0.77
,-9.306,-0.474,-3.367,-9.359,-0.524,-3.271,2.66,1.12,0.84
,-9.301,-0.481,-3.336,-9.325,-0.493,-3.285,2.59,1.19,0.77
8100.0,-9.356,-0.5,-3.3,-9.313,-0.536,-3.429,2.52,1.33,0.84
,-9.325,-0.5,-3.36,-9.292,-0.476,-3.429,2.45,1.47,0.77
,-9.328,-0.519,-3.386,-9.273,-0.486,-3.331,2.31,1.47,0.91
,-9.311,-0.507,-3.381,-9.296,-0.503,-3.324,2.45,1.47,0.77
8176.0,-9.33,-0.491,-3.285,-9.284,-0.51,-3.376,2.45,1.33,0.77
,-9.34,-0.498,-3.269,-9.284,-0.526,-3.412,2.66,1.33,0.84
,-9.359,-0.438,-3.348,-9.33,-0.534,-3.412,2.59,1.26,0.77
,-9.332,-0.471,-3.36,-9.296,-0.481,-3.369,2.45,1.47,0.7
8252.0,-9.34,-0.471,-3.357,-9.308,-0.493,-3.321,2.87,1.12,0.84
,-9.351,-0.479,-3.319,-9.277,-0.479,-3.367,2.73,1.12,0.7
,-9.34,-0.476,-3.285,-9.32,-0.553,-3.405,2.59,1.05,0.77
,-9.392,-0.486,-3.336,-9.308,-0.495,-3.422,2.59,0.98,0.77
8328.0,-9.282,-0.529,-3.355,-9.34,-0.457,-3.238,2.66,0.98,0.77
,-9.308,-0.486,-3.305,-9.306,-0.412,-3.29,2.66,1.12,0.84
,-9.421,-0.524,-3.128,-9.311,-0.436,-3.283,2.8,1.19,0.77
,-9.359,-0.522,-3.34,-9.294,-0.565,-3.317,3.22,1.12,0.84
8404.0,-9.32,-0.574,-3.331,-9.368,-0.476,-3.29,2.87,1.12,0.77
,-9.275,-0.493,-3.336,-9.308,-0.488,-3.324,3.22,1.26,0.84
,-9.325,-0.512,-3.302,-9.301,-0.529,-3.357,3.15,1.19,0.91
,-9.328,-0.503,-3.317,-9.308,-0.479,-3.369,3.08,1.19,0.98
8479.0,-9.32,-0.483,-3.34,-9.34,-0.471,-3.221,3.15,1.4,0.91
,-9.323,-0.443,-3.307,-9.342,-0.481,-3.266,3.08,1.19,0.98
,-9.356,-0.469,-3.3,-9.33,-0.538,-3.329,2.8,0.98,0.84
,-9.354,-0.424,-3.264,-9.308,-0.536,-3.317,2.66,1.19,0.84
8555.0,-9.294,-0.5,-3.376,-9.289,-0.488,-3.293,2.59,1.26,0.77
,-9.371,-0.471,-3.302,-9.287,-0.507,-3.297,2.73,1.4,0.77
,-9.356,-0.443,-3.331,-9.363,-0.491,-3.326,2.45,1.33,0.63
,-9.366,-0.452,-3.355,-9.296,-0.519,-3.338,2.24,1.54,0.63
8631.0,-9.368,-0.534,-3.321,-9.34,-0.471,-3.223,2.31,1.4,0.7
,-9.301,-0.498,-3.357,-9.351,-0.476,-3.245,2.59,1.26,0.56
,-9.363,-0.483,-3.307,-9.356,-0.462,-3.309,2.66,1.54,0.7
,-9.316,-0.531,-3.293,-9.316,-0.44,-3.333,2.38,1.47,0.7
8707.0,-9.304,-0.517,-3.386,-9.351,-0.486,-3.331,2.17,1.47,0.7
,-9.275,-0.514,-3.431,-9.354,-0.438,-3.331,2.38,1.61,0.7
,-9.32,-0.529,-3.393,-9.344,-0.462,-3.321,2.66,1.4,0.77
,-9.313,-0.488,-3.372,-9.375,-0.538,-3.305,3.15,1.4,0.91
8782.0,-9.325,-0.548,-3.329,-9.304,-0.519,-3.271,2.87,1.12,0.77
,-9.304,-0.493,-3.319,-9.34,-0.469,-3.266,2.94,1.12,0.91
,-9.335,-0.519,-3.331,-9.332,-0.488,-3.331,2.87,1.4,0.98
,-9.304,-0.51,-3.271,-9.347,-0.495,-3.264,2.59,1.33,0.91
8858.0,-9.366,-0.507,-3.35,-9.359,-0.481,-3.269,2.45,1.4,0.84
,-9.337,-0.479,-3.333,-9.294,-0.505,-3.276,2.59,1.26,0.77
,-9.323,-0.438,-3.336,-9.38,-0.534,-3.336,2.66,1.26,0.77
,-9.361,-0.452,-3.329,-9.349,-0.471,-3.317,2.52,0.98,0.7
8934.0,-9.347,-0.491,-3.283,-9.306,-0.474,-3.271,2.38,1.12,0.77
,-9.344,-0.51,-3.302,-9.33,-0.522,-3.29,2.45,1.05,0.77
,-9.32,-0.498,-3.357,-9.316,-0.44,-3.269,2.45,1.12,0.7
,-9.354,-0.512,-3.319,-9.344,-0.51,-3.3,2.38,1.26,0.77
9010.0,-9.361,-0.531,-3.273,-9.33,-0.541,-3.293,2.45,1.19,0.84
,-9.38,-0.481,-3.228,-9.306,-0.536,-3.312,2.59,1.33,0.77
,-9.373,-0.486,-3.3,-9.363,-0.436,-3.34,2.31,1.33,0.77
,-9.304,-0.505,-3.288,-9.344,-0.491,-3.317,2.31,1.54,0.91
9085.0,-9.325,-0.529,-3.288,-9.32,-0.469,-3.336,2.31,1.33,0.84
,-9.328,-0.507,-3.312,-9.332,-0.541,-3.319,2.8,1.33,0.91
,-9.332,-0.443,-3.333,-9.299,-0.586,-3.63,3.01,1.12,0.77
,-9.354,-0.44,-3.343,-9.347,-0.591,-3.19,2.94,1.26,0.84
9161.0,-9.308,-0.388,-3.283,-9.344,-0.534,-3.211,3.15,1.12,0.91
,-9.34,-0.495,-3.197,-9.337,-0.483,-3.218,2.87,1.19,0.91
,-9.363,-0.416,-3.259,-9.325,-0.457,-3.252,2.94,1.26,0.84
,-9.359,-0.512,-3.195,-9.32,-0.522,-3.273,2.73,1.26,0.84
9237.0,-9.313,-0.483,-3.283,-9.316,-0.505,-3.419,2.1,1.61,0.7
,-9.375,-0.469,-3.314,-9.273,-0.474,-3.393,2.38,1.61,0.7
,-9.284,-0.443,-3.35,-9.311,-0.514,-3.348,2.24,1.75,0.77
,-9.318,-0.447,-3.345,-9.335,-0.493,-3.247,1.96,1.54,0.63
9312.0,-9.351,-0.464,-3.247,-9.306,-0.541,-3.357,2.73,1.47,0.77
,-9.363,-0.459,-3.223,-9.328,-0.541,-3.345,2.45,1.47,0.77
,-9.373,-0.498,-3.297,-9.337,-0.467,-3.307,2.24,1.47,0.77
,-9.325,-0.567,-3.302,-9.316,-0.479,-3.307,2.31,1.47,0.7
9388.0,-9.325,-0.45,-3.247,-9.359,-0.486,-3.281,2.59,1.54,0.77
,-9.328,-0.474,-3.259,-9.359,-0.462,-3.343,2.45,1.33,0.7
,-9.304,-0.479,-3.25,-9.359,-0.483,-3.364,2.52,1.54,0.77
,-9.344,-0.479,-3.264,-9.296,-0.505,-3.343,2.52,1.61,0.77
9464.0,-9.328,-0.5,-3.35,-9.34,-0.479,-3.25,2.59,1.4,0.63
,-9.304,-0.474,-3.4,-9.371,-0.483,-3.271,2.66,1.19,0.63
,-9.32,-0.462,-3.357,-9.383,-0.5,-3.262,2.59,1.19,0.63
,-9.342,-0.491,-3.285,-9.325,-0.522,-3.273,2.66,1.33,0.7
9540.0,-9.301,-0.558,-3.271,-9.337,-0.514,-3.321,2.66,1.4,0.77
,-9.399,-0.45,-3.331,-9.351,-0.512,-3.331,2.66,1.4,0.7
,-9.282,-0.483,-3.338,-9.383,-0.474,-3.295,2.59,1.4,0.7
,-9.299,-0.5,-3.345,-9.366,-0.455,-3.295,2.59,1.33,0.77
9615.0,-9.332,-0.467,-3.295,-9.328,-0.522,-3.295,2.52,1.26,0.63
,-9.325,-0.467,-3.326,-9.351,-0.455,-3.238,2.31,1.26,0.56
,-9.33,-0.574,-3.309,-9.395,-0.474,-3.228,2.31,1.4,0.63
,-9.325,-0.56,-3.269,-9.344,-0.514,-3.262,2.59,1.47,0.77
9691.0,-9.373,-0.488,-3.271,-9.311,-0.483,-3.312,2.24,1.47,0.63
,-9.368,-0.491,-3.376,-9.347,-0.493,-3.295,2.17,1.47,0.56
,-9.344,-0.486,-3.367,-9.33,-0.507,-3.283,2.31,1.47,0.63
,-9.318,-0.514,-3.364,-9.344,-0.524,-3.259,2.45,1.19,0.63
9767.0,-9.38,-0.495,-3.242,-9.318,-0.503,-3.35,2.66,1.47,0.77
,-9.363,-0.505,-3.276,-9.313,-0.491,-3.34,2.59,1.33,0.7
,-9.378,-0.498,-3.247,-9.354,-0.483,-3.336,2.52,1.4,0.63
,-9.397,-0.519,-3.305,-9.332,-0.503,-3.362,2.38,1.4,0.77
