Timestamp,AccX,AccY,AccZ,GyroX,GyroY,GyroZ,MagnX,MagnY,MagnZ
0.0,-9.351,-0.737,-3.295,-9.299,-0.768,-3.348,3.36,1.33,0.77
,-9.366,-0.675,-3.297,-9.299,-0.799,-3.367,3.15,1.26,0.77
,-9.356,-0.713,-3.283,-9.354,-0.804,-3.367,2.59,1.33,0.77
,-9.354,-0.677,-3.391,-9.325,-0.771,-3.29,2.03,1.12,0.63
76.0,-9.347,-0.73,-3.24,-9.313,-0.725,-3.266,3.08,1.12,0.91
,-9.351,-0.715,-3.247,-9.328,-0.704,-3.281,2.87,0.91,0.84
,-9.354,-0.658,-3.254,-9.342,-0.742,-3.228,2.59,0.98,0.98
,-9.359,-0.692,-3.262,-9.354,-0.718,-3.149,2.24,0.91,0.84
152.0,-9.332,-0.739,-3.163,-9.301,-0.828,-3.324,2.52,1.33,0.91
,-9.363,-0.708,-3.19,-9.273,-0.864,-3.369,2.31,1.61,1.05
,-9.371,-0.718,-3.242,-9.342,-0.857,-3.388,1.89,1.33,0.84
,-9.349,-0.72,-3.254,-9.356,-0.756,-3.4,1.4,1.26,0.84
227.0,-9.335,-0.747,-3.336,-9.351,-0.67,-3.221,3.08,1.12,1.26
,-9.33,-0.687,-3.324,-9.356,-0.646,-3.233,2.94,1.05,1.33
,-9.335,-0.701,-3.262,-9.387,-0.651,-3.257,3.08,1.12,1.4
,-9.32,-0.653,-3.259,-9.313,-0.713,-3.185,3.5,0.98,1.33
302.0,-9.337,-0.694,-3.247,-9.373,-0.61,-3.223,2.45,1.05,0.91
,-9.351,-0.782,-3.223,-9.428,-0.584,-3.278,2.52,1.19,0.98
,-9.335,-0.701,-3.106,-9.318,-0.689,-3.309,2.87,1.4,0.98
,-9.335,-0.629,-3.168,-9.311,-0.696,-3.338,2.8,1.33,0.91
378.0,-9.311,-0.711,-3.319,-9.363,-0.579,-3.226,2.1,1.26,0.77
,-9.342,-0.711,-3.269,-9.378,-0.617,-3.281,2.52,1.19,0.91
,-9.356,-0.68,-3.238,-9.344,-0.718,-3.262,2.73,1.33,0.77
,-9.375,-0.648,-3.211,-9.32,-0.778,-3.305,2.8,1.47,0.91
454.0,-9.33,-0.895,-3.307,-9.366,-0.596,-3.192,1.47,1.19,0.7
,-9.287,-0.816,-3.269,-9.335,-0.663,-3.204,2.38,1.19,0.91
,-9.375,-0.754,-3.216,-9.318,-0.737,-3.247,3.15,1.4,0.98
,-9.38,-0.634,-3.228,-9.318,-0.751,-3.293,3.08,1.12,0.91
530.0,-9.361,-0.699,-3.276,-9.361,-0.751,-3.34,2.38,1.26,0.98
,-9.34,-0.692,-3.34,-9.32,-0.778,-3.336,2.31,1.19,1.12
,-9.306,-0.682,-3.288,-9.299,-0.866,-3.271,2.03,0.91,0.91
,-9.344,-0.708,-3.271,-9.332,-0.816,-3.242,2.03,0.84,0.84
605.0,-9.38,-0.708,-3.235,-9.306,-0.675,-3.278,2.73,0.56,1.12
,-9.399,-0.646,-3.245,-9.351,-0.653,-3.297,2.17,0.63,1.12
,-9.344,-0.687,-3.218,-9.361,-0.725,-3.331,1.68,0.7,1.33
,-9.337,-0.701,-3.221,-9.351,-0.68,-3.321,1.68,0.49,1.19
681.0,-9.316,-0.809,-3.329,-9.423,-0.62,-3.259,1.54,0.28,1.19
,-9.32,-0.799,-3.242,-9.344,-0.656,-3.364,2.45,0.21,1.19
,-9.38,-0.687,-3.238,-9.311,-0.689,-3.379,3.15,0.35,1.26
,-9.387,-0.61,-3.209,-9.313,-0.742,-3.417,3.29,0.14,1.33
757.0,-9.356,-0.751,-3.472,-9.39,-0.701,-3.173,2.73,-0.84,1.05
,-9.366,-0.665,-3.458,-9.423,-0.668,-3.108,2.87,-0.77,1.19
,-9.316,-0.727,-3.352,-9.383,-0.672,-3.101,2.87,-0.91,1.05
,-9.361,-0.72,-3.206,-9.464,-0.586,-2.977,3.22,-1.05,0.98
833.0,-9.457,-0.522,-3.041,-9.363,-0.632,-3.084,5.39,-0.49,1.19
,-9.442,-0.457,-3.056,-9.39,-0.67,-3.044,4.83,-0.28,1.12
,-9.404,-0.503,-3.07,-9.44,-0.699,-3.051,3.5,-0.21,0.7
,-9.351,-0.584,-3.061,-9.397,-0.699,-3.025,2.8,-0.21,0.56
909.0,-9.39,-0.66,-3.032,-9.387,-0.756,-3.113,3.01,0.49,0.42
,-9.414,-0.574,-3.051,-9.392,-0.696,-3.106,2.87,0.63,0.42
,-9.387,-0.598,-3.113,-9.414,-0.665,-3.056,2.38,0.63,0.21
,-9.371,-0.653,-3.053,-9.385,-0.61,-3.159,1.82,0.63,0.07
984.0,-9.363,-0.584,-3.252,-9.385,-0.775,-3.08,2.66,1.12,0.0
,-9.359,-0.598,-3.202,-9.409,-0.699,-3.056,2.45,1.19,-0.07
,-9.373,-0.694,-3.166,-9.383,-0.713,-3.005,2.03,1.12,-0.07
,-9.335,-0.751,-3.13,-9.404,-0.754,-3.053,2.1,1.19,-0.07
1060.0,-9.342,-0.72,-3.029,-9.332,-0.782,-3.264,2.87,1.68,0.14
,-9.402,-0.687,-3.128,-9.306,-0.857,-3.23,2.94,1.68,0.14
,-9.383,-0.682,-3.175,-9.33,-0.759,-3.218,2.59,1.68,0.14
,-9.371,-0.73,-3.206,-9.38,-0.732,-3.276,2.52,1.75,0.21
1135.0,-9.363,-0.754,-3.238,-9.301,-0.797,-3.214,3.92,1.33,0.56
,-9.363,-0.732,-3.204,-9.349,-0.759,-3.214,3.57,1.54,0.77
,-9.363,-0.747,-3.245,-9.418,-0.725,-3.238,3.5,1.12,0.7
,-9.368,-0.826,-3.226,-9.378,-0.706,-3.065,3.15,0.91,0.63
1211.0,-9.428,-0.727,-3.094,-9.361,-0.646,-2.991,3.5,0.7,0.91
,-9.395,-0.751,-3.017,-9.373,-0.675,-3.001,3.5,0.98,0.84
,-9.445,-0.665,-3.027,-9.342,-0.735,-2.984,3.43,1.12,0.84
,-9.464,-0.627,-3.037,-9.354,-0.737,-2.977,2.8,1.33,0.7
1287.0,-9.361,-0.675,-2.958,-9.442,-0.668,-2.761,2.38,1.61,0.49
,-9.395,-0.694,-2.919,-9.368,-0.658,-2.694,1.82,1.82,0.42
,-9.351,-0.725,-2.797,-9.363,-0.706,-2.601,1.05,2.31,0.21
,-9.392,-0.718,-2.766,-9.325,-0.806,-2.347,0.56,2.52,0.14
1363.0,-9.43,-0.715,-2.335,-9.392,-0.586,-2.182,-0.56,6.09,0.35
,-9.43,-0.747,-2.017,-9.373,-0.708,-2.431,-0.49,7.42,0.63
,-9.524,-0.481,-2.302,-9.342,-0.838,-2.331,-0.91,8.19,0.56
,-9.363,-0.507,-2.166,-9.292,-0.926,-2.01,-3.08,9.45,0.42
1438.0,-9.552,-0.775,-2.173,-9.182,-0.512,-2.154,-2.66,16.1,0.56
,-9.555,-0.622,-2.017,-9.253,-0.948,-2.649,-5.46,16.8,-0.49
,-9.497,-0.438,-1.814,-9.072,-1.223,-2.642,-7.91,17.78,-0.49
,-9.385,-0.211,-2.137,-9.007,-1.019,-2.623,-12.67,18.34,-0.77
1514.0,-9.229,-0.313,-3.285,-8.567,-0.823,-4.757,-6.37,24.57,1.05
,-9.265,0.254,-3.994,-8.815,-1.259,-4.223,-7.07,23.45,-0.07
,-8.911,0.524,-5.111,-9.383,-0.969,-3.424,-13.79,20.51,-1.33
,-8.404,-0.06,-4.92,-9.548,-0.065,-3.771,-19.6,20.16,-1.05
1589.0,-9.32,0.383,-3.35,-8.866,-1.845,-3.687,-2.52,18.34,-1.82
,-9.203,0.012,-3.288,-8.871,-2.017,-4.235,-9.94,18.41,-1.82
,-8.725,-1.086,-3.02,-9.014,-1.933,-4.489,-16.1,18.9,-1.89
,-9.002,-1.732,-2.434,-8.708,-2.137,-4.331,-13.44,20.16,-0.77
1665.0,-8.837,-1.993,-3.68,-8.847,-0.132,-5.224,5.81,22.19,7.07
,-9.1,-1.196,-4.156,-8.717,-0.347,-4.853,14.63,21.98,7.63
,-9.165,-0.232,-4.891,-8.894,-0.12,-4.472,16.59,19.88,7.21
,-9.103,0.213,-5.011,-8.823,0.251,-4.944,12.25,19.6,7.84
1741.0,-8.842,0.323,-5.197,-9.502,1.0,-4.791,6.37,14.14,3.92
,-8.839,-0.189,-4.692,-9.239,1.263,-5.159,2.8,14.7,4.41
,-8.861,-0.29,-4.501,-8.796,0.629,-5.14,4.48,14.56,3.99
,-9.158,0.294,-4.283,-8.435,-0.419,-4.53,9.03,13.51,1.75
1817.0,-8.878,-1.019,-4.113,-8.832,-1.359,-3.857,-9.31,11.69,-3.01
,-8.859,-0.859,-4.31,-8.526,-1.438,-3.53,-3.15,9.87,-4.06
,-8.933,-0.56,-4.578,-8.83,-1.139,-3.616,-0.42,8.75,-4.06
,-9.045,-0.672,-4.317,-8.926,-0.558,-3.991,-1.4,9.94,-3.15
1893.0,-8.904,-0.275,-4.374,-8.603,0.952,-4.53,9.73,10.15,2.17
,-8.863,-0.266,-4.578,-8.782,0.936,-4.566,10.01,10.78,1.82
,-8.926,0.098,-4.817,-8.806,0.577,-4.688,11.2,11.34,0.7
,-8.624,0.639,-4.92,-8.911,0.06,-4.604,12.67,12.32,-0.7
1968.0,-8.849,-0.739,-4.235,-8.799,-1.141,-4.798,0.63,13.86,-6.37
,-8.722,-1.177,-3.838,-8.789,-0.778,-4.929,3.01,15.82,-6.44
,-8.938,-1.338,-3.917,-8.571,-0.567,-5.095,7.35,16.1,-6.16
,-8.832,-1.484,-4.444,-8.473,-0.692,-5.047,9.1,14.98,-4.97
2044.0,-8.581,-1.125,-4.917,-8.863,-2.254,-4.582,1.75,12.74,-3.08
,-8.504,-1.637,-4.609,-8.466,-1.991,-4.805,-1.4,11.97,-2.31
,-8.459,-2.024,-4.568,-8.488,-1.642,-4.838,-2.17,10.71,-0.91
,-8.643,-2.259,-4.611,-8.533,-1.283,-4.707,-0.42,10.36,1.05
2120.0,-8.516,-0.672,-4.874,-9.055,1.744,-5.353,12.53,8.26,6.72
,-8.411,-0.081,-5.035,-8.579,1.799,-5.781,12.11,8.26,6.23
,-8.622,0.658,-4.982,-8.756,1.46,-5.449,12.04,8.68,4.9
,-8.765,1.263,-5.138,-8.78,0.94,-5.389,10.01,8.4,3.08
2196.0,-8.868,0.249,-5.004,-8.303,-1.608,-4.762,3.01,6.23,-9.94
,-8.464,-0.282,-4.87,-8.222,-1.565,-5.099,5.11,6.23,-10.85
,-8.48,-0.976,-4.685,-8.306,-1.503,-5.355,5.74,6.51,-11.13
,-8.713,-1.35,-4.511,-8.351,-1.366,-5.611,5.95,5.18,-10.08
2271.0,-8.435,-1.405,-5.25,-8.562,-0.467,-5.047,4.97,6.65,-7.21
,-8.717,-1.285,-5.195,-8.375,-0.354,-5.224,5.04,6.3,-6.93
,-8.89,-1.266,-5.157,-8.193,-0.615,-5.217,4.76,6.09,-7.21
,-9.005,-1.055,-4.898,-8.133,-0.802,-5.243,3.99,5.53,-7.49
2347.0,-8.514,-0.821,-5.248,-8.428,-1.689,-5.427,-2.87,7.14,-6.02
,-8.351,-0.89,-5.427,-8.459,-2.113,-5.243,-1.47,6.86,-4.69
,-8.689,-1.039,-5.358,-8.882,-1.972,-5.401,-1.12,5.95,-3.36
,-8.701,-1.235,-5.37,-8.863,-1.788,-5.408,-1.75,3.64,-2.17
2422.0,-8.772,-1.51,-5.317,-8.564,-1.871,-5.303,6.3,0.98,0.63
,-8.241,-1.211,-5.336,-8.746,-1.749,-5.389,6.58,-0.77,1.47
,-7.865,-1.34,-5.303,-8.65,-1.809,-5.398,4.62,-1.05,2.17
,-8.083,-1.608,-5.238,-8.464,-1.383,-5.164,2.66,-0.7,3.78
2498.0,-8.595,-0.849,-5.324,-8.693,-0.617,-5.159,9.66,-1.54,8.54
,-8.722,-0.577,-5.193,-8.643,-0.345,-5.104,7.98,-1.54,7.91
,-8.672,-0.826,-5.197,-8.507,-0.416,-5.171,6.37,-1.4,8.26
,-8.588,-0.816,-5.193,-8.483,-0.665,-5.193,5.25,-1.47,8.4
2574.0,-8.476,-0.854,-5.059,-8.55,-1.041,-5.032,3.01,-0.63,5.39
,-8.559,-1.039,-5.181,-8.442,-1.058,-5.027,3.36,0.07,5.32
,-8.768,-1.055,-5.248,-8.684,-0.797,-5.006,3.92,0.42,5.39
,-8.66,-0.991,-5.142,-8.976,-0.79,-4.721,4.06,0.63,5.67
2650.0,-8.859,-0.792,-4.587,-8.449,0.084,-5.145,4.76,2.31,4.55
,-8.533,-0.503,-4.798,-8.5,0.141,-5.116,5.25,1.82,4.48
,-8.39,-0.182,-5.066,-8.818,0.211,-4.992,5.04,2.24,4.06
,-8.579,-0.055,-4.963,-8.72,0.235,-5.14,4.34,1.96,3.5
2725.0,-8.543,-0.079,-5.097,-8.452,-1.455,-4.879,-1.68,1.26,-3.57
,-8.598,-0.44,-4.999,-8.411,-1.522,-4.755,-3.22,1.4,-4.27
,-8.643,-0.869,-4.965,-8.39,-1.204,-4.874,-3.5,1.61,-4.2
,-8.715,-1.326,-4.937,-8.614,-1.07,-4.836,-2.31,1.89,-3.57
2801.0,-8.763,-1.117,-4.424,-8.44,-0.68,-4.834,3.5,2.66,-0.77
,-8.655,-0.878,-4.439,-8.464,-0.821,-4.791,2.8,2.87,-0.63
,-8.404,-0.493,-4.654,-8.387,-0.821,-4.652,1.33,3.01,-0.42
,-8.43,-0.519,-4.781,-8.358,-0.732,-4.692,-1.33,3.29,-0.42
2877.0,-8.402,-0.838,-4.671,-8.727,-1.249,-4.848,0.63,4.83,-0.28
,-8.555,-0.838,-4.616,-8.662,-1.292,-4.87,1.68,5.25,0.49
,-8.701,-0.912,-4.597,-8.526,-1.359,-5.044,2.31,5.81,1.47
,-8.734,-1.141,-4.685,-8.552,-1.285,-5.138,2.66,5.46,2.31
2953.0,-8.54,-0.931,-5.248,-8.741,-0.089,-6.169,6.37,6.3,4.69
,-8.562,-0.641,-5.669,-8.629,-0.16,-5.867,5.53,5.74,4.62
,-8.703,-0.546,-5.889,-8.658,-0.165,-5.714,3.99,5.46,4.34
,-8.83,-0.285,-5.942,-8.784,-0.182,-5.779,3.85,5.11,3.64
3029.0,-8.837,-0.294,-5.889,-8.241,-1.855,-5.681,0.49,2.45,-0.84
,-8.914,-0.517,-5.884,-8.497,-2.005,-5.458,-0.42,0.63,-0.98
,-8.579,-1.079,-5.781,-8.748,-1.819,-5.573,-2.31,-1.19,-0.42
,-8.267,-1.625,-5.75,-8.804,-1.534,-5.638,-3.43,-1.82,0.91
3104.0,-8.595,-1.493,-5.602,-8.179,-0.637,-6.073,-0.98,-1.96,8.12
,-8.502,-1.62,-5.501,-8.44,-0.129,-5.966,-3.57,-1.33,9.8
,-8.681,-1.524,-5.195,-8.789,0.05,-5.994,-4.27,-2.8,10.64
,-8.555,-1.062,-5.564,-8.796,0.151,-5.997,-2.73,-6.65,11.27
3180.0,-8.509,0.213,-6.066,-8.885,-0.29,-5.788,-0.35,-10.08,3.64
,-8.461,0.153,-6.104,-8.746,-0.361,-5.633,1.19,-9.17,2.31
,-8.521,-0.12,-5.954,-8.509,-0.507,-5.623,4.13,-8.26,0.77
,-8.844,-0.306,-5.693,-8.574,-0.909,-5.585,7.35,-7.35,-0.77
3255.0,-8.629,-1.314,-5.185,-8.382,-1.311,-5.248,8.96,-10.64,-0.98
,-8.435,-1.426,-5.291,-8.466,-1.295,-5.027,8.89,-12.81,0.0
,-8.361,-1.254,-5.441,-8.485,-1.275,-4.941,8.96,-13.65,1.61
,-8.387,-1.268,-5.322,-8.466,-1.381,-4.803,8.33,-13.93,3.22
3331.0,-8.526,-1.369,-4.652,-8.681,-0.182,-4.384,7.84,-16.03,10.01
,-8.488,-1.204,-4.977,-8.892,-0.074,-4.113,9.1,-16.45,11.13
,-8.655,-0.945,-4.274,-8.966,0.297,-3.946,10.99,-17.08,11.48
,-8.715,-0.847,-4.104,-8.882,0.579,-4.113,16.73,-18.41,12.11
3407.0,-8.859,0.44,-4.022,-8.981,-0.273,-3.649,9.1,-22.54,8.68
,-8.689,0.29,-4.001,-9.086,-0.139,-3.836,4.83,-23.03,7.42
,-8.823,0.38,-4.051,-9.076,-0.067,-3.75,1.75,-23.17,6.3
,-8.586,-0.141,-3.707,-8.813,-0.012,-3.757,-0.56,-22.61,5.11
3483.0,-8.842,-0.249,-3.771,-9.009,-0.84,-3.496,-2.1,-22.05,0.49
,-8.851,-0.488,-3.731,-9.057,-0.553,-3.568,-1.82,-21.91,0.07
,-8.765,-0.689,-3.771,-9.177,-0.249,-3.51,-1.33,-21.84,0.21
,-8.777,-0.84,-3.618,-9.103,-0.074,-3.518,0.14,-21.56,0.84
3558.0,-9.117,-0.048,-3.324,-9.15,-0.11,-3.503,1.4,-19.88,-0.49
,-9.012,-0.007,-3.415,-9.026,-0.517,-3.463,-1.26,-20.3,-1.47
,-9.1,0.0,-3.427,-9.06,-0.799,-3.381,-2.03,-20.3,-2.45
,-9.261,-0.005,-3.649,-9.17,-0.816,-3.515,-3.15,-20.3,-2.87
3634.0,-9.246,-0.66,-3.427,-9.217,-0.854,-3.321,0.7,-21.21,-3.71
,-9.328,-0.481,-3.47,-9.174,-1.161,-3.34,-0.56,-21.49,-3.36
,-9.019,-0.663,-3.625,-9.122,-1.441,-2.393,-5.18,-22.19,-3.78
,-9.055,-0.885,-3.204,-9.457,-1.11,-2.19,-5.95,-21.98,-3.36
3710.0,-9.572,-0.503,-3.259,-9.38,-1.017,-1.866,-0.98,-21.0,-3.43
,-9.299,-0.144,-3.307,-9.665,-0.168,-1.764,-6.02,-22.05,-3.43
,-9.105,-0.139,-2.943,-9.691,0.479,-2.718,-11.06,-20.86,-3.08
,-9.201,-0.826,-2.752,-9.416,0.479,-2.637,-12.74,-18.76,-3.64
3786.0,-9.385,-0.165,-2.295,-9.385,-0.199,-2.206,-15.4,-15.89,-5.32
,-9.253,-0.713,-1.91,-9.383,-0.526,-2.111,-16.03,-14.77,-5.67
,-9.328,-0.766,-1.273,-9.49,-0.861,-2.173,-9.31,-12.04,-5.32
,-9.462,-0.419,-1.864,-9.497,-1.122,-2.257,-5.39,-10.29,-5.46
3861.0,-9.433,-1.036,-2.046,-9.385,-0.579,-3.3,-2.1,-3.36,-3.64
,-9.493,-0.735,-2.221,-9.361,-0.692,-3.577,1.47,-1.75,-3.15
,-9.56,-0.519,-2.381,-9.282,-1.017,-3.448,2.8,-1.05,-3.15
,-9.634,-0.333,-3.374,-9.435,-1.094,-3.546,1.4,-1.89,-3.5
3937.0,-9.608,-0.998,-3.63,-9.579,-0.715,-2.778,10.71,-3.78,-2.03
,-9.268,-0.739,-3.242,-9.311,-0.677,-2.63,9.94,-5.18,-1.96
,-9.375,-0.833,-2.962,-9.387,-0.95,-2.467,9.1,-5.25,-1.61
,-9.586,-0.919,-2.989,-9.416,-1.137,-2.053,8.89,-6.02,-1.75
4013.0,-9.572,-0.732,-2.067,-9.459,-0.838,-2.268,7.84,-4.13,-0.84
,-9.533,-0.555,-2.173,-9.387,-0.854,-2.314,6.44,-3.57,-0.84
,-9.543,-0.759,-1.996,-9.454,-0.9,-2.319,5.18,-2.8,-0.63
,-9.541,-0.833,-2.23,-9.749,-0.682,-2.462,4.9,-1.89,-0.42
4088.0,-9.411,-0.438,-2.28,-9.569,-0.78,-2.455,1.82,-0.56,-0.56
,-9.349,-0.727,-1.869,-9.495,-0.782,-2.704,-1.12,0.56,-0.49
,-9.612,-1.041,-1.737,-9.409,-1.01,-2.907,-0.84,1.89,-0.21
,-9.818,-0.866,-2.209,-9.325,-1.055,-2.807,1.05,2.17,0.0
4164.0,-9.407,-0.823,-2.556,-9.478,-0.615,-3.032,4.34,3.71,1.12
,-9.596,-0.56,-2.56,-9.337,-0.983,-2.898,4.62,3.92,0.84
,-9.706,-0.366,-2.685,-9.414,-1.122,-2.946,2.45,3.29,0.21
,-9.581,-0.457,-2.778,-9.392,-0.957,-2.867,-0.14,2.8,-0.21
4240.0,-9.349,-0.751,-2.692,-9.495,-0.481,-3.017,6.37,3.15,1.68
,-9.684,-0.804,-2.623,-9.34,-0.596,-3.051,5.74,3.29,1.61
,-9.749,-0.684,-2.721,-9.313,-0.761,-2.96,3.99,2.1,1.12
,-9.598,-0.421,-2.905,-9.418,-0.938,-2.821,0.49,0.84,0.49
4316.0,-9.543,-0.919,-2.443,-9.478,-0.512,-2.398,-3.43,1.12,-0.35
,-9.631,-0.723,-2.271,-9.409,-0.66,-2.436,-1.82,1.68,-0.14
,-9.739,-0.615,-2.343,-9.519,-0.759,-2.343,-2.1,1.54,-0.28
,-9.6,-0.526,-2.489,-9.552,-0.658,-2.446,-3.15,1.68,-0.28
4391.0,-9.457,-0.656,-2.453,-9.445,-0.854,-2.771,-1.54,4.83,-0.07
,-9.519,-0.775,-2.529,-9.318,-0.893,-2.697,-0.42,5.46,0.21
,-9.526,-0.871,-2.517,-9.44,-0.89,-2.673,0.63,5.67,0.35
,-9.598,-0.873,-2.685,-9.588,-0.828,-2.769,2.24,5.67,0.7
4467.0,-9.447,-0.737,-2.663,-9.478,-0.773,-2.063,4.2,5.74,1.47
,-9.433,-0.854,-2.534,-9.622,-0.699,-1.723,2.31,6.02,1.47
,-9.337,-1.041,-2.398,-9.581,-0.428,-1.735,1.4,6.37,1.61
,-9.438,-1.046,-2.094,-9.521,-0.182,-1.481,2.52,6.93,1.68
4543.0,-9.61,-0.179,-1.754,-9.301,-0.818,-2.534,-4.27,11.69,0.63
,-9.485,-0.436,-1.766,-9.16,-0.95,-2.201,-8.05,13.09,0.56
,-9.488,-0.641,-2.292,-9.208,-0.976,-1.823,-10.64,13.44,0.42
,-9.423,-0.732,-2.563,-9.323,-0.95,-1.866,-11.55,13.3,0.56
4619.0,-9.648,-0.414,-1.785,-9.05,-0.96,-2.745,-1.54,20.86,1.54
,-9.536,0.249,-2.249,-9.517,-1.357,-2.867,-3.29,19.39,0.07
,-9.361,0.591,-2.304,-9.404,-1.077,-4.829,-9.45,19.32,-0.84
,-9.024,0.084,-2.69,-8.897,-1.314,-4.609,-18.55,20.16,-1.26
4694.0,-8.5,-1.519,-4.482,-9.792,-0.275,-3.764,-14.56,17.01,2.73
,-8.44,-1.78,-3.833,-9.445,0.108,-4.463,-7.91,20.93,3.92
,-9.258,-1.972,-3.166,-8.966,-0.459,-3.922,3.99,23.66,5.39
,-9.732,-1.304,-3.604,-9.062,-0.857,-3.573,13.44,20.65,5.39
4770.0,-9.04,-0.826,-3.58,-8.725,-1.213,-4.116,9.94,20.58,5.25
,-9.296,-0.237,-3.676,-8.839,-1.278,-3.197,15.19,18.83,4.83
,-9.112,0.053,-4.195,-9.251,-0.45,-3.259,13.79,16.8,4.2
,-8.794,-0.44,-4.448,-9.323,0.51,-3.154,8.61,17.43,4.48
4845.0,-9.61,1.192,-3.692,-9.043,-0.794,-3.149,15.05,17.85,1.26
,-9.32,0.816,-4.054,-9.416,-0.684,-4.022,1.4,16.17,0.28
,-9.234,-0.012,-3.915,-9.275,-0.895,-4.611,-8.89,16.8,-0.42
,-8.844,-0.699,-3.53,-8.825,-1.642,-4.812,-12.18,18.27,-0.7
4921.0,-8.165,-2.132,-4.384,-9.483,0.007,-3.826,-5.74,16.03,3.99
,-8.234,-1.929,-4.118,-9.165,0.01,-3.618,4.13,16.38,3.92
,-8.918,-1.228,-3.463,-8.863,0.036,-3.549,14.07,15.82,2.73
,-9.416,-0.395,-3.697,-8.952,0.122,-3.302,17.71,14.28,2.24
4997.0,-9.198,0.318,-4.233,-8.741,-0.065,-4.434,2.87,16.8,2.73
,-9.107,0.175,-4.427,-9.174,-0.361,-4.027,0.56,15.33,2.03
,-8.88,0.144,-4.537,-9.469,-0.665,-4.195,-0.28,14.7,0.98
,-8.557,0.141,-4.535,-9.043,-1.268,-4.468,0.49,16.17,-0.56
5073.0,-8.83,-1.795,-4.307,-9.107,0.122,-5.31,6.09,17.08,1.4
,-8.495,-1.984,-4.508,-9.229,0.541,-5.367,8.75,17.15,3.15
,-8.406,-1.768,-4.535,-8.861,0.311,-5.233,14.28,17.5,3.99
,-8.607,-0.89,-5.013,-8.679,-0.299,-4.748,19.88,16.45,3.64
5149.0,-8.82,-0.778,-4.681,-8.765,-2.19,-5.063,-0.91,15.96,-0.56
,-9.103,-1.036,-4.81,-8.909,-2.156,-5.09,0.77,14.84,-0.56
,-9.136,-1.194,-4.901,-8.65,-1.536,-5.571,2.31,12.95,0.56
,-8.768,-1.601,-5.071,-8.751,-1.017,-5.188,3.43,11.62,2.59
5224.0,-8.794,-0.163,-5.138,-8.835,-0.129,-4.52,17.15,1.12,6.86
,-8.588,0.524,-5.391,-8.835,-0.084,-4.831,11.34,0.07,6.16
,-8.547,0.507,-5.257,-8.732,-0.529,-4.424,3.36,0.21,5.88
,-8.552,0.187,-5.071,-8.93,-0.361,-4.456,-2.73,0.77,5.32
5300.0,-9.119,-0.12,-4.628,-8.605,0.553,-4.606,3.85,-0.07,3.57
,-8.983,0.151,-4.891,-8.483,0.057,-4.616,7.35,-0.21,2.24
,-8.827,0.412,-4.939,-8.693,-0.727,-4.585,11.06,-0.35,0.35
,-8.916,0.579,-4.628,-9.064,-1.594,-4.424,12.39,-0.56,-1.54
5376.0,-9.241,-1.665,-4.609,-8.902,-1.378,-4.616,6.79,-0.07,-3.01
,-8.871,-1.639,-4.688,-9.229,-0.747,-4.788,7.98,-0.21,-2.38
,-8.397,-1.802,-4.704,-9.009,-0.273,-4.759,7.56,-0.28,-1.33
,-8.327,-1.766,-4.547,-8.976,-0.043,-4.771,8.26,0.28,-0.42
5452.0,-9.048,0.026,-4.611,-8.569,-0.268,-4.48,7.21,-0.7,-1.61
,-8.897,0.072,-4.427,-8.289,-1.28,-4.377,6.86,-0.42,-2.66
,-8.794,0.014,-4.317,-8.454,-1.953,-4.288,6.51,0.07,-3.92
,-8.861,0.122,-4.451,-8.804,-1.656,-4.429,5.74,-0.28,-4.06
5527.0,-8.949,-1.077,-4.58,-8.918,-0.617,-4.006,14.07,0.98,2.66
,-9.0,-0.692,-4.357,-8.373,-0.849,-3.953,15.4,0.91,1.89
,-9.127,-0.493,-4.267,-8.313,-0.893,-4.121,14.21,1.61,0.63
,-9.313,-0.574,-3.944,-8.545,-0.838,-4.183,11.83,2.03,0.14
5603.0,-8.921,-0.766,-4.264,-8.729,-0.9,-4.305,8.96,6.37,2.45
,-8.952,-0.744,-4.415,-8.631,-0.792,-4.532,9.45,6.58,3.22
,-8.89,-0.914,-4.36,-8.899,-0.433,-4.549,9.52,7.56,3.85
,-8.837,-1.113,-3.972,-9.019,-0.191,-4.628,9.87,7.98,4.55
5678.0,-9.11,-0.132,-4.996,-8.526,-1.208,-4.848,5.74,8.4,3.15
,-9.026,-0.495,-4.96,-8.605,-0.641,-4.836,2.59,8.05,2.8
,-8.839,-0.849,-4.834,-8.55,-0.074,-5.327,0.91,7.28,2.94
,-8.545,-1.242,-4.831,-8.581,-0.045,-5.353,0.56,7.35,3.43
5754.0,-8.914,-0.081,-5.262,-8.887,-1.383,-4.913,-3.22,6.58,1.26
,-9.098,-0.388,-5.063,-8.99,-1.594,-4.7,-4.48,6.02,0.91
,-8.854,-0.749,-5.08,-8.78,-1.601,-4.614,-4.83,5.53,0.77
,-8.748,-1.062,-5.097,-8.739,-1.149,-4.75,-4.34,5.25,0.77
5830.0,-8.71,-0.648,-4.759,-8.873,-0.163,-4.635,3.22,7.07,2.94
,-8.614,-0.266,-4.654,-8.985,-0.165,-4.604,2.17,7.49,3.36
,-8.655,-0.067,-4.805,-8.655,-0.079,-4.896,0.0,7.84,3.5
,-8.72,0.014,-4.826,-8.449,-0.026,-5.049,-2.38,8.33,3.5
5906.0,-8.681,-0.089,-5.073,-8.83,-0.964,-5.181,-4.62,5.39,2.1
,-8.899,-0.294,-5.004,-8.945,-0.854,-5.367,-4.69,5.04,1.26
,-9.002,-0.66,-4.697,-9.021,-0.715,-5.406,-4.76,5.18,0.77
,-8.926,-0.943,-4.834,-9.069,-0.706,-5.293,-3.64,5.25,0.91
5981.0,-8.784,-0.883,-5.205,-8.768,-0.84,-5.305,-1.05,2.24,0.0
,-8.445,-1.06,-4.975,-8.528,-0.814,-5.413,-2.1,2.38,0.77
,-8.413,-1.05,-4.977,-8.591,-1.06,-5.044,-2.38,2.94,1.54
,-8.634,-0.967,-5.078,-8.763,-1.235,-4.879,-2.17,3.22,1.82
6057.0,-8.497,-1.33,-5.068,-8.492,-0.567,-5.355,-1.33,1.96,5.25
,-8.445,-1.223,-5.061,-8.634,-0.479,-5.382,1.33,1.75,5.88
,-8.612,-1.043,-5.173,-8.648,-0.45,-5.394,3.5,-0.07,6.3
,-8.605,-0.739,-5.365,-8.677,-0.376,-5.398,4.76,-1.26,6.72
6132.0,-8.746,-0.342,-5.305,-8.76,-0.629,-4.972,11.2,-0.77,4.13
,-8.926,-0.141,-5.197,-8.918,-0.55,-5.138,10.36,-1.19,4.27
,-8.672,-0.278,-5.303,-8.777,-0.512,-5.24,8.75,-1.68,4.2
,-8.459,-0.519,-5.114,-8.722,-0.438,-5.26,8.12,-1.33,3.64
6208.0,-8.526,-0.129,-5.406,-9.134,-0.323,-4.738,11.27,-6.09,3.92
,-8.337,-0.239,-5.25,-8.737,-0.139,-4.807,10.22,-6.44,3.5
,-8.512,-0.486,-4.972,-8.55,-0.096,-4.956,9.1,-5.88,3.08
,-9.024,-0.505,-4.759,-8.583,-0.148,-4.989,8.19,-7.35,3.01
6284.0,-8.66,-0.225,-4.96,-8.823,-0.581,-4.752,-0.77,-12.39,2.24
,-8.674,-0.163,-4.843,-8.705,-0.596,-4.664,-1.26,-12.67,2.1
,-8.825,-1.151,-3.975,-8.691,-0.498,-4.702,-1.75,-12.88,0.98
,-8.971,-0.735,-4.877,-8.768,-0.266,-4.74,-1.33,-14.84,1.61
6360.0,-8.729,-0.057,-4.654,-8.875,-0.404,-4.578,0.56,-15.47,2.17
,-8.832,-0.266,-4.511,-8.942,-0.416,-4.41,-0.07,-13.86,1.61
,-8.942,-0.452,-4.346,-9.091,-0.55,-4.29,-0.63,-12.67,0.91
,-9.012,-0.543,-4.408,-8.78,-0.498,-4.417,0.35,-11.97,0.77
6436.0,-8.715,-0.479,-4.413,-8.997,-0.12,-4.214,5.67,-9.38,2.1
,-8.674,-0.605,-4.453,-8.961,0.007,-4.101,5.46,-9.38,2.38
,-8.748,-0.761,-4.357,-8.837,0.022,-4.183,5.6,-9.8,2.38
,-8.751,-0.45,-4.295,-8.794,-0.117,-4.094,8.05,-10.43,2.31
6511.0,-8.806,-0.33,-3.886,-9.323,0.146,-3.522,2.87,-10.5,2.59
,-8.849,-0.469,-3.644,-9.299,0.101,-3.757,4.69,-10.15,2.1
,-8.997,-0.38,-3.575,-9.052,-0.273,-3.465,6.86,-10.36,1.68
,-9.129,-0.129,-3.448,-9.155,-0.591,-3.542,7.42,-10.99,1.4
6587.0,-9.002,-0.871,-3.877,-8.933,-0.579,-4.19,-6.02,-13.44,-2.38
,-8.926,-0.632,-4.35,-8.775,-0.617,-4.075,-6.3,-15.05,-2.38
,-8.904,-0.608,-3.941,-8.813,-0.828,-3.769,-5.25,-14.28,-1.61
,-9.043,-0.644,-3.891,-9.048,-1.036,-3.848,-4.13,-13.93,-1.89
6663.0,-9.103,-1.041,-3.604,-9.313,-0.127,-3.233,0.07,-16.45,-0.77
,-9.268,-0.809,-3.546,-9.158,0.235,-3.841,3.22,-15.82,-0.28
,-9.136,-0.689,-3.151,-9.024,0.302,-3.807,4.55,-14.28,0.42
,-9.206,-0.498,-2.833,-9.009,-0.089,-3.92,5.88,-13.09,0.42
6739.0,-9.375,-0.297,-3.707,-8.622,-0.328,-3.553,1.61,-15.47,-2.24
,-9.469,-0.069,-4.355,-8.923,-0.89,-2.895,1.47,-17.71,-4.69
,-9.34,0.593,-4.001,-9.445,-0.792,-2.419,0.56,-19.25,-5.6
,-9.213,0.603,-4.673,-9.763,-0.51,-2.52,-6.51,-21.42,-6.58
6814.0,-9.476,-0.026,-2.359,-9.385,-0.9,-1.998,-9.31,-19.18,-8.26
,-9.227,-0.364,-2.259,-9.581,-0.462,-2.589,-17.36,-18.41,-8.12
,-9.107,-1.062,-2.115,-9.404,-0.23,-2.843,-19.53,-16.38,-7.42
,-9.227,-1.237,-1.919,-9.301,-0.12,-2.934,-14.21,-13.72,-6.44
6890.0,-9.241,-0.345,-3.037,-9.366,-0.967,-2.931,-11.13,-9.38,-6.16
,-9.39,-0.605,-3.178,-9.557,-1.117,-2.826,-10.92,-9.52,-6.3
,-9.258,-0.577,-3.015,-9.44,-1.017,-2.747,-9.38,-9.31,-5.88
,-9.342,-0.632,-2.991,-9.378,-0.859,-2.534,-8.19,-8.75,-5.74
6965.0,-9.409,-0.756,-2.737,-9.569,-0.66,-2.536,3.29,-5.25,-2.66
,-9.265,-0.859,-2.474,-9.5,-0.44,-2.659,5.18,-3.99,-1.96
,-9.428,-0.878,-2.338,-9.423,-0.445,-2.828,7.84,-2.73,-1.19
,-9.409,-0.833,-2.304,-9.344,-0.591,-2.773,9.66,-1.89,-0.91
7041.0,-9.351,-0.771,-2.627,-9.67,-0.263,-3.032,6.86,0.28,-1.05
,-9.354,-1.005,-2.345,-9.387,-0.304,-3.391,8.82,1.68,-0.56
,-9.495,-1.089,-2.146,-9.201,-0.668,-3.355,11.97,2.87,0.07
,-9.677,-0.677,-2.534,-9.079,-0.974,-3.199,13.02,2.31,0.07
7117.0,-9.191,-1.139,-2.764,-9.557,-0.38,-2.79,6.09,1.47,0.0
,-9.423,-1.086,-2.625,-9.409,-0.474,-3.025,9.59,2.31,0.7
,-9.643,-0.926,-2.477,-9.234,-0.699,-3.032,11.27,2.31,1.05
,-9.696,-0.589,-2.668,-9.277,-0.794,-3.017,10.29,1.61,0.84
7193.0,-9.375,-0.854,-2.833,-9.603,-0.421,-2.498,5.32,2.45,0.63
,-9.454,-0.771,-2.565,-9.512,-0.464,-2.828,6.51,3.01,0.84
,-9.531,-0.581,-2.285,-9.435,-0.749,-3.151,6.44,3.43,0.7
,-9.627,-0.474,-2.338,-9.368,-0.876,-3.321,5.74,3.85,0.7
7269.0,-9.349,-0.79,-3.644,-9.361,-0.737,-3.137,0.56,3.36,-0.14
,-9.196,-0.72,-3.668,-9.521,-0.778,-3.01,1.54,2.87,0.07
,-9.296,-0.72,-3.518,-9.512,-0.826,-3.082,2.17,2.66,0.35
,-9.316,-0.756,-3.355,-9.488,-0.759,-3.147,3.5,2.38,0.49
7344.0,-9.433,-0.742,-3.171,-9.368,-0.83,-2.876,5.25,1.47,1.12
,-9.361,-0.797,-3.254,-9.378,-0.768,-2.644,3.85,1.05,0.98
,-9.256,-0.876,-3.116,-9.488,-0.73,-2.402,3.78,1.05,1.19
,-9.342,-0.804,-3.087,-9.514,-0.608,-2.465,4.41,0.98,1.26
7420.0,-9.512,-0.495,-2.539,-9.433,-0.727,-2.618,6.58,3.15,1.89
,-9.488,-0.5,-2.534,-9.407,-0.687,-2.635,4.9,3.43,1.75
,-9.421,-0.608,-2.577,-9.347,-0.715,-2.673,3.85,4.2,1.75
,-9.361,-0.708,-2.584,-9.359,-0.768,-2.836,3.36,4.76,1.68
7496.0,-9.284,-0.945,-2.735,-9.622,-0.412,-2.639,3.92,7.21,2.38
,-9.335,-1.046,-2.529,-9.55,-0.476,-2.91,5.25,8.19,2.66
,-9.38,-0.924,-2.331,-9.332,-0.864,-2.974,7.49,8.89,2.8
,-9.591,-0.577,-2.503,-9.249,-1.077,-2.955,8.89,9.17,2.87
7572.0,-9.404,-1.06,-3.36,-9.117,-0.517,-3.8,1.96,9.59,3.01
,-9.521,-0.768,-3.661,-9.351,-0.708,-3.568,3.01,8.19,2.59
,-9.383,-0.11,-4.011,-9.462,-0.471,-3.695,0.98,6.23,2.1
,-9.117,-0.031,-4.094,-9.517,-0.223,-3.8,-3.99,5.18,1.68
7647.0,-9.409,-0.081,-3.81,-9.517,-0.273,-1.948,-8.12,0.63,-0.35
,-9.189,-0.06,-3.372,-9.612,-0.366,-2.022,-12.25,-0.14,-1.12
,-9.237,-0.177,-2.852,-9.581,-0.524,-2.146,-14.07,0.56,-1.54
,-9.402,-0.359,-2.216,-9.414,-0.823,-2.125,-14.91,1.61,-1.82
7723.0,-9.395,-0.916,-1.9,-9.213,-1.187,-2.065,-22.05,6.72,-1.68
,-9.359,-0.794,-1.871,-9.007,-1.462,-1.797,-18.34,9.31,-1.12
,-9.292,-0.55,-2.204,-9.206,-1.206,-1.649,-15.96,11.34,-1.05
,-9.227,-0.823,-2.137,-9.579,-0.337,-2.493,-15.61,13.51,-0.35
7798.0,-9.313,0.838,-3.362,-8.966,-1.694,-3.429,1.54,17.78,1.26
,-9.172,1.259,-3.616,-9.198,-1.347,-3.68,-3.5,16.66,0.14
,-8.957,0.603,-3.932,-9.217,-0.079,-3.692,-13.16,17.43,-0.28
,-8.863,-0.871,-3.999,-9.167,0.378,-4.022,-18.76,19.88,0.35
7874.0,-9.244,0.266,-3.69,-9.371,-0.754,-3.74,12.32,19.18,-0.7
,-8.94,-0.629,-3.443,-9.375,-0.797,-4.18,8.96,21.21,-0.49
,-8.703,-1.216,-1.823,-8.78,-1.455,-4.456,13.3,25.34,0.21
,-9.507,-1.046,-2.335,-8.545,-1.419,-3.97,16.38,23.8,-1.26
7950.0,-8.423,-0.821,-4.456,-9.107,-0.522,-3.431,7.56,21.98,1.26
,-8.741,-0.27,-4.7,-9.378,-0.55,-3.558,8.68,21.14,0.14
,-8.849,-0.242,-4.326,-9.636,-0.598,-4.487,5.67,21.56,-0.07
,-8.971,-0.388,-3.781,-9.136,-0.72,-5.336,4.55,22.82,0.21
8026.0,-8.641,-1.256,-5.676,-9.213,-1.646,-4.774,2.1,13.86,2.8
,-8.289,-2.072,-5.432,-9.385,-1.385,-4.791,3.57,15.54,3.71
,-8.382,-2.312,-4.716,-9.146,-1.266,-4.755,10.36,17.08,4.48
,-8.923,-2.072,-4.566,-8.691,-1.122,-4.379,16.17,15.89,5.32
8101.0,-8.753,-1.031,-4.52,-8.806,0.83,-4.992,6.44,11.06,9.8
,-8.703,-0.658,-4.786,-8.727,0.558,-4.544,7.0,10.01,9.38
,-8.909,-0.134,-4.963,-8.799,0.01,-3.999,8.05,9.45,9.52
,-8.918,0.438,-5.073,-9.174,-0.658,-3.549,7.91,8.33,9.31
8177.0,-9.294,-0.775,-3.597,-8.55,-0.4,-4.441,8.54,9.73,7.35
,-9.335,-0.665,-3.599,-8.727,-0.136,-4.661,10.15,9.1,8.26
,-9.273,-0.426,-3.702,-8.847,0.337,-4.712,9.24,6.93,8.68
,-8.672,-0.357,-4.374,-9.112,0.632,-4.322,5.67,6.51,8.47
8253.0,-8.808,0.723,-4.563,-9.134,-0.754,-3.941,-1.68,5.04,3.5
,-8.39,0.115,-4.477,-9.287,-0.084,-3.939,-7.84,5.81,3.85
,-8.574,-0.555,-4.264,-9.505,0.436,-3.845,-9.45,7.35,3.99
,-8.842,-0.881,-4.056,-8.693,0.792,-4.444,-4.97,9.1,3.78
8329.0,-8.308,0.445,-4.508,-8.892,0.089,-4.748,0.84,8.19,1.19
,-8.617,-0.065,-4.434,-8.923,-0.043,-4.59,-1.89,9.94,0.77
,-9.198,-0.048,-4.558,-8.782,-0.646,-4.69,-0.91,9.45,-0.07
,-9.026,0.06,-4.836,-8.744,-1.108,-4.733,1.19,8.68,-1.4
8405.0,-8.933,-1.074,-4.549,-8.935,-0.122,-4.204,3.85,10.71,-3.01
,-8.894,-0.419,-4.838,-8.765,-0.412,-4.085,8.47,9.94,-3.57
,-8.689,-0.048,-4.932,-8.6,-0.601,-4.343,10.29,9.8,-4.34
,-8.763,-0.053,-4.259,-8.753,-0.517,-4.819,9.38,10.78,-4.76
8480.0,-8.832,-0.543,-4.879,-8.696,-0.225,-5.075,11.06,11.76,-5.32
,-8.72,-0.062,-5.011,-8.894,-0.653,-4.989,12.95,10.5,-5.95
,-8.464,0.342,-5.303,-8.926,-0.627,-4.992,12.46,9.45,-7.49
,-8.629,0.22,-5.154,-8.815,-0.479,-5.078,10.01,9.24,-8.54
8556.0,-8.758,-0.426,-5.238,-8.165,-2.324,-5.477,5.81,8.96,-11.97
,-8.847,-0.297,-5.217,-8.284,-2.668,-5.43,4.34,7.84,-12.53
,-8.524,-0.572,-5.406,-8.294,-2.867,-5.085,1.4,6.09,-11.55
,-8.282,-1.371,-5.659,-9.031,-2.62,-4.709,-1.33,5.6,-9.24
8631.0,-8.863,-1.948,-4.692,-8.366,-1.292,-5.193,14.28,3.22,3.01
,-8.595,-1.675,-4.738,-8.131,-0.598,-5.52,11.9,3.01,4.48
,-8.746,-1.551,-4.865,-8.198,0.103,-5.654,9.52,2.87,5.95
,-8.559,-1.445,-4.992,-8.648,0.067,-5.324,8.12,3.15,7.21
8707.0,-8.971,0.12,-5.171,-8.72,-1.058,-4.597,8.12,1.19,8.05
,-8.921,-0.055,-4.977,-8.619,-1.491,-4.511,7.56,1.12,7.14
,-8.77,-0.225,-4.752,-8.672,-1.342,-4.726,8.33,1.68,5.88
,-8.854,-0.467,-4.712,-8.672,-0.921,-4.975,8.61,1.75,4.97
8783.0,-8.715,-0.29,-5.209,-8.574,-1.194,-4.908,12.32,4.41,6.72
,-8.703,-0.153,-5.272,-8.725,-1.05,-4.822,9.87,4.76,5.67
,-8.871,-0.627,-4.944,-8.435,-0.89,-4.872,6.86,4.62,5.32
,-8.756,-1.024,-4.834,-8.337,-0.519,-5.099,6.09,4.9,5.67
8859.0,-8.545,-0.256,-5.164,-8.49,-0.455,-5.023,5.95,5.53,5.53
,-8.784,0.065,-5.25,-8.459,-0.715,-5.068,5.32,5.11,3.85
,-8.799,0.404,-5.26,-8.686,-0.845,-5.145,3.99,4.41,2.38
,-8.624,0.191,-5.229,-8.744,-0.809,-5.193,0.84,4.2,1.26
8934.0,-8.693,-0.704,-5.09,-8.911,-0.483,-5.284,3.5,5.39,0.84
,-8.612,-0.543,-4.96,-9.019,-0.103,-5.341,3.29,4.76,0.91
,-8.418,-0.775,-5.035,-9.031,-0.002,-5.255,1.19,4.69,1.19
,-8.591,-0.878,-5.087,-9.062,0.223,-5.209,1.26,5.32,0.98
9010.0,-8.748,0.146,-5.049,-8.808,0.072,-5.441,-3.01,2.31,-1.68
,-8.373,0.175,-5.214,-8.61,-0.294,-5.406,-4.41,1.19,-1.82
,-8.445,0.292,-5.37,-8.5,-0.617,-5.37,-4.9,0.63,-2.59
,-8.801,0.242,-5.329,-8.332,-0.964,-5.513,-5.46,0.21,-3.85
9086.0,-8.418,-1.369,-5.48,-8.404,-1.991,-4.994,-9.17,0.0,-2.24
,-8.971,-1.563,-5.226,-8.253,-1.941,-5.08,-7.07,-0.49,-1.68
,-8.971,-1.725,-5.209,-8.141,-1.687,-5.274,-5.74,-1.05,-1.05
,-8.674,-1.855,-5.14,-8.33,-1.414,-5.441,-5.04,-0.49,0.28
9162.0,-8.66,-1.146,-5.463,-8.44,-0.668,-5.269,-1.54,-3.43,7.14
,-8.804,-1.089,-5.391,-8.574,-0.395,-5.264,-1.89,-4.13,7.49
,-8.744,-1.098,-5.166,-8.775,-0.199,-5.229,-2.59,-4.34,7.7
,-8.588,-0.943,-5.248,-9.06,-0.136,-5.099,-1.47,-4.62,8.12
9237.0,-8.993,-0.017,-5.343,-8.813,-0.366,-5.257,5.74,-8.33,4.62
,-8.469,0.213,-5.578,-8.94,-0.17,-5.264,4.06,-9.38,5.32
,-8.117,-0.309,-5.382,-8.796,-0.184,-5.243,3.08,-8.4,5.04
,-8.471,-0.548,-5.389,-8.698,-0.447,-5.243,5.88,-8.68,3.5
9313.0,-8.787,-0.634,-5.087,-8.141,-0.261,-5.408,13.23,-4.13,0.91
,-9.074,-0.637,-4.915,-8.416,-0.617,-5.205,14.42,-5.88,1.12
,-8.875,-0.445,-4.929,-8.693,-0.634,-4.865,12.74,-10.29,1.82
,-8.591,-0.103,-5.114,-8.677,-0.857,-4.886,7.84,-15.96,2.24
9389.0,-8.734,-0.78,-5.274,-8.581,-1.223,-4.456,3.99,-15.4,2.38
,-8.701,-0.995,-4.776,-8.777,-1.007,-4.453,2.73,-14.35,4.06
,-8.545,-1.134,-4.798,-8.82,-0.625,-4.367,5.18,-12.39,5.32
,-8.483,-1.256,-4.752,-8.983,-0.22,-4.348,8.96,-10.22,6.3
9464.0,-9.043,0.002,-4.582,-8.672,-0.352,-4.252,14.63,-12.11,9.52
,-8.815,-0.043,-4.539,-8.835,-0.153,-4.221,11.27,-12.25,9.38
,-8.717,-0.057,-4.57,-8.945,-0.031,-4.238,9.1,-12.04,9.1
,-8.624,-0.17,-4.551,-8.997,0.036,-4.152,7.49,-12.11,8.61
9540.0,-8.875,0.237,-4.054,-8.861,0.447,-3.757,10.36,-14.07,6.44
,-8.949,0.421,-3.881,-8.684,-0.201,-3.518,9.1,-14.56,4.9
,-9.057,0.735,-3.814,-8.961,-0.905,-3.489,7.14,-15.75,3.01
,-9.064,0.814,-3.793,-8.985,-1.223,-3.29,2.73,-16.45,1.33
9616.0,-9.057,-1.096,-3.032,-9.093,-0.479,-3.944,0.56,-15.33,0.49
,-9.241,-0.689,-3.041,-8.784,-0.893,-3.877,4.13,-15.4,0.56
,-9.172,-0.297,-3.515,-8.971,-0.902,-3.814,3.01,-16.38,0.49
,-9.124,-0.189,-3.683,-9.019,-0.364,-3.697,-1.19,-16.31,1.33
9692.0,-9.103,-0.105,-3.475,-9.198,-0.27,-3.211,1.54,-15.89,-0.21
,-8.94,-0.11,-3.257,-9.387,-0.187,-3.549,-1.05,-15.54,-0.07
,-9.119,-0.244,-2.931,-9.225,0.01,-4.027,-2.03,-14.56,-0.07
,-9.258,-0.251,-3.494,-9.112,0.026,-4.334,-2.87,-14.56,-0.7
9767.0,-8.954,-0.101,-4.128,-9.184,-1.046,-3.185,-8.12,-16.1,-2.66
,-9.184,-0.534,-3.745,-9.196,-0.94,-3.151,-7.84,-15.26,-3.08
,-9.194,-0.895,-3.518,-9.165,-1.041,-3.324,-6.86,-14.77,-3.78
,-9.234,-1.048,-3.149,-9.261,-1.015,-3.101,-3.64,-13.44,-3.22
9843.0,-9.356,-0.687,-3.379,-9.241,-0.412,-3.879,8.54,-10.85,1.54
,-9.16,-0.156,-3.348,-9.268,-0.28,-3.089,11.55,-11.2,1.68
,-9.127,0.146,-3.893,-9.471,-0.165,-3.443,8.75,-12.32,1.26
,-9.165,-0.115,-3.587,-9.325,-0.108,-2.788,5.46,-12.53,1.33
9919.0,-9.538,-0.101,-2.635,-9.411,-0.325,-2.194,0.14,-14.0,-2.59
,-9.383,0.359,-2.017,-9.311,-0.541,-2.134,-2.66,-13.79,-3.71
,-9.572,0.244,-2.333,-9.399,-0.596,-2.113,-7.14,-13.79,-4.83
,-9.349,0.215,-2.257,-9.497,-0.328,-2.424,-11.34,-12.95,-5.39
9995.0,-9.414,-0.017,-2.735,-9.433,-0.83,-2.087,-3.85,-7.42,-4.2
,-9.251,-0.299,-2.491,-9.622,-0.73,-2.448,-6.37,-6.44,-4.27
,-9.38,-0.668,-2.448,-9.588,-0.665,-2.462,-7.49,-5.25,-4.13
,-9.428,-0.928,-2.333,-9.414,-0.816,-2.587,-5.46,-3.85,-3.71
10070.0,-9.337,-0.751,-2.539,-9.282,-0.687,-3.01,2.8,1.75,-1.12
,-9.737,-0.531,-3.02,-9.438,-0.921,-2.697,3.92,1.19,-1.68
,-9.469,0.043,-3.35,-9.447,-0.584,-2.886,0.63,-0.42,-2.38
,-9.182,-0.144,-3.228,-9.32,-0.541,-2.52,-3.99,-0.28,-2.73
10146.0,-9.538,-0.483,-2.659,-9.117,-0.656,-3.958,3.71,3.99,-0.91
,-9.545,-0.323,-2.828,-9.122,-0.964,-3.912,3.5,3.78,-1.12
,-9.505,-0.091,-3.424,-9.165,-1.06,-3.771,1.82,3.29,-1.33
,-9.368,-0.29,-3.798,-9.256,-1.07,-3.369,-0.7,2.73,-1.47
10221.0,-9.373,-0.962,-2.836,-9.39,-0.184,-2.804,15.89,4.13,1.68
,-9.588,-0.696,-2.532,-9.306,-0.565,-2.929,17.5,4.41,1.89
,-9.682,-0.51,-2.283,-9.268,-0.771,-2.922,15.82,4.06,1.54
,-9.581,-0.129,-2.565,-9.354,-0.847,-2.809,12.6,3.5,1.12
10297.0,-9.488,-0.622,-2.838,-9.148,-0.431,-3.568,9.59,4.76,1.26
,-9.512,-0.285,-2.979,-9.198,-0.749,-3.642,9.52,4.41,1.19
,-9.61,-0.199,-3.307,-9.261,-0.905,-3.384,6.3,3.43,0.42
,-9.366,-0.218,-3.47,-9.38,-0.689,-3.149,1.96,2.24,-0.21
10373.0,-9.469,-0.684,-2.757,-9.43,-0.467,-2.754,3.99,1.4,0.63
,-9.481,-0.613,-2.491,-9.38,-0.581,-2.8,4.48,2.24,0.84
,-9.538,-0.479,-2.541,-9.387,-0.713,-2.814,4.06,2.66,0.7
,-9.55,-0.565,-2.613,-9.366,-0.586,-2.95,3.01,2.87,0.63
10449.0,-9.395,-0.567,-3.029,-9.387,-0.421,-3.537,3.01,5.11,0.42
,-9.349,-0.648,-2.989,-9.277,-0.471,-3.508,3.43,5.39,0.77
,-9.404,-0.529,-3.111,-9.244,-0.567,-3.288,4.55,5.46,0.98
,-9.457,-0.433,-3.386,-9.263,-0.658,-3.192,4.69,5.18,0.91
10525.0,-9.342,-0.718,-3.02,-9.34,-0.304,-3.101,6.02,4.69,1.05
,-9.445,-0.665,-3.001,-9.299,-0.34,-3.159,6.79,4.76,1.19
,-9.615,-0.538,-3.087,-9.253,-0.383,-3.206,6.72,4.69,0.98
,-9.411,-0.402,-2.955,-9.265,-0.593,-3.118,5.18,4.48,0.84
10600.0,-9.368,-0.718,-3.092,-9.301,-0.577,-3.618,0.7,4.69,0.0
,-9.471,-0.572,-3.252,-9.217,-0.629,-3.415,1.33,4.2,0.0
,-9.414,-0.491,-3.297,-9.332,-0.613,-3.46,0.21,3.78,-0.28
,-9.296,-0.397,-3.477,-9.44,-0.627,-3.372,-1.33,3.5,-0.56
10676.0,-9.411,-0.646,-3.192,-9.258,-0.517,-2.479,-4.97,1.68,-1.96
,-9.476,-0.503,-3.037,-9.356,-0.73,-2.517,-6.02,0.84,-2.38
,-9.387,-0.242,-2.867,-9.354,-0.718,-2.469,-7.91,0.35,-2.17
,-9.22,-0.201,-2.687,-9.316,-0.715,-2.584,-10.99,0.14,-2.31
10752.0,-9.366,-0.711,-2.532,-9.483,-0.297,-2.247,-7.49,6.23,-1.05
,-9.471,-0.775,-2.565,-9.476,-0.615,-2.481,-7.14,7.07,-1.12
,-9.497,-0.436,-2.402,-9.392,-0.519,-2.491,-7.77,7.21,-1.12
,-9.368,-0.179,-2.347,-9.318,-0.33,-2.434,-9.94,7.35,-1.4
10828.0,-9.524,-0.51,-2.331,-8.567,-1.563,-5.348,-15.61,10.99,-2.59
,-9.229,-0.23,-2.879,-8.394,-2.211,-5.334,-19.81,9.1,-3.22
,-9.024,-0.402,-3.506,-8.902,-2.18,-4.877,-23.17,8.61,-3.08
,-9.05,-0.787,-4.219,-9.521,-1.433,-4.872,-21.42,9.1,-2.03
10903.0,-9.457,-0.323,-4.41,-9.763,0.447,-2.769,27.23,9.66,6.44
,-9.485,0.61,-4.02,-9.356,0.629,-2.199,27.23,8.26,5.95
,-9.253,0.629,-3.348,-9.708,0.873,-3.015,18.83,8.05,5.32
,-9.813,0.199,-2.058,-9.229,0.529,-3.824,16.38,9.24,4.62
10979.0,-8.947,-0.617,-3.841,-9.27,0.359,-3.226,-13.79,6.65,-2.8
,-8.667,-1.567,-4.044,-9.299,0.66,-3.197,-12.46,8.75,-1.96
,-8.665,-2.032,-3.022,-9.014,-0.194,-3.319,-0.84,12.32,-0.84
,-9.414,-1.022,-2.8,-8.854,-1.251,-2.766,14.91,12.74,-0.84
11054.0,-9.129,-1.768,-2.761,-8.679,-0.739,-3.24,1.54,15.61,-1.19
,-9.368,-1.685,-2.706,-8.832,-0.641,-2.737,8.33,16.38,-0.63
,-9.407,-1.161,-2.833,-8.65,-0.287,-3.226,12.11,16.24,0.07
,-9.139,-0.706,-3.281,-9.057,0.034,-3.123,11.41,16.45,0.63
11130.0,-9.493,0.302,-3.632,-8.945,-1.07,-3.979,9.66,18.41,-0.7
,-9.143,-0.297,-3.798,-8.839,-1.015,-4.054,2.31,18.2,-0.77
,-9.055,-0.95,-3.716,-8.748,-0.933,-3.807,-0.14,19.81,0.14
,-8.882,-1.127,-3.874,-8.433,-1.043,-3.733,1.47,20.23,0.21
11206.0,-8.775,-0.818,-3.716,-8.969,-0.364,-5.068,8.75,23.17,2.03
,-9.347,-0.33,-4.176,-8.516,-0.625,-4.451,10.92,20.93,1.47
,-9.756,0.065,-4.913,-8.445,-0.672,-4.393,8.61,17.22,0.42
,-9.368,0.05,-5.128,-8.782,-0.814,-4.312,3.08,15.96,0.49
11282.0,-9.1,-0.735,-4.322,-8.61,0.122,-4.944,8.47,16.52,-1.33
,-9.115,-0.672,-4.444,-8.78,-0.041,-4.932,7.14,17.29,-0.84
,-8.763,-0.55,-4.472,-8.818,-0.359,-5.159,7.0,18.9,-0.42
,-8.703,-0.177,-4.458,-8.777,-1.05,-4.908,9.24,19.04,-0.63
11357.0,-8.794,-1.445,-4.52,-8.849,-1.323,-4.561,2.66,17.01,-0.77
,-8.751,-1.689,-4.295,-8.897,-1.108,-4.635,6.51,16.38,-0.42
,-8.88,-1.51,-4.015,-8.758,-0.491,-4.932,9.73,15.82,1.05
,-8.82,-1.357,-4.398,-8.693,0.342,-5.08,10.22,15.12,3.01
11433.0,-8.842,1.259,-5.303,-8.397,-0.208,-4.817,8.82,11.2,0.07
,-8.753,1.716,-5.726,-8.636,-1.201,-4.415,3.15,8.47,-1.96
,-8.698,1.381,-5.561,-8.469,-2.276,-4.154,-4.2,7.7,-2.94
,-8.43,0.663,-5.243,-8.581,-3.3,-4.13,-8.75,7.35,-3.99
11509.0,-8.758,-3.893,-4.097,-8.253,-0.134,-5.2,5.11,10.5,3.29
,-9.074,-3.51,-4.357,-7.973,0.388,-5.544,12.18,10.36,5.46
,-9.093,-2.632,-4.413,-8.155,0.122,-5.408,17.99,9.59,5.46
,-8.574,-1.374,-4.666,-8.72,-0.158,-5.231,20.09,9.38,5.04
11585.0,-8.966,-0.285,-4.977,-8.942,0.292,-4.917,6.3,9.1,4.2
,-8.964,-0.038,-4.762,-8.356,0.443,-5.413,10.92,9.38,1.89
,-9.225,0.311,-4.597,-8.023,0.498,-5.741,13.02,8.82,-0.07
,-9.146,0.182,-4.75,-8.028,0.034,-5.556,11.41,8.33,-0.91
11661.0,-8.253,-0.51,-5.291,-8.629,-1.998,-4.635,3.64,7.42,-4.34
,-8.973,-1.115,-4.989,-8.617,-1.938,-4.635,2.87,7.7,-4.9
,-9.471,-1.756,-4.472,-8.653,-1.426,-4.965,1.68,6.93,-4.9
,-9.28,-1.785,-4.661,-8.504,-0.821,-5.564,1.61,5.88,-4.06
11736.0,-8.043,-0.469,-5.585,-9.196,-1.316,-5.142,6.02,6.3,1.54
,-7.485,-0.806,-5.559,-8.801,-1.067,-5.15,3.43,6.44,3.22
,-7.784,-1.563,-5.408,-8.641,-1.039,-4.946,1.54,7.35,4.83
,-8.806,-1.63,-5.286,-8.658,-1.101,-5.035,4.97,7.35,6.02
11812.0,-8.603,-1.041,-5.238,-8.394,-0.61,-5.525,7.21,4.27,7.98
,-8.385,-0.792,-5.698,-8.48,-0.773,-5.331,7.98,3.29,8.54
,-8.495,-0.735,-5.901,-8.715,-0.672,-5.016,7.91,3.22,8.96
,-8.689,-0.634,-5.59,-8.605,-0.574,-4.903,7.84,2.17,8.96
11887.0,-8.416,-0.778,-4.838,-9.038,0.055,-5.25,3.01,0.63,7.35
,-8.409,-0.704,-4.917,-9.16,0.261,-5.279,2.45,1.68,7.42
,-8.6,-0.45,-4.994,-8.665,-0.022,-5.252,3.15,2.52,7.07
,-8.665,-0.101,-5.31,-8.358,-0.38,-5.087,4.06,2.52,6.09
11963.0,-8.516,-0.27,-5.133,-8.557,-0.438,-5.269,6.09,2.87,1.61
,-8.725,-0.055,-5.3,-8.411,-0.5,-5.188,6.86,3.36,0.28
,-8.796,0.055,-5.286,-8.358,-0.706,-5.257,6.23,3.5,-1.05
,-8.698,-0.062,-5.427,-8.33,-0.938,-5.154,5.25,3.08,-1.89
12039.0,-8.421,-1.022,-5.269,-8.497,-0.919,-5.331,1.75,3.22,-3.5
,-8.66,-0.912,-5.288,-8.751,-0.835,-5.513,1.89,2.73,-3.22
,-8.591,-0.83,-5.468,-8.784,-0.804,-5.358,1.12,1.82,-2.8
,-8.363,-0.871,-5.427,-8.655,-1.098,-5.092,0.14,1.75,-2.66
12115.0,-8.318,-1.24,-5.099,-8.957,-0.519,-5.377,-0.84,0.63,-0.91
,-8.289,-1.182,-5.205,-8.677,-0.821,-5.444,0.35,1.05,0.35
,-8.71,-0.967,-5.377,-8.626,-0.89,-5.468,2.38,1.05,0.77
,-9.182,-0.522,-5.425,-8.794,-0.558,-5.518,2.94,0.07,0.42
12190.0,-8.485,-0.156,-5.642,-8.557,-0.921,-5.537,-1.19,-3.92,1.75
,-8.402,0.036,-5.817,-8.332,-1.218,-5.458,-3.29,-4.62,1.75
,-8.66,-0.246,-5.75,-8.447,-1.575,-5.43,-6.58,-5.18,1.68
,-8.88,-0.577,-5.623,-8.863,-1.68,-4.96,-7.91,-6.09,1.4
12266.0,-8.729,-1.278,-5.078,-8.248,-1.158,-5.288,2.03,-5.25,4.06
,-8.533,-1.165,-4.879,-8.435,-1.385,-5.142,1.47,-5.25,4.83
,-8.605,-1.022,-4.824,-8.605,-1.393,-5.279,0.07,-6.23,5.46
,-8.442,-1.005,-5.104,-8.717,-1.177,-5.173,-1.82,-7.28,6.02
12341.0,-8.99,-0.866,-4.836,-8.593,-0.388,-5.042,4.69,-5.6,6.16
,-8.997,-0.455,-4.594,-9.1,-0.179,-5.267,3.78,-8.47,5.81
,-8.402,-0.122,-4.92,-8.904,-0.101,-5.492,1.61,-10.43,6.02
,-8.155,-0.177,-4.901,-8.782,-0.225,-5.437,-0.14,-10.15,6.09
12417.0,-8.71,-0.536,-5.114,-8.478,-0.337,-4.925,3.5,-7.42,1.12
,-8.938,-0.68,-4.724,-8.461,-0.263,-4.953,5.18,-8.26,0.35
,-8.722,-0.541,-4.841,-8.586,-0.522,-5.044,6.3,-10.08,0.7
,-8.708,-0.383,-4.815,-8.844,-0.577,-5.025,5.53,-11.9,1.68
12493.0,-8.899,-0.5,-5.025,-8.78,-0.292,-4.762,2.66,-12.11,1.68
,-9.074,-0.524,-4.771,-9.048,-0.89,-4.07,3.08,-12.67,1.4
,-8.681,-0.412,-4.927,-8.899,-0.067,-4.666,1.19,-15.89,1.4
,-8.169,0.12,-5.331,-8.624,-0.136,-4.669,-0.14,-17.08,2.31
12569.0,-8.507,-0.546,-4.503,-8.851,-0.12,-4.204,-1.68,-15.33,2.59
,-8.72,-0.814,-4.267,-8.851,-0.227,-4.113,0.84,-12.53,3.29
,-8.966,-0.895,-4.176,-9.33,-0.44,-3.649,5.11,-11.83,3.36
,-8.94,-0.567,-4.152,-8.997,-0.237,-4.128,9.1,-11.9,3.5
12645.0,-8.531,-0.388,-4.087,-9.036,-0.354,-3.676,-1.33,-18.76,3.08
,-8.794,-0.531,-3.666,-8.784,-0.412,-3.836,-1.33,-16.66,2.52
,-8.976,-0.412,-3.764,-8.794,-0.639,-3.8,-0.21,-15.75,1.61
,-8.949,-0.22,-3.85,-8.892,-0.723,-3.678,-0.35,-14.7,1.68
12720.0,-8.871,-0.706,-3.58,-9.153,-0.115,-3.4,5.11,-11.2,2.17
,-9.009,-0.567,-3.41,-8.949,-0.029,-3.553,8.82,-9.73,2.94
,-9.129,-0.395,-3.35,-9.119,-0.546,-3.111,9.59,-9.38,3.43
,-9.273,-0.426,-3.415,-9.177,-0.469,-3.111,8.19,-10.92,3.15
12796.0,-9.167,-0.225,-3.192,-8.961,-0.414,-3.539,-0.42,-11.97,0.77
,-9.213,-0.187,-3.02,-9.299,-0.491,-3.735,-0.07,-11.2,0.7
,-9.332,-0.053,-3.321,-9.275,-0.139,-3.802,-0.91,-11.27,-0.07
,-9.11,-0.287,-3.63,-9.095,0.474,-3.774,-2.59,-10.5,-0.28
12872.0,-9.043,0.168,-3.702,-9.222,-1.558,-2.632,-6.09,-11.97,-3.22
,-8.997,-0.687,-3.544,-9.466,-0.991,-2.977,-8.89,-10.99,-3.64
,-8.997,-1.141,-3.62,-9.438,-0.333,-3.171,-7.91,-10.15,-2.8
,-8.952,-1.498,-3.041,-9.39,-0.263,-3.573,-2.8,-7.84,-1.05
12948.0,-9.079,-0.512,-3.853,-9.284,0.057,-2.57,6.65,-3.92,2.87
,-9.007,-0.849,-3.716,-9.459,0.254,-2.687,9.94,-2.87,3.64
,-9.122,-0.692,-3.525,-9.39,0.199,-2.831,14.21,-2.8,3.15
,-9.028,-0.323,-2.982,-9.232,0.11,-3.585,16.45,-2.66,2.73
13023.0,-9.083,-0.211,-3.714,-9.435,0.17,-3.41,-1.61,-6.23,-0.35
,-9.11,-0.546,-3.587,-9.466,0.292,-4.178,-0.21,-5.04,-0.42
,-9.124,-0.706,-3.228,-9.019,-0.44,-3.707,3.15,-3.85,-0.77
,-9.378,-0.397,-3.285,-9.198,-1.103,-3.477,6.79,-3.99,-1.12
13099.0,-9.251,-1.208,-3.448,-9.531,-0.347,-2.493,1.89,-5.46,-1.4
,-9.316,-0.742,-2.91,-9.643,-0.196,-2.816,8.47,-5.11,-0.84
,-9.423,-0.256,-2.706,-9.445,-0.115,-3.214,9.87,-4.55,-0.56
,-9.557,-0.148,-2.503,-9.328,-0.278,-3.659,7.42,-3.99,-0.63
13174.0,-9.007,-0.818,-3.656,-9.462,-0.098,-3.589,-4.69,-4.06,-2.87
,-9.031,-0.983,-3.41,-9.428,-0.177,-3.948,0.14,-3.57,-2.31
,-9.263,-0.806,-3.424,-9.229,-0.632,-4.032,6.02,-3.29,-1.82
,-9.421,-0.359,-3.429,-9.033,-0.962,-3.881,8.54,-3.57,-1.54
13250.0,-9.232,-1.127,-3.774,-9.608,-0.397,-2.525,3.78,-6.93,-1.75
,-9.203,-1.027,-3.321,-9.368,-0.507,-2.472,8.54,-6.86,-0.91
,-9.256,-0.617,-2.74,-9.241,-0.579,-2.426,10.92,-6.72,-0.42
,-9.507,-0.337,-2.431,-9.306,-0.794,-2.438,10.15,-6.37,-0.35
13326.0,-9.275,-0.857,-2.237,-9.677,-0.316,-1.845,4.69,-1.96,0.21
,-9.359,-0.737,-2.0,-9.756,-0.191,-2.383,5.88,-0.49,0.63
,-9.505,-0.713,-1.811,-9.514,-0.325,-2.749,5.88,1.05,0.91
,-9.524,-0.61,-1.582,-9.359,-0.586,-3.056,5.6,2.66,1.05
13402.0,-9.299,-0.804,-3.458,-9.256,-0.627,-3.774,-2.03,5.39,0.0
,-9.328,-0.708,-3.826,-9.373,-0.5,-3.776,0.49,4.9,0.28
,-9.237,-0.579,-3.9,-9.347,-0.452,-3.711,1.4,4.55,0.49
,-9.22,-0.706,-3.85,-9.32,-0.503,-3.522,1.54,3.99,0.42
13477.0,-9.325,-0.584,-3.508,-9.409,-0.467,-2.962,3.15,0.98,0.28
,-9.311,-0.491,-3.295,-9.464,-0.476,-2.946,4.2,0.63,0.42
,-9.34,-0.311,-3.19,-9.471,-0.495,-3.053,4.2,0.35,0.14
,-9.447,-0.383,-3.017,-9.385,-0.596,-3.087,2.73,0.7,-0.14
13553.0,-9.44,-0.787,-3.166,-9.234,-0.668,-3.455,0.7,1.12,-0.49
,-9.411,-0.768,-3.331,-9.239,-0.648,-3.266,1.82,1.19,-0.42
,-9.392,-0.701,-3.506,-9.385,-0.581,-3.242,2.94,0.84,-0.21
,-9.323,-0.718,-3.565,-9.399,-0.605,-3.022,3.43,0.49,0.07
13628.0,-9.435,-0.562,-2.938,-9.356,-0.57,-3.082,7.07,0.42,0.63
,-9.524,-0.574,-3.013,-9.39,-0.586,-3.135,7.07,0.56,0.35
,-9.414,-0.562,-3.041,-9.366,-0.567,-3.139,7.07,0.56,0.28
,-9.371,-0.479,-3.053,-9.325,-0.529,-3.065,6.51,0.56,0.14
13704.0,-9.373,-0.694,-3.003,-9.392,-0.565,-3.025,2.1,1.05,-0.77
,-9.418,-0.711,-3.029,-9.366,-0.641,-3.065,2.17,1.05,-0.63
,-9.402,-0.622,-2.986,-9.363,-0.613,-3.161,2.66,1.05,-0.63
,-9.418,-0.507,-2.967,-9.363,-0.66,-3.154,2.38,1.4,-0.7
13780.0,-9.375,-0.684,-3.192,-9.344,-0.589,-3.223,2.1,1.61,-0.7
,-9.39,-0.67,-3.211,-9.325,-0.699,-3.18,2.8,1.4,-0.56
,-9.378,-0.574,-3.199,-9.337,-0.737,-3.108,3.08,1.33,-0.63
,-9.404,-0.51,-3.273,-9.371,-0.778,-3.082,2.87,1.26,-0.77
13856.0,-9.44,-0.818,-3.013,-9.361,-0.479,-2.943,2.52,1.47,-0.49
,-9.368,-0.766,-2.984,-9.306,-0.61,-2.905,2.73,1.68,-0.35
,-9.402,-0.589,-2.974,-9.306,-0.775,-3.001,2.73,1.68,-0.28
,-9.435,-0.443,-3.056,-9.323,-0.854,-2.962,2.17,1.82,-0.35
13932.0,-9.397,-0.749,-3.087,-9.428,-0.675,-3.053,0.84,2.31,-0.56
,-9.378,-0.675,-3.202,-9.383,-0.486,-2.783,0.77,2.31,-0.49
,-9.296,-0.617,-3.139,-9.404,-0.199,-2.326,0.35,2.52,-0.35
,-9.361,-0.61,-3.221,-9.442,-0.321,-1.948,0.14,2.52,-0.35
14007.0,-9.462,-0.562,-1.484,-9.184,-0.629,-2.58,-9.17,5.46,-2.17
,-9.775,-0.507,-1.73,-9.036,-1.043,-2.79,-11.06,6.02,-2.38
,-9.691,-0.388,-1.888,-8.945,-1.34,-2.879,-14.84,6.3,-2.52
,-9.428,-0.361,-2.331,-9.217,-1.417,-2.778,-18.83,6.72,-2.45
14083.0,-9.43,-0.909,-3.025,-9.134,-1.173,-2.536,-6.79,10.43,0.0
,-9.45,-0.459,-3.367,-9.438,-1.194,-3.582,-3.85,9.87,0.0
,-9.165,-0.395,-3.317,-9.182,-1.137,-4.314,-5.04,10.43,0.14
,-9.086,-0.845,-3.015,-9.007,-0.981,-4.413,-5.39,12.32,0.98
14159.0,-9.052,-1.06,-4.64,-9.407,-0.005,-2.324,6.16,10.5,5.32
,-9.196,-1.46,-4.231,-9.462,1.113,-2.675,8.26,11.48,6.37
,-9.134,-1.589,-3.695,-9.509,1.546,-3.242,14.7,13.44,7.49
,-9.258,-1.048,-2.505,-9.402,0.893,-3.396,24.36,15.68,7.98
14235.0,-9.201,-0.426,-3.221,-9.172,0.361,-4.489,-10.5,12.88,0.77
,-9.019,-1.362,-2.723,-9.232,0.065,-4.547,-6.93,16.66,1.05
,-9.277,-0.94,-2.539,-8.988,-0.885,-3.668,2.59,17.71,0.49
,-8.914,-0.127,-3.757,-8.923,-0.95,-3.551,3.92,13.93,-1.68
14310.0,-8.614,-0.584,-3.386,-9.083,-1.424,-2.766,5.18,14.91,-2.1
,-9.124,-0.309,-2.596,-9.198,-1.711,-2.173,8.75,17.01,-2.94
,-9.258,-0.359,-2.639,-9.249,-1.431,-2.994,5.88,17.78,-4.06
,-9.012,-0.905,-2.802,-9.028,-0.998,-3.532,3.64,19.18,-3.85
14386.0,-9.342,-0.184,-3.903,-8.88,-0.074,-4.841,16.73,20.65,0.84
,-8.921,0.371,-4.058,-8.77,-0.34,-5.138,11.13,19.67,-0.35
,-8.961,0.433,-3.905,-8.732,-0.589,-5.066,4.97,19.6,-1.89
,-8.914,0.28,-4.477,-8.792,-0.914,-4.575,-2.66,15.75,-3.92
14461.0,-8.763,-1.139,-3.934,-9.354,-1.831,-4.2,-3.5,21.07,-6.79
,-8.847,-1.089,-3.587,-9.299,-2.111,-4.133,2.59,22.75,-6.09
,-8.758,-1.196,-3.764,-8.799,-1.929,-4.185,5.25,22.12,-4.62
,-9.17,-1.426,-3.781,-8.624,-1.354,-4.082,6.65,21.21,-2.59
14537.0,-8.464,-0.754,-4.489,-8.729,-0.766,-4.197,13.51,19.25,2.17
,-8.339,-0.443,-4.795,-8.897,-0.869,-3.891,7.49,17.78,2.52
,-8.404,-0.421,-4.783,-9.311,-0.5,-4.178,0.84,18.27,3.08
,-8.643,-0.637,-4.432,-9.325,0.101,-4.637,-2.8,19.6,3.64
14613.0,-9.158,0.218,-4.908,-8.772,0.029,-5.307,5.32,17.78,1.33
,-8.655,-0.022,-4.934,-8.942,0.175,-5.245,1.89,16.87,1.47
,-8.55,-0.232,-4.92,-8.808,0.325,-5.238,2.38,17.15,0.98
,-8.67,-0.108,-5.173,-8.524,-0.024,-5.252,3.08,15.61,-0.49
14689.0,-8.533,-0.665,-5.054,-8.37,-1.843,-4.922,-12.11,12.25,-5.95
,-8.693,-1.134,-5.047,-8.387,-1.665,-5.042,-11.9,11.27,-5.67
,-8.361,-1.63,-5.078,-8.461,-1.194,-4.759,-9.8,11.34,-4.76
,-8.638,-1.84,-4.714,-8.739,-0.522,-4.915,-5.74,11.55,-2.87
14765.0,-8.782,0.134,-5.159,-8.662,-1.036,-5.724,3.36,9.31,0.35
,-8.459,-0.089,-5.315,-8.576,-1.261,-5.374,-0.7,8.75,0.07
,-8.397,-0.409,-5.575,-8.648,-1.371,-5.176,-2.31,8.47,0.49
,-8.538,-0.598,-5.659,-8.71,-1.07,-5.236,-1.61,8.05,0.91
14840.0,-8.454,-1.024,-5.54,-8.354,-0.302,-5.628,6.16,6.51,0.0
,-8.614,-1.019,-5.53,-8.634,0.292,-5.851,5.67,7.0,0.07
,-8.366,-0.818,-5.58,-8.868,0.108,-5.779,6.86,6.93,0.28
,-8.32,-0.73,-5.729,-8.894,-0.163,-5.41,7.91,6.72,0.0
14916.0,-8.425,-0.273,-5.449,-9.21,-2.596,-4.36,4.55,0.91,-2.17
,-8.088,-0.842,-5.497,-8.77,-2.515,-4.532,3.36,1.19,-1.61
,-8.318,-1.378,-5.19,-8.382,-1.843,-5.157,2.24,1.75,-0.63
,-8.722,-2.257,-4.712,-8.256,-1.146,-5.458,1.33,2.52,1.33
14992.0,-8.478,-0.737,-5.705,-8.54,-0.426,-5.068,8.05,0.21,7.98
,-8.842,-0.488,-5.705,-8.291,-0.608,-5.212,7.35,0.14,7.21
,-9.148,-0.361,-5.324,-8.351,-0.376,-5.37,7.35,-0.49,6.79
,-8.811,-0.093,-5.272,-8.679,-0.469,-5.274,6.72,-1.05,6.51
15068.0,-8.708,-0.622,-5.063,-8.686,-1.053,-4.649,-0.91,-3.43,6.65
,-8.744,-0.804,-5.039,-8.751,-0.96,-4.59,-2.03,-3.29,6.79
,-8.665,-1.113,-5.03,-8.832,-0.574,-4.652,-2.8,-2.52,7.0
,-8.808,-1.132,-4.838,-8.524,-0.421,-4.86,-1.89,-1.4,6.72
15143.0,-8.33,-0.349,-5.008,-8.751,-0.132,-5.262,0.35,1.89,6.51
,-8.43,-0.108,-5.329,-8.899,-0.203,-5.207,0.91,2.17,5.81
,-8.576,-0.105,-5.394,-8.768,-0.316,-5.102,1.4,2.66,4.83
,-8.624,-0.11,-5.276,-8.679,-0.388,-4.958,2.24,2.8,3.85
15219.0,-8.605,-0.335,-5.061,-8.746,-0.938,-5.006,0.49,2.31,-1.26
,-8.387,-0.854,-4.987,-8.679,-0.727,-4.977,-1.19,2.45,-0.49
,-8.234,-0.998,-5.09,-8.813,-0.476,-4.913,-1.26,3.08,0.28
,-8.488,-1.022,-5.14,-8.655,-0.653,-4.963,-0.49,3.57,0.84
15294.0,-8.528,-0.921,-5.023,-8.82,-0.668,-5.099,2.03,3.92,0.21
,-8.581,-1.228,-5.023,-8.77,-0.433,-5.276,4.55,4.48,0.77
,-8.737,-1.046,-5.188,-8.646,-0.022,-5.506,7.28,4.55,1.26
,-8.909,-0.873,-5.13,-8.545,0.148,-5.559,9.31,4.2,1.75
15370.0,-8.533,0.005,-5.532,-8.775,-0.854,-5.173,5.25,0.28,2.45
,-8.643,-0.237,-5.331,-8.569,-0.962,-5.396,3.36,-0.63,2.66
,-8.751,-0.584,-5.229,-8.825,-0.983,-5.183,1.75,-0.98,3.5
,-8.868,-0.919,-5.037,-8.959,-0.617,-5.379,1.12,-1.68,4.34
15446.0,-8.631,-0.481,-5.307,-8.246,-0.849,-5.501,0.7,-4.69,4.9
,-8.614,-0.579,-4.91,-8.751,-0.945,-5.511,-3.15,-3.78,5.88
,-8.55,-0.596,-5.245,-8.954,-0.66,-5.511,-6.79,-5.04,6.58
,-8.155,-0.725,-5.434,-8.923,-0.335,-5.252,-8.19,-4.9,7.07
15522.0,-8.875,-0.235,-4.994,-8.811,-0.148,-5.15,2.94,-7.28,3.15
,-8.693,0.017,-5.19,-8.818,-0.156,-5.535,1.68,-8.4,2.52
,-8.459,0.091,-5.286,-8.567,-0.017,-5.391,0.56,-8.4,1.61
,-8.579,-0.012,-5.317,-8.509,0.323,-5.372,0.14,-8.26,0.28
15597.0,-8.705,0.199,-5.245,-8.758,-1.287,-5.25,3.99,-9.03,-4.41
,-8.837,0.017,-5.468,-8.787,-1.541,-4.987,2.66,-10.71,-5.81
,-8.732,-0.357,-5.528,-8.789,-1.541,-4.915,2.45,-10.71,-6.51
,-8.89,-0.897,-5.217,-8.564,-1.464,-4.898,3.64,-10.29,-6.44
15673.0,-8.284,-1.613,-5.269,-8.825,-1.371,-4.788,7.84,-16.66,0.56
,-8.354,-1.503,-5.353,-8.686,-1.07,-4.901,7.49,-16.66,2.52
,-8.552,-1.783,-5.458,-8.308,-1.031,-4.989,11.62,-16.94,2.24
,-8.715,-1.467,-5.506,-8.614,-1.24,-4.551,12.53,-17.15,3.99
15749.0,-9.263,-0.912,-4.439,-9.002,-0.045,-4.331,8.4,-21.56,9.38
,-8.775,-0.395,-4.451,-8.914,-0.227,-4.276,8.96,-23.59,9.24
,-8.65,0.062,-4.393,-8.772,-0.316,-4.056,8.68,-23.03,9.1
,-8.686,0.115,-4.408,-9.036,-0.376,-3.625,6.16,-22.05,8.75
15825.0,-8.768,0.026,-3.81,-9.005,1.108,-3.556,17.92,-14.84,8.26
,-8.837,0.426,-3.661,-9.002,0.907,-3.206,18.48,-15.4,7.63
,-8.966,0.651,-3.762,-9.155,0.57,-2.996,15.89,-17.08,6.79
,-9.083,0.936,-3.733,-9.055,0.184,-2.919,11.97,-19.11,5.32
15901.0,-8.997,-0.184,-2.864,-9.091,-1.122,-3.123,-7.21,-17.15,-2.45
,-9.064,-0.658,-3.001,-9.067,-1.0,-3.053,-8.89,-17.85,-2.38
,-9.371,-0.919,-2.852,-8.93,-0.692,-3.084,-9.59,-18.9,-2.45
,-9.088,-0.852,-3.063,-9.134,-0.388,-3.154,-7.7,-18.69,-2.52
15976.0,-9.172,-0.345,-3.156,-9.182,-0.579,-3.448,-3.64,-13.93,-1.4
,-9.112,-0.223,-3.419,-9.083,-0.692,-3.527,-4.41,-13.37,-1.75
,-9.074,-0.297,-3.606,-9.277,-0.897,-3.271,-5.46,-12.39,-2.03
,-9.215,-0.469,-3.441,-9.351,-0.718,-3.898,-4.62,-10.57,-2.31
16052.0,-9.091,-0.603,-3.953,-9.421,-0.122,-2.357,1.12,-12.25,-0.91
,-9.095,-1.039,-3.506,-9.773,0.483,-3.104,1.4,-10.36,-0.56
,-9.186,-1.354,-2.998,-9.517,0.302,-3.032,5.95,-8.33,-0.63
,-9.28,-1.151,-2.493,-9.155,-0.165,-2.694,13.02,-7.35,-1.61
16128.0,-9.081,-0.562,-2.551,-9.225,-0.842,-2.517,-9.24,-10.43,-4.9
,-9.237,-0.579,-2.783,-9.311,-1.168,-2.405,-5.11,-10.22,-5.18
,-9.191,-0.187,-2.79,-9.258,-0.782,-2.391,-3.43,-10.57,-4.97
,-9.201,-0.282,-2.924,-9.215,-0.464,-2.161,-6.37,-10.36,-4.83
16204.0,-9.359,-0.364,-2.309,-9.392,-0.83,-3.331,-5.46,-4.27,-3.43
,-9.347,-0.347,-2.608,-9.284,-0.553,-3.319,-9.52,-3.43,-3.71
,-9.232,-0.73,-2.802,-9.27,-0.246,-3.616,-12.18,-2.45,-3.22
,-9.265,-1.007,-2.692,-9.241,-0.285,-3.489,-9.17,-0.77,-2.1
16279.0,-9.301,-0.656,-3.46,-9.574,-0.598,-3.52,3.22,1.82,0.21
,-9.196,-0.763,-3.099,-9.263,-0.433,-3.594,5.39,2.87,0.77
,-9.39,-0.806,-3.058,-9.273,-0.565,-3.613,7.35,3.43,0.98
,-9.538,-0.718,-3.422,-9.325,-0.713,-3.635,8.61,2.94,1.33
16355.0,-9.306,-0.66,-3.491,-9.631,-0.452,-2.252,5.32,-1.47,1.12
,-9.277,-0.668,-3.113,-9.768,-0.196,-2.661,5.74,-1.12,1.26
,-9.371,-0.763,-2.603,-9.481,-0.055,-3.278,7.21,-0.28,1.61
,-9.454,-0.677,-2.283,-9.069,-0.392,-3.515,8.75,0.84,1.68
16430.0,-8.93,-0.914,-3.417,-9.6,-0.376,-2.883,0.07,1.61,0.98
,-9.184,-1.129,-3.312,-9.564,-0.203,-3.123,5.25,2.87,1.68
,-9.368,-1.005,-2.994,-9.38,-0.34,-3.47,10.43,3.71,2.52
,-9.631,-0.584,-3.029,-9.196,-0.601,-3.563,12.74,3.57,2.8
16506.0,-9.052,-0.763,-3.41,-9.361,-0.481,-2.642,5.32,1.19,1.54
,-9.241,-0.871,-3.283,-9.325,-0.593,-2.436,7.77,1.19,1.75
,-9.402,-0.67,-3.135,-9.375,-0.696,-2.379,9.94,1.12,2.03
,-9.452,-0.452,-2.958,-9.548,-0.605,-2.422,9.66,0.84,1.89
16582.0,-9.627,-0.512,-2.568,-9.368,-0.704,-3.235,5.11,3.71,1.33
,-9.574,-0.416,-2.845,-9.378,-0.749,-3.429,2.94,3.64,0.98
,-9.316,-0.414,-2.953,-9.33,-0.761,-3.352,1.19,3.78,0.91
,-9.301,-0.459,-3.137,-9.371,-0.749,-3.254,0.77,4.27,0.84
16658.0,-9.407,-0.617,-3.321,-9.21,-0.67,-3.589,4.83,3.85,1.26
,-9.395,-0.455,-3.587,-9.284,-0.622,-3.465,4.76,3.57,1.33
,-9.359,-0.354,-3.668,-9.359,-0.51,-3.434,3.29,3.08,1.19
,-9.308,-0.577,-3.695,-9.385,-0.491,-3.218,1.54,2.24,0.84
16733.0,-9.433,-0.354,-3.089,-9.363,-0.536,-2.955,3.29,1.82,0.7
,-9.402,-0.361,-3.058,-9.325,-0.505,-2.982,2.03,1.68,0.49
,-9.289,-0.436,-2.948,-9.335,-0.608,-2.994,1.4,1.89,0.42
,-9.282,-0.536,-2.886,-9.373,-0.742,-3.001,1.05,2.31,0.35
16809.0,-9.438,-0.778,-2.936,-9.241,-0.699,-3.446,1.75,4.13,0.07
,-9.476,-0.589,-3.187,-9.28,-0.759,-3.475,2.94,4.13,0.21
,-9.404,-0.507,-3.36,-9.332,-0.574,-3.678,3.08,4.13,0.42
,-9.34,-0.589,-3.467,-9.325,-0.503,-3.556,2.87,3.64,0.42
16884.0,-9.325,-0.455,-3.661,-9.287,-0.538,-3.719,4.27,2.45,0.07
,-9.328,-0.495,-3.58,-9.234,-0.615,-3.592,3.85,2.38,0.21
,-9.33,-0.524,-3.599,-9.234,-0.646,-3.362,3.64,1.89,0.14
,-9.289,-0.543,-3.587,-9.306,-0.73,-3.19,4.13,1.47,0.14
16960.0,-9.368,-0.756,-2.886,-9.447,-0.34,-3.046,4.62,0.98,0.35
,-9.478,-0.67,-2.79,-9.294,-0.407,-3.187,5.25,1.26,0.28
,-9.541,-0.486,-2.699,-9.246,-0.68,-3.381,4.55,1.47,0.07
,-9.543,-0.29,-2.821,-9.179,-0.699,-3.513,2.59,1.54,-0.42
17036.0,-9.234,-0.689,-3.489,-9.438,-0.517,-3.553,-0.84,1.54,-1.12
,-9.287,-0.584,-3.379,-9.313,-0.818,-3.587,0.21,1.4,-0.98
,-9.433,-0.514,-3.388,-9.22,-1.086,-3.52,0.35,1.26,-0.98
,-9.493,-0.414,-3.494,-9.356,-1.117,-3.508,-1.19,0.63,-1.33
17112.0,-9.38,-0.715,-3.482,-9.337,-0.517,-3.137,1.05,-1.26,-0.91
,-9.222,-0.474,-3.364,-9.251,-0.431,-3.072,0.63,-1.47,-0.35
,-9.268,-0.577,-3.104,-9.275,-0.553,-2.996,-0.28,-1.33,-0.07
,-9.433,-0.656,-3.12,-9.158,-0.634,-2.891,0.0,-1.4,-0.35
17188.0,-9.287,-0.646,-2.623,-9.552,-0.486,-2.575,2.87,1.12,0.28
,-9.399,-0.546,-2.412,-9.225,-0.706,-2.426,2.8,1.61,0.21
,-9.526,-0.383,-2.276,-9.287,-0.885,-2.883,1.05,1.68,0.0
,-9.706,-0.366,-2.12,-9.22,-0.952,-3.159,-2.1,1.75,-0.42
17263.0,-9.368,-0.778,-3.144,-9.435,0.249,-2.84,-8.33,3.71,-0.14
,-9.349,-0.457,-3.518,-9.323,0.093,-2.364,-6.72,3.99,-0.07
,-9.287,-0.249,-3.211,-9.517,-0.242,-2.414,-6.16,4.41,-0.56
,-9.397,0.038,-2.589,-9.332,-0.766,-2.553,-5.25,5.25,-1.12
17339.0,-9.15,-1.342,-2.228,-9.44,0.562,-3.434,-7.07,12.6,-0.63
,-9.397,-1.383,-1.467,-8.775,-0.127,-4.125,3.43,17.08,0.98
,-9.531,-0.689,-1.254,-8.5,-1.804,-4.039,12.04,18.76,0.91
,-9.799,0.321,-2.106,-8.6,-2.69,-3.546,12.6,17.01,-0.21
17415.0,-8.691,-2.369,-3.357,-9.56,0.936,-3.805,7.07,20.3,1.96
,-8.926,-1.479,-3.173,-9.734,0.034,-3.941,24.08,22.68,3.01
,-9.277,0.129,-2.369,-9.356,-0.56,-4.31,35.0,24.64,3.29
,-9.552,1.158,-3.333,-8.981,-0.761,-4.027,30.1,21.49,1.54
17491.0,-8.49,-0.675,-3.862,-8.947,-2.352,-2.998,4.9,18.97,-1.68
,-8.184,-0.842,-4.001,-9.261,-2.072,-2.529,4.06,18.27,-3.29
,-8.878,-1.424,-3.747,-9.744,-1.443,-3.058,1.89,18.62,-2.87
,-9.127,-2.034,-3.324,-9.643,-0.852,-3.912,-0.07,19.46,-0.7
17566.0,-9.131,-0.526,-4.834,-8.961,-0.364,-4.748,5.74,16.31,3.99
,-8.49,-0.921,-5.353,-9.686,0.002,-4.573,1.47,17.64,6.79
,-8.251,-1.187,-4.898,-9.387,0.316,-4.491,3.92,18.69,7.56
,-8.571,-0.818,-4.822,-8.775,-0.081,-4.185,11.27,17.64,6.09
17642.0,-8.296,-0.79,-3.735,-9.304,-1.225,-3.683,0.14,16.73,3.22
,-8.698,-1.359,-3.084,-8.947,-0.371,-4.307,3.15,18.9,3.64
,-8.849,-1.687,-3.159,-9.033,0.376,-4.905,6.09,19.53,4.06
,-9.27,-1.658,-3.209,-9.093,1.089,-5.281,9.24,19.46,5.32
17717.0,-8.945,1.651,-5.128,-9.117,-1.11,-4.302,11.06,13.65,1.68
,-8.753,1.646,-5.02,-8.988,-1.381,-4.286,3.5,14.7,-0.84
,-8.607,0.725,-4.48,-8.789,-1.405,-4.3,-4.34,15.89,-2.38
,-8.947,-0.371,-4.324,-8.586,-1.314,-3.939,-7.91,14.98,-3.15
17793.0,-8.693,-0.96,-4.118,-8.851,-1.247,-4.965,6.23,16.94,-1.12
,-8.672,-0.823,-4.535,-8.844,-0.514,-4.922,4.27,16.17,0.07
,-8.626,-0.912,-4.939,-8.595,0.421,-5.025,0.28,15.82,1.96
,-8.521,-1.156,-5.317,-8.626,0.785,-4.944,-2.24,16.17,3.15
17869.0,-8.82,0.668,-4.925,-8.811,-1.189,-4.692,-0.77,11.06,-0.49
,-8.882,0.105,-4.659,-8.512,-0.821,-5.008,-5.04,12.11,-0.63
,-8.914,-0.653,-4.422,-8.418,-0.189,-5.327,-5.04,13.37,-1.61
,-9.182,-1.256,-4.298,-8.607,0.457,-5.508,-3.08,11.97,-2.87
17945.0,-8.366,0.581,-5.652,-8.567,-1.07,-4.623,4.06,6.65,-4.2
,-8.603,0.419,-5.355,-8.469,-2.316,-4.042,1.47,7.0,-6.23
,-8.933,0.232,-5.286,-8.497,-3.072,-4.061,0.14,6.37,-7.49
,-8.67,-0.175,-5.219,-8.78,-2.986,-4.563,0.7,6.58,-8.12
18021.0,-9.299,-2.536,-5.13,-8.2,-0.218,-5.47,19.39,8.26,1.26
,-9.253,-1.857,-5.334,-8.452,-0.438,-5.499,23.03,6.02,0.7
,-8.428,-0.62,-5.81,-8.595,-0.852,-5.257,23.31,5.04,-0.07
,-7.961,-0.079,-5.736,-8.65,-1.271,-5.023,19.67,5.11,-0.21
18096.0,-8.605,-1.531,-5.011,-8.866,-1.184,-5.396,8.82,3.29,1.12
,-8.823,-1.077,-4.944,-8.516,-1.467,-5.193,12.53,2.94,0.91
,-8.945,-0.778,-5.202,-8.021,-1.63,-5.063,14.91,2.03,1.19
,-8.792,-0.878,-5.319,-7.782,-1.85,-5.087,15.26,1.05,1.82
18172.0,-8.131,-1.63,-4.946,-9.328,-0.392,-4.63,19.32,1.68,7.07
,-8.571,-1.228,-4.439,-9.45,-0.34,-4.637,20.23,2.52,8.19
,-8.461,-0.732,-4.573,-8.686,-0.404,-4.671,19.88,1.96,9.52
,-8.701,-0.364,-4.882,-8.155,-0.223,-4.688,17.71,1.75,9.8
18248.0,-8.452,-0.136,-4.704,-8.253,-0.677,-5.202,9.38,1.54,8.75
,-8.918,0.086,-5.004,-8.155,-0.897,-5.087,8.47,1.26,6.86
,-9.127,-0.11,-5.027,-8.536,-0.902,-5.157,6.44,0.98,5.25
,-8.873,-0.476,-5.099,-8.997,-0.584,-5.08,5.67,0.28,4.76
18324.0,-8.978,-0.371,-5.166,-8.725,-1.153,-5.207,3.99,1.26,4.76
,-8.746,-0.699,-5.176,-8.844,-1.015,-5.047,0.0,0.91,4.97
,-8.631,-1.292,-5.162,-8.818,-1.077,-5.035,-1.75,1.26,5.18
,-8.641,-1.383,-5.176,-8.409,-0.943,-5.236,0.56,1.68,5.11
18399.0,-8.473,-0.615,-5.068,-8.677,0.122,-5.3,6.16,2.1,4.62
,-8.66,-0.433,-5.118,-8.696,0.218,-5.257,6.3,2.52,3.78
,-8.89,-0.246,-5.047,-8.65,0.101,-5.24,6.09,2.59,2.66
,-8.933,-0.038,-5.25,-8.662,-0.275,-5.212,5.6,2.38,1.68
18475.0,-8.701,-0.759,-5.039,-8.849,-1.225,-4.716,-2.87,0.7,-2.94
,-8.6,-1.106,-4.884,-8.677,-1.273,-4.649,-1.47,0.98,-3.08
,-8.648,-1.163,-4.872,-8.445,-1.297,-4.63,0.28,1.4,-3.22
,-8.796,-1.101,-4.949,-8.514,-1.208,-4.63,1.47,1.47,-3.01
18550.0,-8.605,-1.091,-4.602,-8.866,-0.366,-4.898,-0.28,1.82,1.19
,-8.811,-0.83,-4.769,-8.579,-0.237,-4.896,-0.56,1.61,1.19
,-9.009,-0.608,-4.848,-8.552,-0.014,-5.243,-1.47,1.54,0.98
,-8.971,-0.615,-4.664,-8.801,0.057,-5.229,-2.24,1.33,0.98
18626.0,-8.811,-0.108,-5.193,-8.906,-0.952,-5.023,-6.79,-0.42,0.84
,-8.636,-0.479,-5.171,-8.78,-1.127,-4.846,-7.91,-0.35,1.19
,-8.693,-0.739,-5.013,-8.799,-1.216,-4.925,-7.7,0.0,1.75
,-8.823,-0.814,-5.106,-8.646,-1.61,-5.056,-6.72,0.14,1.96
18702.0,-8.547,-1.831,-5.042,-8.464,-0.534,-5.236,-7.49,-1.61,5.18
,-8.598,-1.68,-5.008,-8.392,-0.553,-5.41,-6.02,-1.54,5.46
,-8.737,-1.201,-4.893,-8.646,-0.613,-5.346,-3.85,-1.75,4.9
,-8.78,-0.766,-5.006,-8.856,-0.687,-5.245,-4.06,-2.66,4.13
18778.0,-9.007,-0.821,-4.905,-8.409,-0.203,-5.348,-3.78,-3.15,2.03
,-8.918,-0.56,-4.934,-8.531,-0.414,-5.396,-0.56,-4.55,1.12
,-8.827,-0.395,-5.066,-8.88,-0.122,-5.288,1.47,-6.51,1.19
,-8.662,-0.206,-5.434,-8.825,0.069,-5.288,2.24,-7.84,1.4
18853.0,-8.813,0.215,-5.185,-8.952,-0.615,-4.748,4.69,-7.7,-3.85
,-8.959,0.29,-5.171,-9.256,-0.701,-4.494,2.73,-9.1,-4.34
,-8.6,0.302,-5.305,-8.945,-0.696,-4.63,0.49,-9.52,-4.83
,-8.476,-0.077,-5.152,-8.526,-0.694,-4.685,-0.49,-8.89,-5.67
18929.0,-8.358,-1.158,-4.956,-8.732,-1.543,-4.594,-1.68,-12.32,-3.64
,-8.471,-1.601,-4.681,-8.471,-1.161,-4.958,-1.89,-11.9,-2.87
,-8.727,-1.254,-5.118,-8.485,-1.338,-4.767,-0.84,-13.02,-1.47
,-9.048,-1.137,-4.949,-8.61,-1.519,-4.513,-1.75,-16.24,-0.77
19004.0,-8.701,-1.421,-4.322,-8.665,-0.373,-4.501,3.57,-13.72,4.97
,-8.93,-1.216,-4.164,-8.813,-0.342,-4.405,7.28,-12.6,5.6
,-9.033,-0.943,-4.245,-8.911,-0.278,-4.365,10.15,-11.83,6.16
,-8.918,-0.495,-4.475,-9.316,-0.218,-4.161,11.83,-11.83,6.86
19080.0,-8.957,-0.053,-4.46,-9.354,0.124,-3.599,11.13,-15.54,6.3
,-8.662,0.098,-4.207,-9.182,0.529,-3.824,7.21,-16.87,5.81
,-8.634,-0.127,-4.018,-8.878,0.347,-4.058,6.02,-15.61,5.11
,-8.954,-0.242,-3.731,-8.775,-0.134,-4.183,6.93,-14.42,4.06
19156.0,-8.878,-0.534,-4.149,-9.198,-0.369,-3.678,-0.42,-9.73,2.73
,-8.842,-0.663,-4.192,-9.009,-0.644,-3.702,3.08,-9.17,2.24
,-8.964,-0.558,-4.027,-8.906,-1.034,-3.58,6.72,-9.52,1.33
,-9.206,-0.45,-3.733,-9.119,-1.156,-3.381,8.19,-10.36,0.77
19232.0,-9.153,-0.895,-3.388,-9.074,-0.302,-3.594,6.37,-13.79,2.17
,-9.06,-0.486,-3.532,-9.055,-0.491,-3.707,6.3,-15.33,1.19
,-9.165,-0.146,-3.678,-8.947,-0.73,-3.183,3.01,-16.66,0.28
,-9.148,-0.172,-3.838,-9.232,-0.881,-2.919,-0.49,-17.22,-0.07
19308.0,-9.277,-1.022,-2.807,-9.122,-0.412,-2.972,2.73,-15.33,-1.19
,-9.258,-1.046,-2.532,-9.134,-0.553,-2.776,6.09,-14.42,-0.63
,-9.349,-0.668,-2.85,-9.15,-0.601,-2.627,8.12,-14.14,-0.28
,-9.191,-0.349,-2.759,-9.167,-0.541,-2.501,7.42,-13.44,-0.07
19383.0,-9.119,-0.388,-2.357,-9.531,-0.467,-2.678,5.39,-8.4,-1.05
,-9.261,-0.316,-1.811,-9.308,-0.596,-3.084,5.88,-6.44,-0.7
,-9.454,-0.376,-2.111,-9.129,-1.036,-3.099,3.36,-5.74,-1.05
,-9.517,-0.469,-2.187,-9.131,-1.122,-3.427,1.4,-4.9,-1.05
19459.0,-9.079,-0.864,-3.577,-9.361,-0.402,-3.759,0.77,-2.45,-1.54
,-9.373,-0.605,-3.429,-9.232,-0.651,-4.08,3.36,-2.31,-1.26
,-9.552,-0.268,-3.218,-9.083,-0.902,-4.006,3.99,-2.31,-1.4
,-9.584,-0.191,-3.654,-9.1,-0.833,-3.616,0.63,-3.08,-2.24
19535.0,-9.251,-0.526,-3.305,-9.373,-0.627,-2.484,11.62,-3.92,-0.91
,-9.416,-0.261,-3.061,-9.402,-0.809,-2.441,12.25,-3.92,-1.05
,-9.505,-0.144,-2.903,-9.402,-0.768,-2.781,9.73,-3.99,-1.33
,-9.414,-0.361,-2.654,-9.268,-0.648,-2.869,5.95,-3.78,-1.82
19611.0,-9.229,-0.608,-2.96,-9.507,-0.634,-2.52,2.66,-1.54,-2.03
,-9.105,-0.759,-2.639,-9.562,-0.519,-2.958,2.24,-0.63,-1.82
,-9.261,-0.878,-2.374,-9.344,-0.715,-3.195,3.5,0.7,-1.47
,-9.414,-0.771,-2.472,-9.098,-1.05,-2.958,4.2,1.54,-1.47
19686.0,-9.095,-1.287,-2.592,-9.533,-0.074,-3.455,0.7,4.34,-0.42
,-9.306,-1.256,-2.206,-9.244,-0.658,-3.793,4.83,6.16,0.14
,-9.758,-0.68,-2.596,-9.079,-1.165,-3.92,7.21,6.51,0.0
,-9.765,-0.177,-3.108,-8.959,-1.177,-3.831,3.15,5.81,-0.7
19762.0,-9.119,-1.065,-3.778,-9.483,-0.431,-3.319,-0.35,4.9,0.21
,-9.253,-0.964,-3.537,-9.366,-0.562,-3.396,2.87,4.9,1.05
,-9.418,-0.775,-3.336,-9.246,-0.754,-3.549,3.99,4.34,1.4
,-9.474,-0.562,-3.226,-9.268,-0.907,-3.599,3.29,3.78,1.33
19837.0,-9.256,-0.928,-3.628,-9.344,-0.526,-3.671,-0.14,2.52,0.7
,-9.261,-0.838,-3.577,-9.237,-0.57,-3.609,2.24,2.38,1.19
,-9.304,-0.747,-3.546,-9.225,-0.644,-3.513,4.2,2.17,1.47
,-9.366,-0.593,-3.659,-9.227,-0.68,-3.508,5.18,1.68,1.47
19913.0,-9.241,-0.617,-3.446,-9.275,-0.579,-2.996,5.18,0.0,1.19
,-9.347,-0.581,-3.343,-9.354,-0.62,-2.919,5.39,-0.07,1.12
,-9.356,-0.641,-3.329,-9.402,-0.589,-2.745,4.9,-0.07,0.98
,-9.335,-0.677,-3.137,-9.416,-0.553,-2.704,5.04,0.21,1.05
19989.0,-9.471,-0.548,-2.694,-9.32,-0.749,-3.386,2.31,2.66,0.21
,-9.483,-0.605,-2.723,-9.222,-0.773,-3.563,1.75,3.36,0.14
,-9.407,-0.553,-2.948,-9.239,-0.802,-3.661,1.4,3.5,-0.21
,-9.383,-0.598,-3.144,-9.206,-0.744,-3.563,1.05,3.92,-0.28
20065.0,-9.265,-0.715,-3.57,-9.289,-0.79,-3.515,5.32,3.43,0.14
,-9.294,-0.641,-3.453,-9.234,-0.931,-3.477,5.18,3.22,0.07
,-9.304,-0.593,-3.424,-9.153,-0.945,-3.343,4.48,3.01,0.0
,-9.347,-0.625,-3.498,-9.237,-0.821,-3.285,3.15,2.66,-0.14
20141.0,-9.311,-0.61,-3.223,-9.304,-0.866,-3.592,3.5,2.31,0.14
,-9.359,-0.538,-3.221,-9.253,-0.96,-3.654,2.1,2.24,0.0
,-9.397,-0.613,-3.309,-9.258,-0.864,-3.628,0.21,2.17,-0.14
,-9.356,-0.761,-3.405,-9.328,-0.677,-3.642,-0.91,2.1,-0.28
20216.0,-9.311,-0.57,-3.661,-9.313,-0.833,-3.343,3.57,0.91,0.56
,-9.284,-0.653,-3.637,-9.304,-0.826,-3.178,2.1,0.56,0.49
,-9.282,-0.78,-3.498,-9.342,-0.68,-3.197,1.33,0.21,0.49
,-9.261,-0.885,-3.388,-9.363,-0.718,-3.132,1.68,0.14,0.56
20292.0,-9.34,-0.713,-3.111,-9.306,-0.708,-3.077,1.47,0.63,0.63
,-9.325,-0.72,-3.144,-9.363,-0.648,-3.202,1.12,0.98,0.56
,-9.332,-0.723,-3.149,-9.337,-0.644,-3.288,0.98,1.4,0.56
,-9.256,-0.689,-3.135,-9.318,-0.715,-3.324,1.19,1.54,0.63
20368.0,-9.304,-0.711,-3.374,-9.265,-0.744,-3.582,0.14,1.89,0.28
,-9.311,-0.787,-3.518,-9.277,-0.799,-3.47,0.49,1.89,0.28
,-9.282,-0.706,-3.592,-9.308,-0.873,-3.415,0.63,1.54,0.21
,-9.277,-0.672,-3.716,-9.316,-0.854,-3.386,0.28,1.26,0.07
20444.0,-9.311,-0.644,-3.369,-9.299,-0.759,-3.063,3.57,0.63,0.91
,-9.325,-0.629,-3.29,-9.344,-0.761,-3.142,2.66,0.56,0.77
,-9.311,-0.648,-3.247,-9.368,-0.718,-3.25,1.75,0.35,0.63
,-9.265,-0.747,-3.132,-9.282,-0.668,-3.293,1.26,0.35,0.49
20519.0,-9.27,-0.737,-3.271,-9.325,-0.799,-3.106,0.63,0.77,0.49
,-9.251,-0.766,-3.34,-9.306,-0.826,-2.953,0.98,1.05,0.56
,-9.273,-0.704,-3.362,-9.395,-0.797,-2.881,1.68,1.19,0.7
,-9.306,-0.725,-3.34,-9.308,-0.715,-2.673,1.54,1.19,0.7
20595.0,-9.378,-0.641,-2.364,-9.325,-0.617,-2.414,3.15,4.13,1.12
,-9.519,-0.507,-2.57,-9.493,-0.672,-2.462,2.45,4.76,0.84
,-9.402,-0.474,-2.522,-9.555,-0.512,-3.104,0.63,5.46,0.7
,-9.337,-0.507,-2.505,-9.277,-0.529,-3.632,-0.77,6.72,0.91
20670.0,-9.045,-0.558,-3.752,-9.433,-0.747,-3.061,-9.8,6.86,-0.84
,-9.024,-0.648,-3.556,-9.512,-0.593,-3.23,-10.36,7.07,-0.84
,-9.136,-0.876,-3.623,-9.514,-0.481,-3.178,-8.68,7.21,-0.77
,-9.179,-0.907,-3.183,-9.282,-0.313,-3.51,-5.6,8.12,-0.14
20746.0,-9.16,-0.414,-3.479,-9.129,-1.402,-3.257,-15.89,2.8,-1.75
,-9.208,-0.385,-3.632,-9.359,-1.304,-2.79,-18.41,1.61,-1.68
,-9.052,-0.603,-3.833,-9.299,-1.005,-3.446,-19.88,2.03,-1.75
,-9.005,-1.007,-3.434,-9.072,-0.56,-3.326,-17.08,4.97,-1.12
20822.0,-9.308,-0.462,-3.731,-8.607,-0.558,-3.034,4.55,9.8,2.66
,-9.287,-0.838,-3.999,-9.139,-0.309,-2.915,1.61,9.24,2.59
,-9.395,-0.94,-3.905,-9.261,-0.191,-3.417,2.59,8.54,2.73
,-8.935,-0.751,-3.865,-9.383,-0.479,-3.398,3.99,8.33,2.31
20898.0,-9.258,-1.108,-3.486,-9.184,-0.608,-3.585,-8.68,9.52,1.33
,-8.959,-1.835,-3.314,-9.323,-0.416,-3.932,-4.27,11.55,2.17
,-8.737,-1.764,-2.91,-9.105,-0.732,-4.025,8.75,13.86,3.57
,-8.832,-1.168,-3.18,-9.119,-0.56,-3.142,19.25,14.21,4.27
20973.0,-9.11,0.261,-2.716,-8.674,-1.701,-4.503,20.44,16.87,2.8
,-9.182,1.065,-3.386,-8.442,-3.041,-3.766,13.09,12.46,-1.54
,-9.488,1.208,-3.855,-8.748,-2.69,-3.396,-3.57,8.19,-3.57
,-9.292,0.294,-4.336,-9.191,-1.366,-3.35,-22.26,6.44,-2.59
21049.0,-9.663,0.129,-3.424,-8.437,-0.948,-3.376,20.58,13.65,0.28
,-9.421,0.833,-3.759,-8.878,-0.713,-3.465,14.49,12.67,1.61
,-8.863,0.208,-3.939,-9.119,-0.436,-3.568,4.62,13.23,2.59
,-8.49,-0.615,-3.589,-9.067,-0.347,-3.568,1.26,15.4,2.66
21125.0,-8.768,-0.785,-3.36,-9.567,0.66,-4.963,2.94,20.3,0.91
,-8.801,-0.694,-3.245,-8.844,0.526,-5.339,4.9,22.12,0.98
,-9.136,-0.237,-3.91,-8.349,-0.237,-5.154,7.84,20.23,0.35
,-9.452,0.342,-4.532,-8.478,-0.744,-4.934,7.0,16.38,-0.42
21201.0,-8.598,-0.96,-4.834,-8.959,-0.361,-4.022,0.91,14.42,-2.94
,-8.863,-0.95,-4.755,-8.72,-0.246,-3.788,4.41,14.77,-3.22
,-9.081,-0.773,-4.496,-9.062,-0.567,-4.178,5.6,15.33,-3.64
,-9.069,-0.653,-4.228,-9.356,-0.68,-4.508,4.76,16.31,-3.99
21277.0,-9.308,-0.802,-4.817,-8.689,-0.536,-4.932,-7.56,10.01,-1.33
,-8.643,-0.897,-5.272,-8.813,-0.61,-4.482,-7.14,8.82,-0.56
,-8.258,-0.708,-5.504,-8.935,-0.988,-3.944,-3.08,8.75,-1.75
,-8.284,-0.512,-5.413,-8.827,-1.352,-3.955,1.19,8.89,-3.64
21352.0,-8.471,-1.46,-3.953,-8.933,-0.191,-5.793,-3.36,8.68,0.42
,-8.562,-1.196,-4.094,-9.026,-0.421,-5.363,0.84,10.36,1.12
,-8.866,-0.869,-4.372,-8.244,-0.617,-5.944,3.92,10.64,1.4
,-9.093,-0.328,-5.128,-7.798,-1.328,-5.647,5.18,9.31,1.19
21428.0,-8.284,-2.063,-4.953,-8.849,-1.622,-4.8,8.05,7.84,-0.07
,-8.93,-2.079,-4.815,-9.086,-0.739,-5.102,11.69,7.42,1.33
,-8.808,-2.257,-4.649,-9.337,-0.134,-5.152,14.07,7.84,3.36
,-8.55,-2.178,-4.726,-9.055,0.101,-5.183,16.73,8.96,5.46
21503.0,-8.794,0.012,-5.508,-8.806,-0.601,-5.26,12.88,1.4,2.45
,-8.65,-0.663,-5.298,-8.804,-0.184,-5.386,9.31,1.75,3.08
,-8.641,-1.137,-5.238,-8.571,0.17,-5.506,10.99,1.4,2.38
,-8.545,-1.029,-5.363,-8.559,0.16,-5.13,16.38,1.05,1.54
21579.0,-8.753,0.144,-4.862,-8.303,-1.043,-4.812,14.28,-0.77,-3.22
,-9.213,0.139,-4.843,-8.514,-1.754,-4.46,12.11,-1.61,-4.9
,-9.201,-0.309,-4.925,-8.952,-2.053,-4.07,8.68,-2.45,-5.74
,-8.782,-0.581,-4.908,-9.021,-2.096,-4.231,7.7,-3.22,-5.11
21655.0,-8.909,-1.838,-4.401,-8.765,-0.285,-5.078,12.46,-2.73,1.19
,-8.708,-1.596,-4.372,-8.99,-0.179,-4.949,13.37,-3.08,2.8
,-8.131,-1.285,-4.704,-8.957,-0.354,-4.422,13.79,-3.15,4.13
,-8.126,-0.771,-5.178,-8.875,-0.476,-4.243,14.63,-3.01,4.76
21731.0,-8.851,-0.581,-4.221,-8.981,-0.739,-5.166,6.3,-3.22,1.75
,-9.045,-0.431,-4.386,-8.842,-0.993,-4.963,6.23,-2.38,0.91
,-9.062,-0.581,-4.535,-8.811,-1.417,-4.707,5.46,-1.82,0.35
,-9.139,-0.663,-4.939,-8.66,-1.481,-4.733,6.44,-1.96,-0.14
21806.0,-8.39,-1.589,-4.496,-8.82,-1.165,-4.503,9.52,-2.59,1.75
,-8.473,-1.572,-4.468,-8.404,-1.484,-4.556,9.59,-1.61,1.89
,-8.94,-1.251,-4.673,-8.684,-1.548,-4.678,9.66,-1.12,1.82
,-9.184,-1.07,-4.362,-8.964,-1.417,-4.609,7.98,-1.61,2.24
21882.0,-8.914,-1.237,-4.36,-8.562,-0.952,-4.381,5.46,-0.98,3.5
,-8.777,-1.137,-4.324,-8.875,-0.622,-4.264,4.69,-0.84,3.92
,-8.741,-1.287,-4.19,-9.105,-0.189,-4.609,3.85,-0.28,4.62
,-8.588,-1.117,-4.243,-8.825,-0.261,-4.685,4.34,0.21,4.76
21958.0,-8.538,-0.481,-4.573,-9.249,-1.003,-3.719,0.98,1.12,2.73
,-8.784,-0.689,-4.52,-9.409,-1.031,-3.393,0.56,1.61,1.68
,-9.136,-0.883,-4.405,-9.105,-0.732,-3.056,0.42,2.87,0.56
,-9.069,-0.905,-4.19,-8.222,-0.656,-3.656,1.26,4.34,-0.28
22034.0,-7.916,-1.062,-3.944,-9.074,-0.747,-4.006,-4.97,6.86,2.17
,-8.579,-0.737,-4.207,-9.045,-0.589,-4.003,-3.15,8.82,1.96
,-9.203,-0.498,-4.207,-8.734,-0.876,-4.458,-2.1,9.52,0.98
,-9.184,-0.591,-4.056,-8.509,-1.065,-4.58,-2.24,10.36,0.0
22109.0,-8.591,-1.086,-4.628,-9.031,-0.002,-5.394,-2.73,11.9,1.82
,-8.866,-0.701,-4.858,-9.134,-0.672,-5.25,-0.21,11.62,1.47
,-9.088,-0.053,-5.138,-8.794,-1.441,-5.171,1.26,10.92,0.42
,-9.134,0.263,-5.15,-8.452,-2.036,-4.92,-0.42,10.15,-0.63
22185.0,-8.296,-2.228,-4.958,-8.758,-1.352,-5.489,-8.89,6.72,3.5
,-8.483,-1.924,-5.145,-8.576,-1.443,-5.446,-4.27,6.37,5.04
,-8.722,-1.701,-5.138,-8.531,-1.596,-5.355,-2.17,5.81,6.23
,-8.921,-1.476,-5.15,-8.763,-1.591,-5.042,-2.38,5.25,7.63
22261.0,-9.072,-1.402,-4.819,-8.533,-0.237,-5.418,-1.61,4.41,9.8
,-8.921,-1.11,-4.992,-9.052,0.029,-5.269,0.7,2.59,10.78
,-8.538,-0.936,-5.281,-9.167,0.184,-5.26,1.61,1.54,11.55
,-8.363,-0.586,-5.439,-8.849,0.0,-5.133,3.22,0.91,11.55
22336.0,-8.705,-0.361,-5.035,-8.899,-0.62,-5.372,-2.31,-3.71,4.06
,-8.61,-0.591,-4.925,-8.784,-0.845,-5.118,-1.68,-3.71,3.57
,-8.631,-0.61,-5.427,-8.796,-1.067,-5.02,1.33,-4.55,2.94
,-8.756,-0.665,-5.401,-8.823,-1.005,-4.965,5.46,-5.88,2.24
22412.0,-8.703,-0.739,-4.97,-8.569,-0.122,-5.293,12.04,-5.53,1.19
,-8.82,-0.412,-4.922,-8.983,-0.459,-4.989,11.97,-5.46,1.33
,-9.067,-0.096,-4.982,-9.337,-0.431,-4.838,9.31,-7.49,1.68
,-8.784,0.005,-5.219,-8.897,-1.263,-4.444,5.04,-8.75,2.03
22488.0,-8.586,-1.151,-4.47,-8.916,-0.165,-4.671,-5.11,-13.3,1.19
,-8.189,-0.737,-5.104,-8.794,-0.256,-4.393,0.77,-14.28,1.54
,-8.5,-0.704,-4.889,-8.775,-0.55,-4.274,3.36,-15.05,1.26
,-8.83,-0.517,-4.707,-8.961,-1.048,-4.046,5.74,-15.89,0.77
22564.0,-9.088,-1.235,-3.79,-8.007,-0.383,-4.673,6.65,-5.95,1.89
,-9.165,-1.156,-3.893,-8.062,-0.55,-4.362,10.29,-4.62,3.08
,-9.39,-1.094,-3.821,-8.799,-0.648,-4.207,11.48,-5.88,4.55
,-9.182,-0.591,-4.125,-9.136,-0.333,-4.214,9.17,-12.88,5.39
22639.0,-9.038,0.024,-4.001,-8.873,-0.416,-4.379,2.1,-14.14,3.36
,-8.906,0.005,-3.917,-8.701,-0.68,-4.116,-1.82,-12.95,3.01
,-8.873,-0.318,-4.197,-8.72,-0.926,-3.752,-4.2,-12.39,2.38
,-8.916,-0.342,-4.513,-8.966,-0.766,-3.664,-3.15,-11.48,2.31
22715.0,-9.253,-0.342,-3.793,-8.909,-0.579,-3.719,10.57,-9.45,2.94
,-9.136,-0.134,-3.977,-8.839,-0.572,-3.886,6.72,-11.97,2.87
,-9.057,-0.134,-3.975,-8.856,-0.706,-3.733,3.64,-11.69,3.08
,-9.083,-0.359,-4.046,-8.904,-0.986,-3.549,1.4,-11.69,2.66
22791.0,-9.083,-1.098,-3.384,-9.162,-0.081,-3.331,5.18,-9.31,2.87
,-9.268,-1.058,-3.233,-9.16,0.191,-3.604,8.33,-9.1,3.43
,-9.385,-0.802,-3.259,-9.143,0.029,-3.735,10.29,-9.52,3.99
,-9.232,-0.342,-3.293,-8.856,-0.514,-3.496,9.45,-10.15,3.64
22867.0,-9.024,-0.854,-3.185,-9.342,-0.357,-2.797,0.49,-9.59,0.42
,-9.086,-0.976,-3.106,-9.32,-0.658,-2.596,4.27,-9.73,-0.21
,-9.22,-0.526,-3.118,-9.22,-0.78,-2.548,7.49,-10.08,-0.42
,-9.423,-0.16,-3.108,-9.146,-0.577,-2.592,5.81,-10.57,-0.77
22942.0,-9.136,-0.29,-2.675,-9.244,-0.782,-2.934,0.7,-5.67,-1.96
,-9.189,-0.424,-2.742,-9.15,-0.632,-2.63,-2.17,-4.97,-2.24
,-9.246,-0.747,-2.771,-9.28,-0.428,-2.924,-3.15,-3.92,-1.96
,-9.294,-0.816,-2.924,-9.182,-0.134,-3.044,-1.89,-2.94,-1.75
23018.0,-9.215,0.026,-3.587,-9.249,-1.127,-2.668,-3.71,-0.91,-2.87
,-9.115,-0.194,-3.711,-9.555,-0.625,-2.788,-8.89,-1.26,-3.5
,-9.115,-0.78,-3.613,-9.462,-0.168,-2.97,-10.92,-0.42,-3.64
,-9.165,-1.249,-3.384,-9.294,-0.244,-3.532,-7.84,0.77,-3.36
23093.0,-8.981,-0.66,-3.654,-9.342,-0.431,-2.965,-10.22,1.54,-2.73
,-8.935,-1.108,-4.001,-9.55,-0.194,-3.037,-8.47,2.31,-2.24
,-8.914,-1.204,-3.778,-9.395,-0.179,-3.25,-2.73,3.22,-1.26
,-9.098,-0.979,-3.321,-9.246,-0.445,-3.486,3.78,4.13,-0.28
23169.0,-9.067,-0.842,-3.64,-9.287,-0.373,-3.642,-3.71,4.34,-0.21
,-9.076,-0.943,-3.446,-9.232,-0.641,-3.75,0.35,5.11,0.07
,-9.301,-0.627,-3.704,-9.179,-0.806,-3.786,4.13,4.83,0.07
,-9.237,-0.4,-3.606,-9.141,-0.66,-4.128,3.36,4.62,-0.21
23245.0,-9.076,-0.826,-4.164,-9.543,-0.68,-3.235,-0.63,2.59,-0.14
,-9.04,-0.962,-4.063,-9.543,-0.345,-3.513,0.21,2.66,0.28
,-9.043,-1.041,-3.597,-9.27,-0.325,-3.75,2.59,3.29,0.77
,-9.261,-0.972,-3.367,-9.055,-0.56,-4.037,5.04,3.36,0.98
23321.0,-8.94,-0.842,-4.223,-9.375,-0.206,-3.587,-2.03,2.03,0.84
,-8.988,-0.905,-4.015,-9.296,-0.23,-3.544,2.31,2.24,1.47
,-9.16,-0.644,-3.9,-9.268,-0.483,-3.709,6.23,2.17,1.75
,-9.351,-0.414,-3.625,-9.095,-0.797,-3.865,7.49,2.1,1.75
23397.0,-9.036,-1.005,-3.841,-9.172,-0.581,-3.376,-0.56,0.42,0.42
,-9.031,-0.704,-3.857,-9.234,-0.797,-3.161,1.89,0.28,0.7
,-9.158,-0.584,-3.769,-9.38,-0.806,-3.063,3.08,0.28,0.77
,-9.167,-0.433,-3.618,-9.521,-0.771,-2.972,2.59,0.35,0.84
23472.0,-9.497,-0.495,-3.161,-8.981,-0.89,-4.13,1.89,2.38,0.91
,-9.308,-0.29,-3.623,-9.16,-0.869,-3.951,-1.19,1.96,0.42
,-9.04,-0.562,-3.893,-9.304,-0.524,-3.934,-3.71,2.17,0.28
,-9.009,-0.744,-4.154,-9.304,-0.378,-4.025,-3.64,2.38,0.42
23548.0,-9.208,-0.433,-3.955,-9.258,-0.562,-3.491,3.5,0.28,1.82
,-9.076,-0.646,-4.027,-9.308,-0.605,-3.142,2.24,-0.07,1.75
,-9.048,-0.835,-3.944,-9.32,-0.486,-3.039,3.5,-0.28,1.75
,-9.148,-0.651,-3.788,-9.292,-0.373,-3.183,5.25,-0.28,1.89
23624.0,-9.246,-0.445,-3.276,-9.284,-0.581,-3.47,1.05,0.77,1.19
,-9.165,-0.479,-3.506,-9.284,-0.436,-3.549,-0.49,0.91,0.91
,-9.105,-0.67,-3.53,-9.27,-0.397,-3.738,-0.98,1.26,0.77
,-9.215,-0.615,-3.652,-9.208,-0.498,-3.845,-0.07,1.47,0.84
23700.0,-9.129,-0.366,-4.118,-9.273,-0.574,-3.769,-2.59,0.28,0.21
,-9.064,-0.627,-4.118,-9.251,-0.483,-3.534,-2.73,-0.07,0.28
,-9.072,-0.687,-3.948,-9.246,-0.493,-3.613,-1.47,-0.07,0.42
,-9.15,-0.689,-3.86,-9.225,-0.627,-3.326,0.42,-0.28,0.56
23775.0,-9.27,-0.67,-3.319,-9.213,-0.596,-3.69,0.14,-0.14,0.49
,-9.325,-0.541,-3.259,-9.155,-0.622,-3.85,1.4,0.42,0.63
,-9.335,-0.55,-3.412,-9.17,-0.72,-3.912,0.84,0.28,0.49
,-9.273,-0.479,-3.52,-9.136,-0.749,-3.867,-0.28,0.42,0.49
23851.0,-9.189,-0.658,-3.955,-9.186,-0.481,-3.64,0.21,-0.49,0.84
,-9.198,-0.768,-3.886,-9.162,-0.29,-3.575,0.63,-0.77,1.05
,-9.201,-0.687,-3.853,-9.263,-0.227,-3.477,1.82,-0.91,1.47
,-9.215,-0.562,-3.778,-9.289,-0.22,-3.475,3.29,-0.98,1.75
23926.0,-9.277,-0.342,-3.439,-9.337,-0.105,-2.931,2.59,-1.05,0.84
,-9.246,-0.369,-3.34,-9.304,-0.158,-2.891,2.87,-0.7,0.7
,-9.287,-0.369,-3.149,-9.249,-0.395,-2.84,3.99,-0.28,0.49
,-9.349,-0.266,-2.986,-9.287,-0.713,-2.692,5.88,0.42,0.35
24002.0,-9.354,-0.627,-2.898,-8.959,-1.139,-4.07,1.33,3.78,-0.49
,-9.349,-0.507,-3.262,-8.916,-1.283,-3.996,0.14,3.78,-0.63
,-9.139,-0.581,-3.345,-9.067,-0.921,-3.664,-2.03,3.78,-0.42
,-9.148,-0.84,-3.872,-9.282,-0.4,-3.496,-3.99,3.5,-0.42
24078.0,-9.445,0.151,-3.151,-9.04,-1.043,-4.042,4.76,4.34,0.56
,-9.514,0.388,-3.408,-8.916,-1.505,-3.963,-0.35,3.57,-0.21
,-9.349,0.093,-3.307,-8.973,-1.476,-3.783,-5.88,3.22,-0.42
,-9.139,-0.34,-3.671,-9.287,-1.153,-3.731,-10.85,2.73,-0.63
24154.0,-9.395,-1.05,-3.644,-8.581,-1.146,-3.585,7.21,3.5,3.57
,-9.39,-0.909,-3.484,-8.904,-0.577,-3.62,6.3,3.92,4.2
,-9.299,-1.077,-3.214,-9.203,0.124,-3.977,6.37,5.67,5.39
,-9.036,-1.33,-3.656,-9.261,0.299,-4.015,7.07,6.37,6.23
24229.0,-9.296,0.275,-3.589,-9.44,0.668,-2.369,18.9,5.81,6.58
,-9.356,0.211,-3.056,-9.375,0.311,-2.453,19.18,6.51,4.9
,-9.39,0.282,-2.627,-9.363,-0.759,-2.46,20.44,7.07,2.66
,-9.524,0.419,-2.108,-9.146,-1.706,-2.946,17.01,6.86,0.21
24305.0,-8.772,-2.443,-2.702,-9.093,1.285,-4.125,-14.0,9.66,-0.7
,-8.923,-2.134,-2.513,-9.184,1.594,-5.016,-3.29,12.53,0.14
,-9.184,-1.077,-2.41,-8.89,0.893,-5.248,7.07,14.21,0.91
,-9.325,0.194,-3.266,-8.681,-0.244,-4.556,10.43,12.53,1.05
24381.0,-8.461,-0.656,-3.716,-9.407,-0.847,-3.484,1.68,13.37,-4.55
,-9.172,-0.603,-2.625,-9.289,-1.603,-3.829,7.49,14.63,-6.02
,-9.619,-0.273,-2.893,-9.076,-2.051,-3.91,6.44,12.46,-6.51
,-9.44,-0.44,-3.032,-8.701,-1.512,-4.027,0.35,11.13,-5.32
24457.0,-8.576,-0.677,-4.092,-8.497,-0.474,-4.262,9.87,16.38,-1.54
,-8.978,-0.089,-4.209,-8.799,-1.108,-3.647,10.36,15.05,-1.96
,-8.839,0.318,-4.46,-9.541,-1.192,-3.338,7.28,13.93,-1.89
,-8.772,0.139,-4.515,-10.194,-1.0,-3.142,3.64,14.07,-1.26
24533.0,-9.813,-0.802,-3.659,-8.614,-0.165,-4.527,6.16,12.32,-1.4
,-8.897,-0.799,-3.951,-8.586,0.101,-4.625,2.24,12.04,-0.07
,-8.6,-0.826,-4.176,-8.571,0.055,-4.786,2.03,13.65,0.35
,-8.646,-0.637,-4.298,-8.591,-0.081,-4.661,3.64,13.79,-0.63
24608.0,-8.78,-0.179,-4.401,-8.37,-0.299,-4.214,-0.77,13.58,-3.5
,-9.246,-0.026,-4.07,-8.39,-1.168,-4.073,0.91,12.74,-5.04
,-9.136,0.421,-4.353,-8.949,-1.35,-3.944,0.56,10.29,-5.81
,-8.799,0.349,-4.468,-9.019,-0.519,-4.389,-3.29,9.59,-5.25
24684.0,-8.897,0.304,-4.748,-8.76,0.024,-4.348,5.74,11.69,-5.67
,-9.263,0.928,-4.812,-8.392,-0.534,-4.104,2.94,10.99,-7.21
,-9.313,0.976,-4.917,-8.744,-1.12,-3.79,-2.24,10.29,-8.75
,-9.184,0.591,-4.786,-8.949,-1.709,-3.733,-7.91,10.36,-10.36
24759.0,-8.715,-2.316,-4.176,-8.251,-2.142,-5.372,-8.96,6.72,-7.35
,-8.464,-3.087,-4.649,-8.09,-1.173,-5.25,-7.07,8.19,-3.15
,-8.674,-3.604,-4.824,-8.227,-0.818,-5.403,-1.26,9.66,-0.63
,-8.504,-3.025,-4.984,-8.547,-0.976,-4.951,7.21,9.38,0.63
24835.0,-8.842,-0.67,-4.908,-8.722,-1.036,-4.664,5.74,9.73,6.44
,-8.516,-0.72,-4.865,-8.863,-0.668,-4.843,5.88,10.43,6.23
,-8.612,-0.833,-4.755,-8.863,0.462,-5.458,7.49,11.2,6.23
,-8.564,-0.921,-4.63,-8.662,1.139,-5.731,9.45,12.18,6.44
24911.0,-9.095,1.213,-5.626,-8.232,-1.85,-4.647,21.7,9.8,-2.38
,-9.89,1.015,-5.288,-8.129,-2.424,-4.96,17.01,7.42,-5.32
,-9.5,0.175,-4.891,-8.409,-2.367,-5.044,11.48,6.16,-6.65
,-8.751,-1.022,-4.554,-8.497,-1.768,-5.334,7.07,6.16,-6.79
24987.0,-8.497,-1.603,-5.264,-8.483,-1.642,-4.846,13.86,6.93,-1.54
,-8.6,-1.484,-4.953,-8.677,-1.488,-4.683,13.44,6.79,-1.05
,-8.837,-1.137,-4.891,-8.569,-1.096,-4.853,11.9,5.39,0.35
,-8.686,-1.393,-4.817,-8.684,-0.11,-4.994,9.52,5.46,2.03
25062.0,-8.536,0.263,-5.343,-8.959,-0.555,-5.138,7.49,3.64,6.37
,-8.473,0.208,-5.19,-8.564,-0.838,-5.083,3.71,2.59,6.23
,-8.655,-0.074,-5.401,-8.461,-0.864,-5.26,2.17,1.89,5.32
,-8.952,-0.416,-5.384,-8.648,-1.05,-5.339,2.1,2.24,4.27
25138.0,-9.139,-1.244,-5.185,-8.581,-1.694,-4.676,4.27,2.03,0.84
,-9.0,-1.5,-5.104,-8.614,-1.656,-4.798,3.78,1.26,2.24
,-8.425,-1.831,-5.047,-8.476,-1.613,-5.09,3.43,1.89,3.15
,-8.344,-1.85,-4.917,-8.622,-1.472,-5.193,4.62,2.8,4.13
25213.0,-8.753,-1.304,-5.104,-8.78,0.091,-5.008,3.08,3.22,7.63
,-8.643,-1.106,-5.027,-8.662,0.419,-5.2,5.04,3.29,7.63
,-8.543,-0.684,-5.023,-8.605,0.232,-5.138,6.51,3.92,7.49
,-8.619,-0.218,-5.116,-8.638,-0.189,-5.217,6.72,4.27,6.93
25289.0,-8.579,-0.567,-5.027,-8.65,-0.534,-5.243,0.77,3.15,1.47
,-8.378,-0.416,-4.872,-8.404,-0.586,-5.111,2.38,3.78,0.77
,-8.607,-0.22,-5.133,-8.538,-0.593,-5.087,2.1,3.85,-0.49
,-8.882,-0.223,-5.274,-8.643,-0.838,-5.018,0.56,2.8,-0.98
25365.0,-8.839,-0.909,-4.891,-8.662,-1.261,-4.984,-2.59,1.96,-2.8
,-8.72,-0.78,-5.061,-8.65,-1.383,-4.891,-2.59,1.33,-2.52
,-8.612,-0.814,-5.018,-8.583,-1.271,-4.915,-2.73,1.54,-2.03
,-8.49,-1.137,-4.96,-8.78,-0.905,-5.245,-2.52,1.75,-1.68
25441.0,-8.914,-0.558,-5.434,-8.65,-1.086,-5.322,2.38,1.82,-0.98
,-8.899,-0.634,-5.217,-8.768,-1.094,-5.154,0.56,1.12,-0.35
,-8.576,-0.905,-5.135,-8.76,-0.735,-5.262,-2.24,0.63,0.84
,-8.404,-1.003,-5.219,-8.643,-0.364,-5.355,-3.43,0.42,1.82
25517.0,-8.557,-0.438,-5.425,-8.648,-1.563,-4.815,-3.71,-1.47,5.04
,-8.603,-0.802,-5.224,-8.775,-1.192,-4.934,-6.09,-1.89,5.6
,-8.579,-1.146,-5.083,-8.619,-0.914,-5.066,-6.79,-2.17,6.09
,-8.607,-1.445,-4.874,-8.681,-0.914,-5.123,-6.93,-1.89,6.65
25592.0,-8.629,-0.943,-5.264,-8.758,-0.809,-5.152,-2.87,-2.52,8.61
,-8.574,-1.017,-5.25,-8.658,-0.725,-5.224,-3.36,-2.38,9.17
,-8.653,-0.948,-5.255,-8.524,-0.797,-5.097,-2.38,-2.94,9.03
,-8.638,-0.921,-5.195,-8.698,-0.692,-5.037,-0.84,-2.59,7.91
25668.0,-8.784,-0.603,-5.087,-8.61,0.038,-5.724,6.72,-3.92,5.95
,-8.894,-0.426,-5.262,-8.849,-0.122,-5.291,8.47,-5.04,5.04
,-8.815,-0.132,-5.331,-8.701,0.12,-5.305,9.24,-6.02,3.92
,-8.839,0.091,-5.669,-8.416,0.098,-5.054,8.68,-6.86,3.01
25744.0,-8.421,-0.036,-4.953,-8.567,-0.715,-4.599,3.29,-9.66,-1.4
,-8.77,-0.187,-4.697,-8.863,-0.974,-4.338,1.96,-10.85,-1.82
,-8.832,-0.246,-4.757,-8.851,-1.029,-4.592,0.63,-12.46,-2.03
,-8.686,-0.302,-4.788,-8.851,-1.11,-4.389,0.07,-12.18,-2.1
25820.0,-8.748,-1.029,-4.903,-8.686,-0.905,-4.63,0.0,-10.99,-0.77
,-8.978,-1.307,-4.008,-8.512,-0.854,-4.695,-4.2,-10.08,-0.77
,-8.823,-1.405,-4.228,-8.593,-1.017,-4.807,-0.77,-9.45,0.21
,-8.873,-0.928,-4.652,-8.729,-1.122,-4.515,2.24,-9.45,1.96
25895.0,-8.725,-1.017,-4.635,-9.155,-0.699,-4.35,6.44,-9.24,6.09
,-8.516,-0.909,-4.525,-8.753,-0.318,-4.298,9.38,-9.17,7.28
,-8.5,-0.943,-4.463,-8.784,-0.055,-4.171,10.99,-8.89,8.61
,-8.744,-0.924,-4.317,-8.799,-0.026,-3.951,12.46,-8.68,9.38
25971.0,-9.036,0.144,-3.963,-8.916,0.715,-4.453,8.47,-8.96,8.4
,-8.899,0.376,-4.006,-8.861,0.653,-4.255,6.3,-8.26,8.75
,-9.287,0.397,-3.96,-8.777,0.452,-4.329,2.73,-9.1,7.7
,-9.239,0.677,-4.219,-8.686,0.215,-4.075,-0.14,-12.11,5.46
26046.0,-8.741,0.017,-3.898,-9.107,-0.268,-4.262,-7.07,-13.16,-2.38
,-9.213,-0.019,-3.836,-8.993,-0.514,-4.305,-7.56,-12.88,-3.22
,-9.112,-0.163,-4.164,-8.959,-0.826,-4.166,-9.03,-13.02,-3.92
,-9.069,-0.299,-4.245,-8.794,-0.952,-3.932,-10.15,-11.9,-4.34
26122.0,-8.665,-1.103,-4.051,-8.942,-0.866,-4.3,-5.18,-6.58,-2.66
,-8.926,-1.24,-4.07,-8.88,-0.826,-4.221,-2.8,-7.07,-1.68
,-9.067,-1.034,-3.963,-8.76,-1.036,-3.635,-1.05,-8.05,-0.77
,-9.081,-0.924,-4.235,-8.995,-0.955,-3.513,-0.84,-9.31,-0.35
26198.0,-9.112,-0.648,-3.666,-9.292,-0.474,-3.731,7.84,-10.64,1.61
,-9.323,-0.51,-3.714,-8.969,-0.211,-3.513,7.35,-12.18,2.1
,-9.203,-0.364,-3.91,-8.94,-0.048,-3.149,4.48,-13.86,2.31
,-9.139,-0.608,-3.723,-9.005,0.069,-3.039,3.64,-13.65,2.03
26274.0,-9.191,-0.048,-2.716,-9.103,-0.474,-3.46,2.45,-12.32,-1.89
,-9.435,0.029,-3.025,-9.043,-0.859,-3.527,0.91,-12.81,-2.8
,-9.469,0.168,-3.3,-9.074,-0.861,-3.386,-1.4,-13.23,-3.64
,-9.316,-0.034,-3.575,-9.081,-0.833,-3.149,-5.11,-13.51,-4.34
26349.0,-9.227,-0.835,-2.917,-9.167,-1.235,-3.13,-0.49,-10.08,-3.64
,-9.251,-0.818,-2.929,-9.299,-0.936,-2.879,0.35,-9.73,-2.87
,-9.129,-1.067,-3.362,-9.402,-0.414,-2.68,1.12,-9.59,-2.03
,-9.024,-1.309,-3.245,-9.452,0.117,-2.575,3.99,-8.75,-0.49
26425.0,-9.497,0.165,-2.747,-9.258,-0.407,-2.879,10.99,-6.3,0.07
,-9.332,-0.022,-2.654,-9.246,-0.467,-2.582,6.51,-5.81,-0.49
,-9.335,-0.254,-2.845,-9.49,-0.337,-2.704,4.76,-5.25,-1.12
,-9.215,-0.39,-2.886,-9.435,-0.282,-3.075,4.27,-4.62,-1.61
26501.0,-9.301,-0.359,-3.082,-9.325,-0.589,-3.329,-0.49,-2.17,-2.31
,-9.184,-0.373,-3.192,-9.368,-0.672,-3.271,-2.1,-1.68,-2.87
,-9.196,-0.519,-3.29,-9.366,-0.787,-3.319,-2.52,-1.19,-3.15
,-9.265,-0.529,-3.453,-9.347,-0.694,-3.302,-1.47,-0.98,-3.01
26577.0,-9.273,-0.505,-3.508,-9.28,-0.84,-3.403,3.01,-1.4,-2.1
,-9.206,-0.431,-3.589,-9.258,-0.713,-2.972,1.68,-1.47,-2.17
,-9.203,-0.558,-3.594,-9.354,-0.857,-3.056,0.56,-1.75,-2.24
,-9.44,-0.859,-3.546,-9.33,-0.962,-2.912,0.07,-2.31,-2.66
26653.0,-9.296,-0.687,-2.836,-9.442,-0.376,-3.003,4.55,-0.98,-0.98
,-9.387,-0.684,-2.905,-9.373,-0.512,-3.027,3.57,-0.49,-0.91
,-9.351,-0.701,-2.838,-9.296,-0.668,-3.051,3.01,0.21,-0.77
,-9.397,-0.436,-2.869,-9.263,-0.96,-2.917,2.73,0.77,-0.91
26728.0,-9.294,-0.986,-2.924,-9.337,-0.704,-3.19,2.03,2.87,-0.63
,-9.38,-0.742,-2.972,-9.45,-0.768,-3.434,5.11,3.29,-0.28
,-9.423,-0.581,-3.034,-9.356,-0.802,-3.506,6.09,3.29,-0.07
,-9.39,-0.581,-3.147,-9.232,-0.802,-3.446,5.11,3.57,-0.07
26804.0,-9.308,-0.797,-3.654,-9.275,-0.687,-3.381,7.91,3.22,0.42
,-9.361,-0.682,-3.752,-9.275,-0.773,-3.211,9.52,2.66,0.77
,-9.265,-0.534,-3.702,-9.349,-0.766,-3.015,10.15,2.24,0.84
,-9.234,-0.467,-3.601,-9.438,-0.802,-2.869,9.73,1.75,0.56
26879.0,-9.519,-0.701,-2.785,-9.201,-0.711,-3.398,5.04,2.52,-0.14
,-9.548,-0.598,-2.994,-9.179,-0.656,-3.422,3.5,2.52,-0.42
,-9.414,-0.546,-3.233,-9.263,-0.546,-3.412,1.12,2.38,-0.63
,-9.265,-0.718,-3.285,-9.32,-0.565,-3.25,-0.14,2.31,-0.56
26955.0,-9.375,-0.534,-3.266,-9.265,-0.976,-3.338,1.33,2.45,-0.91
,-9.397,-0.522,-3.307,-9.313,-0.912,-3.238,-0.21,2.31,-1.12
,-9.399,-0.648,-3.302,-9.277,-0.763,-3.273,-1.75,2.03,-1.4
,-9.261,-0.871,-3.393,-9.323,-0.622,-3.338,-1.68,2.1,-1.33
27031.0,-9.256,-0.61,-3.326,-9.277,-0.802,-3.616,3.57,2.45,-0.28
,-9.294,-0.775,-3.314,-9.217,-0.809,-3.513,2.87,2.45,-0.42
,-9.397,-0.878,-3.355,-9.186,-0.833,-3.46,2.45,2.1,-0.56
,-9.318,-0.905,-3.551,-9.249,-0.711,-3.403,2.73,1.82,-0.49
27107.0,-9.277,-0.677,-3.281,-9.289,-0.883,-3.195,2.52,1.12,-0.28
,-9.304,-0.72,-3.099,-9.282,-0.902,-3.228,2.03,1.19,-0.21
,-9.349,-0.725,-3.206,-9.335,-0.986,-3.242,2.1,1.12,-0.14
,-9.347,-0.828,-3.183,-9.371,-0.96,-3.116,1.61,1.12,-0.07
27182.0,-9.397,-0.821,-3.209,-9.43,-0.541,-3.417,2.73,2.1,0.91
,-9.347,-0.766,-3.137,-9.311,-0.483,-3.573,2.03,2.38,0.91
,-9.335,-0.754,-3.005,-9.189,-0.663,-3.62,1.61,2.59,1.05
,-9.344,-0.653,-3.221,-9.064,-1.039,-3.465,1.33,2.31,0.84
27258.0,-9.074,-1.117,-3.118,-9.576,-0.316,-2.386,1.26,2.45,1.4
,-9.217,-0.823,-2.9,-9.536,-0.668,-2.307,4.69,3.01,1.68
,-9.414,-0.414,-2.541,-9.526,-0.797,-2.481,5.81,3.5,1.54
,-9.552,-0.124,-2.584,-9.407,-0.692,-2.833,3.01,3.92,1.05
27334.0,-9.246,-0.799,-2.955,-9.323,-0.12,-3.312,-10.22,4.76,-1.75
,-9.409,-1.098,-2.943,-9.06,0.124,-3.278,-7.35,6.23,-1.96
,-9.49,-1.304,-2.972,-8.921,-0.179,-3.467,-3.15,7.35,-1.12
,-9.641,-0.826,-2.936,-9.086,-0.522,-3.936,-0.21,6.02,-0.98
27410.0,-8.995,-0.605,-3.601,-9.294,-0.912,-3.412,-6.51,2.59,-2.31
,-9.16,-0.579,-3.805,-9.129,-1.086,-2.462,-4.76,3.43,-2.38
,-9.083,-0.677,-3.908,-9.34,-0.828,-2.56,-6.79,3.64,-2.8
,-9.33,-0.878,-3.479,-8.947,-0.33,-3.027,-8.26,3.99,-2.59
27485.0,-9.361,-0.196,-2.958,-8.617,-1.788,-3.343,-4.62,5.04,-1.61
,-9.387,-0.574,-3.642,-9.007,-1.692,-3.19,-7.84,5.18,-1.68
,-9.21,-1.046,-3.881,-8.99,-1.158,-2.924,-8.47,6.65,-1.05
,-9.086,-1.543,-4.087,-9.387,-0.72,-3.436,-4.97,8.82,-0.21
27561.0,-9.241,-0.723,-3.151,-9.11,-0.948,-2.517,9.45,9.24,1.54
,-9.323,-0.955,-2.915,-8.909,-0.639,-3.293,5.25,10.85,2.1
,-9.103,-1.383,-2.702,-9.301,-0.385,-3.551,4.13,13.44,2.94
,-8.911,-1.412,-2.149,-9.06,-0.261,-4.269,9.52,16.52,3.71
27637.0,-8.859,-0.34,-3.955,-9.107,-0.617,-3.209,12.39,18.34,3.71
,-9.134,0.22,-3.903,-9.22,-1.45,-2.625,14.35,18.69,2.1
,-8.954,0.189,-3.637,-9.655,-1.677,-2.58,12.88,18.55,-0.42
,-9.139,-0.057,-3.089,-9.093,-1.307,-3.058,10.22,19.53,-1.68
27712.0,-8.949,-1.031,-3.264,-8.478,0.481,-4.176,1.82,19.81,0.98
,-8.933,-0.861,-3.697,-8.794,0.124,-3.75,1.47,20.37,1.4
,-8.787,-0.371,-4.183,-9.174,-0.601,-3.214,2.73,21.14,1.05
,-8.638,0.244,-4.458,-9.495,-1.39,-3.348,4.83,22.19,0.0
27788.0,-9.555,-1.955,-3.242,-8.591,-1.326,-5.078,-2.8,19.67,-0.35
,-8.959,-1.926,-3.862,-8.323,-0.648,-5.525,-0.07,17.08,2.1
,-8.394,-2.044,-4.286,-8.234,-0.105,-5.719,2.38,17.57,3.99
,-8.804,-1.811,-4.547,-8.239,0.127,-5.525,5.88,18.62,4.69
27864.0,-8.564,-0.361,-5.276,-8.768,-1.23,-4.688,1.89,22.75,1.33
,-9.203,-0.562,-4.604,-8.303,-1.749,-4.63,1.61,21.49,0.84
,-9.363,-0.749,-4.549,-8.806,-1.91,-4.774,3.22,20.09,1.05
,-9.318,-0.897,-4.487,-9.332,-1.273,-5.169,5.46,17.64,2.1
27940.0,-9.217,-0.249,-5.465,-8.763,-0.237,-5.571,21.84,13.3,5.53
,-8.449,0.665,-5.846,-9.074,-0.692,-5.482,18.06,10.99,4.2
,-8.167,0.61,-5.676,-9.129,-0.912,-5.434,10.5,10.64,3.36
,-8.555,0.172,-5.322,-8.708,-1.106,-5.489,3.85,8.82,3.01
28015.0,-8.691,-0.957,-5.384,-8.275,-0.086,-5.118,10.92,4.76,1.75
,-8.76,-0.682,-5.341,-8.538,-0.641,-4.637,12.6,3.92,1.33
,-8.658,-0.416,-5.061,-8.811,-1.242,-4.523,11.55,3.43,0.84
,-8.392,0.081,-5.173,-8.686,-1.984,-4.582,10.5,2.87,0.91
28091.0,-8.835,-2.431,-4.551,-8.667,-0.38,-4.898,8.19,4.62,2.66
,-8.988,-2.582,-4.676,-8.5,0.553,-5.329,12.6,4.69,4.06
,-9.016,-2.704,-4.456,-8.72,0.84,-5.372,17.43,5.18,4.13
,-9.237,-1.831,-4.274,-8.847,0.806,-5.329,22.96,3.01,3.92
28167.0,-8.67,0.22,-5.037,-8.78,-0.38,-4.874,4.69,1.33,-2.24
,-8.344,-0.06,-4.865,-8.842,-0.426,-4.791,3.78,2.38,-3.57
,-8.54,-0.156,-4.683,-9.055,-0.392,-4.714,3.57,2.03,-4.69
,-8.684,-0.206,-4.7,-9.086,-0.555,-4.75,4.27,1.68,-5.18
28243.0,-8.837,-0.998,-4.633,-7.976,-2.197,-4.822,7.42,0.63,-4.97
,-8.729,-1.326,-4.463,-8.418,-2.154,-4.707,7.0,1.12,-4.41
,-8.538,-1.196,-4.872,-8.818,-1.974,-4.879,6.23,0.0,-2.8
,-7.925,-1.725,-4.941,-9.076,-1.778,-4.776,4.34,0.14,-1.26
28318.0,-9.04,-1.436,-4.664,-8.739,-0.56,-4.848,7.56,1.89,4.06
,-8.837,-1.039,-4.59,-8.22,-0.715,-5.03,7.63,1.96,3.29
,-8.993,-0.603,-4.554,-8.296,-1.055,-4.8,6.51,2.38,2.38
,-8.993,-0.617,-4.609,-8.684,-1.328,-4.762,3.36,1.82,1.96
28394.0,-8.985,-1.639,-4.599,-8.497,-1.283,-5.31,3.92,5.04,3.22
,-8.935,-1.608,-4.606,-8.784,-1.426,-5.08,4.97,4.76,4.27
,-8.717,-1.531,-4.795,-8.782,-1.737,-5.006,4.48,3.78,5.25
,-8.406,-1.321,-5.111,-8.634,-2.065,-4.879,4.27,3.57,5.88
28469.0,-8.571,-1.936,-4.86,-8.753,-0.926,-5.145,3.5,3.57,8.75
,-8.349,-1.692,-5.027,-8.794,-0.577,-5.054,3.92,3.43,10.01
,-8.356,-1.673,-5.054,-8.923,-0.309,-4.81,4.34,3.99,11.06
,-8.629,-1.4,-5.051,-9.057,-0.388,-4.463,5.53,4.2,11.55
28545.0,-8.856,-0.481,-4.637,-9.072,0.084,-4.98,4.34,3.78,8.54
,-8.44,-0.471,-4.781,-9.107,0.139,-4.69,3.01,4.06,8.82
,-8.215,-0.194,-5.073,-8.818,0.199,-4.669,3.43,4.83,8.47
,-8.622,0.091,-5.176,-8.722,-0.177,-4.578,4.34,5.46,7.35
28621.0,-8.629,-0.55,-4.563,-9.316,0.045,-5.477,-3.01,4.9,2.45
,-8.674,-0.278,-5.001,-9.072,0.096,-5.53,-3.22,4.41,2.45
,-8.796,-0.297,-5.257,-8.995,-0.115,-5.307,-3.92,4.48,2.03
,-9.098,-0.103,-5.348,-8.72,-0.112,-5.317,-3.92,4.06,0.91
28697.0,-8.617,0.077,-5.288,-8.488,-1.01,-5.441,-9.17,-1.54,-2.45
,-8.507,0.034,-5.355,-8.504,-1.639,-5.061,-10.22,-1.75,-3.29
,-8.646,-0.026,-5.528,-8.696,-1.744,-4.798,-11.06,-2.24,-4.41
,-8.61,-0.299,-5.645,-8.77,-1.4,-5.063,-12.81,-3.01,-4.69
28773.0,-8.679,-1.273,-5.181,-8.748,-1.448,-5.236,-1.68,-3.29,-1.54
,-8.708,-1.263,-5.097,-8.741,-1.366,-5.154,-1.82,-3.57,-1.19
,-8.581,-1.333,-5.075,-8.55,-1.161,-5.221,-3.43,-3.92,-0.77
,-8.497,-1.388,-5.212,-8.528,-1.089,-5.173,-4.06,-4.2,-0.63
28848.0,-8.614,-0.869,-5.176,-8.667,-0.354,-5.126,-0.91,-6.72,-0.35
,-8.715,-0.768,-5.221,-8.756,-0.627,-5.24,0.91,-7.07,-0.84
,-8.851,-0.66,-5.011,-8.839,-0.897,-5.317,2.1,-7.98,-1.61
,-8.801,-0.244,-5.159,-8.971,-0.993,-5.135,2.73,-8.68,-1.33
28924.0,-8.854,-1.11,-4.994,-8.993,-0.859,-4.829,6.86,-9.17,-3.01
,-8.646,-0.921,-4.927,-8.686,-0.823,-4.85,8.33,-9.45,-3.15
,-8.552,-0.924,-4.97,-8.631,-0.826,-5.159,8.61,-9.38,-2.52
,-9.036,-1.0,-4.59,-8.99,-1.29,-4.29,7.07,-10.85,-1.68
29000.0,-8.89,-1.443,-4.305,-8.993,-0.993,-4.614,-1.89,-15.33,1.82
,-8.531,-1.089,-4.927,-9.014,-0.706,-4.427,0.84,-15.26,3.36
,-8.485,-1.46,-4.623,-9.191,-0.677,-4.29,1.75,-13.86,5.04
,-8.815,-1.33,-4.551,-8.849,-0.505,-4.413,4.9,-14.63,5.32
29076.0,-8.727,-0.672,-4.319,-8.71,-0.148,-4.271,5.32,-16.73,7.21
,-8.6,-0.735,-4.288,-8.689,-0.101,-4.166,4.13,-16.59,7.63
,-8.794,-0.754,-4.204,-8.861,-0.249,-4.099,3.92,-18.48,7.35
,-8.835,-0.476,-4.221,-8.93,-0.409,-4.087,3.99,-19.74,6.72
29151.0,-9.153,-0.507,-4.221,-8.686,0.026,-3.874,4.41,-16.17,4.48
,-9.158,-0.287,-4.113,-8.914,-0.129,-3.589,6.44,-16.03,4.13
,-9.186,-0.172,-3.826,-9.196,-0.002,-3.625,6.44,-16.66,3.15
,-8.882,0.072,-3.771,-9.167,-0.05,-3.534,5.18,-17.71,2.17
29227.0,-9.146,-0.165,-3.206,-9.15,-1.029,-3.266,0.56,-13.72,-0.7
,-9.177,-0.184,-3.144,-9.167,-0.957,-3.336,1.47,-13.02,-1.26
,-8.899,-0.438,-3.276,-9.258,-0.802,-2.903,0.42,-13.02,-1.54
,-8.909,-0.895,-3.123,-9.246,-0.436,-3.171,0.42,-11.62,-0.91
29302.0,-9.119,-0.232,-3.309,-8.83,-1.551,-3.192,3.08,-10.43,-1.19
,-9.383,-0.56,-3.422,-9.129,-1.534,-2.68,-2.24,-11.55,-1.12
,-9.21,-1.015,-3.326,-9.404,-1.11,-3.049,-6.58,-13.09,-1.4
,-8.899,-1.299,-3.391,-9.368,-0.677,-3.223,-6.02,-12.95,-0.84
29378.0,-9.301,-0.39,-3.001,-9.179,-0.034,-3.187,6.58,-10.71,2.1
,-9.225,-0.201,-3.479,-9.354,-0.153,-3.46,4.97,-10.71,1.89
,-9.112,-0.287,-3.661,-9.22,-0.359,-3.266,3.57,-10.78,1.05
,-8.916,-0.206,-3.52,-9.263,-0.771,-2.771,3.71,-10.08,0.7
29454.0,-9.32,-0.797,-2.57,-9.543,-0.558,-2.111,-0.77,-9.17,-2.38
,-9.433,-0.565,-2.094,-9.416,-0.641,-2.469,2.52,-7.35,-2.94
,-9.462,-0.17,-1.754,-9.208,-0.838,-2.589,3.29,-5.46,-3.15
,-9.502,-0.22,-2.197,-9.16,-0.842,-2.838,-2.03,-5.32,-3.71
29530.0,-9.213,-0.581,-3.017,-9.301,-1.094,-3.027,-2.52,-2.8,-3.43
,-9.316,-0.354,-3.479,-9.385,-1.261,-2.656,-1.89,-3.08,-3.36
,-9.177,-0.493,-3.302,-9.383,-0.873,-2.367,-3.71,-2.8,-3.15
,-9.34,-0.83,-3.364,-9.483,-0.622,-2.484,-4.55,-2.17,-2.73
29605.0,-9.519,-0.443,-2.903,-9.457,-0.983,-3.144,-1.47,-0.63,-2.1
,-9.194,-0.668,-2.919,-9.643,-0.436,-3.577,-5.6,-0.42,-1.75
,-9.208,-1.096,-3.049,-9.629,-0.108,-4.209,-5.81,0.42,-0.98
,-9.323,-1.206,-3.104,-9.158,-0.345,-4.228,-2.45,0.91,-0.49
29681.0,-8.93,-0.775,-4.034,-9.552,-0.998,-3.927,-4.27,-2.87,-0.21
,-9.124,-1.235,-3.884,-9.332,-0.864,-3.836,-2.17,-2.59,-0.14
,-9.347,-1.613,-3.613,-9.103,-0.763,-3.592,2.73,-2.59,0.42
,-9.538,-1.249,-3.687,-9.091,-0.967,-3.163,7.21,-3.78,1.05
29757.0,-9.244,-0.969,-2.572,-9.495,-0.672,-1.721,6.23,-6.37,1.47
,-9.418,-0.715,-2.151,-9.521,-0.732,-1.974,7.7,-5.46,1.68
,-9.569,-0.608,-1.941,-9.399,-0.866,-2.137,6.23,-4.34,1.68
,-9.545,-0.687,-1.701,-9.493,-0.768,-2.185,3.99,-3.29,1.82
29833.0,-9.488,-0.404,-2.429,-9.397,-0.625,-3.51,2.03,1.75,1.96
,-9.509,-0.179,-2.539,-9.234,-0.876,-3.647,-0.14,2.24,1.47
,-9.598,-0.206,-2.903,-9.263,-1.034,-3.719,-3.71,1.96,0.7
,-9.462,-0.445,-3.144,-9.256,-1.022,-3.625,-6.44,1.82,0.42
29909.0,-9.323,-0.816,-3.357,-9.471,-0.179,-3.151,4.83,1.26,2.17
,-9.529,-0.543,-3.247,-9.244,-0.637,-3.147,5.32,0.7,1.75
,-9.686,-0.395,-3.12,-9.294,-0.895,-3.106,2.52,-0.49,0.91
,-9.651,-0.196,-3.089,-9.356,-0.859,-3.056,-2.94,-2.45,-0.28
29984.0,-9.399,-0.67,-2.97,-9.423,-0.641,-2.814,-5.53,-3.15,-0.91
,-9.423,-0.488,-2.809,-9.426,-0.775,-2.879,-4.97,-2.73,-0.77
,-9.545,-0.514,-2.821,-9.308,-0.921,-2.953,-6.16,-2.59,-0.91
,-9.404,-0.562,-2.749,-9.313,-1.029,-2.797,-6.86,-2.73,-0.7
30060.0,-9.344,-1.127,-2.656,-9.569,-0.306,-2.58,0.77,0.84,0.98
,-9.392,-0.924,-2.46,-9.569,-0.105,-2.793,3.57,1.61,1.33
,-9.519,-0.723,-2.338,-9.529,-0.179,-3.168,5.6,2.59,1.54
,-9.622,-0.467,-2.446,-9.383,-0.407,-3.199,6.23,3.22,1.68
30135.0,-9.155,-0.57,-3.175,-9.277,-0.715,-3.185,-2.66,2.45,-0.35
,-9.378,-0.682,-3.104,-9.258,-0.94,-2.883,-1.12,2.87,-0.21
,-9.488,-0.617,-3.19,-9.337,-1.053,-2.462,0.42,2.73,-0.28
,-9.526,-0.608,-3.25,-9.576,-0.756,-2.333,-0.07,2.38,-0.56
30211.0,-9.658,-0.376,-2.498,-9.234,-0.404,-3.269,4.55,5.46,0.91
,-9.617,-0.385,-2.572,-9.251,-0.79,-3.185,1.61,6.3,0.63
,-9.672,-0.416,-2.766,-9.354,-0.883,-3.015,-2.03,5.32,0.14
,-9.39,-0.254,-3.178,-9.306,-0.625,-2.996,-6.02,4.27,-0.42
30287.0,-9.5,-0.457,-2.666,-9.244,-0.909,-2.836,-0.98,4.97,-0.28
,-9.488,-0.136,-2.685,-9.268,-1.163,-2.73,-2.1,4.41,-0.84
,-9.521,-0.11,-2.96,-9.268,-1.211,-2.436,-6.44,3.43,-1.61
,-9.282,-0.503,-3.08,-9.421,-1.007,-2.455,-11.34,3.71,-1.89
30363.0,-9.383,-0.905,-2.395,-9.478,0.275,-4.178,2.66,10.22,1.33
,-9.541,-0.684,-2.125,-8.89,-0.337,-4.463,3.85,11.34,1.75
,-9.823,-0.22,-2.52,-8.861,-1.022,-4.448,2.94,10.43,1.19
,-9.835,0.232,-3.326,-8.942,-1.23,-4.092,-0.49,9.17,0.63
30438.0,-9.356,-0.73,-3.644,-9.414,-0.522,-2.556,13.79,10.43,1.96
,-9.509,0.069,-3.594,-9.421,-0.878,-2.233,18.34,8.82,1.26
,-9.397,0.227,-3.625,-9.502,-0.849,-2.455,13.51,7.84,0.28
,-9.296,-0.146,-2.84,-9.273,-0.495,-2.489,7.14,9.45,0.7
30514.0,-9.158,-0.629,-2.608,-9.088,-0.581,-3.087,-9.03,9.1,-2.24
,-9.153,-0.924,-2.486,-9.244,-0.761,-4.032,-11.97,10.29,-2.59
,-9.21,-0.895,-2.462,-8.823,-1.134,-4.496,-10.29,11.2,-1.82
,-9.325,-0.622,-2.484,-9.079,-1.378,-4.298,-4.13,12.6,-0.7
30589.0,-9.32,-1.393,-3.678,-9.517,-0.385,-2.955,14.14,14.14,2.1
,-9.261,-0.964,-2.391,-9.249,-1.206,-2.793,22.47,15.82,1.82
,-9.074,-0.349,-2.438,-9.241,-1.223,-3.491,24.99,15.26,0.91
,-9.325,-0.024,-2.249,-8.949,-0.694,-4.276,20.86,14.98,0.14
30665.0,-9.184,0.139,-4.075,-8.768,-1.015,-2.623,0.28,13.79,-1.12
,-8.947,0.522,-4.527,-9.813,-0.833,-2.654,-3.29,12.95,-2.8
,-8.459,-0.098,-3.955,-10.048,-0.653,-3.025,-6.09,14.84,-3.01
,-8.588,-0.732,-3.41,-9.873,-0.663,-3.668,-5.11,16.73,-2.66
30741.0,-9.244,-0.668,-4.14,-8.892,-0.359,-4.704,4.55,15.26,-1.19
,-8.76,-0.436,-4.365,-9.261,-1.263,-4.257,7.07,15.96,-1.33
,-8.574,0.053,-4.298,-9.043,-2.379,-3.867,11.41,15.82,-2.73
,-8.61,0.211,-4.736,-9.177,-2.539,-3.506,9.87,13.72,-4.34
30817.0,-8.878,-2.276,-3.745,-9.143,-0.581,-3.869,4.2,12.39,-0.35
,-8.799,-2.249,-3.821,-9.086,0.364,-4.307,8.26,13.51,1.82
,-8.847,-2.154,-3.692,-9.203,1.091,-4.661,11.76,15.82,3.78
,-8.835,-1.637,-3.613,-9.172,1.091,-4.872,16.31,17.99,4.76
30893.0,-8.801,0.601,-4.755,-9.246,-0.928,-4.049,-0.21,13.72,1.4
,-8.54,-0.019,-4.391,-9.064,-1.187,-4.314,-2.66,14.77,0.0
,-8.696,-0.646,-4.049,-8.911,-1.141,-4.391,-0.63,15.4,-1.26
,-9.215,-0.794,-3.86,-8.808,-0.847,-4.29,4.55,14.77,-2.17
30968.0,-8.918,-0.256,-4.166,-9.083,-0.72,-4.659,12.04,11.2,-1.33
,-8.488,0.256,-4.793,-8.806,-1.062,-4.446,7.63,7.35,-2.03
,-8.677,0.256,-4.968,-8.567,-1.369,-4.18,0.7,6.72,-2.52
,-9.072,-0.191,-4.841,-8.746,-1.524,-3.836,-5.18,7.63,-3.01
31044.0,-9.072,-1.61,-3.609,-7.952,-1.311,-5.09,6.3,13.79,-2.94
,-9.15,-1.57,-3.951,-7.899,-1.201,-4.951,9.31,13.23,-1.82
,-9.416,-1.531,-4.034,-8.241,-0.55,-4.678,9.03,9.94,-0.49
,-8.89,-1.213,-4.726,-8.751,0.038,-4.503,6.86,6.37,1.4
31120.0,-9.27,0.354,-4.329,-8.545,-1.335,-4.712,11.34,9.24,-2.66
,-9.244,0.034,-4.269,-8.746,-1.251,-4.635,4.69,9.94,-3.01
,-9.122,-0.699,-4.274,-8.65,-0.809,-5.08,-1.33,10.5,-1.61
,-9.012,-1.278,-4.152,-8.732,-0.294,-5.547,-1.4,9.94,0.07
31196.0,-8.643,-0.258,-5.772,-8.911,-1.974,-4.563,17.36,3.57,-1.47
,-8.528,-0.849,-5.288,-9.258,-1.68,-4.731,15.05,5.04,-2.45
,-8.512,-1.397,-5.03,-9.191,-1.407,-4.697,13.09,5.74,-2.59
,-8.5,-1.874,-4.831,-8.634,-0.792,-5.135,12.81,6.93,-1.61
31271.0,-8.413,-0.498,-5.336,-8.847,-1.034,-4.788,18.48,3.22,-2.38
,-8.562,-0.285,-5.427,-8.906,-1.177,-4.348,16.59,2.52,-3.92
,-8.624,-0.57,-5.185,-8.856,-1.393,-4.223,14.56,2.59,-3.85
,-8.753,-0.974,-4.793,-8.947,-1.732,-3.987,12.39,2.8,-3.29
31347.0,-9.1,-1.862,-3.884,-8.49,-1.505,-5.449,1.75,1.19,1.33
,-9.079,-1.893,-3.862,-8.658,-1.443,-5.281,0.77,0.07,2.94
,-8.727,-1.922,-4.566,-8.43,-1.33,-4.822,0.42,-1.26,4.48
,-8.38,-1.721,-5.202,-8.361,-1.244,-4.683,2.73,-1.26,5.6
31422.0,-8.914,-1.194,-4.434,-8.679,-0.246,-4.716,11.55,1.47,5.88
,-9.261,-0.378,-4.702,-8.818,-0.94,-4.432,12.74,1.82,5.18
,-9.167,0.199,-4.556,-9.129,-1.421,-4.604,12.32,1.4,4.34
,-8.885,0.318,-4.805,-9.033,-1.615,-4.664,8.89,0.84,3.22
31498.0,-8.808,-1.618,-4.757,-9.091,-0.163,-4.721,4.06,1.68,2.87
,-8.411,-1.455,-4.867,-8.768,-0.309,-4.57,5.74,2.94,3.01
,-8.593,-0.964,-5.049,-8.44,-0.713,-4.733,7.49,3.78,2.45
,-8.863,-0.328,-5.164,-8.667,-0.768,-4.657,8.33,3.64,1.54
31574.0,-9.019,-0.78,-4.439,-8.662,-1.228,-4.614,1.33,3.57,-1.26
,-9.009,-0.857,-4.46,-8.717,-1.223,-4.81,1.75,3.92,-1.54
,-8.72,-1.106,-4.556,-8.564,-0.931,-5.013,1.68,4.41,-1.4
,-8.72,-1.292,-4.255,-8.588,-0.986,-5.059,2.17,4.76,-1.26
31650.0,-8.67,-1.558,-4.908,-8.579,-1.567,-4.594,0.98,4.41,-1.26
,-8.811,-1.902,-4.685,-8.459,-1.577,-4.977,1.61,4.62,-0.7
,-8.763,-1.977,-4.594,-8.76,-1.457,-4.831,3.22,4.9,-0.07
,-8.758,-1.713,-4.489,-8.837,-1.378,-4.874,3.92,4.2,1.12
31725.0,-8.988,-1.393,-4.91,-8.55,-1.531,-4.817,4.27,5.39,3.01
,-8.957,-1.517,-4.798,-8.229,-1.479,-4.944,4.97,5.67,3.36
,-8.906,-1.45,-4.884,-8.397,-1.273,-5.027,5.39,4.76,3.57
,-8.78,-1.436,-4.848,-8.631,-1.091,-4.963,5.53,4.06,4.76
31801.0,-9.021,-1.072,-4.925,-8.796,0.134,-4.927,2.94,3.15,8.26
,-9.167,-0.885,-4.48,-8.813,0.213,-4.939,2.24,2.66,7.84
,-9.122,-0.598,-4.692,-8.947,0.179,-4.594,0.35,1.26,8.12
,-8.873,-0.172,-4.92,-8.923,0.129,-4.731,-1.61,0.84,8.26
31877.0,-8.77,-0.235,-4.762,-8.789,-0.969,-4.776,-15.4,-2.52,5.46
,-8.787,-0.409,-4.666,-8.708,-1.242,-4.714,-16.31,-2.31,5.11
,-8.777,-0.627,-4.59,-8.452,-1.479,-4.714,-16.03,-2.03,4.34
,-8.782,-0.687,-4.712,-8.375,-1.835,-4.812,-15.05,-1.82,3.5
31953.0,-8.748,-1.795,-4.96,-8.885,-0.778,-4.75,-8.12,-0.63,6.93
,-9.021,-1.395,-4.903,-8.629,-0.787,-4.865,-4.13,-1.75,5.88
,-9.05,-0.988,-4.709,-8.37,-0.909,-5.176,-2.73,-2.52,4.34
,-9.081,-0.735,-4.578,-8.581,-1.022,-5.307,-3.78,-2.8,3.08
32029.0,-8.935,-0.991,-5.324,-8.861,-0.246,-5.453,-3.85,-4.55,3.78
,-8.973,-0.909,-5.477,-9.069,-0.426,-5.212,-0.84,-5.46,3.08
,-8.832,-0.842,-5.126,-9.318,-0.409,-4.953,0.49,-6.16,2.24
,-8.777,-0.663,-5.135,-8.938,-0.225,-4.97,1.96,-7.14,1.47
32104.0,-8.402,-0.184,-5.152,-9.299,-0.83,-4.41,1.89,-10.08,-0.98
,-8.435,-0.395,-5.128,-9.17,-0.861,-4.41,0.84,-9.38,-1.05
,-8.746,-0.62,-5.054,-8.394,-1.07,-4.678,1.4,-9.87,-1.33
,-8.916,-0.62,-4.937,-8.239,-0.974,-4.798,2.87,-10.5,-1.96
32180.0,-8.603,-1.034,-4.716,-8.777,-0.794,-4.097,0.35,-12.04,0.91
,-8.99,-1.673,-4.075,-8.717,-0.656,-4.319,2.17,-12.11,1.75
,-9.033,-1.161,-4.121,-8.677,-0.601,-4.463,6.51,-11.97,2.52
,-8.825,-0.725,-4.221,-8.78,-0.603,-4.202,7.98,-10.78,3.57
32255.0,-9.409,-0.304,-3.697,-8.961,0.754,-4.18,7.91,-9.17,4.13
,-9.375,0.278,-3.881,-8.581,0.526,-4.367,8.75,-10.15,2.8
,-9.215,0.601,-4.003,-8.835,0.079,-4.47,6.86,-10.99,2.31
,-9.213,0.579,-4.015,-9.036,-0.048,-4.362,2.1,-12.67,2.1
32331.0,-8.89,-0.101,-4.269,-8.947,-1.22,-3.86,-9.17,-14.84,-3.57
,-8.849,-0.369,-4.137,-8.894,-1.586,-3.802,-9.38,-14.14,-4.06
,-9.122,-0.677,-3.936,-8.906,-1.821,-3.573,-9.52,-15.33,-4.69
,-8.894,-0.881,-4.015,-8.928,-1.716,-3.41,-9.66,-15.61,-4.55
32407.0,-9.203,-1.429,-3.192,-8.942,-0.955,-3.719,4.13,-8.68,0.49
,-9.505,-0.998,-3.295,-9.024,-0.914,-3.52,4.27,-10.29,1.33
,-9.217,-0.558,-3.439,-9.074,-0.775,-3.403,0.84,-11.97,2.31
,-8.882,-0.541,-3.687,-8.997,-0.567,-3.429,-3.29,-11.41,3.22
32483.0,-8.844,-0.627,-3.398,-9.533,-0.074,-2.898,2.03,-7.35,3.08
,-9.007,-0.744,-3.276,-9.428,0.151,-2.95,5.39,-5.74,3.36
,-9.215,-0.718,-3.518,-9.105,-0.002,-3.099,9.45,-4.76,3.43
,-9.49,-0.424,-3.41,-8.985,-0.488,-3.285,13.37,-2.8,3.92
32558.0,-9.292,-1.101,-3.151,-9.153,-0.778,-2.245,-0.7,-3.64,2.24
,-9.048,-1.345,-3.089,-9.206,-0.246,-3.116,-0.56,-5.74,2.03
,-8.825,-1.256,-2.8,-9.124,-0.077,-3.25,2.59,-4.69,2.52
,-9.273,-1.199,-2.642,-9.196,-0.318,-3.532,5.18,-3.71,2.73
32634.0,-9.131,-0.438,-3.798,-9.397,0.278,-3.58,-0.42,-2.17,2.73
,-8.969,-0.28,-3.721,-9.629,0.481,-3.91,2.03,-0.91,2.38
,-9.052,-0.144,-3.743,-9.469,0.493,-4.544,3.22,-0.35,1.68
,-9.203,0.141,-3.673,-8.983,-0.019,-4.336,3.5,0.28,1.05
32710.0,-9.0,-0.89,-4.456,-9.399,-0.462,-3.587,-8.4,-1.61,-1.89
,-9.052,-1.22,-4.078,-9.409,-0.773,-3.405,-3.01,-1.4,-1.75
,-9.325,-0.962,-3.807,-9.27,-0.919,-3.436,2.66,-2.24,-1.47
,-9.402,-0.543,-3.625,-9.249,-1.01,-3.64,4.34,-3.36,-1.19
32786.0,-8.942,-0.873,-3.331,-9.447,-0.239,-2.62,5.88,-3.85,0.42
,-9.134,-0.668,-3.372,-9.313,-0.225,-2.536,8.47,-3.36,1.05
,-9.122,-0.689,-3.005,-9.435,-0.086,-2.733,10.08,-2.45,1.54
,-9.289,-0.474,-2.793,-9.296,0.002,-3.156,12.53,-1.47,2.03
32861.0,-9.241,0.038,-3.147,-9.466,-0.658,-2.95,5.53,-1.4,0.21
,-9.203,-0.168,-3.206,-9.407,-0.61,-2.891,3.64,-0.63,-0.42
,-9.239,-0.503,-2.982,-9.457,-0.593,-3.161,1.96,0.0,-1.12
,-9.483,-0.735,-2.943,-9.366,-0.687,-3.221,2.73,0.35,-1.12
32937.0,-9.282,-0.62,-3.154,-9.227,-0.668,-3.496,0.98,0.91,-1.96
,-9.325,-0.481,-3.197,-9.17,-0.96,-3.446,0.49,1.4,-2.24
,-9.32,-0.536,-3.458,-9.186,-1.137,-3.369,-0.84,1.26,-2.73
,-9.217,-0.538,-3.336,-9.313,-0.897,-3.321,-1.89,1.54,-2.59
33013.0,-9.328,-0.67,-3.362,-9.241,-0.713,-3.226,7.56,2.24,-0.28
,-9.284,-0.605,-3.199,-9.239,-0.72,-3.379,7.98,2.45,-0.07
,-9.299,-0.739,-3.096,-9.196,-0.773,-3.534,7.63,2.8,0.21
,-9.347,-0.818,-3.144,-9.146,-0.792,-3.625,8.47,3.15,0.42
33088.0,-9.031,-0.627,-3.568,-9.296,-0.263,-4.219,10.15,3.29,1.26
,-9.162,-0.553,-3.482,-9.021,-0.622,-4.298,10.08,3.29,1.12
,-9.289,-0.464,-3.589,-8.914,-0.988,-4.192,8.75,2.66,0.77
,-9.421,-0.268,-3.776,-9.11,-1.053,-4.219,6.72,1.61,0.42
33164.0,-9.17,-0.95,-3.989,-9.359,-0.577,-3.092,3.36,-2.17,0.42
,-9.227,-0.787,-3.699,-9.273,-0.586,-2.883,4.06,-2.66,0.7
,-9.299,-0.672,-3.417,-9.323,-0.739,-2.58,3.64,-2.66,0.77
,-9.397,-0.668,-3.273,-9.39,-0.634,-2.558,3.01,-2.66,0.56
33240.0,-9.454,-0.498,-2.601,-9.253,-0.742,-3.453,0.07,-0.07,0.07
,-9.502,-0.615,-2.596,-9.251,-0.849,-3.664,-0.63,0.77,0.07
,-9.557,-0.687,-2.836,-9.27,-0.828,-3.68,-0.98,1.4,0.0
,-9.421,-0.787,-3.094,-9.244,-0.572,-3.896,-0.63,1.61,0.0
33316.0,-9.301,-0.419,-4.149,-9.289,-0.869,-3.465,2.66,0.28,0.63
,-9.115,-0.424,-4.123,-9.45,-0.565,-3.221,1.12,-0.84,0.42
,-9.05,-0.572,-3.939,-9.464,-0.4,-3.187,0.35,-1.19,0.28
,-9.172,-0.912,-3.652,-9.287,-0.565,-3.01,1.05,-1.26,0.42
33391.0,-9.27,-0.629,-2.898,-9.332,-0.627,-3.166,-0.7,-1.12,0.07
,-9.301,-0.625,-3.065,-9.294,-0.548,-3.288,-0.98,-0.91,-0.21
,-9.28,-0.627,-3.108,-9.251,-0.629,-3.3,-0.98,-0.56,0.0
,-9.253,-0.601,-3.005,-9.299,-0.79,-3.264,-0.7,0.07,0.0
33467.0,-9.251,-0.811,-3.293,-9.399,-0.632,-3.228,0.63,0.84,0.28
,-9.337,-0.766,-3.297,-9.304,-0.503,-3.116,1.26,0.91,0.49
,-9.232,-0.826,-3.175,-9.28,-0.45,-3.216,1.47,1.19,0.84
,-9.308,-0.675,-3.23,-9.261,-0.617,-3.137,2.59,1.4,0.98
33543.0,-9.296,-0.529,-3.106,-9.284,-0.909,-3.513,-0.84,1.61,0.28
,-9.335,-0.438,-3.118,-9.495,-1.065,-3.489,-0.98,1.89,0.28
,-9.469,-0.55,-3.276,-9.536,-0.778,-3.465,-1.33,1.96,0.35
,-9.428,-0.651,-3.51,-9.476,-0.134,-3.144,-1.68,1.89,0.42
33619.0,-9.375,0.443,-3.199,-9.098,-0.983,-3.302,-7.35,-3.64,-1.68
,-9.227,0.067,-3.139,-9.038,-0.991,-3.271,-15.96,-4.06,-2.45
,-9.316,-0.864,-3.168,-9.076,-1.094,-3.084,-21.77,-4.2,-3.08
,-9.203,-1.072,-3.08,-9.296,-1.18,-2.618,-22.26,-5.18,-3.36
33694.0,-9.407,-0.95,-2.402,-9.536,0.589,-2.883,-2.03,0.91,0.56
,-9.402,-0.55,-2.584,-9.287,0.093,-2.539,0.28,1.4,0.7
,-9.392,-0.136,-2.216,-9.069,-0.452,-2.316,2.24,2.87,1.12
,-9.756,0.457,-2.898,-9.392,-0.787,-2.57,1.4,3.15,0.07
33770.0,-9.507,-0.66,-2.85,-9.174,-1.158,-3.13,-11.13,7.14,-1.68
,-9.139,-0.584,-3.666,-9.591,-0.744,-3.747,-14.84,4.69,-1.89
,-8.866,-0.847,-3.501,-8.973,-0.694,-3.975,-16.94,5.32,-1.19
,-9.064,-1.247,-3.522,-9.038,-1.168,-3.757,-14.0,6.51,-0.63
33845.0,-9.048,-1.785,-3.656,-9.526,0.239,-2.924,7.14,13.23,3.01
,-9.198,-1.886,-2.855,-9.462,0.591,-3.144,16.8,14.56,4.41
,-9.249,-1.326,-3.206,-9.521,0.309,-3.714,26.39,13.16,4.9
,-9.072,-0.438,-2.431,-8.997,-0.213,-4.142,31.36,13.58,4.69
33921.0,-8.674,-1.196,-3.934,-9.083,-1.302,-2.922,-6.79,10.64,1.12
,-8.708,-2.01,-3.618,-9.474,-0.617,-2.795,-4.06,13.51,1.96
,-8.734,-2.438,-2.778,-9.423,-0.158,-3.314,3.36,15.82,3.08
,-9.17,-1.965,-2.627,-9.005,-0.239,-3.204,13.51,16.94,4.2
33997.0,-9.514,0.172,-3.408,-8.574,0.519,-4.398,16.59,15.33,6.23
,-9.227,0.871,-4.192,-8.581,-0.665,-3.874,13.09,12.6,3.08
,-9.328,1.311,-4.302,-8.983,-1.335,-3.384,8.26,11.97,0.56
,-9.043,1.366,-4.561,-9.189,-1.4,-3.022,1.19,11.76,-1.12
34073.0,-9.624,-1.022,-3.374,-8.519,-1.979,-3.936,11.13,16.52,-2.87
,-9.938,-0.948,-3.8,-9.014,-1.34,-3.647,11.69,12.11,-1.82
,-9.222,-1.134,-4.346,-9.318,-0.254,-3.668,8.4,9.03,0.35
,-8.421,-1.701,-4.283,-9.409,0.586,-3.853,6.51,10.71,2.52
34149.0,-9.033,1.12,-4.286,-9.208,0.098,-4.125,10.64,12.32,0.14
,-8.557,0.888,-4.41,-9.593,0.031,-4.283,0.98,14.21,-0.56
,-8.643,0.593,-4.183,-9.416,-0.244,-4.752,-2.94,16.03,-1.12
,-9.055,0.337,-4.185,-9.265,-0.763,-4.621,-2.38,15.54,-2.52
34224.0,-8.351,-1.232,-4.633,-9.206,-2.094,-4.573,2.1,12.53,-5.39
,-8.205,-1.895,-4.018,-8.686,-1.752,-4.736,5.46,14.98,-4.13
,-8.72,-2.216,-3.996,-8.289,-1.216,-4.776,10.01,15.75,-2.73
,-9.229,-2.125,-4.247,-8.787,-0.749,-4.424,13.09,14.77,-1.47
34300.0,-9.756,-0.168,-4.027,-8.502,0.383,-4.748,15.61,13.72,-1.54
,-9.698,0.637,-4.267,-8.76,-0.395,-4.611,12.6,10.29,-2.17
,-8.82,1.149,-4.52,-9.081,-1.189,-4.401,5.25,9.24,-1.82
,-8.358,0.94,-4.671,-9.158,-1.876,-4.295,-2.03,10.85,-1.68
34376.0,-8.942,-2.166,-4.436,-8.753,-1.563,-4.338,8.82,8.61,-2.45
,-8.282,-2.426,-4.733,-9.033,-0.936,-4.324,10.64,9.38,0.28
,-8.165,-2.675,-4.544,-8.691,-0.349,-4.781,14.14,10.01,1.89
,-8.196,-2.3,-4.448,-8.6,-0.79,-4.389,19.46,9.94,2.24
34452.0,-8.658,-0.919,-4.547,-9.158,-0.057,-4.738,1.26,9.8,4.41
,-8.631,-0.948,-4.98,-8.696,0.144,-4.975,2.03,9.66,4.2
,-8.739,-0.835,-4.932,-8.366,0.0,-5.135,5.88,9.59,3.22
,-8.997,-0.402,-4.678,-8.887,-0.041,-4.913,11.13,10.01,2.1
34527.0,-9.129,-0.093,-4.927,-8.394,-0.897,-5.035,11.83,6.79,-3.5
,-9.232,-0.495,-4.599,-8.897,-1.062,-4.616,11.34,6.16,-4.76
,-9.088,-0.514,-4.695,-9.033,-0.646,-4.927,10.29,5.04,-4.48
,-8.502,-0.656,-4.987,-8.643,-0.562,-5.197,9.31,4.62,-4.9
34603.0,-8.634,-1.173,-5.173,-8.993,-1.536,-4.836,7.28,2.45,-5.39
,-8.71,-1.484,-4.949,-8.801,-1.512,-4.764,6.44,2.59,-4.34
,-8.782,-1.448,-4.939,-8.5,-1.833,-5.063,7.42,2.1,-3.57
,-8.722,-1.39,-5.106,-8.514,-2.144,-5.193,7.35,1.54,-3.43
34678.0,-8.643,-2.0,-5.408,-8.782,-1.043,-5.03,9.17,-1.61,2.52
,-8.66,-1.354,-5.492,-8.804,-1.445,-4.74,14.14,-1.96,1.96
,-8.734,-0.876,-5.508,-8.727,-1.665,-4.463,15.89,-2.38,1.33
,-8.703,-0.67,-5.441,-8.385,-1.898,-4.453,14.91,-3.43,1.12
34754.0,-8.569,-1.692,-4.712,-8.77,-0.024,-4.614,11.41,-3.36,5.74
,-8.947,-1.189,-4.752,-8.646,-0.467,-4.405,13.79,-2.94,5.11
,-9.04,-0.424,-4.776,-8.674,-1.137,-4.195,14.07,-3.57,4.2
,-9.026,-0.034,-4.645,-8.772,-1.613,-4.08,11.34,-4.13,2.94
34830.0,-8.765,-1.479,-4.032,-9.052,-0.79,-4.645,5.39,-0.35,3.36
,-8.787,-1.271,-4.011,-8.808,-1.015,-4.496,6.65,-0.14,3.92
,-8.837,-0.969,-4.362,-8.705,-1.144,-4.377,7.7,-1.05,3.78
,-8.945,-0.763,-4.594,-8.614,-0.957,-4.477,8.05,-1.12,3.08
34906.0,-8.677,-1.153,-4.379,-8.737,-1.096,-4.441,3.64,-0.07,2.31
,-8.856,-1.302,-4.295,-8.665,-1.034,-4.74,2.94,0.84,2.17
,-8.873,-1.22,-4.262,-8.978,-1.084,-4.614,3.36,1.61,1.96
,-8.873,-1.101,-4.25,-8.83,-1.106,-4.793,3.22,2.31,1.82
34981.0,-8.77,-1.06,-4.812,-8.973,-1.122,-4.47,2.94,2.94,1.33
,-8.622,-0.699,-4.922,-8.732,-1.589,-4.314,3.5,2.24,0.56
,-8.686,-0.682,-4.757,-8.634,-1.91,-4.305,2.24,2.24,0.0
,-9.002,-0.725,-4.549,-8.624,-1.933,-4.231,-0.28,1.54,-0.42
35057.0,-8.799,-1.764,-4.238,-8.684,-0.203,-4.657,-2.38,3.78,3.29
,-9.067,-1.266,-4.247,-8.753,-0.431,-4.628,-0.14,3.43,3.71
,-9.052,-0.658,-4.508,-8.811,-1.086,-4.41,0.98,2.59,3.71
,-8.832,-0.302,-4.494,-8.875,-1.5,-4.223,-1.05,2.24,3.29
35133.0,-8.954,-1.421,-4.324,-9.031,-0.637,-4.783,-2.8,4.2,3.99
,-8.906,-1.302,-4.331,-8.894,-0.692,-4.834,-1.54,3.71,5.04
,-8.847,-1.062,-4.503,-8.784,-0.916,-4.865,-0.07,3.64,5.67
,-8.978,-0.809,-4.733,-8.894,-1.024,-5.03,0.28,2.87,5.67
35209.0,-9.033,-1.065,-4.91,-8.583,-0.273,-4.989,-7.77,1.89,5.18
,-8.99,-0.988,-4.712,-8.966,-0.258,-4.893,-6.72,1.68,4.9
,-8.818,-0.852,-4.661,-9.103,-0.431,-4.872,-6.72,1.61,5.11
,-8.653,-0.486,-4.865,-8.904,-0.84,-4.762,-6.51,1.05,4.97
35285.0,-8.658,-1.108,-4.795,-8.753,-1.041,-5.066,-9.31,-1.19,3.92
,-8.667,-1.256,-4.874,-8.746,-1.041,-4.886,-7.56,-0.91,3.85
,-8.813,-1.144,-4.939,-8.765,-1.22,-4.657,-4.48,-1.19,3.5
,-8.88,-0.976,-5.209,-8.844,-1.218,-4.64,-2.94,-2.31,3.22
35360.0,-8.916,-0.952,-4.791,-9.024,-1.106,-4.934,0.35,-2.87,2.38
,-8.894,-0.811,-4.803,-9.371,-0.708,-4.829,1.33,-3.15,2.03
,-8.981,-0.83,-4.85,-9.615,-0.648,-4.14,1.89,-3.08,1.4
,-8.969,-1.053,-4.786,-8.904,-0.232,-4.695,2.31,-2.45,0.84
35436.0,-7.863,-0.397,-4.977,-9.189,-1.01,-4.475,2.38,-9.73,0.35
,-7.736,-0.816,-5.037,-8.945,-0.775,-4.434,0.14,-7.63,1.4
,-8.808,-1.251,-4.676,-8.614,-0.538,-4.63,0.49,-7.49,1.68
,-9.373,-1.235,-4.542,-8.741,-0.553,-4.652,3.85,-8.26,1.54
35511.0,-8.99,-0.462,-4.611,-8.832,-1.106,-4.58,3.01,-9.73,2.8
,-8.871,-0.409,-4.681,-9.088,-1.141,-4.099,1.12,-11.48,2.66
,-8.758,-0.428,-4.381,-9.225,-0.73,-4.448,-1.12,-11.83,2.45
,-8.576,-0.948,-4.386,-8.99,-0.447,-4.695,1.19,-11.55,1.26
35587.0,-8.813,-0.335,-4.417,-8.777,-0.187,-4.092,8.05,-8.19,2.52
,-9.048,-0.392,-4.216,-8.502,-0.373,-4.046,9.03,-6.72,1.96
,-9.292,-0.404,-4.18,-8.512,-0.651,-3.96,9.17,-7.0,1.4
,-9.167,-0.273,-4.085,-8.873,-0.718,-3.745,7.14,-7.56,1.33
35663.0,-9.079,-0.67,-3.647,-9.349,-0.974,-3.795,1.82,-6.79,2.17
,-9.117,-0.598,-3.62,-8.945,-0.835,-4.022,1.89,-6.44,2.66
,-8.973,-0.711,-3.766,-8.784,-0.761,-3.979,0.35,-6.37,3.22
,-9.055,-0.902,-3.826,-8.839,-0.708,-3.874,-0.42,-6.37,3.64
35739.0,-8.914,-0.684,-3.831,-9.268,-0.263,-3.707,-3.5,-12.25,1.89
,-9.122,-0.675,-3.814,-9.179,-0.065,-3.616,-3.64,-12.39,2.17
,-9.191,-0.672,-3.888,-9.253,-0.034,-3.62,-4.2,-11.62,2.38
,-9.191,-0.581,-3.676,-8.866,-0.223,-4.286,-3.99,-9.94,2.24
35814.0,-8.859,-0.94,-4.226,-9.318,-0.548,-3.408,-7.77,-8.4,1.82
,-9.031,-1.376,-3.898,-9.239,-0.024,-3.934,-4.2,-7.35,2.52
,-8.973,-1.46,-3.707,-9.335,-0.251,-3.865,2.66,-6.51,2.38
,-9.019,-1.194,-3.278,-9.258,-0.821,-3.929,9.03,-5.95,2.03
35890.0,-9.134,-1.278,-3.812,-9.093,-0.948,-3.218,-3.43,-9.66,1.96
,-8.976,-1.464,-3.518,-9.222,-0.866,-3.319,3.85,-8.05,1.82
,-8.935,-1.034,-3.171,-9.292,-0.644,-3.278,9.73,-7.21,2.17
,-8.799,-0.845,-3.12,-9.263,-0.402,-3.403,12.04,-6.65,3.08
35965.0,-9.079,-0.196,-3.202,-9.452,-0.538,-2.326,14.42,-6.3,5.67
,-9.069,-0.168,-3.118,-9.483,-0.261,-2.187,12.67,-5.6,4.76
,-9.129,-0.239,-3.022,-9.619,-0.081,-2.862,11.76,-5.18,4.2
,-9.189,-0.39,-2.759,-9.378,-0.019,-2.998,9.94,-4.97,3.64
36041.0,-9.227,-0.022,-3.506,-9.294,-0.677,-3.139,0.0,-5.95,0.98
,-8.906,-0.452,-3.513,-9.395,-0.823,-3.446,-2.17,-5.67,0.0
,-9.131,-0.66,-3.355,-9.15,-1.151,-3.309,0.14,-4.76,-0.42
,-9.182,-0.476,-3.484,-9.217,-1.263,-3.044,-0.21,-5.11,-1.54
36117.0,-9.287,-1.091,-3.206,-9.629,0.16,-3.453,-2.38,-5.32,-0.84
,-9.237,-0.928,-2.936,-9.411,0.177,-3.891,-1.12,-4.76,-0.7
,-9.375,-0.397,-3.015,-9.112,-0.026,-3.896,-1.26,-5.11,-0.98
,-9.397,-0.038,-2.912,-9.057,-0.424,-3.759,-3.36,-4.69,-1.12
36193.0,-9.308,-0.735,-3.75,-9.249,-1.33,-3.07,-7.35,-6.3,-2.94
,-9.361,-0.598,-3.891,-9.325,-1.177,-2.824,-2.73,-7.07,-2.8
,-9.323,-0.622,-3.647,-9.478,-0.828,-2.651,-1.4,-7.35,-2.59
,-9.246,-1.096,-3.441,-9.495,-0.701,-2.793,-1.75,-7.21,-2.1
36269.0,-9.588,-0.818,-2.929,-9.32,-0.562,-2.728,-0.28,-4.97,0.0
,-9.32,-0.885,-3.139,-9.488,-0.235,-2.625,-0.77,-4.97,0.21
,-9.174,-0.711,-3.049,-9.768,0.045,-2.965,1.19,-4.2,0.84
,-9.172,-0.751,-3.027,-9.531,-0.022,-3.379,4.13,-3.22,1.26
36344.0,-9.342,-0.373,-3.467,-9.426,-0.598,-3.068,3.01,-3.71,0.7
,-9.139,-0.814,-3.788,-9.481,-0.318,-2.589,2.87,-3.99,0.63
,-9.124,-1.031,-3.664,-9.495,-0.227,-2.213,6.51,-3.71,0.91
,-9.21,-0.866,-3.431,-9.349,-0.526,-1.682,11.34,-3.64,1.12
36420.0,-9.363,-0.852,-1.318,-9.502,-0.388,-2.003,0.91,-0.91,-0.35
,-9.512,-0.873,-1.208,-9.438,-0.596,-2.17,2.17,1.4,-0.28
,-9.686,-0.708,-1.326,-9.39,-0.704,-2.747,3.08,3.29,-0.07
,-9.608,-0.421,-1.668,-9.33,-0.629,-3.168,2.8,4.83,0.21
36496.0,-9.277,-0.505,-3.427,-9.17,-0.706,-4.111,2.73,8.89,0.49
,-9.361,-0.424,-3.599,-9.22,-0.988,-3.996,2.31,8.33,0.21
,-9.337,-0.447,-3.903,-9.273,-1.007,-3.709,1.05,7.28,-0.21
,-9.273,-0.524,-4.066,-9.414,-0.732,-3.606,-0.21,6.44,-0.21
36572.0,-9.442,-0.479,-3.367,-9.423,-0.742,-3.072,8.12,3.71,0.56
,-9.493,-0.366,-3.214,-9.411,-0.687,-3.135,6.16,3.22,0.42
,-9.359,-0.479,-3.111,-9.397,-0.708,-3.331,3.5,3.15,0.14
,-9.38,-0.62,-2.991,-9.311,-0.821,-3.331,2.1,3.29,-0.14
36647.0,-9.239,-0.79,-3.479,-9.45,-0.66,-3.247,1.82,2.87,0.21
,-9.232,-0.792,-3.451,-9.442,-0.572,-3.197,2.94,2.94,0.49
,-9.28,-0.766,-3.338,-9.344,-0.507,-3.369,3.71,2.87,0.56
,-9.409,-0.694,-3.264,-9.253,-0.648,-3.424,4.27,2.87,0.77
36723.0,-9.258,-0.723,-3.295,-9.521,-0.416,-3.204,3.43,2.03,0.49
,-9.275,-0.72,-3.264,-9.385,-0.459,-3.209,5.25,1.96,0.63
,-9.306,-0.615,-3.226,-9.328,-0.598,-3.262,6.51,2.17,0.56
,-9.433,-0.572,-3.161,-9.313,-0.72,-3.262,7.14,2.1,0.63
36798.0,-9.383,-0.845,-3.264,-9.342,-0.696,-3.302,2.03,1.61,-0.42
,-9.359,-0.869,-3.192,-9.354,-0.605,-3.348,2.45,1.61,-0.35
,-9.43,-0.715,-3.269,-9.316,-0.548,-3.479,2.66,1.61,-0.28
,-9.366,-0.692,-3.305,-9.294,-0.534,-3.374,1.82,1.4,-0.35
36874.0,-9.33,-0.632,-3.288,-9.292,-0.883,-3.329,-0.98,0.42,-0.84
,-9.361,-0.668,-3.223,-9.27,-1.098,-3.185,-0.91,0.42,-0.98
,-9.442,-0.735,-3.171,-9.328,-1.019,-3.364,-0.77,0.28,-0.84
,-9.402,-0.756,-3.309,-9.316,-0.916,-3.376,-0.49,0.14,-0.77
36950.0,-9.222,-0.787,-3.132,-9.646,-0.747,-2.455,4.48,0.07,1.19
,-9.258,-0.727,-2.974,-9.617,-0.447,-2.474,4.97,0.49,1.54
,-9.311,-0.821,-2.766,-9.426,-0.369,-2.379,5.18,0.77,1.68
,-9.478,-0.84,-2.558,-9.567,-0.526,-2.383,5.25,1.19,1.47
37026.0,-9.328,-0.352,-2.398,-9.253,-0.818,-2.302,-6.37,1.61,-0.07
,-9.28,-0.447,-2.295,-9.28,-0.735,-2.462,-7.63,2.31,0.14
,-9.316,-0.773,-2.245,-9.363,-0.546,-2.651,-7.56,3.78,0.28
,-9.356,-0.905,-2.211,-9.387,-0.23,-3.29,-6.65,4.9,0.35
37101.0,-9.079,-0.148,-3.436,-9.026,-0.325,-4.429,-4.55,9.03,1.12
,-9.423,0.043,-3.735,-9.038,-0.811,-4.353,-6.44,8.4,0.77
,-9.383,0.223,-4.357,-9.232,-1.165,-3.771,-11.69,6.51,-0.7
,-9.189,0.069,-4.262,-9.21,-0.895,-3.707,-15.89,6.23,-1.47
37177.0,-9.354,-0.792,-3.489,-9.533,-0.146,-2.857,-4.76,3.43,-1.26
,-9.452,-0.692,-2.95,-9.385,-0.38,-3.34,-4.27,2.94,-1.47
,-9.521,-0.38,-2.62,-9.062,-0.914,-3.795,-3.43,3.64,-1.89
,-9.591,-0.23,-2.402,-8.873,-1.455,-4.051,-3.43,4.76,-2.8
37253.0,-8.923,-1.627,-3.508,-9.342,-0.73,-3.455,-12.11,5.88,-1.61
,-9.194,-1.366,-3.317,-9.517,-0.924,-3.8,-2.31,6.65,-1.47
,-9.05,-0.983,-3.551,-9.337,-1.357,-3.762,6.58,6.79,-0.98
,-9.194,-0.876,-3.496,-8.916,-1.79,-3.154,10.57,6.3,0.07
37329.0,-8.792,-1.668,-2.481,-9.342,-0.845,-3.269,17.99,9.94,4.69
,-9.239,-1.211,-1.933,-8.804,-1.275,-3.946,24.64,11.34,4.55
,-9.495,-0.794,-2.357,-8.875,-1.496,-3.659,24.29,10.22,4.41
,-9.452,-0.768,-2.52,-9.1,-1.177,-3.597,19.67,10.08,5.46
37405.0,-8.82,-0.806,-3.159,-9.971,0.45,-3.056,28.28,14.35,7.7
,-8.961,-0.436,-2.285,-9.241,-0.053,-3.156,33.46,17.71,7.0
,-9.304,0.179,-2.481,-8.827,-0.613,-2.831,32.9,16.66,5.46
,-9.658,0.538,-2.702,-8.717,-0.876,-3.053,26.74,14.0,4.13
37480.0,-9.201,-0.653,-3.235,-9.112,0.596,-4.298,3.08,16.31,1.68
,-9.246,-0.311,-3.817,-9.129,0.847,-4.422,2.87,14.56,1.75
,-9.371,0.022,-3.955,-9.026,0.814,-4.513,0.42,14.56,1.47
,-9.299,0.361,-4.298,-9.208,0.337,-4.496,-3.22,14.14,0.07
37556.0,-9.143,-0.16,-4.19,-9.055,-0.467,-3.628,-15.19,9.52,-7.49
,-8.861,-0.481,-3.975,-8.988,-0.371,-3.556,-12.32,11.2,-8.05
,-8.938,-0.625,-3.965,-9.21,-0.117,-3.501,-7.84,13.02,-8.54
,-8.942,-0.677,-3.733,-9.304,0.144,-3.819,-2.8,14.84,-8.19
37631.0,-9.399,0.215,-3.872,-8.882,-2.441,-4.216,-3.71,15.33,-8.19
,-8.99,-0.333,-4.109,-8.765,-2.192,-4.413,-8.82,14.21,-7.7
,-9.103,-1.062,-3.853,-8.363,-1.685,-4.322,-13.09,11.55,-7.14
,-8.574,-1.914,-4.279,-8.648,-1.108,-4.42,-14.84,10.36,-6.16
37707.0,-9.067,-0.297,-4.568,-9.155,-0.668,-4.393,13.79,16.59,-8.33
,-9.404,0.522,-4.515,-9.342,-0.792,-4.451,12.88,14.98,-9.17
,-8.935,0.692,-4.755,-8.789,-0.945,-4.547,6.23,13.37,-9.17
,-8.741,0.084,-4.599,-8.713,-1.187,-4.379,-1.19,13.93,-9.1
37783.0,-8.947,-1.342,-4.35,-9.148,-1.484,-4.731,8.61,12.67,-8.54
,-8.818,-1.426,-4.611,-9.182,-1.821,-4.743,11.48,13.44,-7.56
