Timestamp,AccX,AccY,AccZ,GyroX,GyroY,GyroZ,MagnX,MagnY,MagnZ
0.0,-9.567,-0.464,-2.623,-9.552,-0.438,-2.568,2.52,1.4,0.7
,-9.584,-0.412,-2.56,-9.538,-0.483,-2.56,2.45,1.47,0.77
,-9.548,-0.361,-2.623,-9.564,-0.45,-2.553,2.1,1.26,0.7
,-9.572,-0.402,-2.539,-9.591,-0.462,-2.57,1.96,1.4,0.63
75.0,-9.584,-0.438,-2.534,-9.622,-0.431,-2.56,2.66,1.47,0.84
,-9.567,-0.416,-2.582,-9.529,-0.44,-2.584,2.66,1.4,0.77
,-9.579,-0.421,-2.563,-9.545,-0.438,-2.589,2.45,1.54,0.84
,-9.586,-0.443,-2.56,-9.569,-0.455,-2.56,2.31,1.68,0.84
150.0,-9.543,-0.38,-2.592,-9.6,-0.467,-2.587,2.73,1.47,0.7
,-9.569,-0.421,-2.608,-9.586,-0.431,-2.51,2.52,1.4,0.56
,-9.55,-0.39,-2.625,-9.557,-0.419,-2.513,2.38,1.26,0.42
,-9.567,-0.5,-2.584,-9.569,-0.376,-2.496,2.59,1.26,0.56
226.0,-9.603,-0.404,-2.489,-9.588,-0.397,-2.568,2.1,1.47,0.56
,-9.543,-0.474,-2.508,-9.536,-0.426,-2.587,2.03,1.61,0.63
,-9.615,-0.452,-2.541,-9.572,-0.404,-2.572,2.31,1.68,0.63
,-9.567,-0.436,-2.565,-9.55,-0.412,-2.627,2.45,1.82,0.7
302.0,-9.564,-0.459,-2.613,-9.562,-0.421,-2.606,2.03,1.54,0.56
,-9.593,-0.479,-2.608,-9.579,-0.447,-2.558,2.31,1.68,0.63
,-9.574,-0.452,-2.556,-9.569,-0.426,-2.589,2.59,1.68,0.63
,-9.541,-0.498,-2.57,-9.517,-0.447,-2.572,2.66,1.54,0.77
378.0,-9.552,-0.436,-2.57,-9.631,-0.474,-2.565,2.45,1.54,0.77
,-9.552,-0.4,-2.551,-9.6,-0.421,-2.635,2.45,1.47,0.84
,-9.545,-0.479,-2.505,-9.567,-0.407,-2.615,2.52,1.47,0.84
,-9.574,-0.452,-2.58,-9.543,-0.419,-2.601,2.94,1.47,0.84
453.0,-9.526,-0.455,-2.56,-9.591,-0.428,-2.481,2.52,1.26,0.77
,-9.562,-0.476,-2.546,-9.581,-0.431,-2.52,2.73,1.19,0.77
,-9.567,-0.421,-2.513,-9.605,-0.395,-2.594,2.8,1.19,0.84
,-9.593,-0.428,-2.441,-9.541,-0.378,-2.577,2.87,1.26,0.84
529.0,-9.6,-0.44,-2.728,-9.572,-0.438,-2.62,1.4,1.12,0.49
,-9.569,-0.467,-2.62,-9.548,-0.426,-2.637,1.68,1.33,0.42
,-9.579,-0.45,-2.68,-9.593,-0.476,-2.58,2.03,1.05,0.56
,-9.557,-0.426,-2.663,-9.584,-0.4,-2.57,2.17,0.77,0.42
605.0,-9.596,-0.457,-2.548,-9.603,-0.493,-2.522,2.03,0.91,0.56
,-9.524,-0.345,-2.606,-9.572,-0.536,-2.508,2.03,0.7,0.49
,-9.605,-0.455,-2.505,-9.598,-0.526,-2.558,1.89,0.77,0.56
,-9.588,-0.531,-2.527,-9.552,-0.431,-2.659,2.03,0.84,0.56
681.0,-9.608,-0.428,-2.644,-9.603,-0.476,-2.572,1.96,0.28,0.7
,-9.584,-0.44,-2.659,-9.588,-0.392,-2.615,1.61,0.28,0.56
,-9.605,-0.541,-2.716,-9.593,-0.395,-2.623,1.33,0.14,0.63
,-9.586,-0.536,-2.565,-9.672,-0.409,-2.84,1.75,0.0,0.7
757.0,-9.555,-0.4,-2.563,-9.562,-0.44,-2.754,0.91,-0.56,0.63
,-9.562,-0.467,-2.599,-9.555,-0.378,-2.63,0.84,-0.56,0.7
,-9.572,-0.495,-2.723,-9.593,-0.371,-2.611,0.84,-0.98,0.7
,-9.584,-0.471,-2.742,-9.579,-0.357,-2.553,1.47,-1.4,0.77
832.0,-9.608,-0.407,-2.462,-9.552,-0.536,-2.575,1.82,-2.1,0.7
,-9.619,-0.416,-2.467,-9.514,-0.383,-2.611,1.47,-2.1,0.77
,-9.622,-0.467,-2.541,-9.603,-0.354,-2.584,1.26,-2.17,0.7
,-9.584,-0.512,-2.563,-9.622,-0.428,-2.458,1.26,-2.45,0.7
908.0,-9.605,-0.464,-2.501,-9.627,-0.529,-2.355,1.47,-2.8,0.77
,-9.742,-0.51,-2.654,-9.617,-0.376,-2.345,1.96,-2.8,1.05
,-9.619,-0.436,-2.369,-9.631,-0.366,-2.407,1.75,-2.66,1.05
,-9.72,-0.555,-2.58,-9.622,-0.34,-2.419,2.38,-2.8,1.19
983.0,-9.608,-0.359,-2.254,-9.696,-0.507,-2.146,2.45,-2.8,0.91
,-9.61,-0.33,-2.247,-9.622,-0.438,-2.084,2.31,-2.8,0.7
,-9.598,-0.345,-2.158,-9.663,-0.404,-2.099,1.61,-2.59,0.56
,-9.653,-0.421,-2.099,-9.619,-0.467,-2.144,1.26,-2.31,0.63
1059.0,-9.603,-0.428,-2.156,-9.634,-0.34,-2.252,2.17,-0.91,0.91
,-9.619,-0.55,-2.199,-9.641,-0.333,-2.367,2.52,-0.56,0.91
,-9.629,-0.464,-2.163,-9.636,-0.376,-2.386,3.22,-0.35,1.12
,-9.66,-0.424,-2.268,-9.641,-0.39,-2.489,3.5,-0.21,0.98
1135.0,-9.576,-0.297,-2.534,-9.682,-0.354,-2.355,1.82,-0.77,0.56
,-9.646,-0.325,-2.496,-9.675,-0.392,-2.364,1.68,-0.91,0.49
,-9.651,-0.266,-2.393,-9.651,-0.522,-2.331,1.68,-0.91,0.49
,-9.651,-0.235,-2.41,-9.634,-0.476,-2.235,1.4,-1.33,0.21
1211.0,-9.663,-0.373,-2.331,-9.658,-0.476,-2.3,2.45,-1.61,0.28
,-9.591,-0.285,-2.359,-9.608,-0.433,-2.278,1.96,-1.75,0.14
,-9.682,-0.385,-2.383,-9.66,-0.445,-2.254,0.98,-1.96,-0.07
,-9.648,-0.404,-2.302,-9.667,-0.474,-2.197,0.84,-1.96,-0.14
1286.0,-9.648,-0.481,-2.127,-9.636,-0.462,-2.266,2.87,-1.89,0.28
,-9.684,-0.474,-2.137,-9.619,-0.514,-2.285,3.43,-1.75,0.42
,-9.758,-0.378,-2.233,-9.617,-0.541,-2.316,3.36,-1.75,0.28
,-9.629,-0.378,-2.228,-9.665,-0.531,-2.307,2.31,-1.61,0.07
1362.0,-9.648,-0.424,-2.335,-9.641,-0.354,-2.175,4.27,-1.96,0.28
,-9.67,-0.371,-2.235,-9.713,-0.503,-2.111,5.04,-2.03,0.42
,-9.643,-0.304,-2.163,-9.634,-0.486,-2.022,5.39,-1.96,0.56
,-9.686,-0.385,-2.077,-9.71,-0.522,-2.0,5.18,-1.96,0.49
1438.0,-9.605,-0.452,-1.888,-9.701,-0.505,-1.926,4.27,-1.33,0.28
,-9.746,-0.474,-2.024,-9.684,-0.462,-2.108,4.34,-1.19,0.42
,-9.646,-0.512,-1.95,-9.677,-0.447,-2.099,3.78,-1.05,0.42
,-9.67,-0.529,-1.95,-9.605,-0.5,-2.087,3.29,-0.7,0.42
1514.0,-9.641,-0.536,-1.998,-9.689,-0.546,-1.948,0.56,0.0,0.35
,-9.691,-0.385,-1.933,-9.67,-0.665,-2.015,0.49,0.35,0.35
,-9.751,-0.318,-1.953,-9.665,-0.687,-1.974,0.0,0.49,0.28
,-9.708,-0.421,-1.957,-9.682,-0.491,-2.094,-0.84,0.63,0.14
1589.0,-9.677,-0.414,-2.0,-9.675,-0.474,-1.534,2.03,1.61,1.33
,-9.682,-0.297,-1.79,-9.737,-0.464,-1.338,1.68,1.96,1.33
,-9.655,-0.206,-1.792,-9.828,-0.445,-1.302,0.91,2.31,1.12
,-9.684,-0.323,-1.67,-9.698,-0.424,-1.582,-0.56,2.94,0.91
1665.0,-9.603,-0.498,-1.613,-9.947,0.019,-1.747,-5.25,6.37,0.91
,-9.619,-0.574,-1.539,-9.706,0.112,-1.819,-5.6,7.21,0.98
,-9.564,-0.586,-1.405,-9.603,-0.165,-1.531,-5.04,8.4,1.05
,-9.773,-0.342,-1.24,-9.569,-0.615,-1.565,-4.13,9.24,0.84
1740.0,-9.407,-0.711,-1.278,-9.785,-0.136,-1.05,-11.27,12.32,0.07
,-9.629,-0.775,-1.034,-9.581,0.115,-1.457,-6.58,14.7,1.26
,-9.67,-0.653,-1.084,-9.603,-0.136,-2.173,-4.69,16.03,1.61
,-9.746,-0.177,-0.952,-9.342,-0.455,-2.745,-5.04,17.43,1.89
1816.0,-9.117,-0.548,-3.139,-9.514,-0.479,-2.228,-14.98,19.74,0.98
,-9.32,-1.027,-2.989,-9.763,-0.299,-2.639,-11.76,20.3,1.54
,-9.323,-0.909,-2.862,-9.612,-0.074,-2.625,-6.23,20.51,2.03
,-9.452,-0.72,-2.819,-9.529,0.108,-2.941,-0.56,20.79,2.59
1892.0,-9.363,-0.337,-3.216,-9.622,-0.541,-2.807,-0.56,19.95,2.87
,-9.27,-1.003,-3.333,-9.636,-0.223,-2.73,-1.12,20.58,3.5
,-9.182,-1.316,-3.037,-9.474,-0.486,-2.864,3.29,21.35,4.41
,-9.316,-1.094,-2.481,-9.268,-0.924,-2.824,11.06,21.98,5.25
1968.0,-9.337,-0.847,-2.747,-9.349,0.175,-2.245,7.0,20.93,5.25
,-9.328,-0.469,-2.73,-9.454,-0.115,-2.067,10.43,21.77,5.32
,-9.222,0.081,-2.503,-9.464,-0.235,-2.211,12.11,22.75,5.04
,-9.323,0.275,-2.237,-9.378,-0.261,-2.18,11.69,24.29,5.11
2044.0,-9.409,-0.108,-2.972,-9.05,-0.388,-3.142,8.89,27.93,5.74
,-9.387,-0.048,-3.494,-9.232,-0.225,-3.534,7.49,26.81,5.18
,-9.251,-0.227,-3.453,-9.241,-0.182,-3.831,6.02,26.39,4.76
,-9.012,-0.459,-3.281,-8.988,-0.488,-3.881,5.53,26.81,4.41
2119.0,-8.693,-1.036,-3.515,-9.428,0.787,-4.092,1.68,26.46,4.55
,-8.839,-1.101,-3.12,-9.11,0.72,-4.472,8.75,28.77,5.04
,-9.184,-0.613,-3.003,-8.811,0.129,-4.398,16.8,29.33,4.97
,-9.497,0.189,-3.374,-8.789,-0.211,-4.298,20.51,28.14,4.62
2195.0,-8.988,-0.065,-4.121,-8.559,-1.122,-4.082,9.52,25.41,2.38
,-9.481,0.28,-4.448,-8.777,-1.17,-3.891,9.1,22.26,1.19
,-9.268,0.258,-4.824,-9.069,-0.524,-4.235,3.71,19.39,0.63
,-8.796,-0.438,-4.635,-9.11,0.203,-4.585,-2.38,19.32,1.47
2271.0,-9.028,0.29,-4.762,-9.165,0.443,-4.049,5.39,19.46,2.59
,-8.823,0.141,-4.535,-9.237,0.318,-4.027,1.75,19.81,2.31
,-8.818,0.187,-4.391,-9.036,-0.012,-3.977,0.98,20.09,1.82
,-9.038,0.256,-4.235,-8.741,-0.462,-4.063,0.98,19.53,0.98
2347.0,-8.591,-0.672,-4.085,-8.607,0.309,-4.654,-0.98,18.76,1.47
,-8.801,-0.715,-3.929,-8.421,-0.038,-4.561,5.04,19.74,1.05
,-9.127,-0.371,-4.154,-8.72,-0.316,-4.29,8.26,18.2,0.35
,-9.079,0.199,-4.451,-8.933,-0.045,-4.451,7.0,14.98,0.35
2422.0,-8.882,0.163,-4.609,-8.552,-0.651,-4.984,-1.33,17.57,-2.24
,-8.818,-0.026,-4.771,-8.61,-0.488,-5.049,-3.36,17.5,-1.54
,-8.739,-0.648,-4.783,-8.715,-0.519,-5.059,-4.62,17.15,-1.05
,-8.55,-0.794,-4.86,-8.775,-0.555,-4.984,-1.47,17.57,-0.63
2498.0,-8.722,-0.531,-5.075,-8.514,-0.476,-4.752,2.59,15.82,1.68
,-8.765,-0.589,-4.91,-8.559,-0.481,-4.788,1.68,16.17,1.68
,-8.863,-0.615,-4.681,-8.727,-0.203,-4.879,-0.14,14.84,2.1
,-8.516,-0.457,-4.87,-8.808,0.101,-5.087,-2.03,14.0,3.08
2573.0,-8.634,0.249,-5.226,-8.674,-0.593,-4.781,3.99,13.44,2.66
,-8.667,0.122,-5.025,-8.703,-0.701,-4.893,2.87,13.09,2.31
,-8.746,0.01,-4.922,-8.737,-0.814,-5.008,1.68,11.27,2.66
,-8.612,-0.163,-4.872,-8.698,-0.871,-5.128,0.98,10.64,3.01
2649.0,-8.516,-0.596,-5.296,-8.478,-0.282,-5.535,2.52,7.07,7.56
,-8.363,-0.306,-5.559,-8.571,-0.4,-5.408,3.29,7.14,7.91
,-8.325,-0.223,-5.566,-8.626,-0.017,-5.425,3.71,7.91,7.84
,-8.521,-0.215,-5.561,-8.43,0.072,-5.494,4.41,8.33,7.98
2725.0,-8.399,-0.182,-5.379,-8.308,-1.752,-5.274,3.78,5.04,6.58
,-8.545,-0.481,-5.164,-8.516,-0.677,-5.31,3.29,5.39,6.65
,-8.528,-1.096,-5.095,-8.239,-0.443,-5.468,4.13,5.32,7.14
,-8.605,-1.242,-5.219,-8.203,0.115,-5.406,5.74,4.69,8.12
2801.0,-8.622,0.065,-4.63,-8.672,0.311,-4.826,10.85,2.8,9.59
,-8.492,0.321,-5.032,-8.497,0.225,-4.834,9.03,2.59,8.33
,-8.737,0.529,-5.044,-8.71,0.751,-4.992,7.91,2.66,7.98
,-8.713,0.323,-4.64,-8.701,1.508,-5.197,5.95,3.15,7.63
2876.0,-8.741,1.969,-5.401,-8.303,-0.089,-4.817,7.49,2.8,2.03
,-8.717,1.902,-5.293,-8.363,-0.354,-4.934,4.34,1.75,-0.28
,-8.899,1.328,-5.276,-8.528,-0.495,-4.925,0.49,1.61,-2.03
,-8.662,0.469,-4.994,-8.536,-0.402,-4.984,-1.89,2.17,-3.01
2952.0,-8.459,-0.141,-5.133,-8.643,-0.916,-5.43,0.77,3.78,-0.77
,-8.504,-0.235,-5.331,-8.5,-0.766,-5.477,-1.19,3.78,-0.63
,-8.471,-0.775,-5.221,-8.502,-0.737,-5.336,-3.5,3.43,-0.42
,-8.679,-0.952,-5.384,-8.583,-0.627,-5.284,-3.15,3.71,0.07
3028.0,-8.507,-0.474,-5.272,-8.739,-0.184,-5.106,6.44,4.48,2.52
,-8.526,-0.297,-5.264,-8.536,0.124,-5.319,7.14,4.97,3.15
,-8.552,-0.172,-5.315,-8.342,0.211,-5.293,6.37,5.04,3.64
,-8.653,-0.223,-4.499,-8.559,0.493,-5.293,6.09,5.6,3.99
3104.0,-8.509,0.436,-5.372,-8.607,-0.002,-5.377,3.92,4.9,3.64
,-8.576,0.407,-5.276,-8.392,-0.127,-5.348,2.87,4.97,2.94
,-8.485,0.349,-5.346,-8.385,-0.081,-5.348,2.1,4.97,2.38
,-8.48,0.132,-5.24,-8.562,0.172,-5.386,1.47,5.18,2.1
3180.0,-8.435,0.304,-5.501,-8.593,-0.196,-5.075,3.29,4.76,0.77
,-8.442,0.27,-5.461,-8.397,-0.041,-5.159,2.31,4.48,0.35
,-8.614,0.12,-5.348,-8.33,0.124,-5.322,1.19,4.41,-0.14
,-8.634,-0.148,-5.288,-8.464,0.187,-5.219,1.26,4.48,-0.56
3255.0,-8.559,0.074,-5.147,-8.406,-0.325,-5.363,1.89,3.99,0.77
,-8.531,-0.22,-5.071,-8.423,-0.194,-5.339,0.91,3.85,0.84
,-8.43,-0.27,-5.202,-8.392,-0.17,-5.255,1.33,4.27,1.12
,-8.375,-0.268,-5.307,-8.44,-0.191,-5.214,2.31,4.69,1.47
3331.0,-8.591,-0.263,-5.183,-8.569,0.017,-5.489,0.98,3.99,4.34
,-8.423,-0.5,-5.15,-8.488,0.019,-5.274,-0.07,3.78,5.04
,-8.339,-0.541,-5.212,-8.552,0.306,-5.552,1.05,4.2,5.74
,-8.478,-0.251,-5.255,-8.457,0.043,-5.341,2.38,4.34,6.51
3406.0,-8.413,0.048,-5.446,-8.674,0.328,-5.506,0.56,3.85,6.65
,-8.433,0.505,-5.497,-8.413,-0.177,-5.458,1.68,4.27,6.3
,-8.464,0.57,-5.597,-8.402,0.146,-5.587,0.49,4.55,5.74
,-8.533,0.244,-5.475,-8.294,0.285,-5.729,0.21,4.83,5.25
3482.0,-8.291,0.029,-5.621,-8.459,-0.005,-5.961,-3.43,0.42,4.69
,-8.416,-0.105,-5.652,-8.559,0.065,-5.973,-4.41,0.14,4.83
,-8.449,-0.029,-5.858,-8.466,0.05,-5.858,-3.71,-0.28,5.11
,-8.387,0.055,-5.949,-8.32,0.057,-5.863,-3.22,-0.49,5.32
3558.0,-8.55,-0.12,-5.561,-8.409,0.981,-5.86,-1.12,-3.15,3.92
,-8.514,0.101,-5.738,-8.428,1.034,-5.693,-0.35,-5.18,3.5
,-8.476,0.426,-5.772,-8.593,0.964,-5.599,0.77,-6.65,2.8
,-8.459,0.864,-5.796,-8.5,0.759,-5.638,1.12,-7.49,2.31
3634.0,-8.473,0.627,-5.602,-8.495,-0.007,-5.573,-5.04,-10.64,-0.98
,-8.392,0.457,-5.628,-8.277,-0.077,-5.386,-3.08,-9.87,-1.82
,-8.483,0.249,-5.501,-8.471,-0.029,-5.595,-0.7,-9.17,-2.87
,-8.514,0.096,-5.523,-8.452,0.148,-5.559,1.33,-8.75,-3.29
3709.0,-8.421,0.177,-5.415,-8.514,-0.199,-5.336,6.93,-7.91,-3.08
,-8.478,0.031,-5.377,-8.636,-0.043,-5.243,4.34,-8.75,-2.59
,-8.536,-0.105,-5.382,-8.689,0.141,-5.31,2.24,-9.87,-1.47
,-8.428,-0.177,-5.441,-8.612,0.182,-5.269,1.68,-10.85,-0.63
3785.0,-8.547,0.148,-5.188,-8.502,0.392,-5.03,2.31,-15.47,0.63
,-8.679,0.191,-5.14,-8.48,0.208,-4.898,1.75,-16.52,0.28
,-8.67,0.239,-5.013,-8.54,-0.244,-4.53,0.84,-17.57,-0.21
,-8.61,0.328,-4.953,-8.658,-0.127,-4.432,-0.21,-18.41,-0.14
3860.0,-8.622,-0.036,-4.338,-8.804,0.093,-4.034,3.5,-19.46,1.33
,-8.655,0.163,-4.25,-8.83,0.297,-3.996,5.18,-19.81,1.19
,-8.758,0.177,-4.128,-8.856,0.519,-3.948,5.32,-19.88,1.82
,-8.827,0.105,-4.099,-8.832,0.672,-3.879,4.62,-20.23,2.31
3936.0,-8.756,0.646,-3.812,-8.938,0.251,-3.522,1.54,-18.2,0.49
,-8.732,0.421,-3.676,-9.007,0.364,-3.704,0.21,-17.29,0.35
,-8.729,0.189,-3.611,-8.634,0.249,-3.771,0.63,-16.73,0.28
,-8.885,0.22,-3.64,-8.902,0.196,-3.518,3.29,-16.31,0.28
4012.0,-9.036,0.156,-3.711,-9.016,0.117,-3.759,6.65,-13.86,-0.21
,-8.839,0.007,-3.721,-9.055,0.311,-3.733,5.6,-13.3,-0.28
,-9.033,0.129,-3.623,-8.993,0.45,-3.996,5.88,-12.67,0.21
,-9.062,0.093,-3.824,-8.947,0.404,-4.128,5.53,-12.46,0.42
4088.0,-8.861,0.309,-3.941,-9.162,0.555,-4.279,1.75,-10.71,-0.49
,-8.952,0.23,-3.8,-9.036,0.407,-4.353,3.22,-10.08,-0.56
,-9.148,0.184,-3.719,-8.988,0.055,-4.054,5.32,-10.22,-1.05
,-9.177,0.433,-3.963,-9.04,-0.122,-3.932,5.81,-10.99,-1.4
4164.0,-9.129,-0.079,-3.817,-9.088,-0.239,-4.015,4.69,-11.27,-1.75
,-9.225,0.163,-3.941,-9.131,-0.012,-4.07,4.97,-11.97,-1.68
,-9.115,0.17,-4.054,-9.155,0.33,-4.006,2.94,-12.53,-1.4
,-9.052,-0.055,-4.118,-9.153,0.656,-4.073,1.89,-12.81,-1.12
4239.0,-9.098,0.565,-3.927,-9.284,0.036,-3.68,5.11,-14.77,-1.54
,-9.1,0.28,-3.702,-9.244,0.246,-3.597,2.94,-14.7,-1.68
,-9.182,-0.002,-3.506,-9.158,0.27,-3.664,3.01,-14.49,-1.89
,-9.229,-0.103,-3.577,-9.115,0.263,-3.128,3.85,-14.98,-2.38
4315.0,-9.474,0.409,-3.451,-9.06,-0.522,-3.455,8.19,-15.05,-2.87
,-9.313,0.704,-3.616,-9.119,-0.814,-2.941,5.04,-16.38,-4.2
,-9.22,0.538,-3.975,-9.299,-0.605,-2.467,-0.21,-16.94,-4.76
,-9.081,0.112,-3.599,-9.457,-0.256,-2.178,-4.06,-16.59,-4.62
4391.0,-9.584,0.086,-2.441,-9.234,0.452,-3.843,7.21,-12.95,-3.64
,-9.572,0.211,-2.74,-9.093,0.483,-3.429,3.22,-12.88,-3.5
,-9.404,0.345,-3.25,-9.182,0.349,-2.91,0.21,-13.02,-3.57
,-9.296,0.474,-3.451,-9.481,0.33,-2.144,-0.77,-13.09,-4.06
4467.0,-9.931,0.357,-3.451,-9.127,-0.519,-2.857,4.06,-12.67,-7.28
,-9.596,0.361,-3.101,-9.356,-0.364,-2.635,-1.4,-13.37,-7.63
,-9.385,0.045,-3.632,-9.49,-0.014,-2.434,-5.53,-13.86,-7.21
,-9.014,-0.304,-3.235,-9.641,-0.168,-2.216,-5.11,-13.3,-7.07
4542.0,-9.548,-0.354,-2.166,-9.387,0.287,-2.515,1.96,-10.29,-6.44
,-9.521,-0.457,-2.06,-9.495,0.029,-2.651,3.43,-9.17,-5.67
,-9.55,-0.194,-2.362,-9.469,-0.462,-2.603,6.44,-8.54,-5.53
,-9.404,0.153,-2.419,-9.555,-0.376,-2.826,7.63,-8.12,-5.67
4618.0,-9.469,-0.354,-2.871,-9.581,-0.471,-2.324,7.77,-6.58,-5.39
,-9.39,-0.452,-2.596,-9.608,-0.328,-2.489,8.12,-6.02,-4.76
,-9.457,-0.349,-2.608,-9.598,-0.144,-2.876,8.89,-5.32,-4.34
,-9.474,-0.471,-2.362,-9.411,-0.263,-2.721,9.59,-4.76,-4.13
4693.0,-9.366,-0.512,-2.737,-9.615,-0.34,-1.981,5.81,-4.2,-3.85
,-9.397,-0.603,-2.556,-9.56,-0.512,-1.778,7.84,-3.99,-3.64
,-9.529,-0.579,-2.335,-9.598,-0.428,-1.953,9.59,-3.5,-3.36
,-9.5,-0.4,-2.053,-9.569,-0.385,-2.003,9.52,-2.87,-3.08
4769.0,-9.536,-0.469,-2.108,-9.49,-0.785,-2.292,3.71,1.26,-2.17
,-9.576,-0.507,-2.228,-9.562,-0.613,-2.357,3.15,1.82,-2.03
,-9.471,-0.514,-2.297,-9.512,-0.395,-2.34,2.24,2.45,-1.89
,-9.397,-0.802,-2.144,-9.557,-0.278,-2.414,2.03,3.36,-1.33
4845.0,-9.548,-0.189,-2.498,-9.555,-0.505,-2.673,2.03,5.25,-0.77
,-9.586,-0.304,-2.592,-9.596,-0.421,-2.69,0.42,5.46,-0.91
,-9.447,-0.371,-2.661,-9.572,-0.309,-2.924,-0.98,5.53,-0.91
,-9.428,-0.526,-2.544,-9.474,-0.287,-3.135,-1.12,5.74,-0.56
4921.0,-9.466,-0.412,-3.288,-9.445,-0.44,-3.278,-1.89,4.13,-0.63
,-9.44,-0.493,-3.472,-9.502,-0.364,-3.149,-1.75,3.78,-0.49
,-9.435,-0.507,-3.51,-9.545,-0.392,-3.015,-1.19,3.08,-0.35
,-9.435,-0.493,-3.41,-9.507,-0.431,-2.984,0.0,2.52,-0.14
4996.0,-9.519,-0.522,-2.965,-9.524,-0.407,-2.757,1.61,-0.49,0.28
,-9.452,-0.613,-3.027,-9.459,-0.438,-2.673,1.89,-0.56,0.63
,-9.454,-0.637,-2.96,-9.541,-0.574,-2.606,3.22,-0.91,0.91
,-9.478,-0.562,-2.915,-9.524,-0.55,-2.529,4.48,-0.98,1.19
5072.0,-9.538,-0.51,-2.527,-9.576,-0.45,-2.247,4.83,-0.49,1.68
,-9.476,-0.476,-2.434,-9.567,-0.242,-2.19,4.76,-0.07,1.68
,-9.44,-0.675,-2.292,-9.562,-0.151,-2.278,4.48,0.49,2.17
,-9.533,-0.627,-2.271,-9.521,-0.302,-2.367,4.97,1.05,2.17
5148.0,-9.519,-0.436,-2.424,-9.502,-0.067,-2.984,-1.68,3.29,1.54
,-9.598,-0.438,-2.675,-9.569,-0.048,-3.108,-0.7,3.36,1.4
,-9.574,-0.244,-2.843,-9.529,-0.275,-3.044,0.35,3.5,1.54
,-9.543,-0.084,-2.943,-9.474,-0.402,-2.974,0.56,3.5,1.33
5224.0,-9.488,-0.447,-2.891,-9.538,-0.373,-2.58,-0.77,2.1,0.91
,-9.521,-0.55,-2.766,-9.545,-0.251,-2.687,-0.07,2.03,0.91
,-9.505,-0.546,-2.666,-9.509,-0.254,-2.728,0.35,2.03,0.98
,-9.588,-0.45,-2.651,-9.497,-0.376,-2.814,0.49,2.31,1.05
5300.0,-9.457,-0.431,-2.848,-9.5,-0.184,-3.01,-0.42,2.31,1.12
,-9.505,-0.388,-2.924,-9.548,-0.206,-2.986,1.12,2.31,1.19
,-9.505,-0.328,-3.013,-9.507,-0.249,-2.996,2.1,1.96,1.19
,-9.514,-0.254,-2.962,-9.433,-0.395,-2.986,2.38,1.61,1.19
5375.0,-9.514,-0.517,-2.962,-9.497,-0.33,-2.723,2.17,0.14,0.91
,-9.517,-0.426,-2.924,-9.567,-0.4,-2.666,4.06,0.07,1.05
,-9.545,-0.242,-2.946,-9.502,-0.407,-2.484,5.18,-0.28,1.12
,-9.464,-0.282,-2.879,-9.541,-0.273,-2.525,4.83,-0.49,1.12
5451.0,-9.581,-0.151,-2.558,-9.502,-0.562,-2.517,2.73,-0.07,0.49
,-9.495,-0.208,-2.558,-9.584,-0.414,-2.529,1.47,0.14,0.42
,-9.543,-0.309,-2.587,-9.586,-0.278,-2.603,0.77,0.35,0.49
,-9.533,-0.471,-2.503,-9.529,-0.203,-2.68,0.63,0.56,0.56
5526.0,-9.476,-0.156,-2.714,-9.588,-0.201,-2.826,-0.28,1.54,0.77
,-9.548,-0.309,-2.764,-9.581,-0.246,-2.924,-1.54,1.33,0.56
,-9.493,-0.357,-2.704,-9.478,-0.364,-3.001,-1.61,1.19,0.42
,-9.555,-0.352,-2.733,-9.464,-0.447,-3.032,-0.7,1.33,0.56
5602.0,-9.426,-0.615,-2.874,-9.552,-0.153,-3.041,1.12,0.42,0.91
,-9.543,-0.608,-2.795,-9.466,-0.191,-2.974,2.24,0.28,1.12
,-9.562,-0.421,-2.776,-9.435,-0.321,-2.907,2.8,0.0,0.91
,-9.627,-0.215,-2.965,-9.495,-0.309,-3.063,2.45,-0.63,0.91
5678.0,-9.469,-0.491,-2.656,-9.56,-0.263,-1.821,-0.07,-1.68,0.91
,-9.541,-0.57,-2.479,-9.524,-0.261,-1.606,0.84,-1.33,1.33
,-9.555,-0.517,-2.324,-9.502,-0.376,-1.381,1.12,-0.91,1.47
,-9.514,-0.376,-2.07,-9.627,-0.335,-1.414,1.54,-0.56,1.61
5754.0,-9.658,-0.127,-1.503,-9.411,-0.397,-2.209,-3.64,5.67,1.68
,-9.598,-0.062,-1.508,-9.373,-0.5,-2.166,-5.81,7.21,1.75
,-9.61,-0.045,-1.788,-9.541,-0.608,-2.367,-8.26,8.19,1.61
,-9.555,-0.208,-2.175,-9.598,-0.419,-2.584,-10.57,9.17,1.47
5829.0,-9.483,-0.45,-2.553,-9.395,-0.622,-1.807,-11.34,11.55,2.1
,-9.426,-0.727,-2.3,-9.536,-0.517,-1.718,-13.51,11.62,2.52
,-9.332,-0.749,-2.271,-9.548,-0.232,-2.326,-13.79,12.04,3.01
,-9.347,-0.768,-1.869,-9.435,-0.141,-2.149,-11.27,13.58,3.99
5905.0,-9.564,0.026,-2.962,-9.045,-0.177,-2.91,-10.22,14.84,4.55
,-9.189,0.397,-3.381,-9.318,-0.414,-2.915,-10.85,15.54,4.83
,-9.323,-0.139,-2.876,-9.213,-0.558,-2.489,-9.8,16.45,5.18
,-9.194,-0.225,-3.262,-9.375,-0.625,-2.211,-9.24,16.38,4.76
5981.0,-9.452,-0.416,-2.558,-9.002,0.139,-2.965,3.22,21.21,6.79
,-9.34,-0.034,-2.405,-9.328,-0.258,-3.721,4.62,22.4,7.0
,-9.469,0.366,-3.082,-9.217,-0.28,-3.764,3.5,22.05,6.3
,-9.196,0.378,-3.329,-9.299,-0.134,-4.207,-2.73,21.56,5.39
6057.0,-9.033,-0.17,-4.235,-9.273,0.668,-3.51,-3.08,21.98,5.46
,-8.909,-0.325,-3.24,-9.282,0.938,-3.877,-0.07,24.15,6.79
,-9.466,-0.395,-3.19,-8.978,0.89,-3.8,6.02,24.5,7.49
,-9.466,0.098,-3.498,-8.942,0.632,-3.214,9.24,22.05,6.16
6133.0,-9.289,0.469,-3.46,-8.732,-0.203,-3.867,2.52,23.66,3.57
,-9.407,0.34,-3.817,-9.072,-0.17,-3.733,1.12,22.47,2.1
,-9.162,0.22,-4.204,-9.33,0.184,-4.329,-0.77,21.91,1.61
,-8.904,-0.038,-4.094,-9.043,0.431,-4.415,-2.31,21.98,2.1
6208.0,-8.756,0.359,-4.379,-9.332,0.177,-4.602,2.87,21.56,0.91
,-8.555,0.206,-3.726,-8.88,0.005,-4.647,2.03,24.01,1.19
,-9.258,-0.146,-3.759,-8.581,-0.168,-4.322,3.08,23.52,0.7
,-9.43,0.034,-4.154,-8.82,-0.175,-4.078,3.22,20.16,-0.42
6284.0,-8.923,0.057,-4.353,-8.77,-1.747,-3.862,2.24,17.29,-0.07
,-9.112,-0.031,-4.561,-8.935,-1.082,-4.228,0.98,16.31,0.63
,-8.938,-0.775,-4.456,-8.885,-0.084,-4.602,-1.12,17.08,2.03
,-8.555,-1.517,-4.183,-8.665,0.56,-4.815,0.77,18.62,3.85
6359.0,-8.437,0.555,-4.671,-8.99,0.787,-4.147,13.58,18.83,6.86
,-8.727,0.407,-4.219,-9.062,0.354,-4.03,10.64,20.44,6.44
,-8.969,0.706,-4.288,-8.983,0.211,-4.267,9.24,20.02,5.53
,-8.918,1.031,-4.274,-8.763,0.091,-4.219,7.42,19.67,4.76
6435.0,-8.897,0.275,-4.535,-8.787,0.256,-4.898,8.05,18.62,3.43
,-8.641,0.785,-4.838,-8.76,0.065,-4.984,8.96,17.01,3.08
,-8.516,0.979,-4.977,-8.677,-0.05,-4.937,7.07,16.59,2.31
,-8.574,0.593,-5.001,-8.55,-0.206,-4.838,3.29,17.22,1.4
6511.0,-8.43,-0.416,-4.848,-8.885,0.373,-4.714,0.07,17.36,0.7
,-8.402,-0.66,-4.764,-8.583,0.739,-5.006,-0.07,17.85,1.61
,-8.488,-0.613,-4.731,-8.559,0.397,-4.805,2.1,18.34,1.89
,-8.708,-0.23,-4.719,-8.825,-0.201,-4.953,5.18,18.83,1.54
6587.0,-8.744,-0.321,-5.214,-8.469,0.771,-5.552,-5.18,13.16,4.06
,-8.574,-0.141,-5.252,-8.547,0.744,-5.585,-2.52,13.23,3.71
,-8.48,0.007,-5.243,-8.418,0.632,-5.688,-0.63,13.58,3.22
,-8.507,0.38,-5.267,-8.485,0.632,-5.587,0.91,13.72,3.01
6662.0,-8.476,0.68,-5.513,-8.375,-0.211,-5.465,-1.82,10.85,-0.35
,-8.569,0.751,-5.262,-8.519,-0.586,-5.499,-1.33,9.87,-1.61
,-8.466,0.684,-5.415,-8.447,-0.493,-5.315,-2.38,9.66,-1.96
,-8.385,0.182,-5.336,-8.349,-0.55,-5.437,-3.22,10.43,-1.61
6738.0,-8.102,-0.84,-5.24,-8.253,-0.589,-5.384,5.53,11.41,0.35
,-8.325,-0.842,-5.116,-8.447,-0.424,-5.178,6.02,12.11,1.96
,-8.588,-0.72,-5.178,-8.437,0.182,-5.607,5.67,11.48,3.85
,-8.416,-0.608,-5.355,-8.215,0.179,-5.365,4.97,10.71,5.04
6814.0,-8.399,0.237,-5.307,-8.256,-0.189,-5.518,5.6,11.34,5.04
,-8.488,0.153,-5.382,-8.253,-0.124,-5.458,6.02,11.06,4.55
,-8.433,-0.072,-5.224,-8.342,0.646,-5.784,6.79,10.5,3.99
,-8.37,-0.115,-5.348,-8.131,0.443,-5.793,8.68,9.38,3.99
6890.0,-7.968,0.412,-5.846,-8.543,-0.909,-5.525,11.83,9.24,2.1
,-8.258,0.333,-5.918,-8.279,-0.761,-5.791,12.04,8.96,1.33
,-8.533,-0.093,-5.709,-8.014,-0.421,-5.784,10.85,8.47,1.19
,-8.622,-0.658,-5.394,-8.229,-0.122,-5.779,9.17,7.63,2.59
6965.0,-8.351,0.069,-5.841,-8.299,0.136,-5.547,8.33,5.74,7.77
,-8.361,0.108,-5.652,-8.337,0.562,-5.52,5.95,5.04,8.68
,-8.399,0.072,-5.657,-8.246,1.228,-5.681,4.76,4.48,9.1
,-8.136,0.014,-5.564,-8.248,1.527,-5.7,4.97,4.69,9.73
7041.0,-8.397,1.278,-5.626,-8.275,0.416,-5.87,3.57,4.62,6.16
,-8.39,0.962,-5.674,-8.294,0.565,-5.879,1.61,4.41,5.04
,-8.196,0.596,-5.592,-8.246,0.526,-5.963,2.03,4.55,4.48
,-8.107,0.479,-5.822,-8.473,0.273,-5.939,3.08,4.62,4.06
7116.0,-8.545,-0.005,-5.729,-8.375,0.424,-6.123,4.34,4.55,0.7
,-8.272,-0.127,-5.86,-8.263,0.431,-6.152,4.48,4.06,0.84
,-8.208,-0.189,-5.865,-8.248,0.17,-6.119,4.9,3.92,1.33
,-8.306,0.055,-5.966,-8.241,0.031,-5.887,5.39,3.92,1.33
7192.0,-8.289,-0.014,-5.872,-8.325,0.637,-6.123,0.42,2.45,0.91
,-8.081,0.01,-5.889,-8.193,0.651,-5.975,1.4,2.03,0.98
,-8.177,0.273,-5.982,-8.277,0.577,-5.805,2.45,1.54,0.98
,-8.375,0.459,-6.167,-8.311,0.378,-5.824,3.15,1.19,0.77
7268.0,-8.208,0.163,-5.781,-8.191,0.495,-5.939,-0.49,-0.42,-0.77
,-8.299,0.136,-5.755,-8.26,0.541,-5.956,0.14,-0.21,-0.63
,-8.476,0.206,-5.829,-8.291,0.383,-5.853,0.63,-0.49,-0.63
,-8.351,0.321,-5.87,-8.232,0.179,-5.793,0.7,-0.7,-0.63
7344.0,-8.284,0.041,-5.788,-8.275,0.0,-5.595,-0.63,-0.91,-0.63
,-8.38,0.196,-5.65,-8.299,-0.328,-5.231,-0.28,-0.98,-0.14
,-8.356,0.4,-5.786,-8.272,0.273,-5.75,-0.28,-1.26,-0.21
,-8.27,0.311,-5.858,-8.246,0.144,-5.681,-1.12,-1.33,-0.7
7420.0,-8.406,0.342,-5.793,-8.253,-0.641,-5.372,0.14,-6.09,-1.68
,-8.282,0.261,-5.92,-8.373,-0.34,-5.59,-2.1,-6.58,-1.61
,-8.126,0.057,-5.853,-8.246,-0.053,-5.875,-4.62,-5.95,-1.19
,-8.169,-0.352,-5.599,-8.301,-0.165,-5.836,-3.5,-5.04,-0.42
7495.0,-8.351,-0.313,-5.721,-8.354,0.065,-5.75,-1.96,-8.96,3.22
,-8.354,-0.313,-5.786,-8.39,0.036,-5.75,-1.19,-9.17,3.85
,-8.275,-0.254,-5.638,-8.303,0.251,-5.92,0.42,-9.03,4.06
,-8.344,-0.041,-5.714,-8.27,0.024,-5.846,1.61,-9.31,3.78
7571.0,-8.382,-0.029,-5.621,-8.504,0.802,-5.76,3.57,-7.63,3.36
,-8.358,0.266,-5.709,-8.402,0.893,-5.674,5.18,-8.75,3.15
,-8.366,0.493,-5.671,-8.294,0.78,-5.86,6.37,-9.66,2.87
,-8.48,0.699,-5.721,-8.284,0.524,-5.312,7.14,-10.22,2.45
7647.0,-8.404,0.548,-5.238,-8.452,0.548,-5.465,12.11,-9.03,-0.35
,-8.624,0.794,-5.262,-8.394,0.043,-5.355,14.42,-10.22,-0.77
,-8.684,0.84,-5.288,-8.402,-0.297,-5.286,14.63,-11.55,-2.03
,-8.636,0.73,-5.339,-8.488,-0.433,-5.24,12.74,-12.88,-3.08
7723.0,-8.603,-0.302,-5.296,-8.476,0.0,-5.056,7.35,-16.38,-1.4
,-8.677,-0.132,-5.343,-8.619,-0.053,-4.963,7.7,-17.57,-1.05
,-8.562,0.01,-5.293,-8.689,-0.022,-5.047,7.0,-18.06,-0.98
,-8.428,0.002,-5.214,-8.641,-0.01,-5.059,6.51,-18.13,-0.63
7798.0,-8.6,-0.139,-4.977,-8.765,0.117,-4.738,4.76,-21.49,1.26
,-8.514,-0.797,-4.69,-8.799,0.56,-4.707,4.34,-21.0,1.47
,-8.748,-0.632,-4.721,-8.739,0.692,-4.661,6.44,-21.0,2.66
,-8.775,-0.455,-4.511,-8.693,0.56,-4.625,10.5,-21.49,3.71
7874.0,-8.66,0.321,-4.446,-8.835,0.546,-3.877,1.68,-23.17,2.1
,-8.667,0.158,-4.312,-8.818,0.66,-3.819,2.94,-22.82,1.54
,-8.782,0.369,-4.121,-8.787,0.608,-3.743,5.46,-22.12,1.4
,-8.729,0.462,-3.898,-8.847,0.299,-3.58,6.44,-22.12,1.12
7949.0,-8.67,0.036,-3.001,-9.076,0.486,-3.616,1.33,-20.79,-0.7
,-8.99,0.163,-3.264,-8.993,0.428,-3.551,3.71,-19.95,-0.7
,-9.024,0.383,-3.429,-8.952,0.242,-3.326,4.41,-19.67,-1.33
,-8.973,0.4,-3.324,-8.964,0.01,-3.151,2.87,-19.18,-1.82
8025.0,-9.155,-0.038,-3.008,-9.038,-0.208,-3.513,0.35,-14.7,-3.85
,-9.174,0.014,-2.898,-9.091,-0.275,-3.431,0.07,-14.21,-3.64
,-9.103,0.158,-3.154,-9.127,-0.103,-3.585,-0.77,-13.65,-3.08
,-9.074,-0.086,-3.36,-9.064,0.017,-3.534,-1.82,-13.09,-2.66
8101.0,-9.072,-0.22,-3.348,-9.069,-0.139,-3.616,2.1,-10.43,-2.24
,-9.194,-0.232,-3.704,-9.229,0.139,-3.388,1.89,-10.57,-1.82
,-9.162,-0.28,-3.874,-9.316,0.584,-3.75,1.96,-10.78,-1.68
,-9.155,-0.208,-3.747,-9.256,0.603,-3.97,3.08,-10.22,-1.33
8177.0,-9.088,0.179,-4.075,-9.282,0.361,-3.671,-1.19,-10.78,-2.03
,-9.005,-0.275,-3.946,-9.241,0.476,-4.03,-0.7,-10.57,-1.89
,-9.131,-0.395,-3.685,-9.074,0.235,-3.771,3.57,-10.29,-1.96
,-9.258,-0.136,-3.606,-9.17,-0.031,-3.501,7.77,-10.71,-2.31
8253.0,-9.311,-0.026,-3.34,-9.28,-0.048,-2.962,3.71,-11.97,-3.01
,-9.363,0.091,-3.113,-9.22,-0.141,-2.594,3.71,-11.83,-3.36
,-9.363,0.223,-3.254,-9.414,-0.182,-2.666,2.87,-11.83,-3.29
,-9.253,0.098,-3.077,-9.366,-0.199,-2.769,2.38,-11.27,-2.94
8328.0,-9.28,-0.287,-3.149,-9.399,0.591,-2.934,3.15,-8.33,-2.03
,-9.122,-0.445,-3.032,-9.452,0.608,-3.374,4.69,-7.56,-1.33
,-9.361,-0.294,-3.178,-9.273,0.211,-3.503,7.91,-7.42,-1.47
,-9.323,0.208,-2.881,-9.253,-0.402,-3.393,9.52,-7.14,-2.03
8404.0,-9.249,-0.665,-3.257,-9.332,-0.029,-3.094,-1.26,-7.28,-3.71
,-9.411,-0.397,-2.994,-9.301,-0.313,-2.766,4.55,-7.0,-3.64
,-9.421,0.093,-2.795,-9.385,-0.495,-2.998,6.51,-6.93,-3.85
,-9.421,0.249,-2.97,-9.392,-0.383,-2.757,4.55,-7.14,-4.06
8480.0,-9.416,-0.112,-2.618,-9.459,-0.211,-2.946,2.94,-4.9,-3.78
,-9.471,0.017,-2.723,-9.44,0.053,-3.166,2.17,-4.62,-3.92
,-9.414,-0.084,-2.704,-9.541,0.246,-3.53,0.56,-4.27,-3.92
,-9.397,-0.189,-2.67,-9.284,0.179,-3.302,0.42,-3.78,-3.71
8556.0,-9.318,0.034,-3.209,-9.459,-0.318,-3.084,-0.77,-4.27,-4.97
,-9.397,-0.069,-3.111,-9.411,-0.567,-3.072,-0.35,-4.41,-5.25
,-9.529,-0.156,-3.099,-9.385,-0.706,-2.958,0.84,-4.76,-5.32
,-9.505,-0.11,-3.113,-9.409,-0.668,-2.852,0.21,-5.11,-5.46
8631.0,-9.371,-0.617,-2.747,-9.435,-0.603,-2.005,5.74,-4.48,-3.71
,-9.399,-0.603,-2.458,-9.576,-0.608,-1.852,6.65,-3.57,-3.08
,-9.474,-0.565,-2.376,-9.572,-0.194,-2.178,6.44,-2.87,-2.87
,-9.44,-0.579,-2.192,-9.514,-0.165,-2.268,5.88,-1.82,-2.52
8707.0,-9.476,-0.201,-2.517,-9.483,-0.373,-3.156,2.87,2.17,-2.1
,-9.476,-0.285,-2.874,-9.552,-0.258,-3.381,1.75,2.52,-2.1
,-9.411,-0.479,-3.025,-9.442,-0.132,-3.484,1.47,2.87,-2.03
,-9.344,-0.531,-2.97,-9.287,-0.345,-3.285,2.73,3.29,-1.54
8782.0,-9.344,-0.424,-3.238,-9.462,-0.505,-2.276,4.48,1.82,-1.33
,-9.471,-0.629,-3.032,-9.495,-0.483,-2.252,5.6,1.61,-1.33
,-9.543,-0.421,-2.857,-9.502,-0.409,-2.328,6.09,1.47,-1.4
,-9.445,-0.479,-2.606,-9.483,-0.313,-2.247,5.32,1.75,-1.12
8858.0,-9.438,-0.29,-2.422,-9.466,-0.541,-2.986,0.7,4.9,-0.77
,-9.418,-0.404,-2.599,-9.485,-0.414,-3.211,-0.7,5.46,-0.91
,-9.395,-0.558,-2.723,-9.512,-0.282,-3.429,-1.47,5.81,-0.84
,-9.414,-0.634,-2.742,-9.418,-0.203,-3.697,-0.91,6.23,-0.56
8934.0,-9.34,-0.416,-3.877,-9.38,-0.491,-3.434,-1.82,3.85,-0.91
,-9.296,-0.613,-3.967,-9.43,-0.412,-3.12,-0.84,2.87,-0.63
,-9.32,-0.684,-3.927,-9.5,-0.364,-2.934,1.33,2.03,-0.28
,-9.344,-0.668,-3.697,-9.524,-0.416,-2.785,3.99,1.33,0.07
9010.0,-9.481,-0.522,-2.857,-9.442,-0.503,-2.656,3.22,-0.07,0.42
,-9.411,-0.639,-2.876,-9.507,-0.313,-2.704,3.01,0.0,0.63
,-9.313,-0.782,-2.601,-9.469,-0.27,-2.869,3.29,0.49,0.98
,-9.421,-0.715,-2.615,-9.445,-0.225,-2.97,4.83,1.12,1.33
9085.0,-9.445,-0.285,-3.077,-9.445,-0.311,-3.257,1.47,1.89,0.84
,-9.464,-0.342,-3.195,-9.438,-0.251,-3.199,1.96,1.89,0.91
,-9.407,-0.395,-3.221,-9.416,-0.471,-3.171,2.87,1.61,1.05
,-9.426,-0.366,-3.211,-9.407,-0.519,-3.08,4.06,1.54,1.12
9161.0,-9.459,-0.469,-3.118,-9.445,-0.366,-2.685,4.34,0.21,0.84
,-9.435,-0.474,-3.087,-9.524,-0.239,-2.603,4.55,0.28,0.91
,-9.404,-0.364,-2.821,-9.536,-0.211,-2.656,4.69,0.42,0.98
,-9.414,-0.421,-2.752,-9.469,-0.313,-2.649,4.9,0.7,0.98
9236.0,-9.416,-0.474,-2.733,-9.385,-0.526,-3.166,0.7,2.45,0.42
,-9.483,-0.447,-2.874,-9.45,-0.419,-3.204,0.7,2.8,0.14
,-9.447,-0.419,-3.096,-9.438,-0.335,-3.257,0.56,2.66,0.14
,-9.347,-0.524,-3.159,-9.43,-0.311,-3.221,0.14,2.73,0.28
9312.0,-9.43,-0.342,-3.163,-9.45,-0.402,-3.044,1.82,1.96,0.49
,-9.433,-0.378,-3.226,-9.426,-0.419,-2.991,1.96,1.61,0.49
,-9.45,-0.436,-3.108,-9.387,-0.457,-2.898,2.1,1.33,0.49
,-9.462,-0.445,-3.082,-9.464,-0.426,-2.843,2.87,1.19,0.42
9388.0,-9.478,-0.366,-2.883,-9.505,-0.361,-3.075,2.38,1.47,0.42
,-9.442,-0.447,-2.848,-9.385,-0.337,-3.044,1.75,1.68,0.42
,-9.438,-0.505,-2.814,-9.409,-0.395,-3.123,1.47,1.96,0.49
,-9.459,-0.414,-2.905,-9.395,-0.486,-3.137,1.96,2.17,0.56
9464.0,-9.447,-0.428,-3.149,-9.402,-0.474,-3.01,2.38,1.96,0.56
,-9.411,-0.395,-3.101,-9.474,-0.433,-3.025,2.31,1.82,0.42
,-9.445,-0.416,-3.072,-9.507,-0.426,-3.08,2.1,1.82,0.42
,-9.43,-0.474,-3.001,-9.445,-0.335,-3.089,1.89,1.75,0.42
9540.0,-9.407,-0.376,-3.075,-9.454,-0.404,-3.027,2.17,1.68,0.56
,-9.435,-0.483,-3.029,-9.466,-0.352,-3.037,1.89,1.96,0.77
,-9.459,-0.491,-3.025,-9.471,-0.407,-3.051,2.17,2.03,0.77
,-9.481,-0.5,-2.948,-9.385,-0.416,-3.104,2.52,1.96,0.77
9615.0,-9.402,-0.464,-3.053,-9.433,-0.452,-3.056,2.17,1.75,0.7
,-9.428,-0.526,-3.065,-9.421,-0.436,-3.027,2.66,1.68,0.84
,-9.447,-0.45,-3.027,-9.421,-0.371,-3.039,3.15,1.47,0.91
,-9.438,-0.457,-3.092,-9.485,-0.397,-3.094,3.15,1.54,0.98
9691.0,-9.433,-0.39,-3.017,-9.402,-0.431,-3.044,2.31,1.33,0.7
,-9.426,-0.385,-3.065,-9.421,-0.445,-3.044,2.45,1.19,0.63
,-9.43,-0.424,-3.005,-9.416,-0.421,-3.027,2.73,1.47,0.7
,-9.457,-0.38,-3.063,-9.435,-0.44,-3.075,2.87,1.4,0.7
9767.0,-9.416,-0.541,-2.989,-9.445,-0.421,-2.883,2.03,1.33,0.63
,-9.433,-0.546,-2.989,-9.485,-0.373,-2.86,2.73,1.4,0.77
,-9.445,-0.469,-3.005,-9.464,-0.345,-2.876,3.64,1.47,0.91
,-9.43,-0.39,-2.955,-9.454,-0.352,-3.01,3.43,1.54,0.84
9843.0,-9.423,-0.407,-3.113,-9.438,-0.321,-3.254,1.96,1.82,0.7
,-9.414,-0.419,-3.161,-9.385,-0.354,-3.171,1.96,1.82,0.7
,-9.452,-0.514,-3.142,-9.428,-0.404,-3.171,2.52,1.89,0.77
,-9.447,-0.452,-3.221,-9.399,-0.495,-3.149,3.36,1.68,0.84
9918.0,-9.438,-0.512,-3.068,-9.447,-0.33,-3.096,2.66,0.77,0.7
,-9.471,-0.455,-3.063,-9.416,-0.426,-3.049,3.43,0.77,0.63
,-9.459,-0.347,-3.123,-9.402,-0.476,-3.02,3.64,0.42,0.56
,-9.454,-0.304,-3.101,-9.447,-0.469,-2.991,3.29,0.42,0.56
9994.0,-9.418,-0.474,-2.967,-9.474,-0.459,-2.831,2.8,0.42,0.42
,-9.488,-0.419,-2.924,-9.536,-0.38,-2.819,2.8,0.49,0.42
,-9.414,-0.495,-2.905,-9.469,-0.282,-2.862,2.66,0.77,0.63
,-9.39,-0.469,-2.807,-9.361,-0.328,-2.953,2.94,1.19,0.77
10069.0,-9.397,-0.397,-2.953,-9.442,-0.514,-3.01,1.61,1.96,0.49
,-9.421,-0.45,-2.848,-9.442,-0.476,-3.022,1.47,1.89,0.42
,-9.421,-0.586,-2.97,-9.43,-0.4,-2.998,1.4,2.1,0.49
,-9.426,-0.622,-2.929,-9.435,-0.402,-3.089,1.96,2.31,0.77
10145.0,-9.416,-0.431,-3.063,-9.409,-0.237,-3.211,1.4,2.45,0.98
,-9.447,-0.443,-3.159,-9.383,-0.333,-3.216,1.47,2.38,1.05
,-9.442,-0.361,-3.135,-9.399,-0.419,-3.264,1.89,2.17,0.98
,-9.452,-0.29,-3.19,-9.375,-0.5,-3.235,2.03,2.03,0.91
10221.0,-9.378,-0.531,-3.123,-9.505,-0.349,-2.967,0.63,1.19,0.77
,-9.361,-0.524,-2.972,-9.459,-0.28,-3.046,0.91,1.12,0.84
,-9.363,-0.462,-2.938,-9.39,-0.455,-3.077,1.05,0.84,0.84
,-9.476,-0.462,-2.905,-9.351,-0.598,-3.049,0.91,0.77,0.91
10297.0,-9.426,-0.57,-3.063,-9.366,-0.622,-2.515,-0.84,0.84,1.19
,-9.438,-0.503,-2.97,-9.454,-0.596,-2.596,-0.56,0.77,1.26
,-9.447,-0.464,-2.85,-9.428,-0.426,-2.501,-0.7,1.05,1.61
,-9.385,-0.565,-2.737,-9.481,-0.211,-2.694,-0.98,1.47,1.82
10373.0,-9.423,-0.158,-2.86,-9.332,-0.742,-2.678,-4.2,3.08,1.96
,-9.361,-0.318,-2.814,-9.38,-0.737,-2.761,-6.16,3.43,2.24
,-9.383,-0.5,-2.955,-9.356,-0.708,-2.273,-6.65,3.78,2.52
,-9.354,-0.699,-2.907,-9.536,-0.541,-2.448,-6.16,3.99,2.94
10448.0,-9.541,-0.397,-2.726,-9.509,-0.419,-2.642,-1.19,6.16,4.34
,-9.351,-0.407,-2.747,-9.445,0.007,-2.637,-3.15,6.58,4.62
,-9.208,-0.574,-2.659,-9.44,0.036,-2.517,-3.29,7.49,5.11
,-9.263,-0.646,-2.391,-9.337,-0.184,-2.23,-0.91,8.68,5.53
10524.0,-9.332,-0.333,-2.659,-9.33,0.634,-3.525,-3.22,11.27,5.32
,-9.328,-0.462,-2.455,-9.203,0.677,-3.604,-0.98,12.11,5.46
,-9.56,-0.306,-2.599,-9.17,0.268,-3.309,3.85,12.74,5.74
,-9.545,0.232,-3.333,-9.158,-0.144,-2.998,4.13,11.48,4.34
10600.0,-9.385,-0.067,-3.192,-9.119,-0.893,-2.778,-4.48,12.32,1.82
,-9.466,-0.069,-3.496,-9.38,-0.838,-2.814,-6.93,10.85,0.77
,-9.378,-0.294,-3.422,-9.28,-0.407,-2.613,-10.15,10.57,1.05
,-9.28,-0.622,-3.546,-9.387,0.096,-2.941,-12.39,10.15,1.96
10676.0,-9.442,0.299,-3.451,-9.567,0.239,-4.109,0.7,12.11,2.66
,-9.139,0.048,-3.41,-9.323,0.519,-4.149,-2.24,13.37,2.59
,-9.146,-0.254,-3.563,-8.973,0.629,-3.932,-1.26,14.56,2.87
,-9.294,-0.175,-3.719,-8.897,0.223,-3.422,2.17,14.49,2.73
10751.0,-9.182,0.005,-2.955,-8.949,-0.857,-4.235,-4.62,13.23,-0.42
,-9.517,0.156,-3.199,-8.76,-1.082,-3.996,-3.78,12.39,-1.05
,-9.445,0.218,-3.747,-9.012,-0.699,-3.891,-7.49,11.06,-1.33
,-9.251,-0.311,-4.063,-9.045,-0.005,-3.807,-11.9,11.06,-0.63
10827.0,-9.225,0.199,-3.484,-8.971,-0.534,-3.25,10.64,14.7,1.26
,-9.311,0.127,-3.637,-9.191,-0.179,-3.209,6.51,13.65,1.4
,-8.993,-0.299,-3.704,-9.335,0.089,-3.173,3.15,13.79,2.31
,-8.899,-0.699,-3.613,-9.179,0.175,-3.262,3.08,14.7,3.08
10902.0,-9.005,0.029,-3.482,-9.203,0.603,-4.271,4.69,17.5,2.73
,-8.933,-0.043,-3.367,-9.057,0.402,-4.168,4.55,18.48,3.36
,-9.127,0.079,-3.585,-8.926,-0.084,-3.975,6.51,18.41,3.08
,-9.174,0.517,-4.073,-8.794,-0.558,-3.908,8.26,17.08,1.96
10978.0,-8.899,-0.981,-3.932,-8.83,-1.036,-3.676,-0.35,16.38,1.26
,-8.959,-1.251,-3.984,-9.005,-0.158,-3.972,2.03,16.03,2.59
,-8.804,-1.431,-3.965,-9.009,0.672,-4.357,4.55,16.87,3.78
,-8.765,-1.388,-3.898,-8.933,1.297,-4.661,8.26,19.25,5.11
11054.0,-8.839,1.582,-4.647,-8.961,0.474,-4.314,4.41,18.76,3.43
,-8.861,1.536,-4.597,-8.844,0.225,-4.082,-2.94,18.9,1.68
,-8.911,0.995,-4.563,-8.784,0.084,-3.798,-7.49,18.76,-0.14
,-8.911,0.699,-4.465,-8.801,-0.055,-3.898,-8.68,18.83,-1.26
11130.0,-8.832,-0.208,-4.001,-8.528,-0.129,-4.537,-1.05,19.81,-3.01
,-8.89,-0.208,-4.221,-8.433,-0.282,-4.597,-0.56,19.39,-2.45
,-8.756,-0.211,-4.424,-8.595,-0.467,-4.46,-0.56,19.25,-2.1
,-8.629,-0.172,-4.551,-8.76,-0.273,-4.7,-0.77,19.32,-2.24
11205.0,-8.78,-0.555,-4.212,-8.626,-0.345,-5.097,-5.6,19.95,0.84
,-8.677,-0.517,-4.477,-8.746,0.184,-4.965,-3.57,20.02,1.33
,-8.469,-0.739,-4.74,-8.588,0.493,-5.147,-2.31,20.51,1.89
,-8.524,-0.656,-4.893,-8.459,0.572,-5.135,0.63,21.21,2.73
11281.0,-8.672,0.467,-5.011,-8.808,-0.672,-5.039,1.05,19.53,0.14
,-8.641,0.225,-5.173,-8.746,-0.077,-5.339,-1.05,19.67,0.28
,-8.547,-0.33,-5.176,-8.614,0.436,-5.674,-1.47,20.09,0.49
,-8.562,-0.634,-5.236,-8.452,0.773,-5.853,0.84,20.72,0.42
11357.0,-8.378,0.651,-5.796,-8.461,-1.189,-5.439,4.9,13.02,-1.82
,-8.38,0.246,-5.506,-8.358,-1.275,-5.635,1.19,13.58,-2.17
,-8.325,-0.467,-5.434,-8.411,-1.122,-5.623,0.0,14.07,-1.89
,-8.452,-0.948,-5.229,-8.44,-0.909,-5.901,0.7,14.28,-0.63
11433.0,-8.234,-0.766,-6.207,-8.485,-0.983,-5.559,10.29,10.22,4.06
,-8.071,-0.759,-6.219,-8.346,-0.665,-5.508,10.43,9.24,4.06
,-7.956,-0.991,-6.188,-8.559,-0.459,-5.439,11.27,7.77,3.85
,-7.779,-1.249,-5.748,-8.631,-0.342,-5.42,12.32,8.19,4.06
11509.0,-8.904,-0.168,-5.341,-8.435,0.373,-5.939,12.39,6.72,4.13
,-8.751,0.031,-5.755,-8.327,0.467,-6.114,11.27,5.95,3.85
,-8.658,0.44,-5.915,-8.26,0.304,-6.169,10.57,5.11,4.41
,-8.394,0.017,-5.956,-8.358,0.282,-6.126,7.14,4.2,5.11
11584.0,-8.349,-0.249,-5.745,-8.265,-0.651,-5.425,4.69,0.07,4.9
,-8.437,-0.424,-5.659,-8.368,0.179,-5.855,6.37,-0.35,4.55
,-8.61,-0.354,-5.556,-8.354,-0.079,-5.353,7.49,-1.12,4.83
,-8.631,-0.658,-5.331,-8.519,0.747,-5.872,5.95,-2.1,5.74
11660.0,-8.497,0.637,-5.762,-8.421,-0.701,-5.473,1.19,-2.87,5.46
,-9.892,2.357,-7.844,-8.303,-0.558,-5.351,-5.11,1.61,10.29
,-8.313,-0.818,-5.628,-8.402,-0.11,-5.372,-5.18,-0.7,7.98
,-8.382,-0.878,-5.453,-8.488,0.273,-5.286,-0.91,-2.8,6.93
11735.0,-8.557,0.589,-5.255,-8.437,0.172,-5.188,8.19,-2.59,4.9
,-8.564,0.632,-5.262,-8.387,0.053,-5.41,6.3,-2.59,4.2
,-8.512,0.512,-5.279,-8.387,0.034,-5.456,4.62,-2.52,3.71
,-8.433,0.28,-5.226,-8.373,0.182,-5.497,3.36,-1.89,3.57
11811.0,-8.435,0.268,-5.525,-8.473,0.182,-5.365,4.06,-0.35,1.96
,-8.531,0.136,-5.559,-8.459,0.129,-5.41,3.5,-0.56,1.75
,-8.5,0.175,-5.41,-8.425,0.141,-5.463,2.94,-0.63,1.61
,-8.469,0.165,-5.437,-8.356,0.261,-5.322,2.03,-0.49,1.54
11887.0,-8.49,0.337,-5.346,-8.402,-0.096,-5.264,-0.28,0.28,-0.21
,-8.679,0.244,-5.293,-8.428,0.098,-5.497,-1.68,-0.21,-0.63
,-8.581,0.086,-5.238,-8.579,0.048,-5.58,-1.75,-0.42,-0.42
,-8.378,-0.122,-5.212,-8.595,-0.246,-5.427,-1.89,-0.14,-0.07
11963.0,-8.591,-0.634,-5.252,-8.349,0.388,-5.537,-1.47,-1.12,0.35
,-8.61,-0.821,-5.2,-8.516,0.191,-5.331,-1.12,-0.98,1.19
,-8.547,-0.543,-5.126,-8.571,-0.364,-5.037,0.98,-1.26,2.03
,-8.564,-0.323,-5.162,-8.567,0.359,-5.118,1.96,-1.47,2.45
12038.0,-8.516,-0.069,-5.049,-8.653,-0.153,-5.19,-0.7,-2.17,4.48
,-8.459,-0.031,-5.09,-8.744,-0.163,-5.075,0.14,-1.4,5.11
,-8.344,-0.213,-5.154,-8.5,-0.203,-4.96,0.84,-1.05,5.88
,-8.375,-0.311,-5.099,-8.409,-0.065,-5.25,1.19,-0.98,6.02
12114.0,-8.332,-0.048,-5.269,-8.636,0.108,-5.592,-3.01,-2.17,6.37
,-8.461,0.041,-5.437,-8.502,-0.029,-5.59,-4.97,-2.73,6.86
,-8.497,0.002,-5.554,-8.433,-0.055,-5.398,-6.02,-3.15,6.93
,-8.612,0.079,-5.578,-8.581,0.179,-5.518,-6.37,-3.92,6.58
12190.0,-8.473,0.16,-5.547,-8.538,0.534,-5.561,-6.02,-7.77,4.76
,-8.581,0.366,-5.702,-8.622,0.359,-5.537,-4.34,-8.19,3.85
,-8.71,0.498,-5.666,-8.737,0.187,-5.365,-1.89,-8.68,2.45
,-8.703,0.56,-5.58,-8.586,0.141,-5.465,-1.05,-8.68,1.33
12266.0,-8.5,0.148,-5.485,-8.516,0.235,-5.669,2.1,-11.69,-0.21
,-8.447,0.067,-5.607,-8.698,0.031,-5.501,4.06,-11.76,0.21
,-8.591,0.096,-5.322,-8.605,-0.041,-5.358,6.65,-11.69,0.49
,-8.658,0.268,-5.607,-8.641,0.089,-5.31,9.1,-12.18,0.28
12341.0,-8.77,0.081,-4.994,-8.588,0.223,-5.255,10.15,-15.89,0.63
,-8.827,0.438,-5.104,-8.526,-0.105,-5.116,8.26,-20.09,0.56
,-8.564,0.637,-5.269,-8.545,-0.299,-5.025,5.04,-21.63,0.42
,-8.526,0.581,-5.279,-8.54,-0.4,-4.97,1.75,-21.28,0.63
12417.0,-8.595,-0.194,-4.872,-8.66,0.345,-4.769,9.03,-15.54,1.89
,-8.524,0.041,-4.886,-8.502,0.304,-4.733,11.13,-15.12,1.82
,-8.892,0.266,-4.949,-8.571,0.23,-4.53,13.02,-16.31,1.33
,-8.873,0.108,-4.769,-8.741,0.187,-4.293,13.37,-17.64,2.17
12493.0,-8.849,0.395,-4.252,-8.928,1.039,-3.963,15.33,-19.81,4.41
,-8.99,0.701,-4.209,-8.918,1.11,-4.082,16.17,-20.86,3.92
,-8.811,0.852,-4.207,-8.837,0.957,-3.843,14.98,-21.63,3.57
,-8.928,0.864,-4.099,-8.938,0.859,-3.711,13.51,-21.77,3.36
12568.0,-9.421,0.591,-4.599,-8.863,0.189,-3.302,5.32,-26.04,-1.75
,-8.902,0.373,-3.575,-9.105,0.038,-3.252,4.97,-26.18,-1.96
,-9.301,0.5,-3.573,-9.22,-0.266,-2.991,6.44,-26.46,-2.45
,-8.882,0.503,-3.573,-9.203,-0.345,-3.029,3.43,-26.32,-3.08
12644.0,-9.112,-0.333,-2.991,-9.251,0.414,-2.726,-0.35,-23.66,-2.94
,-8.993,-0.402,-3.005,-9.38,0.648,-3.032,0.07,-23.03,-2.52
,-9.074,-0.407,-2.84,-9.21,0.51,-3.034,2.38,-22.05,-2.24
,-9.148,-0.06,-2.876,-9.174,0.268,-2.864,4.62,-21.42,-2.1
12720.0,-9.249,0.263,-2.915,-9.28,-0.27,-2.838,-3.43,-19.6,-4.06
,-9.194,-0.022,-2.668,-9.284,-0.29,-2.977,-3.71,-19.18,-4.27
,-9.316,-0.179,-2.541,-9.28,-0.361,-2.668,-2.66,-17.99,-4.13
,-9.316,-0.17,-2.615,-9.354,-0.23,-2.417,-1.54,-17.08,-3.99
12796.0,-9.428,0.141,-2.407,-9.1,0.278,-3.429,5.6,-12.18,-2.45
,-9.694,0.486,-2.946,-9.182,-0.436,-3.099,6.3,-12.39,-3.29
,-9.586,0.89,-3.587,-9.277,-0.811,-2.682,2.17,-13.44,-4.76
,-9.299,0.854,-3.898,-9.407,-0.648,-2.627,-4.97,-13.72,-5.46
12871.0,-9.488,-0.302,-2.319,-9.562,0.129,-3.041,9.8,-11.13,-3.57
,-9.552,0.029,-2.137,-9.414,0.055,-3.008,9.94,-10.57,-3.15
,-9.593,0.206,-2.347,-9.249,0.024,-2.79,6.65,-10.15,-3.08
,-9.596,0.333,-2.503,-9.261,-0.012,-2.388,3.85,-9.94,-3.29
12947.0,-9.409,-0.034,-2.19,-9.667,0.002,-1.531,5.32,-7.56,-4.2
,-9.454,0.079,-1.778,-9.734,-0.002,-2.254,6.02,-6.65,-4.41
,-9.531,0.012,-1.318,-9.416,-0.084,-2.391,6.09,-5.25,-4.27
,-9.77,-0.038,-1.536,-9.318,-0.244,-2.182,4.62,-4.41,-4.41
13023.0,-9.43,-0.443,-2.833,-9.512,-0.11,-2.907,-2.17,-0.28,-4.2
,-9.402,-0.294,-2.79,-9.435,-0.184,-2.601,0.14,-0.07,-4.13
,-9.512,-0.057,-3.13,-9.507,-0.302,-2.316,1.61,-0.21,-3.99
,-9.442,0.048,-2.85,-9.615,-0.201,-2.441,1.89,0.07,-3.85
13099.0,-9.593,-0.117,-2.508,-9.562,-0.309,-2.477,5.04,1.12,-3.64
,-9.49,-0.246,-2.474,-9.636,-0.098,-2.927,4.48,1.68,-3.29
,-9.476,-0.359,-2.582,-9.579,0.005,-3.199,4.13,2.1,-3.08
,-9.428,-0.443,-2.424,-9.505,-0.048,-3.429,4.76,2.8,-2.87
13174.0,-9.457,-0.199,-3.563,-9.591,-0.44,-2.876,-0.77,0.28,-3.78
,-9.366,-0.503,-3.537,-9.593,-0.29,-2.706,-0.35,-0.35,-3.71
,-9.308,-0.617,-3.269,-9.591,-0.23,-2.525,2.17,-0.35,-3.15
,-9.428,-0.584,-2.972,-9.651,-0.27,-2.568,5.32,-0.56,-2.73
13250.0,-9.634,-0.258,-2.819,-9.383,-0.811,-2.419,4.27,-1.12,-2.52
,-9.509,-0.218,-3.044,-9.493,-0.581,-2.125,3.43,-1.33,-2.52
,-9.363,-0.529,-2.886,-9.648,-0.333,-1.907,2.73,-1.12,-2.24
,-9.337,-0.809,-2.752,-9.722,-0.11,-1.938,4.2,-0.98,-1.68
13325.0,-9.619,-0.165,-1.761,-9.569,-0.251,-2.4,6.3,2.66,-1.05
,-9.517,-0.246,-1.668,-9.538,-0.244,-2.699,3.78,3.85,-1.05
,-9.574,-0.364,-1.761,-9.471,-0.215,-3.032,2.24,4.97,-1.19
,-9.619,-0.376,-2.046,-9.371,-0.376,-3.022,2.59,5.81,-1.26
13401.0,-9.351,-0.5,-2.974,-9.512,-0.369,-2.781,2.45,6.65,-0.63
,-9.397,-0.584,-2.848,-9.548,-0.225,-2.838,3.64,6.51,-0.42
,-9.5,-0.558,-2.962,-9.512,-0.208,-3.027,4.83,6.16,-0.28
,-9.485,-0.443,-2.816,-9.397,-0.294,-2.895,5.04,6.09,-0.14
13477.0,-9.366,-0.519,-2.953,-9.55,-0.172,-2.632,1.33,5.25,-0.28
,-9.438,-0.672,-2.845,-9.581,-0.005,-2.857,2.52,5.25,-0.14
,-9.469,-0.629,-2.74,-9.555,0.007,-3.02,4.62,5.32,0.14
,-9.545,-0.424,-2.659,-9.452,-0.23,-3.108,5.81,5.46,0.21
13553.0,-9.421,-0.412,-3.46,-9.507,-0.431,-3.326,-3.43,4.27,-1.33
,-9.356,-0.68,-3.508,-9.507,-0.246,-3.245,-2.8,3.71,-1.05
,-9.342,-0.73,-3.448,-9.474,-0.263,-3.12,-0.35,3.15,-0.7
,-9.426,-0.665,-3.355,-9.447,-0.39,-2.9,3.29,2.52,-0.35
13629.0,-9.447,-0.55,-2.776,-9.505,-0.313,-2.551,2.38,1.12,-0.07
,-9.447,-0.598,-2.632,-9.509,-0.285,-2.654,3.22,1.4,0.14
,-9.497,-0.589,-2.584,-9.5,-0.304,-2.766,4.41,1.61,0.14
,-9.493,-0.402,-2.52,-9.493,-0.347,-3.017,5.18,1.89,0.28
13704.0,-9.483,-0.45,-3.084,-9.464,-0.342,-2.977,0.42,2.52,-0.21
,-9.428,-0.634,-3.096,-9.481,-0.311,-2.845,0.63,2.45,0.0
,-9.459,-0.682,-3.156,-9.502,-0.292,-2.824,2.1,2.38,0.21
,-9.445,-0.524,-3.087,-9.502,-0.349,-2.826,3.92,2.1,0.35
13780.0,-9.478,-0.407,-2.776,-9.457,-0.359,-3.041,1.47,2.24,0.21
,-9.447,-0.55,-2.824,-9.445,-0.431,-3.106,1.19,2.31,0.28
,-9.45,-0.56,-2.917,-9.426,-0.486,-3.063,2.03,2.31,0.21
,-9.497,-0.447,-2.955,-9.428,-0.524,-3.082,3.08,2.45,0.35
13856.0,-9.402,-0.553,-2.982,-9.483,-0.34,-2.982,3.85,1.96,0.7
,-9.476,-0.514,-3.022,-9.445,-0.395,-3.003,4.48,1.82,0.77
,-9.45,-0.414,-2.998,-9.433,-0.486,-2.96,4.48,1.47,0.84
,-9.445,-0.354,-2.936,-9.421,-0.577,-2.888,4.13,1.54,0.77
13932.0,-9.435,-0.526,-2.733,-9.485,-0.218,-2.943,4.76,1.54,1.05
,-9.442,-0.505,-2.821,-9.445,-0.261,-3.027,5.25,1.61,1.12
,-9.521,-0.402,-2.761,-9.459,-0.309,-3.111,4.97,1.54,1.05
,-9.521,-0.299,-2.838,-9.471,-0.431,-3.218,4.27,1.82,0.98
14007.0,-9.464,-0.51,-3.228,-9.469,-0.304,-3.053,1.61,0.77,0.49
,-9.454,-0.562,-3.206,-9.507,-0.268,-2.955,2.94,0.35,0.63
,-9.447,-0.517,-3.128,-9.507,-0.309,-3.046,4.27,0.0,0.77
,-9.488,-0.4,-3.149,-9.428,-0.44,-3.01,5.25,0.07,1.05
14083.0,-9.438,-0.548,-2.989,-9.526,-0.409,-2.498,2.31,-0.98,0.56
,-9.392,-0.591,-2.893,-9.517,-0.268,-2.446,3.08,-0.91,0.63
,-9.421,-0.562,-2.709,-9.564,-0.33,-2.534,4.13,-0.63,0.91
,-9.493,-0.481,-2.584,-9.507,-0.436,-2.592,4.62,-0.42,0.98
14158.0,-9.476,-0.534,-2.666,-9.485,-0.467,-2.702,1.26,1.4,0.7
,-9.462,-0.481,-2.809,-9.509,-0.335,-2.764,2.1,1.47,0.77
,-9.43,-0.531,-2.821,-9.567,-0.201,-2.809,2.73,1.75,0.84
,-9.43,-0.503,-2.793,-9.5,-0.227,-2.91,3.43,1.89,1.19
14234.0,-9.469,-0.388,-2.998,-9.474,-0.428,-2.965,0.56,2.17,0.56
,-9.43,-0.524,-3.008,-9.541,-0.323,-3.046,0.56,2.24,0.7
,-9.45,-0.56,-3.015,-9.497,-0.352,-3.061,1.82,2.1,0.77
,-9.493,-0.517,-2.967,-9.438,-0.371,-3.118,3.08,2.03,0.77
14310.0,-9.39,-0.436,-3.175,-9.507,-0.524,-2.783,1.54,1.19,0.63
,-9.435,-0.519,-3.113,-9.49,-0.443,-2.764,2.03,1.05,0.77
,-9.466,-0.524,-3.013,-9.5,-0.457,-2.778,2.66,0.77,0.91
,-9.464,-0.493,-2.934,-9.418,-0.426,-2.737,3.29,0.77,0.98
14386.0,-9.469,-0.383,-2.721,-9.49,-0.352,-2.857,2.94,1.19,1.26
,-9.478,-0.424,-2.833,-9.502,-0.333,-2.955,2.87,1.4,1.05
,-9.483,-0.385,-2.816,-9.529,-0.366,-3.032,2.8,1.33,0.91
,-9.493,-0.371,-2.807,-9.466,-0.462,-3.013,2.8,1.54,0.91
14461.0,-9.502,-0.459,-3.094,-9.495,-0.431,-2.895,2.45,1.26,0.63
,-9.466,-0.503,-3.046,-9.481,-0.39,-2.855,2.66,1.05,0.7
,-9.452,-0.491,-2.996,-9.45,-0.369,-2.809,3.22,0.98,0.77
,-9.507,-0.536,-2.986,-9.519,-0.349,-2.745,3.64,0.84,0.77
14537.0,-9.447,-0.369,-2.728,-9.454,-0.443,-2.769,3.22,1.12,0.84
,-9.526,-0.38,-2.635,-9.481,-0.366,-2.85,2.8,1.61,1.05
,-9.521,-0.493,-2.704,-9.447,-0.445,-2.843,2.38,1.82,0.84
,-9.476,-0.505,-2.771,-9.45,-0.546,-2.709,2.31,1.89,0.77
14613.0,-9.541,-0.503,-2.879,-9.442,-0.428,-3.017,2.73,2.24,0.84
,-9.507,-0.479,-2.95,-9.435,-0.534,-3.013,3.57,2.38,0.98
,-9.495,-0.323,-3.027,-9.454,-0.483,-2.946,3.78,2.17,0.98
,-9.49,-0.311,-3.049,-9.478,-0.409,-2.936,3.08,1.96,0.84
14689.0,-9.529,-0.366,-2.869,-9.464,-0.414,-2.955,3.71,1.82,0.77
,-9.512,-0.316,-2.831,-9.462,-0.586,-2.891,3.08,1.75,0.63
,-9.5,-0.258,-2.895,-9.452,-0.56,-2.826,2.45,1.68,0.42
,-9.49,-0.318,-2.862,-9.514,-0.467,-2.883,1.68,1.75,0.28
14765.0,-9.459,-0.397,-2.814,-9.493,-0.443,-2.898,3.15,1.68,0.49
,-9.488,-0.29,-2.862,-9.493,-0.45,-2.891,2.38,1.68,0.35
,-9.476,-0.361,-2.881,-9.464,-0.376,-3.005,1.12,1.68,0.21
,-9.447,-0.412,-2.776,-9.466,-0.457,-3.053,0.77,2.17,0.35
14840.0,-9.409,-0.471,-3.027,-9.481,-0.409,-2.922,1.89,1.89,0.42
,-9.414,-0.495,-3.061,-9.462,-0.392,-2.881,2.03,1.82,0.49
,-9.466,-0.498,-3.034,-9.478,-0.392,-2.845,2.59,1.54,0.35
,-9.488,-0.45,-2.977,-9.457,-0.438,-2.824,3.01,1.61,0.42
14916.0,-9.466,-0.397,-2.876,-9.483,-0.447,-2.919,2.1,1.47,0.35
,-9.474,-0.512,-2.867,-9.474,-0.402,-2.891,1.96,1.33,0.35
,-9.44,-0.558,-2.941,-9.474,-0.395,-2.888,2.24,1.4,0.35
,-9.43,-0.55,-2.893,-9.509,-0.383,-2.943,2.59,1.47,0.49
14991.0,-9.49,-0.38,-2.972,-9.459,-0.648,-2.915,1.12,1.19,0.21
,-9.418,-0.431,-3.039,-9.445,-0.562,-2.958,0.98,0.98,0.14
,-9.44,-0.51,-3.02,-9.457,-0.5,-2.912,1.26,1.05,0.28
,-9.421,-0.57,-2.984,-9.509,-0.433,-2.946,1.75,0.84,0.35
15067.0,-9.464,-0.366,-2.972,-9.49,-0.51,-3.005,2.8,0.56,0.7
,-9.502,-0.364,-3.005,-9.505,-0.467,-2.965,2.31,0.56,0.77
,-9.445,-0.416,-3.053,-9.507,-0.455,-2.977,1.89,0.35,0.7
,-9.442,-0.512,-3.063,-9.466,-0.333,-2.946,2.17,0.35,0.77
15143.0,-9.452,-0.38,-2.931,-9.459,-0.421,-2.599,3.01,-0.49,0.77
,-9.447,-0.443,-2.855,-9.452,-0.541,-2.649,2.59,-0.49,0.63
,-9.407,-0.416,-2.836,-9.493,-0.56,-2.462,2.31,-0.49,0.63
,-9.5,-0.452,-2.766,-9.462,-0.493,-2.505,2.1,-0.35,0.49
15219.0,-9.526,-0.416,-2.761,-9.478,-0.407,-2.781,3.36,0.91,0.84
,-9.541,-0.364,-2.663,-9.495,-0.412,-2.749,2.73,1.26,0.91
,-9.433,-0.325,-2.606,-9.488,-0.426,-2.563,1.75,1.33,0.7
,-9.495,-0.395,-2.824,-9.55,-0.51,-2.723,1.26,1.4,0.7
15294.0,-9.45,-0.388,-2.661,-9.519,-0.455,-2.706,0.56,2.38,0.63
,-9.466,-0.483,-2.735,-9.519,-0.34,-2.778,0.21,2.45,0.77
,-9.457,-0.459,-2.692,-9.519,-0.337,-2.845,0.28,2.87,0.84
,-9.469,-0.421,-2.675,-9.469,-0.4,-2.816,0.63,3.22,0.91
15370.0,-9.426,-0.436,-2.85,-9.476,-0.38,-2.95,-1.68,3.71,0.84
,-9.459,-0.409,-2.938,-9.471,-0.404,-3.094,-1.4,3.71,0.84
,-9.493,-0.309,-2.879,-9.474,-0.388,-3.192,-1.47,3.43,0.77
,-9.476,-0.34,-2.958,-9.457,-0.45,-3.19,-1.89,3.36,0.77
15445.0,-9.524,-0.613,-3.264,-9.287,-0.572,-2.429,-3.92,1.26,0.63
,-9.469,-0.61,-3.151,-9.371,-1.019,-2.173,-4.27,0.42,0.0
,-9.505,-0.378,-3.01,-9.517,-0.962,-1.797,-4.9,-0.07,0.07
,-9.368,-0.309,-2.74,-9.572,-0.625,-1.658,-6.72,0.07,0.84
15521.0,-9.555,-0.414,-1.424,-9.107,-0.952,-1.586,-1.26,6.02,3.01
,-9.538,-0.038,-1.216,-9.17,-1.266,-1.364,-3.22,7.0,2.87
,-9.56,0.11,-1.744,-9.296,-1.165,-1.199,-8.82,7.42,2.52
,-9.316,-0.534,-1.622,-9.296,-0.706,-0.512,-16.17,8.75,2.52
15597.0,-9.6,-0.089,-0.857,-8.971,-0.452,-1.299,6.16,22.54,6.44
,-9.469,0.34,-1.476,-9.069,-0.318,-1.548,2.31,23.73,5.39
,-9.141,0.112,-1.003,-9.016,-0.244,-2.448,-1.4,26.11,5.39
,-9.292,-0.024,-1.871,-8.923,0.081,-2.96,-5.25,29.12,6.09
15673.0,-8.961,0.179,-3.463,-9.672,-1.11,-3.723,-7.91,35.7,3.43
,-8.705,-0.213,-2.426,-9.6,-1.048,-4.525,-8.54,38.43,4.55
,-9.033,-0.792,-2.953,-8.981,-1.244,-4.762,-9.03,37.59,4.9
,-9.184,-1.039,-2.996,-8.562,-1.237,-4.587,-8.54,36.54,4.55
15749.0,-8.351,-0.79,-4.219,-8.655,1.012,-4.338,11.76,32.41,11.48
,-8.701,0.175,-4.549,-8.614,0.431,-4.032,18.27,30.1,10.64
,-8.904,0.957,-5.075,-8.978,-0.096,-4.156,18.13,28.07,8.54
,-8.916,1.275,-5.001,-9.33,-0.263,-4.475,13.51,28.77,7.35
15824.0,-9.268,-0.294,-4.819,-8.55,0.507,-5.336,11.27,30.24,6.37
,-9.052,-0.196,-4.865,-8.72,0.759,-5.016,11.27,27.93,6.79
,-8.49,-0.026,-5.13,-8.552,0.938,-4.618,11.48,26.74,6.72
,-8.461,0.127,-5.197,-8.904,0.983,-3.891,12.46,26.88,6.02
15900.0,-9.172,1.156,-4.226,-8.38,0.069,-5.118,1.82,23.52,1.96
,-9.11,1.022,-4.645,-8.564,0.093,-5.233,-2.17,21.56,0.56
,-9.038,0.498,-4.879,-8.832,0.424,-5.188,-3.99,21.98,0.0
,-8.588,0.187,-5.193,-8.866,0.802,-5.281,-3.29,23.31,-0.49
15976.0,-8.691,0.694,-5.185,-8.406,-1.474,-5.262,2.59,19.11,-4.62
,-8.713,0.156,-5.252,-8.524,-1.347,-5.367,-2.8,17.85,-4.27
,-8.662,-0.452,-5.458,-8.382,-1.189,-5.317,-7.0,17.01,-3.71
,-8.425,-1.218,-5.48,-8.421,-0.859,-5.525,-7.98,17.43,-2.94
16052.0,-8.579,-0.443,-5.693,-8.38,-0.584,-5.427,6.51,16.66,1.82
,-8.705,-0.069,-5.896,-8.538,-0.675,-5.035,5.18,14.28,3.01
,-8.564,-0.136,-5.963,-8.516,-0.742,-4.999,2.66,12.95,3.29
,-8.402,-0.404,-5.654,-8.536,-0.61,-4.889,1.05,12.39,3.5
16127.0,-8.557,-0.285,-4.98,-8.418,0.964,-5.808,5.88,12.32,6.3
,-8.564,-0.108,-5.264,-8.464,0.995,-5.712,6.51,12.18,6.16
,-8.689,0.426,-5.494,-8.591,0.768,-5.554,7.77,11.76,5.32
,-8.469,0.897,-5.836,-8.725,0.364,-5.372,8.4,10.36,3.99
16203.0,-8.681,0.153,-5.473,-8.155,-0.522,-5.485,5.04,6.44,-1.68
,-8.526,-0.268,-5.654,-8.15,-0.625,-5.54,5.6,5.81,-1.96
,-8.497,-0.459,-5.437,-8.433,-0.457,-5.389,7.14,5.46,-1.82
,-8.366,-0.292,-5.731,-8.399,-0.4,-5.554,9.66,5.46,-1.82
16278.0,-8.315,-0.519,-5.453,-8.157,-0.292,-5.437,7.77,5.53,0.28
,-8.193,-0.933,-5.36,-8.708,0.01,-5.288,6.44,6.09,0.98
,-8.244,-0.838,-5.334,-8.713,0.11,-5.128,6.51,6.3,1.96
,-8.234,-0.802,-5.422,-8.748,0.206,-5.343,9.17,6.23,2.59
16354.0,-8.811,-0.28,-5.178,-8.244,-0.266,-5.808,9.59,5.11,-2.03
,-8.504,-0.916,-5.006,-8.291,-0.022,-5.954,8.75,4.97,-1.05
,-8.179,-1.034,-5.248,-8.614,-0.014,-5.788,8.68,4.9,0.63
,-8.162,-0.912,-5.535,-8.681,-0.141,-5.647,11.48,4.69,1.33
16430.0,-8.536,0.031,-5.48,-8.323,-0.615,-5.355,10.64,1.19,3.08
,-8.488,-0.057,-5.547,-8.37,-0.821,-5.353,8.89,1.05,3.43
,-8.387,0.084,-5.537,-8.402,-0.948,-5.401,8.54,0.84,3.01
,-8.433,-0.05,-5.441,-8.442,-0.591,-5.626,6.65,1.05,2.59
16506.0,-8.315,0.017,-5.791,-8.598,0.309,-5.549,9.8,0.42,5.39
,-8.356,0.459,-5.781,-8.564,0.079,-5.755,8.68,0.63,4.9
,-8.437,0.517,-5.717,-8.49,-0.294,-5.64,5.88,0.84,3.99
,-8.509,0.373,-5.745,-8.454,-0.433,-5.721,3.08,1.12,2.8
16581.0,-8.267,-0.407,-5.729,-8.579,-0.352,-5.607,2.1,0.56,2.45
,-8.239,-0.23,-5.686,-8.413,-0.629,-5.504,2.8,0.7,2.38
,-8.447,0.01,-5.678,-8.323,-0.711,-5.583,2.31,0.63,1.89
,-8.655,-0.117,-5.619,-8.282,-0.519,-5.568,0.35,-0.28,1.33
16657.0,-8.461,-0.347,-5.585,-8.449,0.0,-5.307,1.05,-1.47,3.71
,-8.626,0.235,-5.597,-8.485,-0.093,-5.363,1.47,-2.24,2.8
,-8.574,0.459,-5.504,-8.626,0.06,-5.351,-0.07,-2.73,2.24
,-8.423,0.337,-5.497,-8.368,-0.646,-5.102,-1.19,-2.87,1.61
16733.0,-8.536,0.244,-5.611,-8.492,-0.409,-5.257,0.0,-4.97,-0.07
,-8.351,0.486,-5.705,-8.437,-0.72,-5.102,-0.21,-5.32,-0.42
,-8.349,0.294,-5.575,-8.5,-0.589,-5.145,-2.31,-5.46,-1.05
,-8.457,-0.172,-5.305,-8.78,-0.397,-5.2,-4.69,-5.25,-1.61
16809.0,-8.665,0.01,-5.719,-8.428,-0.546,-5.726,-0.56,-6.86,-0.21
,-8.442,-0.16,-5.779,-8.512,-0.45,-5.724,-2.45,-7.42,-0.14
,-8.421,-0.404,-5.755,-8.5,-0.311,-5.815,-4.34,-7.77,0.0
,-8.48,-0.467,-5.765,-8.583,-0.218,-5.602,-4.2,-8.26,0.49
16885.0,-8.598,-0.132,-5.681,-8.452,-0.079,-5.547,0.49,-9.94,-0.7
,-8.629,0.005,-5.719,-8.466,-0.172,-5.468,0.14,-10.85,-1.19
,-8.717,-0.057,-5.547,-8.49,-0.335,-5.291,1.26,-11.83,-1.26
,-8.708,-0.041,-5.681,-8.567,-0.421,-5.322,2.31,-13.02,-1.26
16960.0,-8.576,-0.318,-5.353,-8.495,-0.227,-5.322,7.98,-13.23,-2.1
,-8.792,-0.347,-5.142,-8.473,-0.421,-5.358,8.75,-13.51,-1.96
,-8.808,-0.199,-5.15,-8.603,-0.617,-5.106,7.63,-15.89,-2.03
,-8.497,-0.156,-5.305,-8.543,-0.821,-5.02,5.53,-16.94,-1.82
17036.0,-8.373,-0.871,-4.81,-8.643,-0.395,-4.86,5.39,-16.38,0.49
,-8.533,-0.854,-4.654,-8.567,-0.213,-4.762,7.84,-15.82,1.61
,-8.693,-0.878,-4.721,-8.327,-0.108,-4.594,10.22,-16.03,2.66
,-8.902,-0.519,-4.795,-8.88,-0.28,-4.568,11.55,-17.92,3.64
17111.0,-8.856,-0.371,-4.602,-8.737,-0.031,-4.484,6.44,-17.64,5.04
,-8.626,-0.067,-4.673,-8.866,-0.218,-4.436,7.84,-17.64,5.53
,-8.567,0.101,-4.685,-8.909,-0.347,-4.322,7.98,-17.08,5.74
,-8.603,0.06,-4.611,-8.995,-0.215,-4.223,7.77,-16.66,5.95
17187.0,-9.083,0.002,-4.068,-8.878,-0.168,-3.975,13.51,-19.18,6.58
,-9.005,0.158,-4.089,-8.882,-0.163,-3.577,12.18,-20.79,6.37
,-8.993,0.024,-4.161,-8.885,-0.091,-3.893,9.73,-21.98,5.88
,-8.873,-0.034,-4.001,-9.131,0.208,-3.604,8.33,-22.12,5.95
17263.0,-8.918,0.306,-3.625,-9.134,0.124,-3.314,5.88,-24.15,3.57
,-8.957,0.172,-3.391,-9.079,0.352,-3.24,3.5,-23.52,3.01
,-9.069,0.187,-3.589,-9.143,0.352,-3.185,2.73,-23.94,2.45
,-9.186,0.077,-3.599,-9.289,0.244,-3.338,2.52,-24.57,1.68
17339.0,-9.172,0.048,-3.281,-9.139,-0.412,-3.419,-1.75,-23.52,-1.19
,-9.134,-0.084,-3.128,-9.213,-0.342,-3.147,-2.52,-23.17,-0.84
,-9.174,-0.203,-3.553,-9.306,-0.27,-3.4,-2.87,-23.66,-0.84
,-9.1,-0.409,-3.549,-9.174,-0.258,-3.23,-2.17,-23.38,-0.7
17414.0,-9.167,-0.321,-2.943,-9.485,0.23,-3.422,-0.77,-21.7,-0.91
,-9.301,-0.313,-2.886,-9.201,0.043,-3.154,-0.91,-21.21,-1.05
,-9.402,-0.179,-2.819,-9.074,-0.333,-2.57,-0.14,-21.28,-1.4
,-9.44,0.086,-2.838,-9.198,-0.589,-2.151,-0.21,-21.14,-1.61
17490.0,-9.39,-0.483,-1.776,-9.153,0.105,-2.726,7.49,-16.8,-1.05
,-9.658,0.158,-2.201,-9.093,-0.371,-1.783,10.71,-17.01,-1.89
,-9.761,0.637,-3.166,-9.44,-0.407,-1.536,5.53,-17.92,-2.87
,-9.409,0.622,-3.087,-9.73,0.201,-1.754,-1.89,-17.78,-3.08
17566.0,-9.658,0.653,-1.771,-9.198,-0.366,-2.757,0.91,-12.11,-5.32
,-9.6,0.512,-1.878,-9.196,-0.644,-2.57,-5.81,-11.55,-5.11
,-9.746,0.105,-2.46,-9.256,-0.737,-2.223,-10.64,-11.69,-5.81
,-9.514,-0.148,-2.922,-9.588,-0.67,-1.766,-12.53,-11.48,-6.23
17642.0,-9.844,-0.249,-2.278,-9.385,-0.541,-2.539,3.01,-7.07,-4.34
,-9.694,-0.184,-2.278,-9.361,-0.431,-2.266,-0.28,-7.0,-4.06
,-9.555,-0.337,-2.407,-9.5,-0.297,-2.134,-2.73,-6.72,-3.71
,-9.452,-0.526,-2.558,-9.622,-0.345,-1.953,-2.17,-6.09,-3.5
17717.0,-9.749,-0.373,-1.759,-9.476,-0.392,-2.199,8.61,-2.24,-1.96
,-9.718,-0.223,-1.953,-9.488,-0.445,-2.414,8.4,-1.75,-1.75
,-9.696,-0.235,-2.221,-9.509,-0.45,-2.424,6.86,-1.4,-1.82
,-9.433,-0.337,-2.058,-9.636,-0.33,-2.582,5.67,-0.7,-1.68
17793.0,-9.641,-0.151,-2.883,-9.646,-0.369,-2.9,4.9,0.14,-2.38
,-9.538,-0.16,-2.716,-9.67,-0.101,-3.307,3.15,0.21,-2.31
,-9.519,-0.258,-2.819,-9.588,-0.194,-3.345,2.52,0.28,-2.03
,-9.502,-0.371,-2.666,-9.521,-0.479,-3.482,2.94,0.07,-1.89
17869.0,-9.375,-0.682,-3.312,-9.641,-0.397,-2.18,1.68,-4.41,-2.17
,-9.325,-0.905,-2.9,-9.732,-0.249,-2.245,4.13,-4.69,-1.61
,-9.466,-0.756,-2.584,-9.682,-0.294,-2.192,7.21,-4.97,-1.19
,-9.605,-0.56,-2.359,-9.627,-0.488,-2.13,8.47,-5.18,-1.05
17944.0,-9.526,-0.605,-2.015,-9.667,-0.462,-1.725,1.68,-4.48,-1.54
,-9.543,-0.558,-1.883,-9.775,-0.325,-1.953,2.03,-3.85,-1.33
,-9.555,-0.464,-1.795,-9.667,-0.266,-2.056,1.89,-3.01,-0.98
,-9.545,-0.4,-1.709,-9.562,-0.369,-2.125,0.63,-2.31,-0.7
18020.0,-9.495,-0.581,-2.089,-9.768,-0.328,-2.407,-4.34,0.63,-0.49
,-9.495,-0.718,-1.979,-9.753,-0.323,-2.587,-2.94,1.4,0.0
,-9.586,-0.55,-1.993,-9.56,-0.354,-2.596,-0.63,2.03,0.35
,-9.708,-0.452,-2.19,-9.514,-0.4,-2.637,0.28,2.17,0.28
18096.0,-9.519,-0.534,-2.62,-9.562,-0.388,-2.615,-2.31,1.33,0.0
,-9.557,-0.51,-2.694,-9.562,-0.39,-2.376,-1.19,1.05,0.0
,-9.6,-0.524,-2.745,-9.646,-0.364,-2.331,0.49,0.63,0.07
,-9.622,-0.337,-2.759,-9.667,-0.313,-2.455,1.12,0.14,-0.07
18172.0,-9.722,-0.28,-2.534,-9.517,-0.22,-2.326,1.68,-0.28,-0.35
,-9.61,-0.268,-2.539,-9.588,-0.498,-2.225,0.91,-0.56,-0.49
,-9.686,-0.376,-2.481,-9.5,-0.617,-2.285,-0.28,-1.26,-0.7
,-9.622,-0.215,-2.434,-9.548,-0.964,-2.015,-2.45,-2.24,-1.26
18247.0,-9.622,-0.828,-2.192,-9.631,-0.297,-2.704,-0.84,0.07,0.14
,-9.624,-0.696,-2.28,-9.651,-0.302,-2.759,2.45,0.49,0.56
,-9.639,-0.4,-2.477,-9.617,-0.302,-2.57,4.48,0.84,0.7
,-9.562,-0.261,-2.596,-9.588,-0.459,-2.536,4.97,0.77,0.77
18323.0,-9.622,-0.601,-2.446,-9.651,-0.318,-2.206,4.27,-0.35,0.77
,-9.56,-0.706,-2.35,-9.6,-0.385,-2.134,5.88,-0.14,1.12
,-9.639,-0.589,-2.285,-9.643,-0.369,-2.094,7.56,0.21,1.4
,-9.641,-0.419,-2.257,-9.667,-0.364,-2.233,8.12,0.49,1.47
18399.0,-9.706,-0.376,-2.175,-9.679,-0.309,-2.273,3.85,0.98,1.12
,-9.603,-0.297,-2.166,-9.61,-0.38,-2.168,2.8,1.12,0.91
,-9.665,-0.378,-2.132,-9.603,-0.462,-2.166,1.54,1.12,0.77
,-9.682,-0.371,-2.209,-9.622,-0.505,-2.218,0.7,1.19,0.7
18475.0,-9.648,-0.514,-2.376,-9.586,-0.385,-2.472,-2.59,1.61,0.35
,-9.619,-0.385,-2.383,-9.634,-0.503,-2.395,-2.17,1.75,0.49
,-9.586,-0.378,-2.474,-9.596,-0.567,-2.369,-2.73,1.54,0.28
,-9.608,-0.376,-2.472,-9.641,-0.574,-2.414,-3.36,1.33,0.14
18550.0,-9.701,-0.479,-2.503,-9.6,-0.361,-2.091,0.84,1.33,0.84
,-9.694,-0.249,-2.527,-9.639,-0.304,-2.149,0.98,0.84,0.7
,-9.567,-0.261,-2.446,-9.579,-0.371,-2.051,-0.42,0.77,0.49
,-9.646,-0.352,-2.247,-9.677,-0.514,-2.015,-1.75,0.56,0.14
18626.0,-9.627,-0.424,-2.228,-9.61,-0.538,-2.455,-3.01,2.24,0.35
,-9.608,-0.457,-2.326,-9.665,-0.51,-2.479,-1.61,2.59,0.49
,-9.555,-0.524,-2.364,-9.624,-0.359,-2.424,-0.91,2.87,0.7
,-9.584,-0.491,-2.436,-9.672,-0.364,-2.424,0.14,2.94,0.98
18701.0,-9.653,-0.366,-2.474,-9.672,-0.526,-2.283,0.63,2.52,0.91
,-9.665,-0.39,-2.455,-9.694,-0.285,-2.192,0.42,2.52,0.91
,-9.543,-0.447,-2.434,-9.651,-0.132,-2.096,0.14,2.66,0.91
,-9.555,-0.512,-2.383,-9.634,-0.235,-2.154,0.49,2.94,1.12
18777.0,-9.651,-0.349,-2.335,-9.627,-0.519,-2.424,-1.96,2.8,0.63
,-9.646,-0.471,-2.431,-9.56,-0.29,-2.422,-2.1,2.8,0.63
,-9.567,-0.562,-2.436,-9.615,-0.311,-2.304,-1.82,3.15,0.91
,-9.605,-0.634,-2.505,-9.698,-0.445,-2.352,-0.91,3.22,1.12
18853.0,-9.581,-0.433,-2.19,-9.591,-0.421,-2.134,-3.5,2.1,0.84
,-9.593,-0.292,-2.091,-9.533,-0.414,-2.127,-4.34,2.24,0.84
,-9.593,-0.304,-2.168,-9.67,-0.433,-1.981,-4.9,2.66,0.77
,-9.627,-0.416,-2.204,-9.627,-0.251,-1.974,-4.97,3.15,0.84
18929.0,-9.608,-0.278,-2.041,-9.524,-0.9,-2.106,-3.78,5.81,1.54
,-9.564,-0.407,-2.108,-9.435,-0.828,-1.938,-4.76,6.37,1.68
,-9.481,-0.672,-2.175,-9.495,-0.723,-1.857,-4.76,6.93,2.17
,-9.481,-0.876,-2.111,-9.493,-0.675,-1.9,-2.87,7.91,2.8
19005.0,-9.545,-0.641,-1.895,-9.696,0.218,-3.436,10.99,13.3,6.23
,-9.603,-0.416,-1.969,-9.442,0.258,-3.778,13.23,14.14,6.51
,-9.715,-0.122,-2.314,-9.344,-0.079,-3.807,14.14,14.07,6.3
,-9.88,0.187,-3.065,-9.311,-0.333,-3.434,12.88,12.67,5.32
19080.0,-9.557,-0.151,-3.307,-9.488,-0.235,-1.63,3.01,5.81,3.01
,-9.564,0.034,-3.214,-9.811,-0.254,-1.933,2.52,4.2,1.82
,-9.552,0.187,-2.824,-9.667,-0.199,-2.077,-0.63,3.57,0.98
,-9.356,0.045,-2.252,-9.73,-0.112,-2.429,-4.27,4.41,0.98
19156.0,-9.576,-0.144,-2.563,-9.438,-0.392,-1.586,-14.84,4.69,0.63
,-9.318,-0.275,-2.458,-9.675,-0.117,-1.974,-16.31,5.67,1.12
,-9.217,-0.524,-2.123,-9.651,-0.096,-2.603,-14.28,7.77,1.75
,-9.407,-0.603,-1.878,-9.462,-0.459,-2.661,-11.06,9.24,1.89
19232.0,-9.289,-0.814,-2.493,-9.438,0.464,-3.51,-16.94,10.85,3.36
,-9.129,-0.933,-1.675,-9.086,-0.182,-3.795,-14.14,13.23,4.69
,-9.679,-0.311,-2.376,-8.83,-1.153,-3.113,-8.19,12.88,4.48
,-9.809,0.251,-3.369,-9.43,-1.433,-2.639,-7.63,10.43,2.66
19308.0,-9.732,-1.175,-2.814,-9.093,-0.51,-1.886,1.54,13.09,6.37
,-9.6,-0.512,-2.536,-9.588,-0.457,-2.264,9.31,12.67,6.79
,-9.301,-0.12,-2.577,-9.445,0.244,-2.211,12.25,13.65,8.12
,-9.074,-0.261,-2.491,-9.634,0.84,-2.606,12.39,15.82,9.17
19383.0,-9.452,1.141,-2.795,-8.997,0.031,-3.664,16.59,20.09,7.63
,-9.349,1.397,-2.673,-8.851,-0.598,-3.075,10.92,20.02,6.3
,-9.426,0.993,-3.606,-8.942,-0.749,-2.123,3.01,18.41,4.34
,-9.229,0.579,-3.666,-9.273,-0.598,-2.352,-2.87,18.06,2.94
19459.0,-9.395,-0.359,-2.185,-9.232,0.416,-2.793,16.66,25.13,3.99
,-9.533,-0.101,-2.816,-9.361,0.617,-2.924,18.13,25.69,4.62
,-9.16,0.134,-2.924,-9.33,0.79,-3.857,16.73,26.81,5.04
,-9.162,0.223,-2.697,-9.074,0.5,-4.003,17.08,28.91,5.25
19534.0,-8.976,-0.101,-3.996,-9.112,-0.689,-4.099,3.08,24.78,2.66
,-8.483,-0.433,-3.472,-8.765,-0.818,-4.245,2.66,26.6,2.52
,-9.043,-0.56,-3.439,-8.65,-0.574,-4.188,5.32,26.88,1.89
,-9.196,-0.464,-3.951,-9.191,-0.275,-4.343,6.44,26.04,1.19
19610.0,-9.311,0.029,-4.645,-8.681,-0.371,-4.726,12.53,23.59,3.64
,-9.062,-0.017,-5.03,-8.842,-0.201,-4.623,9.45,21.98,4.2
,-8.746,-0.278,-4.951,-8.971,0.036,-4.353,5.39,21.91,5.46
,-8.536,-0.373,-4.759,-8.899,-0.055,-4.109,4.2,22.54,6.09
19686.0,-8.847,0.055,-3.85,-9.368,0.419,-4.317,7.42,23.8,5.81
,-8.897,0.426,-3.994,-8.938,0.692,-4.563,5.88,22.33,6.23
,-8.969,0.531,-4.271,-8.681,0.995,-4.664,3.85,21.84,5.95
,-9.091,0.519,-4.365,-8.562,0.866,-4.886,2.24,21.91,5.25
19762.0,-8.667,0.56,-4.841,-8.768,0.089,-5.214,-1.89,19.6,0.42
,-8.921,0.361,-4.755,-8.741,0.091,-5.142,-1.96,19.32,-0.14
,-9.009,0.357,-4.788,-8.638,0.328,-5.078,-1.26,18.41,-0.42
,-8.997,0.194,-4.968,-8.492,0.268,-5.016,-1.33,16.24,-0.7
19837.0,-8.536,0.168,-5.063,-8.775,0.16,-5.37,-4.55,14.49,-1.75
,-8.691,0.321,-4.917,-8.598,0.251,-5.48,-5.18,14.7,-1.26
,-8.847,0.4,-5.095,-8.684,0.424,-5.236,-5.67,14.49,-1.19
,-8.813,0.246,-5.425,-8.598,0.514,-5.231,-6.58,13.51,-2.03
19913.0,-8.617,0.562,-5.118,-8.744,-1.242,-5.099,4.34,9.45,-6.16
,-8.756,0.17,-4.915,-8.622,-1.553,-5.401,3.43,9.87,-6.16
,-8.655,-0.421,-4.913,-8.483,-1.651,-5.489,1.75,10.43,-5.81
,-8.591,-1.017,-4.925,-8.607,-1.46,-5.274,1.68,11.34,-4.41
19989.0,-8.416,-1.235,-5.351,-8.531,-1.192,-4.92,10.71,8.05,3.15
,-8.296,-1.132,-5.31,-8.641,-0.641,-4.944,8.89,7.21,5.04
,-8.212,-1.177,-5.386,-8.899,0.024,-4.829,6.79,7.0,6.86
,-8.339,-1.551,-4.934,-8.844,0.459,-5.047,5.81,7.98,9.17
20065.0,-8.758,0.579,-5.128,-8.832,0.986,-5.652,13.23,6.79,6.37
,-8.543,0.555,-5.166,-8.763,0.007,-5.116,13.44,6.3,6.3
,-8.346,0.833,-5.621,-8.574,-0.859,-5.02,15.4,5.32,6.02
,-8.495,0.754,-5.607,-8.571,-1.192,-4.946,16.17,4.41,5.11
20141.0,-8.291,-1.283,-4.996,-8.99,0.371,-5.281,14.77,5.25,5.88
,-8.473,-0.632,-5.334,-9.021,0.598,-5.116,16.94,5.81,7.07
,-8.576,-0.407,-5.449,-8.49,0.665,-5.413,18.34,5.39,7.91
,-8.634,0.148,-5.607,-8.179,0.232,-5.284,18.76,4.55,7.35
20216.0,-8.433,0.084,-5.269,-8.679,1.192,-5.501,6.3,2.45,8.4
,-8.65,0.096,-5.202,-8.76,1.113,-5.401,6.37,2.24,8.47
,-8.634,0.445,-5.252,-8.83,0.955,-5.43,7.0,1.4,8.54
,-8.65,0.893,-5.396,-8.641,0.491,-5.25,7.28,0.77,8.19
20292.0,-8.421,0.16,-5.183,-8.598,0.402,-5.542,-1.89,1.68,1.89
,-8.354,0.124,-5.389,-8.507,0.055,-5.547,-1.19,1.89,1.75
,-8.641,0.215,-5.406,-8.507,-0.424,-5.353,-0.21,2.03,0.77
,-8.708,0.361,-5.401,-8.528,-0.445,-5.422,-0.77,1.75,-0.14
20367.0,-8.514,-0.412,-5.317,-8.483,0.519,-5.281,-1.54,1.89,2.03
,-8.674,-0.112,-5.202,-8.839,0.735,-5.051,-0.35,2.17,2.38
,-8.665,-0.06,-5.176,-8.794,0.589,-5.035,0.49,1.33,2.24
,-8.619,0.816,-5.549,-8.579,1.015,-5.133,-0.98,0.77,2.24
20443.0,-8.624,1.412,-5.339,-8.469,-0.108,-5.477,-7.84,-1.68,-1.96
,-8.691,1.103,-5.444,-8.607,-0.625,-5.205,-9.17,-2.38,-3.36
,-8.698,0.684,-5.396,-8.622,-0.72,-5.279,-9.8,-3.01,-4.27
,-8.612,0.459,-5.394,-8.509,-0.66,-5.434,-10.08,-3.22,-4.69
20519.0,-8.428,-0.68,-5.48,-8.435,-1.062,-5.343,-3.22,-2.8,-2.17
,-8.701,-0.529,-5.554,-8.445,-1.225,-5.327,-2.31,-3.57,-1.26
,-8.641,-0.469,-5.642,-8.698,-1.031,-5.152,-2.94,-5.18,-0.49
,-8.48,-0.854,-5.542,-8.574,-0.67,-5.444,-5.39,-6.02,0.77
20595.0,-8.555,-0.266,-5.439,-8.734,0.045,-5.379,-1.26,-9.38,6.23
,-8.528,-0.297,-5.296,-8.756,0.352,-5.446,-0.98,-9.38,6.79
,-8.526,-0.407,-5.114,-8.65,0.548,-5.482,-1.05,-9.1,7.56
,-8.67,-0.302,-5.116,-8.763,0.529,-5.188,-0.07,-8.82,8.26
20670.0,-8.732,0.476,-4.917,-8.638,0.45,-5.183,4.97,-9.1,5.04
,-8.914,0.548,-5.073,-8.727,0.692,-5.245,4.62,-11.27,4.62
,-8.758,0.55,-5.14,-8.655,0.936,-5.219,3.85,-13.79,4.34
,-8.574,0.39,-5.147,-8.591,0.936,-5.14,3.15,-14.21,4.13
20746.0,-8.552,0.79,-5.138,-8.698,0.474,-4.949,8.33,-11.34,0.07
,-8.65,0.56,-4.994,-8.744,0.644,-4.831,8.47,-9.94,-0.28
,-8.679,0.333,-4.939,-8.679,0.696,-4.771,9.24,-9.17,-0.42
,-8.756,0.318,-4.886,-8.758,0.531,-4.676,11.34,-8.75,-0.28
20821.0,-8.576,0.464,-4.712,-8.727,0.108,-4.436,7.98,-12.6,0.21
,-8.801,0.022,-4.623,-8.792,0.278,-4.367,7.14,-13.16,0.35
,-8.772,-0.268,-4.482,-8.873,0.335,-4.245,7.49,-13.23,1.54
,-8.727,-0.22,-4.324,-8.887,0.254,-4.154,10.08,-14.0,1.47
20897.0,-8.947,0.151,-4.061,-8.916,0.476,-3.649,8.54,-17.71,1.19
,-8.94,0.124,-3.891,-8.964,0.56,-3.793,9.59,-17.92,0.91
,-9.038,0.392,-3.872,-9.016,0.694,-3.618,9.59,-18.27,0.49
,-8.921,0.488,-3.805,-8.866,0.541,-4.209,7.35,-18.83,0.07
20973.0,-9.098,0.395,-3.812,-9.098,0.177,-4.011,0.07,-20.37,-2.73
,-8.894,0.084,-3.477,-8.973,0.29,-4.161,-3.15,-19.81,-3.36
,-9.055,-0.031,-3.489,-8.758,0.055,-3.857,-2.87,-19.6,-3.85
,-9.186,0.158,-3.754,-8.945,-0.146,-3.585,-1.33,-20.51,-4.2
21049.0,-9.136,-0.122,-3.29,-9.115,-0.845,-3.29,1.96,-19.32,-4.34
,-9.258,-0.067,-3.252,-9.074,-0.873,-3.168,1.61,-19.53,-4.69
,-9.107,-0.089,-3.431,-9.079,-0.73,-2.974,-1.4,-19.74,-3.99
,-9.067,-0.51,-3.372,-9.203,-0.297,-2.527,-3.57,-19.46,-2.66
21125.0,-9.392,0.115,-2.69,-9.117,0.22,-3.199,10.5,-14.56,-0.21
,-9.407,0.467,-2.984,-9.277,0.313,-3.118,8.19,-14.56,-0.49
,-9.32,0.464,-3.096,-9.43,0.517,-2.807,4.41,-14.7,-0.77
,-9.234,0.388,-3.295,-9.593,0.993,-3.154,1.26,-14.42,-0.98
21200.0,-9.488,0.895,-3.419,-9.249,-0.962,-3.391,-5.04,-14.07,-6.02
,-9.284,0.366,-3.539,-9.17,-0.45,-3.049,-11.06,-14.0,-5.88
,-9.129,-0.373,-3.604,-9.371,-0.191,-2.687,-11.27,-13.44,-4.97
,-9.162,-0.876,-3.532,-9.526,0.12,-2.704,-6.44,-12.81,-4.41
21276.0,-9.493,0.187,-2.687,-9.294,-0.299,-2.355,3.78,-12.46,-3.29
,-9.359,0.132,-2.867,-9.426,-0.06,-2.24,0.84,-12.04,-3.15
,-9.232,-0.01,-2.711,-9.567,0.292,-2.407,0.14,-10.92,-2.94
,-9.251,-0.215,-2.62,-9.476,0.498,-2.426,1.82,-10.01,-2.87
21352.0,-9.387,0.306,-2.426,-9.557,0.136,-2.596,3.43,-7.21,-3.29
,-9.335,-0.072,-2.546,-9.521,0.189,-2.742,1.4,-6.16,-3.57
,-9.368,-0.16,-2.41,-9.433,0.081,-2.831,1.47,-5.53,-3.92
,-9.478,-0.11,-2.34,-9.385,-0.129,-3.025,2.94,-4.83,-3.99
21428.0,-9.43,-0.17,-3.187,-9.442,-0.17,-3.058,0.28,-4.2,-4.48
,-9.485,0.012,-3.431,-9.519,-0.127,-2.656,1.4,-4.62,-4.76
,-9.363,0.053,-3.259,-9.56,0.002,-2.692,1.26,-4.97,-4.9
,-9.457,-0.12,-3.204,-9.56,-0.002,-2.764,2.03,-4.97,-4.76
21503.0,-9.469,-0.184,-2.73,-9.459,-0.459,-2.402,4.9,-4.62,-4.69
,-9.454,-0.452,-2.477,-9.497,-0.479,-2.493,3.92,-4.13,-4.41
,-9.488,-0.637,-2.379,-9.428,-0.543,-2.35,4.97,-3.43,-4.13
,-9.531,-0.589,-2.465,-9.514,-0.507,-2.111,6.65,-3.01,-3.92
21579.0,-9.763,-0.29,-2.627,-9.232,-0.869,-3.544,5.95,-0.07,-2.73
,-9.655,-0.132,-3.049,-9.383,-0.634,-3.259,2.94,-0.63,-3.15
,-9.5,-0.244,-3.52,-9.478,-0.373,-2.943,-0.42,-1.33,-3.36
,-9.275,-0.553,-3.599,-9.651,-0.187,-2.654,-1.75,-1.89,-3.08
21654.0,-9.665,-0.017,-2.682,-9.38,-0.486,-2.386,7.56,-3.5,-1.75
,-9.61,-0.103,-2.828,-9.493,-0.491,-2.003,5.46,-3.78,-1.82
,-9.409,-0.266,-2.697,-9.612,-0.373,-1.785,3.85,-4.13,-2.03
,-9.356,-0.364,-2.584,-9.631,-0.306,-1.596,4.06,-3.57,-1.82
21730.0,-9.612,-0.23,-1.613,-9.521,-0.531,-2.075,3.78,0.49,-1.47
,-9.572,-0.311,-1.673,-9.517,-0.459,-2.199,1.68,1.61,-1.54
,-9.579,-0.469,-1.826,-9.529,-0.45,-2.245,0.07,2.8,-1.47
,-9.529,-0.562,-1.938,-9.459,-0.412,-2.328,-0.14,3.78,-1.4
21806.0,-9.6,-0.337,-2.474,-9.478,-0.369,-3.087,1.12,7.35,-0.7
,-9.612,-0.282,-2.603,-9.462,-0.414,-3.092,0.91,7.56,-0.63
,-9.509,-0.251,-2.773,-9.505,-0.452,-3.297,0.77,7.49,-0.7
,-9.471,-0.287,-2.977,-9.483,-0.412,-3.369,0.49,7.42,-0.84
21882.0,-9.385,-0.373,-3.369,-9.445,-0.483,-3.101,1.61,5.25,-0.7
,-9.426,-0.491,-3.405,-9.447,-0.517,-2.936,1.61,4.41,-0.56
,-9.426,-0.462,-3.324,-9.538,-0.419,-2.886,2.17,3.71,-0.42
,-9.426,-0.464,-3.242,-9.49,-0.325,-2.804,2.73,3.43,-0.14
21957.0,-9.481,-0.366,-2.735,-9.524,-0.526,-2.728,0.28,2.17,-0.35
,-9.488,-0.491,-2.615,-9.538,-0.428,-2.749,-0.7,2.45,-0.35
,-9.519,-0.646,-2.611,-9.488,-0.416,-2.726,-0.98,2.73,-0.14
,-9.485,-0.637,-2.673,-9.481,-0.404,-2.773,-0.28,2.87,0.21
22033.0,-9.485,-0.428,-2.814,-9.478,-0.438,-3.254,1.26,3.99,0.63
,-9.476,-0.45,-2.867,-9.409,-0.395,-3.259,1.61,4.13,0.77
,-9.517,-0.431,-2.898,-9.409,-0.416,-3.281,2.03,4.2,0.7
,-9.514,-0.404,-3.161,-9.45,-0.397,-3.171,1.96,3.85,0.49
22109.0,-9.5,-0.335,-3.051,-9.462,-0.4,-2.824,5.46,2.03,1.19
,-9.517,-0.306,-2.96,-9.478,-0.436,-2.85,5.39,1.96,1.05
,-9.497,-0.275,-2.955,-9.514,-0.419,-2.893,4.83,1.61,0.84
,-9.466,-0.29,-2.833,-9.481,-0.404,-2.91,3.78,1.61,0.7
22185.0,-9.416,-0.402,-2.871,-9.49,-0.428,-3.015,2.24,1.75,0.77
,-9.445,-0.44,-2.888,-9.49,-0.445,-3.051,2.45,1.82,0.84
,-9.505,-0.462,-2.91,-9.418,-0.412,-3.092,2.66,1.54,0.84
,-9.464,-0.428,-2.96,-9.407,-0.371,-3.041,2.94,1.47,0.84
22261.0,-9.416,-0.4,-3.013,-9.478,-0.433,-2.781,3.57,0.98,0.84
,-9.5,-0.385,-2.938,-9.502,-0.378,-2.783,3.99,0.7,0.91
,-9.502,-0.357,-2.903,-9.49,-0.45,-2.752,4.13,0.7,0.91
,-9.502,-0.388,-2.828,-9.44,-0.457,-2.694,3.85,0.56,0.84
22336.0,-9.464,-0.369,-2.68,-9.471,-0.433,-2.666,2.87,1.26,0.63
,-9.507,-0.419,-2.675,-9.543,-0.4,-2.694,2.94,1.4,0.49
,-9.452,-0.34,-2.649,-9.572,-0.39,-2.903,2.52,1.54,0.35
,-9.49,-0.345,-2.685,-9.474,-0.325,-3.025,1.68,2.1,0.42
22412.0,-9.43,-0.433,-3.051,-9.478,-0.464,-2.991,0.28,2.52,0.49
,-9.469,-0.5,-3.147,-9.457,-0.371,-2.967,0.7,2.38,0.49
,-9.416,-0.519,-3.247,-9.497,-0.256,-2.888,1.47,1.96,0.56
,-9.43,-0.524,-3.175,-9.521,-0.256,-2.848,2.38,1.75,0.77
22487.0,-9.512,-0.309,-2.886,-9.474,-0.414,-2.802,1.82,1.33,0.42
,-9.493,-0.392,-2.883,-9.445,-0.421,-2.711,1.96,1.4,0.49
,-9.466,-0.388,-2.864,-9.469,-0.445,-2.704,2.38,1.19,0.56
,-9.488,-0.397,-2.824,-9.471,-0.421,-2.749,2.87,1.33,0.49
22563.0,-9.474,-0.378,-2.857,-9.49,-0.376,-3.017,2.17,1.89,0.28
,-9.462,-0.369,-2.929,-9.493,-0.39,-3.037,2.03,2.1,0.28
,-9.457,-0.321,-3.02,-9.505,-0.347,-2.97,1.75,1.96,0.21
,-9.464,-0.38,-2.982,-9.476,-0.352,-2.972,1.68,1.89,0.21
22639.0,-9.485,-0.416,-2.922,-9.435,-0.526,-2.874,3.22,1.26,0.42
,-9.469,-0.416,-2.989,-9.447,-0.498,-2.84,3.36,1.33,0.42
,-9.495,-0.44,-2.929,-9.469,-0.447,-2.802,3.15,1.26,0.42
,-9.418,-0.498,-2.915,-9.476,-0.407,-2.781,2.8,1.26,0.35
22715.0,-9.481,-0.424,-2.845,-9.493,-0.313,-2.895,3.08,1.89,0.91
,-9.457,-0.4,-2.793,-9.45,-0.45,-2.95,3.43,1.82,0.84
,-9.471,-0.352,-2.862,-9.497,-0.524,-2.903,3.5,1.89,0.7
,-9.493,-0.306,-2.855,-9.474,-0.45,-2.903,3.22,1.96,0.56
22790.0,-9.502,-0.34,-2.9,-9.478,-0.443,-2.862,3.15,1.82,0.35
,-9.476,-0.254,-2.938,-9.452,-0.452,-2.91,2.94,1.68,0.21
,-9.466,-0.287,-2.907,-9.462,-0.517,-2.869,2.17,1.75,0.07
,-9.45,-0.371,-2.867,-9.402,-0.452,-2.682,1.75,1.89,-0.07
22866.0,-9.526,-0.388,-2.793,-9.397,-0.562,-2.833,2.31,2.38,0.0
,-9.493,-0.28,-2.824,-9.416,-0.517,-2.845,1.54,2.17,-0.21
,-9.495,-0.342,-2.848,-9.502,-0.407,-2.778,0.21,2.1,-0.28
,-9.383,-0.464,-2.876,-9.497,-0.38,-2.649,-0.63,2.17,-0.28
22941.0,-9.524,-0.421,-2.668,-9.39,-0.579,-3.285,-0.98,3.15,0.0
,-9.545,-0.522,-2.84,-9.373,-0.51,-3.317,-1.68,3.15,0.07
,-9.529,-0.543,-2.979,-9.416,-0.536,-3.3,-1.89,3.22,0.14
,-9.464,-0.577,-3.192,-9.399,-0.51,-3.24,-1.47,2.8,0.21
23017.0,-9.509,-0.526,-3.171,-9.426,-0.56,-2.347,0.63,1.61,1.19
,-9.397,-0.431,-3.027,-9.445,-0.514,-2.142,0.42,1.54,1.4
,-9.426,-0.574,-2.838,-9.495,-0.507,-1.797,0.14,1.47,1.61
,-9.402,-0.596,-2.577,-9.538,-0.385,-1.522,0.42,1.82,1.89
23093.0,-9.696,-0.242,-1.608,-9.201,-1.122,-2.108,-2.1,6.58,2.1
,-9.665,-0.225,-1.835,-9.273,-1.029,-1.89,-5.81,7.63,1.82
,-9.34,-0.431,-2.072,-9.349,-0.67,-1.761,-9.31,8.82,2.17
,-9.21,-0.854,-2.101,-9.399,-0.254,-1.843,-10.71,10.5,3.22
23169.0,-9.395,-0.151,-1.843,-9.11,-0.577,-3.262,2.66,18.48,6.16
,-9.502,-0.031,-2.429,-9.067,-0.782,-2.74,-0.91,18.48,5.46
,-9.409,-0.096,-2.915,-9.256,-0.84,-2.458,-7.42,18.27,4.69
,-9.198,-0.581,-2.943,-9.395,-0.593,-2.678,-10.5,18.27,4.55
23245.0,-9.349,-0.235,-2.828,-9.237,0.278,-4.609,-5.81,19.74,6.09
,-9.311,-0.098,-2.742,-8.935,0.151,-4.501,-5.39,20.23,6.51
,-9.459,0.05,-3.53,-8.808,0.079,-4.901,-7.98,19.53,6.51
,-9.263,0.194,-3.611,-8.844,-0.644,-4.463,-8.68,18.62,6.3
23320.0,-8.894,-1.036,-3.666,-9.591,-0.325,-2.168,-4.41,18.06,5.04
,-9.189,-1.259,-3.12,-9.509,0.091,-3.077,2.24,19.6,6.23
,-9.306,-1.139,-2.01,-9.174,0.512,-4.307,9.45,21.77,7.56
,-9.658,-0.773,-2.144,-8.684,0.718,-4.836,13.23,21.28,8.12
23396.0,-8.744,0.677,-5.568,-9.139,0.053,-3.24,8.4,20.72,8.54
,-8.698,0.407,-4.781,-9.435,-0.031,-2.946,11.06,22.54,7.14
,-8.923,0.318,-4.652,-9.284,0.297,-2.388,13.93,22.68,5.25
,-8.856,0.246,-4.058,-9.445,0.409,-2.493,14.35,23.1,3.64
23472.0,-9.117,0.797,-2.785,-8.5,-0.632,-4.322,3.5,21.42,1.26
,-9.062,0.933,-3.955,-8.89,-0.95,-4.018,-2.73,19.39,0.49
,-8.595,0.708,-4.616,-9.256,-0.696,-4.046,-8.33,19.32,-0.07
,-8.433,0.0,-4.53,-8.973,-0.29,-4.171,-10.5,21.63,0.49
23548.0,-8.734,-0.318,-4.116,-8.959,0.711,-4.793,9.17,21.28,2.38
,-8.641,-0.572,-3.743,-8.701,0.933,-5.413,7.98,21.84,3.78
,-8.739,-0.498,-3.798,-8.648,0.644,-5.324,9.45,21.7,4.06
,-8.892,0.041,-4.101,-8.603,0.5,-5.76,12.32,21.77,3.29
23623.0,-8.658,-0.246,-5.001,-8.6,-0.567,-4.573,-4.06,22.47,1.19
,-8.703,-0.285,-4.922,-8.775,-0.514,-4.678,-0.91,21.91,0.98
,-8.753,-0.335,-4.645,-8.842,-0.136,-4.807,0.49,20.72,1.26
,-8.55,-0.369,-4.824,-8.806,0.251,-4.87,1.68,21.07,1.68
23699.0,-8.854,0.615,-4.838,-8.634,-0.407,-5.13,7.91,20.51,0.63
,-8.667,0.711,-5.025,-8.495,-0.44,-5.056,3.29,20.09,0.14
,-8.574,0.313,-5.135,-8.516,-0.278,-5.207,-1.61,20.23,0.7
,-8.825,-0.23,-4.882,-8.545,-0.01,-5.269,-5.11,18.76,1.96
23775.0,-8.488,0.249,-5.406,-8.464,0.593,-5.394,2.1,15.12,1.19
,-8.471,0.354,-5.418,-8.308,0.215,-5.391,1.33,14.98,0.56
,-8.696,0.304,-5.327,-8.442,-0.079,-5.08,0.42,14.14,0.42
,-8.691,0.493,-5.377,-8.471,-0.022,-4.927,-0.63,12.25,0.42
23851.0,-8.672,-0.041,-4.984,-8.354,-0.744,-5.575,2.87,14.56,-2.87
,-8.603,0.227,-5.461,-8.236,-1.139,-5.532,3.99,13.51,-2.87
,-8.502,0.012,-5.638,-8.368,-1.256,-5.458,3.57,13.3,-2.8
,-8.531,-0.378,-5.48,-8.495,-1.206,-5.712,3.15,13.37,-1.82
23926.0,-8.492,-1.342,-5.642,-8.263,0.347,-5.954,9.87,10.92,3.71
,-8.366,-1.426,-5.384,-8.258,0.596,-5.815,10.78,10.85,4.62
,-8.133,-1.072,-5.43,-8.497,0.562,-5.726,11.76,10.71,5.6
,-8.39,-0.302,-5.659,-8.323,0.065,-5.547,12.81,10.08,5.81
24002.0,-8.461,-0.22,-5.413,-8.878,0.22,-5.528,1.54,7.35,3.36
,-8.181,-0.218,-5.398,-8.413,-0.093,-5.587,3.64,6.65,3.5
,-8.425,0.407,-5.793,-8.404,0.873,-5.901,7.63,5.88,2.31
,-8.294,0.306,-5.647,-8.093,0.577,-5.896,8.96,5.67,0.98
24077.0,-8.404,0.436,-5.607,-8.454,-0.565,-5.619,9.38,3.64,-3.36
,-8.507,0.759,-5.798,-8.2,-1.127,-5.568,5.74,3.08,-2.8
,-8.437,-0.369,-5.681,-8.256,-1.046,-5.647,1.68,2.73,-2.1
,-8.476,-0.96,-5.513,-8.339,-1.027,-5.542,0.84,2.45,-0.77
24153.0,-8.368,-0.713,-5.891,-8.397,-0.194,-5.676,2.17,0.21,6.79
,-8.119,-0.507,-5.875,-8.44,-0.17,-5.609,3.29,0.14,6.93
,-8.306,-0.201,-5.8,-8.311,0.129,-5.559,3.01,-0.21,7.0
,-8.361,-0.084,-5.793,-8.406,0.634,-5.638,2.73,-0.21,7.07
24229.0,-8.591,0.921,-5.437,-8.488,0.601,-5.585,5.39,0.49,4.76
,-8.569,0.902,-5.41,-8.557,0.5,-5.82,3.57,0.14,3.57
,-8.37,0.66,-5.473,-8.464,0.282,-5.841,2.1,0.56,2.8
,-8.301,0.708,-5.487,-8.356,-0.007,-5.805,1.89,1.05,2.31
24305.0,-8.284,-0.062,-5.877,-8.308,-0.656,-5.47,-0.7,0.91,0.42
,-8.344,-0.124,-5.721,-8.256,-0.359,-5.693,-0.84,0.84,0.56
,-8.543,-0.268,-5.745,-8.366,-0.072,-5.719,-1.82,0.0,0.49
,-8.488,-0.534,-5.647,-8.536,0.239,-5.642,-2.31,-0.35,0.77
24381.0,-8.547,0.438,-5.463,-8.521,0.089,-5.231,0.77,-1.26,2.38
,-8.603,0.866,-5.561,-8.435,0.053,-5.43,-1.75,-2.1,2.17
,-8.634,0.66,-5.578,-8.241,-0.699,-5.678,-3.36,-2.66,1.4
,-8.442,0.158,-5.439,-8.368,-0.526,-5.324,-4.55,-3.22,0.28
24456.0,-8.246,-0.589,-5.286,-8.485,-0.962,-5.142,-1.61,-3.43,2.52
,-8.318,-0.488,-5.477,-8.349,-0.854,-5.334,-1.4,-3.08,3.43
,-8.44,-0.759,-5.374,-8.351,-0.885,-5.386,-2.31,-3.22,4.13
,-8.404,-1.017,-5.185,-8.425,-0.811,-5.516,-2.8,-3.36,4.62
24532.0,-8.433,-0.613,-5.609,-8.66,0.579,-5.86,-0.7,-2.38,10.57
,-8.37,-0.096,-5.7,-8.574,0.644,-5.791,0.56,-3.22,11.13
,-8.37,0.246,-5.887,-8.399,0.668,-5.877,0.21,-4.27,11.27
,-8.524,0.361,-5.865,-8.516,0.546,-5.805,-1.12,-5.32,10.85
24608.0,-8.593,0.57,-5.843,-8.344,0.352,-5.82,4.13,-7.07,5.74
,-8.516,0.608,-5.889,-8.349,0.179,-5.937,6.58,-6.65,4.69
,-8.612,0.529,-5.669,-8.559,0.043,-6.147,8.47,-6.44,3.43
,-8.643,0.548,-5.621,-8.536,0.081,-5.86,8.61,-8.05,2.31
24684.0,-8.547,0.215,-5.846,-8.519,-0.079,-5.638,10.15,-11.83,2.38
,-8.275,0.187,-5.815,-8.741,0.144,-5.559,10.64,-11.2,2.73
,-8.174,-0.014,-5.664,-8.777,0.471,-5.518,10.85,-10.64,3.64
,-8.392,-0.148,-5.671,-8.67,0.696,-5.547,11.83,-11.2,4.76
24759.0,-8.402,0.809,-5.597,-8.696,0.696,-5.116,13.72,-18.76,3.71
,-8.33,0.675,-5.559,-8.449,0.974,-4.903,11.06,-19.39,3.92
,-8.509,0.514,-5.389,-8.624,0.701,-5.061,9.8,-19.88,3.92
,-8.744,0.526,-5.219,-8.461,0.34,-4.917,9.8,-20.93,3.15
24835.0,-8.653,0.072,-4.633,-8.856,0.78,-4.295,6.72,-25.06,1.61
,-8.942,-0.074,-4.434,-8.748,0.818,-4.348,8.4,-26.18,1.19
,-8.947,0.182,-4.338,-8.681,0.565,-4.128,10.01,-27.09,0.35
,-8.89,0.639,-4.269,-8.753,0.311,-4.101,10.15,-27.72,-0.21
24910.0,-8.789,-0.012,-4.063,-8.725,-0.215,-3.874,-3.01,-29.33,-1.82
,-8.892,-0.093,-3.936,-9.115,0.029,-3.795,-1.12,-29.54,-1.96
,-8.835,-0.139,-3.898,-8.804,0.182,-3.776,1.75,-29.61,-1.75
,-8.837,-0.103,-3.702,-8.849,0.199,-3.405,3.99,-29.47,-1.47
24986.0,-9.06,0.574,-3.731,-8.887,0.022,-3.19,6.86,-28.91,-1.89
,-9.083,0.436,-3.565,-9.019,-0.22,-2.991,3.92,-29.19,-2.66
,-9.155,0.488,-3.53,-9.134,-0.287,-2.9,0.84,-28.84,-2.94
,-8.921,0.404,-3.51,-9.318,-0.328,-2.938,-1.89,-28.35,-3.08
25062.0,-9.222,-0.06,-2.838,-9.268,0.043,-2.402,3.08,-25.83,-2.94
,-9.172,-0.045,-2.747,-9.311,0.153,-2.544,2.1,-24.85,-2.73
,-9.162,0.002,-2.929,-9.32,0.309,-2.831,0.91,-24.36,-2.87
,-9.107,0.043,-2.58,-9.284,0.282,-2.74,0.84,-23.31,-3.15
25138.0,-9.273,0.184,-2.723,-9.332,0.108,-2.211,-1.89,-19.25,-3.22
,-9.363,0.218,-2.826,-9.428,-0.01,-2.173,-0.84,-18.69,-3.43
,-9.253,0.187,-2.79,-9.485,-0.019,-2.242,-0.07,-17.78,-3.99
,-9.277,0.134,-2.426,-9.507,-0.034,-2.379,0.21,-16.59,-4.48
25213.0,-9.435,-0.055,-2.529,-9.543,-0.246,-2.115,-2.66,-12.81,-4.13
,-9.332,-0.22,-2.69,-9.574,0.079,-2.276,-2.45,-11.69,-4.06
,-9.253,-0.39,-2.359,-9.524,0.201,-2.484,-0.28,-10.22,-3.78
,-9.385,-0.39,-2.223,-9.433,0.026,-2.754,3.36,-9.17,-3.15
25289.0,-9.366,-0.069,-2.685,-9.651,0.06,-1.778,-0.77,-7.28,-2.38
,-9.311,-0.201,-2.364,-9.701,0.242,-1.886,1.19,-6.09,-2.66
,-9.409,-0.148,-2.139,-9.682,0.144,-2.266,4.13,-4.9,-2.87
,-9.502,-0.026,-1.852,-9.433,-0.005,-2.242,4.48,-3.99,-3.08
25365.0,-9.395,-0.151,-2.611,-9.608,-0.369,-3.18,-3.22,-0.63,-3.22
,-9.313,-0.223,-2.462,-9.514,-0.354,-3.156,-1.96,0.0,-3.29
,-9.564,-0.273,-2.977,-9.469,-0.294,-3.206,-0.7,0.07,-3.36
,-9.464,-0.148,-2.795,-9.545,0.029,-3.443,-0.63,-0.07,-3.01
25441.0,-9.464,0.124,-3.228,-9.521,-0.115,-2.352,2.94,-2.03,-2.8
,-9.416,0.062,-2.883,-9.631,-0.168,-2.316,2.59,-2.31,-2.73
,-9.536,-0.002,-2.946,-9.651,-0.093,-2.474,2.31,-2.94,-3.22
,-9.485,-0.101,-2.601,-9.512,-0.074,-2.503,2.17,-2.8,-3.29
25517.0,-9.445,-0.134,-2.541,-9.581,-0.065,-2.651,0.91,-1.33,-3.22
,-9.459,-0.316,-2.398,-9.603,-0.06,-2.752,1.26,-0.56,-2.87
,-9.536,-0.349,-2.508,-9.543,-0.141,-2.912,2.87,-0.28,-2.59
,-9.548,-0.29,-2.678,-9.509,-0.172,-2.934,4.2,-0.21,-2.59
25592.0,-9.529,-0.132,-3.173,-9.445,-0.409,-2.501,4.41,-1.12,-3.08
,-9.485,-0.129,-3.206,-9.579,-0.318,-2.247,4.76,-1.54,-3.15
,-9.5,-0.16,-3.108,-9.643,-0.27,-2.45,5.67,-1.82,-2.94
,-9.464,-0.337,-2.905,-9.533,-0.407,-2.249,7.0,-2.03,-2.94
25668.0,-9.438,-0.57,-2.039,-9.505,-0.414,-1.613,5.67,-0.77,-2.31
,-9.493,-0.534,-2.111,-9.576,-0.474,-1.567,6.3,-0.42,-2.31
,-9.519,-0.481,-2.005,-9.675,-0.261,-1.61,6.44,0.35,-2.24
,-9.497,-0.402,-1.948,-9.732,-0.132,-1.821,5.74,1.54,-2.03
25743.0,-9.67,-0.05,-2.161,-9.457,-0.648,-2.852,0.35,6.79,-1.75
,-9.502,-0.115,-2.41,-9.517,-0.555,-2.895,-2.59,7.35,-1.96
,-9.39,-0.373,-2.565,-9.555,-0.424,-2.986,-3.92,7.77,-1.89
,-9.493,-0.555,-2.766,-9.55,-0.34,-3.056,-3.01,8.12,-1.68
25819.0,-9.493,-0.369,-3.104,-9.488,-0.4,-3.135,0.98,7.07,-0.56
,-9.462,-0.436,-3.082,-9.442,-0.28,-3.056,1.4,6.79,-0.35
,-9.512,-0.51,-3.099,-9.481,-0.246,-3.101,2.17,6.44,-0.21
,-9.541,-0.395,-3.175,-9.49,-0.333,-3.017,3.5,5.74,-0.07
25895.0,-9.404,-0.464,-2.9,-9.564,-0.215,-2.761,1.68,3.85,-0.35
,-9.488,-0.567,-2.816,-9.543,-0.17,-2.85,2.38,3.78,-0.21
,-9.512,-0.486,-2.682,-9.512,-0.168,-2.769,3.71,3.85,-0.07
,-9.533,-0.347,-2.62,-9.5,-0.328,-2.864,4.13,4.06,0.0
25971.0,-9.483,-0.395,-2.898,-9.493,-0.297,-2.864,-0.07,4.06,-0.77
,-9.459,-0.407,-2.867,-9.538,-0.282,-2.943,0.63,4.13,-0.49
,-9.447,-0.464,-2.85,-9.469,-0.294,-2.989,1.47,4.13,-0.35
,-9.509,-0.424,-2.781,-9.416,-0.459,-2.929,2.31,4.06,-0.28
26046.0,-9.442,-0.579,-2.898,-9.459,-0.419,-2.836,1.19,3.71,-0.42
,-9.543,-0.51,-2.989,-9.483,-0.402,-2.917,2.38,3.64,-0.28
,-9.512,-0.495,-2.946,-9.529,-0.352,-2.958,2.8,3.36,-0.21
,-9.409,-0.388,-2.881,-9.476,-0.38,-2.936,2.87,3.36,-0.07
26122.0,-9.44,-0.467,-3.008,-9.505,-0.299,-2.86,2.38,3.22,0.07
,-9.488,-0.428,-3.063,-9.512,-0.299,-2.883,2.94,3.08,0.21
,-9.488,-0.409,-3.063,-9.407,-0.254,-2.852,3.36,3.01,0.21
,-9.418,-0.38,-2.946,-9.485,-0.309,-2.886,3.36,2.94,0.28
26197.0,-9.421,-0.416,-3.001,-9.454,-0.335,-2.974,0.49,2.8,-0.14
,-9.418,-0.469,-3.039,-9.462,-0.292,-2.917,1.05,2.59,-0.14
,-9.483,-0.402,-3.022,-9.505,-0.275,-2.919,1.89,2.59,0.14
,-9.495,-0.421,-3.015,-9.471,-0.29,-2.962,2.73,2.38,0.14
26273.0,-9.474,-0.392,-3.008,-9.493,-0.558,-2.979,0.21,1.75,-0.42
,-9.409,-0.431,-3.137,-9.476,-0.407,-2.893,0.0,1.54,-0.49
,-9.395,-0.531,-3.135,-9.524,-0.246,-2.824,0.14,1.47,-0.28
,-9.423,-0.639,-3.058,-9.49,-0.194,-2.838,1.12,1.54,0.07
26349.0,-9.512,-0.242,-2.804,-9.471,-0.436,-2.958,1.05,1.61,-0.14
,-9.445,-0.335,-2.874,-9.485,-0.397,-2.998,0.42,1.54,-0.21
,-9.445,-0.445,-2.855,-9.45,-0.452,-2.97,0.7,1.54,-0.14
,-9.462,-0.452,-2.977,-9.442,-0.443,-2.91,1.47,1.68,-0.21
26425.0,-9.517,-0.436,-2.869,-9.5,-0.507,-2.934,1.82,1.82,-0.07
,-9.462,-0.426,-2.912,-9.471,-0.361,-2.979,1.82,1.82,0.07
,-9.478,-0.486,-2.871,-9.474,-0.311,-2.998,1.82,1.82,0.0
,-9.411,-0.593,-2.891,-9.423,-0.383,-2.929,2.1,1.96,0.14
26501.0,-9.481,-0.426,-2.931,-9.478,-0.45,-2.97,2.24,1.89,0.14
,-9.485,-0.424,-2.917,-9.447,-0.45,-3.039,2.59,1.82,0.07
,-9.474,-0.431,-2.955,-9.428,-0.486,-3.077,2.45,1.68,0.07
,-9.459,-0.38,-2.883,-9.466,-0.452,-3.07,2.24,1.75,0.07
26576.0,-9.466,-0.44,-3.116,-9.462,-0.471,-3.005,2.24,1.26,0.21
,-9.45,-0.421,-3.061,-9.433,-0.517,-3.034,2.52,1.12,0.28
,-9.469,-0.392,-3.039,-9.39,-0.51,-2.967,2.8,0.98,0.42
,-9.481,-0.397,-3.029,-9.466,-0.524,-2.857,3.01,0.91,0.49
26652.0,-9.495,-0.426,-2.855,-9.454,-0.457,-2.876,4.34,1.05,0.77
,-9.49,-0.357,-2.788,-9.464,-0.476,-2.962,3.92,1.05,0.77
,-9.536,-0.388,-2.79,-9.483,-0.407,-3.058,2.87,0.84,0.56
,-9.457,-0.428,-2.828,-9.476,-0.459,-3.082,2.31,1.05,0.49
26728.0,-9.397,-0.469,-3.025,-9.483,-0.316,-2.927,3.43,0.98,0.91
,-9.418,-0.514,-2.996,-9.514,-0.321,-2.984,3.85,0.98,0.98
,-9.478,-0.464,-2.962,-9.445,-0.412,-2.938,3.92,0.77,0.91
,-9.483,-0.445,-2.869,-9.418,-0.471,-2.962,3.85,0.63,0.84
26804.0,-9.44,-0.598,-2.898,-9.416,-0.366,-2.793,3.08,0.63,0.77
,-9.483,-0.577,-2.876,-9.428,-0.395,-2.759,4.2,0.63,0.91
,-9.471,-0.416,-2.848,-9.485,-0.39,-2.766,5.04,0.7,1.05
,-9.49,-0.309,-2.816,-9.485,-0.404,-2.824,4.69,0.77,1.05
26879.0,-9.462,-0.424,-2.862,-9.493,-0.373,-3.027,2.1,1.19,0.56
,-9.497,-0.428,-2.998,-9.452,-0.371,-2.962,2.24,1.47,0.49
,-9.407,-0.479,-2.991,-9.488,-0.371,-2.948,2.52,1.47,0.63
,-9.442,-0.479,-2.991,-9.462,-0.447,-2.934,2.94,1.12,0.63
26955.0,-9.471,-0.479,-2.958,-9.483,-0.452,-2.867,2.66,0.91,0.42
,-9.433,-0.462,-2.907,-9.478,-0.376,-2.8,3.01,1.12,0.63
,-9.43,-0.491,-2.917,-9.493,-0.361,-2.804,3.22,1.05,0.56
,-9.474,-0.474,-2.864,-9.469,-0.383,-2.788,3.57,1.05,0.7
27030.0,-9.521,-0.438,-2.838,-9.452,-0.541,-2.874,1.68,1.26,0.28
,-9.505,-0.443,-2.893,-9.44,-0.436,-2.826,1.33,1.47,0.28
,-9.435,-0.514,-2.867,-9.474,-0.4,-2.809,1.19,1.54,0.28
,-9.421,-0.555,-2.881,-9.49,-0.431,-2.809,1.68,1.68,0.42
27106.0,-9.505,-0.412,-2.812,-9.474,-0.548,-2.891,1.47,2.1,0.28
,-9.457,-0.395,-2.807,-9.488,-0.457,-2.886,1.12,2.17,0.28
,-9.483,-0.519,-2.86,-9.414,-0.44,-2.788,0.98,2.24,0.28
,-9.45,-0.512,-2.888,-9.447,-0.424,-2.862,1.05,2.24,0.21
27182.0,-9.483,-0.491,-2.788,-9.404,-0.658,-3.163,0.56,2.59,0.49
,-9.421,-0.438,-2.745,-9.383,-0.625,-3.106,0.49,2.38,0.49
,-9.462,-0.486,-2.953,-9.416,-0.538,-3.099,0.49,2.45,0.63
,-9.476,-0.51,-3.089,-9.454,-0.364,-3.116,0.28,2.31,0.7
27258.0,-9.466,-0.251,-3.027,-9.519,-0.392,-2.62,2.31,1.89,1.75
,-9.49,-0.244,-2.836,-9.421,-0.491,-2.51,1.05,1.82,1.61
,-9.462,-0.316,-2.625,-9.481,-0.445,-2.618,0.35,1.96,1.54
,-9.541,-0.278,-2.635,-9.466,-0.467,-2.682,-0.49,2.03,1.33
27333.0,-9.39,-0.428,-2.632,-9.301,-0.778,-2.402,-4.2,3.36,1.47
,-9.438,-0.447,-2.694,-9.39,-0.857,-2.008,-4.97,3.64,1.54
,-9.447,-0.555,-2.687,-9.416,-0.756,-1.766,-6.09,3.92,1.47
,-9.44,-0.694,-2.623,-9.428,-0.529,-1.204,-6.58,4.48,1.82
27409.0,-9.708,-0.211,-1.871,-9.189,-0.995,-1.503,-0.49,10.64,4.34
,-9.464,-0.273,-2.178,-9.442,-0.601,-1.57,-5.04,11.2,3.92
,-9.22,-0.591,-2.139,-9.454,-0.091,-1.764,-7.77,12.67,4.62
,-9.124,-0.849,-2.082,-9.359,-0.038,-1.61,-7.28,14.49,5.39
27485.0,-9.249,-0.294,-1.972,-9.567,-0.108,-4.439,-6.02,25.13,7.49
,-9.148,-1.084,-1.519,-9.134,0.215,-5.291,-7.0,27.58,8.96
,-9.268,-1.168,-1.347,-8.648,0.246,-5.714,-0.98,29.12,10.22
,-9.763,-0.749,-3.108,-8.397,0.498,-6.222,3.08,27.44,10.22
27561.0,-8.605,-0.055,-4.807,-9.94,0.536,-2.742,-1.54,20.93,7.07
,-9.055,0.036,-4.101,-9.636,0.366,-3.051,2.52,20.65,5.6
,-9.342,0.407,-3.175,-9.512,0.005,-3.726,3.43,20.65,4.13
,-9.624,0.646,-2.245,-8.978,-0.409,-4.219,2.87,20.86,3.57
27637.0,-8.557,-0.828,-4.597,-9.11,0.388,-3.307,-6.16,17.92,5.6
,-8.533,-0.828,-4.537,-9.277,0.256,-3.331,3.15,18.9,5.6
,-8.892,-0.359,-4.02,-9.268,-0.069,-3.539,13.86,19.81,4.9
,-9.028,0.218,-3.74,-9.38,-0.347,-3.711,18.48,19.74,3.64
27712.0,-9.191,-0.436,-4.195,-8.897,-1.448,-3.994,3.99,17.22,4.83
,-8.734,-0.694,-4.075,-9.014,-1.086,-3.979,1.82,16.45,4.62
,-8.464,-0.964,-3.905,-9.134,-0.512,-4.195,1.75,18.06,5.53
,-8.536,-1.452,-3.793,-8.911,0.132,-4.41,3.43,20.09,7.14
27788.0,-8.799,0.646,-4.24,-8.894,1.61,-4.975,14.91,20.65,10.22
,-9.007,1.06,-4.48,-8.6,1.256,-4.654,13.51,19.46,9.1
,-9.127,1.374,-4.587,-8.815,0.778,-4.149,11.55,17.71,7.56
,-9.203,1.689,-4.867,-8.861,0.445,-3.819,8.82,16.03,5.88
27863.0,-9.186,0.378,-3.853,-8.421,0.926,-4.458,3.08,18.69,-1.61
,-9.378,0.644,-4.054,-8.655,0.818,-4.585,3.22,15.89,-2.24
,-9.074,0.931,-4.491,-8.981,0.692,-4.774,1.19,13.72,-3.01
,-8.827,0.957,-4.611,-9.019,0.311,-4.874,-2.03,13.44,-3.85
27939.0,-8.859,-0.299,-4.637,-8.562,-1.366,-4.475,-10.5,15.89,-8.54
,-8.679,-0.943,-4.403,-8.519,-1.163,-4.46,-12.53,15.47,-7.21
,-8.6,-1.369,-4.226,-8.684,-0.782,-4.489,-10.43,15.96,-5.74
,-8.686,-1.476,-4.451,-8.928,-0.342,-4.681,-6.09,14.63,-3.71
28015.0,-8.729,0.057,-5.09,-8.732,0.175,-4.74,2.31,14.35,0.0
,-8.464,0.227,-5.293,-8.851,0.156,-4.702,-0.28,14.56,0.77
,-8.488,0.335,-5.087,-8.947,0.517,-4.934,-2.8,14.63,1.12
,-8.619,0.282,-4.949,-8.677,0.828,-5.212,-4.27,14.42,1.12
28091.0,-8.679,0.928,-5.19,-8.65,-0.124,-5.343,2.03,12.74,-2.45
,-8.835,0.828,-5.226,-8.464,-0.584,-5.37,1.12,11.76,-4.34
,-8.832,0.637,-5.248,-8.461,-1.07,-5.43,0.14,10.85,-6.02
,-8.782,0.17,-5.092,-8.555,-1.304,-5.42,-1.12,9.8,-6.3
28166.0,-8.421,-1.086,-5.494,-8.631,-1.067,-5.173,4.97,6.93,-4.41
,-8.502,-0.742,-5.284,-8.588,-1.362,-4.853,7.63,6.37,-3.71
,-8.349,-0.5,-5.441,-8.732,-1.479,-5.195,7.21,5.88,-2.31
,-8.349,-0.72,-5.219,-8.751,-0.969,-5.422,4.34,6.37,-0.35
28242.0,-8.54,-0.452,-5.616,-8.684,0.134,-5.599,14.14,5.74,3.29
,-8.404,-0.124,-5.554,-8.433,-0.239,-5.341,15.33,4.83,3.36
,-8.533,0.132,-5.678,-8.756,-0.476,-5.145,14.7,3.85,3.29
,-8.514,0.196,-5.7,-8.488,-0.701,-5.032,12.88,3.36,3.29
28317.0,-8.595,-0.689,-4.917,-8.361,0.998,-5.312,11.48,4.2,2.17
,-8.528,-0.553,-4.733,-8.722,1.067,-5.384,12.95,3.64,2.31
,-8.605,0.038,-4.97,-9.033,0.955,-5.458,12.88,2.94,2.59
,-8.634,0.727,-5.197,-8.665,0.237,-5.102,12.53,2.94,2.31
28393.0,-8.818,-0.275,-4.927,-8.507,-0.01,-5.2,12.25,3.5,-4.97
,-8.586,-0.684,-4.927,-8.574,-0.361,-5.059,14.7,3.99,-4.48
,-8.543,-0.677,-5.118,-8.617,-0.483,-5.303,16.59,4.41,-3.43
,-8.413,-0.536,-5.056,-8.634,-0.835,-5.219,17.29,4.69,-1.96
28469.0,-8.504,-0.747,-5.236,-8.722,-0.347,-5.097,9.24,1.26,2.17
,-8.478,-0.948,-5.118,-8.77,0.055,-5.307,8.54,1.82,2.59
,-8.382,-0.572,-5.26,-8.717,0.239,-5.497,9.1,1.89,2.59
,-8.502,-0.467,-5.157,-8.603,0.065,-5.475,9.24,2.31,2.31
28545.0,-8.497,-0.282,-5.609,-8.581,-0.625,-5.803,2.59,1.26,1.19
,-8.502,-0.565,-5.587,-8.524,-0.498,-5.81,1.82,1.82,1.82
,-8.598,-0.773,-5.611,-8.55,-0.476,-5.714,1.96,1.75,2.66
,-8.681,-0.792,-5.741,-8.61,-0.45,-5.602,2.59,1.47,3.08
28621.0,-8.655,-0.419,-5.382,-8.696,-0.151,-5.085,0.28,-1.89,4.83
,-8.658,-0.337,-5.389,-8.691,-0.007,-5.14,-1.68,-2.8,5.6
,-8.409,-0.407,-5.226,-8.457,0.316,-5.26,-2.59,-3.01,6.02
,-8.502,-0.23,-5.047,-8.571,0.536,-5.233,-2.73,-2.8,6.44
28696.0,-8.906,-0.048,-4.817,-8.428,0.074,-5.195,-1.89,-2.94,1.89
,-9.033,0.424,-5.051,-8.586,0.124,-5.011,-0.98,-3.08,0.7
,-8.799,0.179,-4.898,-8.717,0.184,-4.956,-1.96,-3.71,0.56
,-8.6,0.364,-5.085,-8.679,0.086,-5.068,-2.73,-4.13,0.77
28772.0,-8.502,-0.184,-5.25,-8.612,-0.859,-5.281,-7.42,-6.16,-1.33
,-8.567,-0.529,-5.128,-8.521,-0.811,-5.255,-8.61,-5.67,-0.77
,-8.655,-0.715,-5.279,-8.459,-1.041,-5.331,-7.63,-5.6,-0.63
,-8.725,-0.845,-5.226,-8.557,-1.161,-5.346,-6.58,-6.02,-0.63
28848.0,-8.76,-1.027,-5.358,-8.622,-0.101,-5.099,0.42,-7.21,2.73
,-8.746,-0.96,-5.252,-8.607,-0.022,-5.19,2.1,-8.47,3.43
,-8.737,-0.696,-5.059,-8.727,0.05,-5.104,3.01,-9.73,4.06
,-8.708,-0.357,-5.083,-8.794,0.211,-5.023,2.59,-10.92,4.55
28924.0,-8.71,0.261,-4.989,-8.916,0.175,-5.008,-1.19,-11.9,1.82
,-8.753,0.242,-4.925,-8.751,0.108,-4.812,-0.21,-10.64,0.77
,-8.871,0.285,-4.97,-8.653,-0.045,-4.685,1.19,-10.15,-0.14
,-9.009,0.244,-4.939,-8.801,-0.172,-4.666,2.45,-10.5,-0.35
28999.0,-8.859,-0.177,-4.731,-8.605,-0.369,-4.893,3.36,-14.84,-0.98
,-8.882,-0.098,-4.865,-8.784,-0.505,-4.736,4.2,-14.63,-1.26
,-8.732,0.026,-5.011,-8.686,-0.455,-4.683,4.55,-13.93,-1.61
,-8.641,-0.105,-4.977,-8.72,-0.45,-4.664,4.69,-12.25,-1.82
29075.0,-8.78,-0.337,-4.685,-8.837,-0.299,-4.31,8.05,-12.53,-0.7
,-8.794,-0.352,-4.578,-8.617,-0.091,-4.279,8.61,-12.11,-0.14
,-8.837,-0.318,-4.594,-8.988,-0.266,-4.353,8.82,-12.39,0.28
,-8.705,-0.345,-4.489,-9.014,-0.574,-4.31,8.68,-11.62,0.84
29150.0,-8.76,-0.637,-4.195,-8.976,-0.407,-3.903,9.17,-14.07,3.92
,-8.725,-0.639,-4.171,-9.007,-0.158,-3.798,10.78,-13.86,4.69
,-8.732,-0.723,-4.049,-9.002,0.034,-3.738,12.88,-13.58,5.6
,-8.899,-0.57,-3.994,-9.002,0.203,-3.743,16.03,-13.37,6.44
29226.0,-9.033,0.29,-3.695,-9.083,0.227,-3.333,10.64,-14.91,6.79
,-9.007,0.187,-3.668,-9.208,0.194,-3.702,7.77,-15.33,6.09
,-9.067,0.153,-3.592,-9.124,0.091,-3.738,6.02,-15.33,5.74
,-7.93,0.208,-6.255,-9.203,0.249,-3.81,5.39,-17.5,5.53
29302.0,-9.182,0.316,-3.709,-9.225,-0.096,-3.305,6.93,-19.04,2.31
,-9.093,0.194,-3.685,-9.313,-0.22,-3.23,5.04,-19.04,1.61
,-9.048,0.22,-3.599,-9.191,-0.127,-3.388,2.8,-18.76,1.05
,-9.095,0.029,-3.326,-9.115,-0.055,-3.262,1.54,-18.48,0.84
29378.0,-9.167,-0.208,-3.187,-9.139,-0.534,-3.302,-2.45,-17.85,0.35
,-9.251,-0.235,-3.269,-9.074,-0.771,-2.938,-0.98,-18.2,-0.07
,-9.332,-0.203,-3.374,-9.225,-0.608,-2.742,-0.07,-18.55,-0.77
,-9.27,-0.345,-3.372,-9.363,-0.323,-2.45,-0.28,-18.27,-0.91
29453.0,-9.447,0.06,-2.596,-9.208,-0.031,-2.737,11.27,-14.98,0.77
,-9.541,0.378,-3.027,-9.332,0.057,-2.424,7.14,-15.05,0.49
,-9.316,0.328,-3.013,-9.495,0.266,-2.635,1.89,-14.56,0.28
,-9.162,0.146,-2.824,-9.483,0.416,-2.391,-0.56,-13.44,0.28
29529.0,-9.514,0.562,-2.548,-9.375,-0.675,-2.79,-0.42,-10.57,-2.94
,-9.512,0.323,-2.754,-9.349,-0.739,-3.005,-4.13,-10.29,-3.57
,-9.493,-0.002,-2.848,-9.351,-0.433,-3.128,-6.44,-9.8,-3.85
,-9.337,-0.395,-2.8,-9.342,-0.251,-2.991,-7.0,-8.96,-3.78
29605.0,-9.282,-0.103,-2.807,-9.682,0.208,-2.261,0.98,-7.56,-3.36
,-9.253,-0.33,-1.998,-9.529,0.199,-2.51,0.91,-5.81,-3.01
,-9.507,-0.206,-1.869,-9.435,-0.048,-2.714,2.87,-5.04,-2.87
,-9.655,0.0,-1.886,-9.409,-0.251,-3.252,2.03,-4.76,-3.36
29681.0,-9.296,-0.299,-3.221,-9.636,0.005,-3.534,-5.39,-3.5,-3.71
,-9.261,-0.373,-2.773,-9.409,-0.112,-3.314,-1.89,-2.66,-3.08
,-9.519,-0.385,-3.051,-9.38,-0.376,-2.998,0.91,-3.08,-3.29
,-9.56,-0.179,-3.077,-9.481,-0.452,-3.271,1.33,-3.85,-3.92
29757.0,-9.445,-0.342,-3.338,-9.383,-0.385,-2.094,1.96,-6.09,-4.27
,-9.519,-0.345,-2.919,-9.658,-0.213,-2.036,3.22,-6.37,-4.13
,-9.526,-0.282,-3.046,-9.663,-0.002,-2.288,3.01,-6.37,-3.78
,-9.416,-0.412,-2.692,-9.541,-0.05,-2.168,3.5,-6.16,-3.57
29832.0,-9.49,-0.251,-2.065,-9.608,-0.541,-1.823,0.14,-3.29,-3.78
,-9.464,-0.601,-2.008,-9.615,-0.33,-1.799,0.14,-2.17,-3.5
,-9.428,-0.785,-1.914,-9.622,-0.251,-1.948,2.59,-1.05,-3.22
,-9.474,-0.668,-1.776,-9.574,-0.27,-2.113,4.9,0.07,-2.87
29908.0,-9.507,-0.404,-2.364,-9.493,-0.524,-2.637,-0.49,4.76,-2.73
,-9.45,-0.548,-2.515,-9.502,-0.447,-2.68,-0.91,5.32,-2.52
,-9.457,-0.543,-2.611,-9.433,-0.572,-2.431,0.49,5.74,-2.38
,-9.459,-0.577,-2.644,-9.447,-0.57,-2.352,2.1,6.16,-2.24
29983.0,-9.548,-0.471,-2.388,-9.445,-0.735,-2.862,2.59,7.7,-1.33
,-9.619,-0.29,-2.716,-9.584,-0.579,-3.23,2.03,7.77,-1.54
,-9.485,-0.333,-2.845,-9.517,-0.28,-3.271,-0.35,7.98,-1.61
,-9.356,-0.641,-2.764,-9.395,-0.323,-3.273,-1.68,8.4,-1.26
30059.0,-9.402,-0.328,-3.202,-9.409,-0.553,-2.936,0.56,6.86,-1.26
,-9.49,-0.424,-3.245,-9.49,-0.529,-2.9,1.33,6.16,-1.12
,-9.495,-0.438,-3.336,-9.5,-0.443,-2.804,2.1,5.25,-1.19
,-9.363,-0.457,-3.063,-9.471,-0.414,-2.675,2.73,5.11,-0.98
30135.0,-9.502,-0.447,-2.728,-9.497,-0.507,-2.613,4.13,5.32,-0.07
,-9.423,-0.507,-2.654,-9.433,-0.431,-2.627,3.78,5.67,-0.14
,-9.462,-0.44,-2.603,-9.536,-0.385,-2.766,3.43,5.81,-0.21
,-9.507,-0.481,-2.647,-9.536,-0.328,-3.008,2.8,6.23,-0.35
30211.0,-9.385,-0.433,-3.159,-9.402,-0.651,-3.604,-2.17,6.79,-1.05
,-9.366,-0.596,-3.336,-9.368,-0.601,-3.553,-2.52,6.37,-0.98
,-9.375,-0.658,-3.451,-9.366,-0.581,-3.417,-1.61,6.02,-0.91
,-9.32,-0.632,-3.518,-9.397,-0.663,-3.29,0.0,5.67,-0.56
30286.0,-9.385,-0.61,-3.199,-9.447,-0.447,-2.831,2.52,3.15,0.21
,-9.368,-0.584,-3.051,-9.469,-0.443,-2.864,3.01,3.08,0.42
,-9.466,-0.505,-2.967,-9.457,-0.538,-2.943,3.29,2.87,0.49
,-9.44,-0.479,-2.883,-9.385,-0.558,-3.015,3.01,3.01,0.56
30362.0,-9.294,-0.658,-3.017,-9.445,-0.297,-3.199,1.12,3.71,0.7
,-9.359,-0.68,-3.065,-9.366,-0.292,-3.29,1.61,3.92,0.91
,-9.457,-0.62,-3.092,-9.43,-0.383,-3.357,2.24,4.06,1.05
,-9.471,-0.469,-3.135,-9.323,-0.524,-3.319,2.31,3.78,0.98
30438.0,-9.342,-0.589,-3.329,-9.404,-0.318,-3.228,1.05,2.73,0.98
,-9.351,-0.534,-3.285,-9.368,-0.376,-3.137,2.87,2.38,1.12
,-9.454,-0.436,-3.25,-9.383,-0.464,-3.056,3.71,2.24,1.12
,-9.428,-0.313,-3.166,-9.418,-0.507,-3.065,3.5,1.96,1.12
30514.0,-9.43,-0.565,-3.029,-9.416,-0.438,-3.077,1.26,1.54,0.56
,-9.409,-0.553,-3.008,-9.349,-0.409,-3.065,1.89,1.61,0.7
,-9.383,-0.526,-3.005,-9.399,-0.447,-3.08,2.59,1.96,0.84
,-9.407,-0.464,-3.044,-9.454,-0.426,-3.161,2.8,1.82,0.84
30590.0,-9.45,-0.452,-3.19,-9.426,-0.4,-3.216,2.17,2.1,0.77
,-9.395,-0.424,-3.214,-9.452,-0.397,-3.123,2.59,1.96,0.63
,-9.399,-0.424,-3.271,-9.442,-0.38,-3.125,3.01,2.1,0.84
,-9.373,-0.443,-3.187,-9.423,-0.467,-3.111,3.57,1.82,0.84
30665.0,-9.387,-0.419,-3.132,-9.428,-0.493,-3.058,2.94,1.47,0.7
,-9.38,-0.512,-3.13,-9.378,-0.428,-3.089,2.87,1.54,0.7
,-9.373,-0.558,-3.108,-9.404,-0.4,-3.108,3.01,1.54,0.7
,-9.368,-0.555,-3.08,-9.428,-0.438,-3.104,3.22,1.4,0.63
30741.0,-9.409,-0.421,-3.163,-9.414,-0.512,-3.218,2.38,1.54,0.56
,-9.39,-0.459,-3.195,-9.378,-0.483,-3.185,2.38,1.47,0.49
,-9.414,-0.438,-3.211,-9.44,-0.445,-3.154,2.45,1.19,0.49
,-9.375,-0.45,-3.259,-9.433,-0.45,-3.13,2.59,0.98,0.42
30816.0,-9.397,-0.471,-3.094,-9.378,-0.522,-3.032,2.8,0.77,0.56
,-9.409,-0.507,-3.032,-9.368,-0.495,-3.01,2.94,0.84,0.63
,-9.395,-0.522,-3.037,-9.411,-0.488,-3.015,3.01,1.05,0.63
,-9.395,-0.51,-2.931,-9.44,-0.45,-3.039,3.36,1.26,0.77
30892.0,-9.447,-0.481,-3.087,-9.474,-0.426,-3.221,2.38,1.33,0.49
,-9.371,-0.486,-3.13,-9.383,-0.452,-3.221,2.17,1.33,0.49
,-9.356,-0.524,-3.199,-9.426,-0.464,-3.206,2.31,1.4,0.63
,-9.404,-0.524,-3.183,-9.39,-0.445,-3.305,2.66,1.33,0.7
30968.0,-9.371,-0.474,-3.202,-9.426,-0.51,-3.068,2.45,0.63,0.56
,-9.308,-0.51,-3.163,-9.433,-0.45,-3.056,2.59,0.42,0.63
,-9.34,-0.562,-3.154,-9.378,-0.5,-3.049,2.8,0.35,0.77
,-9.407,-0.572,-3.089,-9.361,-0.55,-3.08,3.43,0.49,0.84
31044.0,-9.395,-0.503,-3.142,-9.385,-0.443,-3.123,2.38,0.56,0.91
,-9.44,-0.486,-3.106,-9.368,-0.45,-3.147,2.38,0.56,0.91
,-9.433,-0.476,-3.12,-9.395,-0.483,-3.092,2.31,0.56,0.84
,-9.349,-0.483,-3.125,-9.411,-0.524,-3.147,2.45,0.63,0.84
31119.0,-9.392,-0.531,-3.147,-9.457,-0.424,-3.034,2.17,0.56,0.91
,-9.402,-0.474,-3.13,-9.445,-0.407,-3.034,2.59,0.42,0.98
,-9.368,-0.464,-3.08,-9.404,-0.514,-3.034,2.94,0.28,0.98
,-9.414,-0.519,-3.044,-9.375,-0.634,-3.017,3.5,0.42,1.05
31195.0,-9.38,-0.677,-3.061,-9.421,-0.38,-2.965,3.22,0.56,1.12
,-9.402,-0.541,-3.022,-9.445,-0.412,-2.967,4.06,0.63,1.19
,-9.399,-0.438,-2.998,-9.402,-0.424,-2.953,3.92,0.7,1.19
,-9.426,-0.383,-2.962,-9.354,-0.536,-2.91,3.29,0.77,1.26
31271.0,-9.445,-0.56,-3.015,-9.438,-0.44,-2.852,2.17,1.26,1.19
,-9.423,-0.467,-2.881,-9.466,-0.474,-3.082,3.08,1.68,1.19
,-9.445,-0.4,-3.049,-9.397,-0.543,-2.984,2.73,1.75,1.26
,-9.445,-0.388,-2.965,-9.397,-0.534,-2.905,1.96,1.68,1.26
31347.0,-9.375,-0.546,-2.931,-9.497,-0.383,-3.125,0.28,2.31,0.77
,-9.442,-0.522,-3.089,-9.416,-0.4,-3.065,0.84,2.52,0.84
,-9.478,-0.419,-2.929,-9.421,-0.526,-3.139,0.98,2.52,0.98
,-9.435,-0.357,-2.986,-9.395,-0.584,-3.068,0.49,2.66,0.91
31422.0,-9.497,-0.593,-3.116,-9.38,-0.503,-3.484,1.05,2.8,1.12
,-9.445,-0.457,-3.321,-9.385,-0.514,-3.477,1.4,2.59,1.19
,-9.409,-0.438,-3.36,-9.351,-0.51,-3.534,0.91,2.24,1.19
,-9.328,-0.471,-3.422,-9.423,-0.495,-3.482,0.7,1.89,1.26
31498.0,-9.418,-0.421,-3.374,-9.354,-0.481,-3.228,2.8,-0.42,1.82
,-9.447,-0.498,-3.326,-9.43,-0.541,-3.163,2.87,-0.91,1.89
,-9.371,-0.447,-3.336,-9.445,-0.5,-3.13,2.8,-1.19,1.96
,-9.366,-0.428,-3.24,-9.399,-0.457,-2.991,2.38,-1.33,1.96
31573.0,-9.416,-0.464,-2.833,-9.442,-0.249,-2.41,2.1,-1.68,2.73
,-9.457,-0.431,-2.699,-9.517,-0.268,-2.553,1.89,-1.05,2.87
,-9.414,-0.404,-2.594,-9.483,-0.38,-2.565,1.26,-0.56,2.94
,-9.38,-0.357,-2.458,-9.457,-0.364,-2.635,0.7,-0.07,2.94
31649.0,-9.387,-0.349,-2.728,-9.483,-0.321,-2.149,-4.41,2.1,2.31
,-9.387,-0.285,-2.721,-9.646,-0.103,-2.434,-4.76,2.66,2.31
,-9.366,-0.321,-2.572,-9.598,-0.079,-2.654,-5.39,3.22,2.24
,-9.411,-0.349,-2.426,-9.524,-0.184,-3.123,-5.95,3.92,2.31
31725.0,-9.244,-0.567,-3.211,-9.497,-0.227,-2.886,-11.06,6.23,2.8
,-9.16,-0.766,-3.317,-9.478,-0.06,-2.644,-8.33,6.37,3.29
,-9.253,-0.711,-3.13,-9.442,-0.101,-2.333,-2.73,6.93,3.85
,-9.361,-0.445,-3.123,-9.342,-0.206,-1.898,1.89,7.21,3.85
31801.0,-9.277,-0.416,-1.639,-9.5,-0.357,-3.125,-0.84,11.55,3.85
,-9.33,-0.603,-1.323,-9.234,-0.476,-3.508,1.33,13.72,4.55
,-9.442,-0.625,-1.893,-8.964,-0.651,-3.702,1.96,14.63,4.83
,-9.421,-0.376,-2.012,-8.748,-0.787,-3.376,1.89,15.54,4.9
31877.0,-8.976,-0.701,-2.905,-9.777,0.909,-2.544,6.23,19.32,6.58
,-9.122,-0.134,-2.41,-9.385,0.364,-2.697,12.11,19.81,5.32
,-9.261,0.629,-1.747,-8.909,-0.392,-2.771,14.49,20.86,3.71
,-9.713,0.979,-2.185,-8.665,-0.737,-2.225,9.17,20.37,1.47
31952.0,-8.949,-0.421,-2.123,-9.095,-1.216,-3.68,0.98,27.3,1.82
,-9.186,0.177,-2.601,-8.777,-1.701,-3.934,4.62,27.09,0.28
,-9.351,0.347,-3.154,-8.976,-1.955,-3.592,0.28,26.6,-0.35
,-9.179,-0.239,-3.379,-9.167,-1.457,-4.058,-7.7,27.58,0.63
32028.0,-8.851,-0.68,-4.228,-8.756,0.45,-5.205,8.47,25.9,6.44
,-8.703,-0.091,-4.618,-8.904,0.34,-5.104,7.49,24.22,6.65
,-8.502,0.148,-4.795,-9.21,0.266,-4.999,5.46,24.92,7.0
,-8.662,0.089,-4.879,-9.06,0.223,-4.879,4.83,26.18,7.7
32104.0,-8.83,-0.01,-4.666,-8.818,0.483,-4.939,5.39,23.94,5.18
,-8.985,-0.077,-4.537,-8.768,0.51,-4.793,7.35,23.59,5.6
,-9.184,-0.089,-4.69,-8.923,0.572,-4.764,7.98,20.09,5.32
,-8.93,0.256,-4.841,-8.902,0.486,-4.819,9.17,17.5,4.9
32180.0,-8.875,0.28,-4.805,-8.866,-0.342,-4.544,2.59,16.1,1.54
,-8.873,-0.122,-4.769,-8.976,0.098,-4.582,0.77,15.96,1.4
,-8.82,-0.369,-4.657,-8.88,0.309,-4.98,0.49,16.24,1.61
,-8.942,-0.491,-4.57,-8.701,0.225,-5.018,1.89,15.96,1.68
32255.0,-8.583,0.108,-5.135,-8.806,0.108,-4.838,-2.66,10.08,3.71
,-8.559,-0.048,-5.059,-9.122,-0.261,-4.614,-2.52,11.48,3.15
,-8.705,0.16,-5.008,-8.981,-0.56,-4.781,0.49,12.11,2.1
,-8.799,0.187,-4.999,-8.753,-0.45,-4.996,1.61,11.62,0.84
32331.0,-8.54,-0.306,-5.176,-8.875,0.634,-4.515,-0.7,5.25,4.9
,-8.394,-0.048,-5.121,-8.902,0.718,-4.642,1.26,5.95,4.69
,-8.531,0.16,-4.927,-8.918,0.737,-4.795,1.96,6.93,3.78
,-8.646,0.383,-4.707,-8.792,0.859,-4.917,1.89,8.19,3.01
32406.0,-8.603,1.036,-5.205,-8.684,-0.072,-4.372,0.84,6.3,-1.4
,-8.55,0.94,-4.992,-8.504,-0.512,-4.542,2.17,6.65,-3.57
,-8.878,0.55,-4.561,-8.583,-1.067,-4.566,3.29,7.0,-5.32
,-9.024,0.225,-4.338,-8.538,-1.297,-4.925,3.29,6.23,-6.37
32482.0,-8.478,-1.225,-5.229,-8.777,-1.237,-5.123,6.93,9.52,-0.63
,-8.528,-1.445,-5.116,-8.67,-1.225,-5.128,8.26,9.59,0.7
,-8.54,-1.369,-5.126,-8.547,-1.005,-4.977,10.01,9.17,1.61
,-8.65,-1.283,-5.219,-8.524,-0.821,-4.982,11.69,9.03,2.31
32558.0,-8.461,-0.407,-5.097,-8.655,0.684,-4.984,16.94,9.1,6.79
,-8.49,0.043,-5.152,-8.837,1.35,-5.54,17.43,9.1,6.51
,-9.038,0.376,-4.865,-8.693,0.897,-5.358,17.01,8.33,5.88
,-8.672,0.629,-5.063,-8.603,0.699,-5.336,15.82,7.56,5.39
32634.0,-8.957,0.328,-5.279,-8.629,-0.318,-5.106,8.47,3.71,1.05
,-8.449,-0.644,-4.944,-8.595,-0.151,-5.209,7.07,3.99,1.61
,-8.748,-0.916,-4.846,-8.449,-0.117,-5.319,7.91,4.06,2.31
,-8.732,-0.775,-5.03,-8.421,0.244,-5.425,11.13,3.36,2.66
32710.0,-8.555,0.627,-5.516,-8.598,-0.555,-5.437,8.47,3.22,3.57
,-8.729,0.359,-5.358,-8.32,-0.352,-5.628,6.23,2.87,2.87
,-8.835,0.273,-5.458,-8.449,0.299,-5.568,3.92,2.03,1.89
,-8.782,-0.299,-5.449,-8.751,0.723,-5.765,2.38,1.82,2.1
32785.0,-8.844,0.701,-5.729,-8.478,-0.328,-5.631,2.59,1.89,0.98
,-8.897,0.328,-5.525,-8.71,-0.227,-5.549,-0.77,1.4,0.91
,-8.653,-0.127,-5.487,-8.679,-0.043,-5.492,-3.5,0.35,1.54
,-8.39,-0.292,-5.683,-8.619,-0.153,-5.456,-4.48,-0.21,1.82
32861.0,-8.674,0.158,-5.401,-8.851,0.218,-5.475,-3.99,-2.8,2.24
,-8.672,-0.045,-5.25,-8.717,-0.189,-5.173,-6.02,-3.43,2.38
,-8.703,0.23,-5.43,-8.603,-1.378,-4.798,-6.3,-3.99,1.82
,-8.777,0.349,-5.47,-8.765,-0.12,-5.13,-6.86,-4.62,1.4
32937.0,-8.65,0.165,-5.145,-8.894,0.474,-5.133,-2.45,-7.07,0.91
,-8.66,0.369,-5.15,-8.717,-0.072,-5.099,-2.87,-7.42,0.42
,-8.746,0.376,-4.975,-8.65,-0.426,-5.279,-4.76,-7.28,-0.42
,-8.875,0.55,-5.001,-8.696,-0.663,-5.257,-6.86,-7.42,-0.98
33013.0,-8.665,-0.897,-5.054,-8.765,-0.531,-5.365,-8.33,-7.91,0.56
,-8.629,-0.9,-5.135,-8.677,-0.349,-5.358,-6.37,-8.75,1.12
,-8.473,-0.826,-5.286,-8.605,-0.254,-5.26,-4.27,-8.96,1.96
,-8.624,-0.938,-5.284,-8.67,-0.208,-5.063,-2.1,-9.24,3.08
33088.0,-8.66,-0.048,-4.992,-8.856,0.704,-5.008,7.49,-7.77,3.78
,-8.727,0.139,-4.865,-8.909,0.529,-4.803,7.56,-8.19,3.92
,-8.794,0.538,-4.922,-8.954,0.235,-4.628,7.49,-8.89,3.36
,-8.988,0.816,-4.975,-8.849,0.062,-4.759,5.88,-10.15,1.82
33164.0,-8.653,0.079,-4.822,-8.67,0.325,-4.755,-0.35,-14.91,-1.05
,-8.782,0.024,-4.738,-8.679,0.024,-4.733,1.4,-15.4,-0.98
,-8.894,0.256,-4.683,-8.777,-0.215,-4.75,3.08,-16.66,-1.26
,-8.775,0.479,-4.762,-8.677,-0.395,-4.836,3.57,-16.52,-1.47
33239.0,-8.737,-0.39,-4.609,-8.859,0.024,-4.31,7.42,-10.85,-1.33
,-8.849,-0.426,-4.365,-8.725,-0.256,-4.3,9.31,-10.78,-0.91
,-8.923,-0.292,-4.36,-8.935,-0.098,-4.245,10.29,-12.32,-0.42
,-8.949,-0.141,-4.448,-8.921,-0.28,-4.252,10.01,-14.28,0.28
33315.0,-8.823,-0.034,-4.204,-9.088,0.258,-4.025,10.15,-14.77,2.31
,-8.782,0.074,-4.113,-9.014,0.06,-3.972,11.69,-14.0,2.52
,-8.825,0.196,-4.085,-8.966,-0.057,-3.891,13.02,-12.81,2.59
,-8.957,0.292,-3.963,-8.894,0.074,-3.618,13.93,-12.32,2.52
33391.0,-9.05,0.266,-3.623,-8.545,0.112,-3.309,14.35,-12.18,2.31
,-9.093,0.424,-3.482,-9.201,-0.397,-3.233,13.44,-12.74,1.68
,-9.112,0.479,-3.455,-9.06,-0.498,-3.441,10.43,-12.88,1.54
,-9.033,0.345,-3.47,-9.265,-0.433,-3.484,5.88,-13.23,1.61
33467.0,-9.375,-0.156,-3.884,-9.043,-0.34,-3.317,7.84,-16.94,2.03
,-9.15,-0.153,-3.963,-9.28,-0.017,-3.269,6.3,-17.5,2.1
,-8.964,-0.278,-3.812,-9.217,0.579,-3.317,5.32,-17.15,2.24
,-8.933,-0.323,-3.563,-9.22,0.861,-3.362,5.6,-16.59,2.03
33542.0,-9.215,0.759,-3.281,-9.311,-0.093,-2.706,0.35,-15.68,-0.42
,-9.256,0.464,-3.257,-9.402,-0.005,-2.771,-2.31,-15.4,-1.12
,-9.244,0.266,-2.996,-9.284,-0.002,-2.759,-2.66,-14.7,-1.89
,-9.244,0.06,-2.714,-9.294,-0.141,-2.819,-1.33,-14.14,-2.31
33618.0,-9.241,-0.175,-2.793,-9.203,0.048,-3.305,-1.05,-11.27,-2.87
,-9.277,-0.213,-2.984,-9.22,-0.313,-2.979,-0.49,-10.92,-3.22
,-9.395,0.014,-3.19,-9.342,-0.421,-2.67,-0.49,-10.85,-3.57
,-9.275,0.232,-3.254,-9.536,-0.306,-2.907,-1.82,-10.92,-3.92
33693.0,-9.368,-0.089,-2.687,-9.368,-0.266,-3.108,2.31,-8.19,-3.43
,-9.423,-0.06,-3.053,-9.438,-0.067,-3.396,1.12,-7.98,-2.73
,-9.27,-0.122,-3.276,-9.375,-0.057,-3.352,-0.56,-7.98,-2.45
,-9.17,-0.316,-2.974,-9.361,-0.278,-3.273,0.14,-7.07,-1.96
33769.0,-9.206,-0.548,-2.967,-9.385,-0.136,-2.747,-0.56,-7.28,-2.45
,-9.421,-0.66,-2.637,-9.347,-0.266,-3.056,2.8,-6.58,-2.24
,-9.605,-0.364,-2.668,-9.239,-0.316,-2.759,4.97,-6.51,-2.45
,-9.586,-0.127,-2.773,-9.423,-0.084,-2.931,3.57,-6.37,-2.31
33845.0,-9.481,0.191,-2.938,-9.368,-0.026,-3.12,4.9,-5.46,-2.03
,-9.481,0.347,-2.783,-9.395,-0.179,-2.938,3.71,-5.18,-2.38
,-9.452,0.383,-3.099,-9.409,-0.213,-2.982,0.84,-5.67,-2.94
,-9.404,0.105,-2.97,-9.409,-0.191,-2.938,-1.12,-5.53,-3.29
33921.0,-9.407,-0.246,-2.639,-9.474,-0.596,-2.343,-0.07,-5.46,-3.78
,-9.552,-0.215,-2.637,-9.454,-0.522,-2.417,-0.35,-5.18,-4.06
,-9.497,-0.266,-2.666,-9.476,-0.409,-2.245,-1.96,-5.25,-4.34
,-9.438,-0.452,-2.517,-9.464,-0.218,-2.111,-3.15,-4.41,-3.85
33997.0,-9.502,-0.244,-2.041,-9.66,-0.072,-2.637,5.11,0.07,-1.75
,-9.55,-0.278,-2.046,-9.387,-0.225,-2.666,5.18,0.77,-1.82
,-9.488,-0.16,-2.003,-9.316,-0.366,-2.532,5.25,1.82,-1.75
,-9.588,-0.062,-2.127,-9.464,-0.364,-2.694,4.48,2.73,-2.03
34072.0,-9.569,-0.273,-2.891,-9.375,-0.495,-3.13,1.54,4.48,-2.66
,-9.55,-0.048,-2.917,-9.342,-0.517,-3.094,0.84,4.27,-2.73
,-9.421,-0.108,-3.013,-9.421,-0.483,-3.209,-1.33,4.06,-2.94
,-9.363,-0.359,-3.051,-9.44,-0.436,-3.18,-2.66,4.06,-2.8
34148.0,-9.507,-0.371,-3.336,-9.426,-0.574,-2.984,-0.98,2.52,-2.17
,-9.409,-0.333,-3.319,-9.509,-0.436,-3.037,-1.61,2.1,-2.1
,-9.395,-0.357,-3.233,-9.421,-0.378,-2.974,-1.54,1.89,-1.82
,-9.383,-0.414,-3.139,-9.428,-0.469,-2.718,-0.63,2.1,-1.47
34224.0,-9.519,-0.402,-2.721,-9.426,-0.395,-2.946,4.97,2.1,-0.35
,-9.569,-0.328,-2.852,-9.45,-0.519,-3.02,5.32,1.96,-0.56
,-9.502,-0.23,-2.836,-9.418,-0.591,-2.967,4.55,1.89,-0.63
,-9.481,-0.275,-2.867,-9.44,-0.481,-2.79,3.71,2.03,-0.63
34300.0,-9.469,-0.28,-2.867,-9.548,-0.438,-2.67,9.24,2.24,0.21
,-9.471,-0.275,-2.85,-9.541,-0.323,-2.723,8.05,2.03,0.0
,-9.387,-0.323,-2.752,-9.462,-0.359,-2.867,6.86,2.52,0.07
,-9.45,-0.414,-2.649,-9.411,-0.462,-2.831,5.95,3.08,0.07
34375.0,-9.38,-0.548,-2.764,-9.378,-0.302,-3.309,6.09,3.92,0.21
,-9.505,-0.369,-2.802,-9.299,-0.541,-3.446,6.86,4.06,0.21
,-9.596,-0.184,-2.986,-9.299,-0.641,-3.486,6.3,3.99,0.0
,-9.505,-0.175,-3.187,-9.418,-0.505,-3.479,4.06,3.78,-0.28
34451.0,-9.416,-0.507,-3.242,-9.505,-0.309,-2.869,5.95,1.75,-0.07
,-9.375,-0.522,-3.008,-9.505,-0.347,-2.965,5.81,1.61,0.14
,-9.426,-0.538,-2.852,-9.426,-0.507,-2.962,5.6,1.68,0.21
,-9.519,-0.44,-2.814,-9.435,-0.574,-3.046,5.74,1.68,0.14
34526.0,-9.447,-0.581,-3.034,-9.471,-0.254,-2.812,3.57,1.75,0.28
,-9.383,-0.507,-3.015,-9.55,-0.23,-2.886,4.48,1.82,0.56
,-9.395,-0.457,-2.898,-9.462,-0.373,-3.01,4.9,1.89,0.63
,-9.438,-0.316,-2.857,-9.43,-0.572,-3.077,4.97,2.1,0.84
34602.0,-9.399,-0.629,-3.187,-9.495,-0.282,-3.118,0.98,1.96,0.14
,-9.43,-0.591,-3.197,-9.464,-0.349,-3.044,2.31,1.68,0.35
,-9.442,-0.419,-3.247,-9.402,-0.416,-3.01,3.15,1.68,0.63
,-9.421,-0.361,-3.092,-9.43,-0.558,-2.984,3.22,1.47,0.7
34678.0,-9.414,-0.529,-2.936,-9.507,-0.292,-2.919,2.87,0.98,0.77
,-9.44,-0.457,-2.869,-9.411,-0.376,-2.967,3.71,1.12,0.77
,-9.49,-0.424,-2.831,-9.433,-0.452,-3.025,3.5,1.33,0.84
,-9.483,-0.345,-2.795,-9.438,-0.462,-3.125,2.87,1.68,0.84
34754.0,-9.407,-0.404,-3.092,-9.392,-0.428,-3.01,2.17,1.54,0.7
,-9.404,-0.436,-3.111,-9.433,-0.447,-2.972,2.8,1.4,0.84
,-9.469,-0.447,-3.034,-9.433,-0.5,-2.958,3.01,1.4,0.84
,-9.45,-0.409,-3.053,-9.428,-0.464,-2.953,2.87,1.26,0.77
34830.0,-9.421,-0.464,-2.922,-9.43,-0.385,-3.082,2.38,1.12,0.77
,-9.433,-0.419,-2.941,-9.418,-0.397,-3.087,2.31,1.19,0.77
,-9.442,-0.426,-2.936,-9.418,-0.455,-3.087,2.52,1.26,0.77
,-9.507,-0.402,-3.034,-9.416,-0.469,-3.01,2.52,1.19,0.63
34905.0,-9.418,-0.388,-2.938,-9.478,-0.385,-2.9,2.8,1.12,0.91
,-9.485,-0.392,-2.905,-9.397,-0.474,-2.948,2.66,1.26,0.91
,-9.493,-0.409,-2.9,-9.402,-0.519,-3.037,2.45,1.19,0.84
,-9.445,-0.369,-2.922,-9.421,-0.467,-3.017,1.96,1.12,0.63
34981.0,-9.454,-0.416,-3.029,-9.462,-0.364,-3.12,2.87,1.4,1.12
,-9.464,-0.424,-3.039,-9.411,-0.39,-3.104,3.01,1.4,1.12
,-9.421,-0.419,-2.967,-9.433,-0.471,-3.101,2.94,1.33,1.05
,-9.452,-0.392,-3.063,-9.466,-0.493,-3.113,2.66,1.12,0.91
35057.0,-9.397,-0.507,-3.044,-9.426,-0.349,-2.986,2.73,0.7,1.05
,-9.421,-0.443,-2.979,-9.414,-0.486,-2.97,3.01,0.7,1.19
,-9.464,-0.38,-3.025,-9.466,-0.524,-2.96,3.36,0.49,1.12
,-9.478,-0.313,-3.039,-9.442,-0.409,-2.989,2.87,0.42,0.98
35133.0,-9.49,-0.357,-2.948,-9.435,-0.51,-2.929,2.8,0.42,1.05
,-9.493,-0.349,-3.001,-9.457,-0.479,-2.917,2.24,0.14,0.98
,-9.428,-0.414,-3.003,-9.476,-0.438,-2.898,1.82,0.07,0.84
,-9.445,-0.407,-2.982,-9.5,-0.354,-2.943,1.82,0.21,0.91
35208.0,-9.452,-0.337,-2.955,-9.497,-0.397,-2.991,1.75,0.49,0.91
,-9.433,-0.388,-2.986,-9.466,-0.395,-2.924,1.54,0.42,0.91
,-9.442,-0.414,-2.994,-9.469,-0.421,-2.903,1.75,0.35,0.91
,-9.435,-0.447,-2.972,-9.485,-0.462,-2.855,2.38,0.28,0.98
35284.0,-9.466,-0.412,-2.855,-9.44,-0.428,-2.812,2.31,0.56,0.98
,-9.445,-0.34,-2.816,-9.469,-0.447,-2.797,1.82,0.77,0.77
,-9.457,-0.335,-2.862,-9.45,-0.447,-2.881,0.77,0.84,0.56
,-9.464,-0.366,-2.855,-9.476,-0.421,-2.955,-0.07,0.98,0.49
35359.0,-9.526,-0.371,-2.955,-9.485,-0.455,-3.029,1.75,1.33,0.84
,-9.5,-0.304,-2.919,-9.407,-0.471,-2.934,1.47,1.33,0.91
,-9.418,-0.357,-3.123,-9.423,-0.474,-2.998,0.77,1.33,0.84
,-9.423,-0.459,-3.092,-9.469,-0.522,-2.986,0.35,0.98,0.77
35435.0,-9.421,-0.464,-2.994,-9.471,-0.244,-2.843,1.54,0.56,1.33
,-9.361,-0.407,-2.867,-9.471,-0.17,-2.711,1.75,0.49,1.26
,-9.481,-0.397,-3.003,-9.471,-0.256,-2.706,1.89,0.35,1.26
,-9.5,-0.273,-2.979,-9.457,-0.345,-2.582,1.68,0.28,1.12
35511.0,-9.445,-0.369,-2.515,-9.526,-0.227,-2.185,-2.1,1.4,0.63
,-9.476,-0.419,-2.355,-9.548,-0.211,-2.498,-2.24,2.03,0.7
,-9.509,-0.357,-2.319,-9.45,-0.227,-2.594,-2.38,2.66,0.7
,-9.476,-0.321,-2.187,-9.323,-0.409,-2.601,-2.8,3.5,0.7
35587.0,-9.342,-0.526,-2.723,-9.294,-0.541,-3.281,-6.79,6.65,1.33
,-9.485,-0.546,-2.816,-9.258,-0.663,-3.063,-3.99,7.07,1.82
,-9.567,-0.361,-3.276,-9.287,-0.768,-2.742,-2.03,6.79,1.96
,-9.411,-0.407,-3.326,-9.414,-0.658,-2.558,-1.4,6.44,2.24
35662.0,-9.552,-0.421,-2.649,-9.206,-0.744,-2.508,6.37,7.49,4.41
,-9.512,-0.352,-2.857,-9.277,-0.78,-2.283,3.71,7.28,3.92
,-9.375,-0.342,-2.917,-9.43,-0.581,-2.094,-0.28,7.28,3.85
,-9.318,-0.483,-2.778,-9.517,-0.39,-2.029,-3.01,7.63,4.06
35738.0,-9.526,0.038,-1.993,-9.268,-0.177,-2.331,1.82,12.95,5.6
,-9.552,0.244,-1.998,-9.191,-0.469,-2.134,-0.63,14.14,5.11
,-9.519,0.342,-1.972,-9.359,-0.467,-2.678,-4.62,15.75,5.04
,-9.399,0.163,-2.053,-9.404,-0.287,-3.424,-7.14,17.43,5.18
35814.0,-9.198,-0.074,-3.704,-9.385,0.878,-3.903,-4.62,20.58,4.34
,-9.05,0.11,-3.853,-9.351,1.309,-3.546,-0.98,21.77,5.18
,-9.0,0.136,-3.472,-9.483,1.354,-4.092,5.04,23.24,5.67
,-9.354,0.397,-3.518,-9.208,0.866,-4.346,12.46,23.52,5.11
35890.0,-8.971,-0.132,-4.027,-9.237,-1.17,-3.448,-8.05,17.5,-1.82
,-9.012,-1.027,-3.81,-9.201,-1.072,-3.345,-7.91,17.99,-1.4
,-8.854,-1.508,-3.094,-9.189,-0.981,-3.563,-3.08,18.76,-0.56
,-9.184,-1.515,-3.352,-9.031,-0.995,-3.35,2.59,18.06,0.07
35966.0,-9.014,-0.955,-3.458,-9.038,-0.304,-4.104,-3.43,15.89,4.27
,-8.995,-0.646,-3.955,-9.007,-0.244,-3.857,-1.54,15.89,5.25
,-8.892,-0.534,-3.85,-8.99,0.038,-3.893,0.98,16.87,6.02
,-9.062,-0.416,-4.099,-9.028,0.28,-3.884,3.22,17.22,6.23
36041.0,-9.337,0.503,-4.231,-8.447,-0.357,-3.704,11.06,15.12,5.11
,-9.354,0.519,-4.642,-8.945,-0.452,-3.235,7.91,12.74,4.62
,-8.906,0.316,-4.599,-9.213,-0.101,-3.484,4.41,12.25,4.97
,-8.497,-0.029,-4.324,-9.313,0.16,-3.419,4.34,14.28,5.25
36117.0,-9.328,0.55,-3.795,-8.899,0.481,-4.716,8.26,17.15,3.36
,-8.899,0.9,-3.951,-8.923,-0.11,-4.984,5.04,16.52,2.59
,-8.897,1.077,-4.13,-8.638,-0.665,-4.731,2.73,16.52,1.75
,-8.935,0.948,-4.575,-8.674,-0.983,-4.389,-0.7,15.12,0.77
36192.0,-8.729,-0.986,-4.259,-8.83,0.692,-4.582,8.4,18.69,1.05
,-8.93,-0.73,-4.032,-8.921,0.876,-4.85,13.16,18.55,0.98
,-8.899,-0.268,-4.039,-8.756,0.711,-5.044,15.61,18.34,1.12
,-8.868,0.227,-4.381,-8.863,0.292,-4.826,15.33,18.06,1.19
36268.0,-8.617,-0.072,-4.949,-8.686,-0.804,-4.757,-2.17,17.71,-1.47
,-8.686,-0.507,-4.673,-8.658,-0.519,-4.609,-2.24,18.2,-1.12
,-9.007,-0.873,-4.535,-8.555,-0.23,-4.771,0.14,17.92,-0.63
,-9.002,-0.974,-4.657,-8.562,0.096,-4.812,3.01,16.03,-0.07
36344.0,-8.823,0.254,-4.671,-8.705,-0.369,-5.066,6.72,13.79,1.61
,-8.859,0.177,-4.716,-8.54,-0.5,-5.188,2.87,13.37,1.75
,-8.792,0.026,-4.779,-8.567,-0.5,-5.13,-0.35,13.02,2.03
,-8.854,-0.184,-4.915,-8.727,-0.134,-5.008,-2.24,12.25,2.38
36420.0,-8.662,0.352,-5.226,-8.792,0.364,-5.135,11.2,8.33,1.82
,-8.677,0.538,-5.296,-8.859,0.136,-5.202,10.71,7.56,1.05
,-8.524,0.531,-5.205,-8.701,-0.244,-5.281,9.45,7.7,0.07
,-8.653,0.479,-5.116,-8.72,-0.5,-5.48,8.68,7.63,-0.84
36495.0,-8.571,-0.675,-5.327,-8.782,-0.981,-5.159,9.52,7.07,-1.61
,-8.454,-0.663,-5.406,-9.036,-1.149,-5.059,11.27,6.58,-1.33
,-8.222,-0.708,-5.305,-8.837,-1.137,-5.217,12.39,6.93,-0.49
,-8.538,-0.852,-5.229,-8.557,-0.797,-5.358,11.69,6.72,0.42
36571.0,-8.339,-0.285,-5.497,-8.524,0.282,-5.291,11.34,2.73,2.94
,-8.351,0.103,-5.564,-8.61,-0.053,-5.212,11.2,2.8,1.68
,-8.466,0.311,-5.532,-8.744,-0.534,-5.255,10.36,3.29,0.42
,-8.689,0.342,-5.343,-8.904,-0.749,-5.051,8.05,3.08,-0.42
36647.0,-8.847,-0.787,-5.111,-8.375,-0.727,-4.81,10.15,-0.7,0.14
,-8.631,-0.909,-5.063,-8.665,-0.5,-5.044,11.97,-0.35,0.07
,-8.691,-0.818,-4.934,-8.658,-0.333,-5.075,12.39,0.0,0.7
,-8.533,-0.687,-5.025,-8.39,-0.294,-5.109,12.18,0.28,1.19
36723.0,-8.385,-0.371,-5.08,-8.837,0.182,-4.884,10.01,-0.49,4.2
,-8.638,-0.218,-5.207,-8.787,0.165,-4.721,9.73,-0.77,4.41
,-8.71,-0.462,-4.846,-8.519,0.122,-4.709,8.82,-1.19,4.13
,-8.973,-0.089,-4.85,-8.478,-0.029,-4.843,10.36,-1.47,2.66
36798.0,-8.6,-0.254,-4.836,-8.715,0.493,-5.159,5.67,0.77,1.96
,-8.672,-0.294,-4.834,-8.851,0.251,-4.929,5.46,0.35,2.59
,-8.547,0.103,-4.994,-8.856,0.017,-5.09,5.46,0.63,2.8
,-8.603,0.366,-5.118,-8.614,-0.077,-5.214,4.97,1.4,2.24
36874.0,-8.622,-0.211,-5.197,-8.567,-0.337,-5.453,-0.63,2.31,0.42
,-8.732,-0.352,-5.26,-8.717,0.244,-5.492,-1.82,1.96,0.63
,-8.626,-0.493,-5.178,-8.796,0.517,-5.53,-1.96,1.47,1.12
,-8.528,-0.479,-5.336,-8.837,0.139,-5.164,-1.19,1.05,1.61
36950.0,-8.765,-0.45,-5.059,-8.748,-0.603,-5.147,-8.12,-1.47,0.0
,-8.528,-0.842,-5.047,-8.823,-0.658,-4.953,-8.26,-1.33,1.12
,-8.5,-0.701,-5.095,-8.792,-0.426,-5.19,-5.81,-1.47,2.03
,-8.559,-0.603,-5.15,-8.729,-0.574,-5.159,-3.92,-1.4,2.17
37025.0,-8.674,-0.572,-5.075,-8.705,-0.34,-5.152,-1.12,-3.01,2.38
,-8.679,-0.747,-4.841,-8.648,-0.017,-5.087,-1.68,-3.15,3.15
,-8.689,-0.785,-4.853,-8.636,0.323,-4.917,-1.61,-3.5,4.06
,-8.703,-0.581,-4.989,-8.787,0.572,-4.925,-0.07,-3.64,4.69
37101.0,-8.988,0.687,-4.81,-8.689,-0.361,-5.154,-0.63,-4.13,1.82
,-8.827,0.445,-4.867,-8.703,-0.476,-5.071,-5.04,-4.83,1.26
,-8.629,0.031,-4.903,-8.658,-0.459,-5.152,-8.4,-4.48,1.05
,-8.641,-0.239,-4.889,-8.725,-0.426,-5.133,-9.31,-4.13,1.4
37177.0,-8.765,-0.321,-5.126,-8.693,-0.383,-5.221,-3.64,-6.02,0.98
,-8.801,-0.409,-4.963,-8.693,-0.421,-5.042,-4.2,-6.09,0.63
,-8.844,-0.323,-4.884,-8.804,-0.287,-4.963,-4.9,-6.58,0.35
,-8.89,-0.268,-5.006,-8.748,-0.117,-4.98,-6.09,-7.98,0.56
37253.0,-8.78,-0.182,-4.913,-8.655,-0.34,-4.793,-1.96,-10.64,-0.14
,-8.882,-0.266,-4.987,-8.871,0.065,-4.934,-3.15,-11.2,0.28
,-8.703,-0.182,-5.008,-8.988,0.392,-4.922,-3.78,-11.76,0.77
,-8.605,-0.395,-4.826,-8.89,0.538,-4.769,-1.75,-11.06,0.91
37328.0,-8.902,0.488,-4.618,-8.818,-0.543,-4.53,2.31,-9.66,-2.31
,-9.019,0.519,-4.499,-8.768,-0.78,-4.549,0.07,-10.99,-2.66
,-8.894,0.349,-4.669,-8.636,-0.866,-4.451,-2.73,-13.09,-2.8
,-8.744,-0.024,-4.695,-8.67,-0.871,-4.231,-4.62,-13.16,-2.59
37404.0,-8.746,-0.668,-4.037,-8.952,0.127,-4.401,8.4,-12.74,-0.07
,-8.885,-0.464,-4.003,-9.024,-0.335,-3.867,10.78,-12.04,0.35
,-8.902,-0.225,-4.068,-9.182,0.05,-4.049,10.36,-11.2,1.33
,-8.83,-0.278,-4.049,-8.871,0.146,-4.164,9.31,-9.38,2.52
37480.0,-8.827,0.139,-3.987,-8.933,-0.325,-3.75,7.84,-9.17,2.59
,-8.961,0.179,-3.958,-8.904,-0.34,-3.807,6.65,-9.94,2.38
,-9.016,0.012,-4.025,-8.978,-0.266,-3.841,6.16,-10.08,1.96
,-9.002,-0.199,-3.979,-9.122,-0.194,-4.015,6.37,-9.45,1.82
37556.0,-8.99,-0.227,-4.137,-9.184,0.048,-4.054,12.67,-7.98,4.27
,-8.88,-0.292,-4.07,-9.086,0.151,-4.259,12.74,-7.49,5.04
,-9.057,-0.177,-4.056,-8.971,-0.038,-4.034,12.6,-7.84,4.83
,-9.069,-0.034,-4.08,-9.088,-0.007,-4.037,13.09,-8.12,4.48
37631.0,-9.103,0.105,-3.908,-9.213,0.12,-3.752,7.28,-10.64,3.64
,-9.119,0.342,-3.738,-9.141,-0.201,-3.836,9.24,-11.27,2.73
,-9.191,0.572,-3.798,-9.026,-0.297,-3.764,7.84,-12.25,1.96
,-9.158,0.424,-3.726,-9.012,-0.201,-3.498,4.83,-12.74,1.47
37707.0,-9.1,-0.026,-3.35,-9.155,-0.438,-3.388,6.09,-13.23,0.28
,-9.22,0.043,-3.443,-9.131,-0.589,-3.41,5.32,-13.58,0.07
,-9.301,-0.002,-3.625,-9.174,-0.452,-3.247,1.89,-14.28,0.14
,-9.261,-0.215,-3.625,-9.229,-0.309,-3.216,-1.05,-14.63,0.28
37782.0,-9.201,-0.129,-3.312,-9.287,0.148,-3.747,3.08,-13.16,0.07
,-9.191,-0.17,-3.094,-9.191,0.22,-3.766,2.45,-12.32,0.42
,-9.361,-0.225,-3.171,-9.148,0.122,-3.68,3.29,-11.97,0.84
,-9.39,-0.012,-3.762,-9.148,0.019,-3.403,2.87,-12.81,0.42
37858.0,-9.196,-0.23,-2.984,-9.356,-0.093,-3.204,2.1,-12.67,-0.84
,-9.316,-0.335,-2.977,-9.308,-0.041,-3.333,3.29,-12.25,-0.63
,-9.378,-0.23,-2.917,-9.258,-0.146,-3.044,4.27,-12.25,-0.49
,-9.505,-0.153,-3.137,-9.294,-0.122,-3.116,3.5,-12.67,-0.56
37934.0,-9.313,-0.041,-2.766,-9.409,-0.201,-2.668,4.83,-10.64,-1.4
,-9.373,0.084,-2.733,-9.371,-0.373,-2.58,4.27,-10.5,-2.03
,-9.447,0.105,-2.685,-9.387,-0.443,-2.508,3.29,-10.64,-2.59
,-9.495,0.043,-2.656,-9.361,-0.318,-2.448,0.98,-10.15,-2.87
38010.0,-9.328,-0.153,-2.192,-9.598,0.156,-2.982,5.88,-6.09,-1.89
,-9.474,-0.112,-2.182,-9.359,0.069,-2.919,6.16,-5.11,-2.03
,-9.514,-0.06,-2.218,-9.375,-0.146,-3.092,6.02,-4.27,-2.1
,-9.502,0.014,-2.3,-9.244,-0.302,-2.915,4.27,-3.78,-2.31
38086.0,-9.306,-0.266,-2.666,-9.627,0.029,-2.68,2.1,-1.96,-3.43
,-9.452,-0.005,-2.85,-9.581,0.062,-2.965,4.76,-1.82,-3.64
,-9.564,-0.041,-2.56,-9.399,-0.022,-2.888,3.78,-1.33,-3.85
