Timestamp,AccX,AccY,AccZ,GyroX,GyroY,GyroZ,MagnX,MagnY,MagnZ
0.0,-8.904,-0.744,-4.336,-8.906,-0.73,-4.369,1.96,1.75,0.35
,-8.897,-0.809,-4.329,-8.911,-0.785,-4.346,2.24,1.75,0.63
,-8.906,-0.806,-4.348,-8.89,-0.763,-4.343,2.73,1.61,0.63
,-8.921,-0.763,-4.348,-8.909,-0.727,-4.29,3.01,1.68,0.7
76.0,-8.897,-0.735,-4.223,-8.952,-0.713,-4.149,3.22,1.4,0.91
,-8.933,-0.732,-4.255,-8.985,-0.699,-4.171,3.36,1.54,0.91
,-8.906,-0.759,-4.145,-8.942,-0.677,-4.293,3.36,1.54,0.91
,-8.947,-0.699,-4.185,-8.983,-0.713,-4.245,3.08,1.68,0.91
152.0,-8.935,-0.715,-4.341,-8.906,-0.723,-4.302,2.24,1.89,0.49
,-8.93,-0.773,-4.35,-8.947,-0.67,-4.274,2.24,1.82,0.49
,-8.878,-0.747,-4.369,-8.94,-0.756,-4.25,2.52,1.75,0.56
,-8.897,-0.732,-4.346,-8.93,-0.742,-4.243,3.01,1.75,0.7
227.0,-8.923,-0.742,-4.295,-8.94,-0.713,-4.264,2.66,1.54,0.28
,-8.899,-0.766,-4.312,-8.906,-0.761,-4.255,2.66,1.68,0.35
,-8.909,-0.727,-4.274,-8.947,-0.763,-4.25,2.52,1.75,0.42
,-8.882,-0.701,-4.257,-8.909,-0.771,-4.264,2.66,1.82,0.49
302.0,-8.894,-0.747,-4.238,-8.928,-0.701,-4.276,2.38,1.89,0.56
,-8.954,-0.735,-4.267,-8.99,-0.677,-4.317,2.52,1.89,0.56
,-8.923,-0.723,-4.274,-8.902,-0.723,-4.3,2.38,1.89,0.49
,-8.921,-0.735,-4.288,-8.897,-0.785,-4.283,2.52,1.89,0.49
378.0,-8.875,-0.771,-4.29,-8.904,-0.749,-4.286,2.24,1.96,0.49
,-8.911,-0.689,-4.252,-8.873,-0.759,-4.326,2.1,1.68,0.35
,-8.935,-0.704,-4.25,-8.899,-0.792,-4.353,1.68,1.61,0.28
,-8.918,-0.737,-4.314,-8.863,-0.797,-4.362,1.47,1.68,0.28
454.0,-8.899,-0.804,-4.372,-8.961,-0.723,-4.204,2.1,1.54,0.42
,-8.923,-0.804,-4.295,-8.949,-0.737,-4.226,2.45,1.82,0.63
,-8.928,-0.792,-4.293,-8.892,-0.766,-4.209,2.52,1.68,0.7
,-8.918,-0.742,-4.24,-8.94,-0.773,-4.279,2.45,1.47,0.63
530.0,-8.911,-0.73,-4.281,-8.804,-0.766,-4.391,2.45,1.82,0.7
,-8.93,-0.713,-4.381,-8.894,-0.816,-4.396,2.17,1.61,0.56
,-8.868,-0.747,-4.439,-8.851,-0.756,-4.31,1.82,1.54,0.49
,-8.966,-0.826,-4.487,-8.949,-0.713,-4.293,2.03,1.33,0.56
605.0,-8.949,-0.701,-4.255,-8.923,-0.761,-4.276,2.94,1.12,1.05
,-8.911,-0.727,-4.214,-8.899,-0.747,-4.281,2.59,1.19,1.05
,-8.89,-0.732,-4.252,-8.909,-0.782,-4.214,2.38,1.12,0.91
,-8.899,-0.792,-4.24,-8.906,-0.723,-4.221,2.38,1.05,0.84
681.0,-8.952,-0.735,-4.188,-8.942,-0.732,-4.24,2.8,1.47,1.05
,-8.911,-0.718,-4.214,-8.921,-0.723,-4.271,2.73,1.4,1.05
,-8.928,-0.694,-4.209,-8.918,-0.756,-4.252,2.73,1.54,1.05
,-8.911,-0.706,-4.255,-8.957,-0.704,-4.298,2.73,1.61,0.91
757.0,-8.945,-0.694,-4.281,-8.866,-0.775,-4.317,2.38,1.75,0.7
,-8.916,-0.687,-4.353,-8.923,-0.785,-4.274,2.1,1.68,0.63
,-8.878,-0.694,-4.326,-8.976,-0.775,-4.276,1.96,1.4,0.56
,-8.847,-0.766,-4.322,-9.002,-0.756,-4.281,1.82,1.33,0.56
832.0,-8.918,-0.732,-4.243,-8.918,-0.759,-4.279,2.45,1.4,0.63
,-8.916,-0.761,-4.295,-8.914,-0.754,-4.259,2.52,1.4,0.7
,-8.949,-0.675,-4.314,-8.918,-0.744,-4.264,2.73,1.4,0.7
,-8.918,-0.668,-4.295,-8.906,-0.723,-4.212,2.45,1.19,0.56
908.0,-8.923,-0.778,-4.171,-8.926,-0.737,-4.255,3.15,1.54,0.77
,-8.892,-0.749,-4.125,-8.868,-0.725,-4.324,3.36,1.82,0.84
,-8.971,-0.713,-4.204,-8.887,-0.672,-4.312,3.01,1.82,0.84
,-8.93,-0.711,-4.192,-8.938,-0.723,-4.319,2.8,1.82,0.77
984.0,-8.942,-0.778,-4.271,-8.89,-0.797,-4.322,2.24,2.03,0.77
,-8.914,-0.754,-4.279,-8.89,-0.763,-4.35,2.45,1.82,0.77
,-8.938,-0.715,-4.293,-8.863,-0.706,-4.314,2.52,1.82,0.77
,-8.88,-0.768,-4.312,-8.902,-0.727,-4.295,2.52,1.96,0.84
1060.0,-8.93,-0.754,-4.243,-8.911,-0.744,-4.281,2.87,1.4,0.77
,-8.926,-0.761,-4.192,-8.861,-0.768,-4.334,2.87,1.82,0.77
,-8.983,-0.668,-4.228,-8.861,-0.756,-4.298,2.73,1.75,0.7
,-8.938,-0.701,-4.302,-8.902,-0.73,-4.319,2.45,1.68,0.63
1135.0,-8.863,-0.677,-4.245,-8.892,-0.766,-4.35,2.94,1.54,0.7
,-8.928,-0.704,-4.31,-8.933,-0.778,-4.336,2.73,1.75,0.7
,-8.909,-0.72,-4.31,-8.916,-0.737,-4.302,2.52,1.61,0.63
,-8.911,-0.782,-4.317,-8.923,-0.727,-4.257,2.59,1.61,0.7
1211.0,-8.911,-0.739,-4.223,-8.928,-0.768,-4.31,2.52,1.47,0.63
,-8.959,-0.732,-4.228,-8.959,-0.79,-4.31,2.52,1.61,0.63
,-8.938,-0.713,-4.267,-8.916,-0.775,-4.269,2.24,1.26,0.42
,-8.933,-0.747,-4.298,-8.942,-0.751,-4.214,2.03,1.4,0.35
1287.0,-8.973,-0.706,-4.207,-8.942,-0.811,-4.271,2.59,1.68,0.49
,-8.928,-0.742,-4.159,-8.911,-0.739,-4.295,2.66,1.68,0.49
,-8.921,-0.79,-4.176,-8.871,-0.699,-4.314,2.73,1.89,0.63
,-8.926,-0.759,-4.161,-8.849,-0.759,-4.408,2.87,1.96,0.77
1363.0,-8.868,-0.756,-4.362,-8.887,-0.794,-4.322,2.66,1.82,0.7
,-8.847,-0.744,-4.341,-8.911,-0.739,-4.262,2.59,1.61,0.84
,-8.935,-0.799,-4.369,-8.918,-0.751,-4.283,2.59,1.61,0.84
,-8.914,-0.749,-4.334,-8.952,-0.73,-4.293,2.66,1.54,0.77
1438.0,-8.897,-0.763,-4.293,-8.88,-0.749,-4.31,2.03,1.26,0.77
,-8.926,-0.78,-4.3,-8.882,-0.778,-4.259,2.24,1.33,0.77
,-8.926,-0.802,-4.276,-8.918,-0.775,-4.188,2.52,1.19,0.7
,-8.861,-0.751,-4.336,-8.916,-0.72,-4.142,2.73,1.33,0.84
1514.0,-8.935,-0.727,-4.104,-8.916,-0.759,-4.288,2.59,1.82,0.7
,-8.933,-0.701,-4.133,-8.878,-0.761,-4.405,2.38,2.03,0.77
,-8.973,-0.687,-4.178,-8.866,-0.749,-4.367,2.1,2.1,0.7
,-8.94,-0.72,-4.24,-8.921,-0.749,-4.329,1.61,1.96,0.7
1589.0,-8.894,-0.78,-4.307,-8.878,-0.761,-4.274,2.03,1.68,0.7
,-8.921,-0.773,-4.221,-8.892,-0.799,-4.298,2.31,1.68,0.77
,-8.935,-0.744,-4.226,-8.861,-0.804,-4.305,2.24,1.68,0.77
,-8.923,-0.739,-4.271,-8.89,-0.754,-4.317,2.1,1.75,0.77
1665.0,-8.916,-0.751,-4.257,-8.868,-0.718,-4.341,2.38,1.82,0.91
,-8.938,-0.727,-4.288,-8.916,-0.747,-4.322,2.38,1.89,1.05
,-8.933,-0.759,-4.274,-8.875,-0.78,-4.314,2.45,1.96,0.91
,-8.93,-0.711,-4.305,-8.894,-0.718,-4.295,2.59,1.75,0.84
1741.0,-8.916,-0.725,-4.238,-8.878,-0.778,-4.326,2.59,1.68,0.84
,-8.894,-0.701,-4.197,-8.885,-0.814,-4.331,2.24,1.54,0.7
,-8.966,-0.711,-4.314,-8.875,-0.754,-4.288,2.03,1.61,0.63
,-8.873,-0.73,-4.295,-8.911,-0.708,-4.262,2.17,1.75,0.63
1817.0,-8.923,-0.737,-4.262,-8.904,-0.708,-4.329,2.31,1.61,0.91
,-8.904,-0.742,-4.257,-8.923,-0.754,-4.298,2.1,1.68,0.84
,-8.88,-0.744,-4.264,-8.916,-0.708,-4.312,2.31,1.75,0.77
,-8.902,-0.711,-4.286,-8.926,-0.696,-4.264,2.31,1.82,0.77
1893.0,-8.923,-0.68,-4.305,-8.902,-0.742,-4.281,2.1,1.75,0.77
,-8.902,-0.708,-4.324,-8.954,-0.737,-4.295,1.89,1.75,0.63
,-8.921,-0.759,-4.305,-8.916,-0.744,-4.3,1.82,1.54,0.63
,-8.902,-0.794,-4.247,-8.923,-0.735,-4.417,2.1,1.54,0.77
1968.0,-8.902,-0.718,-4.374,-8.868,-0.699,-4.331,1.89,1.4,0.77
,-8.89,-0.72,-4.403,-8.885,-0.806,-4.295,2.03,1.19,0.77
,-8.894,-0.663,-4.365,-8.902,-0.737,-4.324,2.31,1.12,0.63
,-8.837,-0.675,-4.381,-8.916,-0.699,-4.271,1.54,0.91,0.63
2044.0,-8.916,-0.711,-4.262,-8.921,-0.739,-4.324,2.38,1.05,0.77
,-8.882,-0.78,-4.264,-8.923,-0.749,-4.307,2.1,0.91,0.7
,-8.887,-0.751,-4.29,-8.904,-0.706,-4.255,2.1,0.91,0.56
,-8.866,-0.713,-4.3,-8.914,-0.718,-4.231,2.45,1.19,0.56
2120.0,-8.899,-0.704,-4.293,-8.892,-0.725,-4.279,3.15,0.98,0.7
,-8.906,-0.665,-4.245,-8.961,-0.739,-4.19,3.08,0.98,0.7
,-8.849,-0.699,-4.329,-8.935,-0.773,-4.154,2.8,0.98,0.56
,-8.899,-0.701,-4.331,-8.949,-0.727,-4.166,3.01,1.26,0.7
2196.0,-9.021,-0.723,-4.166,-8.902,-0.715,-4.302,2.73,1.54,0.63
,-8.935,-0.699,-4.145,-8.88,-0.715,-4.324,2.45,1.54,0.56
,-8.906,-0.735,-4.209,-8.926,-0.737,-4.314,2.38,1.68,0.56
,-8.875,-0.711,-4.283,-8.938,-0.684,-4.283,2.45,1.68,0.42
2271.0,-8.916,-0.72,-4.293,-8.904,-0.727,-4.178,2.45,1.4,0.35
,-8.926,-0.766,-4.267,-8.918,-0.747,-4.166,2.24,1.47,0.49
,-8.842,-0.787,-4.219,-8.945,-0.737,-4.133,2.45,1.4,0.35
,-8.902,-0.761,-4.19,-8.94,-0.718,-4.147,2.8,1.54,0.49
2347.0,-8.945,-0.711,-4.247,-8.914,-0.754,-4.448,2.1,2.03,0.49
,-8.961,-0.754,-4.267,-8.849,-0.732,-4.348,2.03,2.03,0.35
,-8.949,-0.814,-4.338,-8.894,-0.742,-4.362,2.03,2.03,0.35
,-8.873,-0.737,-4.367,-8.894,-0.73,-4.36,2.52,2.17,0.63
2422.0,-8.906,-0.718,-4.302,-8.899,-0.761,-4.269,3.29,1.68,0.63
,-8.914,-0.744,-4.29,-8.945,-0.715,-4.264,3.08,1.54,0.63
,-8.89,-0.761,-4.276,-8.928,-0.751,-4.255,3.01,1.54,0.63
,-8.904,-0.794,-4.257,-8.916,-0.696,-4.267,3.08,1.54,0.7
2498.0,-8.938,-0.699,-4.214,-8.909,-0.773,-4.264,2.8,1.68,0.63
,-8.894,-0.711,-4.3,-8.928,-0.749,-4.269,2.73,1.68,0.63
,-8.871,-0.761,-4.314,-8.964,-0.785,-4.279,2.8,1.68,0.77
,-8.909,-0.775,-4.228,-8.926,-0.771,-4.228,2.94,1.68,0.7
2574.0,-8.887,-0.792,-4.274,-8.866,-0.778,-4.343,2.94,1.75,0.56
,-8.861,-0.785,-4.269,-8.916,-0.773,-4.384,3.08,1.82,0.63
,-8.904,-0.754,-4.317,-8.89,-0.718,-4.369,2.94,1.89,0.77
,-8.894,-0.732,-4.331,-8.909,-0.737,-4.295,2.8,1.68,0.77
2650.0,-8.899,-0.742,-4.326,-8.952,-0.751,-4.276,2.66,1.54,0.77
,-8.928,-0.747,-4.255,-8.899,-0.759,-4.281,2.52,1.4,0.77
,-8.906,-0.756,-4.245,-8.871,-0.806,-4.302,2.52,1.4,0.7
,-8.902,-0.725,-4.276,-8.847,-0.739,-4.255,2.45,1.4,0.77
2725.0,-8.902,-0.711,-4.24,-8.935,-0.763,-4.195,2.87,1.4,0.7
,-8.882,-0.689,-4.269,-8.899,-0.744,-4.228,2.66,1.47,0.77
,-8.861,-0.732,-4.219,-8.969,-0.749,-4.216,2.45,1.54,0.77
,-8.885,-0.704,-4.231,-8.894,-0.761,-4.216,2.38,1.68,0.77
2801.0,-8.902,-0.778,-4.245,-8.842,-0.763,-4.417,2.24,2.03,0.77
,-8.947,-0.739,-4.293,-8.851,-0.754,-4.391,2.03,1.96,0.63
,-8.902,-0.759,-4.326,-8.875,-0.715,-4.422,1.89,1.89,0.63
,-8.873,-0.809,-4.389,-8.911,-0.692,-4.372,1.75,1.75,0.7
2877.0,-8.875,-0.725,-4.276,-8.887,-0.766,-4.293,2.45,1.33,0.77
,-8.921,-0.723,-4.271,-8.875,-0.773,-4.31,2.45,1.33,0.77
,-8.909,-0.749,-4.262,-8.904,-0.761,-4.286,2.17,1.47,0.77
,-8.916,-0.744,-4.233,-8.885,-0.778,-4.259,2.03,1.47,0.7
2953.0,-8.918,-0.749,-4.202,-8.914,-0.792,-4.348,2.24,1.47,0.77
,-8.966,-0.699,-4.24,-8.866,-0.737,-4.36,2.31,1.4,0.77
,-8.918,-0.725,-4.274,-8.871,-0.737,-4.362,2.17,1.47,0.84
,-8.94,-0.766,-4.283,-8.873,-0.751,-4.286,2.17,1.33,0.77
3029.0,-8.88,-0.723,-4.293,-8.902,-0.725,-4.188,2.94,1.33,1.05
,-8.887,-0.713,-4.238,-8.961,-0.73,-4.233,2.8,1.33,0.91
,-8.94,-0.763,-4.202,-8.921,-0.715,-4.255,2.73,1.33,0.98
,-8.894,-0.704,-4.2,-8.887,-0.725,-4.31,2.73,1.47,0.98
3104.0,-8.885,-0.782,-4.346,-8.906,-0.682,-4.29,2.1,1.68,0.84
,-8.856,-0.794,-4.307,-8.892,-0.725,-4.235,2.45,1.61,0.84
,-8.916,-0.732,-4.326,-8.93,-0.754,-4.245,2.8,1.47,0.84
,-8.918,-0.634,-4.31,-8.928,-0.715,-4.274,2.59,1.4,0.77
3180.0,-8.89,-0.73,-4.207,-8.93,-0.723,-4.377,2.45,1.75,0.7
,-8.921,-0.763,-4.2,-8.878,-0.771,-4.417,2.38,1.82,0.63
,-8.885,-0.732,-4.233,-8.849,-0.814,-4.456,2.38,1.75,0.63
,-8.94,-0.696,-4.286,-8.856,-0.749,-4.427,2.45,1.96,0.7
3255.0,-8.892,-0.672,-4.458,-8.892,-0.766,-4.362,3.22,1.26,0.77
,-8.918,-0.648,-4.369,-8.887,-0.78,-4.31,2.87,1.12,0.77
,-8.878,-0.694,-4.331,-8.894,-0.701,-4.216,2.52,0.98,0.77
,-8.945,-0.775,-4.326,-8.942,-0.696,-4.238,2.87,0.98,0.77
3331.0,-8.928,-0.696,-4.183,-8.966,-0.713,-4.183,3.29,1.05,0.84
,-8.909,-0.754,-4.183,-8.914,-0.732,-4.168,2.73,0.91,0.77
,-8.911,-0.785,-4.19,-8.918,-0.715,-4.147,2.59,1.12,0.7
,-8.902,-0.806,-4.152,-8.969,-0.737,-4.228,2.94,1.26,0.77
3407.0,-8.952,-0.768,-4.235,-8.933,-0.689,-4.353,2.66,1.68,0.77
,-8.938,-0.773,-4.243,-8.894,-0.723,-4.357,2.66,1.89,0.77
,-8.93,-0.701,-4.231,-8.861,-0.802,-4.362,2.87,2.1,0.77
,-8.935,-0.658,-4.279,-8.892,-0.737,-4.355,2.73,2.17,0.77
3483.0,-8.906,-0.68,-4.353,-8.902,-0.775,-4.274,2.59,1.75,0.77
,-8.887,-0.682,-4.346,-8.906,-0.704,-4.3,2.1,1.61,0.63
,-8.926,-0.713,-4.29,-8.928,-0.73,-4.3,1.61,1.47,0.49
,-8.897,-0.766,-4.257,-8.902,-0.787,-4.267,1.75,1.54,0.49
3558.0,-8.918,-0.785,-4.257,-8.89,-0.713,-4.353,2.24,1.54,0.56
,-8.921,-0.763,-4.283,-8.897,-0.763,-4.348,2.73,1.68,0.63
,-8.933,-0.687,-4.312,-8.839,-0.787,-4.386,2.66,1.75,0.63
,-8.945,-0.677,-4.295,-8.866,-0.747,-4.381,2.38,1.61,0.56
3634.0,-8.933,-0.739,-4.338,-8.899,-0.759,-4.228,3.08,0.98,0.63
,-8.921,-0.704,-4.271,-8.933,-0.775,-4.262,3.01,1.33,0.77
,-8.916,-0.725,-4.257,-8.871,-0.708,-4.238,2.73,1.19,0.84
,-8.911,-0.771,-4.235,-8.909,-0.794,-4.281,2.52,1.12,0.7
3709.0,-8.911,-0.749,-4.214,-8.938,-0.739,-4.31,2.66,1.4,0.91
,-8.945,-0.713,-4.178,-8.873,-0.79,-4.314,2.52,1.4,0.84
,-8.882,-0.725,-4.243,-8.871,-0.787,-4.334,2.45,1.47,0.77
,-8.892,-0.696,-4.281,-8.868,-0.744,-4.314,2.31,1.47,0.63
3785.0,-8.887,-0.713,-4.302,-8.894,-0.732,-4.226,3.08,1.33,0.84
,-8.909,-0.715,-4.267,-8.887,-0.759,-4.269,2.94,1.4,0.84
,-8.959,-0.756,-4.195,-8.899,-0.756,-4.288,2.73,1.19,0.7
,-8.983,-0.778,-4.231,-8.906,-0.775,-4.343,2.66,1.26,0.84
3861.0,-8.887,-0.718,-4.322,-8.911,-0.715,-4.269,2.38,1.47,0.84
,-8.882,-0.773,-4.302,-8.926,-0.747,-4.228,2.45,1.47,0.84
,-8.926,-0.751,-4.302,-8.882,-0.739,-4.293,2.45,1.4,0.77
,-8.902,-0.718,-4.283,-8.892,-0.732,-4.305,2.52,1.19,0.77
3937.0,-8.885,-0.775,-4.255,-8.89,-0.771,-4.207,2.52,1.4,0.91
,-8.918,-0.735,-4.267,-8.904,-0.715,-4.145,2.73,1.26,0.91
,-8.894,-0.723,-4.226,-8.906,-0.694,-4.145,2.8,1.26,0.91
,-8.906,-0.708,-4.235,-8.976,-0.692,-4.168,2.59,1.26,0.91
4013.0,-8.938,-0.701,-4.161,-8.909,-0.737,-4.336,2.24,1.68,0.84
,-8.988,-0.763,-4.238,-8.899,-0.713,-4.386,2.03,1.82,0.7
,-8.966,-0.778,-4.312,-8.861,-0.73,-4.36,2.03,1.75,0.63
,-8.892,-0.735,-4.314,-8.875,-0.72,-4.307,2.03,1.89,0.7
4088.0,-8.923,-0.725,-4.331,-8.933,-0.782,-4.223,2.45,1.54,0.84
,-8.894,-0.737,-4.302,-8.959,-0.785,-4.226,2.59,1.54,0.84
,-8.906,-0.723,-4.231,-8.938,-0.78,-4.223,2.45,1.4,0.84
,-8.952,-0.744,-4.262,-8.914,-0.727,-4.197,2.31,1.54,0.91
4164.0,-8.926,-0.701,-4.238,-8.923,-0.72,-4.319,2.17,1.75,0.7
,-8.983,-0.715,-4.207,-8.878,-0.715,-4.338,2.03,1.96,0.7
,-8.918,-0.684,-4.29,-8.849,-0.742,-4.381,2.03,1.89,0.7
,-8.954,-0.768,-4.271,-8.914,-0.735,-4.293,2.24,1.82,0.77
4240.0,-8.911,-0.749,-4.319,-8.906,-0.732,-4.221,3.01,1.75,0.91
,-8.918,-0.68,-4.3,-8.988,-0.651,-4.221,3.01,1.68,0.91
,-8.897,-0.708,-4.293,-8.973,-0.696,-4.226,2.66,1.54,0.77
,-8.892,-0.78,-4.252,-8.94,-0.723,-4.259,2.59,1.54,0.91
4316.0,-8.875,-0.763,-4.24,-8.885,-0.732,-4.302,1.54,1.54,0.49
,-8.854,-0.735,-4.336,-8.906,-0.648,-4.326,1.89,1.54,0.56
,-8.902,-0.739,-4.324,-8.856,-0.684,-4.259,2.17,1.61,0.63
,-8.89,-0.732,-4.319,-8.93,-0.725,-4.279,2.31,1.68,0.63
4391.0,-8.904,-0.751,-4.279,-8.916,-0.742,-4.204,2.8,1.47,0.77
,-8.933,-0.792,-4.281,-8.94,-0.771,-4.19,2.73,1.54,0.84
,-8.928,-0.782,-4.197,-8.952,-0.744,-4.243,2.66,1.61,0.84
,-8.942,-0.792,-4.255,-8.959,-0.68,-4.286,2.66,1.68,0.84
4467.0,-8.933,-0.706,-4.362,-8.854,-0.725,-4.41,2.1,1.68,0.7
,-8.882,-0.718,-4.405,-8.887,-0.706,-4.35,2.1,1.54,0.63
,-8.856,-0.756,-4.434,-8.947,-0.684,-4.276,2.38,1.54,0.7
,-8.851,-0.737,-4.41,-8.914,-0.723,-4.214,3.01,1.19,0.77
4542.0,-8.93,-0.782,-4.121,-8.997,-0.718,-4.185,2.8,1.19,0.7
,-8.921,-0.782,-4.099,-8.964,-0.751,-4.247,2.8,1.47,0.77
,-8.961,-0.747,-4.068,-8.899,-0.778,-4.336,2.8,1.61,0.7
,-8.971,-0.73,-4.121,-8.878,-0.773,-4.396,2.59,1.82,0.7
4618.0,-8.859,-0.737,-4.465,-8.933,-0.715,-4.281,2.38,1.75,0.7
,-8.868,-0.694,-4.377,-8.928,-0.78,-4.214,2.59,1.61,0.84
,-8.914,-0.677,-4.355,-8.909,-0.737,-4.243,2.59,1.47,0.77
,-8.894,-0.675,-4.36,-8.949,-0.692,-4.276,2.45,1.54,0.77
4694.0,-8.906,-0.751,-4.245,-8.949,-0.715,-4.235,2.59,1.47,0.84
,-8.897,-0.775,-4.216,-8.878,-0.701,-4.29,2.45,1.47,0.7
,-8.911,-0.763,-4.262,-8.909,-0.682,-4.338,2.38,1.47,0.7
,-8.952,-0.735,-4.264,-8.904,-0.701,-4.348,2.17,1.47,0.63
4770.0,-8.914,-0.696,-4.36,-8.942,-0.756,-4.276,2.52,1.4,0.7
,-8.911,-0.713,-4.317,-8.949,-0.754,-4.216,2.59,1.26,0.63
,-8.911,-0.696,-4.29,-8.916,-0.754,-4.25,2.52,1.26,0.63
,-8.969,-0.747,-4.259,-8.887,-0.749,-4.233,2.45,1.4,0.63
4845.0,-8.892,-0.799,-4.283,-8.909,-0.696,-4.379,2.1,1.54,0.63
,-8.863,-0.747,-4.369,-8.909,-0.658,-4.317,2.24,1.61,0.77
,-8.894,-0.742,-4.348,-8.935,-0.684,-4.281,2.38,1.61,0.77
,-8.88,-0.744,-4.362,-8.918,-0.744,-4.197,2.45,1.47,0.84
4921.0,-8.942,-0.756,-4.197,-8.918,-0.706,-4.259,2.87,1.4,0.91
,-8.938,-0.701,-4.221,-8.909,-0.735,-4.281,2.73,1.54,0.91
,-8.906,-0.735,-4.123,-8.856,-0.756,-4.274,2.52,1.54,0.91
,-8.942,-0.754,-4.214,-8.914,-0.727,-4.35,2.45,1.68,0.91
4997.0,-8.942,-0.687,-4.3,-8.945,-0.708,-4.396,2.59,1.54,0.91
,-8.918,-0.62,-4.298,-8.93,-0.632,-4.386,2.03,1.47,0.84
,-8.959,-0.725,-4.307,-8.921,-0.701,-4.393,1.82,1.33,0.77
,-8.921,-0.823,-4.369,-8.885,-0.754,-4.41,2.31,1.54,0.91
5073.0,-8.849,-0.749,-4.36,-8.949,-0.701,-4.149,2.24,0.84,0.77
,-8.94,-0.737,-4.334,-8.921,-0.782,-4.166,2.66,0.7,0.56
,-8.914,-0.699,-4.283,-8.916,-0.773,-4.176,2.8,0.77,0.7
,-8.94,-0.613,-4.212,-8.935,-0.756,-4.152,2.66,0.98,0.91
5149.0,-8.933,-0.723,-4.121,-8.933,-0.735,-4.267,2.73,1.61,0.84
,-8.949,-0.747,-4.128,-8.873,-0.73,-4.336,2.52,1.75,0.84
,-8.969,-0.713,-4.176,-8.914,-0.715,-4.396,2.52,1.89,0.84
,-8.985,-0.706,-4.183,-8.88,-0.723,-4.389,2.38,1.96,0.77
5224.0,-8.89,-0.704,-4.398,-8.885,-0.704,-4.25,2.38,1.96,0.91
,-8.897,-0.742,-4.317,-8.878,-0.744,-4.288,2.38,1.89,0.84
,-8.909,-0.701,-4.257,-8.923,-0.715,-4.343,2.38,1.82,0.77
,-8.961,-0.692,-4.312,-8.885,-0.677,-4.334,2.24,1.54,0.56
5300.0,-8.899,-0.787,-4.29,-8.959,-0.704,-4.185,1.68,1.47,0.56
,-8.904,-0.773,-4.293,-8.94,-0.694,-4.231,2.17,1.61,0.7
,-8.926,-0.718,-4.247,-8.906,-0.687,-4.281,2.59,1.4,0.7
,-8.897,-0.723,-4.204,-8.914,-0.759,-4.283,2.73,1.75,0.77
5375.0,-8.871,-0.763,-4.295,-8.914,-0.711,-4.283,2.8,1.89,0.77
,-8.93,-0.744,-4.286,-8.89,-0.73,-4.324,3.22,1.89,0.77
,-8.899,-0.706,-4.267,-8.914,-0.725,-4.288,3.01,1.82,0.84
,-8.902,-0.682,-4.293,-8.906,-0.732,-4.314,2.73,1.89,0.77
5451.0,-8.882,-0.739,-4.341,-8.878,-0.737,-4.29,2.73,1.61,0.7
,-8.894,-0.768,-4.314,-8.945,-0.742,-4.305,2.73,1.68,0.77
,-8.906,-0.694,-4.314,-8.923,-0.694,-4.307,2.73,1.47,0.7
,-8.909,-0.699,-4.319,-8.93,-0.732,-4.274,2.52,1.47,0.63
5527.0,-8.887,-0.713,-4.286,-8.902,-0.742,-4.264,2.38,1.47,0.63
,-8.902,-0.742,-4.314,-8.935,-0.763,-4.262,2.38,1.54,0.77
,-8.926,-0.718,-4.269,-8.926,-0.687,-4.255,2.52,1.4,0.63
,-8.911,-0.768,-4.24,-8.89,-0.715,-4.262,2.66,1.68,0.7
5603.0,-8.918,-0.689,-4.312,-8.878,-0.797,-4.36,2.31,1.33,0.49
,-8.904,-0.732,-4.305,-8.899,-0.763,-4.393,2.38,1.54,0.7
,-8.894,-0.711,-4.324,-8.871,-0.713,-4.355,2.24,1.4,0.56
,-8.909,-0.759,-4.36,-8.861,-0.684,-4.307,2.24,1.33,0.49
5678.0,-8.904,-0.704,-4.252,-8.995,-0.723,-4.101,2.66,0.98,0.56
,-8.887,-0.715,-4.159,-8.947,-0.756,-4.154,2.87,1.05,0.56
,-8.942,-0.684,-4.164,-8.93,-0.78,-4.176,2.66,1.12,0.56
,-8.964,-0.723,-4.133,-8.947,-0.766,-4.25,2.66,1.4,0.77
5754.0,-8.957,-0.737,-4.334,-8.868,-0.699,-4.338,2.17,1.89,0.7
,-8.871,-0.737,-4.348,-8.909,-0.694,-4.379,2.1,1.68,0.7
,-8.851,-0.775,-4.348,-8.902,-0.718,-4.312,2.24,1.68,0.7
,-8.863,-0.735,-4.389,-8.926,-0.708,-4.259,2.66,1.75,0.91
5830.0,-8.93,-0.694,-4.262,-8.959,-0.72,-4.214,2.8,1.33,0.84
,-8.945,-0.72,-4.243,-8.928,-0.78,-4.245,2.59,1.54,0.91
,-8.885,-0.73,-4.214,-8.938,-0.694,-4.29,2.52,1.47,0.77
,-8.916,-0.706,-4.204,-8.926,-0.763,-4.346,2.38,1.47,0.63
5906.0,-8.849,-0.778,-4.357,-8.906,-0.763,-4.228,2.24,1.47,0.7
,-8.89,-0.761,-4.341,-8.954,-0.747,-4.171,2.59,1.47,0.7
,-8.894,-0.72,-4.336,-8.947,-0.708,-4.243,2.8,1.26,0.7
,-8.918,-0.754,-4.298,-8.985,-0.665,-4.274,2.8,1.19,0.77
5981.0,-8.892,-0.727,-4.348,-8.892,-0.692,-4.271,2.17,1.47,0.7
,-8.866,-0.751,-4.362,-8.942,-0.653,-4.228,1.96,1.47,0.7
,-8.897,-0.754,-4.334,-8.906,-0.715,-4.288,2.24,1.4,0.77
,-8.873,-0.771,-4.3,-8.897,-0.727,-4.288,2.52,1.4,0.84
6057.0,-8.926,-0.751,-4.276,-8.935,-0.696,-4.274,2.52,1.26,0.77
,-8.918,-0.751,-4.29,-8.938,-0.687,-4.24,2.66,1.19,0.84
,-8.892,-0.72,-4.276,-8.921,-0.708,-4.149,2.66,1.19,0.84
,-8.918,-0.742,-4.305,-8.952,-0.663,-4.204,2.8,1.33,0.84
6133.0,-8.976,-0.718,-4.149,-8.94,-0.713,-4.276,1.89,1.47,0.56
,-8.911,-0.706,-4.185,-8.93,-0.723,-4.343,1.75,1.75,0.49
,-8.945,-0.751,-4.221,-8.897,-0.715,-4.367,1.96,1.68,0.49
,-8.926,-0.751,-4.295,-8.892,-0.768,-4.429,2.03,1.82,0.42
6208.0,-8.856,-0.792,-4.434,-8.935,-0.718,-4.269,2.24,1.68,0.7
,-8.89,-0.735,-4.377,-8.933,-0.751,-4.238,2.66,1.54,0.63
,-8.871,-0.727,-4.317,-8.885,-0.684,-4.247,2.94,1.33,0.56
,-8.952,-0.701,-4.314,-8.882,-0.687,-4.243,2.8,1.19,0.63
6284.0,-8.952,-0.771,-4.231,-8.954,-0.737,-4.267,2.1,1.33,0.56
,-8.899,-0.711,-4.219,-8.945,-0.715,-4.24,2.17,1.61,0.63
,-8.906,-0.739,-4.195,-8.978,-0.806,-4.267,2.03,1.47,0.63
,-8.93,-0.747,-4.168,-8.904,-0.763,-4.329,2.1,1.75,0.63
6360.0,-8.859,-0.73,-4.257,-8.878,-0.735,-4.334,2.73,1.82,0.84
,-8.899,-0.696,-4.276,-8.892,-0.73,-4.29,2.66,1.75,0.91
,-8.89,-0.692,-4.326,-8.89,-0.656,-4.276,2.52,1.75,0.84
,-8.952,-0.735,-4.326,-8.973,-0.713,-4.3,2.24,1.75,0.84
6436.0,-8.959,-0.771,-4.274,-8.921,-0.73,-4.233,1.54,1.4,0.7
,-8.909,-0.806,-4.262,-8.935,-0.706,-4.192,1.89,1.33,0.7
,-8.914,-0.771,-4.346,-8.894,-0.718,-4.262,2.31,1.54,0.84
,-8.911,-0.735,-4.269,-8.957,-0.725,-4.24,2.38,1.75,0.91
6511.0,-8.904,-0.732,-4.259,-8.938,-0.704,-4.331,2.17,1.82,0.98
,-8.902,-0.706,-4.322,-8.921,-0.723,-4.264,2.38,1.75,0.91
,-8.938,-0.711,-4.322,-8.957,-0.754,-4.276,2.24,1.47,0.84
,-8.964,-0.725,-4.336,-8.94,-0.725,-4.271,2.24,1.61,0.84
6587.0,-8.882,-0.708,-4.307,-8.983,-0.713,-4.197,2.1,1.47,0.98
,-8.871,-0.737,-4.276,-8.945,-0.692,-4.226,2.17,1.54,1.05
,-8.871,-0.742,-4.274,-8.966,-0.696,-4.247,2.38,1.54,1.12
,-8.899,-0.732,-4.226,-8.868,-0.723,-4.245,2.45,1.54,1.05
6663.0,-8.914,-0.739,-4.259,-8.902,-0.706,-4.317,2.1,1.82,0.98
,-8.906,-0.723,-4.288,-8.875,-0.73,-4.35,2.38,1.75,0.98
,-8.959,-0.694,-4.283,-8.906,-0.711,-4.336,2.52,1.89,1.12
,-8.878,-0.692,-4.295,-8.887,-0.718,-4.317,2.45,2.17,1.12
6739.0,-8.839,-0.668,-4.381,-8.873,-0.701,-4.338,2.45,1.75,1.05
,-8.868,-0.668,-4.314,-8.911,-0.739,-4.355,2.45,1.68,0.91
,-8.904,-0.629,-4.31,-8.885,-0.747,-4.348,2.31,1.54,0.91
,-8.89,-0.677,-4.31,-8.952,-0.735,-4.31,2.03,1.4,0.84
6814.0,-8.863,-0.735,-4.298,-8.957,-0.644,-4.192,2.8,1.33,0.91
,-8.899,-0.694,-4.24,-8.933,-0.656,-4.2,2.94,1.12,0.84
,-8.945,-0.658,-4.204,-8.93,-0.656,-4.226,2.73,1.19,0.84
,-8.914,-0.677,-4.152,-8.88,-0.699,-4.231,2.66,1.54,0.98
6890.0,-8.945,-0.723,-4.262,-8.942,-0.799,-4.18,2.24,1.75,0.77
,-8.849,-0.603,-4.257,-8.935,-0.706,-4.276,2.1,1.82,0.77
,-8.938,-0.682,-4.219,-8.892,-0.663,-4.341,1.75,1.96,0.84
,-8.921,-0.782,-4.235,-8.885,-0.634,-4.42,1.33,1.89,0.7
6965.0,-8.868,-0.701,-4.427,-8.854,-0.715,-4.264,1.47,1.68,0.49
,-8.863,-0.778,-4.434,-8.894,-0.72,-4.204,1.47,1.61,0.49
,-8.856,-0.782,-4.403,-8.923,-0.672,-4.166,2.1,1.4,0.56
,-8.854,-0.756,-4.367,-8.911,-0.699,-4.145,2.59,1.54,0.84
7041.0,-8.993,-0.725,-4.171,-8.911,-0.708,-4.338,2.17,1.75,0.7
,-8.947,-0.727,-4.176,-8.892,-0.682,-4.393,2.24,1.96,0.77
,-8.914,-0.696,-4.255,-8.842,-0.66,-4.396,2.03,1.96,0.63
,-8.899,-0.747,-4.3,-8.863,-0.675,-4.42,1.89,2.1,0.7
7117.0,-8.859,-0.73,-4.405,-8.921,-0.692,-4.247,2.66,1.54,0.84
,-8.866,-0.711,-4.369,-8.926,-0.648,-4.271,2.87,1.47,0.91
,-8.89,-0.706,-4.293,-8.935,-0.646,-4.262,2.87,1.33,0.84
,-8.945,-0.715,-4.274,-8.94,-0.663,-4.247,2.94,1.26,0.77
7193.0,-8.916,-0.687,-4.386,-8.847,-0.682,-4.357,2.38,1.75,0.84
,-8.868,-0.696,-4.367,-8.911,-0.677,-4.326,2.24,1.61,0.84
,-8.866,-0.708,-4.367,-8.928,-0.689,-4.31,2.52,1.47,0.7
,-8.904,-0.73,-4.413,-8.935,-0.711,-4.259,2.66,1.26,0.77
7269.0,-8.875,-0.701,-4.171,-8.983,-0.656,-4.247,2.87,1.4,0.84
,-8.914,-0.727,-4.168,-8.947,-0.713,-4.331,3.08,1.47,0.91
,-8.926,-0.687,-4.152,-8.914,-0.708,-4.35,3.08,1.68,0.77
,-9.007,-0.653,-4.219,-8.844,-0.692,-4.355,2.8,1.47,0.77
7344.0,-8.902,-0.73,-4.329,-8.926,-0.672,-4.35,2.24,1.54,0.63
,-8.892,-0.723,-4.326,-8.892,-0.715,-4.348,2.31,1.47,0.63
,-8.904,-0.739,-4.293,-8.878,-0.723,-4.314,2.38,1.4,0.63
,-8.935,-0.672,-4.264,-8.914,-0.668,-4.276,2.66,1.61,0.63
7420.0,-8.882,-0.687,-4.31,-8.947,-0.663,-4.214,2.66,1.33,0.49
,-8.856,-0.715,-4.243,-8.899,-0.672,-4.25,2.66,1.26,0.56
,-8.918,-0.72,-4.197,-8.887,-0.711,-4.314,2.73,1.4,0.7
,-8.957,-0.66,-4.2,-8.873,-0.696,-4.262,2.8,1.54,0.7
7496.0,-8.873,-0.692,-4.279,-8.921,-0.689,-4.288,2.52,1.75,0.7
,-8.909,-0.682,-4.312,-8.911,-0.704,-4.334,2.66,1.96,0.7
,-8.942,-0.67,-4.302,-8.921,-0.699,-4.348,2.45,1.61,0.56
,-8.945,-0.675,-4.283,-8.89,-0.73,-4.353,2.1,1.54,0.42
7572.0,-8.899,-0.715,-4.343,-8.918,-0.66,-4.298,2.59,1.61,0.7
,-8.918,-0.711,-4.293,-8.933,-0.711,-4.31,2.73,1.82,0.63
,-8.882,-0.68,-4.295,-8.921,-0.699,-4.283,2.66,1.54,0.56
,-8.873,-0.68,-4.257,-8.909,-0.756,-4.302,2.59,1.54,0.63
7647.0,-8.897,-0.747,-4.336,-8.928,-0.663,-4.255,2.73,1.54,0.63
,-8.94,-0.727,-4.314,-8.933,-0.665,-4.319,2.73,1.33,0.7
,-8.918,-0.751,-4.283,-8.887,-0.701,-4.259,2.73,1.26,0.7
,-8.923,-0.739,-4.271,-8.89,-0.706,-4.262,3.15,1.47,0.91
7723.0,-8.866,-0.718,-4.245,-8.875,-0.706,-4.293,2.94,1.47,0.84
,-8.916,-0.672,-4.283,-8.897,-0.725,-4.331,3.01,1.4,0.77
,-8.909,-0.684,-4.3,-8.916,-0.715,-4.322,2.87,1.54,0.77
,-8.938,-0.677,-4.262,-8.88,-0.677,-4.259,2.73,1.54,0.84
7798.0,-8.914,-0.682,-4.257,-8.976,-0.672,-4.271,2.66,1.54,0.77
,-8.945,-0.682,-4.247,-8.928,-0.689,-4.295,2.73,1.54,0.84
,-8.935,-0.715,-4.223,-8.89,-0.694,-4.329,2.45,1.68,0.7
,-8.954,-0.713,-4.231,-8.863,-0.711,-4.341,2.59,1.61,0.7
7874.0,-8.894,-0.727,-4.338,-8.911,-0.725,-4.252,2.8,1.47,0.7
,-8.902,-0.723,-4.307,-8.894,-0.682,-4.31,2.66,1.47,0.56
,-8.926,-0.73,-4.279,-8.894,-0.692,-4.322,2.73,1.61,0.63
,-8.93,-0.723,-4.243,-8.899,-0.694,-4.355,2.87,1.68,0.63
7950.0,-8.916,-0.704,-4.384,-8.885,-0.66,-4.288,2.73,1.47,0.63
,-8.897,-0.699,-4.367,-8.899,-0.727,-4.262,2.94,1.19,0.56
,-8.887,-0.72,-4.346,-8.909,-0.737,-4.18,2.87,1.19,0.56
,-8.885,-0.706,-4.307,-8.926,-0.713,-4.214,2.87,1.26,0.63
8026.0,-8.928,-0.656,-4.204,-8.885,-0.646,-4.31,2.73,1.47,0.63
,-8.923,-0.696,-4.195,-8.885,-0.759,-4.317,2.8,1.54,0.56
,-8.971,-0.72,-4.298,-8.933,-0.761,-4.281,2.66,1.4,0.56
,-8.909,-0.658,-4.271,-8.916,-0.739,-4.264,2.73,1.47,0.56
8102.0,-8.938,-0.715,-4.264,-8.938,-0.749,-4.329,2.87,1.54,0.56
,-8.949,-0.701,-4.267,-8.902,-0.704,-4.283,2.66,1.54,0.56
,-8.878,-0.706,-4.279,-8.916,-0.727,-4.298,2.52,1.47,0.56
,-8.868,-0.735,-4.283,-8.969,-0.682,-4.348,2.45,1.54,0.56
8177.0,-8.892,-0.727,-4.293,-8.926,-0.751,-4.374,2.52,1.19,0.42
,-8.935,-0.694,-4.257,-8.856,-0.739,-4.372,2.31,1.4,0.35
,-8.909,-0.708,-4.279,-8.909,-0.72,-4.355,2.31,1.4,0.42
,-8.894,-0.701,-4.307,-8.902,-0.737,-4.31,2.17,1.54,0.49
8253.0,-8.942,-0.727,-4.29,-8.902,-0.73,-4.221,3.15,1.19,0.77
,-8.894,-0.696,-4.226,-8.921,-0.696,-4.223,3.29,1.12,0.91
,-8.921,-0.759,-4.216,-8.89,-0.704,-4.207,3.22,1.19,0.91
,-8.926,-0.718,-4.2,-8.911,-0.708,-4.214,3.15,1.33,0.91
8329.0,-8.928,-0.651,-4.243,-8.916,-0.715,-4.429,2.1,1.75,0.7
,-8.952,-0.713,-4.283,-8.904,-0.747,-4.369,2.38,1.68,0.77
,-8.909,-0.735,-4.288,-8.854,-0.723,-4.381,2.38,1.82,0.77
,-8.861,-0.72,-4.324,-8.933,-0.735,-4.362,2.38,1.75,0.84
8405.0,-8.918,-0.689,-4.317,-8.971,-0.747,-4.188,2.52,1.19,0.63
,-8.926,-0.732,-4.259,-8.933,-0.711,-4.195,2.31,1.19,0.56
,-8.918,-0.754,-4.262,-8.909,-0.725,-4.216,2.31,1.12,0.56
,-8.918,-0.727,-4.231,-8.914,-0.73,-4.202,2.38,1.33,0.56
8480.0,-8.89,-0.718,-4.286,-8.902,-0.711,-4.338,2.38,1.75,0.56
,-8.89,-0.696,-4.338,-8.899,-0.67,-4.264,2.24,1.54,0.56
,-8.856,-0.747,-4.319,-8.933,-0.732,-4.269,2.17,1.54,0.63
,-8.902,-0.78,-4.362,-8.935,-0.715,-4.207,2.59,1.68,0.77
8556.0,-8.952,-0.742,-4.219,-8.89,-0.763,-4.331,2.8,1.61,0.84
,-8.923,-0.744,-4.226,-8.871,-0.706,-4.312,2.73,1.61,0.91
,-8.914,-0.701,-4.276,-8.906,-0.732,-4.281,2.52,1.47,0.77
,-8.918,-0.723,-4.293,-8.894,-0.66,-4.329,2.38,1.61,0.7
8631.0,-8.873,-0.723,-4.336,-8.959,-0.689,-4.312,2.52,1.54,0.77
,-8.868,-0.759,-4.302,-8.909,-0.704,-4.235,2.73,1.68,0.84
,-8.906,-0.737,-4.279,-8.897,-0.761,-4.247,3.01,1.47,0.84
,-8.957,-0.67,-4.274,-8.885,-0.735,-4.238,3.01,1.61,0.84
8707.0,-8.89,-0.713,-4.183,-8.909,-0.723,-4.247,2.66,1.89,0.91
,-8.923,-0.68,-4.219,-8.909,-0.754,-4.353,2.45,1.54,0.77
,-8.894,-0.718,-4.197,-8.897,-0.727,-4.338,2.17,1.96,0.84
,-8.935,-0.72,-4.231,-8.851,-0.658,-4.353,1.96,1.75,0.84
8783.0,-8.866,-0.732,-4.35,-8.863,-0.725,-4.336,2.31,1.54,0.77
,-8.887,-0.706,-4.389,-8.93,-0.78,-4.312,2.45,1.4,0.7
,-8.851,-0.694,-4.377,-8.918,-0.735,-4.267,2.52,1.33,0.7
,-8.861,-0.704,-4.401,-8.923,-0.699,-4.257,2.45,1.4,0.84
8859.0,-8.935,-0.759,-4.233,-8.935,-0.68,-4.279,2.52,1.33,0.84
,-8.933,-0.773,-4.154,-8.926,-0.72,-4.295,2.59,1.26,0.91
,-8.909,-0.737,-4.216,-8.89,-0.725,-4.233,2.87,1.47,0.98
,-8.909,-0.684,-4.231,-8.89,-0.782,-4.269,2.94,1.33,0.84
8934.0,-8.933,-0.708,-4.305,-8.878,-0.732,-4.31,2.8,1.61,0.98
,-8.966,-0.668,-4.334,-8.875,-0.723,-4.312,2.94,1.61,0.91
,-8.954,-0.646,-4.302,-8.918,-0.682,-4.29,2.73,1.33,0.77
,-8.863,-0.704,-4.3,-8.923,-0.715,-4.235,2.52,1.33,0.7
9010.0,-8.942,-0.718,-4.235,-8.894,-0.739,-4.195,2.24,1.47,0.91
,-8.933,-0.732,-4.24,-8.909,-0.689,-4.216,2.1,1.4,0.84
,-8.93,-0.704,-4.255,-8.954,-0.732,-4.192,1.96,1.4,0.84
,-8.906,-0.763,-4.25,-8.938,-0.735,-4.24,2.17,1.4,0.84
9085.0,-8.909,-0.768,-4.238,-8.868,-0.699,-4.384,2.73,1.82,0.91
,-8.897,-0.696,-4.326,-8.897,-0.696,-4.286,2.87,1.89,0.91
,-8.882,-0.725,-4.317,-8.923,-0.715,-4.271,2.8,1.82,0.84
,-8.873,-0.751,-4.35,-8.909,-0.665,-4.262,2.8,1.68,0.7
9161.0,-8.899,-0.66,-4.257,-8.902,-0.756,-4.338,2.59,1.33,0.49
,-8.942,-0.699,-4.281,-8.875,-0.756,-4.312,2.1,1.4,0.42
,-8.897,-0.735,-4.329,-8.894,-0.668,-4.334,1.89,1.33,0.35
,-8.904,-0.747,-4.305,-8.894,-0.718,-4.3,1.96,1.4,0.42
9237.0,-8.887,-0.718,-4.221,-8.914,-0.723,-4.24,2.52,1.19,0.35
,-8.902,-0.675,-4.183,-8.894,-0.715,-4.281,2.59,1.19,0.28
,-8.942,-0.694,-4.202,-8.911,-0.737,-4.264,2.66,1.33,0.35
,-8.938,-0.67,-4.243,-8.897,-0.763,-4.271,2.73,1.47,0.49
9313.0,-8.947,-0.744,-4.302,-8.875,-0.684,-4.281,2.87,1.54,0.63
,-8.916,-0.723,-4.271,-8.916,-0.694,-4.3,2.8,1.82,0.77
,-8.964,-0.742,-4.286,-8.942,-0.689,-4.276,2.38,1.61,0.63
,-8.894,-0.768,-4.264,-8.921,-0.732,-4.324,2.52,1.68,0.7
9389.0,-8.902,-0.751,-4.286,-8.88,-0.715,-4.307,2.38,1.54,0.7
,-8.904,-0.706,-4.279,-8.89,-0.718,-4.322,2.59,1.82,0.63
,-8.952,-0.687,-4.267,-8.866,-0.761,-4.312,2.52,1.68,0.63
,-8.952,-0.701,-4.288,-8.892,-0.751,-4.276,2.17,1.47,0.7
9464.0,-8.916,-0.727,-4.226,-8.911,-0.782,-4.29,2.87,1.54,0.7
,-8.921,-0.694,-4.168,-8.878,-0.759,-4.334,2.52,1.61,0.63
,-8.923,-0.742,-4.195,-8.911,-0.747,-4.317,2.1,1.61,0.56
,-8.904,-0.761,-4.247,-8.892,-0.696,-4.3,1.89,1.68,0.49
9540.0,-8.904,-0.706,-4.307,-8.882,-0.684,-4.188,2.45,1.89,0.77
,-8.923,-0.775,-4.286,-8.94,-0.727,-4.283,2.24,1.68,0.63
,-8.887,-0.771,-4.212,-8.909,-0.672,-4.341,2.24,1.75,0.7
,-8.938,-0.727,-4.214,-8.885,-0.735,-4.434,2.59,1.82,0.77
9616.0,-8.866,-0.768,-4.424,-8.911,-0.739,-4.274,2.24,1.75,0.7
,-8.926,-0.751,-4.401,-8.928,-0.739,-4.247,2.73,1.61,0.84
,-8.909,-0.682,-4.386,-8.88,-0.778,-4.221,2.94,1.54,0.91
,-8.945,-0.672,-4.362,-8.952,-0.694,-4.247,2.8,1.33,0.77
9692.0,-8.938,-0.735,-4.226,-8.854,-0.739,-4.317,2.66,1.33,0.77
,-8.94,-0.759,-4.209,-8.916,-0.735,-4.348,2.52,1.68,0.91
,-8.911,-0.73,-4.276,-8.88,-0.778,-4.372,2.59,1.89,0.84
,-8.902,-0.732,-4.267,-8.887,-0.785,-4.288,2.45,1.68,0.77
9767.0,-8.892,-0.759,-4.298,-8.947,-0.763,-4.295,3.15,1.54,0.98
,-8.916,-0.706,-4.317,-8.918,-0.739,-4.324,3.5,1.54,1.12
,-8.952,-0.632,-4.257,-8.894,-0.668,-4.381,3.22,1.61,1.05
,-8.995,-0.653,-4.264,-8.861,-0.715,-4.403,2.52,1.54,0.77
9843.0,-8.866,-0.711,-4.365,-8.902,-0.665,-4.223,2.24,1.26,0.63
,-8.837,-0.718,-4.353,-8.894,-0.684,-4.209,2.17,1.12,0.63
,-8.873,-0.732,-4.293,-8.947,-0.744,-4.166,2.38,1.12,0.63
,-8.911,-0.706,-4.281,-8.964,-0.73,-4.154,2.66,1.33,0.7
9918.0,-8.911,-0.768,-4.168,-8.914,-0.732,-4.281,2.45,1.96,0.91
,-8.954,-0.749,-4.19,-8.89,-0.708,-4.314,2.45,2.17,0.84
,-8.983,-0.715,-4.2,-8.882,-0.73,-4.348,2.45,1.89,0.91
,-8.933,-0.689,-4.245,-8.878,-0.72,-4.348,2.31,2.17,0.77
9994.0,-8.926,-0.699,-4.35,-8.878,-0.787,-4.324,2.31,1.82,0.77
,-8.894,-0.701,-4.338,-8.866,-0.73,-4.319,2.24,1.82,0.7
,-8.897,-0.639,-4.338,-8.885,-0.72,-4.281,2.17,1.54,0.7
,-8.894,-0.727,-4.329,-8.916,-0.718,-4.279,1.75,1.4,0.49
10070.0,-8.906,-0.723,-4.295,-8.904,-0.759,-4.319,1.96,1.68,0.77
,-8.897,-0.704,-4.264,-8.918,-0.751,-4.267,1.96,1.96,0.7
,-8.914,-0.711,-4.3,-8.918,-0.67,-4.322,2.03,1.82,0.77
,-8.897,-0.773,-4.319,-8.873,-0.68,-4.307,2.24,1.61,0.77
10146.0,-8.897,-0.692,-4.336,-8.892,-0.742,-4.29,2.59,1.75,0.91
,-8.923,-0.701,-4.314,-8.88,-0.708,-4.29,2.66,1.75,0.91
,-8.899,-0.704,-4.334,-8.914,-0.742,-4.267,2.59,1.75,0.98
,-8.882,-0.711,-4.312,-8.885,-0.715,-4.3,2.45,1.47,0.84
10222.0,-8.904,-0.701,-4.314,-8.89,-0.701,-4.281,2.45,1.47,0.84
,-8.892,-0.739,-4.286,-8.914,-0.754,-4.307,2.45,1.54,0.91
,-8.933,-0.704,-4.262,-8.902,-0.761,-4.279,2.8,1.61,1.05
,-8.954,-0.672,-4.279,-8.894,-0.665,-4.372,2.59,1.47,0.91
10297.0,-8.902,-0.708,-4.341,-8.93,-0.704,-4.31,2.45,1.4,0.77
,-8.894,-0.735,-4.353,-8.964,-0.754,-4.269,2.59,1.47,0.91
,-8.894,-0.684,-4.343,-8.914,-0.692,-4.259,2.66,1.54,0.84
,-8.887,-0.725,-4.324,-8.928,-0.687,-4.274,2.52,1.47,0.91
10373.0,-8.89,-0.72,-4.245,-8.93,-0.725,-4.283,2.24,1.4,0.84
,-8.856,-0.711,-4.29,-8.926,-0.696,-4.247,2.1,1.33,0.84
,-8.873,-0.715,-4.324,-8.959,-0.656,-4.302,2.24,1.47,0.91
,-8.945,-0.756,-4.295,-8.887,-0.687,-4.343,2.31,1.47,0.84
10449.0,-8.878,-0.73,-4.377,-8.887,-0.704,-4.346,1.89,1.4,0.84
,-8.875,-0.773,-4.415,-8.89,-0.699,-4.24,2.45,1.47,0.91
,-8.894,-0.725,-4.42,-8.94,-0.701,-4.173,2.87,1.4,0.98
,-8.871,-0.687,-4.374,-8.949,-0.66,-4.133,3.08,1.33,1.05
10525.0,-8.952,-0.682,-4.149,-8.918,-0.761,-4.324,2.38,1.47,0.7
,-8.949,-0.706,-4.2,-8.873,-0.713,-4.269,1.96,1.54,0.7
,-8.875,-0.727,-4.212,-8.945,-0.651,-4.269,1.89,1.75,0.77
,-8.914,-0.775,-4.271,-8.959,-0.687,-4.279,2.17,2.1,0.84
10600.0,-8.954,-0.665,-4.365,-8.832,-0.696,-4.405,2.17,1.82,0.77
,-8.894,-0.66,-4.331,-8.837,-0.706,-4.415,2.1,1.75,0.63
,-8.866,-0.68,-4.422,-8.863,-0.708,-4.343,2.17,1.61,0.63
,-8.868,-0.725,-4.42,-8.914,-0.701,-4.286,2.31,1.47,0.63
10676.0,-8.926,-0.672,-4.235,-8.892,-0.771,-4.298,2.24,1.4,0.7
,-8.938,-0.715,-4.269,-8.871,-0.727,-4.295,2.03,1.33,0.7
,-8.921,-0.696,-4.269,-8.911,-0.692,-4.295,1.89,1.26,0.63
,-8.882,-0.799,-4.324,-8.923,-0.675,-4.302,2.03,1.26,0.63
10751.0,-8.916,-0.747,-4.29,-8.902,-0.653,-4.3,2.45,1.47,0.77
,-8.947,-0.713,-4.343,-8.911,-0.644,-4.288,2.66,1.4,0.77
,-8.863,-0.715,-4.334,-8.952,-0.524,-4.293,2.94,1.4,0.91
,-8.88,-0.668,-4.343,-8.99,-0.577,-4.31,3.22,1.4,0.98
10827.0,-8.959,-0.615,-4.2,-8.844,-0.754,-4.413,1.89,0.91,0.56
,-8.916,-0.615,-4.13,-8.796,-0.715,-4.511,1.75,1.12,0.49
,-8.835,-0.799,-4.164,-8.856,-0.763,-4.556,1.54,1.05,0.42
,-8.827,-0.845,-4.243,-8.878,-0.701,-4.587,2.03,1.19,0.49
10903.0,-8.815,-0.718,-4.544,-8.897,-0.553,-4.506,2.17,0.0,0.07
,-8.866,-0.727,-4.542,-8.835,-0.668,-4.197,1.75,-0.42,0.07
,-8.866,-0.852,-4.688,-8.942,-0.701,-4.185,1.96,-0.63,0.21
,-8.789,-0.625,-4.547,-8.916,-0.713,-3.982,2.17,-0.98,0.28
10979.0,-8.94,-0.967,-3.941,-8.94,-0.689,-4.058,-1.12,-1.4,-0.42
,-8.952,-1.019,-3.872,-8.837,-0.948,-4.238,0.21,-0.98,-0.35
,-8.911,-0.857,-3.972,-8.804,-0.713,-4.192,1.33,-0.63,-0.21
,-8.961,-0.699,-4.03,-8.914,-0.818,-4.219,1.33,-0.42,-0.21
11054.0,-8.914,-0.998,-4.173,-8.928,-0.713,-3.944,1.89,0.14,0.14
,-8.878,-1.012,-4.087,-8.906,-0.919,-3.831,3.78,0.49,0.77
,-8.916,-0.773,-4.068,-8.964,-0.921,-3.699,5.46,0.14,0.7
,-8.921,-0.646,-4.056,-8.897,-0.809,-3.697,5.39,0.21,0.63
11130.0,-8.882,-0.725,-3.537,-8.818,-0.912,-3.649,5.46,2.66,0.91
,-8.926,-0.555,-3.695,-8.947,-0.916,-3.549,5.04,3.36,0.84
,-8.854,-0.55,-3.826,-9.134,-0.651,-3.683,3.92,3.85,0.7
,-8.772,-0.704,-3.754,-9.088,-0.464,-3.625,2.66,4.69,0.63
11206.0,-9.069,-0.462,-3.74,-8.935,-0.943,-3.491,1.4,8.47,1.19
,-8.983,-0.675,-3.735,-8.983,-0.876,-3.326,-0.98,9.1,1.47
,-8.811,-0.9,-3.568,-9.048,-0.672,-2.989,-2.31,10.08,1.75
,-8.93,-0.849,-3.654,-9.184,-0.189,-3.589,-2.31,11.27,1.89
11282.0,-8.818,-0.165,-3.853,-9.206,-0.723,-2.955,-11.48,15.96,0.0
,-8.564,-0.572,-3.678,-9.375,0.591,-3.9,-15.61,17.01,0.7
,-8.646,-1.007,-3.329,-8.847,1.173,-5.164,-16.17,18.83,1.19
,-8.947,-1.175,-3.209,-8.133,0.771,-5.281,-12.18,20.72,1.19
11358.0,-7.985,-0.38,-5.59,-8.854,-1.251,-4.86,-26.04,15.05,-4.41
,-8.016,-1.472,-5.252,-8.969,-0.888,-4.549,-22.89,16.17,-3.36
,-8.339,-1.957,-5.274,-9.043,-0.565,-5.051,-13.51,17.22,-2.38
,-8.619,-1.73,-4.74,-9.184,-0.017,-4.367,-3.43,18.27,-1.26
11433.0,-9.083,0.723,-5.678,-8.323,-0.849,-5.441,9.38,14.14,0.63
,-8.54,0.974,-5.925,-8.014,-0.804,-5.8,3.22,11.41,-0.63
,-8.562,0.402,-5.975,-8.107,-0.641,-5.688,-2.17,10.57,-1.33
,-8.387,-0.345,-5.619,-8.449,-0.804,-5.169,-3.71,10.71,-3.08
11509.0,-8.866,-1.007,-4.874,-8.301,-1.108,-5.099,1.75,9.8,-4.2
,-8.887,-1.144,-4.125,-8.263,-1.668,-5.379,2.45,10.01,-4.2
,-8.859,-0.893,-4.381,-8.282,-1.931,-5.19,4.76,9.17,-3.71
,-8.253,-0.687,-4.937,-8.631,-1.632,-5.386,3.71,7.56,-3.29
11584.0,-8.547,-0.955,-5.705,-8.248,-0.694,-4.702,17.57,8.75,3.92
,-8.562,-0.304,-5.671,-8.241,-0.828,-4.826,17.64,6.65,3.5
,-8.363,-0.22,-5.453,-8.413,-0.967,-4.867,14.84,6.02,2.87
,-8.39,-0.34,-5.085,-8.658,-1.151,-4.843,12.39,6.93,1.68
11660.0,-8.863,-1.414,-4.597,-8.598,0.27,-4.91,10.57,11.34,3.08
,-8.815,-1.371,-4.231,-8.569,0.316,-4.757,12.88,12.39,3.08
,-8.387,-0.821,-4.618,-8.447,0.318,-4.664,15.96,11.83,2.8
,-8.385,-0.115,-4.779,-8.478,0.227,-4.712,16.87,11.06,2.94
11736.0,-8.43,0.084,-4.901,-8.48,-0.433,-5.257,4.83,12.88,-2.45
,-8.483,-0.182,-5.013,-8.562,-0.445,-5.595,3.57,12.74,-3.08
,-8.543,-0.302,-4.992,-8.605,-0.668,-5.611,3.5,12.53,-3.64
,-8.442,-0.325,-5.166,-8.435,-0.893,-5.573,3.99,12.46,-4.13
11812.0,-8.102,-1.182,-5.475,-8.172,-1.302,-5.116,1.12,11.13,-6.51
,-7.999,-1.558,-5.363,-8.174,-1.211,-5.054,0.7,11.83,-6.16
,-8.184,-1.699,-5.15,-8.112,-1.321,-4.951,1.75,11.76,-5.95
,-8.189,-1.515,-5.147,-8.107,-1.33,-4.867,2.94,11.27,-5.95
11887.0,-8.277,-1.383,-4.853,-8.052,-1.132,-5.853,0.21,15.47,-2.1
,-8.416,-1.443,-4.934,-7.99,-1.141,-5.999,0.91,15.05,-1.68
,-8.313,-1.201,-5.264,-8.035,-1.046,-6.104,2.87,14.35,-0.98
,-8.16,-1.168,-5.693,-8.205,-0.924,-6.131,3.71,13.93,-0.28
11963.0,-8.349,-0.852,-5.982,-8.131,-0.928,-6.162,6.86,12.11,1.12
,-8.112,-0.859,-5.989,-8.248,-0.629,-6.114,5.32,11.34,0.91
,-7.973,-0.945,-5.858,-8.239,-0.469,-6.083,4.2,11.27,1.26
,-8.112,-1.043,-5.899,-8.172,-0.388,-6.08,4.76,11.55,1.26
12039.0,-8.253,-0.242,-6.1,-8.088,-1.311,-6.083,6.23,7.42,-1.75
,-8.057,-0.218,-6.317,-8.122,-1.773,-5.992,4.83,5.88,-2.87
,-8.004,-0.517,-6.281,-8.002,-1.998,-6.1,3.43,5.39,-3.78
,-8.093,-0.869,-6.231,-7.959,-2.032,-6.035,3.36,4.97,-3.92
12115.0,-8.181,-1.862,-5.958,-7.892,-1.508,-5.714,9.52,3.64,-0.91
,-8.062,-1.783,-5.958,-8.086,-1.326,-5.53,9.38,3.08,0.0
,-7.925,-1.735,-5.858,-8.203,-1.175,-5.37,9.1,3.29,1.47
,-7.923,-1.653,-5.776,-8.11,-0.933,-5.346,9.38,3.36,2.59
12190.0,-7.971,-0.823,-5.31,-8.143,-1.381,-5.346,13.37,3.5,2.94
,-7.911,-0.802,-5.324,-8.224,-1.318,-5.42,13.44,3.85,3.36
,-8.038,-0.83,-5.346,-7.93,-1.156,-5.745,14.14,3.43,3.71
,-8.083,-1.07,-5.296,-7.925,-1.062,-5.891,14.84,3.22,4.27
12266.0,-8.071,-1.062,-5.877,-7.99,-1.479,-5.748,22.19,4.27,4.55
,-8.107,-1.242,-5.75,-7.932,-1.788,-5.774,21.42,3.36,3.92
,-7.899,-1.397,-5.657,-7.961,-2.175,-5.695,20.44,3.15,3.92
,-7.925,-1.441,-5.676,-7.944,-2.089,-5.781,20.02,2.59,3.99
12342.0,-7.885,-1.517,-6.054,-8.033,-0.589,-6.121,22.12,2.24,8.89
,-7.978,-1.309,-6.064,-8.057,-0.445,-6.274,21.42,2.94,9.59
,-8.339,-1.113,-5.851,-7.94,-0.364,-6.504,21.42,3.15,9.87
,-8.516,-0.522,-6.025,-7.813,-0.045,-6.631,21.35,2.03,9.8
12417.0,-8.117,-0.302,-6.399,-7.794,-1.443,-6.107,11.27,0.28,4.41
,-8.447,-0.823,-6.047,-7.597,-1.742,-6.15,7.42,0.63,4.41
,-8.421,-0.692,-6.068,-7.447,-1.713,-6.286,5.95,0.42,3.43
,-7.995,-1.084,-6.013,-7.784,-1.649,-6.298,5.81,0.35,2.52
12493.0,-8.385,-1.381,-6.336,-7.483,-1.33,-5.755,1.47,0.35,2.45
,-8.583,-1.433,-6.322,-7.59,-1.567,-5.709,0.28,0.28,3.08
,-8.397,-1.505,-6.155,-8.09,-1.543,-5.918,-1.26,-0.14,3.99
,-7.889,-1.297,-5.956,-8.617,-1.309,-5.755,-2.45,0.07,4.76
12569.0,-8.428,-1.122,-5.817,-8.323,-0.55,-6.207,-5.53,1.54,7.91
,-8.081,-0.857,-5.793,-8.512,-0.29,-6.253,-6.23,1.12,7.98
,-7.944,-0.723,-5.863,-8.165,-0.189,-6.296,-8.26,0.77,7.91
,-7.954,-0.704,-6.028,-7.995,-0.258,-6.262,-9.8,1.68,7.84
12645.0,-8.114,-0.325,-6.188,-8.318,-0.979,-6.296,-11.97,0.07,3.85
,-8.208,-0.546,-6.245,-8.198,-0.993,-6.104,-12.18,0.84,3.85
,-8.423,-0.756,-6.195,-7.782,-0.924,-6.334,-12.32,0.98,3.5
,-8.5,-0.912,-6.372,-7.885,-1.058,-6.222,-11.97,0.07,3.29
12720.0,-8.212,-1.041,-6.04,-8.002,-1.096,-6.035,-8.47,-1.96,4.69
,-8.236,-0.945,-6.03,-8.203,-1.244,-5.781,-8.12,-2.66,4.97
,-8.031,-0.866,-6.162,-8.48,-1.318,-5.64,-8.47,-2.8,5.39
,-8.074,-0.981,-6.049,-8.236,-1.082,-5.927,-9.59,-3.64,5.39
12796.0,-8.117,-0.988,-5.97,-8.239,-1.065,-5.492,-3.5,-6.02,4.55
,-7.988,-1.043,-5.829,-8.191,-0.84,-5.769,-3.43,-6.58,4.62
,-8.021,-1.113,-5.571,-8.1,-0.586,-5.53,-3.43,-7.28,4.48
,-8.023,-1.137,-5.609,-8.141,-0.483,-5.607,-2.45,-7.7,4.62
12872.0,-8.155,-0.601,-5.511,-8.576,-0.567,-5.243,1.26,-10.92,3.64
,-8.236,-0.715,-5.36,-8.459,-0.424,-5.406,1.61,-9.45,3.64
,-8.43,-0.739,-5.231,-7.964,-0.436,-5.439,3.22,-7.84,4.06
,-8.397,-0.61,-5.403,-8.088,-0.354,-5.183,5.46,-6.44,4.69
12948.0,-8.169,-0.124,-5.243,-8.402,0.029,-5.564,4.83,-7.35,3.15
,-8.275,0.031,-5.262,-8.327,-0.208,-5.535,3.57,-7.35,2.52
,-8.449,0.122,-5.377,-8.284,-0.816,-5.279,1.96,-6.79,1.89
,-8.516,0.175,-5.408,-8.22,-1.06,-5.288,-0.28,-6.37,1.4
13023.0,-8.229,-0.759,-5.497,-8.191,-0.995,-5.741,2.45,-4.55,0.56
,-8.153,-0.601,-5.731,-8.09,-1.237,-5.822,4.27,-5.53,0.49
,-8.236,-0.593,-5.791,-8.038,-1.261,-5.827,3.36,-6.51,0.35
,-8.224,-0.756,-5.757,-8.179,-1.304,-5.652,1.4,-7.07,0.07
13099.0,-8.418,-1.261,-5.441,-8.337,-0.67,-5.633,3.08,-10.71,3.5
,-8.552,-1.108,-5.523,-8.519,-0.625,-5.516,3.64,-12.25,3.5
,-8.447,-0.861,-5.65,-8.514,-0.687,-5.238,3.64,-14.14,4.06
,-8.313,-0.797,-5.733,-7.688,-1.036,-3.441,3.43,-15.75,4.9
13174.0,-8.488,-0.866,-4.482,-8.741,-0.369,-4.53,0.35,-18.62,4.97
,-8.327,-0.507,-4.681,-8.579,-0.524,-4.501,2.38,-18.76,4.55
,-8.27,-0.421,-4.551,-8.399,-0.433,-4.314,2.8,-18.69,3.85
,-8.538,-0.371,-4.661,-8.409,-0.416,-4.094,2.1,-19.18,4.06
13250.0,-8.586,-0.096,-4.173,-8.827,0.397,-3.898,6.44,-16.94,3.15
,-8.76,0.189,-3.831,-8.825,0.129,-3.781,6.86,-16.45,2.8
,-8.926,0.313,-3.958,-8.835,-0.115,-3.788,5.81,-16.52,1.89
,-8.899,0.445,-4.039,-8.835,-0.206,-3.903,3.43,-16.8,0.63
13326.0,-8.72,-0.146,-4.173,-8.947,-1.019,-4.046,-5.18,-15.26,-4.48
,-8.579,-0.261,-3.97,-8.756,-0.964,-4.147,-7.07,-14.49,-4.55
,-8.72,-0.526,-4.14,-8.655,-0.972,-4.133,-9.31,-14.14,-5.11
,-8.782,-0.948,-3.714,-8.76,-1.117,-4.271,-9.38,-13.16,-5.04
13402.0,-8.722,-1.321,-4.322,-9.062,-0.455,-4.154,-3.99,-11.27,-2.94
,-8.61,-1.354,-3.996,-9.069,-0.203,-4.468,-0.42,-10.43,-1.33
,-8.981,-1.182,-4.02,-8.847,-0.306,-4.465,3.64,-9.8,-0.63
,-9.129,-0.873,-4.178,-8.665,-0.273,-4.381,7.07,-9.38,-0.07
13478.0,-8.768,-0.337,-4.456,-8.744,-0.223,-4.365,9.24,-9.94,-0.77
,-8.789,-0.263,-4.307,-8.674,-0.395,-3.668,10.08,-10.22,-1.12
,-8.945,-0.187,-4.506,-8.806,-0.735,-3.005,11.06,-10.36,-1.26
,-8.818,-0.141,-4.283,-9.1,-1.012,-2.29,10.43,-10.43,-1.75
13553.0,-9.43,-0.842,-2.682,-8.897,-0.826,-3.843,9.45,-5.39,-2.31
,-9.268,-0.543,-2.852,-8.674,-0.931,-3.678,7.56,-4.69,-2.45
,-9.22,-0.4,-3.364,-8.983,-0.847,-3.865,3.22,-4.55,-2.94
,-9.15,-0.57,-3.556,-9.263,-0.797,-3.948,-1.54,-4.34,-3.5
13629.0,-9.088,-0.876,-4.137,-9.182,-0.782,-3.867,-1.61,-2.24,-3.57
,-8.906,-1.177,-3.726,-9.091,-0.38,-3.92,-2.8,-1.96,-2.59
,-9.091,-1.455,-3.695,-8.988,-0.378,-3.912,-0.42,-0.91,-1.61
,-9.148,-1.402,-3.692,-8.954,-0.605,-3.75,4.62,-0.14,-0.98
13705.0,-9.072,-0.672,-3.692,-9.064,-0.692,-3.819,5.32,2.17,-0.35
,-9.1,-0.572,-3.632,-8.873,-0.857,-3.963,5.46,2.59,-0.42
,-9.186,-0.498,-3.496,-8.827,-0.907,-4.082,4.62,2.66,-0.77
,-9.208,-0.586,-3.728,-8.882,-0.792,-4.13,2.94,2.8,-1.54
13781.0,-9.009,-0.629,-4.106,-8.815,-0.907,-4.783,0.07,3.01,-1.96
,-9.079,-0.404,-4.453,-8.727,-1.113,-4.673,-1.89,2.17,-2.66
,-8.949,-0.414,-4.456,-8.77,-1.115,-4.41,-4.48,1.47,-2.73
,-8.909,-0.617,-4.685,-9.019,-1.027,-4.092,-5.67,0.91,-2.73
13856.0,-9.143,-0.838,-3.989,-8.835,-0.821,-4.101,6.23,-0.14,0.63
,-9.165,-0.608,-4.02,-8.902,-0.787,-4.013,6.65,-0.49,0.84
,-9.048,-0.577,-4.2,-8.985,-0.739,-3.922,5.25,-0.77,0.63
,-8.873,-0.773,-4.207,-9.036,-0.677,-3.795,4.2,-0.77,0.7
13932.0,-9.119,-0.663,-3.908,-8.99,-0.878,-3.788,3.01,-0.49,0.63
,-8.985,-0.625,-4.099,-9.184,-0.744,-3.415,2.1,-0.7,0.49
,-8.844,-0.696,-4.073,-9.344,-0.711,-3.285,1.12,-0.84,0.56
,-8.878,-0.878,-4.02,-9.347,-0.881,-3.228,0.98,-0.56,0.49
14007.0,-9.246,-1.053,-3.168,-9.225,-0.945,-2.721,-4.2,2.45,-0.07
,-9.091,-1.223,-3.106,-9.246,-0.51,-3.312,-3.99,3.71,0.42
,-8.966,-1.472,-2.879,-8.799,-0.333,-3.271,-2.31,5.32,1.33
,-9.038,-1.388,-2.615,-8.617,-0.436,-3.192,0.98,7.63,2.8
14083.0,-8.729,-0.804,-2.95,-9.387,-0.007,-4.214,-2.45,14.35,3.71
,-8.966,-0.991,-2.886,-8.614,0.208,-4.886,-0.84,16.38,4.13
,-8.997,-1.062,-2.546,-8.148,-0.196,-4.87,1.12,18.13,4.9
,-9.256,-0.689,-2.886,-8.189,-0.737,-4.721,3.43,19.53,5.39
14159.0,-8.356,-1.053,-4.463,-9.409,0.294,-3.424,-6.23,15.89,0.56
,-8.801,-0.747,-4.326,-8.686,-0.902,-2.831,-1.12,15.4,-1.61
,-9.186,-0.153,-4.003,-8.461,-2.039,-2.654,-0.56,13.93,-4.9
,-9.342,0.483,-3.723,-8.294,-2.144,-3.197,-4.34,12.74,-6.09
14235.0,-7.877,-1.452,-4.305,-8.985,-0.56,-4.31,2.38,20.02,0.56
,-8.267,-0.629,-4.941,-8.27,-0.203,-3.731,6.72,20.3,2.66
,-9.261,-0.146,-5.207,-8.437,0.354,-4.444,3.85,20.65,3.5
,-9.464,-0.471,-4.393,-8.579,0.151,-3.757,0.42,22.54,2.87
14310.0,-9.182,-0.402,-3.967,-8.047,-0.148,-4.575,-2.94,22.4,-2.38
,-9.1,-0.766,-3.805,-7.789,-0.78,-4.401,-1.19,23.31,-1.61
,-9.117,-0.684,-3.491,-8.387,-1.484,-4.664,6.09,25.41,-0.35
,-8.868,-0.325,-4.137,-8.375,-1.531,-5.262,9.8,24.71,-2.31
14386.0,-8.212,-1.17,-5.31,-9.024,-1.582,-5.138,8.54,24.71,-2.1
,-7.923,-0.637,-5.284,-9.675,-1.259,-5.386,10.5,25.83,-2.03
,-7.83,-0.577,-4.594,-9.744,-0.809,-6.138,11.83,29.4,-2.03
,-8.39,-1.015,-4.903,-8.792,-0.493,-6.339,13.23,30.59,-2.38
14462.0,-7.526,-0.445,-6.782,-8.33,0.629,-7.167,21.42,19.32,2.03
,-7.066,-0.546,-6.762,-8.382,0.364,-6.884,20.23,20.79,-0.07
,-7.552,-0.093,-6.463,-8.143,-0.112,-6.832,19.46,20.72,-2.1
,-7.956,0.34,-6.868,-8.205,-0.558,-6.669,16.45,18.41,-3.85
14538.0,-8.148,-0.957,-6.384,-8.117,-2.9,-5.599,0.42,8.82,-8.68
,-7.904,-1.503,-6.04,-8.591,-2.599,-5.676,2.17,9.1,-7.35
,-7.877,-2.178,-5.616,-8.772,-1.902,-5.851,2.87,9.8,-5.25
,-7.923,-2.718,-5.575,-8.449,-1.091,-5.913,4.55,10.36,-2.38
14614.0,-8.047,-0.878,-5.956,-8.612,-1.134,-5.377,9.45,6.09,2.03
,-7.571,-0.962,-5.954,-8.619,-0.804,-5.468,4.76,6.37,3.01
,-7.509,-1.194,-5.731,-8.308,-0.436,-5.638,2.87,7.56,3.64
,-8.071,-1.381,-5.425,-8.014,-0.246,-5.731,4.13,8.12,3.85
14689.0,-8.102,0.103,-5.738,-8.507,-0.012,-5.444,8.33,5.04,0.84
,-8.126,0.421,-5.815,-8.492,-0.395,-5.243,7.35,5.46,-1.05
,-8.318,0.431,-5.748,-8.346,-0.845,-5.348,4.55,5.39,-2.94
,-8.538,0.323,-5.54,-8.397,-1.297,-5.427,1.47,5.6,-3.71
14765.0,-8.787,-1.694,-5.183,-7.351,-1.479,-5.556,2.24,9.31,-4.27
,-8.552,-1.632,-5.449,-7.624,-1.563,-5.733,4.69,7.07,-3.99
,-7.842,-1.701,-5.358,-8.308,-1.395,-5.743,5.46,6.02,-3.43
,-7.217,-1.625,-5.583,-8.452,-1.283,-6.083,4.76,4.97,-3.36
14840.0,-8.212,-1.278,-6.004,-8.011,-2.213,-5.781,0.84,2.45,-2.38
,-7.851,-1.553,-5.937,-7.942,-2.161,-5.597,-0.84,3.36,-1.33
,-7.787,-1.931,-5.822,-8.031,-2.125,-5.36,-0.49,4.13,-0.28
,-7.832,-2.278,-5.729,-8.052,-1.586,-5.36,1.75,5.04,0.84
14916.0,-7.964,-0.988,-5.633,-8.61,0.254,-5.743,11.62,0.42,6.02
,-8.071,-0.55,-5.559,-8.492,0.065,-5.839,11.69,1.05,5.04
,-8.306,0.022,-5.664,-8.129,-0.093,-6.183,11.27,1.4,3.57
,-8.504,0.208,-5.784,-7.973,-0.402,-6.097,9.66,1.89,2.31
14992.0,-7.918,-1.01,-5.908,-8.342,-1.972,-5.535,8.26,-1.75,-1.96
,-8.069,-1.232,-5.865,-7.999,-2.022,-5.523,10.64,-1.75,-2.87
,-8.234,-1.725,-5.76,-7.861,-1.864,-5.561,11.97,-1.26,-2.73
,-8.638,-2.036,-5.547,-7.77,-1.785,-5.848,13.3,-1.61,-2.31
15068.0,-7.978,-1.881,-5.829,-7.978,-1.476,-5.398,13.37,-2.31,1.54
,-7.973,-1.993,-5.791,-7.882,-1.307,-5.379,13.65,-1.4,3.01
,-8.055,-1.883,-5.664,-7.997,-0.881,-5.205,15.26,-0.84,4.27
,-8.107,-1.905,-5.406,-7.832,-0.261,-5.446,16.52,-0.35,5.25
15143.0,-8.16,-0.165,-5.645,-8.189,-0.565,-6.033,14.84,0.0,4.27
,-9.04,-0.199,-5.573,-7.72,-0.744,-6.044,13.02,0.35,3.15
,-9.222,-0.235,-5.52,-7.825,-0.835,-6.224,11.76,0.21,2.8
,-8.768,-0.335,-5.762,-8.074,-1.287,-6.19,10.22,0.49,2.52
15219.0,-8.232,-1.663,-5.968,-7.784,-1.778,-6.128,3.01,3.78,0.07
,-8.227,-2.003,-5.966,-7.923,-1.754,-6.109,2.03,3.29,0.35
,-8.007,-1.972,-6.09,-8.196,-1.881,-5.977,1.19,2.87,0.84
,-7.851,-1.828,-6.15,-8.179,-1.594,-6.025,0.63,3.22,1.19
15294.0,-8.035,-1.472,-6.04,-8.04,-0.823,-6.226,-4.55,3.22,3.85
,-8.045,-1.553,-5.913,-8.124,-0.605,-6.394,-5.74,3.92,4.2
,-8.174,-1.539,-5.738,-8.21,-0.95,-6.243,-5.53,4.48,4.69
,-8.131,-1.268,-5.843,-8.143,-1.302,-6.025,-4.97,4.48,5.39
15370.0,-8.495,-1.484,-5.796,-8.165,-0.601,-6.193,-10.43,4.06,6.44
,-8.648,-1.247,-6.061,-8.337,-0.835,-5.966,-8.75,2.87,6.3
,-8.559,-0.909,-6.178,-8.502,-0.873,-5.721,-7.84,1.75,5.95
,-8.378,-0.632,-6.174,-8.145,-0.811,-5.949,-8.33,0.28,5.04
15446.0,-7.968,-0.835,-5.997,-8.172,-1.094,-5.954,-14.56,-2.52,4.41
,-8.153,-0.797,-5.913,-8.16,-0.897,-5.963,-15.4,-3.92,3.71
,-8.04,-0.931,-5.901,-7.983,-0.967,-6.09,-16.17,-4.48,3.57
,-8.119,-1.098,-5.863,-8.215,-1.082,-5.848,-16.03,-3.78,4.2
15522.0,-8.2,-1.144,-5.867,-7.724,-1.089,-5.741,-10.57,0.35,5.32
,-8.32,-1.244,-5.738,-7.729,-1.055,-5.757,-9.66,-0.84,6.02
,-8.571,-1.455,-5.252,-8.181,-1.029,-5.686,-10.15,-3.29,6.16
,-8.337,-1.251,-5.501,-8.177,-0.78,-5.485,-9.94,-7.98,4.9
15598.0,-8.222,-0.641,-5.75,-8.772,-0.814,-5.24,-2.94,-9.38,3.64
,-8.145,-0.742,-5.592,-8.33,-0.38,-5.566,-3.01,-7.98,3.99
,-8.193,-0.818,-5.528,-8.093,-0.172,-5.633,-1.96,-7.14,4.13
,-8.196,-0.816,-5.564,-8.062,-0.201,-5.542,0.42,-5.88,4.83
15673.0,-8.215,-0.23,-5.437,-8.21,-0.567,-5.341,-0.91,-10.92,1.33
,-8.203,-0.156,-5.432,-8.162,-0.854,-5.31,-1.89,-10.64,0.56
,-8.239,-0.261,-5.365,-8.758,-1.115,-5.049,-3.36,-9.73,0.77
,-8.356,-0.474,-5.209,-8.851,-1.431,-5.243,-5.11,-9.17,1.05
15749.0,-8.289,-0.507,-5.86,-8.524,-0.957,-5.339,0.84,-12.74,1.61
,-8.09,-0.842,-5.915,-8.476,-0.9,-5.073,2.73,-11.83,2.38
,-8.112,-0.936,-5.664,-8.48,-0.838,-5.056,1.75,-11.2,3.57
,-8.449,-1.043,-5.296,-8.133,-0.553,-5.372,1.47,-10.64,4.34
15825.0,-8.155,-0.395,-5.408,-8.552,-0.036,-5.561,-1.19,-13.93,5.18
,-8.337,-0.172,-5.341,-8.38,-0.139,-5.446,-1.75,-13.58,5.11
,-8.461,-0.045,-5.508,-8.54,-0.261,-5.231,-2.1,-14.0,4.48
,-8.574,0.0,-5.485,-8.452,-0.371,-5.083,-2.45,-13.51,3.99
15901.0,-8.741,-0.495,-4.774,-8.461,-0.249,-4.683,-0.14,-11.76,1.96
,-8.914,-0.567,-4.566,-8.44,-0.227,-5.123,-5.04,-11.62,1.82
,-8.689,-0.546,-4.647,-8.567,-0.266,-4.85,-4.83,-14.98,1.33
,-8.634,-0.268,-4.657,-8.653,-0.146,-4.771,-4.13,-16.45,0.98
15976.0,-8.488,-0.074,-4.511,-8.76,-0.926,-3.999,-3.43,-13.86,-1.4
,-8.531,-0.369,-4.202,-9.299,-1.106,-4.049,-2.66,-12.46,-1.68
,-8.626,-0.541,-4.183,-9.043,-0.771,-4.082,-1.33,-11.97,-1.89
,-8.626,-0.723,-4.255,-8.598,-0.529,-4.362,-1.19,-11.97,-1.33
16052.0,-8.306,-0.704,-4.046,-8.969,-0.826,-4.082,-3.29,-13.44,-1.68
,-8.574,-0.885,-3.888,-8.775,-0.658,-4.305,-2.87,-12.74,-1.68
,-8.839,-0.972,-3.893,-8.583,-0.522,-4.405,-1.96,-12.25,-1.61
,-9.019,-0.9,-3.879,-8.789,-0.517,-4.714,-0.7,-11.83,-1.19
16127.0,-8.574,-0.476,-4.645,-9.182,-0.744,-4.166,9.31,-9.17,2.17
,-8.593,-0.644,-4.86,-9.131,-0.438,-3.891,9.66,-9.73,3.01
,-8.672,-0.768,-4.764,-8.985,-0.019,-3.778,9.8,-10.57,3.36
,-8.938,-0.811,-4.585,-8.952,-0.045,-4.037,11.27,-10.85,3.78
16203.0,-8.885,-0.347,-4.049,-8.825,-0.431,-4.13,3.15,-12.32,0.28
,-8.851,-0.596,-4.089,-8.985,-0.256,-4.089,2.1,-12.25,0.0
,-8.737,-0.847,-4.02,-8.988,-0.163,-3.891,4.27,-11.69,0.07
,-8.701,-0.759,-4.121,-8.983,-0.237,-3.592,7.56,-11.27,0.21
16279.0,-8.997,-0.273,-3.573,-8.765,-0.436,-4.13,11.2,-9.38,1.33
,-9.134,-0.045,-4.29,-8.947,-0.916,-3.699,10.85,-10.08,-0.07
,-8.928,0.06,-4.654,-8.99,-1.177,-3.027,7.35,-11.55,-1.47
,-8.674,-0.055,-4.429,-9.261,-1.003,-3.041,3.64,-12.04,-1.47
16355.0,-9.316,-0.804,-3.13,-8.801,-1.137,-3.293,8.26,-8.61,-0.77
,-9.124,-0.9,-3.12,-8.887,-1.007,-3.072,5.46,-8.26,-0.35
,-9.076,-0.838,-3.297,-9.17,-0.814,-2.998,4.97,-7.7,0.42
,-8.978,-0.782,-3.546,-9.299,-0.663,-2.79,4.62,-7.14,0.35
16430.0,-9.416,-0.57,-2.527,-9.146,-0.581,-2.869,8.96,-0.84,2.59
,-9.454,-0.522,-2.704,-9.27,-0.424,-3.032,6.93,0.21,2.38
,-9.217,-0.67,-2.685,-9.342,-0.335,-3.199,5.46,1.54,2.38
,-9.057,-0.725,-2.749,-9.261,-0.369,-3.707,5.32,3.15,2.66
16506.0,-9.146,-0.44,-4.054,-8.837,-0.806,-4.812,1.26,6.51,1.61
,-9.0,-0.294,-4.63,-8.971,-0.89,-4.532,1.33,5.81,1.26
,-8.835,-0.318,-4.989,-9.098,-0.895,-4.353,0.63,4.97,0.56
,-8.796,-0.538,-5.056,-9.153,-0.763,-4.003,0.28,4.34,0.35
16582.0,-9.263,-0.493,-4.2,-9.165,-0.598,-3.757,6.3,2.17,1.68
,-9.1,-0.404,-4.18,-9.261,-0.459,-3.565,5.25,1.68,1.54
,-8.985,-0.407,-4.176,-9.301,-0.256,-3.795,3.85,1.47,1.68
,-8.997,-0.44,-3.951,-9.158,-0.237,-4.094,2.17,1.54,1.47
16658.0,-8.976,-0.29,-4.408,-9.115,-0.713,-3.92,-4.34,0.56,-0.56
,-8.794,-0.538,-4.532,-9.148,-0.455,-4.121,-5.04,0.35,-0.28
,-8.811,-0.787,-4.312,-9.139,-0.342,-4.154,-3.64,0.42,0.07
,-8.928,-0.83,-4.147,-8.988,-0.445,-4.245,-0.63,0.42,0.49
16734.0,-8.949,-0.823,-3.989,-9.301,-0.514,-3.417,-1.75,-0.84,0.21
,-8.942,-1.003,-3.766,-9.239,-0.244,-3.613,0.42,-0.42,0.63
,-9.052,-1.012,-3.556,-9.062,-0.227,-3.764,3.36,0.14,0.98
,-9.239,-0.742,-3.391,-8.973,-0.261,-3.912,5.11,0.56,1.26
16809.0,-8.861,-0.593,-3.944,-9.129,-0.158,-3.975,-0.42,1.05,-0.14
,-8.954,-0.864,-3.826,-9.16,-0.06,-4.068,0.7,1.61,0.14
,-9.124,-0.763,-3.702,-9.072,-0.258,-4.032,3.01,2.1,0.56
,-9.256,-0.459,-3.886,-8.973,-0.328,-3.984,3.92,1.89,0.28
16885.0,-9.026,-0.4,-3.833,-9.129,-0.483,-3.527,-6.65,1.05,-2.73
,-9.172,-0.45,-3.616,-9.136,-0.608,-3.501,-6.86,1.4,-2.94
,-9.275,-0.376,-3.589,-9.148,-0.713,-3.546,-6.93,1.89,-3.01
,-9.189,-0.373,-3.577,-9.206,-0.634,-3.47,-7.77,1.96,-3.15
16960.0,-9.201,-0.632,-3.68,-9.098,-0.861,-3.838,-3.5,4.34,-1.82
,-9.088,-0.737,-3.836,-9.088,-0.847,-3.731,-3.43,4.62,-1.47
,-8.949,-0.792,-3.948,-9.038,-0.814,-3.441,-2.94,4.69,-0.98
,-8.978,-0.835,-3.891,-9.141,-0.756,-3.254,-1.68,5.18,-0.35
17036.0,-9.244,-0.802,-3.525,-9.045,-0.637,-3.178,3.99,8.47,2.38
,-8.961,-0.821,-3.549,-9.172,-0.479,-3.403,4.48,8.89,2.94
,-8.806,-0.637,-3.448,-9.062,-0.074,-3.659,5.32,9.59,3.36
,-8.887,-0.603,-3.324,-8.93,0.261,-3.85,5.95,10.99,3.57
17112.0,-8.997,0.349,-3.903,-9.198,-0.931,-4.319,0.21,13.3,1.19
,-9.191,-0.024,-4.075,-8.856,-0.68,-4.611,-4.2,13.16,0.14
,-9.194,-0.589,-3.697,-8.658,-0.553,-4.429,-7.21,13.37,-0.42
,-9.275,-0.857,-3.649,-8.753,-0.565,-4.329,-7.35,13.65,-1.05
17188.0,-8.76,-0.701,-4.29,-8.375,-1.048,-4.252,-6.86,11.76,-2.38
,-8.54,-0.955,-3.376,-8.222,-1.563,-4.027,-3.71,12.39,-1.4
,-8.871,-0.701,-3.951,-8.315,-1.9,-3.209,0.21,12.39,-0.84
,-8.744,-0.491,-4.391,-9.007,-1.857,-2.9,-0.98,11.62,-1.12
17263.0,-9.146,-1.247,-3.475,-9.167,-0.45,-3.884,14.63,20.72,5.81
,-8.662,-0.416,-3.355,-9.165,-0.794,-4.369,14.91,20.86,6.58
,-8.777,0.189,-3.898,-8.837,-0.689,-3.936,12.25,20.3,8.12
,-8.988,0.122,-4.089,-8.528,-0.194,-4.111,5.67,19.53,7.77
17339.0,-8.418,0.278,-4.25,-8.641,0.213,-4.738,13.72,24.01,4.34
,-8.49,0.639,-4.829,-8.552,0.017,-5.068,11.55,22.12,2.03
,-8.634,0.591,-5.018,-8.402,-0.134,-5.231,6.51,20.79,1.05
,-8.638,0.471,-4.903,-8.356,-0.675,-5.114,3.01,21.14,0.98
17415.0,-8.626,-1.043,-4.736,-8.528,-0.199,-5.633,1.75,19.39,-1.4
,-9.119,-1.12,-4.204,-8.016,0.096,-6.449,3.64,20.16,-1.12
,-9.411,-0.948,-4.609,-7.973,-0.208,-6.741,6.16,18.9,-2.1
,-8.911,-0.689,-4.681,-8.203,-0.663,-6.224,6.37,17.01,-3.15
17491.0,-8.363,-0.983,-5.987,-8.351,-0.309,-5.614,2.73,14.56,-2.31
,-8.196,-0.876,-5.989,-8.48,-0.505,-5.322,7.84,13.02,-2.8
,-8.064,-0.503,-6.1,-8.78,-0.89,-4.937,10.85,10.29,-2.31
,-8.028,-0.292,-5.992,-9.134,-1.019,-4.611,11.2,8.82,-1.47
17567.0,-8.842,-1.074,-4.783,-8.143,-0.672,-5.26,6.79,9.24,-0.77
,-8.6,-1.101,-4.927,-8.397,-0.44,-5.458,5.53,9.1,0.49
,-8.265,-1.132,-5.092,-8.514,-0.191,-5.389,4.69,9.66,1.54
,-8.093,-1.01,-5.269,-8.483,0.139,-5.597,5.67,10.43,1.47
17642.0,-8.366,0.366,-5.621,-8.741,-0.534,-4.736,9.59,11.2,-0.63
,-8.437,0.514,-5.504,-8.737,-0.4,-4.846,8.47,11.13,-2.03
,-8.27,0.115,-5.147,-8.349,-0.371,-5.042,5.74,11.83,-3.36
,-8.466,-0.421,-4.817,-8.141,-0.481,-5.267,3.64,12.6,-4.41
17718.0,-8.191,-0.849,-5.262,-7.961,-0.455,-5.841,1.05,11.97,-5.74
,-8.344,-0.933,-5.408,-8.004,-0.459,-5.642,0.77,11.34,-5.74
,-8.299,-0.708,-5.64,-8.291,-0.553,-5.657,1.47,10.43,-6.23
,-8.086,-0.558,-5.642,-8.502,-0.871,-5.492,1.4,10.08,-7.21
17793.0,-8.409,-1.07,-5.465,-8.078,-1.938,-5.518,-2.94,10.99,-7.35
,-8.177,-1.472,-5.396,-8.301,-1.67,-5.475,-2.52,10.99,-6.02
,-8.078,-1.752,-5.43,-8.145,-1.371,-5.599,-2.03,10.57,-4.55
,-7.954,-1.936,-5.513,-7.861,-1.208,-5.743,-0.21,10.57,-2.8
17869.0,-8.05,-1.098,-5.788,-7.825,-0.163,-6.255,4.55,8.75,0.7
,-8.098,-0.909,-5.918,-8.098,-0.268,-6.121,4.41,8.89,1.05
,-8.145,-0.849,-5.913,-8.435,-0.55,-5.982,4.34,8.54,1.4
,-8.047,-0.526,-5.951,-8.428,-0.995,-5.951,5.11,7.21,1.12
17945.0,-8.648,-1.388,-5.834,-7.6,-1.347,-5.922,3.78,6.86,0.35
,-8.866,-1.476,-5.836,-7.765,-1.072,-6.073,5.67,5.18,0.35
,-8.263,-1.455,-5.891,-8.055,-0.952,-6.195,6.86,4.48,1.05
,-7.669,-1.496,-5.877,-8.387,-0.924,-5.927,7.98,5.18,2.03
18021.0,-8.095,-1.003,-5.922,-8.256,-1.474,-5.552,3.5,1.33,3.85
,-7.865,-1.153,-5.853,-8.093,-1.371,-5.681,2.24,0.91,4.06
,-7.875,-1.464,-5.784,-7.992,-1.359,-5.712,2.8,1.12,4.69
,-8.131,-1.524,-5.75,-7.954,-1.122,-5.815,4.97,0.98,5.32
18096.0,-7.806,-0.514,-5.97,-8.741,-0.79,-5.379,14.28,-1.47,6.93
,-7.861,-0.036,-6.066,-8.461,-0.857,-5.343,14.98,-1.33,5.95
,-8.208,-0.022,-5.867,-8.047,-0.792,-5.367,12.6,-0.7,5.67
,-8.349,-0.471,-5.772,-7.999,-0.766,-5.267,10.5,0.14,5.81
18172.0,-8.198,-0.503,-5.458,-7.921,-0.392,-5.891,14.21,0.42,3.85
,-8.423,-0.325,-5.626,-7.952,-0.493,-6.059,14.56,0.77,2.73
,-8.543,-0.237,-5.808,-8.114,-0.909,-5.98,14.14,0.56,2.52
,-8.318,-0.213,-5.781,-8.028,-1.496,-5.733,13.16,0.21,2.52
18248.0,-7.863,-2.06,-5.506,-8.65,-1.187,-5.939,11.62,2.1,5.39
,-8.057,-2.123,-5.473,-8.739,-0.62,-5.762,14.28,2.45,6.72
,-8.373,-1.945,-5.554,-8.038,-0.235,-6.109,17.64,2.03,7.63
,-8.318,-1.709,-5.963,-7.463,-0.553,-6.143,19.04,2.24,8.19
18324.0,-7.511,-0.778,-5.982,-8.423,-0.034,-5.695,9.1,-3.01,7.56
,-8.016,-0.895,-5.683,-8.122,0.282,-5.702,8.61,-2.8,7.63
,-8.442,-0.675,-5.772,-8.081,0.048,-5.671,9.45,-3.43,6.72
,-8.76,-0.373,-5.738,-8.22,-0.232,-5.688,9.73,-3.85,5.67
18399.0,-8.461,-0.182,-5.532,-8.411,-0.503,-5.439,5.25,0.07,0.84
,-8.406,0.378,-5.741,-8.162,-0.849,-5.284,5.6,-0.7,-0.07
,-8.141,0.373,-5.846,-7.928,-1.043,-5.267,3.01,-1.12,-1.33
,-8.248,-0.081,-5.587,-7.992,-0.955,-5.374,-0.14,-0.63,-2.59
18475.0,-8.186,-0.579,-5.556,-8.095,-0.814,-5.709,-3.08,0.77,-3.71
,-8.311,-0.333,-5.784,-8.112,-0.969,-5.695,-4.27,0.98,-4.2
,-8.342,-0.412,-5.875,-8.136,-0.943,-5.705,-5.67,1.33,-4.83
,-8.323,-0.55,-5.815,-8.232,-0.644,-5.781,-7.07,1.82,-5.46
18550.0,-8.512,-0.455,-5.899,-8.059,-1.831,-5.714,-7.56,3.78,-5.88
,-8.387,-0.524,-6.018,-7.932,-1.984,-5.793,-10.08,2.52,-6.02
,-8.227,-0.608,-6.171,-8.098,-2.28,-5.839,-11.55,1.68,-6.44
,-7.681,-1.493,-5.877,-8.203,-2.369,-5.848,-13.51,1.89,-5.74
18626.0,-8.267,-2.321,-5.803,-8.385,-0.881,-6.068,-7.91,3.85,3.22
,-8.26,-2.012,-6.009,-8.294,-0.857,-5.872,-5.6,3.08,4.48
,-8.284,-1.651,-6.229,-8.184,-0.677,-5.875,-4.2,2.31,5.6
,-8.528,-1.18,-6.183,-8.102,-0.433,-5.999,-3.78,0.98,6.23
18702.0,-8.267,-0.311,-5.97,-8.023,-0.687,-5.937,-4.83,-0.42,7.0
,-8.38,-0.366,-6.047,-8.038,-0.785,-5.865,-5.95,-1.96,7.14
,-8.222,-0.562,-5.925,-8.155,-0.756,-5.963,-6.65,-2.73,6.93
,-8.133,-0.668,-5.872,-8.358,-0.732,-5.949,-6.93,-3.22,6.51
18778.0,-8.445,-0.833,-6.04,-8.081,-1.235,-5.781,-4.97,-3.99,6.79
,-8.244,-0.995,-6.138,-7.968,-1.187,-5.767,-4.83,-2.87,7.28
,-8.318,-1.182,-5.951,-8.136,-0.928,-5.872,-4.48,-1.82,7.21
,-8.485,-1.247,-5.712,-8.27,-0.598,-5.872,-3.64,-3.71,6.58
18854.0,-8.021,-0.364,-5.724,-8.224,-0.447,-5.508,4.06,-6.72,6.37
,-8.229,-0.395,-5.583,-8.519,-0.512,-5.367,3.99,-5.81,6.51
,-8.279,-0.361,-5.453,-8.622,-0.467,-5.329,3.43,-6.79,6.37
,-8.057,-0.364,-5.585,-8.502,-0.213,-5.343,2.45,-7.21,6.09
18929.0,-8.153,-0.179,-5.348,-8.378,-0.263,-5.152,4.97,-5.25,5.95
,-7.947,-0.325,-5.351,-8.533,0.029,-5.243,3.5,-3.71,6.44
,-8.045,-0.481,-5.236,-8.44,0.179,-5.348,3.29,-2.94,7.07
,-8.212,-0.476,-5.195,-8.552,-0.12,-5.25,4.34,-3.08,7.42
19005.0,-8.299,0.196,-5.571,-8.76,0.254,-5.274,3.36,-5.88,4.34
,-8.394,-0.196,-5.686,-8.538,0.452,-5.408,4.55,-6.44,3.5
,-8.212,-0.062,-5.626,-8.217,0.256,-5.398,4.41,-7.7,2.73
,-8.607,0.062,-5.449,-8.184,-0.165,-5.219,4.27,-8.4,2.03
19081.0,-8.26,-0.488,-5.193,-8.722,-0.179,-5.118,-5.81,-11.76,-1.75
,-8.555,-0.512,-5.099,-8.399,-0.223,-5.214,-4.2,-11.83,-2.45
,-8.748,-0.431,-4.982,-8.368,-0.696,-4.975,-2.59,-12.39,-2.52
,-8.789,-0.364,-4.889,-8.464,-1.017,-4.915,-2.17,-13.02,-2.73
19157.0,-8.586,-0.919,-4.97,-8.354,-1.091,-4.781,-5.39,-14.77,-3.64
,-8.5,-0.715,-4.968,-8.296,-1.137,-4.867,-3.99,-15.26,-3.22
,-8.545,-0.615,-4.968,-8.303,-1.01,-4.97,-4.9,-15.75,-2.24
,-8.44,-0.814,-4.908,-8.344,-0.613,-5.023,-6.23,-15.82,-1.33
19232.0,-8.567,-0.452,-4.922,-8.823,-0.258,-4.59,2.38,-16.52,2.94
,-8.667,-0.505,-4.805,-8.55,-0.153,-4.855,1.47,-16.24,3.29
,-8.631,-0.584,-4.578,-8.433,-0.349,-4.803,2.31,-15.47,3.43
,-8.784,-0.493,-4.537,-8.562,-0.505,-4.721,4.41,-15.68,3.29
19308.0,-8.746,-0.536,-4.441,-8.729,0.232,-4.456,3.71,-16.73,3.5
,-8.83,-0.371,-4.226,-8.969,0.041,-4.482,6.44,-16.31,3.22
,-8.856,-0.005,-4.439,-8.949,-0.361,-4.578,7.07,-16.66,2.66
,-8.782,0.237,-4.618,-8.705,-0.632,-4.314,5.25,-17.15,2.52
19383.0,-8.619,-0.51,-4.393,-9.021,-0.407,-3.673,2.1,-17.43,1.12
,-8.636,-0.428,-4.317,-8.878,-0.584,-4.587,2.52,-18.06,1.33
,-8.988,-0.318,-4.123,-8.416,-0.656,-4.331,2.8,-18.06,1.54
,-9.189,-0.328,-4.235,-8.638,-0.658,-4.434,0.91,-18.34,0.84
19459.0,-8.851,-0.517,-3.944,-9.299,0.373,-3.446,1.33,-18.27,1.19
,-9.129,-0.364,-3.439,-9.093,0.191,-3.936,5.32,-17.22,1.05
,-9.232,0.012,-2.931,-8.748,-0.038,-4.233,7.77,-16.45,0.42
,-9.354,0.261,-3.154,-8.739,-0.476,-4.018,6.16,-16.52,-0.42
19535.0,-8.899,-1.015,-3.482,-9.517,0.172,-3.01,0.07,-16.31,-0.98
,-9.186,-1.01,-2.745,-9.196,0.184,-3.372,6.44,-14.07,-0.07
,-9.344,-0.756,-2.264,-9.005,-0.002,-3.381,10.29,-12.6,0.35
,-9.588,-0.232,-2.477,-9.079,-0.323,-3.259,11.55,-11.69,0.42
19611.0,-9.052,-0.589,-3.403,-9.49,-0.014,-3.23,2.73,-7.77,-1.26
,-8.954,-0.581,-3.022,-9.414,-0.168,-3.262,6.79,-6.3,-0.28
,-9.241,-0.256,-2.821,-9.112,-0.297,-2.979,9.52,-5.32,0.28
,-9.438,-0.17,-2.941,-9.105,-0.548,-2.888,8.4,-4.9,-0.14
19687.0,-9.127,-0.816,-2.568,-9.146,-0.416,-3.64,-1.89,-1.47,-2.1
,-9.39,-0.816,-2.668,-9.064,-0.421,-3.723,0.91,-0.07,-1.54
,-9.55,-0.715,-3.199,-9.179,-0.431,-3.845,2.17,0.63,-1.4
,-9.33,-0.438,-3.513,-9.387,-0.452,-4.192,2.38,0.63,-0.7
19762.0,-9.012,-0.371,-4.142,-9.308,-0.469,-3.202,3.01,0.21,-1.26
,-9.024,-0.108,-3.561,-9.22,-0.452,-3.108,0.98,-0.07,-0.7
,-9.105,-0.196,-3.357,-9.256,-0.651,-3.123,-0.84,-0.28,-1.05
,-9.292,-0.436,-3.506,-9.313,-0.584,-3.202,-1.33,0.14,-1.19
19838.0,-9.184,-0.33,-3.099,-9.184,-0.402,-3.465,-2.17,2.87,-1.05
,-9.296,-0.325,-3.039,-9.22,-0.519,-3.463,-2.52,3.78,-0.91
,-9.373,-0.378,-3.197,-9.239,-0.498,-3.525,-2.8,4.2,-0.98
,-9.222,-0.369,-3.242,-9.354,-0.373,-3.783,-2.31,4.34,-0.63
19914.0,-9.203,-0.325,-4.013,-9.112,-0.534,-4.109,2.38,5.18,0.14
,-9.11,-0.349,-4.379,-9.124,-0.347,-3.989,2.45,4.48,0.07
,-8.961,-0.553,-4.307,-9.273,-0.23,-3.853,3.01,4.2,0.42
,-8.928,-0.715,-4.118,-9.457,-0.184,-3.826,5.11,4.27,1.12
19990.0,-9.206,-0.206,-3.807,-8.947,-0.718,-3.723,4.48,2.03,0.35
,-9.177,-0.273,-3.936,-9.05,-0.751,-3.489,2.73,1.47,-0.07
,-9.057,-0.55,-4.025,-9.22,-0.589,-3.331,1.47,1.19,-0.56
,-8.966,-0.66,-3.999,-9.397,-0.309,-3.307,1.54,0.91,-0.28
20065.0,-9.402,-0.132,-3.403,-9.005,-0.608,-3.64,3.57,2.03,0.42
,-9.34,-0.179,-3.491,-9.091,-0.531,-3.575,1.05,1.82,-0.14
,-9.162,-0.397,-3.575,-9.239,-0.404,-3.668,-0.21,1.89,-0.21
,-9.148,-0.543,-3.587,-9.277,-0.342,-3.75,0.56,2.45,-0.21
20141.0,-9.234,-0.345,-3.795,-9.249,-0.61,-3.597,3.92,2.52,-0.21
,-9.124,-0.462,-3.843,-9.28,-0.426,-3.486,3.08,2.45,-0.21
,-9.045,-0.646,-3.714,-9.241,-0.318,-3.508,3.22,2.59,0.07
,-9.11,-0.723,-3.637,-9.222,-0.287,-3.613,4.55,2.8,0.21
20216.0,-9.15,-0.285,-3.58,-9.249,-0.211,-3.233,4.83,3.29,0.28
,-9.119,-0.369,-3.436,-9.313,-0.194,-3.264,4.55,3.78,0.28
,-9.172,-0.354,-3.331,-9.28,-0.191,-3.553,4.41,4.13,0.0
,-9.292,-0.33,-3.362,-9.232,-0.278,-3.893,4.48,4.48,-0.49
20292.0,-9.079,-0.61,-4.046,-9.258,-0.732,-2.402,-2.94,3.71,-3.08
,-8.863,-0.782,-3.958,-9.538,-0.531,-2.324,-3.08,3.78,-2.87
,-8.928,-0.72,-3.68,-9.581,-0.34,-2.704,-1.4,4.2,-2.17
,-9.002,-0.766,-3.132,-9.256,-0.199,-2.96,0.84,5.46,-1.61
20368.0,-8.954,-0.354,-3.293,-9.361,0.144,-3.79,0.98,11.83,1.05
,-8.713,-0.782,-3.204,-9.172,0.256,-3.845,1.54,13.72,1.89
,-8.899,-0.945,-3.197,-8.966,-0.285,-3.597,5.81,15.54,2.52
,-9.191,-0.445,-3.254,-9.033,-0.897,-3.144,10.57,16.8,2.73
20444.0,-9.356,-0.842,-3.936,-8.638,-0.699,-4.369,-1.96,18.48,1.96
,-9.093,-0.409,-4.59,-8.782,-1.151,-3.91,-0.7,16.66,0.56
,-8.837,-0.053,-4.987,-8.976,-1.278,-3.386,-3.5,14.77,0.21
,-8.617,-0.077,-4.994,-9.21,-0.897,-3.24,-8.75,13.16,0.21
20519.0,-9.241,-0.574,-2.781,-8.815,-0.16,-4.281,1.4,18.13,1.54
,-9.261,-0.514,-2.656,-8.524,-0.254,-5.209,1.4,19.88,1.75
,-9.005,-0.431,-2.154,-8.203,-0.443,-5.506,1.54,21.42,1.47
,-8.894,-0.203,-3.025,-8.409,-0.842,-5.102,2.38,21.42,1.12
20595.0,-8.346,-0.962,-4.178,-9.241,0.567,-3.345,2.03,17.78,0.42
,-8.614,-0.663,-3.855,-9.383,0.555,-3.056,9.66,19.88,-0.77
,-8.708,-0.093,-3.723,-9.349,0.345,-3.865,13.86,21.63,-2.38
,-9.055,0.421,-3.46,-9.043,-0.06,-4.719,15.05,23.66,-2.45
20670.0,-8.402,-0.479,-5.494,-8.086,-0.553,-4.853,-6.65,17.64,-3.71
,-8.39,-0.627,-5.343,-8.421,-1.065,-4.405,-4.2,17.85,-3.01
,-8.167,-0.318,-5.693,-8.815,-1.407,-4.137,0.07,17.01,-4.41
,-7.909,-0.309,-5.231,-8.93,-1.479,-3.865,2.24,18.41,-5.81
20746.0,-9.038,-1.144,-4.453,-8.086,-1.838,-5.688,3.36,19.46,-2.17
,-8.739,-1.015,-5.312,-8.229,-2.02,-5.396,5.11,17.29,-1.4
,-8.588,-1.007,-5.82,-8.038,-1.917,-5.047,5.53,15.82,0.21
,-8.267,-1.273,-6.078,-8.488,-1.318,-4.855,4.9,15.26,2.03
20822.0,-8.567,-0.782,-5.075,-8.37,-0.203,-5.623,21.63,15.75,3.01
,-8.411,-0.385,-5.126,-8.291,0.141,-5.891,18.62,16.24,4.83
,-8.495,-0.44,-4.982,-8.339,0.526,-5.776,14.0,16.03,6.58
,-8.457,-0.414,-5.128,-8.5,0.742,-5.42,11.83,16.52,6.86
20898.0,-8.708,0.692,-5.329,-8.43,-0.041,-5.08,11.2,19.04,-0.07
,-8.921,0.483,-5.351,-8.614,-0.256,-4.963,9.94,18.76,-1.12
,-8.866,0.347,-5.425,-8.528,-0.581,-5.126,8.68,18.06,-2.03
,-8.607,0.256,-5.317,-8.844,-0.792,-5.195,8.19,17.85,-2.45
20974.0,-8.715,-0.727,-5.511,-8.177,-1.304,-5.317,4.48,13.65,-5.18
,-7.983,-0.725,-5.774,-8.387,-0.993,-5.348,3.29,13.79,-4.83
,-7.545,-0.902,-5.843,-8.337,-0.665,-5.542,3.22,15.12,-4.62
,-7.669,-1.132,-5.406,-8.165,-0.687,-5.717,3.5,16.45,-5.04
21049.0,-8.095,-1.18,-5.642,-8.088,-0.634,-5.48,0.35,12.95,-3.78
,-8.102,-1.732,-5.307,-8.124,-0.165,-5.698,-0.28,14.77,-2.38
,-8.143,-1.716,-5.24,-8.114,-0.026,-5.946,3.22,16.1,-1.12
,-7.992,-1.263,-5.43,-8.277,-0.342,-5.855,7.98,16.17,-0.42
21125.0,-8.497,-0.57,-5.937,-7.71,-1.421,-6.289,4.2,12.88,-2.66
,-8.39,-0.909,-5.994,-7.784,-1.426,-6.344,4.48,12.74,-3.29
,-8.387,-1.232,-5.748,-7.825,-1.505,-6.358,4.83,11.41,-3.99
,-7.906,-1.424,-5.942,-8.117,-1.62,-5.999,6.72,10.01,-3.64
21201.0,-8.122,-1.586,-5.939,-8.009,-0.732,-5.963,10.64,7.0,1.12
,-8.021,-1.393,-5.894,-8.402,-0.428,-5.731,11.2,6.79,1.96
,-7.865,-1.072,-5.987,-8.313,-0.232,-5.899,11.97,6.58,2.52
,-7.798,-0.785,-6.042,-8.129,-0.366,-5.985,12.25,6.51,2.66
21277.0,-7.988,-0.634,-6.061,-8.258,-0.462,-5.968,11.55,3.99,0.35
,-8.076,-0.756,-6.109,-8.172,-0.438,-6.023,13.58,4.55,-0.42
,-8.1,-0.713,-6.131,-7.988,-0.838,-5.846,17.08,4.48,-1.19
,-8.047,-0.531,-6.207,-7.789,-1.441,-5.712,19.6,4.55,-2.38
21352.0,-7.772,-1.591,-5.671,-8.208,-1.584,-5.662,11.83,2.17,-5.04
,-7.916,-1.613,-5.69,-7.952,-1.567,-5.666,14.0,2.94,-4.41
,-8.406,-1.74,-5.441,-7.839,-1.914,-5.52,14.98,3.01,-3.85
,-8.394,-1.615,-5.633,-7.889,-1.472,-5.762,16.24,2.03,-3.71
21428.0,-8.007,-1.232,-6.047,-7.763,-1.895,-5.657,22.05,0.14,-0.7
,-7.765,-1.235,-6.279,-7.794,-1.673,-5.707,20.93,0.0,-0.21
,-7.997,-1.402,-5.918,-7.961,-1.17,-5.841,18.2,-0.77,0.14
,-7.818,-1.677,-5.843,-8.21,-1.086,-5.937,17.01,-0.91,0.77
21503.0,-8.545,-0.842,-5.966,-7.741,-1.342,-6.03,18.62,0.84,2.45
,-8.37,-0.617,-6.322,-7.818,-1.18,-6.178,17.08,-0.49,2.52
,-8.399,-0.967,-6.119,-7.94,-1.311,-6.121,13.3,-0.63,2.94
,-8.105,-1.232,-5.973,-8.098,-1.778,-5.994,10.85,-0.56,2.87
21579.0,-8.15,-2.412,-5.638,-7.99,-1.469,-6.131,4.27,-0.77,4.34
,-7.767,-2.498,-5.609,-8.263,-0.931,-6.389,4.9,-1.4,5.67
,-7.662,-2.123,-5.76,-8.655,-0.78,-6.164,5.67,-1.96,5.88
,-7.782,-2.067,-5.889,-8.449,-0.828,-5.901,6.09,-1.47,6.02
21655.0,-7.815,-0.945,-5.669,-8.402,-0.388,-5.997,2.17,-0.21,4.76
,-7.681,-0.838,-5.741,-8.368,-0.263,-6.061,0.63,0.56,4.06
,-7.839,-0.821,-5.805,-8.141,-0.407,-6.028,-0.91,1.54,3.29
,-8.124,-0.639,-5.867,-8.172,-0.845,-5.851,-1.96,1.89,2.17
21731.0,-8.229,-0.991,-5.796,-8.102,-1.498,-6.076,-8.89,2.1,-1.26
,-7.868,-1.374,-5.908,-8.313,-1.409,-5.989,-10.01,2.66,-0.63
,-7.873,-1.467,-5.977,-8.177,-1.283,-6.03,-10.57,3.15,-0.14
,-8.04,-1.433,-6.109,-7.959,-1.304,-6.21,-11.34,2.94,0.21
21807.0,-7.916,-1.156,-6.312,-8.404,-1.039,-6.42,-17.92,-0.21,3.64
,-8.004,-0.878,-6.391,-8.203,-1.342,-6.573,-17.99,-1.4,3.64
,-8.212,-0.852,-6.444,-8.131,-1.443,-6.564,-19.04,-2.03,3.15
,-8.445,-0.859,-6.332,-8.603,-1.555,-6.128,-19.88,-2.24,3.22
21882.0,-8.586,-1.4,-6.155,-8.289,-1.555,-6.245,-12.74,-5.53,5.95
,-7.729,-1.381,-6.291,-8.543,-1.359,-6.406,-12.6,-7.7,6.16
,-7.368,-1.464,-6.37,-8.646,-1.357,-5.963,-12.81,-7.14,6.79
,-7.892,-1.603,-6.152,-7.999,-1.225,-6.315,-13.23,-6.86,7.42
21958.0,-7.533,-1.376,-6.403,-8.126,-0.593,-6.119,-12.32,-11.48,7.7
,-8.023,-1.371,-6.212,-8.083,-0.512,-5.992,-10.5,-11.06,6.79
,-8.478,-1.132,-6.214,-8.258,-0.715,-6.052,-7.42,-12.53,5.67
,-8.418,-0.835,-6.21,-8.875,-0.864,-5.298,-3.85,-13.58,4.83
22034.0,-9.081,-0.493,-5.339,-8.272,-0.754,-5.3,2.94,-16.73,3.08
,-8.059,-0.055,-5.681,-8.32,-0.84,-5.319,2.73,-20.51,3.01
,-7.497,-0.067,-5.781,-8.375,-0.708,-5.315,-0.07,-20.3,2.66
,-7.7,-0.522,-5.473,-8.232,-0.581,-5.284,-3.29,-19.81,2.45
22110.0,-8.019,-0.591,-5.121,-7.844,-0.538,-5.276,-0.91,-14.56,2.45
,-8.327,-0.689,-4.877,-8.086,-0.115,-5.475,-0.56,-12.46,2.52
,-8.77,-0.625,-4.64,-8.543,-0.747,-5.145,-1.61,-14.77,2.17
,-8.337,-0.476,-4.896,-8.679,-0.747,-4.783,-3.08,-17.43,2.45
22185.0,-8.586,-0.735,-4.91,-8.119,-1.302,-4.843,-0.7,-14.56,3.36
,-8.251,-0.704,-4.958,-8.466,-1.173,-4.681,0.07,-13.16,4.41
,-8.031,-0.926,-4.944,-8.689,-1.055,-4.63,0.7,-12.25,4.76
,-8.064,-1.163,-4.934,-8.638,-0.766,-4.575,1.89,-12.32,5.11
22261.0,-8.588,-0.464,-4.597,-8.72,-0.438,-4.422,8.82,-16.17,7.42
,-8.545,-0.476,-4.52,-8.696,-0.495,-4.341,7.21,-15.96,7.56
,-8.646,-0.529,-4.29,-8.605,-0.617,-4.341,6.23,-15.54,7.07
,-8.756,-0.534,-4.367,-8.622,-0.637,-4.401,6.09,-15.75,6.3
22336.0,-8.507,-0.474,-4.391,-8.806,0.517,-4.535,7.7,-16.31,6.51
,-8.66,-0.208,-4.262,-8.66,0.28,-4.451,9.24,-16.38,6.37
,-8.923,0.172,-4.463,-8.725,-0.11,-4.386,8.47,-17.36,5.53
,-8.914,0.409,-4.489,-8.765,-0.364,-4.2,4.06,-18.97,4.06
22412.0,-8.847,-0.383,-4.188,-9.179,-0.864,-4.57,-3.57,-20.02,-0.7
,-8.655,-0.565,-4.257,-8.959,-0.737,-4.7,-3.57,-20.02,-0.84
,-8.67,-0.747,-4.087,-8.777,-0.677,-4.491,-3.5,-19.46,0.21
,-9.038,-1.0,-4.142,-8.76,-0.572,-4.87,-1.68,-18.76,1.19
22488.0,-8.612,-0.558,-4.142,-8.859,-0.517,-3.843,-1.26,-20.58,1.12
,-9.048,-0.598,-4.125,-8.961,-0.67,-3.697,-0.42,-20.58,0.49
,-9.052,-0.562,-4.233,-9.16,-0.79,-4.066,-1.54,-21.77,-0.7
,-8.94,-0.438,-4.154,-8.993,-0.718,-3.716,-2.17,-22.05,0.56
22564.0,-9.021,-0.481,-3.733,-9.313,-0.206,-3.077,3.22,-22.33,1.61
,-8.985,-0.498,-3.53,-9.399,0.249,-3.08,3.5,-21.49,1.96
,-8.985,-0.644,-2.946,-9.347,0.491,-2.989,4.83,-20.44,2.17
,-9.249,-0.696,-2.793,-9.244,0.266,-3.29,6.65,-19.88,1.68
22639.0,-8.854,-0.263,-2.824,-9.902,-0.194,-1.759,-7.49,-19.95,-2.66
,-8.887,-0.692,-2.209,-9.718,0.029,-3.159,-5.88,-18.13,-3.15
,-9.241,-0.897,-2.149,-9.014,-0.11,-2.721,-2.94,-16.31,-3.5
,-9.483,-0.668,-1.642,-9.117,-0.672,-3.242,0.63,-14.14,-2.66
22715.0,-9.005,-1.23,-2.517,-9.265,-0.122,-3.659,-8.33,-10.29,-2.52
,-9.296,-1.371,-2.826,-9.395,-0.249,-3.281,-1.47,-8.68,-1.47
,-9.452,-0.833,-3.12,-9.359,-0.617,-2.867,4.83,-8.54,-1.12
,-9.49,-0.206,-3.941,-9.287,-0.806,-2.747,4.34,-9.8,-1.75
22790.0,-9.22,-0.632,-2.292,-9.347,-0.239,-2.97,8.05,-6.23,-0.07
,-9.541,-0.235,-2.419,-9.115,-0.414,-2.625,9.73,-5.74,0.28
,-9.797,-0.177,-2.522,-9.27,-0.519,-2.24,8.12,-5.74,-0.14
,-9.677,-0.11,-2.991,-9.457,-0.584,-2.434,6.51,-5.46,-0.42
22866.0,-9.485,-0.481,-1.938,-9.536,-0.536,-2.429,5.25,-0.07,-0.35
,-9.66,-0.369,-1.869,-9.325,-0.828,-2.594,3.29,0.91,-0.77
,-9.454,-0.452,-1.749,-9.196,-0.914,-2.881,0.63,2.24,-1.19
,-9.569,-0.471,-1.972,-9.241,-0.957,-2.855,-0.91,3.78,-1.54
22942.0,-9.275,-0.718,-2.84,-9.349,-0.574,-3.589,4.2,9.38,0.42
,-9.428,-0.617,-3.173,-9.21,-0.634,-3.848,5.53,9.8,0.63
,-9.277,-0.438,-3.142,-9.244,-0.593,-4.25,5.74,10.15,1.05
,-9.32,-0.27,-3.281,-9.095,-0.517,-4.384,4.97,10.15,0.98
23018.0,-9.024,-0.378,-4.24,-9.325,-0.538,-3.798,2.73,5.6,0.07
,-9.119,-0.491,-4.078,-9.308,-0.522,-3.484,2.1,4.9,0.07
,-9.217,-0.759,-3.982,-9.438,-0.593,-3.362,2.31,4.06,0.14
,-9.263,-0.704,-3.955,-9.39,-0.605,-3.199,4.27,2.87,0.42
23094.0,-9.474,-0.555,-3.168,-9.256,-0.715,-2.881,4.76,1.19,0.98
,-9.485,-0.675,-3.063,-9.445,-0.495,-3.015,3.57,1.19,0.7
,-9.33,-0.711,-2.967,-9.519,-0.419,-3.305,2.73,1.4,0.63
,-9.229,-0.809,-2.912,-9.356,-0.254,-3.515,2.87,2.03,1.05
23169.0,-9.179,-0.235,-3.62,-9.351,-0.546,-3.369,1.12,2.1,0.21
,-9.148,-0.383,-3.628,-9.442,-0.555,-3.276,-0.56,2.17,-0.21
,-9.158,-0.586,-3.565,-9.354,-0.538,-3.053,-0.56,2.1,-0.28
,-9.225,-0.625,-3.482,-9.404,-0.498,-3.01,0.7,2.24,0.0
23245.0,-9.378,-0.706,-2.95,-9.277,-0.873,-3.233,2.17,2.8,0.35
,-9.378,-0.763,-2.998,-9.292,-0.696,-3.297,2.31,2.94,0.21
,-9.421,-0.68,-3.092,-9.359,-0.498,-3.508,2.31,3.57,0.14
,-9.366,-0.744,-3.211,-9.239,-0.328,-3.53,1.4,3.85,0.07
23321.0,-9.201,-0.256,-3.501,-9.27,-0.684,-3.412,2.73,3.99,0.77
,-9.287,-0.306,-3.472,-9.229,-0.842,-3.271,1.89,3.71,0.49
,-9.344,-0.39,-3.41,-9.292,-0.747,-3.185,0.98,3.5,0.14
,-9.299,-0.507,-3.477,-9.399,-0.598,-3.128,0.84,3.43,0.14
23397.0,-9.433,-0.608,-3.046,-9.249,-0.538,-3.508,2.8,4.13,0.7
,-9.423,-0.67,-3.001,-9.146,-0.684,-3.565,1.68,4.62,0.63
,-9.38,-0.644,-3.061,-9.091,-0.579,-3.518,1.33,4.69,0.49
,-9.33,-0.483,-3.302,-9.136,-0.433,-3.47,0.91,5.04,0.35
23472.0,-9.265,-0.342,-3.35,-9.514,-0.45,-2.764,1.75,5.18,0.56
,-9.33,-0.433,-3.106,-9.308,-0.495,-2.728,1.12,5.39,0.63
,-9.328,-0.424,-2.814,-9.273,-0.419,-2.759,0.84,5.88,0.56
,-9.485,-0.342,-2.687,-9.253,-0.534,-2.642,0.77,6.51,0.28
23548.0,-9.256,-0.591,-2.589,-9.16,-0.916,-2.522,-3.5,10.78,-0.35
,-9.263,-0.708,-2.45,-9.186,-0.861,-2.891,-3.71,12.18,-0.21
,-9.311,-0.873,-2.328,-9.249,-0.833,-3.044,-3.36,13.65,0.21
,-9.316,-0.905,-2.613,-9.249,-0.591,-3.216,-2.24,15.19,0.35
23623.0,-9.289,-0.232,-3.819,-9.301,-0.51,-3.202,2.31,19.39,2.1
,-8.976,0.002,-3.747,-9.438,-0.335,-3.149,-0.14,19.11,1.89
,-8.942,-0.115,-3.534,-9.402,-0.244,-3.788,-2.73,19.74,1.68
,-9.146,-0.373,-3.472,-8.763,-0.491,-4.113,-3.43,20.51,0.84
23699.0,-8.267,-0.816,-4.286,-9.045,-1.012,-3.336,-10.22,20.09,-0.49
,-8.308,-1.206,-4.013,-9.244,-0.816,-3.068,-8.89,20.23,0.91
,-8.837,-1.407,-3.96,-9.44,-0.517,-3.355,-4.27,21.28,2.66
,-9.012,-1.307,-3.728,-9.483,-0.002,-4.329,0.56,22.05,4.06
23775.0,-9.239,0.072,-4.716,-8.571,-0.794,-5.19,-0.35,19.67,3.29
,-8.813,-0.256,-5.346,-8.66,-0.543,-4.645,-7.7,17.15,1.82
,-8.428,-0.605,-5.367,-8.959,-0.115,-4.482,-12.32,15.61,1.33
,-8.227,-0.771,-4.829,-8.887,0.12,-3.85,-8.47,16.24,2.52
23851.0,-9.241,-0.127,-3.735,-8.296,0.349,-4.893,5.53,17.01,2.1
,-9.299,0.01,-3.723,-8.464,-0.838,-4.654,6.02,16.31,0.0
,-8.914,0.775,-4.128,-8.775,-1.409,-4.403,6.3,14.91,-0.91
,-8.445,1.07,-4.75,-8.78,-1.457,-4.357,0.84,13.86,-1.68
23927.0,-8.753,-1.144,-4.14,-9.009,0.369,-4.046,10.92,19.88,-0.07
,-8.957,-0.651,-3.829,-9.012,0.407,-5.035,14.63,20.79,0.0
,-9.04,-0.112,-3.628,-8.27,-0.019,-5.291,15.68,20.58,-0.21
,-9.067,0.266,-3.812,-7.813,-0.866,-5.097,12.53,20.02,-0.42
24002.0,-8.174,-1.29,-4.642,-8.646,-0.761,-5.532,-4.27,21.0,-2.31
,-8.725,-1.127,-4.953,-8.813,-1.141,-5.537,2.38,20.23,-2.59
,-8.926,-0.723,-5.257,-8.861,-1.077,-5.475,6.3,18.27,-2.24
,-8.777,-0.541,-5.492,-8.808,-0.692,-5.293,5.67,16.66,-1.33
24078.0,-8.579,-0.306,-5.339,-8.471,-0.826,-4.523,11.13,9.94,-1.4
,-8.205,-0.292,-5.374,-8.583,-0.529,-4.714,6.79,8.96,-2.24
,-8.133,-0.708,-5.008,-8.626,-0.275,-5.018,2.66,9.8,-2.03
,-8.344,-0.94,-4.855,-8.6,-0.28,-5.281,2.24,10.85,-1.47
24154.0,-8.382,-0.486,-5.351,-8.6,-0.232,-4.769,8.12,12.81,2.31
,-8.272,-0.512,-5.114,-8.497,-0.129,-5.001,9.94,14.42,2.38
,-8.315,-0.608,-4.982,-8.725,-0.428,-5.116,12.81,15.12,1.19
,-8.521,-0.55,-4.676,-8.751,-0.73,-5.054,14.14,13.93,-0.28
24230.0,-8.416,-0.79,-4.841,-8.162,-0.328,-4.975,5.6,15.12,-0.91
,-8.344,-0.684,-4.915,-8.189,-0.203,-4.874,7.98,15.54,-1.89
,-8.205,-0.412,-5.128,-8.181,-0.165,-4.783,9.31,14.42,-2.45
,-8.043,-0.294,-5.248,-8.311,-0.227,-4.834,8.82,14.0,-1.96
24305.0,-8.473,-0.438,-4.956,-8.239,-1.053,-4.716,7.98,15.96,-4.13
,-8.55,-0.826,-5.142,-8.591,-0.924,-4.618,6.37,16.8,-3.71
,-8.536,-1.137,-4.946,-8.301,-0.455,-4.934,6.72,18.62,-2.87
,-8.224,-1.199,-4.724,-7.865,-0.203,-5.506,8.61,20.16,-3.01
24381.0,-7.59,-0.194,-5.774,-8.827,-1.189,-5.631,7.07,18.97,-2.59
,-7.691,-0.61,-5.887,-8.296,-1.0,-5.863,4.83,19.67,-2.73
,-8.27,-0.905,-5.839,-7.782,-1.208,-5.607,4.76,20.72,-3.5
,-8.509,-1.149,-5.887,-7.485,-1.352,-5.774,5.67,21.14,-4.34
24456.0,-7.806,-1.117,-5.631,-8.174,-0.897,-6.114,6.58,15.82,-3.71
,-7.985,-1.031,-5.822,-8.136,-1.106,-6.296,8.05,15.4,-4.06
,-8.059,-0.835,-5.887,-8.236,-1.192,-6.193,9.03,14.28,-3.71
,-7.906,-0.646,-6.231,-8.198,-1.23,-6.238,8.75,14.0,-2.87
24532.0,-7.873,-1.072,-6.588,-7.99,-2.17,-6.171,9.38,9.52,-3.78
,-7.712,-1.132,-6.578,-8.153,-1.965,-6.044,9.38,8.12,-2.8
,-7.796,-1.417,-6.284,-8.131,-1.563,-5.975,8.19,7.28,-1.61
,-7.808,-1.799,-6.171,-7.863,-1.103,-6.155,7.42,7.49,-0.35
24608.0,-7.739,-0.759,-6.269,-8.588,-0.426,-6.212,16.59,5.25,1.33
,-8.33,-0.433,-6.466,-8.313,-0.428,-6.262,15.26,5.74,2.66
,-7.868,-0.493,-6.425,-7.818,-0.62,-6.389,15.89,5.18,2.45
,-8.117,-0.512,-6.487,-8.088,-1.058,-6.289,15.89,5.04,0.98
24684.0,-8.074,-1.254,-6.506,-8.356,-0.778,-6.657,15.96,1.82,-1.89
,-8.303,-1.912,-6.679,-8.007,-0.964,-6.346,17.43,0.42,-3.99
,-7.906,-1.823,-6.513,-8.126,-0.962,-6.138,21.14,1.26,0.21
,-8.052,-1.01,-7.021,-7.784,-1.378,-6.047,24.08,0.77,-1.75
24759.0,-8.014,-1.558,-5.87,-7.679,-1.251,-5.867,17.5,-0.14,-0.77
,-8.074,-1.622,-5.858,-7.801,-0.842,-5.733,18.76,0.84,0.35
,-8.131,-1.409,-5.698,-7.574,-0.12,-6.123,18.2,0.42,0.98
,-7.746,-1.244,-5.815,-8.028,-0.479,-6.143,17.57,-0.21,1.05
24835.0,-8.397,-0.589,-5.937,-7.614,-1.799,-5.863,9.87,-1.05,0.84
,-8.366,-0.897,-5.863,-7.837,-2.13,-6.025,8.4,-0.98,-0.42
,-8.057,-1.117,-5.877,-7.959,-1.835,-6.255,7.07,-1.61,-1.33
,-7.545,-1.292,-5.829,-8.074,-1.484,-6.37,5.25,-2.45,-1.75
24911.0,-8.148,-1.603,-6.061,-7.727,-1.663,-5.949,1.96,0.49,1.19
,-7.954,-1.735,-5.894,-8.04,-1.63,-5.942,-0.14,0.0,0.98
,-7.736,-1.744,-5.839,-8.138,-1.73,-5.829,-0.84,0.28,0.77
,-7.691,-1.886,-5.805,-8.035,-1.723,-5.944,-0.98,1.47,1.33
24987.0,-8.098,-1.663,-5.604,-8.167,-0.864,-6.033,0.42,4.27,5.25
,-7.839,-1.374,-5.906,-8.066,-0.998,-6.078,-0.28,2.59,5.11
,-7.717,-1.036,-6.066,-7.932,-0.902,-6.195,-1.4,2.1,4.55
,-7.978,-0.806,-6.092,-7.856,-0.924,-6.234,-3.08,2.17,3.99
25063.0,-8.009,-1.048,-6.2,-8.009,-1.515,-5.963,-8.96,1.47,5.18
,-8.066,-1.412,-6.025,-7.968,-1.457,-6.004,-10.92,1.12,5.04
,-8.117,-1.548,-5.894,-7.985,-1.445,-6.111,-11.48,1.4,4.83
,-8.126,-1.531,-5.903,-8.059,-1.443,-6.188,-11.48,1.54,5.11
25138.0,-8.11,-1.503,-5.966,-8.236,-1.213,-6.186,-12.53,0.63,8.12
,-8.069,-1.529,-6.071,-8.227,-1.055,-6.26,-12.88,0.28,8.47
,-8.023,-1.464,-6.119,-8.031,-1.01,-6.315,-12.53,-0.35,8.61
,-7.988,-1.342,-6.25,-8.04,-0.804,-6.243,-12.53,-0.84,8.47
25214.0,-7.806,-0.632,-6.26,-8.727,-0.395,-6.037,-14.07,-6.3,8.26
,-7.863,-0.684,-6.171,-8.402,-0.242,-6.217,-13.79,-6.3,7.21
,-8.189,-0.725,-5.966,-7.918,-0.321,-6.298,-12.88,-5.6,5.81
,-8.516,-0.567,-5.934,-7.944,-0.467,-6.195,-10.36,-5.18,4.34
25290.0,-8.16,-0.61,-6.157,-7.308,-0.838,-6.159,-3.36,1.82,1.68
,-8.212,-0.799,-5.989,-7.863,-1.074,-5.992,-1.61,1.54,0.98
,-8.373,-0.907,-5.719,-8.5,-1.067,-5.796,-0.7,-2.66,0.63
,-7.703,-0.871,-6.061,-8.22,-0.972,-5.855,-0.21,-5.88,0.77
25366.0,-7.808,-1.089,-5.662,-8.239,-0.778,-5.501,0.77,-8.68,2.73
,-7.7,-1.223,-5.413,-8.251,-0.464,-5.616,1.61,-6.65,3.78
,-7.834,-1.117,-5.386,-8.129,-0.407,-5.611,3.78,-5.39,4.48
,-8.114,-0.998,-5.473,-8.088,-0.546,-5.542,5.81,-4.55,5.18
25441.0,-7.851,-0.73,-5.408,-8.088,-0.352,-5.501,2.1,-1.05,6.44
,-8.035,-1.165,-5.279,-8.119,-0.163,-5.537,-0.21,-2.31,6.79
,-8.296,-0.993,-5.176,-8.349,-0.196,-5.561,0.91,-5.32,6.09
,-8.275,-0.646,-5.319,-8.306,-0.163,-5.58,2.73,-8.61,4.69
25517.0,-8.167,-0.208,-5.592,-8.516,0.029,-5.839,-4.34,-10.43,2.38
,-8.088,-0.388,-5.518,-8.354,-0.146,-5.53,-4.41,-9.73,1.89
,-8.112,-0.369,-5.609,-8.425,-0.546,-5.415,-3.08,-9.59,0.98
,-8.026,-0.225,-5.628,-8.373,-0.804,-5.3,-1.05,-9.38,0.77
25592.0,-8.234,-0.969,-5.37,-7.976,-0.804,-5.671,-6.65,-12.04,-0.35
,-8.236,-0.988,-5.494,-8.198,-1.048,-5.449,-6.37,-12.74,-0.28
,-8.26,-0.964,-5.547,-8.382,-1.249,-5.188,-5.74,-13.23,-0.21
,-8.217,-0.842,-5.688,-8.583,-1.251,-5.111,-5.74,-13.86,-0.07
25668.0,-8.617,-1.122,-5.248,-8.27,-0.735,-4.913,-1.4,-14.7,2.66
,-8.375,-0.993,-5.221,-8.44,-0.543,-5.135,-1.4,-15.19,3.5
,-8.366,-0.981,-5.142,-8.26,-0.529,-5.197,-1.68,-15.19,4.27
,-8.241,-0.9,-5.166,-8.234,-0.689,-5.173,-0.7,-15.19,4.48
25744.0,-8.483,-0.692,-4.941,-8.612,0.029,-4.456,-0.77,-17.01,5.11
,-8.847,-0.526,-4.724,-8.701,0.115,-4.573,2.03,-16.66,4.76
,-8.868,-0.294,-4.7,-8.734,0.11,-4.819,3.29,-16.66,3.71
,-8.614,-0.05,-4.566,-8.693,-0.026,-5.135,2.31,-16.66,2.94
25820.0,-8.49,-0.225,-5.097,-8.48,-0.644,-4.362,-8.54,-19.74,-1.4
,-8.619,-0.603,-4.927,-8.605,-0.522,-4.494,-8.19,-19.25,-1.82
,-8.696,-0.797,-4.882,-8.617,-0.792,-4.209,-6.02,-18.69,-2.38
,-8.557,-0.778,-4.582,-8.748,-1.05,-3.932,-2.66,-17.92,-2.17
25895.0,-8.839,-1.22,-3.951,-9.043,-0.062,-3.915,-0.91,-16.17,0.63
,-8.842,-1.23,-3.63,-8.758,-0.134,-3.867,1.96,-15.05,1.26
,-8.981,-0.828,-3.609,-8.512,-0.297,-3.671,5.81,-14.0,2.03
,-9.11,-0.354,-3.508,-8.614,-0.385,-3.463,7.14,-13.37,1.75
25971.0,-8.892,-0.424,-3.089,-8.878,-0.357,-3.245,6.58,-8.54,1.33
,-9.165,-0.019,-3.443,-9.04,-0.648,-3.305,9.45,-7.98,0.56
,-9.067,0.287,-3.644,-9.141,-0.536,-3.264,7.28,-7.91,-0.98
,-8.811,0.091,-3.453,-9.256,-0.189,-3.987,3.36,-7.14,-0.77
26047.0,-8.904,-0.103,-4.525,-9.002,-1.005,-3.716,2.38,-3.85,-3.36
,-8.684,-0.447,-4.398,-9.177,-0.613,-3.735,-0.56,-3.85,-2.8
,-8.839,-0.998,-4.135,-9.244,-0.378,-3.75,-0.07,-2.94,-2.38
,-8.995,-1.24,-4.089,-9.215,-0.369,-3.991,3.22,-1.68,-2.1
26123.0,-8.904,-0.512,-4.267,-8.897,-0.773,-3.855,2.45,0.77,-1.05
,-8.703,-0.744,-4.331,-9.033,-0.462,-3.819,1.96,0.98,-0.42
,-8.784,-0.888,-4.401,-9.079,-0.206,-4.042,3.71,1.33,0.0
,-8.741,-0.907,-4.154,-8.973,-0.074,-4.427,6.51,1.96,0.77
26199.0,-8.737,-0.134,-4.755,-9.057,-0.455,-4.527,0.0,1.12,-0.56
,-8.557,-0.55,-4.776,-8.973,-0.443,-4.391,-1.75,0.91,-0.84
,-8.643,-0.656,-4.779,-8.863,-0.433,-4.353,-0.7,0.56,-0.91
,-8.894,-0.627,-4.604,-8.871,-0.486,-4.381,1.82,0.42,-0.63
26274.0,-8.897,-0.385,-4.554,-8.842,-0.859,-4.357,1.05,-1.4,-1.05
,-8.847,-0.433,-4.623,-8.971,-0.751,-4.264,-0.14,-2.03,-1.26
,-8.808,-0.55,-4.642,-9.083,-0.56,-4.027,-0.98,-2.38,-1.19
,-8.78,-0.739,-4.568,-9.076,-0.503,-3.824,-0.35,-2.52,-0.84
26350.0,-9.072,-0.519,-3.47,-9.026,-0.57,-3.644,4.48,-1.05,0.56
,-9.225,-0.431,-3.561,-8.964,-0.574,-3.752,3.64,-0.63,0.0
,-9.026,-0.526,-3.455,-8.894,-0.5,-3.941,2.59,0.0,-0.21
,-9.021,-0.491,-3.477,-8.928,-0.522,-3.917,1.82,0.77,-0.28
26425.0,-8.961,-0.622,-3.888,-8.77,-0.426,-5.106,1.05,3.29,-0.07
,-9.055,-0.57,-3.982,-8.576,-0.778,-5.114,1.4,3.71,-0.07
,-9.15,-0.402,-4.329,-8.634,-0.94,-4.915,0.56,3.22,-0.7
,-8.99,-0.302,-4.745,-8.801,-0.921,-4.532,-0.91,2.66,-0.84
26501.0,-9.043,-0.617,-4.247,-8.973,-0.591,-4.257,7.0,0.98,1.19
,-9.237,-0.412,-4.066,-8.823,-0.725,-4.312,5.88,0.42,0.84
,-9.155,-0.311,-4.013,-8.787,-0.967,-4.226,3.43,0.14,0.56
,-9.072,-0.383,-4.044,-8.863,-1.041,-3.977,0.84,0.0,-0.14
26577.0,-9.064,-0.838,-3.939,-8.813,-0.531,-4.271,3.5,0.7,0.42
,-9.098,-0.507,-4.015,-8.873,-0.651,-4.188,4.27,0.7,0.56
,-9.091,-0.278,-4.18,-8.942,-0.615,-4.07,3.15,0.63,0.35
,-8.997,-0.349,-4.312,-9.081,-0.462,-3.912,1.47,0.56,0.21
26653.0,-9.086,-0.371,-3.977,-8.978,-0.665,-3.867,3.57,1.19,0.56
,-8.957,-0.455,-3.96,-9.081,-0.598,-3.781,2.24,1.05,0.21
,-8.88,-0.637,-3.9,-9.136,-0.577,-3.769,1.68,1.33,0.07
,-8.94,-0.713,-3.91,-9.091,-0.62,-3.912,2.17,1.89,0.14
26728.0,-9.021,-0.603,-4.183,-8.813,-0.629,-4.843,1.54,3.78,0.07
,-8.909,-0.696,-4.415,-8.842,-0.522,-4.7,1.47,3.64,0.21
,-8.823,-0.782,-4.683,-8.945,-0.483,-4.53,2.17,3.5,0.49
,-8.78,-0.732,-4.831,-9.021,-0.483,-4.295,3.64,3.01,0.7
26804.0,-9.062,-0.428,-4.166,-8.961,-0.608,-3.946,4.13,0.98,0.42
,-9.067,-0.467,-4.164,-8.926,-0.704,-3.917,3.57,0.77,0.21
,-8.938,-0.514,-4.092,-8.985,-0.732,-3.922,2.87,0.84,0.07
,-8.866,-0.541,-4.003,-9.005,-0.742,-4.121,2.73,1.12,0.0
26879.0,-8.966,-0.727,-4.427,-8.873,-0.751,-4.659,4.9,1.75,0.28
,-8.844,-0.692,-4.556,-8.837,-0.732,-4.58,5.39,1.68,0.56
,-8.882,-0.696,-4.623,-8.885,-0.751,-4.413,5.46,1.12,0.56
,-8.856,-0.732,-4.635,-8.969,-0.694,-4.362,5.95,0.84,0.56
26955.0,-9.021,-0.704,-4.36,-8.914,-0.931,-4.226,5.32,-1.33,0.56
,-8.971,-0.596,-4.47,-8.906,-0.84,-4.247,4.41,-1.75,0.42
,-8.923,-0.684,-4.374,-8.971,-0.436,-4.259,3.36,-2.1,0.49
,-8.859,-0.802,-4.252,-8.976,-0.235,-4.336,2.52,-2.1,0.63
27031.0,-8.899,-0.359,-4.195,-9.206,-0.507,-3.57,1.12,-2.59,0.84
,-8.957,-0.428,-4.03,-9.244,-0.33,-3.558,-0.63,-2.87,0.42
,-9.007,-0.491,-3.874,-9.16,-0.302,-3.776,-1.33,-2.59,0.21
,-9.055,-0.548,-3.687,-8.882,-0.493,-3.728,-1.68,-2.03,0.07
27107.0,-8.825,-0.739,-3.74,-8.997,-0.392,-3.795,-5.53,0.35,0.0
,-8.94,-0.893,-3.503,-8.871,-0.445,-3.948,-3.71,1.4,0.56
,-9.143,-0.732,-3.364,-8.911,-0.565,-3.955,-1.05,2.45,0.91
,-9.189,-0.457,-3.623,-8.971,-0.842,-3.951,-0.42,3.01,0.63
27183.0,-8.961,-1.036,-3.738,-8.928,-0.287,-4.011,-4.69,5.18,0.91
,-9.009,-0.952,-3.398,-8.823,-0.653,-3.879,-1.82,6.09,1.54
,-9.21,-0.524,-3.798,-8.904,-1.067,-3.415,0.77,6.51,1.47
,-9.091,-0.258,-3.955,-9.112,-1.077,-3.376,0.84,6.58,1.4
27258.0,-9.182,-0.845,-3.472,-8.892,-0.574,-4.173,4.48,10.43,3.5
,-8.981,-0.663,-3.833,-9.081,-0.378,-4.164,3.29,10.85,3.43
,-8.586,-0.699,-3.932,-9.139,-0.225,-4.518,0.63,11.2,3.36
,-8.519,-0.727,-3.652,-8.928,0.022,-4.475,0.7,12.04,3.78
27334.0,-8.67,-0.321,-4.207,-9.062,-0.309,-3.419,-2.66,11.13,1.61
,-8.827,-0.814,-3.934,-8.815,-0.163,-3.743,-0.7,12.39,1.4
,-9.045,-1.017,-3.549,-8.698,-0.385,-3.723,3.78,13.51,1.05
,-9.313,-0.804,-3.417,-8.741,-0.479,-3.905,9.17,14.35,0.28
27410.0,-8.859,-0.507,-4.166,-8.33,0.146,-5.135,0.63,14.63,-1.05
,-8.447,-0.412,-4.444,-8.708,-0.352,-4.561,1.54,15.47,-1.19
,-8.165,-0.103,-4.726,-8.811,-0.804,-4.566,3.5,16.38,-1.4
,-8.236,0.282,-5.197,-9.036,-1.414,-3.79,3.08,15.54,-2.73
27486.0,-9.198,-1.45,-3.577,-8.622,-1.127,-3.879,5.95,17.01,-3.22
,-8.825,-1.072,-3.707,-8.861,-0.897,-3.9,9.31,16.17,-2.66
,-8.476,-1.031,-3.762,-8.813,-0.249,-5.126,9.94,16.66,-1.47
,-8.454,-1.041,-3.946,-8.729,0.225,-6.001,9.17,18.34,-0.63
27561.0,-8.947,0.285,-6.473,-8.521,-1.07,-4.769,2.45,9.87,-2.24
,-8.701,0.163,-6.408,-8.531,-1.23,-4.58,-3.08,6.51,-3.43
,-8.033,-0.132,-6.162,-8.672,-1.452,-4.64,-3.92,7.42,-4.62
,-8.117,-0.663,-5.389,-8.588,-1.831,-4.274,-0.7,10.64,-5.6
27637.0,-8.263,-2.245,-4.183,-8.466,-0.553,-5.133,5.25,14.84,2.1
,-8.184,-2.51,-4.343,-8.215,0.17,-5.501,9.1,15.96,3.43
,-8.378,-2.292,-4.669,-8.768,0.512,-5.279,14.63,17.08,4.9
,-8.49,-1.519,-4.829,-8.978,0.684,-5.118,19.74,16.66,6.02
27712.0,-8.507,0.692,-5.138,-8.71,-0.902,-4.389,4.83,9.17,-0.56
,-7.906,0.383,-5.027,-9.239,-0.993,-3.929,1.4,11.34,-1.33
,-7.715,-0.237,-4.793,-8.966,-0.948,-4.113,-0.14,14.7,-2.31
,-8.212,-0.66,-4.482,-8.275,-0.687,-4.403,2.59,17.08,-2.8
27788.0,-7.849,-0.23,-4.781,-8.557,0.153,-5.221,11.48,20.79,-0.35
,-7.999,0.01,-4.98,-8.497,0.28,-5.276,10.43,22.12,-1.47
,-8.461,0.165,-5.15,-8.301,0.328,-5.58,8.75,22.75,-3.57
,-8.576,0.232,-5.209,-8.366,0.091,-5.726,6.58,23.73,-5.46
27864.0,-8.485,-0.486,-5.765,-7.289,-2.24,-6.071,-0.91,24.01,-10.64
,-8.358,-1.249,-5.836,-7.423,-2.175,-6.157,-1.4,23.03,-10.71
,-8.265,-1.835,-5.717,-7.669,-1.773,-6.614,-0.42,22.12,-9.8
,-7.82,-2.151,-5.884,-7.978,-1.455,-6.978,1.12,21.0,-8.96
27940.0,-8.112,-1.338,-7.128,-7.664,-1.517,-6.863,7.0,15.47,-4.48
,-7.954,-1.438,-7.081,-7.87,-1.515,-6.791,3.36,13.79,-3.01
,-7.775,-1.582,-6.906,-8.303,-1.5,-6.43,1.33,12.74,-2.24
,-7.626,-1.572,-6.916,-8.397,-1.35,-6.327,1.96,11.62,-2.1
28015.0,-8.205,-1.218,-6.186,-7.997,-0.677,-6.035,6.23,4.48,0.35
,-7.916,-1.218,-6.066,-7.94,-0.787,-6.011,6.3,3.64,0.28
,-7.748,-1.01,-6.171,-8.131,-0.574,-6.164,7.56,3.36,0.0
,-7.877,-0.766,-6.123,-8.007,-0.531,-6.403,8.75,3.36,-0.14
28091.0,-8.129,-0.816,-6.336,-7.863,-1.591,-5.855,9.31,-0.42,-1.96
,-8.308,-1.027,-6.178,-7.504,-1.594,-6.121,10.36,-0.21,-2.66
,-8.33,-1.228,-6.056,-7.597,-1.68,-6.037,11.48,0.07,-2.94
,-8.275,-1.577,-5.853,-7.657,-1.768,-5.922,11.27,-0.49,-2.94
28167.0,-7.882,-1.989,-5.894,-8.098,-1.792,-5.128,15.26,-2.87,-0.77
,-8.181,-2.201,-5.595,-7.779,-1.017,-5.499,16.45,-1.61,0.42
,-8.234,-2.417,-5.303,-7.7,-0.61,-5.721,17.64,-0.28,1.61
,-8.275,-2.501,-4.903,-8.004,-0.562,-5.645,20.3,0.28,2.31
28243.0,-8.251,-0.864,-5.855,-7.77,-1.091,-6.312,17.36,0.42,3.43
,-8.373,-1.05,-5.961,-8.129,-1.22,-6.162,17.43,-0.14,3.92
,-8.045,-1.07,-6.085,-8.33,-1.96,-5.946,17.64,-1.75,3.78
,-7.887,-1.024,-6.212,-8.279,-2.29,-5.767,18.06,-1.61,3.92
28319.0,-7.798,-2.072,-5.757,-7.906,-1.833,-5.669,17.08,-1.33,6.09
,-7.566,-1.622,-5.968,-8.16,-1.754,-5.652,17.29,-1.05,6.3
,-7.846,-1.62,-5.875,-8.102,-1.184,-5.678,14.42,-1.47,6.37
,-7.925,-1.677,-5.741,-8.002,-0.44,-5.877,12.6,-1.89,7.0
28394.0,-8.354,-0.074,-5.896,-8.062,-0.503,-5.975,10.43,0.56,4.55
,-8.488,-0.086,-5.827,-8.124,-0.553,-6.128,8.19,1.05,3.36
,-8.425,-0.189,-5.76,-7.98,-0.625,-6.289,6.23,1.19,2.45
,-8.141,-0.328,-5.942,-7.961,-0.873,-6.358,4.13,1.54,1.68
28470.0,-8.028,-1.335,-6.212,-7.858,-1.682,-5.894,-4.62,2.66,-2.94
,-8.224,-1.761,-5.977,-7.779,-1.333,-5.958,-4.9,3.36,-2.8
,-8.122,-1.907,-5.784,-7.775,-1.019,-6.176,-4.83,3.5,-2.38
,-7.916,-1.809,-5.834,-8.169,-1.036,-6.176,-5.53,3.01,-2.1
28545.0,-8.279,-1.017,-5.975,-7.77,-1.007,-5.97,-16.45,0.77,-1.54
,-8.306,-1.077,-6.037,-7.798,-1.168,-6.088,-17.29,0.56,-0.98
,-8.313,-1.182,-6.035,-8.313,-1.417,-5.925,-18.27,0.56,-0.42
,-8.143,-1.144,-5.853,-8.638,-1.601,-5.927,-18.34,0.14,0.0
28621.0,-8.528,-1.752,-5.994,-8.48,-1.488,-6.2,-18.83,-0.63,2.59
,-8.141,-1.754,-6.095,-8.447,-1.34,-6.202,-17.22,-0.07,4.06
,-8.071,-1.735,-6.147,-8.208,-1.359,-6.102,-14.77,0.7,5.04
,-8.186,-1.644,-6.274,-7.676,-1.455,-6.169,-12.81,1.12,5.39
28697.0,-7.466,-1.524,-6.234,-8.332,-0.73,-6.212,-10.85,-0.21,7.07
,-7.703,-1.429,-6.269,-8.04,-0.79,-6.133,-7.84,0.63,7.42
,-8.124,-1.304,-6.205,-8.016,-1.019,-5.882,-5.04,1.61,7.91
,-8.39,-0.969,-6.167,-8.318,-1.366,-5.319,-2.87,2.73,8.33
28773.0,-8.141,-1.314,-5.566,-8.449,-1.17,-5.779,-6.58,-6.58,4.27
,-7.808,-1.307,-5.585,-8.294,-0.885,-5.992,-6.58,-11.83,3.64
,-7.787,-1.23,-5.805,-8.04,-0.656,-6.143,-6.09,-13.79,4.06
,-8.1,-1.326,-5.839,-7.999,-0.759,-5.977,-5.46,-14.21,4.2
28848.0,-8.04,-0.763,-5.915,-8.346,-0.684,-5.573,0.63,-12.53,3.57
,-8.055,-0.727,-5.781,-8.294,-0.622,-5.755,1.96,-11.27,3.64
,-8.323,-0.694,-5.65,-8.38,-0.512,-5.76,3.43,-9.8,3.64
,-8.504,-0.713,-5.511,-8.246,-0.352,-5.729,3.71,-9.45,3.57
28924.0,-7.825,-0.266,-5.822,-8.504,-0.957,-5.396,1.68,-13.93,2.59
,-7.717,-0.266,-5.633,-8.44,-1.019,-5.494,0.07,-13.16,2.1
,-7.937,-0.495,-5.544,-8.308,-1.474,-5.138,-1.96,-12.46,1.75
,-8.323,-0.845,-5.418,-8.399,-1.462,-4.764,-3.36,-11.97,1.75
28999.0,-8.32,-1.273,-4.97,-8.258,-1.182,-5.53,-1.26,-11.13,4.06
,-8.145,-1.122,-5.324,-8.27,-1.23,-5.513,0.56,-12.04,4.55
,-8.189,-1.125,-5.262,-8.294,-1.359,-5.42,0.56,-12.6,5.18
,-8.234,-1.12,-5.25,-8.277,-1.244,-5.384,0.28,-13.16,5.67
29075.0,-8.337,-1.158,-5.324,-8.564,-0.668,-4.731,6.58,-17.5,8.47
,-8.428,-0.912,-5.219,-8.715,-0.627,-4.738,8.61,-18.62,9.1
,-8.301,-0.713,-5.106,-8.787,-0.488,-4.69,8.89,-19.32,9.52
,-8.394,-0.629,-4.944,-8.471,-0.376,-4.57,7.98,-19.88,9.8
29151.0,-8.516,-0.237,-4.413,-8.61,-0.285,-3.877,5.88,-19.81,7.49
,-8.691,-0.124,-4.477,-8.878,-0.124,-3.922,5.11,-20.16,6.72
,-8.617,-0.091,-4.3,-9.095,0.23,-4.001,3.29,-20.09,6.16
,-8.466,-0.256,-3.922,-8.954,0.517,-3.924,2.24,-19.04,5.88
29227.0,-8.753,0.646,-3.939,-8.751,-0.249,-4.233,2.38,-17.08,1.68
,-8.748,0.469,-3.912,-8.787,-0.474,-4.19,-1.68,-16.87,0.0
,-8.875,0.055,-4.039,-8.66,-0.964,-4.145,-4.69,-16.73,-1.47
,-8.792,-0.177,-4.08,-8.636,-1.529,-3.857,-5.81,-16.45,-2.59
29303.0,-8.815,-1.764,-3.644,-8.792,-0.567,-4.604,-5.95,-13.79,-2.1
,-8.971,-1.56,-3.534,-8.729,-0.797,-4.468,-1.54,-13.02,-1.19
,-9.009,-1.074,-4.29,-8.741,-1.189,-3.965,0.07,-13.3,-0.56
,-8.832,-0.644,-4.343,-8.772,-1.275,-3.575,-0.28,-13.79,0.49
29378.0,-8.878,-0.945,-4.14,-9.306,-0.282,-4.298,5.95,-12.53,1.26
,-8.77,-0.402,-3.778,-9.241,-0.01,-4.965,7.14,-12.67,2.38
,-9.043,-0.297,-3.936,-8.859,0.194,-5.224,5.74,-13.02,3.71
,-9.301,-0.246,-3.941,-8.6,0.067,-4.815,3.36,-13.16,3.36
29454.0,-8.624,-0.431,-4.52,-9.505,-0.01,-3.766,-2.03,-16.87,-0.7
,-8.662,-1.019,-3.764,-9.088,0.105,-3.728,0.98,-15.82,-0.7
,-9.016,-1.082,-3.357,-8.933,-0.294,-3.391,7.14,-15.19,-0.35
,-9.404,-0.536,-3.096,-9.052,-0.857,-2.807,12.25,-14.98,-0.35
29530.0,-9.273,-0.931,-3.137,-9.139,-0.392,-2.996,4.34,-13.65,-1.82
,-9.239,-0.646,-3.015,-9.179,-0.737,-2.881,6.93,-12.74,-2.03
,-9.311,-0.201,-3.269,-9.299,-0.763,-2.974,6.3,-12.11,-1.82
,-9.251,-0.165,-3.295,-9.337,-0.617,-3.07,2.73,-11.9,-1.89
29606.0,-9.402,-0.266,-3.412,-9.146,-0.708,-3.044,3.36,-7.0,-1.4
,-9.273,-0.28,-3.384,-9.249,-0.641,-2.891,0.28,-6.72,-1.61
,-9.273,-0.412,-3.324,-9.361,-0.634,-2.737,-1.96,-6.3,-1.75
,-9.208,-0.627,-3.242,-9.445,-0.845,-2.644,-3.01,-5.53,-1.89
29681.0,-9.418,-0.983,-2.481,-9.095,-0.68,-3.23,-1.75,-0.07,-0.77
,-9.354,-0.96,-2.575,-9.04,-0.811,-3.226,0.07,1.05,-0.35
,-9.237,-0.804,-2.879,-9.04,-0.909,-3.111,1.96,2.38,-0.07
,-9.162,-0.668,-3.027,-9.217,-0.885,-2.91,2.87,3.5,0.49
29757.0,-9.433,-0.778,-2.917,-9.024,-0.579,-3.821,6.09,7.42,1.33
,-9.509,-0.529,-2.931,-8.94,-0.838,-3.922,6.09,8.05,1.05
,-9.469,-0.345,-3.283,-9.019,-0.857,-3.946,4.06,8.12,0.7
,-9.304,-0.39,-3.642,-9.103,-0.658,-3.924,0.98,7.98,0.28
29832.0,-9.287,-0.333,-4.073,-8.99,-0.682,-4.463,5.46,7.56,0.84
,-9.251,-0.141,-4.298,-8.935,-0.665,-4.3,3.85,6.72,0.35
,-9.05,-0.249,-4.302,-9.069,-0.675,-4.013,1.47,5.67,0.28
,-8.971,-0.526,-4.46,-9.067,-0.735,-3.637,0.63,4.9,0.07
29908.0,-9.246,-0.744,-3.398,-8.966,-0.782,-3.86,3.99,3.5,0.77
,-9.392,-0.572,-3.372,-9.06,-0.909,-3.898,3.92,3.5,0.7
,-9.373,-0.402,-3.671,-9.15,-0.811,-3.898,2.38,3.15,0.14
,-9.095,-0.531,-3.781,-9.241,-0.567,-3.786,0.07,2.94,-0.07
29984.0,-9.22,-0.5,-3.69,-9.067,-0.73,-3.912,0.84,2.66,0.42
,-9.208,-0.546,-3.678,-9.045,-0.806,-3.893,-0.35,2.73,0.28
,-9.172,-0.596,-3.695,-9.033,-0.845,-3.833,-0.98,2.66,0.14
,-9.115,-0.629,-3.826,-9.119,-0.794,-3.707,-0.98,2.59,0.0
30060.0,-9.217,-0.668,-3.618,-9.122,-0.735,-3.661,3.64,3.08,1.05
,-9.229,-0.589,-3.58,-9.17,-0.737,-3.659,3.64,3.22,1.19
,-9.246,-0.498,-3.594,-9.232,-0.689,-3.74,3.22,3.15,1.12
,-9.177,-0.579,-3.664,-9.229,-0.613,-3.853,2.59,3.36,0.91
30135.0,-9.198,-0.507,-3.953,-9.127,-0.603,-4.104,3.64,3.78,1.26
,-9.083,-0.491,-4.018,-9.055,-0.558,-4.082,3.22,3.64,1.26
,-9.095,-0.558,-3.996,-9.052,-0.603,-4.128,3.01,3.57,1.12
,-9.079,-0.596,-3.951,-9.062,-0.651,-4.025,2.87,3.43,1.05
30211.0,-9.11,-0.61,-3.965,-9.186,-0.687,-3.628,4.13,1.89,0.77
,-9.134,-0.493,-3.898,-9.158,-0.632,-3.625,4.9,1.68,0.84
,-9.174,-0.562,-3.824,-9.1,-0.514,-3.652,4.41,1.61,0.91
,-9.17,-0.629,-3.553,-9.153,-0.452,-3.632,4.2,1.96,1.05
30287.0,-9.119,-0.627,-3.587,-9.182,-0.596,-3.355,2.8,3.08,0.49
,-9.162,-0.799,-3.515,-9.232,-0.474,-3.422,2.94,3.5,0.49
,-9.134,-0.835,-3.422,-9.167,-0.483,-3.582,3.57,3.99,0.7
,-9.119,-0.72,-3.374,-9.136,-0.498,-3.687,4.55,4.55,0.7
30363.0,-9.105,-0.581,-3.884,-9.036,-0.603,-4.164,1.82,6.09,-0.07
,-9.014,-0.641,-3.991,-9.045,-0.5,-4.135,2.24,6.09,-0.07
,-9.024,-0.687,-4.068,-9.031,-0.491,-4.125,3.15,6.02,0.07
,-9.002,-0.682,-4.097,-8.973,-0.617,-3.989,3.78,6.02,0.21
30439.0,-9.014,-0.67,-3.829,-9.098,-0.718,-3.972,3.78,4.69,0.42
,-9.134,-0.704,-3.857,-8.99,-0.957,-3.872,4.62,4.9,0.56
,-9.167,-0.572,-3.958,-8.921,-1.046,-3.771,4.55,4.69,0.49
,-9.129,-0.584,-3.975,-9.007,-0.972,-3.798,3.64,4.62,0.77
30514.0,-9.107,-0.603,-3.965,-8.938,-0.668,-4.298,6.02,5.25,1.96
,-9.158,-0.273,-4.168,-8.894,-0.704,-4.13,4.69,4.97,1.61
,-9.038,-0.223,-4.288,-8.995,-0.617,-4.018,1.12,4.41,1.26
,-8.933,-0.447,-4.326,-9.143,-0.495,-3.841,-2.24,3.99,1.26
30590.0,-9.294,-0.311,-3.929,-9.141,-0.651,-3.489,-1.26,4.62,1.89
,-9.234,-0.282,-3.896,-9.244,-0.945,-3.025,-2.66,4.83,1.89
,-9.167,-0.299,-3.867,-9.294,-0.591,-2.979,-4.27,5.11,1.96
,-9.083,-0.507,-3.623,-9.323,-0.069,-3.68,-5.32,5.53,2.1
30665.0,-8.686,-0.038,-4.212,-9.005,-1.328,-3.257,-14.7,2.73,-1.61
,-8.253,-0.749,-4.286,-9.301,-0.436,-2.953,-20.58,2.73,-0.77
,-8.66,-1.563,-4.078,-9.213,0.213,-2.747,-19.32,4.27,0.14
,-9.014,-1.701,-3.611,-9.237,0.01,-2.491,-10.85,6.23,0.77
30741.0,-9.366,-0.412,-2.508,-8.701,-1.28,-4.48,-8.33,11.48,0.0
,-9.117,-0.493,-3.144,-8.658,-1.17,-4.276,-10.64,11.2,-0.98
,-8.878,-0.658,-3.829,-8.732,-0.459,-4.42,-13.09,11.2,-0.42
,-8.571,-0.983,-4.13,-8.897,0.23,-4.235,-12.95,12.39,1.4
30817.0,-9.04,0.708,-3.877,-8.961,-0.459,-3.874,5.53,15.75,-0.07
,-9.048,0.704,-4.262,-8.607,-0.79,-3.733,0.49,15.05,-2.38
,-9.112,0.194,-3.68,-8.483,-1.251,-3.285,-4.2,15.26,-3.01
,-9.284,-0.232,-3.857,-8.559,-1.591,-2.893,-5.39,15.54,-3.15
30893.0,-8.758,-1.474,-3.168,-8.256,-1.653,-4.346,5.74,23.38,-0.84
,-8.624,-1.024,-3.673,-8.239,-1.57,-4.137,9.45,22.61,0.14
,-8.729,-0.749,-4.484,-8.545,-0.919,-4.472,8.12,21.42,1.61
,-8.476,-1.036,-4.75,-8.562,-0.048,-4.891,3.92,21.98,3.57
30968.0,-8.686,0.345,-5.286,-8.717,-0.658,-4.563,16.87,20.3,4.41
,-8.804,-0.093,-5.059,-8.641,-0.129,-4.786,10.29,20.86,5.25
,-8.899,-0.878,-4.882,-8.564,0.11,-5.468,6.65,23.52,5.11
,-8.715,-1.034,-4.24,-8.239,0.134,-5.628,9.8,26.18,4.41
31044.0,-8.629,0.297,-5.475,-8.385,0.141,-5.922,9.24,20.02,3.01
,-8.404,0.57,-6.207,-8.583,-0.139,-5.367,9.38,17.08,-0.63
,-8.332,0.634,-6.609,-8.547,-0.536,-5.047,7.49,14.07,-3.64
,-8.526,0.567,-6.396,-8.478,-0.936,-4.903,5.25,11.48,-4.69
31120.0,-8.37,-1.271,-4.999,-8.617,-0.991,-5.226,7.21,16.94,-5.39
,-8.313,-1.424,-4.965,-8.526,-0.861,-5.432,7.84,17.43,-2.87
,-8.545,-1.378,-5.023,-7.959,-0.778,-5.535,9.73,18.13,-1.47
,-8.579,-1.235,-5.231,-7.935,-0.83,-5.523,11.55,18.41,-1.4
31196.0,-8.172,-0.9,-5.284,-8.145,-0.45,-5.614,9.8,18.76,0.35
,-8.397,-0.869,-5.346,-8.323,-0.292,-5.434,11.69,18.62,0.0
,-8.349,-0.759,-5.456,-8.741,-0.349,-5.13,12.74,17.43,-0.07
,-8.148,-0.627,-5.583,-8.782,-0.601,-5.202,12.39,16.73,0.14
31272.0,-8.497,-1.091,-5.217,-7.978,-1.843,-5.331,4.62,14.91,-2.52
,-8.253,-1.713,-5.066,-7.966,-1.441,-5.607,1.19,14.35,-0.98
,-7.83,-2.137,-4.999,-8.267,-1.228,-5.415,1.54,15.05,0.0
,-7.916,-2.17,-5.044,-8.133,-1.07,-5.494,5.11,16.24,0.56
31347.0,-7.76,-0.991,-5.717,-8.172,0.05,-5.808,7.0,14.0,4.34
,-7.645,-0.96,-5.686,-8.339,0.27,-5.638,7.21,15.19,5.04
,-7.925,-0.632,-5.8,-8.473,0.443,-5.432,10.36,15.33,5.25
,-8.131,-0.244,-5.896,-8.287,0.5,-5.628,12.6,15.12,4.83
31423.0,-8.303,0.457,-5.676,-8.062,0.093,-6.521,8.75,11.97,-1.33
,-8.011,0.364,-6.171,-8.236,-0.194,-6.384,7.42,11.13,-3.71
,-7.921,0.294,-6.513,-8.186,-0.464,-6.286,7.42,10.99,-5.81
,-7.873,0.177,-6.676,-7.851,-0.928,-6.334,8.12,11.27,-7.98
31498.0,-7.741,-1.436,-6.226,-8.172,-2.163,-6.382,5.46,6.16,-9.66
,-7.782,-1.895,-6.025,-8.043,-2.032,-6.446,6.09,6.51,-8.47
,-7.949,-2.039,-6.097,-7.976,-2.123,-6.238,8.54,6.72,-7.91
,-8.059,-2.12,-6.341,-7.822,-1.957,-6.346,11.27,6.72,-7.56
31574.0,-7.674,-1.711,-6.463,-8.193,-0.471,-6.013,14.91,1.61,-3.78
,-7.887,-1.522,-6.346,-8.16,-0.27,-6.145,15.26,1.05,-3.15
,-8.122,-1.254,-6.353,-7.815,-0.007,-6.58,16.87,0.07,-3.5
,-8.32,-1.046,-6.061,-7.77,-0.05,-6.356,18.55,-0.42,-2.52
31650.0,-7.854,0.005,-6.454,-8.062,-2.065,-5.93,16.8,-4.06,-9.8
,-7.777,-0.242,-6.36,-8.186,-2.718,-5.616,14.28,-4.13,-10.5
,-7.775,-0.897,-6.226,-8.045,-2.984,-5.492,11.9,-3.85,-9.52
,-7.997,-1.575,-5.987,-7.913,-3.204,-5.255,10.36,-3.99,-8.26
31726.0,-8.035,-3.357,-5.229,-8.031,-1.701,-5.836,11.06,-4.06,-2.59
,-7.875,-2.874,-5.465,-7.961,-0.95,-6.059,12.25,-5.39,-0.77
,-7.703,-2.63,-5.635,-7.913,-0.96,-6.054,12.39,-4.27,1.05
,-7.87,-2.309,-5.741,-8.131,-1.285,-5.973,12.46,-2.73,2.03
31801.0,-8.155,-1.4,-5.808,-7.593,-0.668,-5.942,9.17,-2.17,3.5
,-8.04,-1.543,-5.87,-8.047,-0.715,-6.08,10.57,-1.33,4.06
,-8.208,-1.481,-5.542,-8.569,-1.527,-5.865,11.27,-1.68,4.2
,-7.868,-1.048,-5.705,-8.337,-2.008,-5.54,12.18,-3.01,3.92
31877.0,-7.772,-2.304,-5.41,-8.325,-2.008,-5.671,3.22,-3.15,3.08
,-7.65,-2.565,-5.396,-8.181,-1.479,-5.815,3.85,-2.03,3.99
,-7.794,-2.45,-5.635,-7.748,-1.18,-5.889,4.97,-1.12,4.97
,-7.949,-2.316,-5.674,-7.746,-1.24,-5.743,5.74,0.21,6.16
31953.0,-7.971,-1.117,-5.86,-8.16,-0.732,-5.671,3.64,1.61,6.16
,-8.387,-1.254,-5.738,-7.988,-0.644,-5.731,3.08,3.01,5.95
,-8.411,-1.173,-5.592,-7.813,-0.782,-5.81,3.92,4.2,5.88
,-8.356,-0.893,-5.611,-7.925,-0.866,-5.855,4.27,4.76,5.32
32029.0,-8.088,-1.05,-5.846,-7.758,-1.627,-5.731,-7.63,3.15,2.66
,-8.267,-1.031,-5.846,-7.865,-1.615,-5.705,-8.33,3.08,2.52
,-8.222,-1.022,-5.858,-7.985,-1.397,-5.939,-10.29,2.31,2.17
,-7.935,-1.259,-5.64,-8.052,-1.022,-6.114,-12.11,2.73,2.52
32104.0,-8.287,-0.838,-6.08,-8.301,-0.835,-5.772,-13.51,3.57,5.53
,-8.291,-0.637,-6.018,-8.143,-0.84,-5.848,-15.05,3.15,5.32
,-8.267,-0.696,-6.004,-7.973,-0.737,-6.018,-17.15,3.29,5.18
,-8.263,-0.952,-5.853,-8.145,-0.9,-5.899,-18.55,3.99,5.32
32180.0,-8.227,-1.132,-5.994,-7.954,-1.699,-6.21,-18.62,0.91,4.55
,-8.186,-1.259,-6.037,-8.052,-1.756,-6.147,-18.13,0.35,4.13
,-8.198,-1.383,-6.097,-8.358,-1.673,-6.016,-17.22,-0.28,3.99
,-8.1,-1.529,-6.167,-8.198,-1.443,-6.044,-15.89,-1.33,4.27
32256.0,-7.851,-1.316,-6.143,-8.066,-1.046,-6.016,-10.92,-2.8,5.53
,-7.887,-1.218,-5.98,-8.241,-1.003,-5.882,-10.43,-2.24,5.6
,-8.047,-1.18,-5.942,-8.114,-0.931,-6.078,-9.73,-2.59,5.95
,-8.1,-1.027,-6.009,-8.189,-0.905,-5.922,-9.03,-2.8,6.44
32331.0,-8.457,-0.68,-5.875,-8.308,-0.613,-6.047,-2.24,-4.48,5.25
,-8.229,-0.615,-5.855,-8.224,-0.531,-6.011,-1.12,-5.81,4.2
,-7.944,-0.648,-5.949,-8.09,-0.577,-5.956,0.28,-6.02,3.43
,-8.177,-0.706,-5.863,-8.136,-0.629,-5.741,0.91,-6.37,3.92
32407.0,-7.935,-0.725,-5.769,-8.263,-0.876,-5.812,0.98,-9.87,2.1
,-7.901,-0.962,-5.468,-8.37,-0.809,-5.714,1.12,-8.4,2.38
,-8.043,-0.936,-5.473,-8.26,-0.735,-5.693,0.7,-7.14,3.15
,-8.234,-0.883,-5.714,-8.325,-0.713,-5.597,0.35,-7.84,3.71
32483.0,-8.825,-0.957,-5.53,-8.033,-0.562,-5.319,-4.06,-9.52,3.64
,-8.325,-0.124,-6.083,-8.212,-0.445,-5.188,-1.82,-11.62,3.22
,-7.985,-0.617,-5.92,-8.337,-0.354,-5.111,-2.45,-11.27,3.08
,-7.992,-0.543,-5.714,-8.253,-0.323,-5.133,-2.52,-9.8,3.43
32559.0,-8.361,-0.349,-5.075,-8.138,-0.163,-5.027,-1.4,-7.14,4.48
,-8.571,-0.457,-4.855,-8.22,-0.194,-5.176,-2.1,-9.03,3.43
,-8.394,-0.364,-5.03,-8.38,-0.129,-5.3,-1.89,-11.27,2.17
,-8.181,-0.108,-5.056,-8.478,0.022,-5.396,-1.75,-11.97,1.47
32634.0,-8.437,0.16,-5.501,-8.366,-0.715,-5.037,-0.98,-9.03,-0.07
,-8.284,0.117,-5.482,-8.579,-0.775,-5.14,-1.33,-8.19,-0.77
,-8.217,-0.112,-5.382,-8.813,-0.68,-5.233,-1.89,-6.58,-1.12
,-8.26,-0.526,-5.095,-8.705,-0.656,-5.587,-1.68,-5.46,-1.26
32710.0,-8.378,-0.833,-5.626,-8.411,-0.895,-5.269,-2.52,-11.06,-0.49
,-8.229,-1.113,-5.453,-8.413,-0.902,-5.245,-2.87,-10.99,-0.28
,-8.289,-1.285,-5.382,-8.351,-1.122,-5.202,-0.91,-11.62,-0.77
,-8.277,-1.074,-5.415,-8.392,-1.515,-4.972,1.75,-12.74,-0.91
32786.0,-8.435,-1.589,-4.819,-8.631,-0.232,-4.731,4.48,-15.33,3.99
,-8.514,-1.235,-4.74,-8.658,-0.211,-4.616,9.24,-15.54,4.62
,-8.61,-0.737,-4.798,-8.703,-0.187,-4.544,11.48,-16.17,5.39
,-8.598,-0.445,-4.702,-8.667,0.05,-4.515,11.2,-16.59,6.09
32862.0,-8.67,0.292,-4.69,-8.67,-0.392,-4.594,7.56,-18.06,1.05
,-8.636,0.507,-4.702,-8.634,-0.67,-4.283,4.13,-19.25,0.14
,-8.713,0.325,-4.429,-8.744,-0.605,-4.362,-0.21,-19.46,-0.28
,-8.784,-0.002,-4.535,-8.918,-0.553,-4.18,-2.87,-19.32,-1.33
32937.0,-8.882,-0.567,-3.865,-8.799,-1.414,-3.632,-0.07,-18.06,-3.01
,-8.811,-0.814,-3.917,-8.926,-1.455,-3.735,-2.1,-17.99,-3.15
,-8.751,-1.007,-3.857,-9.04,-1.259,-3.704,-3.64,-17.99,-3.01
,-8.777,-1.187,-4.099,-9.067,-0.905,-3.769,-3.85,-17.78,-2.45
33013.0,-9.007,-0.469,-3.881,-8.804,-0.258,-4.109,10.22,-14.35,0.28
,-8.892,-0.163,-4.022,-8.851,-0.357,-3.704,10.01,-14.84,0.14
,-8.861,0.084,-4.386,-9.129,-0.223,-3.489,7.63,-15.26,-0.56
,-8.691,-0.045,-4.166,-9.237,0.026,-3.685,6.02,-14.77,-0.77
33088.0,-9.189,-0.043,-3.35,-8.866,-0.804,-3.565,8.89,-12.39,-3.36
,-9.213,-0.297,-3.352,-8.887,-0.919,-3.656,6.3,-11.83,-3.5
,-9.251,-0.436,-3.367,-8.811,-1.151,-3.379,4.62,-11.55,-4.41
,-9.222,-0.632,-3.865,-8.911,-1.208,-2.955,3.5,-11.41,-5.25
33164.0,-9.261,-1.084,-3.149,-9.095,-1.161,-3.032,9.94,-6.02,-2.8
,-9.28,-1.043,-3.037,-9.119,-1.019,-2.977,9.03,-5.46,-2.52
,-9.222,-1.015,-3.108,-9.194,-0.67,-3.156,8.19,-4.62,-1.68
,-9.16,-1.106,-2.97,-9.201,-0.572,-2.982,7.35,-3.36,-1.05
33240.0,-9.308,-0.433,-3.391,-9.014,-0.804,-3.719,9.59,2.94,0.98
,-9.206,-0.474,-3.699,-8.978,-0.914,-3.719,7.28,2.8,0.56
,-9.103,-0.55,-3.738,-9.117,-0.775,-3.795,5.6,3.08,0.7
,-9.055,-0.632,-3.879,-9.124,-0.761,-4.078,4.2,3.22,0.28
33316.0,-9.057,-0.799,-4.381,-9.048,-0.888,-4.188,0.63,3.22,-0.21
,-8.923,-0.986,-4.391,-9.081,-0.637,-4.061,0.07,2.66,-0.14
,-8.832,-1.103,-4.259,-9.146,-0.538,-3.991,1.19,2.73,0.35
,-8.933,-1.086,-4.3,-9.091,-0.586,-3.879,4.13,2.8,1.05
33392.0,-9.086,-0.797,-3.96,-9.129,-0.842,-3.833,3.5,1.12,1.47
,-9.036,-0.926,-3.838,-9.115,-0.725,-3.778,3.71,1.19,1.54
,-8.988,-0.893,-3.812,-9.112,-0.689,-3.881,3.5,1.05,1.4
,-9.079,-0.945,-3.807,-9.009,-0.694,-3.939,3.01,1.05,1.05
33467.0,-8.964,-0.818,-4.032,-9.129,-0.811,-3.69,0.49,0.77,0.56
,-8.899,-0.878,-3.915,-9.201,-0.747,-3.68,1.26,0.91,0.91
,-8.954,-0.89,-3.855,-9.143,-0.732,-3.673,2.03,1.26,1.12
,-9.06,-0.895,-3.764,-9.081,-0.852,-3.707,3.15,1.47,1.4
33543.0,-9.014,-0.861,-3.711,-9.091,-0.732,-4.147,2.31,2.24,1.4
,-9.081,-0.715,-3.884,-9.055,-0.751,-4.279,2.66,2.45,1.33
,-9.091,-0.637,-3.922,-8.997,-0.821,-4.36,2.24,2.38,1.26
,-9.186,-0.62,-4.118,-8.918,-0.866,-4.331,0.98,1.96,0.84
33619.0,-8.885,-0.919,-4.147,-9.27,-0.56,-3.625,1.47,0.49,1.54
,-8.976,-0.931,-3.848,-9.201,-0.605,-3.647,2.66,0.63,1.89
,-9.081,-0.828,-3.69,-9.05,-0.78,-3.652,3.71,0.63,1.75
,-9.232,-0.598,-3.63,-9.05,-0.883,-3.778,3.64,0.56,1.54
33695.0,-9.062,-0.885,-3.881,-9.167,-0.593,-4.116,0.91,1.47,0.98
,-9.098,-0.73,-3.915,-9.028,-0.653,-4.168,2.17,1.4,1.26
,-9.158,-0.637,-3.888,-8.949,-0.78,-4.154,2.31,1.54,1.4
,-9.119,-0.617,-3.932,-9.028,-0.806,-4.125,2.17,1.75,1.54
33770.0,-9.014,-0.782,-3.965,-9.232,-0.615,-3.676,2.94,0.56,1.26
,-9.081,-0.73,-3.845,-9.11,-0.706,-3.735,3.57,0.56,1.12
,-9.179,-0.61,-3.723,-9.033,-0.799,-3.738,3.01,0.7,0.91
,-9.217,-0.653,-3.644,-9.033,-0.84,-3.702,2.03,0.63,0.77
33846.0,-9.064,-0.802,-3.666,-9.074,-0.737,-3.896,2.17,1.96,0.91
,-9.201,-0.689,-3.664,-9.06,-0.866,-3.879,2.94,2.17,0.91
,-9.237,-0.531,-3.79,-9.079,-0.924,-4.044,2.31,1.96,0.56
,-9.189,-0.605,-3.891,-9.019,-0.838,-4.006,0.77,2.1,0.35
33921.0,-9.067,-0.725,-4.058,-9.16,-0.66,-4.008,2.94,2.31,0.91
,-9.115,-0.62,-3.979,-9.048,-0.687,-3.872,3.22,2.03,1.05
,-9.134,-0.562,-3.967,-9.057,-0.766,-3.85,3.22,1.82,0.98
,-9.1,-0.625,-3.9,-9.028,-0.778,-3.924,3.22,1.89,0.98
33997.0,-9.057,-0.732,-3.958,-9.134,-0.806,-3.728,3.08,1.75,0.63
,-9.057,-0.73,-3.948,-9.072,-0.785,-3.886,3.29,1.54,0.56
,-9.036,-0.627,-3.788,-9.069,-0.797,-3.86,2.87,1.75,0.49
,-9.16,-0.747,-3.836,-9.062,-0.804,-3.795,2.24,2.03,0.49
34073.0,-9.081,-0.766,-3.838,-9.127,-0.653,-3.97,2.1,2.38,1.05
,-9.064,-0.627,-3.802,-9.083,-0.701,-4.118,1.96,2.38,1.05
,-9.153,-0.512,-3.884,-9.074,-0.718,-4.068,0.91,2.59,1.12
,-9.158,-0.639,-3.85,-9.105,-0.711,-3.984,-0.56,2.66,1.05
34149.0,-9.083,-0.67,-3.853,-8.969,-0.72,-3.939,-2.66,3.08,1.68
,-9.079,-0.608,-3.92,-8.942,-0.861,-3.805,-3.01,3.01,1.54
,-9.103,-0.524,-3.953,-9.143,-0.84,-3.707,-3.78,2.8,1.33
,-9.04,-0.507,-4.042,-9.129,-0.718,-3.637,-5.39,2.45,1.05
34224.0,-9.217,-0.541,-3.704,-8.978,-0.799,-3.654,-1.47,3.01,1.26
,-9.148,-0.524,-3.778,-9.04,-0.73,-3.491,-2.38,2.8,0.91
,-9.045,-0.586,-3.821,-9.167,-0.553,-3.106,-3.64,2.87,0.63
,-8.969,-0.68,-3.766,-9.275,-0.491,-3.003,-4.13,3.36,0.56
34300.0,-9.375,-0.471,-2.828,-8.789,-0.895,-3.707,-3.43,7.14,0.49
,-9.246,-0.586,-2.922,-8.677,-0.646,-3.623,-5.25,8.12,0.63
,-9.182,-0.888,-2.977,-8.847,-0.313,-3.664,-6.65,9.17,0.77
,-9.074,-1.036,-3.4,-8.969,-0.022,-3.343,-5.11,10.43,1.26
34376.0,-9.146,0.433,-4.594,-8.906,-1.151,-4.039,4.9,13.37,-0.07
,-8.722,0.534,-4.843,-9.009,-1.225,-3.441,0.21,11.69,-1.4
,-8.729,0.148,-4.829,-9.139,-0.838,-3.666,-4.27,10.71,-1.19
,-8.808,-0.555,-4.477,-9.194,-0.481,-3.814,-6.44,10.01,-2.17
34452.0,-9.043,-0.687,-4.025,-8.978,-1.78,-3.419,-10.85,9.03,-6.37
,-8.624,-1.283,-3.819,-8.904,-1.259,-3.628,-15.96,9.59,-5.32
,-8.521,-1.831,-3.285,-8.734,-0.744,-4.13,-14.49,11.76,-3.01
,-8.839,-2.029,-3.092,-8.49,-0.493,-4.554,-7.49,14.77,-0.7
34528.0,-8.354,-0.428,-4.558,-9.189,0.065,-4.197,4.13,17.57,5.74
,-8.521,-0.364,-4.322,-8.902,-0.05,-3.841,6.86,18.27,5.81
,-9.007,-0.182,-4.41,-8.686,-0.323,-4.118,9.17,17.99,3.92
,-9.407,-0.05,-4.463,-8.614,-0.591,-3.774,7.91,16.8,1.33
34603.0,-9.045,-0.648,-4.3,-8.368,-0.419,-5.654,4.76,18.9,0.14
,-9.098,-0.481,-4.74,-8.404,-0.565,-5.619,4.62,17.36,-0.14
,-9.026,-0.316,-4.92,-8.634,-0.933,-5.135,3.5,15.61,-0.07
,-8.648,-0.347,-5.611,-8.787,-0.809,-4.549,0.77,13.58,-0.84
34679.0,-8.739,-0.464,-4.597,-8.246,-1.369,-5.341,1.89,10.01,-4.69
,-8.737,-0.512,-4.944,-8.406,-1.089,-5.363,-0.28,8.68,-4.9
,-8.562,-0.849,-4.901,-8.514,-0.747,-5.53,-2.66,9.03,-3.5
,-8.349,-1.201,-5.212,-8.454,-0.646,-5.516,-1.89,10.5,-1.68
34754.0,-8.564,-0.909,-5.037,-8.832,-1.505,-3.743,11.2,12.32,1.12
,-8.674,-1.134,-4.587,-8.804,-1.517,-4.011,11.06,12.81,1.82
,-8.571,-1.268,-4.204,-8.626,-1.383,-4.295,12.25,13.44,2.73
,-8.681,-1.378,-3.786,-8.33,-0.969,-4.831,12.67,13.3,3.43
34830.0,-8.131,-0.488,-5.116,-8.89,0.577,-5.018,11.55,12.11,6.16
,-7.997,-0.191,-5.264,-8.672,0.706,-5.001,11.2,12.32,5.11
,-8.33,-0.122,-5.284,-8.65,0.395,-5.095,11.2,13.02,3.29
,-8.722,0.282,-5.073,-9.05,-0.112,-5.02,11.9,14.07,1.61
34906.0,-9.284,-0.426,-5.042,-8.38,-0.768,-4.654,1.12,9.87,-1.75
,-8.849,-0.361,-5.133,-8.629,-0.794,-4.771,2.31,8.05,-2.73
,-8.129,-0.158,-5.341,-8.411,-0.507,-5.231,2.66,7.35,-4.2
,-7.772,-0.337,-5.226,-8.39,-0.333,-5.394,2.17,9.24,-5.39
34982.0,-8.119,-0.462,-5.511,-8.619,-0.615,-4.769,-2.38,9.52,-7.42
,-8.126,-0.558,-5.226,-8.406,-0.536,-5.147,-1.82,11.06,-8.61
,-8.196,-0.89,-4.944,-8.155,-0.78,-5.042,-0.28,12.67,-8.89
,-8.65,-0.78,-4.757,-8.167,-1.194,-4.949,2.59,12.46,-8.12
35057.0,-8.244,-1.622,-4.822,-8.181,-1.352,-5.58,1.47,16.8,-5.04
,-8.306,-1.768,-4.8,-8.126,-1.263,-5.829,3.57,18.48,-3.92
,-8.284,-1.768,-5.039,-7.865,-1.292,-6.018,5.67,18.97,-2.73
,-8.27,-1.596,-5.343,-7.784,-1.409,-6.064,7.7,18.55,-1.33
35133.0,-7.985,-1.364,-5.922,-8.454,-1.567,-5.37,7.91,14.7,1.4
,-8.344,-1.177,-5.729,-8.418,-1.685,-5.41,9.87,15.4,1.26
,-8.375,-1.216,-5.547,-8.165,-1.421,-5.719,9.87,16.31,1.05
,-8.459,-1.39,-5.432,-7.772,-1.053,-5.87,8.89,16.66,1.26
35208.0,-7.736,-0.826,-5.922,-8.54,-0.067,-5.796,14.63,12.39,4.2
,-7.971,-0.373,-5.994,-8.708,-0.211,-5.695,15.33,12.04,2.94
,-8.2,-0.01,-6.047,-8.399,-0.586,-5.805,14.77,11.83,1.47
,-8.425,0.251,-6.004,-7.988,-0.811,-6.025,13.51,11.27,-0.14
35284.0,-7.906,-0.715,-6.157,-8.141,-1.704,-5.65,12.32,8.68,-5.04
,-7.758,-0.945,-6.126,-7.947,-1.816,-5.37,12.95,8.75,-5.53
,-7.983,-1.187,-6.064,-7.787,-1.594,-5.374,13.09,8.47,-5.67
,-8.052,-1.534,-5.812,-7.944,-1.043,-5.58,12.88,7.35,-5.04
35360.0,-8.062,-0.416,-5.915,-7.968,-1.493,-5.863,16.45,8.12,-5.6
,-8.332,0.091,-5.961,-7.98,-2.34,-5.724,15.26,7.28,-7.07
,-8.311,-0.014,-5.977,-7.636,-2.536,-5.796,11.9,6.23,-7.98
,-8.303,-0.613,-5.975,-7.901,-2.709,-6.183,5.81,7.07,-6.93
35436.0,-8.236,-2.73,-6.109,-7.669,-2.63,-6.537,17.43,7.98,-1.12
,-7.861,-2.259,-6.542,-7.679,-2.802,-6.351,18.83,6.3,-0.14
,-7.617,-2.178,-6.731,-7.928,-2.264,-6.446,17.29,5.18,1.4
,-7.595,-2.783,-6.451,-7.901,-1.843,-6.564,14.56,3.92,2.59
35512.0,-7.849,-1.651,-6.444,-8.083,-0.586,-6.047,12.88,1.4,7.91
,-7.978,-1.283,-6.336,-7.873,-0.333,-5.994,13.3,1.12,7.98
,-8.083,-1.261,-6.164,-7.98,-0.002,-5.855,12.74,0.98,8.4
,-8.162,-0.967,-6.143,-8.15,0.158,-5.863,12.74,0.42,8.4
35587.0,-8.332,-0.074,-5.626,-7.897,-0.591,-5.808,8.12,-0.84,3.01
,-8.193,-0.392,-5.638,-8.035,-0.696,-5.851,6.58,-0.98,1.68
,-7.856,-0.4,-5.762,-8.265,-0.914,-6.047,6.02,-0.7,0.63
,-7.705,-0.407,-5.867,-8.334,-1.242,-5.896,5.11,-0.21,-0.42
35663.0,-8.248,-1.831,-5.824,-8.007,-1.658,-5.855,-1.4,1.05,-2.66
,-7.782,-1.984,-5.731,-8.239,-1.326,-6.095,-0.56,0.63,-2.31
,-7.48,-1.835,-5.743,-8.098,-1.216,-6.308,-0.35,0.49,-2.03
,-7.631,-1.79,-5.803,-7.873,-1.235,-6.324,-1.19,1.33,-1.33
35739.0,-8.007,-1.328,-6.272,-8.011,-1.749,-6.049,-2.94,1.82,-0.07
,-7.861,-1.452,-6.31,-7.971,-1.687,-6.021,-3.92,0.91,0.07
,-7.722,-1.673,-6.09,-7.885,-1.78,-6.004,-4.83,1.4,0.84
,-7.865,-1.888,-5.92,-7.999,-1.893,-6.037,-4.83,2.1,1.68
35815.0,-8.119,-1.713,-6.143,-8.191,-1.211,-6.167,-6.23,2.31,4.62
,-8.019,-1.548,-6.19,-8.076,-1.079,-6.212,-7.35,1.4,5.32
,-8.055,-1.436,-6.243,-8.141,-0.979,-6.25,-8.54,1.82,6.09
,-8.083,-1.318,-6.289,-8.035,-0.852,-6.348,-9.24,1.4,6.65
35890.0,-8.232,-1.029,-6.066,-7.863,-1.228,-6.265,-13.65,-1.19,7.0
,-8.208,-0.964,-6.059,-8.174,-1.153,-6.353,-13.65,-3.01,6.51
,-7.851,-0.995,-6.147,-8.346,-1.151,-6.351,-13.93,-3.64,6.37
,-7.767,-1.153,-6.181,-8.334,-1.211,-6.277,-13.72,-2.87,6.79
35966.0,-8.138,-1.452,-6.025,-8.04,-1.508,-5.676,-10.36,2.8,8.33
,-7.875,-1.692,-5.968,-8.301,-1.072,-5.657,-10.99,2.73,8.54
,-7.655,-1.833,-5.889,-7.966,-0.646,-6.131,-9.94,2.24,8.61
,-7.789,-1.776,-5.779,-7.861,-0.433,-6.009,-8.4,-0.42,8.12
36041.0,-8.059,-0.414,-5.992,-8.224,-1.385,-5.867,-10.85,-15.75,2.8
,-8.088,-0.613,-5.913,-8.442,-1.299,-5.87,-11.9,-14.84,2.94
,-8.062,-0.931,-5.875,-8.559,-1.149,-5.824,-11.34,-13.02,3.08
,-8.148,-1.297,-5.832,-8.67,-0.969,-5.628,-8.89,-10.92,3.71
36117.0,-8.2,-0.771,-5.757,-8.181,-0.651,-5.489,6.65,-10.85,3.71
,-7.775,-0.641,-5.808,-8.363,-0.794,-5.286,5.6,-12.6,4.27
,-7.686,-0.675,-5.738,-8.294,-0.826,-5.166,3.01,-13.58,4.34
,-7.772,-0.62,-5.733,-8.007,-0.866,-5.25,0.35,-13.86,4.2
36193.0,-7.889,-0.983,-5.25,-8.677,-0.354,-5.26,-7.14,-13.51,4.97
,-8.122,-1.091,-5.001,-8.356,-0.503,-5.544,-5.32,-12.04,5.67
,-8.37,-0.986,-5.142,-8.093,-0.378,-5.434,-2.66,-11.48,5.6
,-8.686,-0.998,-5.008,-8.102,-0.553,-5.145,-0.35,-10.08,6.16
36269.0,-8.196,-0.759,-4.692,-8.346,-0.256,-5.104,-0.56,-10.71,6.23
,-8.224,-0.79,-4.573,-8.299,-0.239,-5.154,-0.84,-9.73,5.81
,-8.303,-0.646,-4.755,-8.311,-0.251,-5.13,0.28,-9.45,5.81
,-8.334,-0.4,-4.996,-8.586,-0.278,-4.81,1.12,-9.52,6.37
36344.0,-8.595,-0.062,-4.874,-8.555,-0.156,-5.147,1.33,-7.21,4.13
,-8.603,0.048,-4.903,-8.634,-0.354,-5.073,0.84,-7.7,3.36
,-8.61,0.074,-5.023,-8.504,-0.486,-5.2,-0.49,-7.63,3.29
,-8.586,0.041,-5.128,-8.404,-0.39,-5.322,-1.19,-7.07,3.29
36420.0,-8.311,-0.232,-5.477,-8.492,-0.57,-5.02,-2.31,-8.61,0.91
,-8.39,-0.199,-5.604,-8.488,-0.775,-5.049,-3.29,-9.31,0.7
,-8.466,-0.179,-5.473,-8.469,-0.859,-5.099,-4.97,-10.43,-0.14
,-8.5,-0.34,-5.31,-8.399,-0.933,-5.049,-7.07,-11.27,-0.28
36496.0,-8.538,-1.084,-4.862,-8.466,-0.223,-5.133,-3.22,-10.08,1.47
,-8.619,-1.132,-4.676,-8.358,-0.079,-5.099,-1.61,-9.73,2.66
,-8.734,-1.019,-4.628,-8.428,-0.345,-5.205,0.63,-9.59,3.92
,-8.67,-0.572,-4.884,-8.497,-0.835,-5.027,2.38,-10.01,4.41
36572.0,-8.483,-1.163,-4.91,-8.868,-0.045,-4.434,-0.7,-12.25,4.13
,-8.569,-1.043,-4.86,-8.772,0.139,-4.731,3.22,-12.6,4.48
,-8.801,-0.754,-4.592,-8.705,0.156,-4.585,7.63,-12.6,5.18
,-8.878,-0.366,-4.506,-8.823,0.062,-4.994,9.94,-12.81,4.83
36648.0,-8.832,-0.007,-5.181,-8.801,0.089,-4.659,-2.73,-17.57,-0.28
,-8.614,-0.206,-4.968,-8.923,0.17,-4.661,-3.08,-17.92,-0.77
,-8.705,-0.258,-4.748,-9.021,0.127,-4.324,-0.56,-17.78,-0.98
,-8.799,-0.089,-4.965,-8.871,-0.275,-3.905,1.12,-18.2,-2.24
36723.0,-8.832,-0.471,-3.762,-9.033,-0.945,-3.692,-2.17,-18.48,-4.06
,-8.885,-0.481,-4.054,-9.007,-1.01,-3.807,-1.96,-18.55,-4.9
,-8.732,-0.562,-3.745,-8.837,-1.012,-3.503,-2.45,-18.2,-4.27
,-8.969,-0.842,-3.697,-8.72,-1.01,-3.154,-3.71,-18.13,-3.85
36799.0,-8.842,-0.945,-2.761,-9.103,-0.005,-3.087,3.92,-13.16,-0.84
,-9.143,-0.826,-2.699,-9.179,-0.232,-3.568,6.37,-11.34,-0.49
,-9.33,-0.376,-2.802,-9.093,-0.469,-3.539,7.91,-10.08,0.07
,-9.328,-0.108,-3.125,-9.076,-0.627,-3.704,7.07,-9.24,0.07
36874.0,-9.052,-0.601,-3.637,-9.263,-0.28,-3.872,11.13,-4.55,0.77
,-9.052,-0.354,-3.733,-9.036,-0.294,-4.03,12.67,-4.06,0.77
,-9.031,-0.333,-3.501,-8.949,-0.347,-4.279,11.83,-3.57,0.91
,-9.313,-0.206,-3.491,-8.993,-0.483,-4.87,10.71,-3.15,0.63
36950.0,-8.748,-0.687,-5.262,-9.392,-0.436,-3.726,3.15,-6.16,-2.1
,-8.457,-0.735,-5.09,-9.591,-0.005,-3.709,4.69,-7.07,-1.19
,-8.552,-0.787,-4.59,-9.517,0.134,-3.939,7.63,-7.14,-0.07
,-8.952,-0.799,-4.013,-9.105,-0.371,-4.099,11.41,-6.79,0.63
37026.0,-8.751,-0.998,-4.018,-9.316,-0.153,-2.556,0.28,-9.31,-0.91
,-8.674,-1.151,-3.745,-9.45,-0.208,-2.307,4.34,-8.4,-0.07
,-8.894,-0.9,-3.515,-9.371,-0.467,-2.3,9.1,-7.56,0.63
,-9.184,-0.462,-3.058,-9.289,-0.665,-2.218,10.64,-7.07,1.05
37102.0,-9.356,-0.672,-2.472,-9.155,-0.988,-2.649,-1.12,-0.91,-0.63
,-9.273,-0.852,-2.673,-9.213,-0.981,-2.589,-0.7,0.91,-0.42
,-9.16,-0.849,-2.783,-9.385,-0.694,-2.757,0.14,2.1,0.21
,-9.091,-0.869,-2.73,-9.488,-0.426,-3.144,1.33,3.64,0.77
37177.0,-9.39,-0.352,-3.537,-8.832,-0.534,-4.683,5.67,8.89,1.19
,-9.191,-0.615,-4.049,-8.868,-0.39,-4.441,3.78,8.61,1.05
,-8.911,-0.809,-4.262,-9.005,-0.28,-4.257,4.27,8.47,1.19
,-8.844,-0.761,-4.515,-9.167,-0.237,-3.999,6.3,8.47,1.47
37253.0,-9.275,-0.416,-3.975,-9.048,-0.586,-4.042,2.8,5.32,0.14
,-9.177,-0.491,-3.874,-9.048,-0.517,-3.915,1.82,5.04,0.0
,-9.117,-0.546,-3.991,-9.131,-0.471,-3.881,0.84,4.62,-0.35
,-9.033,-0.615,-4.02,-9.263,-0.412,-3.855,0.35,4.27,-0.35
37329.0,-9.17,-0.479,-3.862,-9.162,-0.687,-3.714,-2.31,3.71,-0.98
,-9.045,-0.553,-3.853,-9.131,-0.708,-3.747,-2.66,3.57,-1.19
,-9.052,-0.653,-3.831,-9.172,-0.73,-3.678,-2.1,3.78,-0.98
,-9.098,-0.675,-3.817,-9.158,-0.763,-3.881,-0.84,3.92,-0.84
37405.0,-9.014,-0.701,-3.9,-9.213,-0.471,-4.073,3.64,4.62,0.14
,-9.014,-0.706,-3.886,-9.127,-0.447,-4.123,4.62,4.97,0.42
,-9.045,-0.72,-3.867,-9.045,-0.534,-4.099,5.25,5.04,0.56
,-9.134,-0.591,-3.908,-9.019,-0.629,-4.058,5.53,4.83,0.63
37481.0,-8.971,-0.522,-3.97,-9.069,-0.593,-3.805,4.62,4.27,0.63
,-8.973,-0.493,-3.977,-9.127,-0.514,-3.994,4.41,3.99,0.63
,-9.014,-0.531,-3.939,-9.122,-0.524,-4.03,3.64,3.92,0.49
,-9.045,-0.644,-3.879,-9.036,-0.517,-4.128,3.15,3.85,0.42
37556.0,-9.021,-0.622,-4.216,-8.945,-0.543,-4.25,0.49,3.22,-0.77
,-8.993,-0.637,-4.18,-8.916,-0.629,-4.238,1.4,3.15,-0.56
,-9.1,-0.598,-4.324,-8.894,-0.735,-4.137,2.45,2.94,-0.42
,-9.055,-0.505,-4.307,-9.031,-0.615,-4.094,2.94,2.66,-0.35
37632.0,-9.122,-0.555,-4.118,-9.122,-0.692,-3.922,3.57,0.98,-0.35
,-9.124,-0.603,-4.006,-9.081,-0.62,-4.003,3.15,0.84,-0.35
,-9.009,-0.603,-3.929,-9.057,-0.608,-4.042,2.87,0.84,-0.35
,-9.057,-0.687,-3.836,-8.966,-0.632,-3.991,3.29,1.19,-0.28
37707.0,-9.033,-0.641,-3.991,-9.11,-0.629,-3.886,4.9,1.47,0.14
,-9.055,-0.603,-3.944,-9.019,-0.833,-3.807,4.9,1.33,0.07
,-9.076,-0.548,-3.958,-9.026,-0.816,-3.798,4.55,1.33,0.07
,-9.072,-0.613,-3.888,-9.033,-0.771,-3.838,3.85,1.47,-0.07
37783.0,-9.062,-0.706,-3.869,-9.074,-0.696,-3.886,4.9,2.17,0.28
,-9.019,-0.586,-3.884,-9.074,-0.727,-3.936,4.34,2.17,0.14
,-9.052,-0.615,-3.924,-9.088,-0.756,-3.991,4.06,2.31,0.21
,-9.072,-0.677,-3.9,-8.99,-0.778,-4.111,4.06,2.45,0.21
37859.0,-9.021,-0.766,-4.08,-8.93,-0.739,-4.317,4.34,2.45,0.49
,-9.048,-0.737,-4.173,-8.904,-0.809,-4.286,4.69,2.17,0.49
,-9.083,-0.663,-4.226,-8.918,-0.771,-4.214,4.55,2.03,0.42
,-9.05,-0.68,-4.283,-9.002,-0.684,-4.252,3.99,1.68,0.42
37935.0,-8.973,-0.684,-4.092,-9.06,-0.725,-3.996,5.53,0.07,1.05
,-9.033,-0.646,-4.247,-9.1,-0.613,-4.087,5.18,-0.07,0.98
