Timestamp,AccX,AccY,AccZ,GyroX,GyroY,GyroZ,MagnX,MagnY,MagnZ
0.0,-9.162,-1.259,-3.664,-9.225,-1.275,-3.465,3.57,1.26,0.91
,-9.189,-1.211,-3.587,-9.206,-1.244,-3.417,3.57,1.19,0.91
,-9.222,-1.22,-3.558,-9.234,-1.223,-3.41,3.5,1.19,0.77
,-9.21,-1.24,-3.494,-9.225,-1.23,-3.396,3.5,0.98,0.84
76.0,-9.237,-1.311,-3.443,-9.196,-1.311,-3.587,2.38,1.47,0.63
,-9.215,-1.266,-3.525,-9.131,-1.256,-3.58,2.73,1.47,0.56
,-9.217,-1.22,-3.582,-9.179,-1.22,-3.513,2.66,1.47,0.63
,-9.153,-1.256,-3.606,-9.208,-1.213,-3.525,2.38,1.33,0.7
152.0,-9.174,-1.259,-3.431,-9.16,-1.374,-3.403,2.24,1.19,0.49
,-9.234,-1.287,-3.475,-9.246,-1.261,-3.463,2.17,1.26,0.42
,-9.17,-1.256,-3.479,-9.239,-1.218,-3.537,1.89,1.33,0.42
,-9.174,-1.39,-3.398,-9.184,-1.297,-3.592,1.96,1.47,0.56
228.0,-9.174,-1.314,-3.649,-9.227,-1.247,-3.489,1.89,1.54,0.56
,-9.122,-1.326,-3.733,-9.213,-1.225,-3.472,2.31,1.33,0.56
,-9.122,-1.28,-3.69,-9.186,-1.283,-3.458,2.66,1.47,0.7
,-9.182,-1.297,-3.577,-9.158,-1.287,-3.405,3.15,1.47,0.84
304.0,-9.179,-1.378,-3.496,-9.143,-1.287,-3.604,2.17,1.4,0.63
,-9.203,-1.316,-3.537,-9.179,-1.196,-3.597,2.59,1.54,0.84
,-9.177,-1.311,-3.539,-9.241,-1.216,-3.604,2.52,1.54,0.91
,-9.182,-1.309,-3.589,-9.239,-1.235,-3.539,2.59,1.54,0.98
380.0,-9.162,-1.268,-3.527,-9.191,-1.297,-3.436,2.31,1.12,0.84
,-9.162,-1.256,-3.508,-9.194,-1.292,-3.477,2.59,1.19,0.84
,-9.203,-1.285,-3.534,-9.184,-1.266,-3.472,2.87,1.26,0.77
,-9.198,-1.259,-3.475,-9.191,-1.249,-3.451,2.8,1.19,0.77
456.0,-9.256,-1.151,-3.489,-9.143,-1.311,-3.668,3.22,1.61,0.77
,-9.258,-1.17,-3.575,-9.16,-1.335,-3.671,2.31,1.54,0.7
,-9.189,-1.211,-3.594,-9.177,-1.254,-3.553,1.68,1.26,0.7
,-9.155,-1.299,-3.654,-9.22,-1.196,-3.585,1.96,1.26,0.63
532.0,-9.189,-1.194,-3.563,-9.213,-1.297,-3.508,2.59,0.91,0.63
,-9.17,-1.247,-3.542,-9.179,-1.275,-3.51,2.03,0.84,0.56
,-9.162,-1.29,-3.525,-9.182,-1.326,-3.451,2.17,0.91,0.56
,-9.186,-1.311,-3.558,-9.213,-1.297,-3.429,2.59,0.84,0.63
608.0,-9.232,-1.259,-3.41,-9.28,-1.161,-3.465,3.08,1.12,0.84
,-9.22,-1.232,-3.412,-9.225,-1.156,-3.563,2.73,1.26,0.77
,-9.203,-1.223,-3.429,-9.186,-1.196,-3.613,2.73,1.12,0.63
,-9.244,-1.177,-3.455,-9.129,-1.295,-3.62,2.66,1.47,0.56
684.0,-9.139,-1.366,-3.637,-9.227,-1.228,-3.503,2.17,1.05,0.35
,-9.155,-1.326,-3.592,-9.198,-1.251,-3.561,2.73,0.91,0.42
,-9.201,-1.33,-3.527,-9.158,-1.326,-3.553,2.94,0.84,0.49
,-9.22,-1.299,-3.489,-9.162,-1.287,-3.532,2.94,0.98,0.42
760.0,-9.21,-1.268,-3.494,-9.198,-1.35,-3.369,3.5,0.84,0.63
,-9.234,-1.189,-3.467,-9.206,-1.295,-3.415,3.43,0.91,0.49
,-9.222,-1.201,-3.441,-9.217,-1.244,-3.482,3.01,0.98,0.56
,-9.184,-1.283,-3.381,-9.213,-1.235,-3.522,2.87,1.12,0.56
836.0,-9.203,-1.249,-3.587,-9.179,-1.323,-3.52,2.1,1.19,0.42
,-9.186,-1.328,-3.57,-9.225,-1.23,-3.518,1.96,1.05,0.35
,-9.177,-1.448,-3.597,-9.198,-1.204,-3.455,2.1,1.05,0.49
,-9.158,-1.366,-3.539,-9.203,-1.225,-3.46,3.15,1.12,0.7
912.0,-9.189,-1.299,-3.51,-9.239,-1.273,-3.491,2.38,0.98,0.56
,-9.222,-1.326,-3.472,-9.21,-1.304,-3.592,2.59,0.91,0.49
,-9.194,-1.328,-3.47,-9.158,-1.35,-3.635,2.59,0.98,0.49
,-9.15,-1.318,-3.484,-9.172,-1.376,-3.647,2.73,1.12,0.56
988.0,-9.141,-1.345,-3.649,-9.215,-1.285,-3.388,3.43,0.42,0.77
,-9.16,-1.29,-3.601,-9.237,-1.24,-3.352,3.64,0.49,0.84
,-9.182,-1.314,-3.53,-9.201,-1.22,-3.345,3.71,0.56,0.98
,-9.206,-1.287,-3.47,-9.189,-1.23,-3.355,3.99,0.56,1.05
1064.0,-9.232,-1.24,-3.429,-9.16,-1.297,-3.539,2.52,0.63,0.56
,-9.225,-1.278,-3.429,-9.124,-1.431,-3.513,1.75,0.63,0.49
,-9.198,-1.259,-3.472,-9.167,-1.421,-3.479,1.19,0.42,0.28
,-9.246,-1.29,-3.551,-9.206,-1.34,-3.482,0.84,0.35,0.21
1140.0,-9.237,-1.287,-3.489,-9.167,-1.385,-3.53,3.01,0.35,0.98
,-9.198,-1.345,-3.609,-9.174,-1.328,-3.52,2.45,0.0,0.98
,-9.174,-1.407,-3.618,-9.201,-1.259,-3.288,2.24,0.0,1.12
,-9.134,-1.39,-3.565,-9.196,-1.278,-3.216,2.45,0.0,1.05
1216.0,-9.241,-1.285,-3.104,-9.217,-1.28,-3.123,1.26,-0.14,1.12
,-9.275,-1.259,-3.137,-9.177,-1.235,-3.101,0.91,-0.14,1.05
,-9.265,-1.259,-3.149,-9.191,-1.268,-2.962,0.28,0.0,0.98
,-9.227,-1.28,-3.128,-9.282,-1.129,-2.991,-0.28,0.35,0.98
1292.0,-9.22,-1.156,-2.857,-9.32,-1.079,-3.008,-2.87,2.1,0.98
,-9.232,-1.307,-2.759,-9.079,-1.103,-3.175,-4.13,2.66,0.7
,-9.189,-1.505,-2.635,-8.949,-1.285,-3.197,-4.2,3.64,0.98
,-9.258,-1.364,-2.625,-8.875,-1.512,-3.101,-2.73,4.69,1.26
1368.0,-8.966,-1.639,-2.898,-9.27,-1.129,-3.3,-3.92,8.33,1.68
,-9.289,-1.431,-2.931,-9.069,-1.412,-3.19,-0.77,9.1,2.1
,-9.6,-1.041,-3.218,-9.368,-1.656,-2.941,0.07,8.68,2.03
,-9.474,-0.993,-3.417,-9.488,-1.357,-2.927,-2.52,8.26,2.03
1444.0,-9.45,-0.754,-2.742,-9.201,-1.005,-3.013,-6.72,7.0,0.98
,-9.265,-0.263,-2.769,-9.131,-0.909,-3.817,-12.53,5.32,0.49
,-8.993,-0.402,-2.984,-8.83,-1.041,-3.893,-20.09,4.97,0.42
,-8.892,-0.919,-2.737,-8.93,-1.127,-4.274,-23.24,6.65,0.42
1520.0,-8.758,-1.39,-4.089,-8.856,-0.498,-3.877,-17.08,11.27,0.42
,-9.057,-1.129,-4.032,-8.957,-1.067,-3.149,-12.53,11.13,0.21
,-9.033,-0.577,-4.451,-9.227,-0.759,-2.486,-11.9,8.75,-0.63
,-8.938,-0.392,-4.085,-9.605,-0.426,-3.498,-15.12,7.0,-1.26
1596.0,-9.067,-0.347,-3.644,-9.141,-1.723,-4.676,-22.89,3.78,-4.76
,-9.213,-0.431,-4.001,-8.89,-1.45,-4.908,-28.14,3.71,-4.06
,-8.942,-1.297,-4.113,-9.026,-1.23,-5.099,-32.48,4.76,-3.01
,-8.976,-1.785,-3.884,-8.727,-1.505,-5.279,-28.42,7.56,-1.96
1672.0,-8.801,-1.725,-4.721,-8.957,-1.204,-3.929,-10.99,3.29,1.54
,-8.832,-1.711,-4.271,-9.127,-1.531,-4.14,-5.74,4.9,2.17
,-9.342,-1.369,-3.656,-9.112,-1.606,-4.178,-0.77,5.53,2.31
,-9.198,-1.182,-3.764,-8.976,-1.007,-4.307,-0.49,3.64,2.03
1748.0,-8.995,-0.278,-4.063,-9.021,0.146,-3.443,2.1,4.62,3.85
,-9.105,0.199,-4.238,-9.237,-0.246,-3.391,-0.77,2.1,2.73
,-8.823,0.369,-4.075,-9.06,-0.668,-3.355,-6.37,1.54,1.75
,-9.048,0.246,-3.711,-9.263,-1.115,-3.364,-12.04,2.24,0.63
1824.0,-8.875,-1.603,-3.3,-8.961,-1.079,-3.544,-18.55,8.33,-0.98
,-8.777,-1.642,-2.809,-9.122,-0.972,-3.307,-12.11,11.13,0.0
,-8.823,-1.299,-3.135,-9.263,-0.773,-3.453,-5.88,11.55,0.77
,-8.729,-1.141,-3.283,-9.002,-0.723,-3.585,-2.1,11.97,1.68
1900.0,-8.897,-0.696,-3.891,-8.914,0.057,-3.46,4.83,17.01,1.96
,-8.658,-0.859,-3.979,-8.897,0.591,-3.807,4.06,17.5,2.73
,-8.734,-0.881,-3.733,-8.732,0.61,-4.389,4.97,19.25,2.45
,-8.83,-0.546,-3.704,-8.823,-0.038,-4.381,7.14,20.37,1.54
1976.0,-8.959,-0.438,-4.164,-8.507,-1.01,-4.853,-3.29,20.86,-2.38
,-9.311,-0.481,-4.357,-8.502,-1.405,-4.657,0.7,20.51,-3.71
,-8.952,-0.433,-4.836,-8.655,-1.67,-4.511,4.34,18.55,-5.11
,-8.782,-0.476,-5.001,-8.576,-1.402,-4.523,5.18,17.71,-5.81
2052.0,-8.303,-0.857,-4.795,-8.945,-0.488,-5.176,9.66,18.97,-3.99
,-8.354,-0.567,-4.815,-8.729,-0.378,-5.291,7.35,18.48,-3.57
,-8.847,-0.699,-4.681,-8.851,-0.388,-5.487,3.71,17.36,-3.15
,-8.997,-0.754,-5.018,-8.878,-0.893,-5.224,0.98,15.54,-3.15
2128.0,-8.832,-1.249,-5.073,-8.646,-2.675,-4.432,0.63,13.02,-5.46
,-8.447,-1.663,-5.3,-8.476,-2.034,-4.843,1.12,11.55,-4.48
,-8.241,-2.364,-4.836,-8.605,-1.742,-5.092,2.66,12.25,-3.5
,-8.509,-2.659,-4.566,-8.646,-1.156,-5.035,6.51,12.95,-2.59
2204.0,-8.703,-0.684,-5.432,-8.504,-0.909,-5.843,13.86,9.52,2.8
,-8.581,-0.905,-5.54,-8.679,-0.763,-6.348,10.08,8.33,2.31
,-8.437,-0.897,-5.508,-8.741,-0.239,-6.047,7.21,7.42,1.82
,-8.567,-0.916,-5.662,-8.981,0.041,-5.827,7.0,6.58,1.61
2280.0,-8.576,0.029,-5.47,-8.655,-1.732,-4.386,13.72,-0.35,-7.42
,-8.478,-0.486,-4.812,-8.806,-1.792,-4.362,10.01,-0.28,-5.81
,-8.224,-1.314,-4.322,-8.873,-1.225,-4.745,7.28,0.0,-4.2
,-8.509,-1.639,-4.19,-8.973,-0.735,-4.989,6.79,0.42,-3.08
2356.0,-8.739,-0.124,-5.396,-7.669,-2.96,-4.666,7.07,-1.68,-3.78
,-8.598,0.323,-5.776,-7.952,-4.125,-4.154,4.27,-3.92,-5.32
,-8.16,-0.103,-5.401,-8.564,-4.468,-4.006,-1.89,-4.69,-4.76
,-7.729,-1.29,-5.02,-9.134,-4.238,-4.19,-9.24,-4.62,-2.1
2432.0,-9.275,-3.539,-4.628,-8.904,-0.392,-5.858,10.5,1.61,11.69
,-9.055,-2.436,-4.771,-9.083,0.038,-5.786,16.38,0.91,11.2
,-8.727,-1.476,-5.056,-8.442,0.452,-5.913,17.78,0.56,10.08
,-8.586,-0.964,-5.355,-8.143,0.503,-5.47,16.24,0.84,8.68
2508.0,-7.777,0.581,-5.666,-9.569,-0.806,-4.367,5.6,-0.35,7.07
,-8.227,0.177,-5.441,-8.902,-0.775,-4.611,2.1,1.19,7.56
,-9.067,-0.074,-5.066,-8.301,-0.967,-4.965,-0.07,1.68,7.0
,-9.6,-0.4,-4.958,-8.641,-0.78,-4.989,-1.61,1.4,6.02
2584.0,-9.002,-0.857,-5.25,-7.839,-0.802,-4.738,-2.03,-0.91,3.99
,-8.789,-1.247,-5.19,-8.411,-1.039,-4.64,-1.54,-1.68,3.71
,-8.284,-0.538,-5.178,-8.947,-1.402,-4.676,-0.7,-2.17,2.73
,-7.947,-0.491,-5.138,-9.117,-1.309,-4.59,-2.87,-0.42,2.87
2660.0,-9.043,-1.381,-4.547,-8.521,-2.989,-2.84,-4.06,0.77,1.26
,-9.072,-1.333,-3.999,-8.811,-1.821,-3.908,-4.41,-0.35,2.66
,-7.681,-6.212,-3.676,-8.715,-0.603,-4.707,-32.41,-1.54,8.96
,-8.483,-3.781,-2.027,-8.471,0.036,-5.114,-20.16,2.24,5.6
2736.0,-8.519,0.041,-5.054,-8.815,-0.309,-4.989,11.27,7.07,3.64
,-8.796,0.151,-5.104,-8.806,-0.335,-5.181,9.38,7.28,3.29
,-8.607,0.105,-4.999,-8.746,-0.495,-5.269,7.98,7.49,2.73
,-8.619,-0.105,-5.044,-8.722,-0.936,-5.327,7.42,7.56,1.61
2812.0,-8.856,-1.275,-5.205,-8.263,-1.78,-4.972,8.89,7.56,-1.26
,-8.88,-1.318,-5.212,-8.325,-2.091,-4.776,10.92,6.93,-1.12
,-8.5,-1.33,-5.176,-8.459,-1.685,-4.977,11.27,6.86,-1.33
,-8.39,-1.347,-5.317,-8.299,-1.096,-5.377,10.08,6.65,-1.61
2888.0,-8.39,-0.615,-5.506,-8.524,-0.838,-5.257,11.48,7.7,0.21
,-8.835,-0.51,-5.41,-8.404,-0.888,-5.296,10.01,7.28,-0.77
,-8.871,-0.493,-5.346,-8.466,-1.108,-5.049,8.4,6.37,-1.82
,-8.849,-0.682,-5.377,-8.406,-1.299,-4.913,6.65,5.6,-2.45
2964.0,-8.588,-1.235,-5.111,-8.507,-0.852,-5.154,5.04,6.51,-3.29
,-8.811,-1.086,-5.224,-8.495,-0.835,-5.212,4.97,6.65,-3.22
,-8.851,-1.287,-5.181,-8.815,-0.957,-5.03,3.57,6.02,-2.73
,-8.559,-1.326,-5.111,-8.82,-0.802,-5.233,2.17,5.88,-2.38
3040.0,-8.406,-0.931,-5.437,-8.643,-1.07,-5.432,-5.67,2.17,-2.1
,-8.361,-1.182,-5.501,-8.646,-0.995,-5.42,-7.28,2.38,-1.61
,-8.636,-1.481,-5.511,-8.713,-1.173,-5.341,-6.93,2.17,-1.26
,-8.717,-1.335,-5.324,-9.028,-1.309,-4.798,-4.13,1.68,-0.91
3116.0,-8.839,-1.33,-5.138,-8.854,-1.247,-5.604,-3.85,-0.98,-0.49
,-8.212,-1.184,-5.444,-8.727,-1.484,-5.327,-3.5,-1.96,0.28
,-7.897,-1.201,-5.683,-8.679,-1.486,-5.083,-4.27,-2.1,0.63
,-8.189,-1.28,-5.666,-8.246,-1.433,-5.391,-4.76,-2.31,0.91
3192.0,-8.021,-1.297,-5.729,-8.703,-1.4,-5.408,-1.26,-5.88,3.08
,-8.485,-1.388,-5.686,-8.576,-1.194,-5.449,-0.56,-5.95,2.31
,-8.784,-1.419,-5.647,-8.27,-1.039,-5.508,1.54,-6.16,1.68
,-8.619,-1.419,-5.669,-8.483,-1.036,-5.118,3.43,-5.25,1.89
3268.0,-8.808,-0.964,-4.731,-8.368,-0.981,-4.877,4.69,-5.74,0.14
,-8.799,-0.821,-4.898,-8.693,-1.012,-4.759,4.55,-9.03,0.91
,-8.361,-0.782,-4.968,-8.679,-0.771,-4.59,3.01,-10.36,1.75
,-8.311,-0.663,-4.984,-8.394,-0.778,-4.736,2.17,-11.06,1.68
3344.0,-8.323,-0.873,-4.85,-9.119,-1.395,-4.145,3.92,-9.73,1.05
,-8.447,-1.06,-4.812,-8.583,-1.23,-4.413,4.97,-7.98,0.28
,-8.588,-1.256,-4.738,-8.332,-1.134,-4.599,7.35,-6.58,-0.35
,-8.844,-1.46,-4.482,-8.222,-1.29,-4.724,9.59,-5.18,-0.49
3420.0,-8.643,-1.508,-4.716,-8.763,-1.244,-4.937,2.24,-12.81,3.92
,-8.559,-1.364,-4.879,-8.648,-1.28,-5.013,1.4,-13.44,4.83
,-8.392,-1.74,-4.281,-8.691,-1.376,-5.114,2.31,-11.41,4.97
,-8.612,-1.433,-4.908,-8.696,-1.378,-4.968,5.18,-10.57,5.04
3496.0,-8.437,-1.46,-4.781,-8.844,-0.433,-5.016,11.9,-4.34,7.35
,-8.784,-1.333,-4.712,-8.916,-0.615,-4.755,15.12,-5.25,7.98
,-9.234,-0.895,-4.58,-8.849,-0.814,-4.575,14.63,-10.78,8.47
,-8.624,-0.282,-5.128,-8.667,-0.668,-4.475,11.97,-15.05,8.68
3572.0,-8.552,-0.605,-4.535,-9.206,-0.459,-4.369,3.22,-16.52,5.39
,-8.662,-0.615,-4.779,-8.964,-0.404,-4.243,3.29,-16.24,5.04
,-8.739,-0.62,-4.795,-8.746,-0.433,-3.982,4.34,-15.26,4.2
,-8.949,-0.546,-4.539,-8.887,-0.536,-3.747,6.23,-13.44,3.22
3648.0,-8.792,-0.859,-3.848,-8.997,-0.73,-3.917,3.78,-11.69,1.26
,-8.827,-1.065,-3.81,-8.887,-0.536,-3.75,3.22,-12.32,1.26
,-8.873,-0.995,-3.836,-8.882,-0.433,-3.731,4.27,-12.11,1.4
,-9.107,-0.802,-3.881,-9.217,-0.596,-3.764,5.11,-12.18,1.12
3724.0,-9.268,-0.727,-3.522,-8.997,-1.374,-3.111,-6.09,-15.61,-1.54
,-9.055,-0.749,-3.537,-8.842,-1.208,-3.367,-9.24,-17.08,-2.03
,-8.813,-1.017,-3.288,-9.215,-0.926,-3.506,-9.87,-15.96,-2.03
,-8.818,-1.429,-2.912,-9.155,-0.964,-3.862,-7.0,-13.65,-1.82
3800.0,-9.06,-1.108,-3.757,-8.902,-0.905,-4.346,-0.35,-10.15,0.21
,-9.076,-1.22,-3.838,-9.162,-1.256,-3.872,0.56,-9.94,-0.35
,-8.964,-0.866,-3.848,-9.136,-1.735,-3.443,2.03,-10.22,-0.63
,-8.849,-0.78,-4.221,-9.182,-1.816,-3.278,0.77,-11.97,-0.77
3876.0,-9.086,-1.625,-3.288,-8.882,-1.433,-3.647,10.57,-10.99,1.12
,-9.191,-1.053,-3.36,-9.215,-1.488,-3.743,13.65,-11.13,1.96
,-9.153,-0.916,-4.226,-9.081,-1.089,-3.084,10.71,-13.37,2.03
,-8.595,-1.333,-4.223,-9.526,-0.304,-3.037,6.65,-13.79,2.31
3952.0,-9.531,0.124,-3.314,-9.237,-0.84,-2.757,22.68,-9.31,2.24
,-9.402,0.172,-3.142,-9.072,-1.019,-2.235,18.2,-9.31,1.89
,-9.347,-0.187,-3.228,-9.234,-1.103,-2.328,13.23,-9.45,0.98
,-9.222,-0.519,-2.891,-9.44,-1.086,-2.223,12.04,-8.47,0.56
4028.0,-9.469,-1.062,-2.639,-9.04,-0.778,-3.563,10.85,-4.83,0.21
,-9.217,-1.141,-2.536,-9.165,-0.809,-3.482,8.61,-4.06,0.14
,-9.399,-1.019,-3.139,-9.344,-0.897,-3.443,7.28,-3.78,-0.14
,-9.153,-0.857,-3.489,-9.395,-0.928,-3.307,5.39,-3.99,-0.35
4104.0,-9.481,-0.912,-3.463,-9.146,-1.146,-3.616,3.29,-4.48,-1.26
,-9.194,-0.993,-3.281,-9.215,-1.259,-3.532,3.01,-4.41,-1.05
,-9.332,-1.05,-3.477,-9.186,-1.474,-3.015,2.8,-5.04,-1.05
,-9.246,-1.139,-3.69,-9.282,-1.333,-2.517,2.8,-5.67,-1.12
4180.0,-9.462,-0.95,-2.379,-9.172,-1.309,-2.589,8.05,-3.57,-0.21
,-9.452,-0.739,-2.29,-9.141,-1.644,-2.647,7.28,-3.08,-0.21
,-9.615,-0.718,-2.58,-9.098,-1.728,-2.532,4.41,-3.22,-0.63
,-9.34,-0.931,-2.749,-9.182,-1.45,-2.197,1.89,-3.08,-0.84
4256.0,-9.512,-1.046,-2.218,-9.433,-0.993,-2.907,12.53,3.5,1.47
,-9.584,-0.704,-2.517,-9.418,-1.144,-3.001,11.06,3.57,1.19
,-9.392,-0.584,-2.783,-9.404,-1.024,-3.269,6.86,3.5,0.77
,-9.237,-0.881,-2.685,-9.33,-1.017,-3.467,3.57,4.41,0.49
4332.0,-9.244,-1.019,-3.515,-9.141,-1.077,-3.518,4.41,4.76,0.07
,-9.222,-1.048,-3.671,-9.222,-1.352,-3.238,3.85,4.41,-0.07
,-9.165,-0.974,-3.69,-9.174,-1.476,-2.934,3.5,3.85,-0.21
,-9.213,-0.881,-3.649,-9.34,-1.455,-2.972,1.61,3.29,-0.77
4408.0,-9.33,-1.302,-2.781,-9.538,-0.866,-3.034,3.22,3.92,0.21
,-9.359,-1.314,-2.601,-9.524,-0.9,-3.431,3.71,4.83,0.42
,-9.38,-1.175,-2.69,-9.162,-1.062,-3.721,3.78,5.18,0.49
,-9.423,-0.976,-2.742,-9.072,-1.328,-3.886,2.52,5.39,0.42
4484.0,-9.064,-1.421,-4.075,-9.349,-1.259,-3.13,-2.45,3.85,-0.14
,-9.076,-1.445,-3.946,-9.533,-1.113,-3.025,0.42,3.64,0.42
,-9.117,-1.421,-3.587,-9.572,-1.07,-3.034,3.15,3.78,0.98
,-9.251,-1.381,-3.247,-9.38,-1.115,-3.02,5.32,3.99,1.47
4560.0,-9.414,-1.11,-3.214,-9.306,-0.931,-3.223,4.06,4.06,1.4
,-9.237,-1.101,-3.273,-9.263,-0.912,-3.419,3.99,4.48,1.4
,-9.124,-1.151,-3.214,-9.261,-0.926,-3.575,3.29,4.62,1.12
,-9.191,-1.098,-3.123,-9.239,-1.079,-3.719,3.29,4.97,1.19
4636.0,-9.172,-1.165,-3.838,-9.177,-1.22,-3.412,-0.56,3.43,0.14
,-9.05,-1.283,-3.819,-9.249,-0.974,-3.455,0.56,3.29,0.28
,-9.115,-1.318,-3.666,-9.263,-0.998,-3.453,1.61,3.29,0.49
,-9.167,-1.34,-3.551,-9.222,-1.036,-3.379,3.08,3.22,0.84
4712.0,-9.418,-1.043,-3.611,-9.21,-1.153,-3.628,0.98,2.31,0.49
,-9.261,-1.039,-3.695,-9.174,-1.089,-3.561,0.84,2.03,0.49
,-9.189,-1.137,-3.673,-9.201,-1.096,-3.52,0.56,1.75,0.56
,-9.17,-1.165,-3.611,-9.194,-1.254,-3.46,1.54,1.61,0.7
4788.0,-9.131,-1.263,-3.448,-9.229,-1.108,-3.333,1.47,0.63,0.77
,-9.184,-1.251,-3.463,-9.239,-1.067,-3.348,2.8,0.7,1.05
,-9.208,-1.134,-3.436,-9.241,-1.05,-3.309,3.92,0.7,1.26
,-9.201,-1.137,-3.319,-9.27,-1.17,-3.235,4.06,0.84,1.33
4864.0,-9.256,-1.127,-3.156,-9.33,-1.01,-3.324,2.03,1.05,0.7
,-9.292,-1.122,-3.175,-9.299,-0.94,-3.51,1.89,1.26,0.77
,-9.28,-1.139,-3.132,-9.222,-1.096,-3.604,2.52,1.54,0.98
,-9.33,-1.01,-3.264,-9.194,-1.153,-3.609,2.87,1.75,1.05
4940.0,-9.191,-1.278,-3.573,-9.294,-1.017,-3.352,2.03,1.26,0.77
,-9.225,-1.297,-3.553,-9.27,-0.893,-3.321,3.01,1.4,0.91
,-9.237,-1.192,-3.484,-9.273,-0.948,-3.106,3.71,1.12,0.98
,-9.289,-1.144,-3.434,-9.306,-0.979,-3.132,3.57,0.98,1.05
5016.0,-9.265,-1.065,-3.19,-9.237,-1.194,-3.19,1.89,1.33,0.49
,-9.284,-1.058,-3.161,-9.155,-1.414,-3.106,2.03,1.4,0.49
,-9.316,-1.077,-3.247,-9.148,-1.515,-3.19,1.96,1.61,0.49
,-9.313,-1.079,-3.23,-9.194,-1.402,-3.128,1.54,1.68,0.42
5092.0,-9.189,-1.29,-3.137,-9.287,-1.024,-2.721,3.71,3.01,1.33
,-9.284,-1.18,-3.118,-9.414,-0.916,-2.891,3.43,3.22,1.4
,-9.196,-1.082,-3.041,-9.457,-0.823,-3.309,2.45,3.71,1.4
,-9.153,-1.058,-2.848,-9.311,-0.945,-3.807,1.47,4.41,1.47
5168.0,-9.016,-1.235,-3.953,-9.371,-1.256,-3.082,-5.11,4.27,1.05
,-8.909,-1.522,-3.987,-9.617,-0.799,-3.314,-3.92,4.55,1.4
,-8.882,-1.598,-3.79,-9.459,-0.605,-3.635,-1.05,4.83,1.89
,-9.031,-1.484,-3.518,-9.122,-0.598,-3.817,1.82,5.39,2.59
5244.0,-8.882,-1.096,-3.848,-9.497,-0.672,-2.51,-10.29,1.61,1.75
,-8.938,-1.699,-3.597,-9.622,-0.069,-2.534,-9.17,2.52,1.96
,-9.083,-1.699,-3.309,-9.134,-0.038,-2.431,-4.27,3.15,2.31
,-9.466,-1.204,-3.08,-9.074,-0.369,-2.501,-0.84,3.01,1.96
5320.0,-9.203,-0.84,-2.632,-9.026,-1.141,-2.357,-20.16,2.45,-0.35
,-9.177,-1.003,-2.536,-9.287,-1.122,-2.326,-18.62,5.18,-0.56
,-9.284,-0.955,-2.814,-9.368,-1.058,-1.917,-17.15,6.93,-0.7
,-9.095,-1.141,-2.84,-9.667,-0.713,-2.91,-19.46,7.98,-0.77
5396.0,-8.973,-0.818,-3.388,-9.653,-0.924,-3.652,-20.51,8.82,0.56
,-8.914,-1.156,-3.46,-8.861,0.017,-3.944,-19.88,11.48,1.89
,-9.024,-1.582,-3.216,-8.693,0.28,-4.372,-16.17,14.0,2.66
,-9.421,-1.429,-2.709,-8.536,-0.706,-4.111,-5.39,16.45,3.5
5472.0,-8.603,-1.622,-3.329,-9.074,0.402,-4.654,-13.3,14.63,1.96
,-9.416,-1.579,-2.618,-9.005,-0.189,-5.331,-3.78,18.27,2.8
,-9.397,-0.912,-1.828,-9.048,-1.07,-5.939,5.95,19.67,2.45
,-9.629,0.27,-3.084,-8.43,-1.345,-4.934,9.59,16.87,1.12
5548.0,-8.203,-0.756,-4.415,-9.356,-1.795,-3.539,6.65,22.19,-2.45
,-8.373,0.067,-4.243,-8.756,-2.24,-2.481,10.22,19.95,-4.9
,-8.933,0.189,-4.511,-9.371,-1.378,-2.333,4.13,17.22,-5.04
,-9.306,-0.656,-4.101,-8.976,-0.713,-3.329,-5.67,17.43,-3.36
5624.0,-9.179,-0.426,-3.81,-8.27,-0.555,-5.162,5.6,19.95,-2.66
,-9.036,-0.713,-3.996,-8.679,0.026,-5.386,-0.7,20.16,-0.91
,-8.413,-1.335,-4.331,-8.705,-0.019,-4.965,-2.17,21.91,0.28
,-8.205,-1.307,-4.554,-8.837,-0.445,-4.35,4.9,23.73,-0.07
5700.0,-8.899,-1.129,-4.341,-8.246,-3.35,-4.975,5.88,22.61,-4.13
,-9.158,-1.541,-4.231,-8.155,-2.848,-4.436,6.58,20.93,-2.8
,-8.909,-2.036,-4.886,-8.071,-1.464,-4.748,5.46,17.99,-0.49
,-8.571,-2.845,-5.071,-8.203,0.022,-5.317,2.66,16.1,1.89
5776.0,-8.727,0.988,-5.544,-8.906,-0.883,-4.614,11.2,16.52,1.19
,-8.966,0.658,-5.379,-8.847,-1.089,-4.582,-1.89,16.52,1.12
,-9.15,-0.124,-4.676,-8.887,-1.488,-4.487,-10.01,18.76,0.28
,-9.268,-0.651,-4.314,-8.88,-1.866,-4.348,-8.75,18.9,-0.84
5852.0,-8.792,-1.831,-4.207,-8.89,0.136,-5.621,12.95,17.36,2.38
,-8.15,-1.299,-4.783,-9.019,0.553,-6.056,15.4,16.59,2.45
,-7.978,-0.905,-4.975,-8.423,0.426,-6.205,14.7,16.73,1.4
,-8.485,-0.455,-5.176,-8.265,-0.091,-5.903,11.76,15.4,-0.42
5928.0,-8.354,-0.938,-5.592,-8.555,-1.582,-4.728,-9.59,10.15,-4.2
,-8.698,-1.62,-5.25,-8.356,-1.835,-5.13,-7.49,9.66,-4.83
,-8.839,-1.84,-4.783,-8.332,-2.154,-5.647,-1.61,9.8,-5.39
,-8.732,-1.606,-4.652,-8.299,-1.632,-6.145,2.94,9.52,-5.25
6004.0,-8.196,-1.053,-6.408,-8.813,-1.309,-5.214,6.09,3.22,0.07
,-8.15,-0.849,-6.245,-8.476,-1.752,-5.018,5.32,1.96,-0.77
,-8.129,-0.909,-5.894,-8.569,-1.926,-4.482,2.45,1.82,-1.82
,-8.617,-0.955,-5.523,-8.981,-1.821,-4.192,-0.28,1.33,-1.89
6080.0,-8.33,-1.596,-4.731,-8.739,-0.014,-5.403,7.91,0.77,0.91
,-8.287,-1.268,-4.905,-9.143,-0.165,-5.044,9.87,0.42,2.03
,-8.311,-0.292,-5.497,-9.22,-0.275,-5.176,11.97,-1.47,1.54
,-8.253,0.12,-5.743,-8.579,-0.771,-5.343,10.36,-2.1,-0.07
6156.0,-7.999,-1.347,-5.286,-8.799,-3.254,-4.815,-0.21,-1.12,-3.85
,-7.739,-2.407,-4.764,-8.701,-2.551,-5.013,-0.35,-0.42,-1.12
,-7.93,-3.123,-4.673,-8.457,-1.869,-5.157,1.47,0.28,2.38
,-8.306,-3.491,-4.882,-8.66,-1.189,-5.087,3.99,0.91,5.04
6232.0,-8.772,-0.775,-5.398,-8.002,-0.352,-5.698,7.84,-1.12,8.75
,-8.67,-0.407,-5.877,-7.877,-0.536,-5.654,6.65,-1.19,7.91
,-8.686,-0.251,-5.908,-8.332,-0.907,-5.468,5.53,-0.63,7.07
,-8.368,-0.27,-5.741,-8.868,-1.122,-5.039,5.53,-0.7,6.23
6308.0,-9.04,-1.149,-4.951,-8.705,-1.041,-5.03,8.19,-1.68,5.6
,-8.904,-0.94,-4.87,-8.641,-1.201,-5.212,9.1,-2.24,5.67
,-8.691,-0.888,-4.999,-8.409,-1.323,-5.358,6.93,-3.08,5.67
,-8.536,-1.053,-5.039,-8.452,-1.548,-5.276,5.18,-3.29,5.39
6384.0,-8.337,-1.84,-5.047,-8.562,-0.933,-4.604,2.31,-2.59,7.0
,-8.299,-1.9,-4.86,-8.66,-0.689,-4.472,3.85,-1.33,7.63
,-8.748,-1.378,-4.647,-8.701,-0.514,-4.666,5.11,-1.47,8.26
,-8.622,-1.015,-4.783,-8.818,-0.127,-4.681,4.06,-2.24,8.4
6460.0,-8.67,0.057,-4.848,-8.756,-0.383,-4.953,3.43,0.0,3.92
,-8.464,0.026,-4.826,-8.945,-0.194,-5.116,2.31,0.35,3.08
,-8.373,-0.263,-4.855,-8.94,-0.206,-5.035,1.61,1.19,2.8
,-8.504,-0.416,-4.865,-8.464,-0.471,-5.027,2.8,1.82,2.38
6536.0,-8.301,-0.708,-5.221,-8.437,-1.208,-4.958,2.52,2.38,-2.59
,-8.698,-1.019,-5.248,-8.105,-0.919,-4.937,2.1,3.5,-3.08
,-8.93,-1.448,-4.877,-8.232,-0.67,-5.011,3.22,4.55,-2.87
,-8.832,-1.433,-4.759,-8.437,-0.426,-5.224,4.9,4.48,-2.52
6612.0,-8.753,-0.625,-5.195,-8.67,-1.338,-5.193,-0.21,5.32,-4.06
,-9.026,-0.945,-5.087,-8.648,-1.819,-4.996,-0.42,5.46,-4.62
,-8.947,-0.94,-5.152,-8.27,-1.95,-4.941,0.7,4.9,-5.11
,-8.818,-1.036,-5.317,-8.105,-1.761,-4.898,1.33,4.76,-5.11
6688.0,-8.385,-1.374,-5.104,-8.674,-0.775,-5.059,4.13,5.95,-1.82
,-8.662,-1.022,-5.087,-8.497,-0.895,-5.142,3.5,5.67,-1.68
,-8.976,-0.885,-4.992,-8.349,-0.852,-5.166,1.12,4.55,-1.4
,-8.705,-0.828,-5.197,-8.366,-0.902,-5.315,-1.4,3.78,-0.98
6764.0,-8.552,-0.845,-5.487,-8.378,-1.969,-5.343,-8.54,0.28,-0.28
,-8.756,-0.96,-5.528,-8.423,-2.041,-5.365,-8.33,-0.14,-0.07
,-8.751,-1.208,-5.573,-8.488,-2.359,-5.145,-7.77,-0.42,0.14
,-8.547,-1.567,-5.401,-8.619,-2.237,-5.006,-7.07,-0.42,0.56
6840.0,-8.461,-2.125,-5.078,-8.629,-0.469,-5.276,1.54,-0.14,7.21
,-8.435,-1.78,-5.181,-8.595,-0.191,-5.487,4.13,-0.28,8.12
,-8.356,-1.259,-5.267,-8.638,-0.187,-5.497,5.46,-0.63,8.33
,-8.473,-0.876,-5.166,-8.715,-0.28,-5.647,5.46,-0.91,8.12
6916.0,-8.82,-0.57,-5.394,-8.09,-1.017,-5.181,-2.17,-3.15,4.69
,-8.815,-0.794,-5.269,-8.275,-1.206,-5.128,-0.35,-3.85,3.01
,-8.871,-0.96,-4.769,-8.701,-1.405,-4.939,0.56,-5.53,2.31
,-8.502,-0.866,-4.91,-8.94,-1.089,-5.073,1.89,-8.47,3.22
6992.0,-8.772,-0.742,-5.214,-8.478,-0.895,-4.724,4.41,-10.78,2.87
,-8.626,-0.629,-5.099,-8.906,-0.895,-4.838,2.31,-10.64,2.59
,-8.524,-0.713,-4.726,-8.789,-1.031,-4.934,-0.84,-11.13,2.52
,-8.334,-0.905,-4.743,-8.509,-1.278,-4.736,-2.24,-11.41,2.73
7068.0,-8.504,-1.476,-4.523,-8.691,-0.644,-4.578,5.74,-8.47,2.59
,-8.772,-1.419,-4.453,-8.954,-0.718,-4.544,9.24,-8.89,2.8
,-8.65,-1.01,-4.602,-8.825,-0.79,-4.989,11.76,-10.01,3.36
,-8.442,-0.763,-4.752,-8.904,-0.957,-4.891,11.48,-9.8,3.78
7144.0,-8.732,-1.24,-4.64,-8.186,-0.828,-4.956,4.06,-10.43,5.04
,-8.679,-0.957,-4.618,-8.605,-1.022,-4.637,5.88,-10.43,4.97
,-9.052,-0.713,-4.446,-9.002,-0.849,-4.491,6.02,-12.6,5.18
,-8.476,-0.522,-4.893,-9.048,-0.349,-4.415,3.36,-14.77,5.6
7220.0,-9.005,0.096,-4.527,-8.732,-0.541,-4.269,5.53,-13.86,4.48
,-9.002,0.065,-4.618,-9.074,-0.486,-3.982,2.31,-14.49,4.27
,-8.813,-0.086,-4.614,-9.49,-0.249,-3.829,-0.7,-15.68,3.99
,-8.648,-0.376,-4.422,-9.301,-0.086,-4.101,-2.1,-15.12,3.22
7296.0,-8.799,-0.122,-4.369,-9.136,-0.593,-3.558,-1.47,-16.73,0.49
,-8.586,-0.299,-4.338,-9.153,-0.66,-3.85,-5.04,-16.73,-0.84
,-8.528,-0.526,-4.14,-8.832,-1.07,-4.149,-6.09,-15.54,-2.38
,-8.82,-0.579,-3.888,-8.768,-1.237,-4.042,-5.25,-14.35,-3.08
7372.0,-9.021,-1.127,-3.845,-8.799,-2.024,-3.585,-1.68,-10.15,-1.82
,-9.519,-1.082,-3.685,-9.411,-1.792,-3.278,0.14,-12.67,-1.54
,-8.693,-1.072,-4.204,-9.526,-0.914,-3.415,-2.52,-15.19,0.14
,-8.373,-1.594,-4.027,-9.139,-0.302,-3.616,-3.85,-12.95,1.82
7448.0,-9.115,-0.168,-3.673,-9.167,0.369,-4.008,3.08,-8.12,3.71
,-8.744,-0.261,-4.054,-9.0,0.132,-3.79,0.14,-8.19,3.99
,-8.818,-0.443,-3.788,-9.277,-0.134,-3.841,0.77,-6.79,3.78
,-9.502,-0.029,-3.661,-8.981,-0.299,-3.838,1.89,-8.54,2.59
7524.0,-9.045,-0.459,-3.527,-8.847,-0.754,-3.719,-2.1,-6.44,-1.75
,-9.196,-0.699,-3.51,-9.423,-0.842,-3.951,0.14,-3.64,-1.96
,-9.416,-0.96,-3.266,-9.194,-0.617,-4.101,2.38,-2.24,-2.24
,-9.284,-0.845,-3.604,-9.007,-0.447,-4.087,3.29,-4.13,-2.03
7600.0,-9.074,-0.991,-4.145,-9.598,-1.079,-3.41,-3.15,-12.32,-1.89
,-9.091,-1.261,-3.592,-9.107,-1.098,-3.419,-1.05,-11.06,-1.82
,-8.983,-1.211,-3.577,-8.859,-1.05,-3.355,2.59,-10.43,-1.4
,-9.122,-1.019,-3.62,-9.115,-1.173,-3.269,5.81,-9.8,-1.05
7676.0,-9.675,-0.919,-3.329,-8.856,-0.665,-3.664,13.37,-9.8,0.63
,-9.189,-0.311,-3.644,-9.0,-0.806,-2.879,11.83,-12.88,0.98
,-9.311,-0.273,-3.958,-9.234,-1.094,-2.376,7.77,-14.21,0.63
,-9.213,-0.467,-4.013,-9.435,-1.0,-2.099,4.48,-15.26,0.14
7752.0,-9.43,-0.814,-2.182,-9.347,-1.043,-2.465,9.03,-9.52,-0.28
,-9.617,-0.56,-2.405,-9.691,-0.871,-2.556,9.1,-9.45,-0.28
,-8.973,-0.548,-2.699,-9.344,-0.306,-2.694,6.58,-9.45,-0.14
,-8.966,-0.692,-2.474,-9.363,-0.436,-2.793,5.46,-6.86,0.28
7828.0,-9.301,-0.704,-2.659,-9.28,-1.302,-2.407,-1.47,-6.44,-0.91
,-9.33,-0.684,-2.57,-9.354,-1.228,-2.17,-1.05,-5.53,-0.63
,-9.335,-0.826,-2.814,-9.564,-0.744,-2.517,-0.63,-4.48,-0.63
,-9.172,-1.072,-2.656,-9.505,-0.498,-2.857,0.28,-2.73,-0.21
7904.0,-9.375,-0.33,-3.329,-9.538,-1.251,-2.814,7.77,2.24,0.91
,-9.371,-0.541,-3.491,-9.722,-0.871,-2.793,5.39,1.96,0.63
,-8.99,-0.687,-3.173,-9.378,-0.591,-2.86,4.27,1.96,0.56
,-9.186,-0.924,-3.118,-9.392,-0.598,-2.697,4.83,2.38,0.21
7980.0,-9.373,-0.603,-2.821,-9.325,-1.113,-3.283,6.93,2.31,0.35
,-9.306,-0.596,-2.666,-9.395,-1.053,-3.324,5.88,2.87,0.28
,-9.296,-0.847,-2.776,-9.49,-0.986,-3.845,3.92,3.57,0.07
,-9.311,-1.101,-2.984,-9.179,-0.962,-4.046,3.92,4.06,0.21
8056.0,-9.131,-0.919,-3.838,-9.579,-0.397,-2.905,6.79,1.96,1.26
,-9.225,-0.991,-3.52,-9.517,-0.392,-3.089,7.56,2.45,1.33
,-9.347,-0.787,-3.116,-9.28,-0.589,-3.202,8.68,2.66,1.26
,-9.739,-0.617,-2.97,-9.316,-0.782,-3.173,7.21,1.61,0.7
8132.0,-9.148,-0.861,-3.094,-9.428,-1.06,-2.699,-6.44,-2.24,-1.54
,-9.148,-1.012,-2.929,-9.402,-0.928,-2.982,-5.11,-0.98,-1.26
,-9.483,-1.098,-2.766,-9.552,-0.859,-3.049,-3.01,-0.07,-1.12
,-9.481,-1.074,-2.723,-9.44,-0.598,-3.326,-1.19,0.49,-0.7
8208.0,-9.072,-0.471,-3.398,-9.481,-0.902,-2.982,-4.48,-1.05,-0.98
,-9.167,-0.9,-3.259,-9.392,-0.727,-3.075,-6.44,-0.14,-1.12
,-9.328,-1.201,-3.044,-9.383,-0.668,-3.273,-4.69,1.05,-1.05
,-9.344,-1.108,-2.924,-9.363,-0.864,-3.187,-1.4,1.96,-0.7
8284.0,-9.28,-0.964,-3.171,-9.445,-0.938,-3.381,1.75,3.85,-0.28
,-9.294,-1.084,-3.154,-9.347,-0.876,-3.472,3.01,4.34,-0.21
,-9.249,-1.041,-3.166,-9.198,-1.065,-3.336,4.2,4.41,0.21
,-9.567,-1.082,-3.185,-9.237,-1.261,-3.283,4.76,3.92,0.28
8360.0,-9.172,-1.307,-3.068,-9.359,-0.397,-3.104,3.57,3.85,1.4
,-9.296,-1.199,-2.816,-9.222,-0.555,-3.147,6.09,4.83,1.89
,-9.481,-0.96,-2.804,-9.241,-0.78,-3.154,7.77,5.11,1.89
,-9.548,-0.622,-2.857,-9.34,-0.893,-3.171,8.12,4.97,1.96
8436.0,-9.454,-0.761,-3.226,-9.0,-0.866,-3.637,7.14,6.37,1.47
,-9.488,-0.704,-3.486,-9.162,-1.409,-3.558,7.84,6.02,1.4
,-9.739,-0.811,-3.575,-9.241,-1.45,-3.448,6.58,4.55,0.98
,-9.33,-0.562,-3.702,-9.323,-1.05,-3.326,4.13,1.82,0.56
8512.0,-9.306,-0.823,-3.101,-9.287,-0.701,-3.281,7.0,2.94,0.91
,-9.409,-0.656,-2.982,-9.227,-0.94,-3.331,6.86,3.22,0.77
,-9.407,-0.512,-2.982,-9.184,-1.048,-3.36,6.02,3.5,0.63
,-9.387,-0.491,-3.108,-9.253,-1.027,-3.309,4.41,3.43,0.42
8588.0,-9.275,-0.945,-3.221,-9.325,-0.847,-3.522,8.47,5.95,0.91
,-9.435,-0.811,-3.439,-9.196,-0.94,-3.484,8.4,5.6,0.77
,-9.497,-0.706,-3.376,-9.167,-1.046,-3.41,6.65,5.11,0.49
,-9.349,-0.732,-3.537,-9.237,-1.094,-3.3,4.06,4.06,0.21
8664.0,-9.359,-0.991,-3.216,-9.131,-0.632,-3.068,4.48,2.73,0.21
,-9.392,-0.828,-3.29,-9.15,-0.9,-3.003,4.34,2.38,0.21
,-9.459,-0.727,-3.151,-9.263,-1.101,-2.946,2.73,1.82,-0.07
,-9.399,-0.648,-3.228,-9.342,-1.062,-2.994,-0.14,0.42,-0.42
8740.0,-9.304,-1.129,-3.087,-9.124,-0.976,-3.75,0.49,2.66,-0.07
,-9.397,-1.029,-3.326,-9.275,-1.129,-3.656,2.24,3.08,0.21
,-9.33,-0.854,-3.601,-9.478,-0.902,-3.568,2.66,2.94,0.14
,-9.167,-0.847,-3.726,-9.227,-0.541,-3.542,1.89,2.87,0.07
8816.0,-9.222,-0.658,-3.424,-9.237,-0.983,-3.448,-2.94,-0.91,-0.35
,-9.323,-0.84,-3.218,-9.227,-1.113,-3.376,-3.22,-0.77,-0.63
,-9.356,-0.852,-3.41,-9.253,-1.11,-3.455,-2.94,-0.63,-0.91
,-9.27,-0.866,-3.472,-9.318,-1.077,-3.556,-2.87,-0.28,-0.7
8892.0,-9.447,-1.108,-3.649,-9.263,-1.072,-3.135,2.73,0.07,-0.07
,-9.397,-0.995,-3.585,-9.318,-1.065,-2.946,1.82,-1.4,0.0
,-9.117,-0.914,-3.527,-9.584,-1.01,-2.793,0.56,-2.45,0.21
,-9.222,-1.067,-3.326,-9.567,-0.682,-2.936,0.28,-2.24,0.35
8968.0,-9.256,-0.364,-3.058,-9.275,-1.019,-2.967,-2.45,-5.18,-0.14
,-9.127,-0.766,-3.187,-9.471,-0.931,-3.039,-6.02,-5.04,-0.35
,-9.141,-0.981,-3.142,-9.459,-0.763,-3.056,-5.53,-3.71,-0.35
,-9.22,-1.058,-3.118,-9.244,-0.73,-3.125,-3.29,-2.17,-0.28
9044.0,-9.22,-0.955,-3.005,-9.471,-0.919,-2.56,-0.77,0.28,0.42
,-9.325,-1.101,-2.718,-9.519,-0.737,-3.02,0.21,1.12,0.77
,-9.323,-1.058,-2.56,-9.256,-0.641,-3.209,1.82,2.17,0.98
,-9.335,-0.976,-2.539,-9.153,-0.768,-3.216,2.38,3.08,0.98
9120.0,-9.299,-0.967,-2.96,-9.299,-0.948,-3.317,1.19,6.3,0.77
,-9.402,-0.854,-3.132,-9.201,-1.05,-3.297,2.03,5.46,0.56
,-9.296,-0.799,-3.364,-9.299,-0.921,-3.357,1.26,4.55,0.42
,-9.296,-0.818,-3.336,-9.275,-0.907,-3.317,-0.28,4.34,0.42
9196.0,-9.483,-0.763,-3.764,-9.241,-0.933,-3.951,2.59,5.53,0.7
,-9.304,-0.835,-4.042,-9.177,-0.936,-3.857,1.47,4.62,0.49
,-9.122,-0.871,-3.898,-9.418,-0.823,-3.917,0.91,4.27,0.49
,-9.299,-0.876,-3.726,-9.337,-0.775,-3.944,0.42,3.22,0.35
9272.0,-9.143,-0.928,-3.611,-9.619,-0.646,-2.84,-2.17,0.21,0.0
,-9.282,-0.909,-2.946,-9.208,-0.622,-2.737,-0.77,1.26,-0.14
,-9.502,-0.79,-2.8,-9.026,-0.816,-2.448,-1.54,0.77,-0.84
,-9.505,-0.629,-2.455,-9.048,-1.235,-2.082,-3.22,0.91,-1.47
9348.0,-9.359,-1.232,-1.697,-8.739,-1.084,-4.183,-9.94,5.6,-0.91
,-9.785,-0.723,-2.223,-8.811,-1.833,-3.618,-5.46,5.53,-0.7
,-9.543,-0.218,-3.273,-9.146,-1.711,-2.912,-6.3,2.8,-1.26
,-9.052,-0.285,-4.188,-9.677,-1.01,-3.07,-10.92,1.47,-1.33
9424.0,-9.576,-0.258,-3.424,-9.088,-1.969,-2.558,8.05,4.83,0.35
,-9.337,-0.067,-3.642,-9.04,-1.579,-2.922,1.19,3.92,-0.21
,-9.182,-0.869,-3.264,-9.251,-0.857,-3.293,-7.07,4.9,-0.77
,-8.952,-1.711,-2.572,-9.241,-0.543,-3.812,-6.79,8.19,-0.21
9500.0,-8.904,-0.842,-3.798,-9.172,-0.574,-2.67,13.79,12.6,3.36
,-9.201,-1.003,-3.427,-8.878,-0.785,-2.273,15.12,14.07,3.36
,-9.397,-1.012,-3.082,-9.21,-0.572,-1.268,17.85,14.28,2.73
,-9.502,-0.632,-2.891,-9.749,-0.019,-1.785,20.02,14.63,2.24
9576.0,-9.471,0.55,-3.02,-8.454,-1.582,-4.312,9.73,12.74,-1.89
,-9.407,0.792,-4.279,-8.717,-1.685,-4.271,-0.77,9.8,-2.03
,-8.789,-0.117,-4.994,-9.229,-2.058,-4.018,-13.16,10.5,-2.17
,-8.571,-1.285,-4.511,-9.337,-2.484,-3.654,-16.59,13.58,-2.1
9652.0,-9.043,-2.833,-3.273,-9.194,-0.514,-4.14,0.49,17.57,1.96
,-8.763,-2.769,-2.659,-8.772,-0.558,-4.575,6.72,20.3,3.43
,-9.179,-1.747,-2.458,-8.497,-0.84,-4.458,16.03,20.86,4.76
,-9.299,-0.921,-3.297,-8.516,-0.605,-4.36,17.92,16.73,5.18
9728.0,-8.894,-0.306,-3.991,-8.949,-1.615,-3.604,7.91,18.55,3.29
,-9.143,-0.299,-4.058,-8.861,-1.393,-3.455,7.84,16.45,2.94
,-9.34,-0.462,-3.881,-8.825,-0.852,-3.857,4.27,15.19,3.5
,-9.217,-1.053,-3.862,-8.981,-0.285,-4.161,0.84,16.24,4.06
9804.0,-8.89,0.227,-4.477,-9.095,0.419,-4.456,11.13,17.36,2.03
,-8.763,0.51,-4.427,-9.27,-0.182,-4.652,4.34,18.2,1.12
,-9.005,0.672,-4.453,-9.062,-0.931,-4.791,-2.8,18.27,-0.35
,-9.031,0.62,-4.578,-8.952,-1.706,-4.618,-8.75,16.87,-1.89
9880.0,-8.952,-2.268,-4.405,-8.859,-0.823,-4.831,-11.55,12.46,-1.96
,-8.552,-2.371,-4.31,-8.49,-0.361,-4.879,-4.41,12.32,-1.68
,-8.756,-2.178,-4.427,-8.26,-0.318,-4.676,3.5,11.55,-0.77
,-8.847,-1.598,-4.58,-8.399,-0.605,-4.448,7.49,9.66,0.21
9956.0,-8.839,-0.62,-4.573,-8.342,-0.84,-4.769,-8.61,10.57,0.77
,-9.062,-0.524,-4.939,-8.423,-0.723,-4.781,-7.49,9.73,0.98
,-9.28,-0.692,-4.654,-8.882,-0.536,-4.556,-7.28,8.75,0.98
,-8.784,-0.799,-4.57,-8.911,-0.292,-4.434,-6.09,7.91,0.56
10032.0,-8.863,-0.349,-4.293,-8.368,-0.689,-4.484,4.9,8.75,-3.5
,-9.074,-0.725,-4.113,-8.358,-0.38,-4.726,1.61,9.31,-2.87
,-8.904,-0.921,-4.078,-8.595,-0.057,-4.788,-0.7,9.59,-2.24
,-8.701,-0.94,-4.274,-8.935,0.156,-4.879,-1.4,8.61,-1.4
10108.0,-9.146,0.115,-4.944,-8.15,-0.345,-5.437,2.03,9.1,-8.12
,-9.174,-0.089,-5.073,-8.212,-0.696,-5.274,1.47,8.68,-9.59
,-9.263,-0.562,-4.862,-8.691,-1.29,-5.025,1.4,7.63,-10.29
,-8.897,-0.44,-5.176,-8.748,-2.072,-4.85,4.13,4.97,-10.22
10184.0,-8.612,-2.513,-4.855,-8.607,-1.687,-5.092,8.12,5.95,-8.12
,-8.581,-2.45,-4.767,-8.141,-1.51,-5.298,11.55,6.44,-7.07
,-8.684,-2.211,-4.96,-8.088,-2.443,-5.48,14.0,5.6,-6.37
,-8.416,-1.845,-5.224,-8.543,-2.8,-5.293,15.12,4.76,-6.02
10260.0,-8.973,-2.714,-4.989,-8.973,-0.782,-4.944,7.91,2.94,4.62
,-8.842,-2.572,-4.786,-8.78,-0.397,-5.209,12.04,2.52,6.02
,-8.945,-2.151,-4.736,-8.591,-0.285,-5.544,14.63,1.47,7.28
,-8.997,-1.433,-4.872,-8.536,-0.414,-5.552,16.66,1.05,7.63
10336.0,-8.212,-0.948,-5.547,-9.488,-1.424,-4.898,10.22,-1.96,7.07
,-8.215,-1.742,-4.932,-9.232,-0.462,-4.994,11.13,-1.12,8.54
,-8.464,-1.998,-4.937,-8.459,-0.261,-5.2,14.84,-1.12,9.59
,-8.875,-1.989,-5.164,-8.569,-0.457,-5.068,19.67,-1.68,10.01
10412.0,-8.796,-0.845,-4.905,-8.308,-0.763,-5.154,8.68,-4.48,7.77
,-8.945,-0.995,-4.609,-8.272,-0.713,-5.03,7.98,-4.13,7.21
,-8.703,-0.921,-4.609,-8.626,-0.849,-4.87,8.12,-4.62,6.79
,-8.402,-0.936,-4.901,-9.241,-0.56,-4.657,7.28,-4.76,6.51
10488.0,-9.342,-0.357,-4.401,-8.859,-0.529,-4.468,6.37,-3.29,5.95
,-9.014,-0.424,-4.326,-8.792,-0.345,-4.527,4.97,-4.06,5.39
,-8.555,-0.412,-4.448,-8.662,-1.137,-4.609,4.06,-4.41,4.55
,-8.629,-0.646,-4.573,-8.722,-1.543,-4.468,3.15,-3.57,4.13
10564.0,-8.746,-1.283,-4.408,-8.787,-1.522,-4.281,2.87,-1.89,4.2
,-8.643,-1.182,-4.515,-8.971,-1.285,-4.743,4.2,-1.19,2.59
,-8.921,-1.101,-4.465,-9.1,-1.132,-4.566,4.48,-0.7,1.68
,-8.921,-1.311,-4.372,-8.751,-0.998,-4.346,4.41,-0.56,1.68
10640.0,-8.325,-1.031,-4.527,-8.997,-0.536,-4.575,6.79,1.68,0.63
,-8.447,-0.704,-4.57,-8.796,-0.706,-4.654,6.02,2.59,0.63
,-8.851,-0.347,-4.692,-8.681,-0.806,-4.709,4.41,3.22,0.28
,-9.091,-0.419,-4.618,-8.603,-1.12,-4.451,1.96,3.15,0.0
10716.0,-8.748,-1.201,-3.991,-8.804,-0.943,-4.508,1.05,3.99,-0.56
,-8.83,-1.072,-4.233,-8.961,-1.173,-4.393,2.31,4.2,-0.42
,-8.827,-0.804,-4.532,-8.902,-1.369,-4.499,2.52,4.83,-0.56
,-8.815,-0.792,-4.484,-8.818,-1.211,-4.475,1.47,5.18,-0.98
10792.0,-8.959,-1.079,-4.381,-8.978,-0.507,-4.446,1.54,6.72,-0.98
,-8.866,-0.804,-4.678,-8.579,-0.498,-4.748,1.4,6.37,-1.19
,-8.796,-0.725,-4.57,-8.488,-0.481,-4.97,0.21,6.79,-1.12
,-9.048,-0.62,-4.31,-8.732,-0.426,-5.008,-1.61,6.93,-0.98
10868.0,-8.861,-0.505,-5.039,-8.655,-1.706,-4.771,-8.4,4.97,-1.61
,-8.935,-0.797,-4.977,-8.629,-1.694,-5.001,-9.8,4.41,-2.24
,-8.916,-1.168,-4.944,-8.756,-1.809,-5.331,-10.64,4.27,-2.24
,-8.789,-1.328,-4.846,-8.873,-2.111,-5.209,-10.15,3.99,-1.82
10944.0,-8.813,-2.333,-4.905,-8.949,-1.637,-4.611,-3.99,1.61,3.92
,-8.531,-2.264,-4.743,-9.129,-1.347,-5.018,-0.98,1.47,4.97
,-8.253,-2.13,-4.549,-8.768,-0.981,-5.178,1.4,2.17,6.02
,-8.287,-1.945,-4.762,-8.689,-0.857,-4.977,2.45,3.22,7.56
11020.0,-8.679,-0.749,-5.011,-9.153,-0.524,-4.676,0.42,-0.07,10.08
,-8.605,-0.581,-4.968,-9.251,-0.469,-4.654,0.77,0.0,9.03
,-8.741,-0.414,-4.982,-8.78,-0.218,-4.848,2.87,0.0,7.98
,-8.99,-0.412,-4.994,-8.323,-0.311,-5.011,5.25,0.07,6.79
11096.0,-8.425,-0.522,-5.001,-8.722,-0.857,-4.867,4.06,-4.13,2.94
,-8.634,-0.572,-4.953,-8.464,-0.957,-4.965,4.06,-4.41,2.24
,-8.806,-0.768,-4.937,-8.545,-0.888,-5.078,3.92,-5.11,2.17
,-8.916,-0.861,-4.681,-8.811,-0.888,-4.633,3.5,-5.32,2.66
11172.0,-8.949,-0.759,-4.391,-8.648,-0.5,-4.731,7.7,-4.41,1.75
,-8.945,-0.522,-4.561,-8.727,-0.349,-4.458,8.47,-4.34,2.1
,-8.875,-0.541,-4.59,-8.871,-0.177,-4.453,8.05,-3.5,2.03
,-9.177,-0.57,-4.506,-8.416,-0.299,-4.688,7.0,-4.97,1.54
11248.0,-8.543,-0.366,-4.499,-8.906,-0.024,-5.238,0.28,-8.89,0.42
,-8.945,-0.261,-4.434,-8.634,-0.586,-4.92,0.07,-8.33,-0.49
,-9.273,-0.141,-4.295,-8.708,-0.931,-4.561,-0.98,-9.1,-1.54
,-9.038,-0.005,-4.879,-8.677,-1.058,-4.341,-3.01,-9.24,-2.17
11324.0,-9.05,-1.046,-4.142,-8.957,-1.122,-4.58,4.83,-7.07,-3.43
,-8.818,-0.897,-4.642,-8.792,-0.833,-4.659,4.55,-9.66,-2.94
,-8.926,-0.969,-4.604,-8.72,-0.749,-4.499,3.08,-10.29,-2.66
,-9.026,-1.194,-4.563,-8.684,-0.859,-4.676,1.4,-11.13,-2.66
11400.0,-9.007,-0.928,-4.527,-9.184,-0.833,-4.405,-2.45,-11.48,-2.66
,-8.985,-0.993,-4.566,-9.292,-0.821,-4.238,-0.63,-10.85,-2.52
,-8.885,-1.034,-4.48,-8.748,-0.835,-4.458,1.68,-9.66,-2.52
,-9.105,-0.902,-4.3,-8.435,-1.089,-4.405,4.9,-9.1,-2.52
11476.0,-8.667,-1.393,-4.262,-8.863,-1.316,-4.034,-0.84,-15.12,-1.33
,-9.148,-1.34,-4.159,-8.748,-1.543,-3.953,1.96,-15.05,-1.47
,-9.057,-0.998,-4.384,-8.619,-1.603,-3.759,3.92,-14.35,-0.84
,-8.983,-0.95,-4.121,-8.904,-1.417,-3.285,4.55,-11.83,0.0
11552.0,-9.462,-1.113,-3.238,-8.715,-1.29,-3.269,15.61,-8.75,3.22
,-9.002,-0.938,-3.704,-8.763,-0.876,-3.285,14.21,-11.97,3.78
,-8.653,-0.952,-3.769,-9.095,-0.531,-3.101,11.83,-10.92,4.41
,-8.997,-1.304,-3.503,-9.203,-0.369,-2.977,10.71,-9.94,4.76
11628.0,-9.253,-0.302,-3.247,-9.11,-0.055,-4.171,13.58,-6.86,4.62
,-9.232,-0.4,-3.343,-9.349,-0.354,-4.025,13.02,-5.67,4.2
,-9.313,-0.337,-3.455,-9.5,-0.464,-3.498,13.79,-4.06,3.22
,-9.182,-0.139,-3.793,-8.744,-0.29,-3.982,14.35,-3.64,2.31
11704.0,-8.543,-0.849,-3.709,-9.103,-1.558,-2.974,-2.17,-12.95,-1.96
,-9.122,-1.424,-3.297,-9.191,-1.134,-3.254,-4.27,-12.53,-2.1
,-9.34,-1.661,-3.003,-9.277,-1.062,-3.747,-3.01,-11.9,-1.4
,-9.361,-1.697,-3.063,-9.148,-1.117,-3.786,0.0,-11.13,-0.63
11780.0,-8.995,-1.132,-4.049,-9.251,-0.371,-3.374,1.68,-11.76,1.26
,-9.088,-1.117,-3.687,-9.284,-0.854,-3.352,4.41,-10.5,1.4
,-9.32,-0.771,-3.776,-9.332,-1.07,-2.824,8.26,-10.78,0.84
,-9.249,-0.488,-3.702,-9.368,-0.983,-2.938,8.26,-11.34,0.28
11856.0,-9.229,-0.969,-2.635,-9.344,-0.395,-3.044,10.85,-3.71,0.77
,-9.328,-0.995,-2.558,-9.282,-0.287,-3.262,12.18,-2.66,1.12
,-9.287,-0.909,-2.577,-9.129,-0.457,-3.156,14.07,-2.59,1.47
,-9.306,-0.706,-2.979,-9.081,-0.605,-3.041,14.63,-3.64,1.19
11932.0,-9.172,-0.972,-2.783,-9.203,-0.945,-2.855,2.24,-6.58,-1.54
,-9.457,-1.117,-2.446,-9.28,-1.149,-2.797,2.52,-6.16,-1.82
,-9.454,-0.833,-2.556,-9.378,-1.357,-3.053,3.29,-6.58,-2.17
,-9.469,-0.68,-2.845,-9.385,-1.297,-3.412,1.61,-7.14,-2.52
12008.0,-9.347,-1.18,-3.695,-9.519,-1.316,-3.041,1.47,-6.09,-1.26
,-9.227,-1.125,-3.764,-9.653,-1.003,-3.238,1.54,-6.58,-0.98
,-9.091,-1.304,-3.853,-9.428,-0.617,-3.058,1.75,-6.93,-0.77
,-9.119,-1.589,-3.324,-9.402,-0.644,-2.972,4.9,-5.74,0.07
12084.0,-9.39,-1.036,-3.151,-9.282,-1.015,-2.161,2.87,-8.26,-0.49
,-9.332,-1.094,-3.089,-9.287,-0.938,-1.689,4.76,-7.77,-0.28
,-9.332,-1.125,-3.025,-9.476,-1.036,-1.206,5.81,-7.49,-0.21
,-9.277,-1.079,-2.623,-9.701,-0.991,-1.345,6.86,-6.93,0.07
12160.0,-9.66,-0.907,-1.632,-9.359,-1.079,-2.759,6.93,0.07,0.14
,-9.454,-0.955,-1.84,-9.241,-0.928,-2.733,5.88,1.68,0.14
,-9.347,-1.084,-2.225,-9.442,-0.974,-2.941,5.32,2.94,0.28
,-9.328,-1.12,-2.541,-9.356,-1.151,-2.881,6.37,3.78,0.35
12236.0,-9.497,-1.108,-3.015,-9.11,-1.256,-3.558,7.35,6.51,1.05
,-9.524,-1.216,-3.594,-9.244,-1.362,-3.345,6.72,5.32,0.84
,-9.256,-1.153,-3.824,-9.316,-1.261,-2.991,8.26,4.69,1.05
,-9.201,-1.089,-3.838,-9.454,-1.094,-2.737,8.54,4.2,1.05
12312.0,-9.569,-1.01,-2.68,-9.418,-1.05,-3.037,11.13,4.06,1.89
,-9.466,-1.005,-2.615,-9.311,-1.07,-3.02,9.38,4.13,1.68
,-9.512,-0.866,-2.656,-9.287,-1.086,-2.852,8.47,4.27,1.61
,-9.426,-0.998,-2.802,-9.354,-1.101,-2.699,6.93,3.92,1.19
12388.0,-9.459,-1.022,-2.651,-9.203,-1.058,-3.039,6.23,5.39,1.26
,-9.548,-0.849,-2.644,-9.261,-1.182,-3.221,6.3,5.39,1.05
,-9.588,-0.771,-2.833,-9.299,-1.29,-3.302,4.69,4.9,0.63
,-9.395,-0.859,-2.982,-9.32,-1.273,-3.233,2.59,4.55,0.28
12464.0,-9.38,-1.17,-3.056,-9.404,-1.074,-3.233,5.04,5.32,0.7
,-9.493,-1.096,-3.269,-9.366,-1.067,-3.233,5.25,4.83,0.63
,-9.414,-0.933,-3.336,-9.325,-1.077,-3.228,4.48,4.27,0.49
,-9.399,-0.976,-3.271,-9.251,-1.022,-3.147,3.08,4.13,0.35
12540.0,-9.361,-0.986,-3.108,-9.294,-0.993,-3.101,2.1,3.64,-0.28
,-9.387,-0.931,-2.905,-9.237,-1.307,-3.096,1.96,3.92,-0.35
,-9.521,-0.73,-3.029,-9.196,-1.474,-3.137,0.56,3.5,-0.91
,-9.378,-0.794,-3.094,-9.342,-1.445,-3.242,-1.68,3.36,-1.26
12616.0,-9.428,-1.326,-3.369,-9.332,-0.967,-3.491,3.78,4.41,-0.35
,-9.294,-1.165,-3.314,-9.399,-1.079,-3.625,4.76,4.34,0.07
,-9.27,-1.094,-3.293,-9.308,-1.271,-3.738,4.9,4.13,0.14
,-9.38,-1.048,-3.436,-9.129,-1.335,-3.606,4.97,3.71,-0.07
12692.0,-9.227,-1.275,-3.489,-9.323,-0.983,-3.226,6.09,2.1,0.21
,-9.239,-1.318,-3.309,-9.318,-0.988,-3.187,7.0,2.03,0.42
,-9.354,-1.156,-3.264,-9.253,-1.091,-3.053,7.56,1.68,0.42
,-9.323,-1.058,-3.242,-9.349,-1.139,-2.958,6.86,1.33,0.28
12768.0,-9.392,-1.11,-2.991,-9.244,-1.101,-3.345,3.15,1.61,-0.42
,-9.383,-1.137,-2.989,-9.268,-1.113,-3.35,3.43,1.89,-0.21
,-9.399,-1.086,-3.063,-9.313,-1.151,-3.391,3.08,1.75,-0.28
,-9.328,-1.046,-3.3,-9.359,-1.141,-3.498,2.38,1.68,-0.35
12844.0,-9.328,-1.192,-3.463,-9.289,-1.273,-3.116,1.61,0.84,-0.35
,-9.16,-1.407,-3.374,-9.366,-1.165,-3.123,1.82,0.77,-0.07
,-9.222,-1.424,-3.271,-9.363,-1.182,-3.144,3.22,0.56,0.0
,-9.256,-1.35,-3.209,-9.292,-1.117,-3.116,4.55,0.49,0.07
12920.0,-9.33,-1.204,-3.123,-9.332,-1.165,-3.216,3.5,0.84,0.42
,-9.299,-1.278,-3.223,-9.359,-1.043,-3.216,3.71,0.84,0.56
,-9.232,-1.22,-3.228,-9.366,-1.043,-3.108,4.48,0.77,0.7
,-9.246,-1.22,-3.235,-9.366,-1.031,-3.092,4.83,0.84,0.77
12996.0,-9.392,-1.096,-3.276,-9.249,-1.261,-3.072,1.12,0.28,0.14
,-9.284,-1.103,-3.285,-9.306,-1.28,-2.998,0.91,0.14,0.07
,-9.265,-1.196,-3.321,-9.359,-1.187,-2.874,0.91,0.14,0.14
,-9.225,-1.256,-3.259,-9.44,-1.12,-2.934,1.61,0.21,0.21
13072.0,-9.354,-1.101,-2.905,-9.332,-1.261,-3.07,3.01,0.98,0.42
,-9.354,-1.144,-2.998,-9.301,-1.196,-3.032,1.89,1.33,0.35
,-9.32,-1.216,-2.974,-9.476,-1.117,-3.041,1.54,1.61,0.42
,-9.325,-1.271,-2.96,-9.481,-1.015,-3.36,1.89,2.1,0.35
13148.0,-9.328,-1.055,-3.53,-9.241,-1.452,-3.436,2.31,2.38,0.56
,-9.253,-1.127,-3.685,-9.284,-1.378,-3.192,1.4,2.1,0.56
,-9.203,-1.285,-3.704,-9.344,-1.228,-3.082,1.33,2.03,0.77
,-9.189,-1.414,-3.592,-9.416,-1.089,-3.123,2.17,2.1,0.98
13224.0,-9.301,-1.096,-2.922,-9.318,-1.086,-2.974,0.42,0.98,0.7
,-9.318,-1.137,-2.874,-9.332,-1.019,-3.154,-1.12,1.05,0.56
,-9.27,-1.235,-2.895,-9.361,-1.074,-3.391,-2.1,1.26,0.49
,-9.304,-1.23,-2.936,-9.22,-1.249,-3.324,-1.68,1.4,0.49
13300.0,-9.182,-1.357,-3.281,-9.466,-1.065,-3.037,-2.8,0.7,0.42
,-9.194,-1.359,-3.111,-9.354,-1.074,-2.974,-1.19,0.91,0.49
,-9.342,-1.201,-2.984,-9.287,-1.084,-3.017,-0.28,0.98,0.42
,-9.462,-1.153,-3.041,-9.261,-1.24,-3.137,-1.12,0.56,0.28
13376.0,-9.237,-1.328,-3.144,-9.349,-1.103,-3.077,-6.65,-0.07,-0.14
,-9.311,-1.302,-3.173,-9.184,-1.115,-2.898,-5.53,0.07,-0.14
,-9.351,-1.29,-3.166,-9.263,-1.201,-2.668,-5.18,0.14,0.07
,-9.428,-1.199,-3.087,-9.304,-1.24,-2.601,-4.69,0.28,0.35
13452.0,-9.335,-1.247,-2.252,-9.533,-0.912,-2.536,-1.68,3.71,1.19
,-9.481,-1.122,-2.192,-9.459,-0.931,-2.764,-1.54,4.27,1.4
,-9.471,-1.067,-2.185,-9.301,-1.06,-3.23,-2.45,4.41,1.26
,-9.392,-0.964,-2.096,-9.052,-1.393,-3.333,-3.22,5.18,1.4
13528.0,-9.043,-1.436,-3.41,-9.426,-0.476,-3.223,-4.55,6.86,2.03
,-9.112,-1.177,-3.228,-9.356,-0.534,-3.3,-0.56,7.7,2.31
,-9.335,-0.926,-3.242,-9.304,-0.658,-2.812,1.61,7.56,2.17
,-9.323,-0.737,-3.235,-9.426,-0.601,-2.759,1.19,6.86,2.1
13604.0,-9.318,-0.845,-3.254,-8.952,-1.709,-2.419,-14.28,5.46,-1.05
,-9.222,-1.01,-3.137,-9.459,-1.333,-2.893,-14.84,6.02,-1.12
,-9.21,-1.156,-3.149,-9.407,-0.768,-2.922,-14.98,6.37,-1.05
,-9.016,-1.515,-3.125,-9.474,-0.27,-3.616,-15.47,7.0,-0.84
13680.0,-9.17,-0.603,-3.912,-9.318,-1.922,-3.223,-14.0,5.46,-0.42
,-9.005,-1.139,-3.948,-9.174,-1.474,-3.544,-17.92,6.65,0.35
,-8.921,-1.79,-3.948,-9.217,-0.83,-3.463,-17.29,8.61,1.05
,-8.921,-2.216,-3.367,-9.395,-0.555,-3.829,-11.34,11.62,2.03
13756.0,-9.139,-0.768,-3.731,-8.954,-0.44,-3.599,1.05,10.08,3.15
,-9.177,-1.115,-3.36,-8.911,-0.376,-3.912,0.21,12.18,3.78
,-9.198,-1.314,-2.532,-9.026,-0.94,-3.766,4.06,14.77,3.78
,-9.404,-0.926,-2.802,-8.942,-1.388,-3.36,8.61,13.37,2.94
13832.0,-9.282,-0.948,-3.156,-8.763,-1.515,-3.534,9.31,14.21,3.15
,-9.344,-0.34,-3.798,-9.196,-1.869,-3.187,12.25,11.48,1.89
,-9.249,-0.041,-4.011,-9.387,-1.512,-3.419,7.63,10.36,1.19
,-8.897,-0.584,-3.853,-9.021,-0.771,-3.57,0.07,11.83,0.91
13908.0,-8.983,-0.156,-4.166,-8.614,-0.857,-3.551,11.41,13.23,0.49
,-9.009,0.017,-4.472,-8.93,-0.931,-3.374,6.09,10.78,-0.56
,-9.139,-0.057,-4.47,-9.177,-1.297,-3.561,1.75,11.13,-1.12
,-8.902,-0.522,-4.743,-9.703,-1.577,-3.62,-2.31,11.55,-1.61
13984.0,-9.462,-1.601,-3.951,-8.988,-1.512,-3.917,-3.85,11.06,-0.63
,-8.691,-1.723,-4.08,-9.361,-1.029,-4.025,-3.36,12.04,0.56
,-8.447,-1.871,-3.917,-8.957,-0.759,-4.408,-1.82,14.35,1.61
,-8.598,-1.893,-3.721,-8.701,-0.754,-4.36,1.96,15.54,2.24
14060.0,-8.713,-0.701,-4.073,-9.026,0.117,-4.276,3.22,12.67,2.38
,-8.947,-0.656,-3.977,-9.093,0.235,-4.575,5.04,13.16,1.19
,-9.136,-0.503,-3.836,-9.103,-0.002,-4.463,6.44,13.37,0.42
,-9.201,-0.053,-3.862,-8.94,-0.345,-4.324,7.7,13.02,0.21
14136.0,-8.914,-0.687,-4.305,-9.091,-2.087,-4.178,-5.67,11.27,-4.76
,-8.808,-0.964,-4.216,-9.371,-2.324,-4.233,-5.81,10.57,-4.69
,-8.502,-1.223,-4.283,-9.124,-2.0,-4.381,-5.32,10.29,-4.2
,-8.727,-1.572,-4.042,-8.713,-1.232,-4.53,-5.11,10.85,-3.71
14212.0,-8.095,-0.869,-4.664,-9.06,-0.785,-4.645,2.45,10.15,-1.89
,-8.296,-0.952,-4.582,-8.904,-1.043,-4.405,-0.63,10.36,-1.89
,-8.983,-0.957,-4.398,-8.619,-1.151,-4.417,-2.31,9.73,-1.68
,-9.208,-0.79,-4.468,-8.22,-1.57,-4.424,-4.06,9.1,-1.19
14288.0,-8.516,-2.225,-3.96,-8.945,-0.254,-4.893,-2.66,9.38,0.91
,-8.892,-2.225,-3.798,-8.605,0.328,-5.473,2.8,9.1,2.31
,-8.873,-1.972,-3.965,-8.746,0.426,-5.257,10.08,9.45,2.8
,-8.837,-1.232,-4.456,-8.894,0.089,-5.051,16.66,8.82,2.66
14364.0,-8.866,-0.146,-4.74,-9.026,-1.359,-4.783,2.17,8.68,-3.43
,-8.851,-0.144,-4.642,-8.61,-2.087,-4.865,2.31,7.35,-4.06
,-8.689,-0.215,-4.441,-8.315,-2.86,-4.625,0.84,6.37,-4.06
,-8.576,-0.756,-4.673,-8.16,-3.288,-4.219,-2.17,6.3,-4.27
14440.0,-8.325,-3.405,-3.824,-8.768,-1.397,-4.463,8.61,7.98,2.45
,-8.658,-2.922,-3.91,-8.839,-0.687,-4.74,13.79,7.91,3.43
,-8.512,-2.359,-4.216,-9.04,0.337,-5.102,17.01,8.68,4.76
,-8.562,-1.95,-4.405,-9.206,1.101,-5.121,17.78,10.15,6.02
14516.0,-9.043,1.23,-5.193,-8.665,-1.184,-4.898,17.15,9.94,-1.26
,-8.923,0.909,-5.233,-8.402,-1.701,-4.824,12.25,9.66,-1.68
,-9.225,0.002,-5.051,-8.318,-2.032,-4.972,8.89,8.19,-3.01
,-9.177,-0.646,-4.836,-8.71,-2.158,-4.908,7.63,7.98,-2.94
14592.0,-8.44,-1.809,-5.379,-8.878,-1.469,-5.061,12.81,3.99,2.24
,-8.222,-1.744,-5.461,-9.031,-1.661,-4.838,12.39,3.78,3.36
,-8.452,-1.34,-5.69,-8.885,-1.642,-4.87,11.34,2.66,2.87
,-8.538,-1.539,-5.42,-8.677,-1.443,-4.96,10.36,1.75,2.59
14668.0,-8.595,-1.223,-5.116,-8.751,-1.45,-5.248,10.36,0.28,2.73
,-8.387,-1.163,-5.111,-8.916,-1.529,-5.071,8.61,-0.35,3.78
,-8.299,-1.304,-5.296,-9.069,-1.297,-5.027,7.91,-1.05,4.41
,-8.48,-1.268,-5.284,-8.859,-0.986,-5.15,8.05,-1.12,4.76
14744.0,-8.899,-0.672,-5.087,-8.5,-1.189,-4.681,10.64,-1.47,2.38
,-8.918,-0.486,-5.004,-8.66,-1.424,-4.494,8.26,-1.89,1.89
,-8.648,-0.615,-4.86,-8.559,-1.323,-4.666,5.53,-2.1,1.47
,-8.373,-0.835,-4.602,-8.583,-1.34,-4.831,2.94,-1.75,1.05
14820.0,-8.804,-1.479,-5.03,-8.533,-1.816,-4.379,4.9,-1.47,2.31
,-8.837,-1.359,-4.862,-8.425,-1.618,-4.508,5.53,-1.33,2.66
,-8.686,-1.488,-4.621,-8.48,-1.469,-4.791,4.9,-1.19,2.66
,-8.557,-1.706,-4.415,-8.737,-1.713,-4.463,4.83,-0.98,2.94
14896.0,-8.899,-1.744,-4.334,-8.863,-0.912,-4.695,4.9,1.33,4.83
,-8.674,-1.405,-4.389,-8.952,-0.955,-4.59,6.16,1.68,4.97
,-8.54,-1.125,-4.669,-8.938,-1.029,-4.697,6.44,2.1,4.83
,-8.672,-1.017,-4.781,-8.794,-0.89,-4.556,5.95,2.73,4.41
14972.0,-8.576,-0.656,-4.692,-8.782,-0.809,-4.738,6.72,3.85,2.24
,-8.552,-0.67,-4.563,-8.686,-0.986,-4.649,5.39,4.69,1.75
,-8.708,-0.83,-4.702,-8.65,-0.976,-4.501,3.71,5.39,1.12
,-8.777,-0.771,-4.661,-8.672,-0.9,-4.503,3.22,5.67,0.91
15048.0,-8.739,-0.747,-4.506,-8.658,-0.809,-5.032,1.96,7.07,-0.42
,-8.67,-0.567,-4.628,-8.734,-1.146,-4.932,1.61,7.14,-0.7
,-8.612,-0.486,-4.841,-8.835,-1.421,-4.716,-0.07,6.93,-1.4
,-8.626,-0.543,-5.011,-8.756,-1.383,-4.606,-2.17,6.72,-1.89
15124.0,-8.681,-1.309,-4.728,-8.562,-1.33,-5.513,-2.31,6.51,-2.87
,-8.583,-1.194,-5.035,-8.722,-1.531,-5.37,-3.29,6.44,-2.66
,-8.732,-1.24,-5.145,-8.835,-1.586,-5.331,-4.83,5.81,-2.17
,-8.665,-1.153,-5.312,-8.667,-1.508,-5.291,-6.65,4.97,-1.82
15200.0,-8.6,-1.436,-5.334,-8.447,-1.517,-5.532,-7.63,0.98,-0.77
,-8.768,-1.335,-5.394,-8.832,-1.328,-5.205,-8.19,0.21,-0.49
,-8.729,-1.665,-5.195,-8.89,-1.4,-5.238,-10.15,-0.35,-0.14
,-8.576,-1.756,-5.312,-8.6,-1.606,-5.212,-9.66,-0.42,0.14
15276.0,-8.38,-2.099,-5.145,-8.6,-2.13,-5.25,-10.92,-3.71,4.27
,-8.54,-2.35,-5.044,-8.799,-2.032,-5.001,-9.38,-4.13,6.3
,-8.483,-2.517,-5.233,-8.892,-1.697,-5.011,-6.02,-4.48,7.84
,-8.454,-2.374,-5.293,-9.076,-1.378,-4.36,-1.19,-4.48,8.82
15352.0,-8.794,-0.94,-4.834,-8.906,-0.584,-4.822,2.1,-6.23,9.87
,-8.066,-0.684,-5.142,-9.005,-0.481,-4.664,-0.21,-7.49,10.29
,-8.035,-0.67,-5.171,-9.136,-0.297,-4.52,-1.26,-6.72,10.43
,-8.607,-0.546,-5.037,-8.811,-0.29,-4.649,0.49,-7.21,10.08
15428.0,-8.437,-0.39,-4.939,-8.789,-0.328,-4.523,2.59,-9.59,5.81
,-8.562,-0.376,-4.525,-8.753,-0.404,-4.468,2.52,-9.59,4.34
,-8.725,-0.376,-4.52,-8.918,-0.598,-4.379,3.36,-9.66,3.43
,-8.681,-0.4,-4.585,-8.949,-0.689,-4.307,4.41,-9.66,2.59
15504.0,-8.772,-0.687,-4.355,-9.287,-0.325,-4.168,0.7,-11.06,1.4
,-8.275,-0.553,-4.633,-9.028,-0.22,-4.417,0.07,-10.71,0.84
,-8.361,-0.653,-4.362,-8.784,-0.261,-4.429,0.28,-9.52,-0.28
,-9.009,-0.658,-3.994,-8.701,-0.45,-4.243,1.54,-8.68,-1.33
15580.0,-8.638,-1.117,-4.472,-8.859,-0.704,-4.432,-2.8,-5.88,-3.29
,-8.835,-1.204,-3.592,-8.935,-0.814,-4.477,-3.15,-5.81,-3.78
,-8.875,-1.086,-3.69,-8.959,-1.211,-4.611,0.98,-6.09,-3.92
,-8.856,-0.79,-4.046,-9.225,-1.438,-4.42,3.64,-5.74,-4.41
15656.0,-9.107,-1.242,-4.53,-9.06,-1.445,-4.537,0.91,-8.26,-2.17
,-8.428,-1.165,-4.793,-8.906,-1.429,-4.508,-0.7,-10.92,-1.96
,-8.342,-1.247,-4.767,-8.792,-1.476,-4.353,-2.03,-11.69,-1.89
,-8.612,-1.383,-4.537,-8.792,-1.546,-4.346,-1.96,-11.2,-1.54
15732.0,-8.82,-1.642,-4.465,-8.622,-1.003,-4.585,5.67,-5.39,1.75
,-8.938,-1.594,-4.235,-8.772,-0.751,-4.386,10.36,-1.89,2.73
,-9.1,-1.469,-4.133,-8.957,-0.639,-4.539,13.65,-0.21,3.92
,-8.945,-1.158,-4.377,-9.064,-0.598,-4.424,14.7,-0.91,4.9
15808.0,-9.375,-0.402,-4.14,-9.038,-0.4,-4.111,10.5,-5.74,4.2
,-8.942,-0.275,-4.228,-9.086,-0.57,-4.204,9.38,-7.14,3.36
,-8.739,-0.359,-4.149,-9.184,-0.574,-3.912,8.05,-7.14,2.52
,-8.873,-0.371,-3.97,-9.009,-0.57,-3.783,7.07,-7.42,1.89
15884.0,-9.036,-0.737,-3.431,-8.72,-1.053,-3.841,5.04,-10.01,-0.84
,-9.184,-0.751,-3.661,-8.753,-1.436,-3.678,3.99,-11.2,-1.26
,-9.074,-0.782,-3.702,-9.115,-1.608,-3.29,2.31,-11.69,-1.05
,-8.952,-0.826,-3.903,-9.213,-1.522,-3.321,-0.42,-12.18,-1.12
15960.0,-9.232,-1.187,-3.472,-8.935,-1.455,-3.759,7.21,-7.35,-0.63
,-9.107,-0.981,-3.678,-8.971,-1.196,-3.74,6.79,-7.49,0.14
,-9.007,-1.211,-3.903,-9.098,-0.909,-3.738,3.71,-7.7,1.19
,-8.861,-1.462,-3.934,-9.055,-0.792,-3.446,3.36,-7.07,2.24
16036.0,-9.22,-0.677,-3.673,-8.985,-1.144,-3.553,5.32,-8.75,1.61
,-9.143,-0.775,-3.573,-9.074,-1.199,-3.317,3.64,-9.24,1.61
,-9.292,-0.849,-3.582,-9.273,-1.031,-3.501,3.71,-9.38,1.4
,-9.306,-1.019,-3.64,-9.284,-0.766,-3.386,4.27,-9.59,0.98
16112.0,-9.395,-0.522,-3.247,-8.971,-0.998,-2.587,7.07,-10.36,0.21
,-9.438,-0.538,-3.357,-9.246,-0.883,-2.548,2.03,-11.27,-0.7
,-9.165,-0.89,-3.35,-9.359,-0.562,-3.037,-2.87,-11.06,-1.26
,-9.081,-1.091,-3.144,-9.122,-0.208,-3.003,-3.57,-9.59,-1.26
16188.0,-9.311,-0.44,-3.376,-9.306,-1.328,-2.678,-10.29,-9.59,-4.9
,-9.162,-0.972,-3.386,-9.308,-1.364,-2.639,-13.72,-9.1,-5.32
,-9.122,-1.237,-3.139,-9.533,-1.187,-2.783,-11.2,-6.86,-4.69
,-9.11,-1.342,-2.996,-9.679,-1.039,-3.745,-7.35,-5.39,-4.41
16264.0,-9.122,-1.122,-3.798,-9.385,-1.417,-3.628,0.49,-4.83,-1.61
,-9.091,-1.275,-4.063,-9.313,-1.127,-3.472,-0.07,-4.41,-0.91
,-8.928,-1.768,-3.932,-9.296,-0.986,-3.233,2.45,-3.22,-0.21
,-9.153,-1.866,-3.632,-9.241,-1.062,-2.862,8.54,-2.38,0.7
16340.0,-9.251,-0.991,-2.692,-9.306,-0.761,-3.046,15.61,-1.68,2.17
,-9.375,-0.723,-2.639,-9.246,-0.885,-3.41,15.68,-1.4,1.82
,-9.45,-0.534,-2.857,-9.107,-0.931,-3.656,13.51,-1.68,1.33
,-9.354,-0.507,-2.864,-9.093,-0.9,-3.568,10.64,-1.4,0.84
16416.0,-9.182,-0.869,-3.446,-9.435,-1.096,-2.781,9.87,-1.19,-0.07
,-9.299,-0.986,-3.118,-9.294,-1.23,-2.761,10.71,-1.12,-0.07
,-9.342,-1.046,-2.666,-9.208,-1.438,-2.651,10.01,-0.63,-0.14
,-9.56,-1.091,-2.615,-9.318,-1.46,-2.687,8.82,-0.56,-0.35
16492.0,-9.292,-1.383,-2.639,-9.466,-0.644,-2.455,5.53,2.38,-0.49
,-9.261,-1.196,-2.359,-9.426,-0.5,-3.159,7.28,3.64,0.0
,-9.263,-1.158,-2.036,-9.239,-0.718,-3.57,8.54,5.25,0.42
,-9.445,-1.015,-2.18,-9.081,-1.168,-3.656,10.29,6.3,0.49
16568.0,-9.153,-1.536,-3.618,-9.277,-1.208,-3.879,1.68,6.16,-0.84
,-9.275,-1.479,-3.711,-9.107,-1.316,-3.97,3.85,5.81,-0.84
,-9.378,-1.24,-3.642,-9.1,-1.455,-4.078,4.55,5.25,-0.98
,-9.447,-0.988,-3.8,-9.105,-1.479,-4.121,2.87,4.34,-1.12
16644.0,-9.06,-1.464,-3.965,-9.383,-1.039,-3.829,4.83,1.4,0.42
,-9.067,-1.488,-3.498,-9.158,-1.208,-3.908,7.42,1.33,1.12
,-9.354,-1.268,-3.424,-9.0,-1.426,-3.843,9.59,1.19,1.54
,-9.447,-1.117,-3.62,-9.057,-1.46,-3.788,9.03,0.21,1.33
16720.0,-9.103,-1.316,-3.486,-9.268,-1.091,-2.429,9.87,-1.26,2.03
,-9.241,-1.089,-3.206,-9.418,-1.117,-2.331,10.57,-1.33,2.03
,-9.304,-1.077,-2.838,-9.395,-1.244,-2.204,9.8,-1.12,2.1
,-9.308,-1.012,-2.661,-9.476,-1.173,-2.228,8.19,-1.05,1.89
16796.0,-9.488,-1.108,-2.41,-9.347,-1.024,-3.07,0.77,2.52,0.49
,-9.418,-1.003,-2.546,-9.351,-1.161,-3.199,0.7,3.43,0.42
,-9.335,-0.938,-2.668,-9.299,-1.225,-3.441,0.14,4.27,0.42
,-9.277,-0.89,-2.745,-9.215,-1.362,-3.644,0.0,5.25,0.35
16872.0,-9.134,-1.4,-3.79,-9.177,-1.223,-3.924,2.24,5.11,0.63
,-9.141,-1.304,-3.944,-9.263,-1.261,-3.699,3.01,4.83,0.77
,-9.091,-1.189,-4.02,-9.191,-1.328,-3.448,3.22,4.06,0.84
,-9.184,-1.132,-4.133,-9.273,-1.24,-3.163,2.73,3.22,0.77
16948.0,-9.337,-1.165,-3.096,-9.227,-1.254,-3.226,3.22,2.03,0.98
,-9.335,-1.153,-3.128,-9.253,-1.144,-3.372,2.24,1.68,0.91
,-9.301,-1.098,-3.226,-9.316,-1.046,-3.479,0.91,1.54,0.7
,-9.201,-1.161,-3.259,-9.246,-1.029,-3.532,-0.84,1.89,0.49
17024.0,-9.174,-1.225,-3.546,-9.34,-1.094,-3.434,-2.8,1.33,0.35
,-9.139,-1.441,-3.513,-9.316,-0.979,-3.427,-1.61,1.26,0.63
,-9.21,-1.421,-3.427,-9.27,-1.065,-3.506,1.12,1.47,0.98
,-9.306,-1.307,-3.463,-9.227,-1.175,-3.546,3.43,1.61,1.26
17100.0,-9.148,-1.271,-3.525,-9.38,-1.082,-3.058,2.1,0.98,1.33
,-9.117,-1.328,-3.319,-9.373,-0.995,-3.07,3.57,1.33,1.47
,-9.227,-1.342,-3.173,-9.32,-1.015,-3.216,5.11,1.54,1.75
,-9.282,-1.17,-3.034,-9.268,-1.043,-3.252,5.81,1.89,1.75
17176.0,-9.225,-1.096,-3.348,-9.363,-1.0,-3.412,0.07,2.17,0.63
,-9.28,-1.134,-3.324,-9.342,-1.003,-3.628,0.98,2.66,0.77
,-9.265,-1.05,-3.262,-9.239,-1.06,-3.857,1.96,2.8,0.91
,-9.316,-1.029,-3.269,-9.103,-1.271,-3.951,1.96,2.8,0.84
17252.0,-9.081,-1.388,-3.965,-9.282,-1.086,-3.235,0.7,0.84,0.56
,-9.091,-1.469,-3.745,-9.368,-1.113,-3.068,2.87,0.98,1.05
,-9.177,-1.285,-3.606,-9.325,-1.175,-3.02,4.69,0.7,1.26
,-9.277,-1.141,-3.472,-9.337,-1.074,-3.087,5.11,0.21,1.26
17328.0,-9.32,-1.117,-3.192,-9.215,-1.266,-3.484,2.17,0.84,0.84
,-9.22,-1.132,-3.305,-9.256,-1.187,-3.424,1.54,0.91,0.84
,-9.213,-1.232,-3.441,-9.301,-1.046,-3.41,1.61,0.98,0.91
,-9.15,-1.237,-3.489,-9.296,-0.967,-3.314,2.31,1.19,1.05
17404.0,-9.239,-1.055,-3.331,-9.237,-1.34,-3.477,2.1,1.19,0.98
,-9.287,-1.117,-3.329,-9.225,-1.201,-3.486,1.89,0.98,0.98
,-9.292,-1.151,-3.374,-9.27,-1.117,-3.513,1.96,0.77,0.98
,-9.349,-1.187,-3.515,-9.263,-1.05,-3.458,2.17,0.77,0.98
17480.0,-9.292,-1.05,-3.374,-9.201,-1.134,-3.668,2.87,0.42,1.19
,-9.253,-1.12,-3.391,-9.215,-1.235,-3.63,2.59,0.14,1.12
,-9.316,-1.125,-3.429,-9.182,-1.261,-3.673,2.8,0.14,1.12
,-9.232,-1.098,-3.556,-9.227,-1.364,-3.553,2.66,-0.14,1.12
17556.0,-9.258,-1.29,-3.534,-9.32,-1.05,-3.262,3.92,-1.33,1.47
,-9.246,-1.089,-3.427,-9.27,-1.11,-3.151,4.13,-1.47,1.4
,-9.284,-1.034,-3.35,-9.289,-1.23,-3.123,2.87,-1.75,1.19
,-9.308,-1.007,-3.326,-9.287,-1.189,-3.154,1.89,-1.96,0.98
17632.0,-9.244,-1.192,-3.118,-9.354,-0.979,-3.195,3.36,-0.98,1.4
,-9.256,-1.211,-3.046,-9.385,-0.993,-3.276,3.43,-0.49,1.54
,-9.275,-1.187,-3.084,-9.356,-1.015,-3.216,4.06,-0.14,1.54
,-9.292,-1.082,-3.156,-9.294,-1.048,-3.139,3.92,-0.28,1.26
17708.0,-9.306,-1.015,-3.211,-9.249,-1.218,-3.561,0.7,0.14,0.7
,-9.292,-1.003,-3.338,-9.284,-1.153,-3.465,0.91,0.14,0.56
,-9.27,-1.024,-3.357,-9.366,-1.149,-3.417,0.49,-0.07,0.49
,-9.217,-1.141,-3.393,-9.318,-1.158,-3.369,-0.07,-0.42,0.49
17784.0,-9.383,-1.062,-3.34,-9.196,-1.127,-3.352,-1.47,-2.24,-0.35
,-9.404,-0.991,-3.288,-9.124,-1.307,-3.372,-3.78,-3.15,-0.77
,-9.292,-1.007,-3.178,-9.27,-1.419,-3.34,-5.67,-3.78,-0.84
,-9.299,-1.0,-3.247,-9.325,-1.247,-3.257,-6.86,-4.13,-0.77
17860.0,-9.203,-1.156,-3.161,-9.349,-1.031,-3.128,-4.2,-4.13,0.0
,-9.241,-1.168,-3.061,-9.395,-1.17,-2.903,-4.34,-4.06,0.28
,-9.32,-1.156,-3.07,-9.342,-1.18,-2.706,-3.08,-3.5,0.63
,-9.337,-1.082,-3.072,-9.361,-1.115,-2.436,-1.47,-2.87,0.84
17936.0,-9.387,-1.039,-2.288,-9.117,-1.058,-2.627,-0.42,-0.91,1.05
,-9.5,-0.905,-2.558,-9.198,-1.194,-2.355,-0.91,-0.56,0.77
,-9.452,-0.835,-2.852,-9.485,-0.993,-2.053,-3.22,-0.91,0.35
,-9.196,-0.866,-2.814,-9.765,-0.72,-2.178,-5.67,-0.28,0.28
18012.0,-9.677,-0.364,-2.211,-9.112,-1.771,-2.024,-3.71,4.27,-0.56
,-9.371,-0.543,-2.431,-9.328,-1.149,-1.972,-10.57,3.01,-0.91
,-9.148,-1.07,-2.065,-9.452,-0.814,-2.989,-15.26,4.27,-0.56
,-9.39,-1.622,-2.008,-9.069,-0.766,-3.185,-14.91,5.67,-0.49
18088.0,-9.072,-0.945,-3.4,-9.706,-0.309,-3.352,-7.35,9.24,0.35
,-8.825,-1.409,-3.171,-9.005,-0.565,-3.632,-6.44,11.34,1.12
,-9.392,-1.161,-3.063,-9.055,-1.036,-3.697,-1.19,13.23,1.54
,-9.318,-0.785,-2.814,-9.088,-1.826,-3.903,2.66,14.28,1.12
18164.0,-9.079,-1.799,-3.556,-9.234,-0.579,-3.295,-5.25,12.32,1.96
,-9.215,-1.249,-3.805,-8.99,-1.091,-2.68,0.28,12.11,1.54
,-9.002,-0.694,-3.592,-9.488,-1.213,-2.386,2.8,12.53,0.35
,-9.342,-0.266,-3.23,-9.117,-1.187,-2.922,3.78,14.35,-0.42
18240.0,-9.643,-0.61,-3.118,-8.83,-1.218,-4.039,6.86,14.14,-0.63
,-9.337,-0.534,-3.821,-9.182,-1.12,-3.96,4.76,12.6,-1.12
,-8.825,-0.84,-3.747,-9.103,-0.794,-3.912,2.1,13.09,-1.05
,-8.82,-1.0,-4.049,-9.284,-0.359,-4.154,1.96,13.86,-1.05
18316.0,-9.263,-0.364,-4.446,-8.904,-0.763,-3.206,7.98,13.58,-3.08
,-9.146,-0.869,-4.427,-9.27,-0.328,-3.475,2.45,13.09,-2.87
,-8.748,-1.407,-4.022,-9.672,-0.541,-4.247,0.35,14.42,-2.87
,-8.483,-1.39,-3.144,-9.253,-1.151,-4.81,4.2,17.01,-3.43
18392.0,-8.899,-1.874,-4.879,-8.641,-2.149,-3.891,-9.52,11.06,-2.03
,-8.684,-2.395,-4.592,-8.782,-2.233,-4.075,-7.35,11.55,-2.1
,-9.115,-2.34,-4.011,-9.069,-1.874,-4.087,-1.68,10.01,-2.66
,-8.739,-2.168,-3.807,-8.969,-1.412,-4.415,2.8,9.03,-1.82
18468.0,-8.923,-0.943,-4.302,-9.019,-0.72,-3.585,10.85,8.96,2.38
,-8.945,-0.608,-4.508,-8.973,-0.845,-3.345,8.82,8.47,1.47
,-8.88,-0.665,-4.357,-8.861,-1.182,-3.352,6.3,9.38,0.77
,-8.995,-0.665,-4.123,-9.134,-1.247,-3.092,5.04,10.36,0.56
18544.0,-9.239,-1.077,-3.36,-9.16,-0.144,-4.178,1.96,12.88,1.19
,-8.77,-0.981,-3.8,-8.832,-0.034,-4.764,2.94,12.39,1.4
,-9.105,-0.663,-3.613,-8.66,-0.345,-4.865,5.04,12.81,0.7
,-9.244,-0.373,-3.841,-8.557,-0.883,-4.343,5.18,11.55,-0.84
18620.0,-8.461,-1.476,-3.903,-8.882,-1.89,-4.439,-5.67,14.7,-5.53
,-8.72,-1.649,-3.565,-8.433,-2.01,-4.592,-2.38,16.24,-5.6
,-9.079,-1.73,-3.743,-8.2,-1.998,-4.259,1.4,15.75,-4.76
,-9.074,-1.869,-4.159,-8.658,-1.764,-4.101,3.15,14.7,-3.5
18696.0,-9.081,-1.515,-4.245,-8.507,-1.321,-4.621,10.22,15.33,-0.77
,-9.103,-1.07,-4.36,-8.689,-1.639,-4.75,9.52,14.21,-0.49
,-8.672,-0.972,-4.609,-9.069,-1.508,-4.929,5.95,13.72,-0.35
,-8.772,-0.964,-4.59,-9.026,-1.007,-5.284,0.56,12.88,-0.35
18772.0,-8.638,-0.493,-5.171,-8.839,-0.988,-4.97,9.73,9.1,-0.77
,-8.502,-0.364,-4.874,-8.847,-1.522,-5.183,8.19,9.66,-1.82
,-8.626,-0.57,-4.788,-8.72,-1.843,-4.75,6.09,9.59,-3.08
,-8.849,-0.739,-4.807,-8.629,-2.079,-4.642,5.18,9.03,-3.36
18848.0,-8.284,-2.221,-4.779,-8.514,-2.089,-4.891,4.9,6.37,-1.4
,-8.55,-2.103,-5.006,-8.598,-2.469,-4.714,8.4,5.67,-0.91
,-8.488,-1.859,-4.901,-8.794,-2.46,-4.496,10.78,5.39,-0.77
,-8.641,-1.866,-4.884,-8.612,-2.036,-4.53,10.15,5.46,0.42
18924.0,-8.54,-1.572,-4.681,-9.002,-0.012,-5.296,11.48,5.18,4.48
,-8.756,-1.125,-4.748,-8.854,-0.287,-5.193,11.41,5.04,4.62
,-8.945,-0.79,-4.917,-8.713,-0.309,-5.346,9.59,4.41,4.55
,-8.83,-0.493,-5.083,-8.815,-0.696,-4.96,7.84,3.99,3.71
19000.0,-8.748,-1.486,-4.673,-8.76,-2.383,-4.838,3.43,2.24,1.33
,-8.603,-1.912,-4.568,-8.689,-2.285,-4.87,4.2,2.03,2.59
,-8.246,-2.213,-4.563,-8.478,-1.857,-5.169,6.86,2.38,3.57
,-8.402,-2.379,-4.714,-8.586,-1.395,-5.224,10.15,2.94,4.41
19076.0,-8.701,-1.228,-5.329,-8.447,-1.661,-4.834,10.22,-0.84,5.81
,-8.672,-1.381,-5.363,-8.449,-1.469,-4.98,6.93,-1.4,5.88
,-8.641,-1.68,-4.889,-8.708,-1.261,-4.75,5.39,-1.05,6.65
,-8.579,-1.768,-4.743,-8.571,-1.307,-4.25,5.25,-1.05,7.49
19152.0,-8.361,-1.029,-4.367,-8.72,-0.854,-4.594,5.6,0.84,9.1
,-8.667,-0.902,-4.745,-8.411,-1.285,-4.496,4.9,0.98,8.47
,-9.136,-0.749,-4.647,-8.435,-1.405,-4.424,3.71,1.19,7.56
,-9.095,-0.627,-4.623,-8.684,-1.237,-4.692,2.38,0.21,6.86
19228.0,-8.928,-1.031,-4.872,-8.574,-0.986,-4.86,2.8,4.06,7.63
,-8.93,-0.921,-4.874,-8.641,-1.055,-4.877,2.31,3.78,7.42
,-8.61,-0.718,-4.891,-8.813,-0.991,-4.91,1.68,3.78,6.79
,-8.629,-0.902,-4.858,-9.095,-0.72,-5.025,0.07,3.64,6.58
19304.0,-8.916,-0.589,-5.152,-8.777,-1.127,-5.185,2.24,4.41,3.5
,-8.713,-0.644,-4.889,-8.715,-1.249,-5.272,1.26,4.41,2.8
,-8.693,-0.684,-5.056,-8.801,-1.385,-5.006,0.0,4.34,2.17
,-8.729,-0.943,-5.126,-8.847,-1.184,-5.006,-0.42,4.13,1.47
19380.0,-8.581,-0.983,-4.951,-8.536,-0.974,-4.925,3.85,5.04,-0.7
,-8.729,-0.692,-5.013,-8.469,-0.936,-4.819,2.59,5.11,-1.05
,-8.76,-0.605,-5.013,-8.622,-0.962,-4.709,-0.35,4.48,-1.68
,-8.579,-0.969,-5.016,-8.871,-1.043,-4.85,-2.24,3.85,-2.03
19456.0,-8.947,-1.103,-4.956,-8.373,-0.986,-4.937,-2.31,5.67,-2.59
,-8.904,-0.986,-5.092,-8.677,-0.809,-5.023,-2.31,5.95,-2.66
,-8.938,-0.859,-5.037,-8.875,-0.768,-5.327,-3.36,6.09,-2.73
,-8.681,-0.95,-4.999,-8.818,-0.608,-5.324,-4.34,6.02,-2.52
19532.0,-8.715,-0.883,-5.236,-8.71,-1.271,-5.243,-9.03,2.87,-3.29
,-8.737,-1.132,-5.13,-8.782,-1.376,-5.173,-8.89,2.38,-3.64
,-8.636,-1.39,-5.207,-8.878,-1.374,-5.056,-8.12,1.96,-3.78
,-8.662,-1.33,-5.078,-8.433,-1.242,-5.307,-6.3,1.89,-3.5
19608.0,-8.143,-1.323,-5.142,-8.82,-2.359,-4.286,-6.02,-1.82,-1.05
,-8.203,-1.692,-4.829,-8.667,-1.878,-4.74,-8.05,-0.84,-0.21
,-8.445,-2.144,-4.602,-8.406,-1.627,-4.941,-8.89,-0.35,0.84
,-8.65,-2.292,-4.547,-8.26,-1.572,-4.982,-7.35,-0.21,2.24
19684.0,-8.411,-1.692,-4.886,-8.722,-1.498,-4.795,-1.89,-3.01,6.86
,-8.454,-1.713,-4.829,-8.859,-1.271,-4.889,-1.26,-2.66,7.84
,-8.538,-1.773,-4.671,-8.945,-1.077,-4.69,-0.21,-1.82,8.68
,-8.581,-1.692,-4.793,-8.76,-0.778,-5.032,1.96,-1.4,9.03
19760.0,-8.392,-0.598,-4.956,-8.799,-0.357,-5.162,8.05,-1.89,7.49
,-8.6,-0.491,-4.944,-8.811,-0.541,-4.953,6.65,-2.52,7.21
,-8.701,-0.129,-5.147,-8.547,-0.751,-4.831,4.97,-3.99,6.3
,-8.77,-0.112,-5.374,-8.741,-0.792,-4.573,3.85,-4.76,4.9
19836.0,-8.832,-0.519,-4.702,-8.782,-0.479,-4.8,5.95,-8.12,2.45
,-8.672,-0.495,-4.882,-8.66,-0.412,-4.929,3.71,-9.8,2.24
,-8.533,-0.603,-4.915,-8.653,-0.634,-4.838,1.54,-9.52,1.96
,-8.603,-0.66,-4.75,-8.741,-0.967,-4.702,0.77,-8.82,1.12
19912.0,-8.835,-1.18,-4.628,-8.296,-0.888,-4.547,0.21,-5.39,-1.4
,-8.914,-1.168,-4.499,-8.768,-1.062,-4.355,2.8,-5.39,-1.26
,-8.964,-0.792,-5.379,-8.933,-1.34,-4.453,2.73,-9.03,-0.7
,-8.6,-0.543,-5.121,-9.002,-1.311,-4.518,1.82,-11.27,-1.33
19988.0,-8.72,-1.261,-4.731,-9.263,-1.199,-4.532,1.96,-9.87,0.0
,-8.533,-1.414,-4.719,-8.882,-1.161,-4.683,2.45,-8.54,0.42
,-8.603,-1.476,-4.625,-8.875,-1.273,-4.491,4.76,-7.21,0.91
,-8.902,-1.496,-4.525,-8.555,-1.29,-4.637,7.42,-6.09,1.4
20064.0,-8.524,-1.318,-4.647,-8.71,-0.727,-4.585,1.61,-14.0,3.57
,-8.737,-1.285,-4.544,-8.705,-0.852,-4.312,2.66,-14.07,4.06
,-8.93,-1.027,-4.594,-8.744,-0.763,-4.35,3.57,-14.63,4.55
,-8.882,-0.799,-4.575,-8.902,-0.833,-4.216,3.36,-14.77,4.69
20140.0,-9.162,-0.916,-4.044,-8.904,-0.591,-4.058,8.33,-7.7,3.36
,-9.603,-1.132,-3.692,-8.954,-0.428,-3.987,6.93,-11.06,3.29
,-8.873,-0.763,-4.092,-8.897,-0.447,-3.912,5.39,-15.19,3.99
,-8.772,-0.581,-4.118,-8.93,-0.689,-3.905,3.22,-17.01,3.64
20216.0,-8.923,-0.893,-4.02,-9.086,-0.459,-3.764,-6.58,-15.47,1.33
,-8.806,-0.993,-3.92,-9.105,-0.44,-3.652,-3.99,-13.51,1.05
,-8.897,-0.864,-3.903,-9.49,-0.474,-3.077,-0.14,-11.76,0.63
,-9.016,-0.713,-3.783,-9.344,-0.404,-3.408,3.36,-11.06,0.0
20292.0,-8.997,-0.471,-3.463,-8.911,-1.096,-3.094,-7.84,-15.89,-2.38
,-8.928,-0.627,-3.652,-9.265,-1.091,-3.331,-9.17,-14.63,-2.38
,-9.165,-0.775,-3.295,-9.086,-1.01,-3.671,-9.31,-12.81,-2.45
,-9.1,-0.967,-3.283,-9.024,-0.821,-3.958,-9.59,-11.2,-2.73
20368.0,-8.904,-1.067,-3.946,-9.318,-0.696,-3.192,-2.45,-7.98,-1.05
,-8.899,-1.417,-3.486,-9.261,-0.763,-3.64,0.21,-5.32,-0.63
,-9.136,-1.254,-3.242,-9.122,-0.833,-3.982,5.74,-3.36,-0.42
,-9.11,-0.981,-3.185,-9.11,-1.053,-4.173,9.31,-2.8,-0.07
20444.0,-9.306,-1.57,-3.812,-9.34,-0.797,-3.668,3.43,-6.93,1.68
,-9.155,-1.608,-3.714,-9.045,-0.663,-3.329,6.37,-8.75,1.19
,-9.038,-1.287,-3.238,-9.127,-0.909,-3.149,9.31,-10.08,1.05
,-9.38,-0.976,-3.687,-9.335,-1.254,-3.149,9.66,-13.09,0.56
20520.0,-9.072,-0.847,-2.785,-8.99,-1.129,-3.707,5.81,-12.11,0.7
,-9.263,-0.538,-3.094,-9.002,-1.517,-3.264,6.58,-11.27,0.28
,-9.356,-0.579,-3.364,-9.361,-1.455,-3.168,4.48,-11.2,-0.07
,-9.21,-0.775,-3.695,-9.428,-1.393,-2.915,1.54,-11.27,0.0
20596.0,-9.529,-0.754,-3.077,-9.306,-0.017,-2.85,16.1,-8.47,1.82
,-9.091,-0.677,-2.687,-9.55,-0.321,-2.692,14.21,-8.26,1.96
,-9.612,-0.68,-2.69,-9.45,-0.522,-2.85,13.02,-8.54,1.33
,-9.533,-0.361,-2.702,-8.971,-0.67,-2.417,11.06,-9.73,0.56
20672.0,-9.112,-1.015,-1.933,-9.526,-0.345,-1.9,-2.17,-6.44,-1.96
,-9.246,-1.395,-1.462,-9.239,-0.646,-2.096,2.31,-3.01,-1.47
,-9.478,-1.067,-1.177,-9.194,-1.204,-1.845,8.61,-0.07,-0.7
,-9.734,-0.498,-1.596,-9.263,-1.448,-1.608,11.83,1.33,-0.63
20748.0,-9.619,-0.972,-1.644,-9.031,-1.589,-4.25,11.34,10.43,-0.28
,-9.837,-0.28,-2.534,-9.055,-1.637,-4.57,9.87,9.1,-0.91
,-9.476,-0.392,-3.147,-9.083,-1.393,-4.795,2.45,7.91,-1.33
,-9.378,-0.948,-3.865,-9.282,-1.261,-5.109,-3.22,7.07,-1.4
20824.0,-9.299,-1.096,-5.267,-9.153,-1.412,-3.821,7.56,1.75,0.07
,-9.124,-1.115,-4.891,-9.182,-1.268,-3.496,7.0,0.07,0.35
,-9.296,-1.263,-4.561,-9.351,-1.07,-2.958,7.14,-0.84,0.56
,-9.265,-1.476,-4.3,-9.538,-0.811,-2.639,8.47,-1.54,0.84
20900.0,-9.672,-0.498,-2.608,-9.172,-1.158,-2.737,13.37,-1.82,1.26
,-9.363,-0.335,-2.52,-9.196,-1.268,-2.532,8.75,-2.38,0.84
,-9.421,-0.512,-2.745,-9.34,-1.297,-2.158,3.92,-2.87,0.21
,-9.241,-0.981,-2.747,-9.366,-0.957,-1.579,1.54,-2.66,-0.07
20976.0,-9.598,-0.67,-1.704,-9.074,-1.302,-2.948,9.94,3.43,0.7
,-9.718,-0.627,-1.797,-9.105,-1.618,-2.979,8.26,4.34,0.49
,-9.672,-0.627,-2.29,-9.234,-1.445,-3.12,5.18,4.27,0.07
,-9.335,-0.9,-2.783,-9.426,-1.24,-3.326,1.54,4.48,-0.21
21052.0,-9.457,-0.972,-3.329,-9.055,-1.151,-3.869,12.6,8.05,1.33
,-9.555,-0.718,-3.62,-9.179,-1.225,-3.601,10.85,6.65,0.91
,-9.368,-0.715,-3.932,-9.371,-1.163,-3.518,7.49,5.11,0.56
,-9.115,-1.005,-4.003,-9.454,-1.082,-3.381,5.18,4.41,0.63
21128.0,-9.509,-1.031,-3.309,-9.194,-1.149,-2.994,7.42,3.22,0.63
,-9.356,-1.096,-3.348,-9.308,-1.096,-2.79,5.11,2.1,0.42
,-9.318,-1.29,-3.252,-9.529,-1.05,-2.469,3.57,1.96,0.42
,-9.189,-1.251,-3.135,-9.531,-0.883,-2.436,3.71,2.03,0.56
21204.0,-9.548,-0.672,-2.721,-9.1,-1.448,-3.424,5.67,4.55,0.35
,-9.485,-0.584,-3.132,-9.179,-1.421,-3.463,2.52,3.92,-0.21
,-9.282,-0.737,-3.329,-9.328,-1.316,-3.527,-0.84,3.85,-0.63
,-9.16,-1.146,-3.448,-9.397,-1.28,-3.537,-2.52,4.13,-0.84
21280.0,-9.328,-1.182,-3.616,-9.289,-1.211,-3.228,7.21,3.99,0.35
,-9.229,-1.223,-3.587,-9.38,-1.015,-3.132,7.35,3.78,0.42
,-9.201,-1.273,-3.494,-9.366,-0.861,-3.034,8.12,3.85,0.56
,-9.174,-1.347,-3.446,-9.387,-0.775,-3.025,9.17,4.06,0.84
21356.0,-9.378,-0.782,-3.187,-9.191,-1.271,-3.553,4.06,3.22,-0.21
,-9.361,-0.835,-3.355,-9.232,-1.302,-3.494,1.82,2.87,-0.49
,-9.234,-1.01,-3.498,-9.215,-1.256,-3.396,-0.42,2.45,-0.77
,-9.155,-1.177,-3.553,-9.313,-1.187,-3.398,-0.84,2.38,-0.77
21432.0,-9.32,-1.041,-3.458,-9.299,-1.488,-3.305,0.7,1.68,-0.49
,-9.28,-1.094,-3.479,-9.268,-1.371,-3.161,-0.35,1.33,-0.42
,-9.273,-1.283,-3.522,-9.316,-1.094,-3.123,-1.19,0.84,-0.49
,-9.167,-1.431,-3.408,-9.318,-1.029,-3.125,-0.63,1.26,-0.21
21508.0,-9.311,-1.101,-3.111,-9.217,-1.125,-3.34,2.52,1.75,0.56
,-9.311,-1.106,-3.147,-9.194,-1.127,-3.384,2.52,2.03,0.49
,-9.33,-1.084,-3.273,-9.265,-1.12,-3.484,2.52,1.96,0.35
,-9.215,-1.132,-3.262,-9.28,-1.108,-3.542,2.38,2.17,0.42
21584.0,-9.206,-1.146,-3.518,-9.318,-1.139,-3.178,1.12,1.4,0.28
,-9.191,-1.23,-3.331,-9.33,-1.041,-3.331,1.05,1.54,0.42
,-9.292,-1.211,-3.293,-9.287,-1.082,-3.348,1.54,1.47,0.35
,-9.351,-1.158,-3.242,-9.234,-1.201,-3.324,2.66,1.75,0.42
21660.0,-9.215,-1.326,-3.262,-9.342,-1.07,-3.415,0.28,1.47,0.42
,-9.237,-1.347,-3.283,-9.273,-1.039,-3.53,1.82,1.68,0.7
,-9.27,-1.23,-3.278,-9.22,-1.144,-3.525,2.87,1.61,0.7
,-9.344,-1.12,-3.367,-9.194,-1.292,-3.518,3.5,1.4,0.77
21736.0,-9.153,-1.307,-3.439,-9.268,-1.003,-3.168,1.54,0.35,0.7
,-9.318,-1.299,-3.388,-9.253,-1.06,-3.206,2.59,0.49,0.98
,-9.318,-1.189,-3.254,-9.311,-1.091,-3.202,3.57,0.98,1.19
,-9.308,-1.067,-3.216,-9.268,-1.122,-3.199,4.06,0.91,1.19
21812.0,-9.292,-1.17,-3.156,-9.244,-1.141,-3.542,0.56,0.84,0.98
,-9.368,-1.175,-3.137,-9.194,-1.254,-3.577,0.56,0.91,0.91
,-9.442,-1.058,-3.214,-9.119,-1.364,-3.568,0.35,0.7,0.77
,-9.351,-1.005,-3.35,-9.299,-1.429,-3.515,-0.56,0.84,0.84
21888.0,-9.304,-1.314,-3.419,-9.225,-1.039,-3.273,0.77,-0.21,1.4
,-9.404,-1.108,-3.3,-9.186,-1.163,-3.159,0.35,-1.19,1.4
,-9.304,-0.914,-3.293,-9.251,-1.297,-3.039,-0.84,-1.96,1.4
,-9.32,-0.938,-3.281,-9.251,-1.137,-3.092,-3.36,-2.59,1.4
21964.0,-9.246,-0.983,-2.876,-9.313,-0.869,-3.147,-6.02,-2.87,1.19
,-9.423,-0.907,-2.891,-9.16,-1.019,-3.216,-6.58,-1.96,1.12
,-9.311,-0.883,-2.828,-9.347,-1.175,-3.235,-7.14,-1.26,0.98
,-9.344,-0.826,-2.991,-9.414,-1.173,-3.195,-7.7,-1.12,0.77
22040.0,-9.284,-0.914,-3.226,-9.385,-1.117,-3.412,-8.33,-1.54,0.42
,-9.227,-1.007,-3.424,-9.407,-1.036,-3.757,-10.5,-1.54,0.35
,-9.174,-1.237,-3.19,-9.162,-1.082,-3.68,-11.06,-1.05,0.28
,-9.237,-1.149,-3.319,-9.316,-1.18,-3.592,-9.66,-0.84,0.21
22116.0,-9.418,-1.153,-3.412,-9.225,-1.089,-2.783,-4.55,-1.82,1.26
,-9.49,-0.761,-3.211,-9.323,-1.443,-2.517,-2.52,-3.01,1.12
,-9.361,-0.567,-3.403,-9.206,-1.417,-2.749,-5.25,-5.04,0.7
,-9.083,-0.715,-3.082,-9.155,-1.271,-2.749,-8.54,-5.04,0.42
22192.0,-9.179,-1.163,-2.871,-9.306,0.098,-3.764,3.92,4.41,3.22
,-9.426,-0.876,-3.113,-9.139,-0.57,-3.86,7.21,5.6,3.57
,-9.351,-0.495,-2.984,-9.088,-1.529,-3.814,9.45,6.3,3.36
,-9.608,0.187,-2.8,-9.34,-2.18,-3.233,10.64,5.88,2.31
22268.0,-9.292,-2.082,-2.938,-9.318,-0.029,-3.192,-0.7,4.41,1.61
,-9.179,-1.704,-2.326,-9.177,-0.304,-3.391,5.32,6.02,1.75
,-9.512,-1.017,-2.125,-9.043,-0.905,-3.104,10.22,6.58,2.1
,-9.828,-0.299,-2.649,-9.112,-1.074,-2.752,10.08,3.78,1.96
22344.0,-9.246,-1.027,-2.582,-9.33,-1.452,-2.338,1.89,7.91,0.49
,-9.311,-1.0,-2.529,-9.117,-0.952,-2.041,2.52,8.19,0.49
,-9.184,-1.175,-2.596,-9.277,-0.256,-2.623,1.33,8.96,1.12
,-9.268,-1.407,-2.51,-9.198,0.395,-2.618,-0.56,9.94,1.61
22420.0,-9.27,0.168,-3.139,-9.201,-0.936,-3.549,-0.28,13.09,-0.42
,-9.378,-0.531,-3.072,-8.89,-1.419,-3.616,-6.23,14.28,-0.56
,-9.363,-0.9,-3.482,-8.768,-1.895,-3.159,-6.93,14.35,-0.98
,-9.433,-1.065,-3.412,-9.134,-1.524,-2.927,-6.79,12.39,-1.4
22496.0,-9.11,-1.007,-3.25,-8.918,-1.244,-4.688,0.28,14.14,-1.47
,-9.423,-0.191,-3.915,-8.516,-1.9,-3.941,1.33,11.48,-1.89
,-9.1,0.0,-4.92,-9.112,-1.996,-3.022,-2.87,8.68,-1.89
,-9.179,-0.538,-4.867,-9.282,-1.773,-2.907,-8.61,7.77,-1.68
22572.0,-9.512,-1.448,-2.855,-8.751,-0.424,-4.243,10.92,14.49,0.98
,-9.521,-1.12,-3.125,-9.5,0.019,-3.74,9.8,12.67,1.96
,-8.732,-1.086,-3.766,-9.653,0.395,-4.056,6.44,11.9,2.66
,-8.595,-0.818,-3.965,-8.799,-0.026,-4.271,6.3,13.02,2.66
22648.0,-8.421,-0.885,-3.862,-9.552,-1.788,-2.948,-5.18,11.13,-1.54
,-8.423,-1.859,-3.235,-9.505,-1.519,-3.305,-4.06,15.47,-1.26
,-9.093,-2.278,-2.723,-9.057,-1.007,-4.147,2.59,17.92,-0.35
,-9.39,-2.249,-2.575,-8.65,-0.835,-4.724,10.29,19.53,0.84
22724.0,-8.339,-0.763,-5.004,-9.61,-0.814,-3.855,11.97,18.2,4.41
,-8.497,-0.593,-4.726,-9.17,-0.907,-4.063,11.55,19.11,3.29
,-8.758,-0.742,-4.52,-8.569,-1.12,-4.424,9.94,19.25,2.03
,-9.38,-0.833,-4.085,-8.413,-1.34,-4.257,8.47,18.34,1.26
22800.0,-8.646,-1.153,-4.159,-8.739,0.357,-5.104,5.74,16.73,2.59
,-8.978,-0.852,-4.051,-8.691,0.105,-4.683,9.73,17.57,1.82
,-9.411,-0.376,-4.125,-8.737,-0.024,-4.826,11.27,16.45,1.26
,-9.167,0.34,-4.712,-8.748,-0.462,-4.85,9.03,14.77,0.7
22876.0,-9.167,-0.916,-4.661,-8.763,-1.194,-4.468,-5.67,9.66,-4.34
,-9.366,-1.106,-4.47,-8.086,-1.266,-4.618,-2.8,9.24,-5.25
,-9.048,-1.352,-4.714,-8.069,-0.869,-4.788,-0.07,8.75,-5.46
,-9.009,-1.45,-4.48,-8.885,-0.134,-4.965,2.52,8.75,-5.25
22952.0,-9.433,0.507,-4.793,-8.39,-1.481,-4.298,6.79,4.06,-6.93
,-9.275,0.775,-4.834,-8.416,-2.438,-3.951,3.43,3.01,-9.03
,-9.086,0.469,-4.757,-8.636,-2.752,-4.092,-1.89,2.03,-9.73
,-8.78,-0.383,-4.341,-8.705,-2.333,-4.384,-8.05,2.38,-10.01
23028.0,-8.789,-2.044,-4.472,-8.88,-0.519,-4.932,12.46,6.16,-7.49
,-8.904,-1.687,-4.628,-8.677,-1.029,-4.709,15.82,5.53,-8.05
,-8.648,-1.263,-4.927,-8.454,-1.677,-4.58,16.24,5.74,-8.12
,-8.837,-0.967,-5.162,-8.866,-2.352,-4.271,15.19,6.37,-7.7
23104.0,-9.11,-2.752,-4.13,-8.512,-1.811,-5.377,0.28,4.97,-1.89
,-8.835,-2.611,-4.357,-8.153,-1.766,-5.214,4.69,4.2,-1.26
,-8.842,-2.448,-4.527,-8.045,-1.977,-5.327,8.96,3.99,-0.28
,-8.88,-1.969,-5.035,-8.318,-2.115,-5.126,12.18,2.66,0.63
23180.0,-8.748,-1.919,-5.09,-8.842,-1.108,-4.293,17.5,3.64,7.63
,-9.069,-1.606,-4.97,-8.54,-0.926,-4.496,19.11,3.01,6.65
,-9.368,-1.28,-4.542,-8.808,-0.823,-5.035,17.92,1.33,5.67
,-9.215,-1.175,-4.298,-9.095,-0.754,-5.061,15.19,0.49,5.46
23256.0,-9.007,-1.005,-5.042,-8.421,-2.01,-4.719,3.78,-1.19,4.9
,-8.603,-1.228,-5.066,-8.543,-1.948,-4.413,1.89,-1.68,5.25
,-8.349,-1.371,-5.329,-8.863,-1.575,-4.413,2.8,-1.4,5.04
,-8.406,-1.452,-5.243,-9.215,-1.369,-4.111,2.38,-0.98,5.46
23332.0,-9.086,-1.299,-4.262,-9.117,-0.17,-4.882,4.48,0.84,6.02
,-8.794,-1.46,-4.264,-8.993,0.225,-5.162,4.06,0.91,6.79
,-8.763,-1.546,-4.597,-8.703,-0.093,-5.051,4.83,1.12,7.21
,-9.016,-1.12,-4.642,-8.72,-0.727,-4.678,6.51,1.54,7.21
23408.0,-8.792,-1.275,-4.398,-8.5,-1.407,-4.69,1.54,-0.21,2.94
,-8.732,-1.656,-4.329,-8.763,-1.249,-4.893,2.59,0.77,2.87
,-8.653,-1.543,-4.204,-8.813,-1.352,-4.994,3.99,1.4,2.94
,-8.524,-1.421,-4.487,-9.019,-1.053,-5.145,5.04,2.24,3.01
23484.0,-9.261,-0.773,-5.159,-8.205,-2.28,-4.487,7.0,2.52,0.63
,-9.261,-1.211,-4.719,-8.442,-1.931,-4.69,4.83,1.68,0.35
,-8.909,-1.792,-4.444,-8.928,-1.496,-4.745,3.36,0.42,1.12
,-8.447,-2.221,-4.379,-9.086,-0.859,-4.716,3.99,0.35,2.45
23560.0,-8.938,-0.644,-4.968,-8.873,-1.077,-4.74,6.58,0.77,4.27
,-8.71,-0.821,-4.834,-8.985,-0.625,-4.898,3.08,0.42,3.92
,-8.78,-0.981,-4.602,-9.117,-0.345,-5.039,0.77,1.47,3.71
,-8.835,-1.297,-4.446,-9.088,0.014,-4.87,0.21,2.24,3.5
23636.0,-8.732,-0.548,-4.582,-9.148,-0.06,-4.654,-5.32,0.77,1.89
,-8.485,-0.78,-4.312,-9.201,-0.048,-4.652,-6.79,0.91,1.75
,-8.5,-0.467,-4.346,-8.981,-0.151,-4.987,-6.86,1.68,1.4
,-8.775,-0.127,-4.508,-8.882,-0.534,-5.111,-7.0,2.59,0.14
23712.0,-8.603,-0.938,-5.087,-8.959,-2.173,-4.231,-19.81,-0.84,-1.4
,-8.509,-1.388,-5.197,-8.832,-2.089,-4.281,-19.6,-1.61,-1.05
,-8.93,-1.902,-4.85,-8.71,-2.091,-4.202,-17.43,-1.89,-1.26
,-9.115,-2.192,-4.381,-8.713,-2.065,-4.25,-13.79,-2.66,-1.19
23788.0,-8.643,-2.149,-4.269,-8.567,-1.555,-4.489,-6.44,-2.73,4.41
,-8.583,-2.312,-4.207,-8.603,-1.4,-4.401,-6.02,-2.38,6.02
,-8.827,-2.19,-4.142,-8.71,-1.18,-4.262,-4.34,-2.66,7.63
,-8.796,-1.871,-4.547,-8.801,-0.895,-4.343,-3.92,-3.15,9.03
23864.0,-9.148,-0.627,-4.066,-8.851,-0.471,-4.523,2.1,-1.89,7.98
,-9.158,-0.235,-4.477,-8.923,-0.483,-4.558,2.45,-2.45,7.14
,-8.902,-0.165,-4.74,-8.839,-0.471,-4.448,0.84,-2.45,6.23
,-8.77,-0.447,-4.508,-8.619,-0.565,-4.341,-0.49,-2.1,5.81
23940.0,-8.748,-0.859,-4.18,-8.93,-0.278,-4.389,-0.42,-3.15,3.08
,-9.064,-0.854,-4.379,-8.521,-0.459,-4.372,0.21,-3.57,2.66
,-9.22,-0.555,-4.355,-8.545,-0.814,-4.204,2.8,-4.2,1.82
,-9.234,-0.366,-4.343,-9.239,-0.969,-3.843,2.17,-4.62,0.56
24016.0,-9.1,-0.694,-4.18,-8.725,-0.916,-4.346,0.28,-5.18,-0.14
,-8.698,-0.467,-4.475,-8.93,-0.816,-4.178,1.4,-4.69,-0.91
,-8.701,-0.57,-4.255,-9.258,-0.9,-3.991,0.84,-3.78,-1.54
,-8.792,-0.766,-4.324,-8.765,-0.945,-4.185,-0.07,-3.85,-1.61
24092.0,-8.179,-1.01,-5.15,-9.43,-0.701,-4.145,-1.12,-5.11,-0.63
,-8.641,-1.017,-4.427,-9.227,-0.84,-4.152,-0.98,-4.34,-1.26
,-9.105,-1.024,-3.963,-8.698,-0.94,-4.386,0.77,-4.27,-1.05
,-9.493,-0.749,-4.058,-8.497,-1.117,-4.523,2.31,-4.9,-1.19
24168.0,-8.739,-1.237,-4.391,-8.892,-0.371,-4.676,0.77,-4.9,0.21
,-9.213,-0.943,-4.216,-9.203,-0.519,-4.491,3.36,-5.18,0.21
,-9.083,-0.481,-4.578,-9.098,-0.665,-4.496,4.41,-6.23,0.0
,-8.715,-0.278,-4.712,-9.799,-0.806,-3.714,3.08,-5.81,-0.42
24244.0,-9.392,-0.445,-4.247,-9.208,-0.933,-4.594,1.05,-9.24,-3.15
,-8.131,-0.814,-4.752,-8.899,-0.876,-4.472,-2.31,-10.57,-3.01
,-8.133,-1.18,-4.803,-8.945,-1.149,-4.089,-1.54,-9.1,-3.15
,-9.06,-1.141,-4.645,-9.081,-1.527,-3.802,1.82,-9.45,-3.57
24320.0,-8.981,-1.61,-3.886,-9.124,-0.861,-4.413,2.66,-6.86,-1.89
,-9.002,-1.62,-4.097,-9.174,-0.727,-4.085,5.95,-5.53,-0.7
,-9.201,-1.452,-4.302,-8.457,-0.321,-4.305,9.31,-4.48,0.49
,-9.43,-1.153,-4.305,-8.177,-0.514,-4.25,11.27,-4.97,1.33
24396.0,-8.873,-1.077,-3.843,-8.99,-0.924,-3.678,-2.38,-14.91,-0.35
,-9.316,-1.326,-3.501,-9.014,-0.507,-3.63,-1.4,-14.21,0.28
,-9.105,-1.369,-3.434,-9.543,-0.404,-3.431,1.05,-13.02,0.63
,-9.184,-1.244,-3.372,-9.143,-0.581,-3.678,4.2,-11.2,0.49
24472.0,-8.897,-1.01,-3.458,-9.737,-0.483,-3.436,6.3,-8.05,1.12
,-8.648,-1.412,-3.331,-9.189,-0.412,-3.793,7.42,-7.0,0.84
,-8.933,-1.34,-3.037,-9.048,-0.699,-4.111,12.18,-6.16,0.56
,-9.464,-0.79,-2.943,-9.072,-0.864,-3.862,15.96,-6.51,0.42
24548.0,-8.954,-0.699,-3.807,-9.21,-1.12,-2.974,5.88,-8.75,-1.61
,-8.928,-0.567,-3.711,-9.677,-1.005,-2.517,7.7,-7.91,-2.45
,-9.201,-0.727,-3.264,-9.454,-0.555,-3.056,6.16,-7.84,-2.73
,-9.258,-0.893,-2.783,-9.028,-0.799,-3.288,5.25,-7.35,-2.17
24624.0,-8.923,-1.369,-3.058,-9.502,-1.335,-3.259,-8.12,-11.2,-2.31
,-8.993,-1.608,-3.072,-9.55,-1.065,-4.137,-8.47,-9.8,-1.89
,-9.139,-1.67,-3.061,-8.926,-0.771,-4.075,-6.02,-8.47,-1.54
,-9.136,-1.548,-3.247,-9.038,-0.845,-4.188,-3.92,-7.77,-1.19
24700.0,-8.875,-1.541,-3.527,-9.378,-0.852,-3.369,-4.83,-6.3,-0.42
,-9.086,-1.778,-2.785,-9.112,-1.029,-3.594,1.26,-2.31,0.14
,-9.55,-1.496,-2.642,-9.076,-1.263,-3.417,9.24,-0.42,0.63
,-9.713,-1.127,-2.862,-9.22,-1.244,-3.053,12.67,-2.03,0.77
24776.0,-9.208,-0.976,-2.816,-9.287,-0.675,-3.295,16.31,1.12,3.15
,-9.363,-0.833,-2.907,-9.136,-1.189,-2.857,16.87,0.14,2.66
,-9.5,-0.4,-3.412,-9.206,-1.139,-2.63,14.14,-2.52,2.03
,-9.45,-0.34,-3.575,-9.342,-0.838,-2.793,9.59,-3.64,1.82
24852.0,-9.509,-0.491,-3.041,-9.026,-0.981,-2.934,18.55,2.1,1.4
,-9.483,-0.428,-3.281,-9.115,-1.254,-2.589,13.02,-0.56,0.84
,-9.349,-0.663,-3.039,-9.34,-1.515,-2.343,6.65,-2.31,0.35
,-9.61,-1.041,-2.982,-9.39,-1.457,-2.041,0.63,-5.53,-1.05
24928.0,-9.349,-1.426,-1.63,-9.172,-1.39,-3.233,1.61,0.28,-0.49
,-9.536,-1.414,-1.878,-9.069,-1.448,-3.398,3.64,1.61,0.14
,-9.39,-1.28,-2.008,-9.162,-1.539,-3.793,5.46,2.8,0.91
,-9.514,-1.144,-2.577,-9.292,-1.46,-3.951,6.09,3.29,1.26
25004.0,-9.349,-1.206,-4.14,-9.136,-1.005,-3.565,19.11,6.3,4.69
,-9.347,-1.146,-4.164,-9.184,-0.991,-3.135,19.67,5.25,4.83
,-9.323,-1.115,-4.022,-9.292,-1.007,-2.735,19.39,4.27,5.04
,-9.241,-1.041,-3.877,-9.351,-0.914,-2.087,19.74,3.29,4.97
25080.0,-9.615,-0.814,-2.257,-9.093,-1.307,-2.395,16.38,2.8,3.85
,-9.507,-0.818,-2.245,-9.273,-1.149,-2.498,13.37,2.94,3.43
,-9.404,-1.048,-2.402,-9.375,-0.83,-2.469,9.24,3.01,2.94
,-9.184,-1.323,-2.467,-9.579,-0.483,-2.551,6.72,3.36,2.73
25156.0,-9.608,-0.407,-2.747,-9.1,-1.505,-4.204,5.25,6.79,1.68
,-9.562,-0.498,-3.276,-9.127,-1.491,-4.238,1.26,6.02,0.91
,-9.363,-0.876,-3.821,-9.246,-1.24,-4.176,-2.38,4.97,0.63
,-9.05,-1.261,-3.908,-9.261,-1.321,-3.977,-3.36,4.48,0.84
25232.0,-9.217,-1.232,-3.635,-9.459,-0.931,-2.496,5.46,2.1,1.82
,-9.198,-1.204,-3.333,-9.567,-0.78,-2.398,6.44,1.96,1.89
,-9.263,-1.122,-3.096,-9.622,-0.677,-2.718,7.7,2.24,2.03
,-9.368,-1.012,-2.747,-9.426,-0.639,-3.166,7.7,2.52,1.89
25308.0,-9.215,-0.893,-3.417,-9.366,-1.084,-3.312,-1.61,2.66,-0.14
,-9.079,-1.254,-3.475,-9.359,-0.96,-3.149,-1.82,2.94,-0.21
,-9.1,-1.345,-3.534,-9.407,-0.802,-3.297,-0.07,3.01,0.0
,-9.155,-1.278,-3.405,-9.318,-0.857,-3.405,2.03,3.64,0.35
25384.0,-9.136,-1.012,-3.498,-9.375,-1.089,-3.113,-0.63,2.8,0.0
,-9.158,-1.23,-3.455,-9.373,-0.756,-3.331,-0.7,3.08,0.21
,-9.15,-1.522,-3.285,-9.289,-0.814,-3.403,0.77,3.71,0.42
,-9.299,-1.443,-3.175,-9.162,-1.034,-3.496,4.2,4.13,0.98
25460.0,-9.217,-1.182,-3.458,-9.162,-1.048,-3.36,1.68,3.29,0.21
,-9.318,-1.194,-3.515,-9.299,-0.909,-3.431,3.01,3.5,0.35
,-9.277,-1.149,-3.472,-9.335,-0.859,-3.434,3.43,3.15,0.49
,-9.246,-1.129,-3.477,-9.366,-0.859,-3.434,3.08,2.73,0.49
25536.0,-9.275,-1.106,-3.52,-9.249,-1.381,-3.072,-1.61,1.75,-0.42
,-9.198,-1.182,-3.565,-9.373,-1.165,-3.008,-1.4,1.75,-0.28
,-9.17,-1.299,-3.532,-9.481,-0.983,-3.293,-0.63,1.89,0.0
,-9.153,-1.441,-3.326,-9.342,-0.936,-3.506,1.4,2.45,0.35
25612.0,-9.225,-1.041,-3.606,-9.258,-1.175,-3.338,1.89,1.61,0.56
,-9.124,-1.153,-3.769,-9.397,-0.967,-3.391,1.75,1.47,0.49
,-9.076,-1.17,-3.69,-9.39,-0.811,-3.441,2.24,1.61,0.63
,-9.167,-1.259,-3.515,-9.265,-0.864,-3.601,3.08,1.75,0.7
25688.0,-9.112,-1.089,-3.642,-9.299,-1.352,-3.242,0.49,0.28,0.28
,-9.158,-1.338,-3.618,-9.27,-1.062,-3.147,0.0,0.21,0.21
,-9.095,-1.536,-3.563,-9.378,-0.816,-3.139,1.12,0.35,0.63
,-9.229,-1.481,-3.439,-9.361,-0.747,-3.23,3.78,0.56,0.98
25764.0,-9.289,-0.866,-3.321,-9.225,-1.309,-3.53,2.17,0.63,0.84
,-9.265,-1.024,-3.463,-9.261,-1.175,-3.357,0.49,0.35,0.56
,-9.203,-1.223,-3.534,-9.313,-1.027,-3.259,0.77,0.35,0.63
,-9.177,-1.283,-3.561,-9.378,-0.938,-3.154,2.52,0.56,0.84
25840.0,-9.318,-0.881,-3.096,-9.165,-1.285,-3.52,3.71,0.49,0.84
,-9.392,-1.017,-3.271,-9.16,-1.328,-3.467,2.03,0.49,0.56
,-9.306,-1.055,-3.41,-9.249,-1.29,-3.396,1.19,0.35,0.42
,-9.275,-1.082,-3.475,-9.213,-1.07,-3.3,0.91,0.14,0.28
25916.0,-9.296,-0.804,-3.147,-9.234,-1.295,-3.518,4.9,0.84,0.77
,-9.337,-0.727,-3.211,-9.165,-1.273,-3.561,2.59,0.63,0.42
,-9.277,-0.933,-3.211,-9.177,-1.163,-3.46,0.35,0.42,0.14
,-9.304,-1.192,-3.336,-9.203,-1.015,-3.259,-0.21,0.56,0.07
25992.0,-9.28,-0.967,-3.099,-9.261,-1.376,-3.381,4.97,1.12,0.7
,-9.359,-0.945,-3.106,-9.215,-1.251,-3.458,3.57,0.84,0.42
,-9.34,-1.146,-3.218,-9.229,-1.161,-3.446,1.33,0.7,0.28
,-9.265,-1.409,-3.278,-9.246,-1.165,-3.446,1.12,0.84,0.49
26068.0,-9.227,-1.206,-3.238,-9.308,-1.046,-3.307,3.78,0.7,1.05
,-9.273,-1.101,-3.245,-9.325,-1.036,-3.336,4.62,0.91,1.26
,-9.282,-1.062,-3.3,-9.232,-1.07,-3.362,4.2,0.7,1.12
,-9.284,-1.01,-3.242,-9.284,-1.07,-3.431,3.22,0.63,1.19
26144.0,-9.263,-1.062,-3.551,-9.292,-1.225,-3.257,1.12,0.14,0.63
,-9.22,-1.134,-3.348,-9.258,-1.189,-3.159,0.42,0.0,0.7
,-9.208,-1.208,-3.25,-9.294,-1.256,-3.19,-0.07,0.0,0.63
,-9.246,-1.244,-3.202,-9.311,-1.163,-3.221,0.42,-0.07,0.77
26220.0,-9.27,-1.125,-3.247,-9.21,-1.184,-3.135,1.75,0.35,1.26
,-9.282,-1.077,-3.283,-9.289,-1.156,-3.037,1.82,0.56,1.4
,-9.28,-1.098,-3.192,-9.316,-1.058,-3.07,1.82,0.98,1.54
,-9.241,-1.113,-3.166,-9.261,-1.015,-2.979,2.1,0.91,1.61
26296.0,-9.208,-1.062,-2.874,-9.459,-0.888,-2.848,3.64,2.94,2.1
,-9.165,-1.12,-2.606,-9.392,-0.873,-3.049,3.92,3.64,2.1
,-9.316,-1.06,-2.685,-9.273,-0.861,-3.168,4.27,4.27,1.96
,-9.351,-1.039,-2.642,-9.229,-0.952,-3.585,3.64,4.9,1.82
26372.0,-9.105,-1.18,-3.723,-9.433,-0.749,-2.869,-3.78,3.71,0.63
,-9.083,-1.414,-3.642,-9.545,-0.428,-3.142,-2.59,4.13,0.91
,-9.088,-1.462,-3.338,-9.488,-0.476,-3.558,0.49,4.62,1.26
,-9.225,-1.165,-3.128,-9.244,-0.852,-3.927,4.83,5.32,1.33
26448.0,-9.081,-1.228,-3.841,-9.744,-0.512,-2.838,-12.81,0.91,-1.05
,-9.012,-1.462,-3.53,-9.474,0.089,-2.781,-11.76,1.61,-0.77
,-9.143,-1.381,-3.25,-9.665,-0.402,-3.539,-8.26,2.66,-0.42
,-9.426,-1.125,-2.441,-9.045,-1.407,-3.764,-5.11,3.43,-0.35
26524.0,-8.949,-1.819,-3.632,-9.311,-0.852,-2.867,-20.86,0.56,-1.33
,-8.875,-1.96,-3.398,-9.538,-0.632,-2.706,-12.46,3.22,-0.56
,-9.038,-1.718,-3.022,-9.521,-0.665,-2.632,-2.38,6.44,0.21
,-9.182,-1.268,-2.876,-9.356,-0.785,-2.625,5.25,8.4,0.84
26600.0,-9.383,-0.849,-2.845,-8.952,-0.983,-3.96,-7.35,4.9,0.63
,-9.086,-0.936,-2.812,-9.227,-1.012,-4.051,-7.49,6.51,0.49
,-9.122,-0.924,-3.163,-8.89,-1.058,-4.183,-7.14,7.28,0.07
,-8.916,-0.967,-3.64,-9.134,-0.842,-3.75,-7.7,6.72,-0.14
26676.0,-9.318,-0.66,-3.879,-9.17,-1.4,-2.659,5.74,7.77,0.07
,-9.026,-0.584,-3.843,-9.407,-0.957,-3.386,5.53,6.23,-0.49
,-9.083,-0.787,-3.905,-9.16,-0.481,-3.735,4.55,6.58,-0.7
,-8.88,-1.369,-3.556,-9.572,-0.223,-4.336,3.85,8.96,0.07
26752.0,-9.146,-0.634,-4.535,-9.646,-0.926,-3.838,-8.26,3.29,-0.91
,-9.069,-0.885,-3.771,-9.107,-1.175,-3.955,-11.06,5.11,-1.47
,-9.05,-0.866,-3.879,-8.873,-1.668,-3.338,-10.15,4.76,-3.01
,-9.115,-0.873,-3.948,-8.753,-1.931,-2.931,-9.94,3.71,-4.06
26828.0,-8.686,-2.024,-2.618,-9.095,-1.95,-3.826,-0.07,9.1,-2.45
,-9.335,-1.783,-3.053,-9.055,-1.831,-3.465,5.81,8.33,-0.56
,-9.263,-1.591,-3.625,-9.036,-1.223,-3.381,7.49,6.86,1.61
,-9.038,-1.637,-3.9,-9.363,-0.715,-3.319,5.53,6.93,2.73
26904.0,-9.397,-0.57,-3.46,-9.093,-0.921,-3.175,0.77,6.3,3.71
,-8.861,-0.816,-3.317,-9.012,-0.61,-3.542,-6.16,6.44,3.71
,-8.622,-0.933,-3.427,-9.232,-0.369,-3.812,-9.31,8.05,2.59
,-8.725,-1.058,-3.151,-9.217,-0.414,-3.855,-7.98,11.06,1.61
26980.0,-9.316,-0.282,-3.652,-8.784,-0.962,-4.372,6.65,13.44,0.77
,-9.567,-0.352,-3.417,-8.906,-1.127,-4.276,7.77,14.14,-0.35
,-9.179,-0.512,-3.759,-9.253,-0.976,-3.898,7.42,13.09,-0.35
,-9.024,-0.668,-4.097,-8.715,-0.596,-4.168,5.53,11.06,0.42
27056.0,-8.646,-0.347,-4.367,-9.337,-1.342,-3.673,0.98,10.71,-3.22
,-8.665,-0.617,-4.458,-9.442,-1.089,-3.396,-2.31,11.9,-3.36
,-8.923,-0.924,-4.312,-8.923,-0.881,-3.912,-4.06,13.58,-3.36
,-9.098,-1.218,-4.049,-8.66,-0.972,-4.145,-3.85,15.19,-3.36
27132.0,-8.966,-1.419,-4.068,-8.717,-1.464,-4.59,1.89,11.97,-1.75
,-9.141,-1.596,-4.161,-8.421,-1.393,-4.556,3.5,11.69,-0.84
,-8.789,-1.752,-4.654,-8.847,-1.326,-3.783,5.74,11.76,-0.77
,-8.835,-1.579,-4.86,-8.945,-1.082,-3.817,8.19,12.25,-0.98
27208.0,-8.861,-0.938,-3.783,-8.696,-0.318,-4.542,3.22,10.22,0.07
,-8.813,-0.639,-4.049,-9.112,-0.191,-4.659,2.73,10.64,0.56
,-9.139,-0.256,-4.145,-9.225,-0.134,-4.798,2.1,8.82,0.49
,-8.66,-0.321,-4.637,-9.134,-0.402,-4.611,0.56,8.68,-0.35
27284.0,-8.866,-0.852,-4.568,-8.634,-2.132,-4.477,2.38,6.72,-4.76
,-8.636,-1.618,-4.085,-9.009,-1.563,-4.477,0.0,7.28,-3.78
,-8.222,-2.146,-4.42,-8.859,-1.338,-4.295,1.89,8.26,-2.66
,-8.303,-2.407,-4.599,-8.849,-1.326,-3.96,7.14,9.03,-2.31
27360.0,-9.179,-1.271,-4.078,-8.157,-0.833,-5.322,16.52,10.15,-2.38
,-9.383,-0.902,-4.527,-8.229,-1.323,-5.365,17.22,8.47,-2.94
,-9.1,-0.577,-4.896,-8.717,-1.608,-5.063,14.91,7.49,-3.08
,-8.571,-0.613,-5.116,-9.134,-1.725,-4.932,12.46,7.56,-2.73
27436.0,-9.6,-1.718,-4.532,-7.892,-1.938,-5.288,14.21,7.07,-4.06
,-8.949,-1.639,-4.616,-8.346,-2.577,-4.905,12.18,5.74,-3.64
,-8.751,-1.699,-4.752,-8.983,-3.135,-4.568,10.92,3.85,-3.29
,-8.284,-1.639,-5.138,-8.969,-2.812,-4.549,8.89,2.45,-1.61
27512.0,-8.921,-1.668,-4.63,-9.165,-0.414,-4.57,16.1,1.61,6.09
,-8.772,-0.818,-4.712,-8.461,-0.328,-4.963,17.22,0.91,4.76
,-9.028,-0.409,-4.896,-8.21,-0.62,-5.14,14.35,0.77,3.29
,-9.115,-0.316,-4.838,-8.413,-1.098,-4.798,12.11,1.05,2.24
27588.0,-8.588,-1.091,-4.649,-9.34,-1.149,-4.587,4.83,-0.98,2.87
,-8.32,-1.096,-4.908,-9.576,-1.385,-4.611,4.41,-1.33,3.08
,-8.536,-1.161,-4.771,-9.856,-1.658,-4.439,3.43,-0.35,2.94
,-8.985,-1.182,-4.482,-9.543,-1.826,-3.999,2.59,0.14,2.17
27664.0,-8.488,-1.718,-4.288,-8.564,-2.123,-4.728,-0.77,-2.66,-0.91
,-7.999,-1.888,-4.515,-8.567,-2.225,-4.494,-1.4,-1.12,-0.7
,-8.354,-1.704,-4.757,-8.378,-2.443,-4.439,-1.54,-0.14,-0.63
,-8.473,-1.9,-4.798,-8.509,-2.302,-4.341,-1.19,0.49,0.35
27740.0,-8.78,-1.551,-4.52,-8.818,-1.46,-4.338,6.23,1.33,5.95
,-8.921,-0.644,-4.913,-8.71,-1.685,-4.145,6.44,0.7,5.11
,-9.031,-0.55,-4.826,-8.485,-1.855,-4.118,3.78,0.21,4.27
,-8.981,-0.974,-4.673,-8.614,-2.032,-4.116,1.05,-0.07,4.13
27816.0,-8.753,-1.933,-4.116,-8.873,-0.957,-4.669,1.89,2.31,8.68
,-8.677,-1.855,-4.334,-8.827,-0.625,-4.791,2.73,1.75,9.38
,-8.641,-1.563,-4.568,-9.124,-0.476,-4.625,3.85,1.33,9.03
,-8.844,-1.139,-4.618,-8.926,-0.4,-4.611,4.97,1.4,8.4
27892.0,-8.473,-0.857,-4.226,-8.902,-1.055,-4.666,3.43,2.38,3.99
,-8.49,-1.012,-4.322,-8.861,-0.459,-5.157,2.31,3.29,4.13
,-8.739,-1.127,-4.53,-8.89,-0.507,-5.152,2.38,3.99,4.34
,-8.918,-1.175,-4.523,-8.964,-0.96,-4.98,3.22,4.34,4.48
27968.0,-8.83,-1.297,-4.994,-8.569,-1.651,-4.527,4.34,3.22,-1.05
,-8.916,-1.63,-4.745,-8.296,-1.249,-4.822,5.39,3.92,-0.77
,-8.856,-1.802,-4.783,-8.667,-0.854,-4.934,5.95,4.41,0.0
,-8.844,-1.919,-4.456,-8.839,-0.593,-4.977,5.67,4.97,0.84
28044.0,-8.894,-0.656,-5.068,-8.634,-1.242,-4.63,-0.14,2.59,0.84
,-9.074,-0.785,-5.051,-8.804,-1.342,-4.518,-1.82,1.61,0.35
,-9.052,-0.883,-4.779,-8.811,-1.29,-4.456,-2.8,1.12,-0.14
,-8.775,-1.029,-4.726,-8.713,-1.436,-4.611,-2.73,1.33,-0.14
28120.0,-8.646,-1.012,-4.86,-8.782,-1.211,-4.188,-2.73,1.75,1.33
,-8.801,-0.648,-5.047,-8.263,-1.96,-4.178,-2.66,1.05,0.7
,-8.882,-0.759,-4.898,-8.378,-2.056,-4.243,-5.67,0.42,0.28
,-9.06,-0.792,-4.513,-8.83,-1.845,-4.472,-8.89,-0.56,0.21
28196.0,-9.227,-1.378,-4.602,-8.751,-0.656,-4.786,-3.99,-0.21,3.36
,-9.182,-1.0,-4.805,-8.715,-0.634,-4.621,-1.54,-0.98,2.8
,-9.002,-0.735,-4.824,-8.729,-0.574,-4.745,-2.31,-1.54,2.31
,-8.882,-0.747,-4.805,-8.748,-0.759,-4.848,-3.78,-1.26,1.96
28272.0,-8.849,-1.129,-4.728,-8.806,-1.881,-4.671,-7.84,-1.4,0.77
,-8.804,-1.407,-4.585,-8.449,-1.965,-4.85,-7.35,-1.68,1.26
,-8.859,-1.577,-4.563,-8.476,-2.204,-4.819,-5.95,-2.24,1.33
,-9.016,-1.847,-4.413,-8.658,-2.201,-4.666,-4.69,-2.52,1.33
28348.0,-8.425,-2.01,-4.886,-8.772,-0.907,-4.609,1.26,-4.13,8.12
,-8.562,-1.776,-4.704,-8.844,-0.866,-4.326,3.15,-3.99,8.26
,-8.928,-1.438,-4.585,-9.213,-0.708,-4.259,4.2,-3.85,7.91
,-9.055,-1.027,-4.669,-8.926,-0.481,-4.602,4.69,-3.64,7.49
28424.0,-8.509,-0.369,-4.709,-9.064,-0.593,-4.482,4.27,-4.97,6.65
,-8.607,-0.361,-4.7,-9.215,-0.287,-4.279,4.9,-4.48,6.3
,-8.882,-0.438,-4.7,-9.028,-0.156,-4.348,5.95,-4.13,5.46
,-8.995,-0.589,-4.645,-8.885,-0.376,-4.223,7.98,-3.85,4.34
28500.0,-9.072,-0.285,-4.178,-9.016,-0.34,-4.348,6.02,-5.25,1.12
,-8.646,-0.237,-4.566,-8.945,-0.579,-4.377,3.85,-7.07,0.84
,-8.543,-0.256,-4.446,-8.861,-0.799,-4.346,1.89,-6.86,-0.35
,-8.784,-0.294,-4.424,-9.007,-0.905,-4.173,0.91,-6.23,-1.61
28576.0,-8.813,-0.684,-4.104,-8.765,-0.972,-4.53,-1.33,-7.14,-3.22
,-8.634,-1.187,-3.666,-8.753,-1.385,-4.307,1.12,-7.14,-3.78
,-8.871,-0.768,-4.745,-8.801,-1.505,-4.171,3.64,-7.77,-3.29
,-9.007,-0.727,-4.649,-8.928,-1.385,-4.221,2.59,-7.56,-3.43
28652.0,-8.847,-1.359,-4.245,-9.057,-0.725,-4.19,4.62,-4.2,-2.45
,-8.916,-1.314,-4.128,-8.76,-0.658,-4.42,5.81,-3.15,-1.82
,-9.122,-1.146,-4.022,-8.696,-0.725,-4.42,6.58,-2.45,-1.75
,-9.179,-0.986,-4.018,-8.614,-0.861,-4.503,6.37,-3.5,-1.61
28728.0,-8.909,-0.986,-4.298,-8.796,-1.472,-4.396,0.21,-6.23,-1.47
,-8.988,-1.012,-4.451,-8.851,-1.496,-4.252,1.19,-6.37,-1.19
,-8.993,-1.108,-4.429,-8.873,-1.51,-4.087,1.4,-6.23,-0.91
,-8.811,-1.261,-4.463,-8.995,-1.309,-4.099,1.96,-4.97,-0.7
28804.0,-9.014,-1.318,-4.147,-8.794,-1.417,-4.092,6.51,-5.04,2.38
,-9.153,-1.374,-4.212,-8.885,-1.228,-3.898,3.43,-7.7,2.94
,-9.1,-1.5,-4.19,-8.851,-0.967,-3.963,1.33,-9.73,3.22
,-8.894,-1.529,-4.207,-8.775,-0.704,-4.037,1.61,-10.36,3.36
28880.0,-9.253,-0.644,-3.922,-8.966,-0.694,-3.75,7.63,-5.67,3.43
,-9.182,-0.486,-4.051,-9.299,-0.773,-3.379,6.02,-7.14,2.94
,-8.954,-0.306,-4.032,-9.49,-0.861,-3.372,3.5,-8.4,2.17
,-8.945,-0.383,-3.838,-9.055,-0.773,-3.455,0.98,-8.12,1.33
28956.0,-8.885,-0.905,-3.257,-9.249,-1.034,-3.448,-6.65,-12.67,-0.56
,-8.866,-1.173,-3.369,-9.122,-0.981,-4.03,-7.42,-11.69,-0.28
,-9.048,-1.338,-3.226,-9.012,-1.043,-3.939,-5.81,-10.29,-0.56
,-9.184,-1.228,-3.118,-9.064,-1.232,-3.896,-1.96,-8.75,-0.49
29032.0,-8.909,-1.161,-3.666,-8.993,-0.759,-3.307,0.84,-9.31,-0.21
,-9.328,-0.919,-3.546,-9.177,-0.928,-3.398,3.15,-9.24,-1.19
,-9.39,-0.653,-3.211,-9.38,-0.737,-3.484,0.98,-10.36,-1.68
,-9.107,-0.514,-3.484,-9.287,-0.409,-3.874,-3.71,-11.69,-1.12
29108.0,-8.957,-0.278,-3.479,-9.162,-1.173,-3.281,-8.61,-11.83,-1.54
,-9.179,-0.514,-3.563,-9.268,-1.405,-3.113,-11.06,-12.11,-2.45
,-9.292,-0.759,-3.113,-9.325,-1.342,-2.955,-11.9,-12.95,-3.29
,-9.191,-0.84,-3.18,-9.325,-1.381,-2.788,-13.09,-13.51,-4.2
29184.0,-9.165,-1.039,-2.515,-9.194,-1.565,-3.214,-8.96,-10.57,-3.71
,-9.112,-1.184,-2.62,-9.139,-1.515,-3.106,-11.62,-10.08,-3.5
,-9.117,-1.402,-2.589,-9.105,-1.598,-3.001,-12.04,-8.61,-3.01
,-9.325,-1.498,-2.675,-9.155,-1.352,-2.481,-9.94,-7.28,-2.24
29259.0,-9.301,-0.981,-2.379,-9.072,-0.481,-4.092,14.35,3.85,2.03
,-9.447,-0.39,-2.412,-9.074,-0.816,-4.015,18.34,5.04,1.96
,-9.55,0.062,-2.907,-9.134,-0.747,-4.331,18.2,4.34,1.54
,-9.43,0.029,-3.953,-9.246,-0.725,-3.75,14.0,2.8,1.12
29334.0,-9.273,-0.761,-3.699,-9.325,-1.768,-2.8,14.84,4.06,-0.14
,-9.258,-1.211,-3.503,-9.378,-1.476,-2.759,11.48,3.5,-0.63
,-9.371,-1.816,-3.314,-9.363,-1.218,-2.714,10.92,3.64,-0.63
,-9.182,-2.072,-2.95,-9.462,-1.098,-2.898,13.58,4.27,0.07
29409.0,-9.323,-1.187,-2.862,-9.371,-1.247,-2.929,12.32,4.83,1.96
,-9.232,-1.283,-2.857,-9.562,-1.034,-3.419,10.78,4.48,1.89
,-9.162,-1.314,-2.886,-9.378,-0.838,-3.85,10.99,4.62,2.03
,-9.244,-1.388,-3.041,-9.325,-0.73,-4.312,13.58,5.67,2.59
29484.0,-9.048,-0.981,-4.386,-9.407,-1.065,-3.072,9.94,1.96,2.8
,-8.868,-1.455,-4.037,-9.608,-0.866,-3.005,8.89,2.45,3.01
,-9.007,-1.596,-3.79,-9.45,-0.854,-2.733,11.97,3.36,3.01
,-9.213,-1.419,-3.506,-9.476,-0.888,-3.063,15.75,3.85,3.08
29559.0,-9.244,-1.0,-3.326,-9.249,-1.0,-3.345,11.55,2.38,2.1
,-9.083,-1.029,-3.436,-9.249,-0.763,-3.326,10.5,2.52,1.89
,-9.083,-1.113,-3.475,-9.268,-0.584,-3.178,9.52,2.66,1.54
,-9.033,-1.228,-3.324,-9.414,-0.517,-3.226,9.03,2.87,1.4
29634.0,-9.215,-0.646,-3.202,-9.332,-1.508,-2.592,0.42,1.68,-0.91
,-9.232,-0.792,-3.092,-9.423,-1.366,-2.615,-1.19,2.03,-1.05
,-9.217,-1.077,-2.967,-9.421,-1.058,-2.888,-1.82,2.52,-1.33
,-9.234,-1.405,-2.745,-9.292,-0.931,-3.333,-0.42,3.78,-1.12
29709.0,-9.122,-1.067,-3.52,-9.167,-1.323,-3.814,-0.35,5.04,-0.91
,-9.052,-1.307,-3.616,-9.182,-1.213,-3.752,-1.61,5.18,-0.7
,-9.103,-1.45,-3.649,-9.196,-1.101,-3.814,0.0,5.32,-0.56
,-9.143,-1.491,-3.786,-9.215,-1.022,-3.814,2.59,5.46,-0.35
29784.0,-9.215,-1.007,-3.745,-9.277,-1.254,-3.774,5.46,3.99,0.35
,-9.232,-1.151,-3.743,-9.232,-1.108,-3.948,3.92,3.71,0.28
,-9.194,-1.311,-3.656,-9.158,-1.187,-3.994,3.15,3.36,0.21
,-9.229,-1.34,-3.69,-9.1,-1.256,-4.171,3.36,3.22,0.35
29859.0,-9.007,-1.278,-4.168,-9.141,-1.414,-3.118,3.57,0.14,0.7
,-8.995,-1.342,-4.049,-9.445,-1.067,-3.183,4.13,-0.28,0.7
,-9.06,-1.402,-3.86,-9.246,-0.916,-3.144,4.41,-0.49,0.84
,-9.079,-1.488,-3.57,-9.27,-0.869,-3.056,5.11,-0.28,1.12
29934.0,-9.304,-1.07,-3.068,-9.131,-1.213,-3.384,1.05,0.07,0.84
,-9.289,-1.146,-3.082,-9.088,-1.354,-3.34,0.77,0.56,0.7
,-9.332,-1.168,-3.269,-9.222,-1.326,-3.295,0.98,0.56,0.56
,-9.258,-1.175,-3.412,-9.244,-1.065,-3.317,0.91,0.7,0.56
30009.0,-9.328,-0.948,-3.47,-9.143,-1.455,-3.577,2.87,1.75,0.77
,-9.22,-0.974,-3.561,-9.256,-1.412,-3.532,0.56,1.33,0.49
,-9.141,-1.046,-3.64,-9.318,-1.352,-3.601,-0.98,0.98,0.42
,-9.146,-1.28,-3.683,-9.304,-1.232,-3.769,-1.33,1.12,0.35
30084.0,-9.153,-1.125,-3.886,-9.198,-1.266,-3.072,1.82,0.14,1.12
,-9.055,-1.177,-3.771,-9.354,-1.06,-2.852,1.61,0.0,1.33
,-9.04,-1.29,-3.704,-9.375,-1.067,-2.871,1.61,0.14,1.33
,-9.124,-1.316,-3.463,-9.43,-1.029,-3.013,2.87,0.49,1.4
30159.0,-9.316,-1.053,-3.259,-9.146,-1.338,-3.429,0.21,1.26,0.98
,-9.189,-1.103,-3.498,-9.265,-1.117,-3.396,-0.84,1.26,0.77
,-9.048,-1.251,-3.628,-9.428,-0.881,-3.431,-0.77,1.54,0.84
,-9.107,-1.354,-3.606,-9.344,-0.797,-3.609,0.7,1.96,1.05
30234.0,-9.225,-0.981,-3.843,-9.215,-1.338,-3.599,0.14,0.91,0.7
,-9.04,-1.318,-3.927,-9.227,-1.165,-3.317,-0.77,0.63,0.56
,-8.997,-1.481,-3.972,-9.33,-0.964,-3.25,0.49,0.49,0.7
,-9.153,-1.493,-3.857,-9.299,-0.852,-3.195,2.94,0.7,0.98
30309.0,-9.32,-0.881,-3.403,-9.172,-1.204,-3.329,1.26,0.49,0.7
,-9.227,-1.11,-3.443,-9.265,-1.163,-3.257,-0.63,0.49,0.56
,-9.167,-1.223,-3.352,-9.299,-1.156,-3.23,-0.35,1.05,0.63
,-9.141,-1.242,-3.396,-9.311,-1.072,-3.429,0.91,1.19,0.7
30384.0,-9.232,-1.039,-3.664,-9.172,-1.223,-3.506,1.89,1.47,0.49
,-9.141,-1.101,-3.723,-9.258,-1.187,-3.415,1.05,1.26,0.49
,-9.141,-1.235,-3.735,-9.349,-1.134,-3.364,1.33,1.26,0.49
,-9.127,-1.225,-3.652,-9.301,-1.036,-3.431,2.17,1.12,0.56
30459.0,-9.246,-0.94,-3.498,-9.206,-1.213,-3.534,3.15,0.91,0.63
,-9.196,-1.072,-3.585,-9.194,-1.182,-3.446,2.17,0.98,0.42
,-9.148,-1.168,-3.551,-9.196,-1.177,-3.362,1.4,0.98,0.35
,-9.174,-1.192,-3.539,-9.261,-1.055,-3.393,2.03,0.98,0.42
30534.0,-9.222,-1.027,-3.479,-9.184,-1.307,-3.491,2.87,0.98,0.42
,-9.177,-1.005,-3.518,-9.217,-1.436,-3.352,1.75,0.77,0.14
,-9.249,-1.05,-3.58,-9.227,-1.385,-3.405,0.84,0.56,-0.07
,-9.229,-1.187,-3.594,-9.229,-1.216,-3.458,0.42,0.7,0.07
30609.0,-9.261,-1.161,-3.542,-9.256,-1.108,-3.573,4.27,0.84,0.84
,-9.217,-1.182,-3.723,-9.251,-1.058,-3.537,3.85,0.63,0.77
,-9.143,-1.251,-3.553,-9.189,-1.079,-3.575,3.85,0.77,0.91
,-9.215,-1.139,-3.623,-9.174,-1.153,-3.484,4.27,0.84,0.98
30684.0,-9.141,-1.206,-3.434,-9.284,-1.295,-3.281,3.08,0.21,0.84
,-9.253,-1.251,-3.424,-9.21,-1.266,-3.314,3.71,0.14,0.84
,-9.268,-1.182,-3.489,-9.206,-1.232,-3.276,3.92,0.0,0.91
,-9.268,-1.158,-3.458,-9.239,-1.153,-3.41,3.57,0.0,0.91
30759.0,-9.249,-1.165,-3.51,-9.277,-1.074,-3.58,3.71,0.14,1.12
,-9.196,-1.115,-3.498,-9.229,-1.144,-3.51,3.64,0.21,1.12
,-9.234,-1.12,-3.51,-9.256,-1.29,-3.537,3.43,0.0,1.26
,-9.201,-1.096,-3.527,-9.239,-1.273,-3.549,3.64,-0.28,1.12
30834.0,-9.275,-1.251,-3.594,-9.191,-1.184,-3.632,3.5,-0.56,1.19
,-9.284,-1.134,-3.644,-9.139,-1.189,-3.534,3.57,-1.05,1.33
,-9.208,-1.11,-3.647,-9.241,-1.194,-3.503,2.45,-1.47,1.33
,-9.186,-1.163,-3.549,-9.275,-1.189,-3.463,2.03,-1.54,1.33
30909.0,-9.227,-1.204,-3.362,-9.294,-1.132,-3.113,2.73,-2.66,1.19
,-9.268,-1.137,-3.242,-9.289,-1.151,-3.216,2.38,-2.38,1.26
,-9.253,-1.103,-3.202,-9.246,-1.225,-3.281,2.1,-2.1,1.33
,-9.277,-1.151,-3.111,-9.217,-1.273,-3.254,1.96,-1.75,1.4
30984.0,-9.258,-1.23,-3.113,-9.201,-0.986,-2.831,3.01,-1.4,1.68
,-9.378,-1.139,-2.938,-9.16,-1.043,-2.678,3.08,-1.26,1.47
,-9.488,-0.998,-2.929,-9.39,-0.9,-2.592,0.98,-1.96,0.91
,-9.311,-0.945,-2.883,-9.564,-0.639,-2.845,-1.4,-2.24,0.98
31059.0,-9.49,-0.471,-3.072,-9.579,-0.627,-2.577,-5.46,-0.28,-0.49
,-9.232,-0.526,-3.022,-9.543,-0.148,-2.953,-10.43,-1.12,-0.84
,-9.019,-0.814,-2.769,-9.411,-0.258,-3.321,-13.3,-0.7,-0.98
,-9.131,-1.012,-2.254,-9.361,-1.4,-3.396,-11.48,1.4,-0.98
31134.0,-9.119,-2.17,-3.36,-9.299,-1.213,-3.467,-21.42,-2.03,-3.01
,-8.971,-2.182,-3.154,-9.244,-1.094,-3.747,-14.91,-1.33,-2.52
,-9.131,-1.943,-3.472,-9.225,-0.974,-3.331,-8.68,-0.35,-2.1
,-8.792,-1.718,-3.142,-9.471,-1.108,-3.393,-5.25,1.68,-1.19
31209.0,-9.351,-1.299,-3.218,-9.127,-1.462,-2.474,-9.03,1.4,0.14
,-9.21,-1.022,-3.096,-9.282,-1.228,-2.446,-8.26,0.56,0.56
,-8.983,-1.163,-3.357,-9.373,-1.122,-2.52,-8.96,0.49,0.42
,-8.849,-1.505,-2.97,-9.457,-1.029,-2.508,-6.93,3.08,0.7
31284.0,-9.519,-0.833,-2.962,-9.11,-0.043,-3.154,6.51,10.08,2.24
,-9.225,-0.596,-3.285,-9.418,-0.168,-3.479,6.65,9.94,1.54
,-9.22,-0.189,-2.998,-9.265,-0.72,-3.537,7.91,11.27,0.63
,-9.227,-0.031,-3.417,-9.16,-1.134,-3.833,7.0,11.48,-0.56
31359.0,-9.0,-1.452,-3.905,-9.17,-1.094,-2.814,0.0,10.01,-3.15
,-8.892,-1.476,-3.52,-9.373,-1.012,-3.218,3.71,12.39,-3.15
,-8.942,-1.323,-3.142,-9.225,-0.955,-3.003,8.05,14.77,-3.22
,-9.007,-1.223,-3.025,-9.016,-1.216,-3.329,9.8,15.75,-3.22
31434.0,-8.713,-1.658,-3.096,-9.093,-1.05,-4.037,3.92,18.62,-1.47
,-9.112,-1.74,-2.905,-9.081,-1.223,-4.197,6.65,20.44,-0.63
,-9.308,-1.601,-2.812,-8.574,-1.225,-4.259,9.52,19.53,-0.28
,-9.447,-1.184,-3.333,-8.629,-0.737,-3.917,9.8,16.1,-0.49
31509.0,-9.323,-0.146,-4.379,-8.595,-1.692,-3.477,1.54,14.98,-4.55
,-9.361,-0.053,-4.939,-9.036,-2.079,-3.391,-2.17,11.97,-5.53
,-9.136,-0.309,-4.771,-9.122,-2.278,-3.587,-9.03,11.34,-5.6
,-8.617,-1.007,-4.3,-9.251,-2.285,-3.587,-13.58,12.67,-5.32
31584.0,-8.942,-2.525,-3.719,-9.277,-0.242,-4.544,3.22,16.59,0.07
,-8.799,-2.345,-3.711,-9.105,-0.129,-4.968,7.21,18.34,0.63
,-8.658,-1.706,-3.908,-8.744,-0.739,-4.762,11.9,19.04,0.98
,-8.918,-0.912,-4.168,-8.531,-1.498,-4.221,14.14,17.92,1.12
31659.0,-8.466,-1.957,-3.881,-9.05,-0.871,-4.247,-5.88,14.14,0.28
,-8.72,-1.871,-3.74,-8.839,-1.168,-4.48,0.21,15.19,-0.28
,-9.043,-1.333,-3.922,-8.792,-1.467,-4.75,6.23,14.49,-0.98
,-9.165,-0.912,-3.975,-8.667,-1.491,-4.795,7.91,14.07,-1.19
31734.0,-8.519,-1.347,-4.848,-8.574,-2.065,-4.355,2.24,11.34,0.35
,-8.82,-1.393,-4.642,-8.792,-2.017,-4.145,1.4,9.52,0.28
,-8.768,-1.527,-4.554,-8.758,-1.584,-4.125,-1.61,7.49,0.77
,-8.547,-1.814,-4.436,-8.945,-1.211,-4.326,-3.01,8.47,1.68
31809.0,-9.069,-0.778,-4.786,-8.275,0.187,-5.236,6.72,8.4,3.78
,-9.182,-0.548,-4.819,-8.363,-0.213,-4.896,4.76,7.28,3.15
,-9.019,-0.223,-5.037,-8.873,-0.814,-4.47,3.78,4.55,2.87
,-8.406,0.194,-5.339,-9.481,-1.228,-4.166,2.38,3.15,1.12
31884.0,-9.143,-1.481,-3.79,-8.459,-2.123,-4.781,1.33,7.07,-1.26
,-8.758,-2.144,-3.75,-8.605,-1.608,-4.805,2.17,7.56,-0.77
,-8.792,-2.599,-4.02,-8.698,-1.127,-4.831,5.25,6.65,0.77
,-8.557,-2.486,-4.398,-8.796,-0.715,-4.822,9.1,5.18,2.1
31959.0,-8.938,-0.416,-4.681,-8.741,-1.972,-4.07,7.91,6.37,-2.31
,-8.88,-0.419,-4.625,-8.624,-2.268,-4.267,3.5,5.81,-1.89
,-8.409,-0.952,-4.769,-8.452,-2.254,-4.302,0.07,6.23,-1.19
,-8.397,-1.452,-4.472,-8.827,-1.567,-4.669,0.28,7.42,-0.7
32034.0,-8.93,-1.376,-4.853,-9.04,-0.608,-4.855,11.27,5.6,4.2
,-9.024,-0.878,-5.039,-8.794,-0.4,-5.451,11.41,5.11,3.5
,-9.05,-0.723,-5.14,-8.344,-0.759,-5.482,8.61,4.41,2.8
,-8.897,-0.68,-5.281,-8.284,-1.46,-4.812,5.32,3.99,2.24
32109.0,-8.459,-2.168,-4.606,-8.727,-1.862,-4.884,-0.91,3.5,1.68
,-8.703,-2.551,-4.681,-8.634,-1.383,-4.862,2.59,3.08,3.36
,-8.954,-2.682,-4.858,-9.014,-0.744,-5.044,7.42,3.15,4.41
,-9.21,-2.3,-4.47,-8.863,-0.692,-5.456,10.01,3.08,5.32
32184.0,-8.557,-1.055,-5.441,-8.713,-1.543,-4.824,8.33,-0.98,3.78
,-8.217,-1.256,-5.257,-9.184,-1.388,-4.604,7.07,-1.4,4.48
,-7.985,-1.311,-5.13,-8.911,-1.287,-4.501,5.88,-1.47,5.11
,-8.143,-1.51,-5.145,-8.878,-1.228,-4.506,4.9,-1.12,5.67
32259.0,-9.064,-1.096,-4.57,-8.229,-0.768,-5.073,4.48,-2.38,4.97
,-9.052,-1.108,-4.578,-7.739,-1.807,-5.087,5.32,-2.94,4.62
,-8.827,-0.637,-5.042,-8.033,-1.615,-4.468,6.72,-4.13,4.27
,-8.686,-0.431,-5.205,-8.777,-1.536,-4.417,4.97,-4.76,4.69
32334.0,-9.308,-1.823,-3.855,-8.701,-1.07,-4.346,3.43,1.4,8.33
,-9.162,-1.551,-4.039,-8.784,-0.955,-4.59,4.83,1.05,8.68
,-8.734,-1.462,-4.214,-9.012,-0.83,-4.702,3.36,0.63,8.33
,-8.442,-1.35,-4.448,-9.505,-1.053,-4.637,3.08,1.26,8.12
32409.0,-9.454,-1.275,-4.549,-8.023,-0.785,-4.86,3.29,2.31,6.58
,-9.256,-1.407,-4.35,-8.849,-0.536,-4.972,5.67,1.96,6.58
,-8.768,-1.441,-4.106,-9.311,-0.639,-4.822,6.65,1.33,6.93
,-7.944,-1.304,-4.623,-9.04,-0.701,-4.896,6.44,1.82,7.14
32484.0,-8.739,-0.455,-5.042,-8.571,-1.601,-4.31,7.84,3.78,1.47
,-8.71,-0.756,-4.707,-8.689,-1.388,-4.417,5.74,4.34,0.91
,-8.849,-1.283,-4.398,-8.665,-1.034,-4.645,4.06,4.55,1.05
,-8.547,-1.579,-4.324,-8.66,-0.751,-5.037,4.27,4.69,1.4
32559.0,-8.801,-0.706,-5.087,-8.775,-0.062,-4.826,6.86,7.49,2.38
,-8.988,-0.735,-5.068,-8.49,-0.124,-5.011,7.14,8.33,1.75
,-9.304,-0.531,-4.834,-8.512,-0.426,-5.027,7.7,7.77,1.33
,-9.179,-0.196,-4.8,-8.746,-0.799,-5.025,5.95,6.44,0.56
32634.0,-8.993,-1.034,-4.834,-8.99,-0.251,-5.475,-8.61,4.62,-1.96
,-8.892,-0.921,-4.987,-9.062,-0.579,-5.391,-7.98,4.06,-2.24
,-8.67,-0.61,-5.229,-8.878,-1.003,-5.226,-7.07,3.43,-3.01
,-8.765,-0.397,-5.221,-8.703,-1.17,-4.958,-7.0,2.66,-4.13
32709.0,-8.681,-1.046,-5.035,-8.981,-1.508,-5.066,-12.6,-2.17,-3.01
,-8.605,-1.077,-5.138,-8.768,-1.912,-5.233,-11.9,-3.92,-3.57
,-8.528,-1.113,-5.2,-8.732,-2.273,-5.102,-12.04,-4.48,-3.99
,-8.789,-1.426,-5.118,-8.806,-2.357,-4.98,-13.79,-4.27,-3.29
32784.0,-8.825,-2.4,-4.728,-8.631,-1.788,-4.762,-4.83,-6.37,1.47
,-8.643,-2.319,-4.621,-8.629,-1.79,-4.86,-2.45,-7.0,2.94
,-8.303,-2.127,-4.702,-8.603,-1.589,-4.917,-1.33,-7.14,4.13
,-8.38,-1.857,-4.85,-8.691,-1.29,-4.752,-0.98,-6.93,5.46
32859.0,-8.772,-0.974,-4.896,-8.672,-0.211,-4.872,2.1,-8.75,7.63
,-9.033,-0.79,-4.946,-7.76,-0.522,-5.03,4.2,-8.26,5.81
,-9.378,-0.821,-4.611,-8.2,-0.639,-4.807,5.81,-7.42,4.76
,-9.768,-0.445,-4.027,-9.162,-0.62,-4.293,6.44,-8.96,4.83
32934.0,-9.342,-0.311,-4.202,-8.524,-0.304,-4.616,13.3,-9.38,0.98
,-9.064,-0.007,-4.408,-8.33,-0.385,-4.219,14.35,-8.4,0.42
,-9.323,-0.014,-4.133,-8.464,-0.421,-4.104,11.69,-7.56,0.0
,-9.344,-0.065,-4.281,-8.921,-0.493,-3.877,7.49,-10.36,-0.35
33009.0,-9.072,-0.548,-3.924,-8.842,-1.723,-3.97,2.1,-13.58,-3.99
,-8.77,-0.61,-4.159,-8.978,-1.441,-3.944,-0.98,-13.86,-3.36
,-8.765,-0.878,-4.066,-9.366,-1.05,-3.695,-3.92,-13.16,-2.73
,-8.823,-2.0,-2.922,-9.067,-0.699,-3.927,-3.99,-10.36,-3.22
33084.0,-8.624,-0.826,-3.987,-9.033,-0.388,-4.123,3.99,-8.54,-1.19
,-8.765,-0.936,-3.8,-8.964,-0.486,-4.3,0.28,-9.52,-1.05
,-8.76,-0.916,-4.039,-9.038,-0.902,-4.152,-0.84,-9.87,-0.91
,-8.906,-0.794,-3.936,-8.985,-1.228,-4.145,0.14,-10.01,-0.91
33159.0,-9.0,-1.448,-4.118,-9.16,-1.591,-3.884,-1.33,-8.47,-2.87
,-8.935,-1.486,-4.078,-8.823,-1.474,-3.917,2.38,-6.93,-2.87
,-8.949,-1.551,-3.975,-8.526,-1.23,-4.022,5.67,-5.32,-2.1
,-9.368,-1.687,-3.709,-8.82,-1.091,-3.934,7.42,-5.25,-1.54
33234.0,-9.172,-1.058,-3.802,-8.961,-1.622,-3.472,5.18,-6.72,2.1
,-9.356,-0.969,-3.81,-9.249,-1.101,-3.455,1.19,-9.87,2.45
,-8.897,-1.194,-3.735,-9.179,-0.419,-3.599,-2.45,-10.78,2.87
,-8.801,-1.498,-3.611,-9.304,-0.196,-3.841,-1.89,-9.73,2.87
33309.0,-9.222,-0.309,-4.166,-9.258,-0.766,-3.35,4.41,-11.2,2.1
,-8.734,-0.613,-4.142,-9.239,-0.574,-3.549,1.26,-11.13,1.82
,-8.808,-1.005,-3.829,-9.107,-0.821,-3.446,0.14,-9.94,1.19
,-9.062,-1.034,-3.345,-9.016,-1.249,-3.374,2.24,-9.45,0.0
33384.0,-9.009,-1.622,-3.23,-9.174,-0.287,-3.525,2.24,-3.22,1.19
,-9.284,-1.481,-2.943,-9.15,-0.309,-3.601,7.07,-1.33,0.98
,-9.698,-1.0,-3.029,-9.174,-0.395,-3.374,9.52,-3.43,0.63
,-9.222,-0.44,-3.4,-8.954,-0.677,-3.056,7.56,-5.74,0.91
33459.0,-9.093,-0.83,-3.037,-9.201,-1.046,-3.546,-1.61,-0.21,-1.61
,-9.194,-0.794,-3.142,-9.237,-1.314,-3.453,0.28,0.0,-1.96
,-9.129,-0.737,-3.197,-8.866,-1.414,-3.549,1.19,0.14,-1.96
,-9.337,-0.665,-3.393,-9.005,-1.299,-3.776,1.54,0.98,-1.75
33534.0,-9.203,-1.106,-3.762,-9.122,-1.78,-2.931,2.17,-3.85,-2.66
,-9.311,-1.077,-3.762,-9.1,-1.531,-2.905,1.19,-4.13,-2.17
,-9.208,-1.316,-3.57,-9.251,-1.182,-3.235,-0.84,-3.64,-1.4
,-9.153,-1.646,-3.049,-9.225,-0.89,-3.216,0.07,-1.47,-0.77
33609.0,-9.201,-0.981,-3.336,-9.256,-1.153,-3.183,8.54,2.66,1.19
,-9.301,-1.058,-3.64,-9.299,-1.07,-3.348,8.75,2.94,1.4
,-8.981,-1.165,-3.467,-9.392,-1.153,-3.321,8.96,3.92,1.75
,-9.012,-1.218,-3.276,-9.296,-1.165,-3.278,10.43,5.11,1.96
33684.0,-9.366,-1.139,-3.542,-9.435,-0.572,-3.62,13.58,2.87,2.1
,-9.143,-0.881,-3.558,-9.28,-0.771,-3.558,14.77,2.87,1.89
,-9.155,-0.593,-3.431,-9.354,-0.972,-3.549,13.86,2.73,1.05
,-9.225,-0.519,-3.206,-9.201,-1.189,-3.599,10.99,2.59,0.21
33759.0,-8.978,-1.199,-3.393,-9.514,-1.11,-2.984,7.7,1.33,-0.63
,-9.177,-1.192,-3.185,-9.323,-1.146,-3.405,10.43,2.17,-0.49
,-9.198,-1.113,-2.773,-9.079,-1.333,-3.587,11.55,2.87,-0.14
,-9.426,-1.129,-2.572,-8.983,-1.603,-3.69,10.99,3.36,-0.14
33834.0,-8.918,-1.682,-3.666,-9.395,-0.976,-3.206,8.19,3.01,0.42
,-9.06,-1.555,-3.412,-9.474,-0.754,-3.575,12.32,3.99,0.84
,-9.287,-1.354,-3.233,-9.294,-0.715,-4.097,15.12,4.55,1.19
,-9.399,-1.141,-3.175,-9.002,-0.849,-4.618,15.54,4.55,1.47
33909.0,-8.684,-1.228,-4.506,-9.471,-0.747,-3.187,3.15,0.07,-0.21
,-8.775,-1.503,-4.152,-9.476,-0.639,-3.264,5.25,0.77,0.0
,-8.918,-1.519,-3.597,-9.304,-0.979,-3.482,8.82,1.54,0.35
,-9.366,-1.151,-3.364,-9.009,-1.498,-3.436,11.83,1.4,0.42
33984.0,-9.06,-1.795,-3.331,-9.344,-0.826,-3.197,1.4,0.77,-0.28
,-9.148,-1.814,-2.984,-9.203,-1.043,-3.278,5.53,1.82,0.28
,-9.361,-1.397,-3.041,-9.064,-1.29,-3.448,8.54,2.1,0.7
,-9.335,-0.907,-3.013,-9.05,-1.374,-3.582,8.05,1.82,0.49
34059.0,-8.993,-1.328,-3.522,-9.256,-0.993,-3.812,2.17,2.87,0.07
,-9.038,-1.326,-3.23,-9.139,-1.182,-4.106,3.22,3.43,0.42
,-9.27,-1.285,-3.312,-9.019,-1.419,-4.197,3.78,3.36,0.56
,-9.251,-1.144,-3.479,-8.93,-1.651,-4.221,3.43,2.94,0.63
34134.0,-8.969,-1.955,-3.774,-9.222,-0.972,-3.415,1.33,1.12,1.19
,-9.179,-1.938,-3.486,-9.172,-1.11,-3.412,5.18,1.26,1.89
,-9.349,-1.553,-3.405,-9.21,-1.261,-3.501,7.98,0.91,2.31
,-9.385,-1.062,-3.391,-9.206,-1.34,-3.518,7.42,0.28,2.24
34209.0,-9.15,-1.163,-3.501,-9.16,-1.29,-3.362,4.83,1.12,2.52
,-9.234,-1.039,-3.513,-9.198,-1.247,-3.362,5.32,1.12,2.52
,-9.17,-1.077,-3.458,-9.186,-1.101,-3.436,4.9,1.26,2.52
,-9.21,-1.223,-3.364,-9.21,-1.017,-3.542,4.34,1.26,2.59
34284.0,-9.16,-1.041,-3.539,-9.308,-1.125,-3.419,3.29,1.54,1.89
,-9.215,-1.091,-3.515,-9.292,-1.005,-3.527,2.94,1.68,1.61
,-9.201,-1.079,-3.427,-9.227,-1.015,-3.683,3.01,1.82,1.47
,-9.316,-1.084,-3.333,-9.146,-1.094,-3.936,3.5,2.17,1.4
34359.0,-8.993,-1.292,-3.979,-9.222,-1.125,-3.611,0.7,0.77,0.49
,-8.973,-1.448,-3.862,-9.215,-1.062,-3.458,1.26,0.7,0.7
,-9.119,-1.503,-3.781,-9.213,-1.098,-3.34,3.22,0.63,1.12
,-9.194,-1.409,-3.673,-9.198,-1.204,-3.242,5.6,0.28,1.4
34434.0,-9.237,-1.228,-3.329,-9.076,-1.285,-3.685,3.85,0.77,1.47
,-9.287,-1.235,-3.477,-9.072,-1.271,-3.585,4.06,0.56,1.4
,-9.229,-1.256,-3.664,-9.206,-1.216,-3.477,3.85,0.21,1.54
,-9.081,-1.342,-3.707,-9.194,-1.237,-3.252,3.71,0.28,1.75
34509.0,-9.261,-1.127,-3.087,-9.217,-1.244,-3.4,3.78,0.77,1.75
,-9.318,-1.082,-3.089,-9.22,-1.182,-3.472,2.8,0.7,1.47
,-9.378,-1.007,-3.173,-9.182,-1.115,-3.613,1.61,0.98,1.47
,-9.292,-1.106,-3.312,-9.112,-1.098,-3.486,0.14,0.91,1.33
34584.0,-9.206,-1.156,-3.465,-9.162,-1.228,-3.893,-0.07,1.4,1.05
,-9.201,-1.302,-3.494,-9.134,-1.24,-3.979,-0.21,1.4,0.98
,-9.284,-1.149,-3.652,-9.05,-1.321,-3.917,0.14,1.19,0.77
,-9.268,-1.134,-3.843,-9.127,-1.275,-3.728,0.0,0.63,0.7
34659.0,-9.253,-1.244,-3.57,-9.198,-1.232,-3.226,4.62,0.0,1.4
,-9.289,-1.141,-3.484,-9.206,-1.216,-3.209,4.83,-0.35,1.47
,-9.162,-1.039,-3.329,-9.28,-1.173,-3.269,4.2,-0.56,1.54
,-9.251,-1.101,-3.247,-9.244,-1.137,-3.396,3.5,-0.35,1.33
34734.0,-9.124,-1.199,-3.415,-9.275,-1.031,-3.333,1.68,0.14,1.26
,-9.189,-1.266,-3.419,-9.277,-0.995,-3.374,2.1,0.35,1.33
,-9.201,-1.261,-3.419,-9.256,-1.129,-3.47,3.22,0.49,1.47
,-9.186,-1.18,-3.343,-9.225,-1.223,-3.479,3.85,0.77,1.68
34809.0,-9.227,-1.321,-3.537,-9.15,-1.153,-3.472,1.61,0.42,1.19
,-9.22,-1.249,-3.609,-9.249,-1.031,-3.355,2.73,0.14,1.26
,-9.196,-1.24,-3.558,-9.311,-1.079,-3.338,3.57,0.35,1.47
,-9.174,-1.196,-3.489,-9.184,-1.125,-3.262,3.92,0.35,1.54
34884.0,-9.287,-1.17,-3.278,-9.112,-1.24,-3.589,1.05,0.21,0.84
,-9.217,-1.194,-3.441,-9.155,-1.268,-3.51,0.77,0.07,0.63
,-9.191,-1.149,-3.506,-9.167,-1.189,-3.415,0.49,-0.07,0.56
,-9.158,-1.177,-3.589,-9.275,-1.082,-3.297,0.7,0.07,0.63
34959.0,-9.311,-1.019,-3.247,-9.249,-1.338,-3.388,4.48,0.77,1.19
,-9.28,-0.964,-3.403,-9.299,-1.141,-3.333,3.64,0.63,0.98
,-9.196,-1.007,-3.369,-9.32,-1.05,-3.4,2.17,0.56,0.77
,-9.184,-1.182,-3.386,-9.316,-1.012,-3.419,1.82,0.56,0.84
35034.0,-9.351,-0.979,-3.486,-9.198,-1.374,-3.798,0.98,0.28,0.42
,-9.32,-1.084,-3.525,-9.179,-1.283,-3.738,-0.21,0.35,0.21
,-9.27,-1.158,-3.654,-9.241,-1.235,-3.759,-1.26,0.0,0.14
,-9.21,-1.261,-3.764,-9.387,-1.141,-3.731,-1.19,-0.14,0.28
35109.0,-9.217,-1.108,-3.575,-9.124,-1.448,-3.288,0.35,-1.75,0.84
,-9.198,-1.098,-3.431,-9.208,-1.419,-3.092,-0.91,-2.03,0.91
,-9.177,-1.187,-3.482,-9.263,-1.307,-3.003,-1.47,-2.03,1.05
,-9.112,-1.378,-3.441,-9.261,-1.106,-2.979,-1.26,-1.75,1.26
35184.0,-9.375,-0.957,-2.984,-9.287,-1.249,-3.376,3.5,-0.84,2.17
,-9.378,-0.936,-3.168,-9.184,-1.28,-3.372,2.03,-0.84,1.89
,-9.277,-0.969,-3.214,-9.225,-1.149,-3.412,0.35,-0.77,1.61
,-9.194,-1.122,-3.211,-9.34,-1.017,-3.391,-0.42,-0.07,1.47
35259.0,-9.375,-0.936,-3.719,-9.392,-1.129,-3.393,2.38,-0.07,1.47
,-9.21,-0.895,-3.874,-9.464,-0.771,-3.149,0.77,-1.19,1.26
,-9.165,-0.957,-3.872,-9.366,-0.68,-3.053,-1.05,-1.54,1.26
,-9.17,-1.199,-3.585,-9.349,-0.818,-2.907,-1.19,-1.61,1.12
35334.0,-9.256,-0.928,-2.962,-9.268,-1.091,-3.475,-10.71,-4.55,-0.91
,-9.311,-0.893,-3.087,-9.265,-1.184,-3.297,-9.59,-3.57,-1.05
,-9.27,-0.928,-3.187,-9.521,-1.132,-3.154,-8.47,-2.52,-1.12
,-9.249,-0.983,-3.436,-9.507,-0.739,-3.302,-7.49,-1.82,-1.19
35409.0,-9.347,-0.775,-3.793,-9.083,-1.876,-3.415,-9.52,-4.48,-2.03
,-9.036,-1.175,-3.924,-9.318,-1.651,-3.104,-12.6,-5.11,-1.96
,-9.026,-1.675,-3.908,-9.481,-1.177,-2.522,-12.04,-4.41,-1.26
,-8.985,-1.912,-3.697,-9.61,-0.739,-2.302,-7.42,-3.22,-0.63
35484.0,-9.395,-0.644,-2.264,-9.304,-1.055,-2.965,4.2,-0.14,1.26
,-9.567,-0.522,-2.187,-9.141,-1.318,-3.077,2.1,0.77,0.91
,-9.481,-0.627,-2.603,-9.21,-0.878,-3.096,-1.19,0.7,0.21
,-9.203,-0.838,-2.694,-9.227,-0.677,-3.343,-2.73,2.1,0.28
35559.0,-9.268,-0.646,-3.082,-9.608,-1.05,-1.74,-4.13,0.77,-0.98
,-9.289,-0.926,-2.776,-9.598,-0.158,-2.012,-5.6,2.31,-0.84
,-9.098,-1.567,-2.522,-9.397,0.084,-2.941,-5.04,4.76,-0.35
,-9.409,-1.68,-1.613,-9.122,-0.57,-2.982,1.75,7.77,0.14
35634.0,-8.842,-1.833,-3.441,-9.184,-1.027,-3.451,-12.32,8.54,-0.42
,-8.756,-2.316,-2.687,-9.208,-1.474,-2.984,-3.43,13.02,0.98
,-9.17,-1.768,-3.113,-9.057,-1.831,-2.383,6.86,13.44,0.91
,-8.933,-1.318,-3.419,-9.222,-0.969,-2.266,8.75,11.55,0.63
35709.0,-8.938,-0.39,-3.123,-9.134,-1.46,-3.458,16.38,14.56,0.07
,-9.421,0.079,-2.656,-9.148,-1.713,-3.482,12.88,15.4,0.07
,-9.526,-0.187,-3.314,-9.019,-1.51,-3.245,3.57,14.35,0.28
,-9.16,-0.916,-3.654,-8.959,-1.266,-3.52,-4.13,14.21,0.42
35784.0,-8.653,-1.065,-3.671,-9.39,0.012,-3.912,3.71,14.63,-0.98
,-9.014,-0.828,-3.508,-9.206,0.081,-3.788,4.55,15.96,-1.12
,-8.988,-0.749,-3.506,-8.856,-0.158,-4.401,4.06,16.66,-1.54
,-9.459,-0.282,-3.532,-8.921,-0.866,-4.245,5.88,17.08,-2.24
35859.0,-9.139,-1.582,-3.92,-8.942,-2.079,-4.001,-15.82,10.99,-4.34
,-8.981,-2.142,-3.702,-9.002,-1.902,-4.19,-14.77,10.29,-3.99
,-8.715,-2.211,-3.556,-9.225,-1.732,-4.444,-10.43,11.2,-3.36
,-8.911,-2.151,-3.558,-9.098,-1.508,-4.822,-4.55,13.93,-2.52
35934.0,-9.15,-1.117,-5.128,-8.715,-0.378,-4.293,8.26,13.3,1.82
,-8.842,-0.816,-5.511,-9.277,-0.852,-3.314,8.05,11.06,1.89
,-8.607,-0.514,-5.212,-9.191,-1.464,-3.329,6.79,10.36,1.61
,-8.748,-0.491,-4.834,-9.002,-1.878,-3.295,4.55,10.01,0.14
36009.0,-9.012,-1.905,-3.565,-9.076,0.148,-4.125,-4.97,9.94,1.26
,-8.748,-1.527,-4.018,-8.964,0.524,-4.554,-1.05,10.15,0.77
,-8.909,-0.715,-4.185,-8.89,0.656,-4.826,2.17,10.08,-0.28
,-9.174,-0.345,-4.113,-8.899,0.005,-4.429,2.45,9.87,-0.91
36084.0,-9.129,-1.055,-4.087,-8.536,-1.972,-4.432,-13.65,9.24,-4.76
,-9.198,-2.041,-3.611,-8.464,-1.441,-4.922,-12.32,9.17,-4.27
,-9.119,-2.565,-3.752,-8.311,-1.268,-5.03,-7.56,7.35,-3.15
,-8.832,-2.498,-3.975,-8.294,-1.529,-4.649,-1.54,6.65,-2.31
36159.0,-8.753,-1.747,-3.994,-9.222,-1.771,-4.336,-1.12,10.99,0.28
,-8.949,-1.677,-3.929,-9.373,-1.632,-4.288,-1.33,12.04,1.05
,-9.134,-1.606,-4.011,-9.155,-1.029,-4.92,0.0,11.62,1.89
,-9.222,-1.563,-4.152,-8.804,-0.337,-5.126,1.26,10.85,2.66
36234.0,-8.043,-0.165,-5.109,-8.792,-0.704,-4.685,10.15,4.62,1.82
,-8.174,-0.608,-4.791,-8.732,-0.486,-4.745,7.21,7.0,0.56
,-8.832,-0.881,-4.14,-8.887,-0.424,-4.786,7.21,8.68,-0.07
,-9.167,-0.869,-4.121,-8.756,-0.852,-4.743,7.84,8.47,0.14
36309.0,-8.756,-1.402,-4.714,-8.674,-1.716,-4.587,3.29,5.11,-0.77
,-8.897,-1.967,-4.501,-8.866,-1.429,-4.645,3.57,4.83,-1.26
,-8.873,-2.005,-4.515,-8.938,-1.397,-4.645,5.53,5.18,-1.4
,-8.492,-1.907,-4.582,-8.54,-1.771,-4.602,8.05,5.74,-1.19
36384.0,-8.571,-2.039,-4.386,-9.086,-0.16,-4.341,10.71,6.86,3.29
,-8.825,-1.855,-4.097,-9.184,0.158,-4.664,12.88,6.65,3.85
,-8.792,-1.493,-4.298,-8.772,0.823,-5.181,14.14,5.95,3.5
,-8.957,-1.048,-4.322,-8.504,0.603,-5.26,15.19,5.25,2.66
36459.0,-8.49,-0.05,-4.893,-8.631,-2.907,-3.951,-1.82,3.29,-3.57
,-8.799,-0.945,-4.501,-8.873,-2.759,-3.908,-4.69,4.06,-3.22
,-8.835,-1.668,-4.456,-8.99,-2.06,-4.295,-4.9,4.06,-2.52
,-8.804,-2.46,-4.221,-8.782,-0.986,-4.98,-2.94,4.13,-1.47
36534.0,-8.44,-0.675,-4.951,-8.555,-1.711,-4.262,12.46,3.64,-0.14
,-8.385,-0.955,-4.609,-8.516,-1.208,-4.621,8.05,5.18,0.35
,-8.713,-1.448,-4.312,-8.574,-0.981,-4.815,4.97,6.09,0.56
,-8.715,-1.907,-4.231,-9.012,-0.909,-4.697,5.04,6.65,1.05
36609.0,-9.28,-0.909,-4.803,-8.638,-1.409,-5.097,7.07,8.33,-0.07
,-9.136,-1.007,-4.932,-8.387,-1.759,-5.075,6.65,7.7,-0.42
,-8.993,-1.058,-4.963,-8.37,-2.012,-5.039,5.25,7.49,-0.84
,-8.825,-1.218,-5.121,-8.619,-1.831,-5.106,4.13,7.35,-1.47
36684.0,-8.703,-1.785,-5.406,-8.179,-1.922,-4.798,5.74,5.95,1.75
,-9.043,-1.701,-5.164,-8.066,-1.89,-4.872,5.74,5.67,2.31
,-9.115,-1.709,-5.03,-8.349,-1.709,-4.972,5.6,4.55,3.01
,-8.617,-2.005,-4.824,-8.653,-1.613,-4.86,4.55,3.99,4.13
36759.0,-8.796,-1.089,-4.917,-8.811,-0.675,-5.281,4.27,4.13,6.37
,-8.911,-0.754,-5.049,-8.856,-0.933,-5.152,3.92,3.36,5.32
,-8.938,-0.83,-4.982,-8.787,-1.211,-5.051,3.08,2.94,4.2
,-8.849,-0.814,-5.104,-8.614,-1.443,-4.786,2.94,2.31,2.94
36834.0,-8.38,-1.342,-4.721,-8.904,-1.0,-5.14,3.78,3.22,3.22
,-8.418,-1.053,-4.925,-9.028,-1.249,-4.917,3.36,3.5,3.15
,-8.531,-0.718,-5.126,-8.643,-1.529,-4.582,2.59,3.29,2.38
,-8.636,-0.787,-5.209,-8.138,-1.598,-4.453,0.98,2.8,1.26
36909.0,-8.454,-1.417,-4.539,-8.646,-1.601,-4.59,0.07,3.5,-0.49
,-8.806,-1.201,-4.702,-8.423,-1.596,-4.645,-0.56,3.85,-0.07
,-9.048,-1.098,-4.884,-8.461,-1.259,-4.795,-2.73,3.71,0.14
,-8.815,-1.335,-4.757,-8.772,-0.787,-5.178,-5.67,3.64,0.07
36984.0,-8.861,-0.768,-5.071,-8.964,-0.634,-4.901,-6.02,3.01,-0.07
,-8.662,-1.039,-4.762,-8.885,-0.459,-5.121,-8.54,2.66,0.35
,-8.636,-1.247,-4.642,-8.636,-0.471,-5.303,-9.17,3.01,0.49
,-8.672,-1.115,-4.728,-8.614,-0.928,-5.319,-6.3,3.15,0.07
37059.0,-8.574,-1.297,-5.293,-8.686,-1.764,-4.927,-12.25,0.49,-2.66
,-8.622,-1.613,-5.233,-8.763,-1.965,-4.625,-10.71,0.49,-2.45
,-8.737,-1.706,-5.26,-8.729,-2.024,-4.527,-8.47,0.21,-1.82
,-8.772,-1.685,-5.264,-8.155,-2.333,-4.98,-6.58,-0.07,-1.33
37134.0,-8.126,-2.558,-5.032,-8.54,-1.718,-5.195,-11.34,-2.73,5.74
,-8.428,-2.666,-4.867,-8.569,-1.395,-5.087,-9.59,-2.24,7.0
,-8.5,-2.474,-4.968,-8.686,-1.366,-4.819,-5.32,-2.24,8.05
,-8.416,-2.108,-4.999,-8.636,-1.113,-4.805,-1.82,-2.1,9.03
37209.0,-8.524,-0.838,-4.946,-8.997,-0.369,-4.678,-0.07,-3.43,11.13
,-8.713,-0.696,-4.831,-9.009,-0.201,-4.81,0.07,-3.08,10.92
,-8.825,-0.584,-4.817,-8.902,-0.294,-4.848,0.7,-3.43,10.08
,-8.875,-0.471,-4.858,-8.737,-0.414,-4.819,1.61,-3.29,9.03
37284.0,-8.863,-0.318,-4.692,-8.88,-0.203,-4.925,2.03,-4.9,3.99
,-8.737,-0.098,-4.826,-8.777,-0.814,-5.066,3.43,-6.72,3.15
,-8.516,0.096,-4.872,-8.547,-1.091,-4.652,3.29,-7.28,2.45
,-8.528,0.055,-4.939,-8.667,-1.091,-4.685,2.1,-7.49,1.61
37359.0,-8.6,-0.952,-4.898,-8.758,-0.744,-5.185,3.57,-8.89,-2.1
,-8.772,-0.926,-4.642,-8.801,-0.763,-4.915,4.13,-9.03,-1.82
,-8.882,-0.548,-4.393,-8.794,-0.864,-4.764,2.03,-9.45,-1.19
,-8.804,-0.761,-4.434,-9.287,-0.902,-4.243,5.88,-8.61,-1.75
37434.0,-9.253,-0.591,-4.487,-8.703,-1.285,-4.525,-1.61,-9.17,-1.89
,-8.842,-0.73,-4.714,-9.095,-1.036,-4.781,-4.2,-10.64,-2.38
,-8.318,-1.029,-4.659,-8.935,-1.05,-4.968,-5.39,-10.43,-2.52
,-8.351,-1.187,-4.527,-8.933,-1.271,-4.803,-4.69,-9.94,-2.45
37509.0,-8.72,-1.536,-4.647,-8.693,-0.818,-4.293,1.26,-8.75,-1.33
,-8.588,-1.316,-4.637,-8.562,-1.192,-4.389,4.62,-8.05,-1.75
,-8.804,-1.043,-4.329,-8.959,-1.56,-4.173,7.7,-7.49,-1.89
,-9.026,-0.72,-4.104,-9.105,-1.874,-3.912,8.26,-8.33,-1.12
37584.0,-9.16,-1.448,-3.872,-8.672,-1.034,-4.135,7.98,-8.47,1.96
,-8.691,-0.814,-4.13,-9.359,-1.007,-3.915,8.33,-10.78,2.31
,-8.476,-0.546,-4.252,-9.325,-0.864,-3.965,4.62,-12.18,2.73
,-8.351,-0.761,-4.188,-8.839,-0.749,-4.118,0.77,-11.83,2.87
37659.0,-8.902,-0.715,-3.936,-9.081,-0.706,-4.178,4.76,-8.75,2.1
,-8.775,-0.739,-4.19,-9.263,-0.79,-3.886,4.76,-9.31,2.17
,-8.856,-0.885,-4.341,-9.27,-0.668,-3.778,5.32,-9.24,2.03
,-8.978,-0.785,-4.31,-9.182,-0.771,-3.709,7.21,-8.12,1.96
37734.0,-8.768,-0.854,-3.924,-8.875,-1.084,-3.838,1.4,-11.62,1.75
,-8.715,-1.015,-4.08,-8.847,-1.034,-3.912,1.4,-11.48,1.4
,-8.911,-1.161,-3.97,-8.914,-0.991,-3.824,3.01,-10.22,1.19
,-9.055,-1.153,-3.891,-8.971,-0.732,-3.774,5.32,-9.24,1.26
37809.0,-9.143,-0.567,-3.503,-9.189,-0.89,-3.477,13.44,-1.89,1.75
,-9.409,-0.826,-3.309,-9.014,-0.986,-3.683,11.48,-1.47,1.82
,-9.502,-0.943,-3.501,-8.842,-0.782,-3.484,7.21,-5.04,1.61
,-8.832,-0.845,-3.891,-9.15,-0.598,-3.453,2.24,-9.87,1.61
