Timestamp,AccX,AccY,AccZ,GyroX,GyroY,GyroZ,MagnX,MagnY,MagnZ
0.0,-8.792,-1.031,-4.587,-8.758,-1.086,-4.515,2.03,1.82,0.56
,-8.777,-1.024,-4.633,-8.739,-1.039,-4.475,1.96,1.61,0.56
,-8.744,-1.017,-4.628,-8.813,-1.007,-4.439,2.1,1.54,0.56
,-8.693,-1.027,-4.606,-8.83,-1.027,-4.374,2.1,1.61,0.56
75.0,-8.844,-1.048,-4.42,-8.789,-1.017,-4.532,2.1,1.68,0.49
,-8.844,-1.012,-4.511,-8.775,-0.998,-4.585,1.96,1.54,0.42
,-8.78,-1.034,-4.518,-8.76,-1.024,-4.575,1.61,1.54,0.49
,-8.751,-1.043,-4.556,-8.806,-1.029,-4.602,1.68,1.61,0.49
151.0,-8.772,-0.981,-4.594,-8.775,-1.039,-4.458,2.66,1.4,0.63
,-8.748,-1.043,-4.58,-8.78,-0.983,-4.389,2.73,1.4,0.7
,-8.737,-1.048,-4.537,-8.832,-0.991,-4.422,2.87,1.33,0.7
,-8.739,-1.082,-4.48,-8.827,-1.015,-4.496,3.01,1.47,0.84
227.0,-8.76,-1.072,-4.494,-8.837,-1.039,-4.427,2.38,1.33,0.7
,-8.76,-1.106,-4.444,-8.827,-1.027,-4.458,2.66,1.68,0.77
,-8.842,-1.034,-4.429,-8.789,-0.995,-4.515,2.8,1.61,0.77
,-8.804,-1.125,-4.355,-8.763,-1.039,-4.554,2.73,1.75,0.63
302.0,-8.765,-1.022,-4.501,-8.813,-1.043,-4.46,2.31,1.68,0.56
,-8.72,-1.007,-4.544,-8.756,-1.055,-4.42,2.59,1.82,0.7
,-8.825,-1.015,-4.527,-8.792,-1.089,-4.48,2.59,1.75,0.63
,-8.835,-0.988,-4.465,-8.777,-1.062,-4.436,2.45,1.61,0.63
378.0,-8.789,-1.079,-4.42,-8.78,-1.01,-4.494,2.17,1.96,0.7
,-8.796,-1.058,-4.453,-8.78,-1.017,-4.539,2.31,2.03,0.7
,-8.804,-1.019,-4.403,-8.78,-0.995,-4.618,2.24,2.03,0.7
,-8.823,-1.022,-4.401,-8.734,-1.048,-4.63,2.1,1.82,0.7
453.0,-8.689,-1.024,-4.647,-8.789,-1.06,-4.47,2.38,1.54,0.7
,-8.741,-1.062,-4.618,-8.792,-1.031,-4.389,2.59,1.4,0.77
,-8.775,-1.084,-4.561,-8.794,-1.067,-4.36,2.8,1.54,0.91
,-8.811,-1.046,-4.513,-8.804,-1.096,-4.393,2.87,1.4,0.84
529.0,-8.856,-1.036,-4.436,-8.725,-1.048,-4.621,2.17,1.89,0.7
,-8.849,-1.007,-4.381,-8.732,-0.986,-4.63,2.03,2.03,0.7
,-8.789,-1.005,-4.477,-8.732,-1.015,-4.614,1.89,1.89,0.63
,-8.784,-1.096,-4.556,-8.77,-0.998,-4.604,1.89,1.96,0.7
605.0,-8.794,-0.979,-4.53,-8.854,-1.027,-4.398,2.8,1.47,0.91
,-8.751,-1.034,-4.489,-8.827,-1.022,-4.403,2.94,1.61,0.91
,-8.796,-1.058,-4.389,-8.839,-1.019,-4.446,3.15,1.47,0.84
,-8.789,-1.015,-4.405,-8.815,-1.043,-4.532,3.22,1.68,0.84
681.0,-8.734,-1.022,-4.547,-8.787,-1.065,-4.511,1.96,1.68,0.63
,-8.772,-1.01,-4.614,-8.794,-1.031,-4.518,2.1,1.75,0.56
,-8.741,-1.089,-4.592,-8.784,-1.0,-4.547,1.96,1.54,0.56
,-8.77,-1.106,-4.544,-8.818,-0.995,-4.465,2.31,1.68,0.7
757.0,-8.753,-1.043,-4.52,-8.82,-1.024,-4.482,3.08,1.61,0.84
,-8.782,-1.029,-4.496,-8.82,-1.022,-4.491,3.15,1.61,0.84
,-8.744,-1.019,-4.458,-8.76,-1.062,-4.523,3.08,1.54,0.77
,-8.811,-1.036,-4.472,-8.727,-1.029,-4.511,3.01,1.61,0.7
832.0,-8.806,-0.974,-4.542,-8.832,-1.05,-4.415,2.38,1.68,0.7
,-8.768,-1.029,-4.544,-8.794,-1.05,-4.408,2.1,1.47,0.63
,-8.787,-0.988,-4.494,-8.777,-1.062,-4.453,2.17,1.4,0.56
,-8.799,-1.062,-4.393,-8.753,-1.086,-4.384,2.1,1.4,0.56
908.0,-8.772,-1.079,-4.413,-8.753,-1.0,-4.604,2.73,1.82,0.7
,-8.827,-1.055,-4.427,-8.691,-1.036,-4.614,2.66,2.1,0.77
,-8.799,-0.995,-4.477,-8.684,-1.01,-4.669,2.59,2.03,0.77
,-8.808,-1.007,-4.568,-8.77,-0.972,-4.623,2.45,2.1,0.63
984.0,-8.782,-0.986,-4.53,-8.789,-1.084,-4.463,2.52,1.68,0.7
,-8.756,-0.969,-4.487,-8.82,-1.098,-4.381,2.38,1.54,0.56
,-8.765,-1.055,-4.451,-8.799,-1.039,-4.405,2.17,1.47,0.35
,-8.794,-1.11,-4.446,-8.775,-1.055,-4.381,2.17,1.68,0.42
1060.0,-8.746,-1.086,-4.453,-8.751,-0.948,-4.621,1.89,1.96,0.56
,-8.763,-1.022,-4.52,-8.744,-1.003,-4.642,2.03,1.96,0.63
,-8.772,-1.015,-4.609,-8.727,-1.05,-4.609,1.96,2.03,0.7
,-8.72,-0.979,-4.57,-8.78,-1.041,-4.614,2.17,2.17,0.7
1135.0,-8.827,-1.029,-4.57,-8.789,-1.103,-4.444,2.59,1.47,0.56
,-8.777,-1.005,-4.511,-8.787,-1.113,-4.518,2.52,1.47,0.63
,-8.813,-1.0,-4.465,-8.734,-1.091,-4.604,2.38,1.33,0.63
,-8.799,-1.062,-4.374,-8.729,-0.964,-4.75,2.38,1.4,0.63
1211.0,-8.698,-0.852,-4.96,-8.765,-1.07,-4.602,2.94,0.63,0.63
,-8.725,-0.979,-4.805,-8.861,-0.967,-4.587,2.45,0.49,0.56
,-8.717,-1.06,-4.803,-8.784,-0.912,-4.551,2.59,0.07,0.63
,-8.768,-1.146,-4.666,-8.72,-1.094,-4.523,3.22,-0.07,0.84
1286.0,-8.739,-1.316,-4.52,-8.691,-1.141,-4.46,3.15,-1.33,0.84
,-8.708,-1.417,-4.446,-8.77,-1.053,-4.594,4.06,-1.05,1.26
,-8.748,-1.45,-4.434,-8.811,-1.134,-4.338,5.32,-0.98,1.61
,-8.713,-1.29,-4.343,-8.737,-1.153,-4.503,6.58,-0.77,1.89
1362.0,-8.787,-1.153,-4.475,-8.804,-0.976,-4.223,5.6,-1.33,2.03
,-8.715,-1.086,-4.456,-8.839,-0.995,-4.082,5.32,-1.4,2.03
,-8.827,-1.05,-4.393,-8.851,-1.039,-3.96,5.25,-1.26,2.03
,-8.739,-1.096,-4.295,-8.945,-0.967,-4.142,4.9,-1.05,1.89
1438.0,-8.873,-1.108,-4.302,-8.811,-1.017,-4.594,-0.56,-0.42,0.21
,-8.782,-1.108,-4.501,-8.832,-0.945,-4.525,-1.12,-0.35,0.35
,-8.71,-1.125,-4.532,-8.878,-0.866,-4.468,-0.91,-0.28,0.42
,-8.722,-1.108,-4.602,-8.933,-0.876,-4.568,-0.21,-0.35,0.7
1514.0,-8.83,-0.988,-4.721,-8.717,-1.244,-4.666,-2.8,-1.26,-1.12
,-8.729,-1.048,-4.649,-8.737,-1.199,-4.755,-3.08,-1.33,-0.91
,-8.71,-1.213,-4.592,-8.799,-1.237,-4.695,-2.8,-1.26,-0.42
,-8.732,-1.254,-4.712,-8.851,-1.067,-4.716,-1.82,-1.33,-0.14
1589.0,-8.837,-0.909,-4.728,-8.961,-0.83,-4.243,3.15,-2.66,1.68
,-8.882,-0.742,-4.685,-8.911,-0.83,-4.231,3.71,-3.01,1.75
,-8.906,-0.751,-4.475,-8.99,-0.857,-4.082,3.57,-3.29,1.89
,-8.971,-0.847,-4.415,-8.945,-1.043,-4.219,3.29,-3.43,1.26
1665.0,-8.885,-1.141,-4.312,-8.973,-0.883,-4.276,3.01,-3.64,1.47
,-8.792,-1.098,-4.255,-8.954,-0.706,-4.252,3.43,-3.71,1.82
,-8.837,-0.976,-4.46,-8.902,-0.859,-4.338,3.92,-3.43,1.89
,-8.909,-1.089,-4.274,-8.866,-0.818,-4.393,3.99,-3.5,2.03
1741.0,-8.882,-0.778,-4.262,-9.026,-1.206,-3.656,0.14,-5.11,1.12
,-8.863,-1.027,-4.097,-9.148,-1.168,-3.606,-1.19,-4.83,0.98
,-8.897,-1.129,-4.125,-9.153,-0.964,-3.826,-1.19,-4.69,0.84
,-8.909,-1.156,-3.829,-8.969,-0.756,-4.03,-0.98,-4.2,1.4
1817.0,-8.801,-0.95,-4.192,-9.04,-0.95,-4.015,-3.78,-2.87,0.35
,-8.787,-1.156,-4.223,-9.143,-0.945,-3.841,-3.64,-2.52,0.63
,-8.844,-1.086,-4.104,-9.136,-1.103,-3.534,-2.31,-2.31,0.98
,-8.909,-1.046,-4.116,-9.052,-1.328,-3.599,-1.12,-1.75,1.33
1893.0,-8.957,-1.555,-3.549,-9.088,-0.782,-3.9,-2.66,-0.42,1.61
,-8.918,-1.78,-3.565,-9.062,-0.51,-3.939,-0.98,0.42,2.66
,-8.978,-1.378,-3.733,-9.069,-0.268,-3.869,1.89,1.47,3.64
,-8.997,-0.974,-3.778,-9.103,-0.179,-4.133,2.87,2.1,3.99
1968.0,-8.89,-0.369,-4.329,-8.938,-1.208,-4.164,-3.5,2.52,-1.33
,-8.763,-0.61,-4.475,-9.115,-0.983,-3.831,-4.9,1.82,-1.68
,-8.799,-0.869,-4.506,-9.136,-0.302,-4.271,-5.53,1.4,-1.82
,-8.815,-1.072,-4.329,-8.916,-0.108,-4.238,-5.6,1.54,-1.54
2044.0,-8.875,-0.445,-4.252,-8.756,-1.378,-3.948,-12.74,1.54,-5.25
,-8.715,-1.187,-4.544,-9.182,-0.828,-3.302,-15.12,1.33,-5.04
,-8.567,-1.649,-4.463,-9.457,-0.581,-2.965,-13.86,1.19,-3.85
,-8.624,-1.701,-4.331,-9.294,-0.622,-2.757,-10.15,1.47,-2.31
2119.0,-9.227,-0.861,-2.534,-8.789,-0.249,-3.68,-15.26,8.12,-7.35
,-9.32,-0.852,-2.831,-8.729,-0.067,-3.845,-15.89,9.73,-7.07
,-9.201,-0.893,-2.979,-8.478,-0.605,-4.264,-15.19,11.13,-6.23
,-9.127,-0.735,-3.606,-8.404,-0.928,-4.293,-13.23,12.11,-4.97
2195.0,-8.854,-1.007,-4.365,-8.947,-2.903,-2.395,-14.98,14.42,-7.35
,-9.122,-1.515,-4.357,-8.961,-2.245,-2.529,-14.84,15.33,-6.37
,-8.882,-2.496,-4.061,-8.531,-1.476,-3.305,-13.72,17.08,-3.92
,-8.765,-3.262,-2.905,-8.382,-1.094,-3.821,-8.61,19.67,-1.05
2271.0,-8.397,-1.096,-4.326,-8.952,0.838,-4.257,12.88,27.72,5.11
,-8.229,-1.22,-4.52,-9.301,0.749,-4.489,16.52,29.05,8.4
,-8.378,-0.888,-3.982,-9.076,-0.211,-4.52,22.33,30.38,11.69
,-8.715,0.072,-3.893,-8.337,-1.673,-4.245,27.16,30.45,12.81
2347.0,-8.311,-2.678,-4.463,-7.796,-1.211,-5.126,-0.7,30.94,4.83
,-8.311,-2.747,-4.767,-7.808,-0.948,-5.087,8.19,31.99,7.0
,-8.306,-1.974,-4.858,-8.32,-0.562,-5.573,15.96,32.48,9.94
,-8.256,-1.474,-4.941,-8.509,-0.022,-5.678,20.72,32.76,11.83
2422.0,-8.622,0.38,-6.131,-7.858,0.043,-6.114,25.55,29.33,12.95
,-8.787,0.141,-5.894,-7.854,-0.706,-6.265,20.02,27.37,9.52
,-8.469,0.268,-6.016,-7.976,-1.577,-6.253,16.94,25.27,6.51
,-8.026,0.333,-5.865,-8.019,-2.139,-6.241,14.91,24.01,4.62
2498.0,-7.971,-2.484,-5.757,-8.009,-0.507,-6.356,15.19,23.66,8.4
,-8.057,-1.926,-5.721,-7.988,-0.232,-5.97,21.42,24.22,10.15
,-8.102,-1.393,-5.86,-7.925,-0.084,-5.709,24.57,22.4,11.62
,-8.052,-0.845,-6.329,-7.904,-0.213,-5.858,25.34,19.74,12.18
2574.0,-7.861,-0.263,-5.922,-8.363,-0.701,-5.559,11.55,17.22,4.62
,-8.277,-0.287,-6.054,-8.205,-0.979,-5.7,10.15,17.08,3.85
,-8.559,-0.613,-5.669,-7.944,-0.907,-5.884,8.26,16.59,3.15
,-8.557,-0.694,-5.482,-7.815,-0.665,-6.178,7.56,15.82,3.71
2650.0,-7.856,-0.739,-6.025,-8.033,-0.713,-6.293,7.63,12.39,3.29
,-8.033,-0.914,-5.784,-8.088,-0.459,-6.2,5.81,13.37,2.03
,-7.863,-1.039,-5.846,-8.205,-0.12,-6.408,4.76,13.3,0.35
,-7.87,-1.101,-5.834,-7.708,-0.031,-6.714,4.27,13.51,-1.19
2725.0,-7.789,-0.27,-6.566,-7.645,-1.352,-5.903,-0.49,6.09,-3.99
,-7.956,-0.926,-6.336,-7.471,-2.517,-5.427,-1.26,6.3,-4.55
,-7.944,-1.316,-6.176,-7.856,-2.69,-5.784,-0.63,6.44,-4.2
,-8.014,-1.338,-5.889,-7.913,-2.706,-5.966,1.4,6.23,-2.94
2801.0,-8.186,-2.149,-6.267,-7.373,-0.972,-6.557,10.15,5.39,7.84
,-8.074,-1.429,-6.595,-7.999,-0.943,-6.303,11.34,3.43,8.68
,-7.641,-1.302,-6.48,-7.93,-0.799,-6.121,8.96,2.1,9.17
,-7.124,-1.184,-6.415,-8.437,-0.747,-5.841,7.77,0.28,8.47
2877.0,-8.212,-0.933,-5.954,-8.272,-0.239,-5.784,4.9,2.8,7.91
,-8.026,-0.325,-5.973,-8.169,-0.292,-5.841,7.42,0.84,8.12
,-7.705,-0.093,-5.93,-8.191,-0.471,-5.638,7.28,0.49,7.77
,-8.086,-0.05,-5.76,-7.851,-0.29,-5.748,5.46,1.12,6.16
2952.0,-7.657,-0.266,-5.69,-7.827,-1.768,-5.607,5.25,-0.77,4.06
,-7.581,-0.459,-5.587,-7.944,-1.646,-5.779,4.62,-0.14,1.68
,-7.643,-0.926,-5.439,-7.727,-1.496,-5.894,3.64,0.91,0.7
,-7.741,-1.491,-5.453,-7.913,-1.464,-6.123,2.8,2.24,1.96
3028.0,-7.629,-0.663,-6.533,-7.76,-1.015,-6.068,5.6,0.28,6.23
,-7.918,-1.292,-5.817,-7.609,-0.486,-6.147,4.48,0.7,4.62
,-7.887,-1.072,-6.126,-7.7,-0.378,-6.147,5.25,1.12,4.27
,-8.186,-1.354,-5.86,-7.808,-0.397,-5.913,5.6,1.47,5.18
3104.0,-7.758,-0.543,-6.028,-7.42,-0.586,-6.133,5.25,0.84,4.62
,-7.923,-0.708,-5.829,-8.425,-0.459,-6.442,4.34,3.64,5.39
,-7.839,-0.878,-6.073,-8.571,-0.388,-5.963,5.53,4.41,3.22
,-8.09,-0.914,-5.934,-7.574,-0.029,-6.667,7.56,8.12,1.61
3180.0,-8.394,0.163,-6.841,-6.963,-1.357,-6.296,10.57,7.49,-4.76
,-8.107,-0.235,-6.415,-8.026,-1.816,-6.289,8.19,7.63,-5.18
,-7.992,-0.507,-6.059,-8.033,-2.02,-6.205,6.02,7.56,-4.34
,-7.394,-0.893,-6.37,-7.98,-1.524,-6.573,3.99,6.09,-3.43
3255.0,-8.141,-0.986,-6.731,-7.674,-1.603,-6.537,7.56,6.79,0.49
,-7.779,-1.003,-6.537,-7.913,-1.728,-6.466,6.02,4.97,-0.28
,-7.636,-1.146,-6.415,-8.004,-1.567,-6.542,3.57,3.99,-0.49
,-7.586,-1.577,-6.346,-7.851,-1.567,-6.377,1.33,4.69,0.35
3331.0,-7.428,-1.46,-6.324,-8.272,-1.036,-6.19,6.72,1.12,4.48
,-7.148,-1.18,-6.353,-7.901,-0.914,-6.119,7.28,1.4,6.51
,-7.521,-1.127,-6.341,-7.291,-0.838,-6.109,7.0,2.52,7.21
,-8.253,-1.072,-6.257,-7.619,-1.077,-6.028,7.91,2.66,7.0
3407.0,-7.923,-0.95,-6.131,-7.911,-0.852,-6.04,6.02,2.24,5.32
,-8.093,-1.084,-5.956,-7.976,-0.905,-5.992,5.53,2.1,5.25
,-7.904,-0.756,-6.028,-7.777,-0.615,-6.013,5.11,1.82,5.25
,-7.868,-0.648,-6.14,-7.653,-0.39,-6.068,5.32,1.75,4.97
3483.0,-7.925,-0.464,-6.09,-7.607,-0.443,-5.824,5.32,2.45,3.15
,-7.911,-0.581,-5.918,-7.729,-0.586,-5.913,4.55,2.45,2.87
,-7.877,-0.706,-5.922,-8.028,-0.845,-5.997,3.64,2.45,2.73
,-7.772,-0.737,-5.817,-8.045,-0.931,-6.028,3.43,2.45,1.68
3558.0,-7.798,-0.912,-6.152,-7.645,-0.72,-6.207,1.96,3.22,-0.21
,-7.739,-1.041,-6.152,-7.609,-0.749,-6.413,1.96,3.99,0.28
,-7.772,-1.204,-6.135,-7.729,-0.895,-6.375,2.24,4.48,0.35
,-7.779,-0.967,-6.135,-7.722,-1.266,-6.243,3.36,4.76,0.0
3634.0,-7.509,-1.364,-6.224,-7.82,-1.161,-6.597,1.26,5.11,-0.35
,-7.361,-1.433,-6.322,-7.657,-1.378,-6.389,1.82,5.53,-0.07
,-7.447,-1.213,-6.578,-7.557,-1.28,-6.315,2.52,6.09,-0.07
,-7.851,-0.931,-6.738,-7.681,-1.055,-6.327,2.24,6.79,0.0
3709.0,-7.842,-1.005,-6.384,-7.655,-1.043,-6.624,1.82,6.86,-0.98
,-7.897,-1.077,-6.379,-7.66,-1.302,-6.609,0.77,6.3,-0.77
,-7.755,-1.151,-6.468,-7.743,-1.464,-6.253,-0.35,5.95,-0.07
,-7.554,-1.117,-6.614,-7.784,-1.292,-6.274,-0.7,5.74,0.21
3785.0,-7.796,-1.07,-6.423,-7.916,-0.538,-6.619,-2.87,3.57,-0.56
,-7.798,-0.833,-6.461,-7.858,-0.462,-6.423,-2.24,2.73,-0.07
,-7.875,-0.613,-6.58,-7.861,-0.428,-6.284,-2.87,2.03,-0.07
,-7.777,-0.627,-6.396,-7.741,-0.634,-6.162,-4.34,1.47,0.35
3861.0,-7.703,-0.665,-6.174,-8.016,-0.945,-6.346,-1.47,-0.56,0.0
,-7.966,-0.72,-6.408,-7.959,-1.022,-6.358,-0.28,-0.77,-0.42
,-7.617,-0.531,-6.193,-7.676,-1.177,-6.298,0.84,-0.91,-0.56
,-7.794,-0.713,-6.291,-7.411,-1.345,-6.248,0.56,-0.49,-0.77
3937.0,-7.609,-1.586,-6.176,-7.806,-1.328,-6.2,1.68,-1.12,1.61
,-7.7,-1.4,-6.365,-7.751,-1.493,-6.035,2.66,-3.01,1.4
,-7.466,-1.089,-6.564,-7.653,-1.287,-6.013,3.43,-4.2,1.75
,-7.53,-1.235,-6.384,-7.777,-1.034,-5.939,2.59,-3.57,1.47
4013.0,-7.71,-0.424,-6.044,-8.093,-0.653,-5.839,8.82,-4.55,3.78
,-7.925,0.072,-6.14,-7.858,-0.715,-5.743,7.28,-3.99,2.94
,-8.04,-0.146,-5.958,-7.557,-0.438,-5.776,4.76,-3.15,1.61
,-8.2,-0.572,-5.748,-7.784,0.184,-6.391,3.85,-2.66,1.4
4088.0,-7.983,-0.44,-5.784,-7.791,-1.012,-5.946,6.86,-3.57,-2.66
,-8.062,-0.436,-5.937,-7.803,-1.005,-5.946,5.6,-3.08,-2.8
,-8.083,-0.711,-5.779,-7.662,-1.144,-6.133,4.13,-3.29,-3.15
,-7.729,-0.818,-5.767,-7.763,-1.113,-6.241,3.57,-3.5,-2.73
4164.0,-7.686,-1.531,-5.901,-8.143,-0.938,-6.336,5.04,-1.61,-1.12
,-7.609,-1.512,-6.016,-8.064,-1.247,-6.32,6.65,-1.05,-0.14
,-7.739,-1.46,-5.98,-7.607,-0.89,-6.485,8.61,-1.33,0.98
,-7.885,-1.108,-6.332,-7.363,-0.876,-6.475,9.52,-1.4,2.66
4240.0,-7.633,-1.608,-6.056,-7.731,-0.699,-6.499,2.45,-4.48,2.59
,-7.693,-1.273,-6.595,-7.631,-0.622,-6.451,4.41,-5.74,2.38
,-8.09,-1.165,-6.442,-7.612,-0.718,-6.446,5.39,-6.79,2.66
,-8.1,-0.919,-6.466,-7.736,-0.747,-6.6,5.95,-8.05,2.66
4316.0,-7.937,-0.689,-6.547,-7.99,-0.56,-6.423,3.92,-8.4,4.06
,-7.798,-0.617,-6.566,-8.011,-0.651,-6.217,4.06,-8.68,4.41
,-7.976,-0.524,-6.602,-8.102,-0.696,-6.111,3.57,-9.45,4.55
,-7.899,-0.598,-6.703,-8.095,-0.663,-6.147,4.55,-10.15,4.06
4391.0,-8.143,-0.548,-6.078,-7.93,-0.706,-5.439,1.75,-16.24,-2.03
,-7.588,-0.285,-5.391,-8.014,-0.749,-5.489,0.7,-18.83,-4.62
,-8.007,-0.486,-5.808,-7.99,-0.67,-5.592,-1.05,-19.25,-5.81
,-8.098,-0.51,-5.774,-8.069,-0.696,-5.58,-3.22,-19.32,-7.56
4467.0,-8.126,-0.761,-5.855,-8.303,-1.376,-4.508,-4.62,-21.98,-9.17
,-8.196,-1.046,-5.427,-8.253,-0.967,-4.843,-5.88,-22.19,-8.82
,-8.241,-1.304,-5.3,-8.229,-1.189,-4.647,-5.74,-22.19,-9.03
,-8.133,-1.524,-4.896,-8.346,-1.548,-4.46,-4.9,-22.26,-9.73
4542.0,-8.282,-2.063,-4.326,-8.404,-1.18,-4.886,-6.09,-19.88,-7.77
,-8.291,-2.151,-4.446,-8.284,-1.151,-4.781,-2.94,-18.76,-4.97
,-8.22,-2.005,-4.35,-8.256,-1.462,-4.535,1.12,-18.2,-2.38
,-8.418,-1.642,-4.666,-8.435,-1.5,-4.456,5.39,-17.99,-0.7
4618.0,-8.67,-1.122,-4.635,-8.351,-1.036,-4.97,9.38,-14.91,1.96
,-8.665,-0.876,-4.836,-8.624,-0.907,-5.051,10.57,-14.91,2.17
,-8.701,-0.893,-4.996,-8.569,-0.823,-5.394,8.82,-15.26,2.94
,-8.248,-0.895,-5.078,-8.581,-0.646,-4.999,8.19,-16.03,2.66
4694.0,-8.576,-0.371,-5.133,-8.557,-0.668,-4.929,12.04,-16.45,-0.21
,-8.519,-0.565,-4.721,-8.756,-0.725,-4.929,9.94,-16.87,-0.84
,-8.741,-0.761,-4.709,-8.715,-0.96,-4.748,7.49,-17.36,-1.54
,-8.631,-0.747,-4.992,-8.689,-1.309,-4.338,6.65,-19.04,-2.73
4770.0,-8.808,-1.414,-4.929,-8.603,-2.467,-4.073,0.84,-20.02,-6.02
,-8.559,-1.292,-4.75,-8.741,-2.324,-4.022,3.01,-20.79,-5.6
,-8.43,-1.687,-4.491,-8.78,-1.926,-4.238,2.24,-20.51,-5.25
,-8.593,-2.312,-4.57,-8.777,-1.517,-3.711,3.29,-19.74,-4.62
4845.0,-8.839,-1.196,-3.635,-9.098,-0.67,-3.211,17.78,-15.05,0.21
,-8.957,-1.108,-3.192,-9.06,-0.512,-3.41,17.5,-13.79,0.63
,-9.189,-1.065,-2.996,-9.165,-0.83,-3.556,16.03,-12.67,0.77
,-9.227,-0.905,-3.273,-8.861,-0.605,-4.061,15.12,-12.18,0.56
4921.0,-8.734,-0.802,-4.178,-9.04,-1.835,-3.376,2.45,-10.99,-4.06
,-8.679,-0.94,-3.817,-9.246,-2.032,-3.446,-0.7,-10.64,-4.76
,-8.827,-1.283,-3.587,-9.0,-2.017,-3.568,-3.85,-10.64,-5.39
,-8.935,-1.816,-3.491,-8.945,-1.591,-3.922,-5.67,-9.94,-5.39
4997.0,-8.856,-1.431,-3.991,-9.227,-1.608,-3.037,-1.75,-5.81,-3.36
,-8.705,-1.371,-3.802,-9.466,-1.342,-3.597,-1.96,-5.39,-3.01
,-8.799,-1.464,-3.345,-9.275,-1.094,-4.173,-2.24,-4.2,-2.8
,-9.074,-1.642,-3.13,-8.782,-1.017,-3.963,-1.82,-3.15,-2.45
5073.0,-8.638,-1.187,-3.872,-9.232,-1.948,-3.082,-4.83,-2.17,-3.22
,-8.732,-1.335,-3.881,-9.375,-1.792,-3.35,-5.11,-1.33,-3.85
,-8.768,-1.431,-3.553,-9.184,-1.57,-3.697,-5.39,-0.63,-4.06
,-9.0,-1.718,-3.29,-8.875,-1.515,-3.781,-6.09,0.35,-3.99
5149.0,-8.839,-1.503,-4.042,-9.002,-1.591,-3.604,-2.8,2.66,-1.05
,-8.839,-1.725,-3.984,-8.993,-1.744,-3.491,-2.94,3.01,-1.26
,-8.849,-1.783,-3.869,-9.072,-1.694,-3.62,-2.17,3.78,-2.17
,-8.916,-1.572,-3.723,-9.016,-1.385,-3.781,-1.12,4.2,-2.24
5224.0,-8.902,-1.24,-3.898,-9.038,-1.079,-4.815,2.73,6.23,0.14
,-8.835,-1.29,-3.86,-8.894,-1.024,-4.975,1.89,6.37,-0.07
,-8.933,-1.359,-3.963,-8.693,-1.019,-4.901,1.4,6.65,-0.14
,-9.057,-1.309,-4.245,-8.696,-1.35,-4.731,1.89,6.72,-0.28
5300.0,-8.768,-1.608,-4.53,-8.715,-0.51,-4.061,1.12,2.73,-0.77
,-8.935,-1.61,-4.642,-8.638,-0.768,-3.884,3.43,2.17,-0.42
,-8.928,-1.352,-4.788,-8.693,-1.63,-3.745,5.74,1.4,-0.56
,-9.155,-1.077,-4.551,-8.835,-2.29,-3.786,5.81,1.19,-3.78
5375.0,-8.911,-2.297,-3.75,-9.098,-1.304,-3.692,-6.93,4.13,-8.12
,-8.949,-2.206,-3.503,-9.033,-1.326,-3.96,-5.32,4.76,-6.79
,-9.093,-1.979,-3.35,-8.993,-1.237,-4.075,-4.13,5.18,-5.67
,-9.15,-1.481,-3.417,-8.938,-1.342,-4.346,-3.99,5.67,-4.48
5451.0,-8.799,-1.426,-4.456,-8.815,-1.153,-4.905,-1.33,3.5,0.42
,-8.82,-1.457,-4.566,-8.768,-1.187,-4.8,1.12,2.87,1.68
,-8.811,-1.314,-4.891,-8.708,-1.165,-4.508,4.13,2.03,2.87
,-8.825,-1.113,-4.951,-8.713,-1.314,-4.252,6.02,0.7,3.57
5527.0,-8.851,-1.493,-4.027,-8.995,-1.845,-3.534,2.38,-1.54,1.82
,-9.057,-1.536,-3.821,-8.973,-1.785,-3.654,0.98,-1.4,0.7
,-8.976,-1.51,-3.786,-8.894,-1.685,-3.841,-1.4,-1.26,-0.49
,-8.909,-1.795,-3.606,-8.938,-1.622,-4.046,-4.13,-0.91,-1.19
5603.0,-8.849,-1.505,-4.125,-8.897,-1.694,-4.164,-4.2,1.47,0.14
,-8.902,-1.565,-4.101,-8.981,-1.706,-4.192,-3.29,1.61,0.35
,-8.885,-1.407,-4.226,-8.866,-1.661,-4.173,-1.89,1.96,0.07
,-8.768,-1.594,-4.147,-8.861,-1.601,-4.176,-1.19,2.52,0.07
5678.0,-8.921,-1.622,-4.195,-8.99,-1.263,-4.113,4.97,2.66,2.24
,-8.899,-1.541,-3.979,-8.976,-1.247,-4.051,4.97,2.73,2.52
,-8.916,-1.443,-4.037,-8.964,-1.113,-4.188,5.04,3.08,2.73
,-8.985,-1.247,-4.051,-8.93,-1.266,-4.228,4.83,3.08,2.66
5754.0,-8.847,-1.421,-4.212,-8.93,-1.455,-4.13,0.28,1.82,2.94
,-8.825,-1.426,-4.192,-8.926,-1.45,-4.14,0.42,1.82,3.08
,-8.82,-1.555,-4.185,-8.921,-1.4,-4.216,0.49,1.82,3.22
,-8.894,-1.522,-4.154,-8.842,-1.472,-4.188,1.33,2.03,3.36
5829.0,-8.88,-1.472,-4.324,-8.866,-1.424,-4.101,1.75,1.4,2.8
,-8.878,-1.448,-4.331,-8.885,-1.362,-3.934,2.31,1.47,2.87
,-8.787,-1.527,-4.243,-8.959,-1.307,-3.963,2.94,1.54,2.8
,-8.777,-1.503,-4.221,-9.016,-1.287,-4.056,3.85,1.89,2.8
5905.0,-8.875,-1.318,-4.123,-8.882,-1.225,-4.238,3.08,2.8,2.31
,-8.866,-1.421,-4.188,-8.868,-1.074,-4.238,2.87,2.8,2.38
,-8.863,-1.347,-4.228,-8.897,-1.249,-4.171,3.22,2.8,2.38
,-8.861,-1.318,-4.183,-8.981,-1.259,-4.109,3.22,2.66,2.17
5981.0,-8.933,-1.225,-4.259,-8.899,-1.421,-4.164,1.19,2.03,1.68
,-8.894,-1.251,-4.286,-8.909,-1.539,-4.063,0.91,1.96,1.54
,-8.825,-1.364,-4.255,-8.954,-1.328,-4.094,1.05,2.1,1.68
,-8.851,-1.364,-4.204,-8.89,-1.175,-4.056,1.4,1.89,1.68
6057.0,-8.926,-1.24,-4.061,-8.856,-1.352,-4.362,1.12,2.31,0.7
,-8.923,-1.309,-4.166,-8.799,-1.388,-4.331,0.56,2.38,0.91
,-8.83,-1.433,-4.19,-8.847,-1.383,-4.322,0.21,2.45,0.98
,-8.847,-1.369,-4.331,-8.882,-1.244,-4.271,0.77,2.59,1.19
6133.0,-8.832,-1.342,-4.281,-8.887,-1.56,-4.02,1.68,2.03,0.84
,-8.83,-1.505,-4.216,-8.904,-1.441,-4.034,1.47,2.03,0.91
,-8.851,-1.579,-4.219,-8.878,-1.297,-4.061,2.03,1.96,1.19
,-8.861,-1.522,-4.243,-8.945,-1.237,-3.996,3.15,1.82,1.68
6208.0,-8.978,-1.189,-4.02,-8.741,-1.266,-4.03,3.22,2.1,2.8
,-8.899,-1.161,-4.145,-8.938,-1.237,-4.264,2.1,2.03,2.59
,-8.93,-1.326,-4.154,-8.942,-1.12,-4.357,1.19,1.96,2.03
,-8.782,-1.352,-4.106,-8.849,-1.055,-4.353,0.63,2.1,1.33
6284.0,-8.89,-1.192,-4.408,-8.679,-1.354,-4.69,-5.6,1.05,-1.61
,-9.009,-1.17,-4.563,-8.701,-0.881,-4.862,-7.42,1.12,-0.7
,-8.959,-1.304,-4.661,-8.756,-0.771,-4.831,-8.75,0.56,0.14
,-8.758,-1.582,-4.609,-8.854,-0.845,-4.633,-7.77,0.21,0.63
6360.0,-8.847,-1.05,-4.53,-8.94,-1.543,-3.965,-6.3,-2.38,-0.91
,-8.885,-1.163,-4.41,-8.859,-1.646,-3.778,-8.05,-2.73,-1.61
,-8.899,-1.328,-4.252,-8.928,-1.649,-3.666,-8.89,-3.22,-2.03
,-9.0,-1.484,-4.109,-9.048,-1.546,-3.592,-8.89,-3.57,-2.17
6436.0,-8.969,-1.29,-3.458,-8.856,-1.405,-3.814,-3.71,-0.77,-1.12
,-9.038,-1.309,-3.479,-8.787,-1.615,-3.929,-3.57,-0.14,-0.42
,-9.024,-1.4,-3.599,-8.844,-1.62,-4.061,-3.29,0.35,0.28
,-8.93,-1.302,-3.711,-8.804,-1.405,-4.36,-2.73,0.98,0.91
6511.0,-8.849,-1.184,-4.558,-9.005,-1.316,-4.633,-0.07,2.03,2.59
,-8.737,-1.134,-4.573,-8.847,-1.247,-4.353,-1.05,1.82,2.45
,-8.76,-1.271,-4.57,-8.897,-1.115,-3.944,-2.1,1.61,2.45
,-8.952,-1.275,-4.542,-9.007,-0.912,-3.991,-2.59,1.54,3.01
6587.0,-8.94,-1.062,-3.817,-8.871,-1.563,-3.508,-4.48,0.98,1.61
,-8.911,-1.268,-3.697,-8.981,-1.493,-3.254,-5.53,1.26,1.75
,-8.938,-1.536,-3.745,-9.024,-1.553,-3.221,-5.6,1.89,2.24
,-8.861,-1.668,-3.542,-8.926,-1.788,-3.053,-4.76,2.59,3.43
6662.0,-8.918,-1.991,-2.711,-8.815,0.06,-4.453,-0.77,9.38,7.91
,-9.019,-1.792,-2.874,-8.442,0.335,-4.436,2.24,11.34,9.66
,-9.172,-1.397,-3.104,-8.559,-0.026,-4.025,4.97,12.6,10.92
,-9.251,-0.538,-3.903,-8.887,-0.699,-3.226,6.93,12.46,10.99
6738.0,-9.115,-1.117,-3.017,-8.691,-0.849,-4.771,-10.15,14.77,4.69
,-9.246,-1.132,-2.757,-8.342,-1.45,-5.054,-9.52,15.89,4.27
,-9.275,-0.672,-3.965,-8.122,-2.079,-4.642,-8.12,15.68,3.29
,-8.916,-0.5,-4.513,-8.437,-2.383,-4.506,-9.52,14.28,2.45
6814.0,-8.567,-1.68,-4.31,-8.806,-1.441,-3.795,0.49,20.58,4.06
,-8.792,-0.818,-4.506,-8.619,-1.457,-4.453,4.62,21.0,2.52
,-9.043,-0.653,-4.293,-8.445,-1.318,-4.987,2.38,20.93,1.61
,-9.009,-0.964,-4.14,-8.272,-1.309,-5.733,-1.4,21.14,2.1
6890.0,-7.789,-1.338,-5.803,-8.679,-0.988,-4.695,8.54,18.34,9.87
,-8.105,-0.957,-5.391,-8.765,-1.039,-4.472,11.76,19.6,10.92
,-8.784,-1.168,-4.587,-8.701,-1.247,-3.872,13.37,21.0,10.5
,-8.839,-1.196,-4.826,-8.964,-0.792,-3.692,14.91,20.44,10.15
6965.0,-8.823,-0.555,-4.03,-8.224,-0.632,-4.518,14.14,23.59,10.22
,-8.516,-0.048,-4.535,-8.571,-0.646,-4.724,14.21,23.31,9.59
,-8.284,-0.079,-5.02,-8.433,-0.17,-5.126,11.55,22.96,8.96
,-7.952,-0.278,-5.157,-8.595,0.232,-5.183,9.52,23.45,9.38
7041.0,-8.873,0.038,-5.111,-8.256,-0.663,-5.958,10.85,21.56,6.79
,-8.804,-0.002,-4.826,-8.071,-0.878,-6.167,8.54,21.35,6.09
,-8.684,0.024,-4.496,-7.861,-0.95,-6.016,6.02,21.42,5.32
,-8.536,-0.352,-5.24,-7.71,-1.019,-5.592,3.08,19.67,2.45
7117.0,-7.794,-1.328,-5.714,-8.157,0.371,-5.982,6.09,19.46,3.99
,-8.014,-1.388,-6.109,-8.378,0.089,-5.508,10.01,17.57,5.04
,-8.184,-0.84,-6.377,-8.624,-0.194,-5.307,14.49,14.63,6.02
,-8.16,0.096,-6.322,-8.308,-0.38,-5.602,15.82,13.51,6.51
7193.0,-8.133,-0.677,-5.736,-8.122,-1.261,-6.023,1.75,14.49,-1.75
,-8.198,-1.089,-5.745,-8.009,-0.388,-6.356,1.61,14.21,-1.33
,-7.973,-1.625,-5.43,-7.98,0.17,-6.387,2.38,15.33,-0.21
,-8.086,-1.603,-5.434,-7.844,-0.014,-6.126,7.77,15.96,2.17
7269.0,-7.803,-0.273,-5.793,-8.179,-1.271,-5.638,9.03,11.13,1.61
,-8.004,-0.885,-5.772,-7.921,-1.445,-5.461,4.9,11.69,-0.63
,-8.279,-1.357,-5.518,-7.887,-1.366,-5.52,3.15,11.62,-1.4
,-8.172,-1.216,-5.446,-7.988,-1.139,-5.535,4.62,11.2,-1.54
7344.0,-7.82,-0.658,-6.035,-7.542,-1.029,-6.028,10.99,11.34,1.96
,-8.122,0.057,-6.437,-7.54,-1.318,-6.061,10.22,13.58,-5.18
,-9.569,-0.012,-6.19,-7.696,-1.412,-6.03,10.43,9.17,-3.15
,-7.968,-0.373,-6.143,-8.196,-1.565,-5.652,7.14,7.0,-0.63
7420.0,-8.256,-1.441,-5.812,-7.767,-0.45,-5.968,4.48,9.17,-0.35
,-8.117,-1.563,-5.681,-7.978,0.098,-6.133,4.27,8.61,1.12
,-7.937,-1.555,-5.518,-7.911,0.577,-6.068,4.76,7.14,1.54
,-7.782,-1.122,-5.848,-8.035,0.605,-5.908,6.79,5.81,2.59
7495.0,-8.303,0.184,-5.681,-7.887,-0.955,-5.76,0.14,7.7,-3.43
,-8.543,0.043,-5.733,-7.875,-1.017,-5.956,0.42,7.28,-4.41
,-8.457,-0.163,-5.633,-7.789,-1.072,-6.162,0.77,5.95,-3.92
,-8.033,-0.464,-5.669,-7.918,-1.053,-6.458,0.63,4.55,-2.73
7571.0,-7.712,-1.615,-6.569,-7.133,-2.788,-6.458,0.56,4.97,-0.49
,-7.574,-2.469,-6.43,-7.475,-2.668,-6.411,0.07,5.88,2.38
,-7.777,-2.974,-6.415,-7.44,-2.41,-6.545,0.98,6.37,5.18
,-7.624,-3.135,-6.315,-7.892,-2.144,-6.315,1.33,3.85,6.44
7647.0,-7.932,-1.34,-6.379,-8.11,-0.136,-6.198,7.77,1.82,9.1
,-7.631,-0.495,-6.571,-8.241,-0.146,-5.946,8.26,1.4,10.01
,-7.865,-0.299,-6.274,-8.076,-0.177,-6.001,7.63,2.1,8.54
,-7.849,0.148,-6.384,-7.937,-0.371,-5.906,7.7,3.5,7.7
7723.0,-7.94,-0.282,-5.678,-8.059,-0.122,-6.36,7.21,0.63,6.37
,-7.727,0.134,-6.123,-7.937,-0.093,-6.365,8.54,1.05,4.76
,-7.98,0.163,-6.073,-7.72,0.132,-6.339,7.56,2.24,2.52
,-8.098,0.081,-6.109,-7.803,-0.395,-5.889,4.76,3.15,1.68
7798.0,-7.834,-0.78,-5.719,-7.818,-1.039,-5.939,2.45,3.57,-2.94
,-8.086,-1.019,-5.743,-8.1,-0.914,-6.145,3.15,3.64,-3.15
,-8.04,-1.003,-5.76,-7.703,-0.782,-6.296,4.55,2.52,-3.64
,-7.949,-1.012,-5.877,-7.533,-0.718,-6.585,5.53,2.24,-3.5
7874.0,-7.533,-0.811,-6.478,-7.557,-2.711,-6.083,3.85,1.75,-3.64
,-7.667,-1.527,-6.513,-7.475,-2.56,-6.324,1.82,2.24,-3.01
,-7.863,-2.175,-6.399,-7.471,-2.324,-6.502,1.82,2.73,-0.98
,-7.837,-2.577,-6.078,-7.899,-2.067,-6.332,3.85,1.89,2.03
7950.0,-7.865,-1.84,-6.324,-7.557,-0.672,-6.083,11.27,1.47,7.7
,-7.882,-1.62,-6.363,-7.535,-0.656,-6.1,11.55,1.54,8.89
,-7.882,-1.414,-6.123,-7.81,-0.622,-6.021,11.06,1.33,9.1
,-7.76,-1.189,-6.061,-8.227,-0.467,-5.896,11.13,1.12,9.1
8026.0,-8.15,-0.005,-5.963,-7.956,-0.395,-6.049,9.24,0.91,7.91
,-7.961,-0.043,-5.985,-8.016,-0.572,-5.956,7.21,1.26,7.49
,-8.021,-0.041,-5.891,-7.798,-0.711,-6.021,4.34,1.89,6.44
,-7.988,-0.007,-6.035,-7.798,-0.792,-6.059,2.45,2.31,5.25
8101.0,-7.669,-0.735,-5.98,-8.131,-0.469,-6.052,2.8,1.68,2.87
,-7.657,-0.849,-6.059,-8.031,-0.692,-5.934,3.08,1.47,2.52
,-7.736,-0.589,-5.999,-8.007,-0.833,-5.855,4.13,1.68,2.1
,-7.952,-0.294,-6.217,-7.961,-0.962,-5.851,4.2,2.03,1.19
8177.0,-7.81,-1.151,-5.872,-7.643,-1.421,-6.119,1.82,2.24,-1.26
,-7.722,-1.407,-5.949,-7.641,-1.309,-6.076,2.03,2.38,-1.12
,-7.925,-1.364,-6.1,-7.686,-1.302,-6.09,3.08,2.45,-1.19
,-7.947,-1.378,-6.119,-7.815,-1.326,-6.08,3.57,2.17,-0.91
8253.0,-7.971,-1.381,-6.011,-7.842,-0.986,-5.982,5.11,1.96,1.4
,-7.99,-1.263,-5.987,-7.892,-0.84,-6.023,5.39,1.75,1.75
,-7.825,-1.424,-5.934,-7.849,-0.574,-6.013,5.46,1.4,2.38
,-7.703,-1.297,-5.913,-7.818,-0.507,-5.989,6.44,1.68,2.94
8328.0,-7.765,-0.656,-5.755,-7.99,-0.309,-6.092,5.04,2.94,1.33
,-7.621,-0.56,-5.803,-7.664,-0.44,-6.207,5.32,2.73,1.05
,-7.844,-0.108,-6.1,-7.624,-0.84,-6.176,5.53,3.29,0.14
,-8.167,0.06,-6.229,-7.698,-1.35,-5.944,3.78,3.71,-0.84
8404.0,-7.686,-1.414,-6.044,-7.731,-1.321,-6.305,-1.47,5.18,-0.56
,-7.873,-1.254,-6.19,-7.574,-1.455,-6.257,-1.68,6.09,-0.35
,-7.889,-1.242,-6.334,-7.576,-1.117,-6.382,-2.45,6.58,-0.35
,-7.921,-1.108,-6.437,-7.645,-0.861,-6.559,-2.8,6.79,0.0
8480.0,-7.806,-0.553,-6.633,-7.55,-0.871,-6.743,-3.71,8.12,-1.05
,-8.002,-0.258,-6.669,-7.746,-1.266,-6.597,-5.25,7.98,-2.52
,-7.88,-0.373,-6.571,-8.023,-1.218,-6.576,-7.77,7.21,-2.8
,-7.633,-0.529,-6.667,-7.997,-1.192,-6.394,-9.31,6.72,-2.59
8556.0,-7.806,-0.885,-6.415,-7.832,-0.309,-6.521,-5.32,2.59,-2.94
,-7.87,-0.309,-6.636,-7.784,-0.558,-6.533,-3.64,1.4,-3.5
,-7.928,0.065,-6.626,-8.117,-0.931,-6.363,-3.92,0.49,-3.99
,-7.83,-0.148,-6.588,-7.88,-1.019,-6.425,-5.67,0.21,-4.27
8631.0,-7.672,-1.436,-6.37,-7.626,-1.192,-6.358,-1.75,-3.43,-3.64
,-7.691,-1.383,-6.403,-7.863,-1.397,-6.131,-0.21,-5.46,-3.71
,-7.373,-1.481,-6.497,-8.239,-1.005,-6.616,1.47,-6.44,-3.36
,-7.344,-1.158,-6.49,-7.892,-1.194,-5.977,2.87,-6.3,-2.38
8707.0,-7.717,-0.84,-6.25,-8.043,-1.127,-5.848,7.56,-5.67,0.7
,-7.545,-1.062,-6.15,-7.772,-1.261,-5.925,7.35,-4.41,1.61
,-7.995,-1.374,-5.92,-7.992,-1.345,-5.863,8.19,-3.01,2.24
,-8.246,-0.938,-5.97,-7.688,-0.861,-5.875,9.03,-3.43,2.31
8783.0,-7.468,-0.737,-6.126,-7.887,-0.651,-5.848,10.78,-8.33,2.59
,-7.511,-0.519,-5.049,-7.727,-0.366,-5.853,10.22,-7.77,0.84
,-8.083,-0.266,-6.133,-7.916,-0.756,-5.69,9.94,-7.98,-0.35
,-8.339,-0.56,-5.865,-7.992,-0.921,-5.506,8.47,-6.86,0.56
8859.0,-8.126,-1.022,-5.365,-7.887,-1.184,-5.824,10.01,-4.2,1.89
,-8.224,-1.036,-5.523,-8.05,-1.043,-5.961,10.92,-4.34,2.8
,-7.971,-1.278,-5.602,-7.734,-0.67,-6.178,9.8,-5.39,3.64
,-7.588,-1.256,-5.884,-7.672,-0.847,-5.803,9.52,-6.44,3.22
8934.0,-7.588,-0.926,-5.958,-8.055,-1.06,-5.688,4.41,-9.8,0.14
,-8.244,-0.902,-5.944,-8.05,-1.156,-5.812,4.48,-8.33,0.49
,-8.119,-0.905,-5.982,-7.868,-0.881,-5.848,5.46,-7.28,2.45
,-8.131,-0.641,-6.004,-8.04,-0.603,-5.977,5.46,-6.09,3.43
9010.0,-8.428,-0.768,-5.992,-7.885,-1.117,-5.805,4.69,-7.21,0.63
,-8.315,-0.67,-6.037,-8.114,-1.426,-5.654,3.5,-8.61,0.14
,-7.846,-0.615,-6.126,-8.057,-1.584,-5.767,2.1,-9.8,0.14
,-7.784,-0.768,-6.03,-8.033,-1.811,-5.721,0.63,-9.87,-0.28
9085.0,-8.057,-1.732,-5.779,-8.272,-0.878,-5.628,4.48,-7.77,2.59
,-7.964,-1.299,-5.858,-8.179,-1.027,-5.36,6.65,-8.82,3.08
,-7.997,-0.866,-5.786,-8.263,-1.091,-5.178,6.65,-9.73,2.59
,-8.258,-0.775,-6.188,-8.167,-0.799,-5.138,4.69,-11.27,0.91
9161.0,-8.301,-0.546,-4.972,-8.37,-0.933,-4.853,4.48,-11.13,-1.19
,-8.459,-0.34,-5.116,-8.294,-1.053,-4.736,4.55,-11.41,-1.96
,-8.449,-0.404,-4.944,-8.413,-0.881,-4.654,3.43,-11.06,-1.47
,-8.437,-0.574,-4.867,-8.272,-0.476,-4.752,2.59,-10.78,-1.12
9237.0,-8.402,-0.055,-4.913,-8.607,-1.0,-4.683,0.63,-11.97,-8.54
,-8.471,-0.081,-5.047,-8.402,-1.149,-4.822,-2.8,-11.9,-9.31
,-8.385,-0.412,-4.987,-8.27,-1.309,-4.822,-6.09,-11.69,-10.5
,-8.512,-0.677,-4.731,-8.402,-1.457,-4.92,-7.84,-10.92,-10.57
9313.0,-8.48,-1.519,-5.027,-7.999,-2.039,-4.972,-5.25,-10.5,-6.02
,-8.581,-1.809,-4.927,-8.074,-1.979,-5.09,-5.6,-10.15,-6.23
,-8.363,-1.881,-4.941,-8.55,-1.761,-5.085,-4.9,-9.94,-7.21
,-8.083,-1.931,-4.649,-8.579,-1.161,-5.654,-4.13,-9.66,-6.79
9389.0,-8.241,-1.192,-5.116,-8.485,-1.273,-4.764,5.67,-9.31,0.63
,-8.39,-1.309,-4.949,-8.512,-1.144,-4.836,6.58,-9.03,2.1
,-8.469,-1.211,-4.738,-8.521,-1.194,-4.669,7.84,-8.47,3.22
,-8.55,-1.211,-4.815,-8.693,-0.976,-4.661,9.52,-8.4,4.76
9464.0,-8.794,-0.759,-4.858,-8.466,-1.393,-4.235,14.63,-7.63,5.53
,-8.512,-0.297,-4.908,-8.739,-1.711,-4.405,14.35,-8.19,4.48
,-8.509,-0.447,-4.862,-8.725,-1.364,-4.676,11.34,-8.4,3.5
,-8.363,-0.897,-4.537,-8.686,-1.017,-4.764,7.49,-8.26,2.8
9540.0,-8.679,-0.96,-4.721,-8.411,-1.079,-4.771,8.05,-7.0,0.14
,-8.636,-0.864,-4.898,-8.713,-1.184,-4.633,6.65,-7.14,-0.91
,-8.514,-1.041,-4.618,-8.878,-1.079,-4.85,4.76,-6.79,-1.47
,-8.437,-1.084,-4.901,-8.777,-0.864,-5.039,3.08,-7.21,-2.45
9616.0,-8.653,-0.787,-5.063,-8.294,-1.567,-4.74,2.59,-8.75,-4.27
,-8.512,-1.012,-5.217,-8.76,-1.455,-4.295,0.35,-9.38,-5.25
,-8.265,-1.323,-5.272,-8.871,-1.182,-4.353,-1.12,-10.36,-5.88
,-8.287,-1.455,-4.817,-8.854,-1.141,-4.305,-1.19,-10.29,-5.95
9692.0,-8.808,-0.976,-4.669,-8.624,-1.297,-4.415,-4.06,-10.01,-6.16
,-8.677,-0.931,-4.724,-8.866,-1.541,-4.125,-4.62,-10.5,-6.09
,-8.591,-0.933,-4.413,-8.928,-1.701,-4.039,-6.09,-10.78,-6.72
,-8.536,-1.062,-4.726,-8.827,-1.637,-4.14,-7.07,-10.01,-7.56
9767.0,-8.737,-1.517,-4.044,-8.875,-1.816,-3.577,-6.65,-8.4,-6.58
,-8.729,-1.522,-4.145,-9.052,-1.632,-3.594,-6.79,-8.05,-6.02
,-8.533,-1.522,-3.836,-9.225,-1.584,-3.429,-6.58,-7.42,-5.46
,-8.772,-1.646,-3.855,-9.124,-1.524,-3.417,-4.55,-5.67,-4.27
9843.0,-8.926,-1.354,-3.702,-9.043,-1.838,-3.247,-4.34,-1.26,-1.19
,-8.746,-1.603,-3.565,-9.052,-1.503,-3.463,-4.83,-0.14,-0.77
,-8.684,-1.965,-3.226,-9.055,-1.146,-3.85,-4.34,1.54,-0.21
,-8.748,-2.096,-3.087,-8.933,-1.043,-4.264,-2.24,3.71,0.49
9918.0,-8.72,-1.228,-4.585,-8.825,-1.582,-4.805,1.12,7.7,2.03
,-8.452,-1.299,-4.673,-8.801,-1.417,-4.625,1.05,8.12,1.89
,-8.483,-1.723,-4.714,-8.789,-1.141,-4.886,1.75,8.68,1.68
,-8.658,-1.847,-4.642,-8.763,-1.127,-4.999,4.34,9.1,1.96
9994.0,-8.634,-1.098,-4.937,-8.746,-1.481,-4.853,8.96,6.58,3.57
,-8.591,-1.263,-4.925,-8.777,-1.199,-4.915,8.47,6.16,3.43
,-8.552,-1.541,-4.958,-8.636,-1.098,-4.972,8.47,5.6,3.22
,-8.547,-1.658,-4.724,-8.593,-1.05,-4.92,9.66,5.46,3.57
10070.0,-8.557,-0.893,-4.838,-8.792,-1.314,-4.544,10.78,3.78,3.43
,-8.696,-1.151,-4.767,-8.746,-1.149,-4.511,9.03,3.64,2.73
,-8.732,-1.452,-4.563,-8.703,-1.024,-4.429,8.54,3.57,2.59
,-8.772,-1.414,-4.594,-8.708,-1.098,-4.283,9.45,3.36,3.08
10146.0,-8.775,-1.17,-4.279,-8.72,-1.412,-4.714,5.6,2.8,1.82
,-8.792,-1.108,-4.255,-8.581,-1.35,-4.779,4.62,2.87,1.19
,-8.825,-1.321,-4.324,-8.555,-1.321,-4.882,3.22,2.8,0.77
,-8.804,-1.479,-4.429,-8.583,-1.211,-4.972,3.36,2.94,0.91
10221.0,-8.686,-1.278,-4.843,-8.662,-1.692,-4.599,4.83,2.38,1.68
,-8.739,-1.429,-4.791,-8.722,-1.496,-4.647,4.55,1.96,1.75
,-8.729,-1.431,-4.645,-8.624,-1.517,-4.769,4.62,1.54,2.17
,-8.686,-1.665,-4.568,-8.614,-1.639,-4.659,4.83,1.33,2.52
10297.0,-8.593,-1.543,-4.532,-8.792,-0.981,-4.657,7.56,1.26,4.2
,-8.684,-1.491,-4.556,-8.787,-0.84,-4.628,8.82,1.47,4.41
,-8.763,-1.137,-4.74,-8.672,-0.852,-4.554,9.31,1.26,4.27
,-8.734,-1.055,-4.649,-8.626,-1.144,-4.472,8.47,0.84,4.2
10373.0,-8.684,-1.378,-4.288,-8.77,-1.314,-4.398,0.63,0.07,1.12
,-8.796,-1.302,-4.302,-8.662,-1.216,-4.48,0.7,0.07,0.84
,-8.83,-1.263,-4.348,-8.681,-1.311,-4.489,0.49,0.07,0.63
,-8.818,-1.273,-4.41,-8.672,-1.407,-4.614,-0.21,0.07,0.56
10449.0,-8.698,-1.326,-4.652,-8.78,-0.96,-4.491,-1.61,0.7,-0.42
,-8.698,-1.323,-4.582,-8.83,-1.05,-4.463,-1.12,0.77,-0.07
,-8.727,-1.146,-4.585,-8.806,-1.163,-4.396,-0.7,0.77,-0.07
,-8.727,-0.998,-4.506,-8.765,-1.251,-4.269,-0.77,0.7,-0.14
10525.0,-8.806,-1.4,-4.204,-8.739,-1.651,-4.398,-4.69,1.05,-1.47
,-8.854,-1.405,-4.29,-8.67,-1.589,-4.424,-3.99,1.4,-1.19
,-8.827,-1.328,-4.384,-8.734,-1.524,-4.499,-3.57,1.47,-0.91
,-8.725,-1.467,-4.456,-8.672,-1.393,-4.647,-3.5,1.54,-0.63
10600.0,-8.703,-1.199,-4.736,-8.614,-1.196,-4.573,2.24,2.66,1.61
,-8.708,-1.046,-4.901,-8.748,-1.177,-4.597,2.1,2.38,1.61
,-8.691,-1.129,-4.891,-8.835,-1.108,-4.566,1.4,1.82,1.47
,-8.614,-1.175,-4.822,-8.813,-1.244,-4.508,1.26,1.61,1.26
10676.0,-8.732,-1.326,-4.491,-8.789,-1.405,-4.302,0.21,0.84,0.77
,-8.725,-1.405,-4.42,-8.839,-1.326,-4.3,0.35,1.05,0.98
,-8.672,-1.496,-4.374,-8.825,-1.125,-4.384,0.77,1.4,1.19
,-8.662,-1.529,-4.307,-8.808,-0.974,-4.508,1.54,2.17,1.47
10751.0,-8.737,-0.972,-4.525,-8.696,-1.23,-4.779,1.19,2.66,1.19
,-8.689,-1.11,-4.659,-8.658,-1.196,-4.688,0.14,2.45,0.63
,-8.655,-1.311,-4.688,-8.725,-1.134,-4.637,0.07,2.45,0.63
,-8.729,-1.247,-4.867,-8.71,-1.084,-4.503,0.84,2.17,0.77
10827.0,-8.77,-1.132,-4.48,-8.729,-1.323,-4.357,0.91,1.68,0.28
,-8.78,-1.295,-4.353,-8.717,-1.213,-4.48,0.07,1.82,0.07
,-8.777,-1.364,-4.357,-8.739,-1.122,-4.575,0.07,1.96,0.14
,-8.725,-1.29,-4.326,-8.701,-1.089,-4.673,0.42,2.24,0.49
10903.0,-8.71,-1.043,-4.714,-8.689,-1.263,-4.525,0.35,2.52,0.49
,-8.634,-1.101,-4.692,-8.765,-1.378,-4.453,-0.21,2.24,0.21
,-8.617,-1.156,-4.695,-8.753,-1.4,-4.343,-0.63,2.1,0.0
,-8.646,-1.211,-4.654,-8.792,-1.29,-4.525,-0.84,2.1,-0.35
10979.0,-8.765,-1.206,-4.434,-8.598,-1.208,-4.798,0.84,2.45,0.42
,-8.763,-1.235,-4.633,-8.67,-1.182,-4.858,0.77,2.38,0.35
,-8.686,-1.139,-4.771,-8.653,-1.115,-4.807,0.77,2.17,0.21
,-8.737,-1.17,-4.841,-8.653,-1.043,-4.843,0.14,1.89,0.21
11054.0,-8.648,-1.077,-4.757,-8.715,-1.383,-4.575,-2.38,0.77,-0.07
,-8.655,-1.129,-4.537,-8.72,-1.464,-4.539,-3.43,0.63,-0.28
,-8.691,-1.18,-4.477,-8.622,-1.484,-4.556,-4.06,0.56,-0.56
,-8.674,-1.362,-4.458,-8.562,-1.488,-4.501,-4.69,0.56,-0.77
11130.0,-8.65,-1.488,-4.386,-8.672,-1.232,-4.532,-1.19,1.61,0.84
,-8.76,-1.323,-4.458,-8.524,-1.598,-4.408,-0.14,1.75,1.05
,-8.739,-1.287,-4.496,-8.488,-1.843,-4.302,0.07,1.96,1.26
,-8.77,-1.24,-4.53,-8.631,-1.862,-4.14,0.07,2.03,1.4
11205.0,-8.679,-1.924,-3.999,-8.567,-1.67,-4.752,7.21,4.9,5.46
,-8.827,-1.768,-4.111,-8.526,-1.838,-5.037,9.94,5.81,6.86
,-8.827,-1.541,-4.214,-8.497,-2.029,-5.178,11.9,6.3,7.98
,-8.681,-1.529,-4.64,-8.279,-1.831,-5.413,12.25,6.37,8.96
11281.0,-8.315,-1.153,-5.444,-8.957,0.043,-4.901,21.28,5.04,13.37
,-8.526,-0.514,-5.389,-8.799,-0.29,-4.508,21.84,4.48,12.67
,-8.737,-0.086,-5.214,-8.82,-0.675,-4.145,19.18,3.64,10.99
,-8.902,0.079,-5.116,-8.906,-0.826,-4.396,14.56,2.59,8.26
11357.0,-8.801,-0.591,-4.336,-8.739,-0.95,-3.9,-1.75,0.7,1.4
,-8.844,-0.498,-4.377,-8.775,-0.29,-4.121,-3.29,0.77,1.12
,-8.808,-0.759,-4.286,-8.804,-0.105,-4.039,-6.23,0.84,0.77
,-8.737,-1.101,-4.082,-8.725,-0.615,-3.709,-7.84,1.4,0.63
11433.0,-8.741,-1.266,-3.223,-8.339,-0.677,-5.82,-20.09,5.04,-4.83
,-8.969,-1.613,-3.496,-7.954,-1.266,-5.755,-18.41,7.14,-3.99
,-9.076,-1.266,-4.338,-7.789,-1.984,-5.183,-14.35,7.35,-3.64
,-8.849,-0.704,-5.13,-8.232,-2.335,-4.518,-12.6,6.09,-3.71
11509.0,-8.777,-2.374,-4.128,-9.074,-0.732,-4.006,-3.92,6.37,3.22
,-9.081,-1.85,-3.838,-9.052,-0.936,-4.106,1.68,7.21,3.29
,-9.129,-1.192,-3.853,-8.464,-0.771,-4.903,3.43,7.91,2.73
,-9.098,-0.778,-3.977,-7.889,-0.407,-5.226,1.26,9.03,1.82
11584.0,-7.966,0.297,-5.506,-8.993,-1.23,-4.113,1.33,9.87,0.84
,-8.21,-0.258,-5.475,-8.866,-0.818,-4.408,-0.49,9.38,0.84
,-8.473,-0.584,-4.893,-8.818,-0.486,-4.59,-1.68,9.45,1.4
,-8.801,-1.297,-4.202,-8.748,-0.684,-4.74,-1.89,9.8,1.96
11660.0,-8.648,-0.952,-4.628,-8.267,-0.555,-5.695,-9.03,10.5,-3.08
,-8.49,-1.089,-4.748,-8.251,-0.799,-5.52,-8.47,10.99,-2.73
,-8.507,-0.584,-5.118,-8.425,-1.149,-5.48,-5.04,10.64,-2.59
,-8.555,-0.292,-5.492,-8.284,-2.075,-4.963,-4.41,9.66,-2.8
11736.0,-8.229,-2.127,-4.968,-8.631,-0.847,-5.03,0.56,9.73,0.56
,-8.483,-1.881,-4.996,-8.459,-0.663,-5.243,6.37,10.22,0.98
,-8.514,-1.113,-5.181,-8.306,-0.522,-5.441,9.03,10.15,2.31
,-8.469,-0.847,-4.944,-8.251,-1.17,-5.269,8.12,10.08,4.27
11812.0,-8.215,-1.732,-4.841,-8.485,-1.278,-4.511,1.89,7.0,4.55
,-8.308,-2.005,-4.625,-8.701,-0.727,-4.676,3.43,8.75,5.04
,-8.394,-2.132,-4.231,-8.691,-0.342,-4.855,5.6,10.29,6.02
,-8.562,-1.771,-4.489,-8.614,0.038,-4.719,9.03,10.85,6.58
11887.0,-8.536,-0.045,-4.657,-8.617,-1.381,-4.63,13.16,12.88,8.12
,-7.894,-0.342,-5.097,-8.533,-1.721,-4.156,12.11,11.2,9.52
,-7.944,-0.675,-5.327,-8.492,-1.697,-4.288,11.34,10.99,10.08
,-8.416,-0.83,-5.066,-8.279,-1.369,-4.676,9.52,11.9,9.31
11963.0,-8.131,-0.529,-5.051,-8.476,0.141,-5.276,15.89,14.0,6.44
,-8.064,0.251,-5.071,-8.416,-0.376,-5.346,15.82,14.28,5.11
,-8.313,0.696,-5.15,-8.043,-0.672,-5.157,12.95,15.89,2.59
,-8.5,0.608,-5.106,-8.256,-0.658,-5.609,8.54,17.64,0.42
12038.0,-8.466,-1.184,-5.382,-7.909,-0.641,-6.274,6.65,16.59,-0.49
,-8.26,-1.395,-5.389,-7.94,-0.689,-6.396,7.35,15.96,0.0
,-7.813,-1.146,-5.745,-7.956,-1.041,-6.356,9.73,15.05,0.63
,-7.712,-0.902,-6.052,-7.803,-1.295,-6.219,10.57,14.0,-0.07
12114.0,-8.136,-1.342,-6.116,-7.959,-1.689,-5.966,2.94,13.37,-2.45
,-7.595,-1.579,-6.104,-7.968,-1.632,-5.927,4.55,12.95,-2.8
,-8.026,-1.618,-5.664,-7.82,-1.601,-6.006,4.13,13.72,-1.89
,-8.078,-1.78,-5.762,-8.011,-1.374,-5.951,4.76,13.58,-0.77
12190.0,-8.138,-1.452,-5.942,-8.066,-0.732,-6.238,7.42,11.41,6.79
,-8.169,-1.285,-5.822,-7.925,-0.916,-5.903,7.84,11.27,7.42
,-8.076,-0.732,-6.068,-8.023,-0.835,-5.877,9.31,10.36,7.77
,-7.911,-0.842,-5.968,-7.696,-0.275,-6.198,7.42,9.59,7.35
12266.0,-7.954,-0.246,-6.052,-8.701,0.201,-6.317,4.62,7.91,7.07
,-8.014,-0.122,-6.097,-8.399,0.376,-6.284,3.22,7.91,5.67
,-8.361,0.065,-6.368,-7.818,0.574,-6.363,0.84,7.56,5.25
,-8.926,-0.108,-6.305,-8.105,0.491,-5.927,0.42,6.16,5.04
12341.0,-7.885,0.704,-6.291,-7.679,-1.414,-5.975,0.0,1.05,-2.73
,-8.145,0.232,-6.234,-7.413,-1.575,-6.365,-2.24,0.21,-5.95
,-7.861,-0.352,-6.088,-7.593,-2.18,-6.205,-3.78,-0.49,-6.93
,-7.787,-1.141,-6.083,-7.449,-2.663,-6.303,-4.27,1.12,-6.44
12417.0,-7.755,-2.898,-6.188,-7.81,-1.948,-6.336,-1.47,0.91,0.7
,-7.566,-3.218,-6.145,-8.251,-1.424,-5.994,-0.63,1.47,3.08
,-7.772,-3.001,-6.119,-8.086,-0.943,-6.044,2.1,-0.56,3.29
,-7.739,-2.426,-6.341,-8.059,-0.811,-5.776,5.04,-2.24,4.69
12493.0,-7.629,-0.522,-5.571,-8.289,0.002,-5.772,6.37,-1.82,8.12
,-7.715,-0.156,-5.757,-8.098,-0.364,-5.561,7.35,-1.12,7.0
,-8.177,-0.151,-5.851,-8.136,-0.682,-5.705,7.91,-1.05,6.44
,-8.172,0.06,-5.906,-8.129,-0.766,-5.64,8.82,-0.56,7.42
12569.0,-7.775,-0.797,-5.824,-8.014,-1.251,-5.566,9.52,-1.54,5.88
,-7.909,-0.739,-5.824,-7.81,-0.909,-5.456,9.17,-0.77,4.83
,-8.138,-1.043,-5.724,-7.815,-0.342,-5.851,6.86,0.21,4.48
,-8.239,-1.24,-5.678,-8.05,-0.235,-5.791,6.23,0.7,4.76
12645.0,-8.095,-0.093,-5.827,-8.04,-0.51,-5.707,7.0,1.96,1.96
,-8.148,-0.17,-5.58,-8.004,-0.72,-5.712,6.16,2.17,1.68
,-8.043,-0.646,-5.497,-8.16,-0.637,-5.528,5.67,2.03,1.82
,-8.014,-0.593,-5.626,-7.954,-0.696,-5.851,6.51,2.1,1.68
12720.0,-8.071,-0.943,-5.906,-7.765,-1.005,-6.131,5.04,4.9,0.77
,-8.05,-1.216,-5.839,-7.885,-1.117,-6.111,5.25,5.32,1.12
,-7.935,-1.362,-5.81,-8.019,-1.321,-6.042,5.67,5.18,1.12
,-7.77,-1.228,-5.961,-7.959,-1.531,-6.078,6.44,4.76,1.05
12796.0,-8.105,-1.591,-6.157,-7.655,-0.94,-6.08,3.71,4.9,2.17
,-8.153,-1.402,-6.133,-7.775,-0.873,-6.109,4.9,4.62,3.29
,-7.923,-1.149,-6.202,-8.009,-0.723,-5.997,5.67,3.5,3.71
,-7.691,-1.098,-6.076,-8.095,-0.639,-6.04,5.39,3.01,3.5
12871.0,-8.019,-0.735,-5.997,-8.011,-0.45,-6.044,4.13,2.59,2.31
,-7.885,-0.593,-5.961,-8.124,-0.354,-6.054,4.13,2.17,2.03
,-7.772,-0.579,-5.982,-8.021,-0.376,-5.994,4.2,2.38,1.82
,-7.947,-0.543,-5.97,-7.968,-0.357,-6.035,3.99,2.87,1.4
12947.0,-7.966,-0.538,-6.059,-7.863,-1.158,-5.987,1.4,2.24,-1.89
,-7.954,-0.782,-6.006,-7.935,-1.067,-6.018,0.7,2.59,-2.52
,-8.062,-0.988,-5.997,-7.803,-1.144,-6.04,0.42,2.52,-2.66
,-7.94,-1.137,-5.91,-7.865,-1.228,-6.006,0.49,2.1,-2.38
13023.0,-7.827,-1.173,-6.03,-7.794,-1.031,-5.966,1.89,1.61,-0.7
,-7.875,-1.024,-6.126,-7.703,-1.189,-6.021,2.38,1.68,0.0
,-7.976,-1.17,-6.061,-7.868,-1.24,-5.918,1.68,1.47,0.35
,-7.985,-1.23,-5.973,-7.971,-1.184,-5.865,1.75,1.4,0.63
13099.0,-7.825,-1.079,-5.779,-8.088,-0.629,-5.896,3.29,1.82,0.28
,-7.724,-0.864,-5.817,-8.055,-0.883,-5.992,3.78,2.31,0.28
,-7.968,-0.67,-5.889,-7.897,-0.866,-6.059,3.43,2.87,0.07
,-8.083,-0.763,-5.853,-7.688,-0.845,-6.164,2.94,3.08,0.14
13174.0,-7.782,-0.9,-6.293,-7.83,-1.551,-5.92,1.47,2.59,0.07
,-7.901,-1.079,-6.212,-7.935,-1.479,-6.001,0.07,2.87,0.0
,-7.77,-1.452,-5.963,-7.93,-1.397,-6.009,-0.77,2.8,0.21
,-7.679,-1.586,-5.81,-7.712,-1.402,-6.114,-0.28,3.43,0.63
13250.0,-7.559,-1.285,-6.135,-7.83,-0.586,-6.231,0.21,4.13,3.85
,-7.724,-0.861,-6.26,-7.882,-0.658,-6.286,0.49,4.34,3.71
,-7.861,-0.677,-6.37,-7.959,-0.656,-6.178,-0.63,3.92,2.94
,-7.897,-0.768,-6.195,-7.885,-0.699,-6.126,-1.68,4.06,2.03
13325.0,-8.062,-0.682,-6.049,-7.949,-0.136,-6.08,-3.36,3.71,0.98
,-8.045,-0.639,-5.987,-7.966,-0.345,-6.049,-3.43,3.64,0.63
,-8.208,-0.333,-5.975,-7.988,-0.215,-6.085,-3.08,3.22,0.35
,-8.174,-0.132,-6.155,-8.1,-0.503,-6.052,-2.94,2.66,-0.49
13401.0,-7.99,-0.814,-6.068,-7.629,-0.933,-6.32,-4.76,0.91,-3.43
,-8.045,-0.711,-6.138,-7.765,-0.945,-6.358,-3.15,-0.49,-3.22
,-7.949,-0.739,-6.217,-7.983,-1.106,-6.19,-2.94,-1.26,-3.15
,-7.782,-0.89,-6.279,-8.071,-1.017,-6.253,-2.66,-1.47,-3.08
13477.0,-8.007,-0.943,-6.214,-7.559,-0.835,-6.095,1.89,2.87,2.38
,-7.949,-0.976,-6.083,-7.55,-0.543,-6.08,3.08,3.43,4.13
,-7.937,-1.426,-6.023,-7.789,-0.483,-5.891,3.29,3.29,4.13
,-7.952,-1.378,-5.827,-7.885,-2.247,-4.59,4.76,0.84,2.24
13553.0,-8.167,-0.725,-5.554,-8.246,-0.83,-5.75,6.93,-2.66,-1.82
,-8.052,-1.015,-5.683,-8.404,-0.83,-5.829,7.0,-2.17,-0.42
,-7.973,-0.725,-5.583,-8.15,-0.68,-6.001,7.0,-1.89,0.21
,-8.117,-0.689,-5.7,-7.801,-0.866,-5.939,7.49,-1.47,0.42
13629.0,-7.777,-0.995,-5.97,-8.138,-0.452,-5.633,6.3,-6.09,-1.4
,-7.483,-0.833,-6.111,-8.354,-0.325,-5.537,4.83,-6.16,-2.1
,-7.856,-1.098,-5.726,-8.22,-0.278,-5.408,4.27,-4.55,-1.47
,-7.971,-1.005,-5.889,-7.935,-0.373,-5.288,6.37,-3.85,-1.19
13704.0,-7.839,-0.531,-5.358,-8.239,-0.725,-5.619,1.47,-3.64,-4.76
,-7.861,-0.871,-5.485,-8.179,-0.828,-5.664,1.26,-2.66,-5.25
,-7.928,-1.158,-5.561,-7.956,-0.567,-5.542,1.82,-2.38,-5.6
,-8.088,-1.251,-5.465,-7.825,-0.615,-5.741,3.36,-1.75,-4.48
13780.0,-7.956,-0.79,-5.609,-8.232,-1.28,-5.836,0.56,-1.75,-5.39
,-8.033,-0.96,-5.75,-8.117,-1.18,-5.922,-0.28,-1.4,-6.16
,-8.019,-1.108,-5.726,-7.71,-1.216,-5.875,-0.7,-1.12,-5.6
,-8.105,-1.271,-5.698,-7.475,-1.479,-5.568,-0.21,-0.7,-5.46
13856.0,-7.684,-1.843,-5.745,-7.976,-1.352,-6.143,-2.1,-2.24,-3.5
,-8.031,-1.725,-6.085,-7.911,-1.232,-6.186,0.28,-2.1,-2.52
,-8.133,-1.603,-6.1,-7.935,-1.058,-6.329,2.03,-2.1,-1.12
,-8.004,-1.242,-6.188,-8.15,-1.134,-6.159,3.78,-1.47,0.14
13932.0,-8.234,-1.177,-6.03,-7.844,-0.792,-6.234,0.42,-3.15,0.42
,-7.94,-1.23,-6.04,-8.033,-0.754,-6.396,0.35,-3.78,0.42
,-7.791,-1.18,-5.966,-8.38,-0.986,-6.033,1.61,-4.13,1.19
,-7.803,-1.05,-6.09,-8.141,-0.907,-6.277,2.17,-4.48,1.19
14007.0,-7.868,-1.07,-5.86,-8.27,-1.031,-5.772,1.89,-6.51,1.68
,-7.686,-1.05,-5.992,-8.394,-0.711,-5.901,2.52,-6.16,1.96
,-7.851,-1.273,-5.848,-7.858,-0.627,-4.02,3.64,-5.67,2.03
,-8.169,-1.388,-5.91,-8.043,-0.141,-5.944,4.97,-5.53,2.38
14083.0,-8.011,-0.651,-5.779,-8.272,-1.173,-5.257,3.71,-7.7,0.56
,-8.057,-0.931,-5.616,-8.433,-1.266,-5.023,2.17,-8.4,-0.56
,-8.5,-0.928,-5.353,-8.172,-0.869,-5.159,2.59,-9.59,-1.89
,-8.217,-0.919,-5.413,-8.186,-0.735,-4.934,3.22,-10.5,-2.45
14158.0,-8.454,-0.818,-4.822,-8.402,-0.701,-4.669,2.38,-11.83,-5.74
,-8.344,-0.778,-4.745,-8.282,-0.976,-4.781,1.96,-12.32,-7.49
,-8.624,-0.581,-4.568,-8.267,-1.072,-4.731,1.89,-11.9,-6.23
,-8.61,-0.603,-4.731,-8.447,-1.369,-4.709,0.84,-11.48,-5.04
14234.0,-8.382,-1.438,-4.709,-8.057,-1.132,-5.492,-2.17,-9.24,-6.79
,-8.126,-1.464,-4.941,-8.076,-1.402,-5.568,-2.87,-8.96,-7.35
,-8.081,-1.498,-5.305,-8.052,-1.673,-5.578,-2.17,-8.89,-7.21
,-8.11,-1.285,-5.58,-8.418,-1.843,-5.48,-0.7,-9.1,-6.79
14310.0,-8.397,-1.78,-5.635,-8.291,-1.053,-5.42,-0.49,-9.24,-4.83
,-8.287,-1.637,-5.499,-8.153,-0.794,-5.659,1.96,-9.52,-3.15
,-8.409,-1.474,-5.243,-8.165,-0.782,-5.817,2.94,-9.45,-1.89
,-8.37,-1.376,-5.312,-8.083,-0.835,-5.657,3.36,-9.8,-1.54
14386.0,-8.44,-1.196,-5.327,-8.296,-1.208,-4.836,-1.05,-13.3,-1.19
,-8.612,-1.421,-5.025,-8.528,-1.309,-4.637,-0.63,-13.93,-1.96
,-8.368,-1.433,-5.245,-8.705,-1.4,-4.279,1.61,-14.49,-1.61
,-8.196,-1.285,-5.087,-8.873,-1.206,-4.288,3.64,-14.98,-0.49
14461.0,-8.787,-1.098,-4.451,-8.514,-0.112,-4.736,7.07,-13.3,3.78
,-8.617,-0.641,-4.436,-8.748,-0.316,-4.989,7.98,-13.72,4.41
,-8.67,-0.412,-4.508,-8.737,-0.586,-5.142,6.79,-13.86,4.2
,-8.703,-0.136,-5.035,-8.614,-1.098,-4.633,5.39,-14.98,2.73
14537.0,-8.794,-1.57,-4.58,-8.555,-1.747,-4.468,-4.76,-16.17,-6.79
,-8.612,-1.608,-4.769,-8.71,-1.493,-4.891,-4.2,-16.66,-6.51
,-8.626,-1.723,-4.506,-8.514,-1.441,-4.7,-4.13,-16.59,-5.88
,-8.732,-1.773,-4.862,-9.105,-1.218,-4.252,-3.43,-16.24,-5.74
14613.0,-8.976,-1.263,-5.03,-8.672,-1.594,-3.649,0.21,-16.45,-2.03
,-8.827,-0.871,-4.939,-8.665,-1.405,-3.577,1.19,-17.85,-0.98
,-8.911,-1.275,-4.255,-8.82,-1.247,-3.549,-0.14,-17.92,-0.35
,-8.815,-1.603,-3.731,-8.909,-1.632,-3.163,-0.63,-17.64,-0.7
14689.0,-9.012,-1.764,-2.941,-8.792,-0.457,-4.695,-4.97,-11.97,-4.06
,-8.964,-1.728,-3.068,-8.966,-0.988,-4.372,-3.22,-10.01,-3.01
,-8.988,-1.651,-3.266,-8.562,-1.149,-3.908,-1.26,-8.47,-2.03
,-9.15,-1.017,-4.247,-8.753,-1.653,-3.369,0.84,-7.98,-2.1
14765.0,-9.146,-2.103,-2.96,-8.894,-1.029,-4.238,-3.57,-6.51,-0.84
,-9.325,-1.977,-3.032,-8.61,-1.06,-4.24,-0.56,-5.67,0.0
,-9.284,-1.486,-3.573,-8.622,-1.177,-4.073,1.68,-5.81,0.49
,-9.15,-1.094,-3.989,-8.76,-1.677,-3.573,2.03,-5.74,1.4
14840.0,-9.04,-2.137,-2.895,-9.404,-1.132,-2.795,-0.98,-0.98,-1.61
,-9.33,-2.053,-2.333,-9.107,-0.893,-3.486,1.54,1.19,-1.26
,-9.306,-1.761,-2.079,-8.708,-1.096,-3.618,2.94,2.8,-0.21
,-9.28,-1.56,-2.125,-8.677,-1.534,-3.443,2.8,5.04,1.12
14916.0,-8.837,-1.663,-3.465,-8.655,-1.125,-4.92,-2.45,9.52,1.68
,-9.119,-1.505,-3.798,-8.418,-1.094,-5.018,-0.21,10.15,2.03
,-9.232,-1.362,-4.293,-8.504,-1.168,-5.288,1.19,9.52,2.52
,-8.981,-1.177,-4.697,-8.691,-1.292,-5.24,1.96,8.47,3.22
14992.0,-8.837,-1.165,-5.035,-8.78,-0.818,-4.216,5.81,6.3,2.8
,-9.079,-1.072,-4.805,-8.914,-1.077,-4.29,6.16,5.32,2.24
,-9.005,-0.754,-4.704,-8.818,-1.381,-4.216,5.46,4.34,0.56
,-8.715,-0.591,-4.24,-8.871,-1.596,-3.927,3.29,4.13,-0.56
15068.0,-8.904,-1.553,-3.81,-8.935,-1.003,-4.671,-1.89,4.62,-0.91
,-9.057,-1.536,-3.79,-8.667,-1.058,-4.748,-0.91,4.97,-0.21
,-9.1,-1.196,-4.116,-8.476,-1.117,-4.666,0.21,4.69,0.49
,-9.007,-1.019,-4.511,-8.689,-1.347,-4.623,0.42,3.99,1.05
15143.0,-8.794,-1.541,-4.372,-8.866,-1.381,-3.905,0.84,2.8,-0.7
,-8.94,-1.405,-4.185,-8.844,-1.393,-3.872,2.38,2.8,-0.84
,-9.019,-1.086,-4.166,-8.952,-1.326,-3.955,2.94,2.73,-0.98
,-8.878,-1.23,-3.975,-9.036,-1.165,-4.145,1.68,3.08,-0.98
15219.0,-9.028,-1.05,-4.369,-8.612,-0.972,-5.03,1.82,3.78,0.98
,-8.971,-0.986,-4.59,-8.703,-1.067,-4.838,1.47,3.01,1.26
,-8.856,-0.979,-4.949,-8.729,-1.455,-4.47,0.98,2.03,1.4
,-8.555,-0.962,-5.035,-8.847,-1.553,-4.216,0.7,1.05,1.33
15294.0,-9.002,-1.417,-4.051,-8.851,-1.534,-3.884,1.47,0.7,0.28
,-8.99,-1.299,-3.989,-8.904,-1.409,-4.082,1.61,0.77,0.28
,-8.899,-1.362,-3.836,-8.921,-1.273,-4.054,1.33,0.91,0.63
,-8.804,-1.457,-3.81,-8.938,-1.137,-4.243,1.33,1.75,1.05
15370.0,-8.837,-0.976,-4.456,-8.844,-1.086,-4.561,4.34,3.01,2.45
,-8.775,-1.022,-4.463,-8.758,-1.122,-4.41,3.57,2.87,2.38
,-8.753,-1.031,-4.683,-8.904,-1.194,-4.13,3.29,2.59,2.17
,-8.775,-1.024,-4.659,-8.952,-1.199,-3.927,3.36,2.38,1.96
15446.0,-8.983,-1.199,-3.903,-8.842,-1.194,-4.496,1.75,2.8,0.14
,-8.973,-1.235,-4.061,-8.859,-1.156,-4.743,1.54,3.01,0.21
,-8.926,-1.149,-4.113,-8.734,-1.304,-4.764,1.33,2.87,0.28
,-8.832,-1.165,-4.307,-8.629,-1.347,-4.673,0.77,2.8,0.28
15522.0,-8.737,-1.39,-4.451,-8.904,-1.18,-4.24,3.01,1.33,1.68
,-8.887,-1.256,-4.527,-8.83,-1.206,-4.192,4.34,1.33,1.82
,-8.878,-1.137,-4.446,-8.926,-1.165,-4.171,4.62,1.05,1.61
,-8.851,-1.11,-4.393,-8.916,-1.208,-4.116,4.13,0.84,1.4
15598.0,-8.964,-1.024,-4.025,-8.815,-1.168,-4.463,3.43,1.61,0.21
,-8.921,-0.983,-4.154,-8.672,-1.429,-4.46,2.66,1.75,-0.42
,-8.882,-0.869,-4.243,-8.655,-1.586,-4.317,1.4,1.54,-1.19
,-8.847,-0.948,-4.322,-8.832,-1.517,-4.295,0.14,1.4,-1.61
15673.0,-8.859,-1.455,-4.2,-8.978,-1.201,-3.857,2.8,2.73,-0.63
,-8.796,-1.519,-3.881,-8.926,-1.192,-3.977,3.15,3.22,-0.07
,-8.861,-1.414,-3.891,-8.88,-1.228,-3.924,4.06,4.13,0.42
,-8.921,-1.259,-3.903,-8.985,-1.244,-4.013,4.62,4.48,0.84
15749.0,-8.997,-1.12,-4.116,-8.734,-1.151,-4.786,3.29,4.97,0.91
,-8.88,-0.878,-4.362,-8.748,-1.254,-4.826,2.87,4.55,0.7
,-8.732,-0.866,-4.657,-8.725,-1.326,-4.92,1.54,4.13,0.56
,-8.703,-1.031,-4.669,-8.684,-1.474,-4.87,0.42,3.78,0.42
15825.0,-8.725,-1.536,-4.623,-8.928,-1.077,-4.405,2.52,2.52,1.47
,-8.832,-1.472,-4.413,-8.782,-1.003,-4.432,3.78,2.73,2.24
,-8.973,-1.436,-4.25,-8.708,-1.072,-4.621,4.48,3.01,2.87
,-8.969,-1.259,-4.283,-8.667,-1.271,-4.503,4.55,2.8,2.87
15901.0,-8.681,-1.345,-4.259,-8.942,-0.859,-4.197,0.42,2.17,1.26
,-8.808,-1.244,-4.35,-8.906,-0.888,-4.147,1.19,2.38,1.12
,-8.892,-1.11,-4.379,-8.969,-0.983,-3.984,1.4,2.31,0.98
,-8.921,-0.914,-4.279,-8.94,-0.991,-3.922,0.42,2.03,0.77
15976.0,-8.995,-0.955,-3.97,-8.418,-1.299,-4.915,-7.35,2.1,-0.84
,-9.079,-1.029,-4.094,-8.373,-1.311,-5.042,-8.47,2.03,-0.77
,-9.052,-1.101,-4.484,-8.603,-1.378,-5.116,-9.52,1.61,-1.05
,-8.744,-1.295,-4.774,-8.686,-1.242,-5.128,-10.08,1.05,-1.12
16052.0,-8.696,-1.354,-4.937,-8.696,-1.606,-4.128,-5.88,-0.07,-1.26
,-8.763,-1.577,-4.681,-8.772,-1.754,-3.833,-5.46,-0.28,-1.05
,-8.701,-1.488,-4.501,-8.792,-2.039,-3.635,-3.99,-0.56,-0.7
,-8.746,-1.529,-4.362,-8.753,-2.094,-3.264,-3.5,-0.77,-0.56
16127.0,-8.904,-2.307,-2.867,-8.839,-0.469,-4.185,4.06,5.04,7.21
,-9.122,-2.17,-2.857,-8.559,-0.086,-4.554,8.26,7.07,9.38
,-9.172,-1.606,-3.352,-8.464,-0.273,-4.501,12.53,8.19,11.69
,-9.04,-0.885,-3.74,-8.461,-0.701,-4.413,14.98,9.03,13.16
16203.0,-8.581,-0.572,-4.252,-8.789,-1.003,-3.984,12.74,10.64,6.72
,-8.947,-0.33,-4.468,-8.825,-1.084,-3.872,12.6,10.5,5.46
,-8.918,-0.419,-4.496,-8.957,-1.137,-3.671,10.92,9.87,3.85
,-8.813,-0.67,-4.209,-8.799,-1.158,-4.063,7.63,9.52,2.8
16279.0,-8.717,-0.986,-4.482,-8.425,-1.405,-5.092,2.8,11.69,-0.42
,-8.662,-0.809,-5.389,-8.55,-1.481,-4.946,1.82,10.5,-1.82
,-8.208,-0.871,-5.631,-8.784,-1.464,-4.269,-0.35,9.17,-2.8
,-8.251,-1.091,-5.453,-9.27,-1.12,-4.413,-1.82,9.66,-2.87
16355.0,-8.871,-1.192,-3.912,-8.282,-1.996,-4.317,3.71,13.16,-0.91
,-9.052,-1.268,-4.109,-8.457,-2.036,-4.058,2.45,13.09,-0.56
,-8.741,-1.668,-4.216,-8.689,-1.558,-4.123,2.94,13.16,0.91
,-8.521,-1.986,-4.35,-8.536,-1.18,-4.389,5.18,13.86,2.94
16430.0,-8.598,-0.567,-4.685,-8.574,-1.658,-4.69,18.69,16.38,7.84
,-8.739,-0.526,-4.956,-8.514,-1.764,-4.678,15.82,15.4,7.14
,-8.737,-0.919,-4.8,-8.495,-1.728,-4.783,11.9,14.56,6.37
,-8.713,-1.309,-4.59,-8.078,-1.275,-4.812,9.87,14.49,6.37
16506.0,-8.241,-0.754,-4.594,-8.5,-0.811,-5.284,13.79,15.47,6.72
,-8.713,-0.136,-4.707,-8.366,-1.084,-5.075,12.88,15.4,5.46
,-8.942,0.093,-4.791,-8.131,-1.388,-5.24,9.1,14.42,3.78
,-8.727,-0.256,-5.142,-8.224,-1.603,-5.032,5.11,12.81,2.94
16581.0,-8.435,-1.464,-4.903,-8.265,0.495,-5.066,10.15,13.58,4.2
,-8.344,-0.964,-4.846,-8.423,0.373,-5.36,12.39,13.93,4.27
,-8.6,-0.62,-4.683,-8.78,-0.043,-4.994,12.88,14.21,3.5
,-8.547,0.081,-4.886,-9.543,-0.603,-5.099,12.46,13.09,2.52
16657.0,-8.832,-1.132,-5.432,-8.301,-2.352,-5.958,-3.92,8.26,-7.91
,-8.114,-1.728,-5.41,-7.88,-2.137,-5.721,-3.15,7.84,-5.04
,-7.562,-2.158,-5.504,-7.94,-1.788,-5.506,-1.12,9.03,-2.8
,-7.679,-2.355,-5.815,-8.023,-1.333,-5.183,2.45,10.08,-1.26
16733.0,-7.952,-1.012,-5.059,-8.308,-1.503,-5.262,10.57,12.53,0.77
,-8.124,-1.034,-5.212,-8.078,-1.764,-5.346,9.17,12.81,0.56
,-8.488,-1.055,-5.25,-7.708,-2.008,-5.272,7.7,12.32,1.05
,-8.495,-1.297,-5.377,-8.145,-1.098,-5.02,7.0,11.69,1.68
16809.0,-7.81,-1.385,-5.903,-8.234,-0.761,-5.305,14.28,13.58,6.72
,-7.753,-0.94,-5.164,-8.165,-0.708,-5.458,16.38,14.21,7.0
,-8.394,-0.55,-5.322,-8.232,-0.538,-5.595,15.12,14.49,5.32
,-8.571,-0.747,-5.341,-8.177,-0.677,-5.731,11.62,12.95,3.85
16885.0,-8.246,-1.103,-5.58,-8.239,-1.766,-5.597,2.59,13.37,1.47
,-8.291,-1.342,-5.568,-8.011,-1.725,-5.671,1.47,13.79,1.68
,-8.196,-1.716,-5.549,-7.87,-1.512,-5.724,1.89,13.37,1.96
,-8.291,-1.682,-5.688,-8.2,-1.098,-5.786,3.36,13.16,2.66
16960.0,-8.253,-0.912,-5.982,-8.038,-0.775,-5.779,6.09,10.15,5.18
,-7.997,-0.768,-5.918,-8.667,-0.838,-5.552,5.53,9.24,5.32
,-7.724,-0.562,-5.939,-8.241,-0.318,-6.131,4.27,8.54,4.41
,-7.755,-0.507,-5.803,-8.397,-1.046,-5.396,3.5,8.61,2.94
17036.0,-8.047,-0.778,-5.76,-7.961,-0.428,-6.119,4.97,6.16,3.43
,-7.76,-0.916,-5.683,-8.04,-0.512,-6.15,3.85,5.81,3.29
,-7.911,-0.972,-5.963,-7.746,-0.849,-6.128,4.2,6.86,2.66
,-7.952,-0.715,-5.982,-8.031,-1.603,-5.975,5.18,6.44,2.31
17112.0,-7.784,-2.166,-5.803,-7.911,-2.405,-5.961,0.21,7.07,1.33
,-7.839,-2.113,-6.059,-7.789,-2.35,-5.913,2.1,4.55,2.24
,-7.688,-2.206,-5.954,-7.77,-2.283,-6.133,2.38,4.62,4.27
,-7.253,-2.19,-6.327,-7.708,-2.264,-5.822,2.38,5.32,4.9
17188.0,-7.633,-2.132,-6.104,-7.789,-0.206,-6.088,3.01,5.18,10.15
,-7.801,-1.24,-6.1,-7.806,-0.108,-5.91,2.59,8.05,13.02
,-8.131,-2.065,-5.532,-8.117,-0.333,-5.638,3.29,5.32,11.83
,-7.964,-0.687,-5.951,-8.141,-0.447,-5.875,6.51,3.15,10.85
17263.0,-8.334,-0.51,-5.702,-7.825,0.366,-6.088,4.9,4.06,6.65
,-8.208,-0.584,-5.652,-7.825,0.275,-6.293,5.81,4.69,6.16
,-7.978,0.519,-7.253,-7.815,-0.124,-6.205,4.13,6.51,6.51
,-7.633,-0.325,-5.791,-8.031,-0.658,-6.265,5.95,4.83,4.55
17339.0,-8.287,-1.374,-6.15,-7.516,-1.531,-6.286,0.21,6.58,-1.54
,-8.09,-1.536,-6.226,-7.662,-1.452,-6.549,2.24,5.81,-0.28
,-7.959,-1.785,-6.217,-7.672,-1.268,-6.609,3.01,5.81,0.49
,-7.681,-1.766,-6.248,-7.626,-1.979,-5.954,3.99,5.88,0.98
17414.0,-7.564,-1.697,-6.162,-7.844,-1.062,-6.147,-1.4,6.3,3.01
,-7.657,-1.945,-6.214,-7.832,-0.828,-6.147,1.19,5.18,3.01
,-7.684,-2.106,-6.016,-7.832,-0.503,-6.207,1.68,5.32,3.92
,-7.909,-1.553,-6.15,-7.753,-0.589,-6.32,3.57,5.81,4.48
17490.0,-7.858,-0.646,-6.265,-7.794,-0.632,-6.104,4.62,4.76,4.83
,-8.016,-0.522,-6.305,-7.566,-0.56,-6.068,6.09,4.41,4.2
,-7.863,-0.445,-6.231,-7.736,-0.577,-6.167,5.81,4.62,3.71
,-7.856,-0.536,-6.169,-8.014,-0.711,-6.238,4.69,4.62,2.66
17566.0,-8.193,-0.778,-6.193,-7.545,-1.208,-6.155,1.47,4.41,-1.05
,-7.978,-0.909,-6.15,-7.562,-0.988,-6.358,1.4,3.43,-1.26
,-7.72,-1.027,-6.152,-7.815,-0.864,-6.49,1.12,3.08,-1.47
,-7.633,-1.141,-6.054,-8.004,-0.955,-6.511,1.12,3.36,-1.26
17642.0,-7.968,-1.196,-6.439,-7.54,-1.235,-6.095,-3.08,4.27,0.35
,-7.729,-1.256,-6.315,-7.767,-1.359,-6.095,-3.08,4.27,0.77
,-7.653,-1.314,-6.157,-7.731,-1.541,-5.997,-2.8,4.41,0.21
,-7.475,-1.321,-6.073,-7.775,-1.345,-6.121,-2.31,4.06,-0.35
17718.0,-7.83,-1.053,-6.21,-7.846,-0.651,-6.243,1.33,2.8,1.75
,-7.753,-0.78,-6.344,-7.703,-0.931,-6.097,1.47,3.08,1.96
,-7.882,-0.522,-6.43,-7.578,-1.11,-5.994,1.26,3.43,1.89
,-7.961,-0.548,-6.303,-7.621,-1.05,-5.98,0.42,3.43,1.89
17793.0,-7.743,-0.823,-6.006,-7.609,-0.718,-5.942,0.98,2.8,-0.28
,-7.76,-0.735,-6.114,-7.633,-0.531,-6.157,0.84,3.36,-0.84
,-7.827,-0.852,-5.997,-7.971,-0.538,-6.212,0.63,3.85,-0.98
,-7.779,-0.938,-5.896,-7.885,-0.366,-6.296,1.12,3.99,-1.12
17869.0,-7.861,-0.476,-6.344,-7.624,-1.414,-6.334,-0.56,4.34,-3.78
,-7.686,-0.658,-6.351,-7.629,-1.984,-6.15,-1.54,4.41,-4.13
,-7.595,-0.689,-6.444,-7.497,-2.046,-6.159,-1.89,4.69,-4.13
,-7.712,-0.955,-6.437,-7.583,-1.771,-6.389,-2.73,4.69,-4.06
17945.0,-7.641,-1.553,-6.513,-7.473,-1.634,-6.535,0.84,4.9,-0.56
,-7.825,-1.153,-6.612,-7.6,-1.644,-6.54,1.12,4.69,-0.07
,-7.755,-1.077,-6.609,-7.597,-1.653,-6.542,0.14,3.85,0.35
,-7.566,-1.256,-6.621,-7.645,-1.62,-6.624,-1.19,3.08,0.63
18021.0,-7.664,-1.295,-6.6,-7.76,-0.601,-6.614,0.7,1.82,4.34
,-7.72,-1.196,-6.659,-7.621,-0.577,-6.523,1.4,0.84,5.04
,-7.729,-0.809,-6.801,-7.708,-0.505,-6.458,2.1,-0.14,5.04
,-7.772,-0.581,-6.791,-7.944,-0.45,-6.497,1.4,-0.56,4.69
18096.0,-7.899,-0.464,-6.368,-8.021,-0.665,-6.26,1.68,-3.85,2.17
,-7.586,-0.321,-6.334,-7.904,-0.708,-6.186,2.31,-4.2,1.89
,-7.621,-0.476,-6.36,-8.021,-0.715,-6.092,2.17,-3.64,1.47
,-7.882,-0.668,-6.365,-7.729,-0.548,-5.966,2.1,-3.29,0.77
18172.0,-7.511,-0.361,-5.82,-8.157,-0.471,-5.779,4.55,-3.92,-1.89
,-7.672,-0.407,-5.793,-8.27,-0.809,-5.736,3.43,-3.29,-2.8
,-7.911,-0.471,-5.86,-8.277,-1.266,-5.7,2.03,-3.15,-3.92
,-8.227,-0.677,-5.769,-7.748,-0.876,-5.817,1.96,-2.66,-4.34
18247.0,-7.353,-0.945,-5.901,-7.779,-0.802,-6.494,3.57,-2.31,-3.15
,-7.662,-0.761,-5.934,-7.794,-1.338,-6.138,2.59,-2.17,-4.13
,-7.77,-0.725,-6.174,-7.688,-1.261,-6.286,0.98,-2.45,-4.9
,-7.715,-0.866,-6.293,-7.619,-1.208,-6.449,-0.07,-1.82,-5.11
18323.0,-7.574,-1.292,-6.461,-7.779,-1.268,-6.37,-1.33,-4.62,-4.62
,-7.775,-1.496,-6.406,-7.497,-1.292,-6.269,-0.56,-5.67,-4.55
,-7.593,-1.548,-6.518,-7.798,-1.405,-6.296,0.98,-6.23,-3.5
,-7.916,-1.345,-6.473,-7.777,-1.51,-6.317,2.03,-6.51,-3.22
18399.0,-7.813,-1.498,-6.272,-7.648,-1.271,-6.195,5.95,-7.21,3.85
,-7.911,-1.429,-6.305,-7.373,-1.027,-6.243,6.93,-7.63,4.48
,-7.997,-1.383,-6.277,-7.499,-1.113,-6.178,8.61,-7.35,5.53
,-8.062,-1.364,-6.296,-7.772,-1.134,-5.877,8.75,-7.91,6.23
18475.0,-8.028,-1.18,-5.894,-8.047,0.311,-6.229,6.79,-8.82,4.41
,-8.15,-0.981,-5.82,-8.055,-0.486,-5.946,7.56,-8.33,6.3
,-6.93,-4.089,-4.917,-8.217,-0.835,-5.817,12.32,-8.82,4.9
,-8.442,0.395,-5.887,-7.94,-0.849,-5.853,20.44,-7.63,9.24
18550.0,-8.033,-0.849,-5.846,-8.263,-1.117,-5.604,0.56,-12.81,5.88
,-7.751,-1.084,-5.779,-8.138,-1.22,-5.611,0.49,-13.93,3.99
,-7.844,-1.005,-5.815,-8.093,-1.053,-5.468,0.7,-15.33,4.13
,-7.999,-1.256,-5.674,-7.918,-0.83,-5.504,2.73,-14.28,3.64
18626.0,-8.014,-0.689,-5.492,-8.301,0.065,-5.614,4.06,-14.77,4.2
,-8.172,-0.864,-5.48,-8.32,-0.323,-5.329,2.94,-14.7,3.22
,-8.047,-0.541,-5.492,-8.363,-0.419,-5.116,2.73,-14.98,2.38
,-8.256,-0.196,-5.489,-8.205,-0.859,-4.984,1.75,-15.61,1.26
18701.0,-8.047,-1.285,-4.92,-8.555,-0.881,-5.162,-5.25,-16.52,-3.43
,-8.284,-1.347,-4.64,-8.397,-0.62,-5.231,-4.27,-15.82,-3.5
,-8.435,-1.192,-4.69,-8.315,-0.455,-5.095,-2.59,-15.61,-3.01
,-8.507,-0.948,-4.879,-8.253,-0.84,-4.913,-1.96,-15.75,-2.59
18777.0,-8.435,-1.108,-4.805,-8.495,-1.184,-5.006,-7.14,-15.68,-4.41
,-8.459,-0.967,-5.051,-8.334,-1.376,-4.57,-6.65,-16.03,-5.18
,-8.526,-0.84,-4.846,-8.457,-1.022,-4.908,-5.74,-16.1,-5.39
,-8.528,-1.012,-4.934,-8.545,-0.9,-5.24,-6.3,-15.96,-5.53
18853.0,-8.502,-0.782,-5.145,-8.643,-0.711,-4.901,-2.1,-15.75,-2.94
,-8.55,-0.627,-5.049,-8.638,-0.785,-4.86,-3.43,-16.17,-3.22
,-8.6,-0.696,-5.26,-8.461,-0.809,-4.925,-3.57,-16.59,-3.29
,-8.555,-0.838,-5.032,-8.437,-1.146,-4.999,-4.13,-16.73,-3.92
18929.0,-8.617,-1.29,-4.719,-8.758,-1.902,-3.915,-8.19,-19.67,-5.46
,-8.466,-1.18,-5.104,-8.906,-1.804,-4.176,-6.51,-19.74,-4.97
,-8.363,-1.421,-4.625,-8.861,-1.579,-3.824,-5.6,-19.46,-3.99
,-8.392,-1.725,-4.295,-8.914,-1.101,-3.642,-4.83,-18.76,-3.22
19005.0,-9.072,-1.036,-3.668,-8.878,-0.503,-4.204,7.07,-14.42,0.28
,-8.945,-1.077,-3.534,-8.894,-0.323,-4.676,5.74,-13.51,0.28
,-8.868,-0.931,-3.52,-8.725,-0.266,-4.329,6.65,-12.6,0.35
,-8.813,-0.687,-3.819,-8.859,-0.163,-4.884,7.07,-12.04,-0.84
19080.0,-8.677,-0.455,-4.671,-9.002,-0.778,-4.03,2.8,-12.6,-5.67
,-8.885,-0.9,-4.209,-8.954,-0.821,-4.039,1.05,-12.11,-6.16
,-9.052,-1.098,-4.068,-8.832,-0.983,-4.161,0.77,-11.83,-6.58
,-9.086,-0.955,-4.212,-8.885,-1.352,-3.738,1.26,-11.83,-7.14
19156.0,-8.954,-1.589,-3.475,-8.686,-1.146,-3.786,-4.62,-9.31,-6.23
,-9.095,-1.503,-3.944,-8.957,-1.184,-3.659,-1.68,-8.82,-5.46
,-8.918,-1.285,-4.185,-8.966,-1.022,-4.3,-0.35,-8.96,-5.18
,-8.71,-1.058,-4.015,-8.88,-1.117,-4.231,-0.49,-8.61,-4.2
19232.0,-8.722,-1.175,-3.989,-8.926,-1.271,-3.886,-1.54,-6.86,-3.78
,-9.043,-1.527,-3.989,-8.973,-1.019,-3.63,0.07,-6.37,-3.01
,-8.945,-1.582,-3.754,-9.177,-1.23,-3.86,1.89,-5.81,-2.52
,-8.911,-1.364,-3.999,-9.06,-1.438,-3.874,3.57,-5.18,-1.82
19308.0,-8.969,-1.397,-3.57,-9.002,-1.352,-3.082,3.64,-3.15,-0.21
,-9.072,-1.323,-3.587,-9.122,-1.22,-2.998,4.13,-2.1,0.35
,-9.06,-1.45,-3.386,-9.206,-1.034,-3.273,4.48,-1.4,0.63
,-8.93,-1.508,-2.989,-9.127,-0.893,-3.491,5.25,0.07,1.19
19383.0,-9.012,-0.974,-3.515,-9.074,-1.321,-3.774,1.75,3.99,-0.14
,-8.851,-1.237,-3.357,-9.036,-1.251,-4.113,-0.35,4.76,-0.56
,-8.978,-1.23,-3.731,-8.971,-1.094,-4.405,-0.42,5.39,-0.84
,-9.0,-1.405,-3.726,-8.729,-1.204,-4.501,-0.28,5.81,-0.84
19459.0,-8.646,-1.314,-4.293,-9.069,-0.888,-4.109,0.07,5.67,-0.49
,-8.806,-1.505,-3.953,-8.957,-0.883,-4.312,0.91,6.16,-0.35
,-9.064,-1.546,-3.841,-8.827,-1.058,-4.551,2.31,6.65,-0.14
,-9.172,-1.129,-4.156,-8.722,-1.043,-4.712,3.57,6.51,-0.28
19534.0,-8.679,-1.134,-4.803,-9.024,-1.228,-3.79,0.07,4.13,-0.98
,-8.72,-1.163,-4.664,-9.095,-1.278,-3.697,0.56,4.06,-1.12
,-8.887,-1.177,-4.338,-9.052,-1.438,-3.707,1.19,3.92,-1.05
,-8.935,-1.287,-4.073,-8.935,-1.515,-3.81,1.68,3.99,-0.91
19610.0,-8.957,-1.376,-4.262,-8.703,-1.05,-4.932,2.8,4.62,0.49
,-8.909,-1.273,-4.468,-8.713,-1.007,-4.858,3.22,4.41,0.63
,-8.832,-1.18,-4.726,-8.88,-1.019,-4.853,3.29,3.99,0.63
,-8.677,-1.082,-4.764,-8.856,-1.098,-4.846,3.29,3.29,0.63
19686.0,-8.792,-1.012,-4.654,-8.854,-1.314,-4.018,4.13,0.28,0.21
,-8.854,-1.06,-4.547,-8.973,-1.5,-3.745,3.92,-0.07,-0.07
,-8.835,-1.23,-4.527,-8.978,-1.584,-3.439,3.43,-0.42,-0.28
,-8.818,-1.273,-4.322,-9.064,-1.5,-3.223,3.5,-0.56,-0.21
19762.0,-9.15,-1.443,-3.218,-9.172,-1.469,-3.63,1.75,1.68,-0.42
,-9.136,-1.493,-3.154,-9.064,-1.23,-3.955,1.61,2.59,-0.07
,-9.127,-1.476,-3.221,-8.856,-1.122,-4.176,1.54,3.64,0.21
,-9.179,-1.479,-3.419,-8.882,-0.988,-4.503,1.96,4.34,0.56
19838.0,-8.854,-0.919,-4.542,-8.744,-1.07,-4.712,3.57,4.97,1.61
,-8.804,-0.823,-4.795,-8.792,-1.098,-4.716,3.57,4.34,1.12
,-8.727,-0.916,-4.843,-8.78,-1.187,-4.511,3.36,3.85,0.84
,-8.725,-0.94,-4.807,-8.784,-1.235,-4.298,3.43,3.43,0.77
19913.0,-8.904,-1.292,-4.255,-8.847,-1.244,-4.216,2.17,2.38,-0.21
,-8.88,-1.323,-4.212,-8.839,-1.18,-4.267,1.75,2.31,-0.35
,-8.99,-1.206,-4.231,-8.866,-1.127,-4.362,1.26,2.03,-0.42
,-8.878,-1.175,-4.183,-8.947,-1.192,-4.343,0.42,1.96,-0.49
19989.0,-8.906,-1.117,-4.456,-8.916,-1.211,-4.113,1.61,1.54,0.07
,-8.813,-1.074,-4.444,-9.036,-1.208,-4.07,2.31,1.54,0.28
,-8.789,-1.23,-4.362,-8.961,-1.208,-4.154,2.8,1.54,0.42
,-8.832,-1.297,-4.293,-8.928,-1.283,-4.137,3.29,1.54,0.28
20065.0,-8.868,-1.297,-4.214,-8.839,-1.251,-4.226,3.22,1.75,0.42
,-8.832,-1.242,-4.269,-8.926,-1.208,-4.235,3.15,1.89,0.35
,-8.83,-1.256,-4.293,-8.887,-1.158,-4.255,2.94,2.03,0.21
,-8.863,-1.23,-4.283,-8.854,-1.134,-4.295,2.52,2.03,0.14
20141.0,-8.806,-1.275,-4.29,-8.859,-1.35,-4.097,1.33,1.61,-0.28
,-8.804,-1.268,-4.257,-8.882,-1.333,-4.003,1.82,1.68,-0.07
,-8.827,-1.297,-4.314,-8.964,-1.268,-3.991,2.17,1.54,0.0
,-8.854,-1.268,-4.226,-8.997,-1.297,-3.982,2.45,1.75,0.0
20216.0,-8.964,-1.304,-3.932,-8.811,-1.393,-4.506,2.17,2.31,0.07
,-8.973,-1.342,-4.121,-8.799,-1.307,-4.764,2.24,2.45,0.14
,-8.878,-1.362,-4.231,-8.681,-1.287,-4.793,2.24,2.73,0.42
,-8.83,-1.333,-4.355,-8.739,-1.149,-4.807,2.45,2.59,0.63
20292.0,-8.775,-1.027,-4.745,-8.909,-1.175,-4.317,5.39,1.33,1.33
,-8.815,-1.005,-4.676,-8.921,-1.316,-4.216,4.97,0.63,0.98
,-8.811,-0.969,-4.551,-8.873,-1.318,-4.118,4.27,0.14,0.84
,-8.842,-1.022,-4.396,-8.904,-1.359,-3.96,3.29,0.0,0.63
20367.0,-8.906,-1.366,-4.001,-8.959,-1.302,-4.013,2.38,0.07,0.28
,-8.923,-1.445,-3.915,-8.938,-1.235,-4.145,2.38,0.42,0.42
,-8.957,-1.4,-3.97,-8.882,-1.113,-4.207,2.73,0.63,0.49
,-8.947,-1.371,-3.984,-8.866,-1.163,-4.226,3.15,1.12,0.63
20443.0,-8.916,-1.117,-4.185,-8.82,-1.304,-4.202,4.06,1.82,0.98
,-8.935,-1.106,-4.231,-8.844,-1.275,-4.353,3.57,1.61,0.49
,-8.957,-1.074,-4.238,-8.851,-1.177,-4.302,2.87,1.54,0.21
,-8.861,-1.208,-4.267,-8.823,-1.208,-4.317,2.03,1.4,-0.07
20519.0,-8.875,-1.206,-4.231,-8.911,-1.314,-4.13,1.4,1.61,-0.14
,-8.904,-1.168,-4.13,-8.868,-1.347,-4.154,0.98,1.33,-0.42
,-8.892,-1.259,-4.085,-8.849,-1.376,-4.168,0.21,1.26,-0.49
,-8.894,-1.34,-4.082,-8.811,-1.414,-4.18,-0.21,1.33,-0.63
20595.0,-8.832,-1.393,-4.314,-8.787,-1.196,-4.53,1.05,1.96,-0.21
,-8.866,-1.34,-4.401,-8.801,-1.184,-4.585,1.89,2.1,0.07
,-8.844,-1.266,-4.417,-8.737,-1.096,-4.599,2.24,1.96,0.28
,-8.804,-1.228,-4.52,-8.753,-1.211,-4.42,2.66,1.68,0.56
20670.0,-8.811,-1.409,-4.233,-8.935,-1.091,-4.121,3.29,0.35,0.35
,-8.818,-1.469,-4.078,-8.892,-1.23,-4.109,3.64,0.49,0.42
,-8.942,-1.436,-4.073,-8.897,-1.213,-4.147,4.2,0.84,0.56
,-8.997,-1.314,-4.109,-8.827,-1.249,-3.987,4.2,0.49,0.49
20746.0,-8.882,-1.323,-4.068,-8.854,-1.149,-3.903,0.0,1.26,-0.42
,-8.928,-1.223,-3.989,-8.916,-1.146,-3.869,-0.63,1.26,-0.7
,-8.957,-1.335,-3.934,-8.835,-1.328,-3.656,-1.54,1.33,-1.19
,-9.0,-1.218,-3.955,-8.794,-1.469,-3.479,-2.38,1.47,-2.52
20822.0,-8.88,-1.517,-3.465,-8.916,-1.323,-3.721,-8.89,4.62,-4.62
,-9.091,-1.323,-3.408,-8.794,-1.764,-3.728,-8.68,5.25,-3.85
,-9.141,-1.127,-3.501,-8.722,-2.132,-4.015,-9.59,5.6,-3.43
,-9.06,-0.957,-3.656,-8.672,-2.204,-3.994,-11.48,5.6,-3.01
20898.0,-8.662,-1.993,-4.219,-8.717,-1.589,-4.661,-5.81,10.22,-0.91
,-8.528,-1.704,-4.48,-8.555,-1.694,-4.453,-2.73,10.5,-0.21
,-8.588,-1.627,-4.47,-8.66,-1.496,-4.525,-1.05,10.85,0.84
,-8.717,-1.589,-4.453,-8.672,-1.405,-4.649,0.42,11.34,1.61
20974.0,-8.612,-1.476,-4.685,-8.971,-1.713,-3.977,3.57,11.27,4.55
,-8.519,-1.732,-4.075,-8.88,-1.594,-4.003,3.85,11.69,6.58
,-8.603,-1.809,-3.975,-8.753,-1.213,-3.865,5.25,12.04,7.98
,-8.832,-1.74,-3.857,-8.713,-0.876,-4.247,7.77,13.09,9.1
21049.0,-8.674,-0.821,-4.034,-8.708,-0.826,-5.02,7.98,15.12,9.52
,-8.818,-1.055,-3.874,-8.607,-0.574,-5.482,5.95,15.47,9.17
,-8.751,-1.307,-4.03,-8.404,-0.282,-5.513,5.18,15.75,8.61
,-8.691,-1.072,-4.362,-8.366,-1.027,-5.118,6.51,16.03,8.33
21125.0,-8.229,-2.027,-4.295,-8.909,-0.342,-4.597,-0.56,14.56,5.11
,-8.406,-2.52,-3.719,-8.765,0.347,-5.315,3.01,17.08,6.02
,-8.844,-2.17,-3.551,-8.545,0.022,-5.444,9.1,19.32,6.65
,-9.16,-1.251,-3.932,-8.48,-0.038,-5.217,14.84,19.95,6.02
21200.0,-8.531,0.108,-5.757,-8.581,-0.948,-4.937,8.47,20.16,6.09
,-8.299,0.189,-5.956,-8.849,-0.926,-4.305,4.69,18.55,4.9
,-8.112,-0.383,-5.602,-9.009,-0.94,-4.575,0.49,16.52,2.38
,-8.323,-0.684,-5.181,-8.739,-1.137,-4.781,-3.78,15.4,-0.14
21276.0,-8.258,-1.634,-4.987,-8.086,-1.622,-4.977,-7.91,12.04,-3.29
,-7.889,-2.192,-5.102,-8.11,-0.919,-5.118,-7.35,12.53,-1.96
,-8.086,-2.264,-5.123,-8.425,-0.689,-5.396,-4.41,14.0,0.14
,-8.253,-2.297,-5.001,-8.576,-0.792,-5.779,-0.91,14.63,1.89
21352.0,-8.457,-0.878,-6.092,-8.6,-0.447,-5.674,1.89,7.84,6.93
,-8.138,-1.572,-5.855,-8.428,-0.304,-5.195,2.24,8.12,7.56
,-8.105,-1.201,-5.781,-8.442,-0.184,-5.099,4.97,8.89,8.68
,-8.452,-0.852,-5.652,-8.291,-0.292,-5.013,7.91,9.52,8.4
21428.0,-8.471,-0.581,-5.257,-7.791,-2.599,-4.606,1.68,6.23,1.61
,-8.404,-0.864,-5.281,-8.232,-2.659,-4.494,2.38,5.6,2.52
,-8.081,-1.199,-5.348,-8.469,-2.18,-5.051,3.85,5.11,3.78
,-7.789,-1.56,-5.116,-8.186,-1.108,-5.707,3.78,6.09,3.99
21503.0,-8.131,-0.548,-5.791,-8.497,-0.835,-5.162,15.47,7.77,9.1
,-8.145,-0.223,-5.59,-8.181,-1.003,-4.913,12.95,9.45,8.47
,-8.327,-0.223,-5.262,-8.107,-0.967,-5.025,10.64,10.71,7.07
,-8.413,-0.514,-5.152,-8.181,-1.017,-4.965,9.45,10.29,4.76
21579.0,-8.339,-0.931,-4.86,-8.519,-0.376,-5.111,13.3,13.23,5.53
,-8.423,-0.61,-4.927,-8.562,-0.388,-5.456,14.35,13.65,6.79
,-8.181,-0.27,-4.958,-8.334,-0.503,-5.31,13.79,13.72,6.23
,-8.296,-0.297,-5.09,-8.205,-0.239,-5.662,11.83,12.81,3.78
21655.0,-8.069,-0.23,-5.82,-8.196,-1.275,-5.42,3.92,12.46,-3.64
,-8.064,-0.526,-5.805,-8.021,-1.28,-5.729,1.89,12.74,-4.69
,-8.294,-0.864,-5.776,-7.868,-1.486,-5.772,0.63,13.37,-4.9
,-8.342,-1.362,-5.3,-7.885,-1.996,-5.815,0.14,13.3,-5.53
21731.0,-7.964,-2.087,-6.033,-7.995,-0.689,-6.545,4.76,13.3,-0.07
,-7.83,-2.084,-6.164,-7.973,-0.826,-6.59,6.44,13.3,0.63
,-7.789,-1.682,-6.202,-8.469,-1.228,-6.317,8.47,12.46,1.19
,-7.81,-1.01,-6.446,-8.473,-1.333,-6.423,9.59,11.41,0.91
21806.0,-7.971,-1.33,-6.308,-8.244,-0.998,-5.767,6.37,7.77,1.96
,-8.004,-1.318,-6.009,-7.937,-0.617,-5.712,7.84,7.56,2.03
,-7.741,-1.0,-6.047,-7.822,-0.751,-5.956,8.4,6.93,2.59
,-8.224,-1.05,-5.788,-7.865,-0.395,-5.954,7.49,6.3,3.64
21882.0,-8.009,0.163,-5.93,-7.808,-2.245,-5.422,9.66,3.08,4.9
,-8.229,0.096,-6.155,-7.71,-2.015,-6.174,7.91,2.17,2.45
,-7.968,-0.637,-5.726,-7.997,-2.651,-5.934,5.6,1.75,2.73
,-7.712,-1.18,-5.977,-8.035,-2.493,-5.767,4.27,1.05,3.64
21958.0,-7.696,-2.297,-5.889,-8.131,-0.864,-6.549,6.93,4.48,6.86
,-7.38,-1.476,-6.473,-8.375,-1.206,-6.315,9.45,3.92,8.68
,-7.516,-0.828,-6.413,-8.095,-2.079,-5.059,9.87,2.66,7.63
,-7.746,-0.617,-6.633,-7.882,-1.962,-5.875,8.68,4.41,7.42
22033.0,-7.997,-1.634,-5.717,-8.11,-0.419,-5.925,8.19,2.52,9.45
,-7.94,-1.376,-5.808,-8.026,-0.144,-5.755,8.61,1.61,9.87
,-7.947,-1.146,-5.772,-8.035,-0.055,-5.743,9.66,2.45,11.62
,-7.791,-0.79,-5.942,-7.904,0.366,-5.812,10.15,2.03,10.85
22109.0,-8.186,-0.28,-5.707,-7.827,-1.436,-5.843,5.18,3.71,4.2
,-8.366,-0.531,-5.659,-7.648,-1.397,-5.865,5.6,5.04,3.08
,-8.323,-0.682,-5.832,-7.712,-1.134,-6.004,5.81,4.69,2.38
,-8.186,-0.857,-5.865,-7.621,-0.196,-6.59,5.18,4.97,3.57
22185.0,-7.636,-1.199,-5.982,-7.854,-1.383,-6.1,5.04,5.32,1.68
,-7.815,-0.981,-6.109,-7.844,-1.539,-5.863,4.34,4.55,0.28
,-7.978,-1.254,-6.078,-7.798,-1.117,-6.248,3.43,5.18,0.84
,-7.988,-1.381,-5.975,-7.897,-1.05,-6.092,3.78,4.76,1.75
22261.0,-7.897,-0.735,-6.145,-7.978,-1.508,-6.085,6.65,5.53,1.4
,-7.758,-0.646,-6.181,-7.81,-1.479,-6.013,5.39,5.53,1.61
,-7.901,-0.723,-6.229,-7.731,-1.402,-6.219,4.2,6.16,1.33
,-8.028,-1.314,-6.064,-7.722,-0.981,-6.439,2.31,6.79,1.4
22336.0,-7.77,-0.938,-6.15,-7.717,-0.828,-6.525,4.97,5.11,3.15
,-7.672,-0.658,-6.513,-7.626,-1.393,-6.021,5.81,4.27,3.43
,-8.074,-0.842,-6.358,-7.693,-1.601,-5.994,4.13,4.13,2.59
,-8.095,-0.849,-6.344,-7.858,-1.546,-6.135,2.52,3.57,1.47
22412.0,-7.932,-1.472,-6.049,-7.602,-0.895,-6.281,2.87,3.99,2.59
,-7.868,-1.177,-6.298,-7.748,-0.794,-6.26,3.64,3.36,3.43
,-8.023,-1.184,-6.26,-7.842,-0.804,-6.178,3.85,3.36,3.85
,-7.909,-0.991,-6.19,-7.739,-0.637,-6.219,4.41,2.73,4.13
22488.0,-7.796,-0.548,-6.243,-7.657,-0.967,-5.915,1.68,1.47,1.47
,-8.019,-0.617,-6.152,-7.643,-0.845,-5.915,0.63,2.1,0.7
,-8.131,-0.802,-5.982,-7.839,-0.95,-5.992,-0.07,2.31,0.42
,-7.976,-0.797,-5.846,-7.99,-1.11,-5.853,-0.28,1.75,0.56
22564.0,-7.901,-1.01,-5.834,-7.897,-1.192,-5.954,0.91,3.08,-0.49
,-7.731,-0.869,-5.92,-7.767,-1.192,-5.985,1.05,3.22,-0.63
,-7.703,-0.818,-5.949,-7.681,-1.046,-6.025,0.49,3.36,-0.98
,-7.798,-0.909,-6.011,-7.66,-0.902,-6.073,-0.28,3.57,-0.98
22639.0,-7.748,-0.972,-6.15,-7.609,-1.608,-5.966,-1.54,4.06,-1.75
,-7.918,-1.098,-6.176,-7.471,-1.601,-6.033,-1.96,4.55,-1.47
,-7.863,-1.175,-6.128,-7.511,-1.024,-6.222,-1.75,4.48,-0.7
,-7.81,-1.409,-6.152,-7.825,-0.517,-6.415,-1.47,4.34,0.28
22715.0,-7.885,-0.337,-6.461,-7.669,-0.672,-6.528,-1.19,6.51,-0.77
,-7.796,-0.402,-6.509,-7.815,-0.883,-6.552,-2.73,6.37,-1.33
,-7.784,-0.66,-6.437,-8.011,-0.852,-6.473,-4.2,6.44,-1.33
,-7.827,-0.718,-6.389,-7.832,-0.763,-6.411,-4.41,6.3,-1.26
22790.0,-7.885,-0.814,-6.401,-7.865,-0.818,-6.482,-5.46,5.04,-3.22
,-7.837,-0.804,-6.458,-7.664,-0.928,-6.418,-5.81,4.48,-3.5
,-7.789,-0.876,-6.47,-7.736,-0.55,-6.597,-5.67,3.71,-3.78
,-7.863,-0.73,-6.54,-7.865,-0.682,-6.59,-5.25,3.01,-3.92
22866.0,-7.856,-0.651,-6.53,-7.495,-1.378,-6.277,-2.31,0.14,-4.76
,-8.019,-0.983,-6.391,-7.703,-1.141,-6.47,-2.03,-1.4,-6.3
,-7.698,-1.342,-6.21,-7.801,-1.17,-6.454,-0.77,-2.52,-6.65
,-7.401,-1.256,-6.222,-7.87,-1.388,-6.521,1.82,-3.01,-5.25
22942.0,-7.676,-1.247,-6.549,-7.787,-1.721,-6.305,4.9,-4.34,-3.01
,-7.619,-1.266,-6.478,-7.621,-1.73,-6.281,6.02,-4.13,-2.31
,-7.66,-1.443,-6.554,-7.542,-1.436,-6.341,6.93,-3.71,-2.03
,-8.162,-1.687,-6.394,-7.674,-1.177,-6.339,6.44,-3.78,-1.61
23018.0,-7.664,-0.866,-6.466,-7.937,-0.66,-6.071,10.78,-8.47,2.38
,-7.736,-0.888,-6.413,-7.571,-0.833,-5.772,9.94,-8.89,1.47
,-7.904,-0.644,-6.224,-7.822,-0.893,-5.659,8.61,-8.54,1.54
,-8.076,-0.627,-6.056,-7.956,-0.711,-5.863,9.03,-8.19,2.03
23094.0,-8.22,-0.675,-5.865,-7.49,-0.778,-5.762,9.17,-6.16,3.71
,-8.339,-0.61,-5.848,-7.392,-1.031,-5.772,8.54,-6.79,2.52
,-8.562,-0.775,-5.698,-7.798,-0.89,-5.894,6.65,-7.91,0.63
,-8.045,-0.907,-5.638,-8.004,-0.962,-5.92,6.02,-10.99,-0.56
23169.0,-7.892,-1.17,-5.934,-8.148,-1.251,-6.013,5.18,-11.83,-1.19
,-7.791,-1.0,-5.946,-8.588,-1.5,-3.915,4.97,-11.06,-1.05
,-7.827,-1.06,-5.843,-7.868,-0.29,-6.58,5.39,-9.03,0.07
,-8.2,-1.094,-5.987,-7.849,-1.283,-5.82,12.53,-6.3,-0.35
23245.0,-7.724,-1.345,-5.796,-8.177,-0.854,-5.827,3.99,-9.52,2.94
,-8.145,-1.06,-5.784,-7.865,-1.17,-5.832,3.99,-10.29,1.82
,-8.248,-1.438,-5.506,-7.669,-1.34,-5.805,4.48,-10.22,2.1
,-8.27,-0.914,-5.719,-8.035,-1.498,-5.784,6.02,-10.92,2.59
23321.0,-8.189,-1.534,-5.712,-8.071,-1.752,-5.599,6.44,-10.78,4.76
,-8.193,-1.479,-5.693,-8.045,-1.735,-5.585,7.49,-11.62,5.39
,-8.021,-1.589,-5.623,-8.253,-1.63,-5.363,8.19,-12.25,5.53
,-8.052,-1.656,-5.511,-8.27,-1.326,-5.453,9.17,-12.81,6.3
23397.0,-8.301,-0.773,-5.497,-8.2,-0.897,-5.035,10.71,-14.35,5.46
,-8.435,-0.335,-5.439,-8.217,-1.158,-5.164,9.8,-15.26,3.78
,-8.38,-0.132,-5.578,-8.301,-1.33,-4.91,5.53,-16.87,1.89
,-8.296,-0.426,-5.315,-8.603,-1.091,-4.834,2.31,-17.78,0.63
23472.0,-8.696,-0.615,-4.812,-8.37,-0.428,-4.544,6.02,-17.08,0.63
,-8.509,-0.246,-4.688,-8.351,-0.424,-4.901,5.04,-17.22,-0.14
,-8.382,-0.498,-4.453,-8.607,-0.507,-5.004,0.98,-17.57,-2.24
,-8.727,-0.376,-5.044,-8.739,-0.637,-5.054,0.0,-17.85,-3.08
23548.0,-8.524,-0.512,-5.049,-8.342,-1.464,-5.051,-9.8,-21.14,-8.47
,-8.507,-1.182,-4.771,-8.404,-1.424,-5.171,-12.46,-21.28,-9.03
,-8.265,-1.452,-4.475,-8.471,-1.254,-5.48,-11.06,-20.72,-9.59
,-8.624,-1.515,-4.783,-8.38,-1.055,-5.774,-9.03,-20.3,-7.21
23623.0,-8.277,-1.163,-5.688,-8.789,-1.462,-4.226,-5.95,-25.34,-6.23
,-8.32,-1.527,-5.382,-8.78,-1.419,-3.958,-6.02,-25.76,-6.23
,-8.634,-1.397,-5.231,-8.854,-1.74,-3.642,-2.59,-25.9,-5.88
,-8.588,-1.572,-4.441,-8.83,-1.807,-3.139,-1.05,-26.04,-5.39
23699.0,-8.928,-1.462,-3.36,-8.863,-1.35,-3.029,6.37,-23.24,-3.01
,-8.976,-1.374,-3.276,-8.904,-1.46,-2.611,8.68,-22.47,-3.64
,-8.914,-1.173,-3.065,-9.143,-1.34,-3.046,8.82,-20.86,-3.43
,-8.875,-1.268,-2.917,-9.191,-0.861,-3.431,8.12,-19.39,-3.64
23775.0,-9.136,-0.56,-2.895,-9.055,-1.091,-3.819,6.58,-12.88,-3.57
,-9.27,-0.395,-3.649,-8.935,-1.39,-3.762,4.83,-12.04,-4.55
,-9.048,-0.385,-3.656,-8.799,-1.991,-3.649,2.24,-11.9,-5.32
,-9.15,-0.89,-3.781,-8.653,-2.158,-3.64,-0.42,-11.41,-5.32
23851.0,-8.782,-2.118,-3.52,-8.973,-1.778,-3.352,-0.98,-7.98,-4.55
,-8.957,-1.799,-3.915,-9.076,-1.431,-2.986,0.63,-7.14,-4.48
,-8.916,-1.484,-3.711,-9.251,-1.22,-3.348,0.42,-6.72,-4.34
,-9.15,-1.682,-3.451,-9.112,-0.883,-3.766,-1.05,-5.74,-4.2
23926.0,-8.966,-0.871,-3.587,-9.05,-1.735,-3.711,-1.68,-3.78,-3.64
,-9.1,-1.297,-3.441,-9.033,-1.945,-3.62,-3.64,-3.15,-3.15
,-9.098,-1.328,-3.611,-9.007,-1.965,-3.565,-4.48,-2.31,-3.29
,-9.122,-1.711,-3.532,-9.012,-2.02,-3.496,-4.69,-1.75,-3.43
24002.0,-9.146,-1.826,-3.625,-8.969,-1.122,-3.8,-0.07,1.12,-0.7
,-9.107,-1.486,-3.731,-9.055,-0.883,-4.18,0.84,0.98,-0.35
,-9.081,-1.271,-3.726,-9.112,-0.718,-4.496,0.42,0.98,-0.28
,-9.069,-1.12,-3.743,-8.906,-0.754,-4.434,-0.14,1.12,-0.07
24078.0,-8.768,-1.036,-3.762,-9.325,-1.615,-3.453,-3.78,-0.91,-1.75
,-9.057,-1.407,-3.699,-8.978,-1.517,-3.697,-3.22,-0.56,-1.75
,-9.227,-1.675,-3.159,-8.753,-1.622,-3.604,-3.08,0.21,-2.24
,-9.337,-1.543,-3.257,-8.662,-1.869,-3.475,-3.57,0.56,-2.59
24154.0,-8.794,-2.02,-3.137,-9.146,-1.476,-3.812,-5.04,3.92,-1.05
,-9.105,-1.859,-3.171,-8.938,-1.213,-4.245,-3.5,5.25,-0.77
,-9.316,-1.778,-3.075,-8.868,-1.287,-4.52,-2.87,6.02,-0.35
,-9.395,-1.625,-3.472,-8.777,-1.555,-4.927,-2.87,6.51,0.07
24230.0,-8.536,-1.768,-5.047,-8.926,-1.326,-4.3,-1.54,4.55,1.47
,-8.65,-1.804,-4.989,-9.016,-1.235,-4.042,1.05,4.13,1.96
,-8.808,-1.479,-4.69,-8.997,-1.374,-3.542,3.92,3.08,2.59
,-8.918,-1.464,-4.494,-9.15,-1.455,-3.269,5.25,2.17,2.73
24305.0,-9.313,-1.431,-3.283,-9.055,-1.328,-3.644,3.01,2.24,1.89
,-9.263,-1.491,-3.233,-9.009,-1.359,-3.898,2.17,2.45,2.03
,-9.064,-1.369,-3.206,-8.878,-1.443,-4.013,1.89,3.01,2.45
,-9.105,-1.402,-3.345,-8.801,-1.28,-4.054,1.47,3.64,2.52
24381.0,-8.928,-1.28,-4.02,-8.995,-0.957,-4.056,1.54,4.9,1.54
,-8.961,-1.251,-3.953,-8.961,-1.034,-3.984,2.24,5.04,1.61
,-9.057,-1.086,-3.884,-8.981,-1.333,-3.912,2.94,4.83,1.54
,-9.158,-1.06,-4.2,-8.949,-1.244,-3.874,3.36,4.48,1.54
24456.0,-8.964,-1.263,-3.865,-9.081,-1.383,-3.955,1.26,4.2,0.21
,-9.019,-1.496,-3.666,-8.981,-1.232,-4.14,0.28,4.69,-0.07
,-9.057,-1.555,-3.501,-8.921,-1.187,-4.417,-0.07,5.18,-0.21
,-9.074,-1.438,-3.632,-8.818,-1.216,-4.582,0.07,5.67,-0.14
24532.0,-8.698,-1.352,-4.661,-8.861,-1.175,-4.326,0.0,4.69,0.14
,-8.808,-1.352,-4.654,-8.911,-1.249,-4.063,1.12,4.27,0.14
,-8.945,-1.275,-4.542,-8.988,-1.22,-4.118,2.17,3.92,0.14
,-8.914,-1.137,-4.503,-8.957,-1.33,-4.073,2.31,3.22,0.0
24608.0,-8.906,-1.45,-3.872,-8.849,-1.5,-3.819,1.4,2.66,-0.21
,-8.978,-1.51,-3.881,-8.933,-1.565,-3.927,1.75,3.01,-0.07
,-9.079,-1.431,-3.862,-9.091,-1.484,-3.972,2.31,3.29,0.21
,-8.952,-1.39,-3.838,-9.057,-1.393,-4.204,2.31,3.36,0.21
24684.0,-8.973,-1.426,-4.338,-8.847,-1.208,-4.527,2.31,3.78,0.77
,-8.875,-1.225,-4.436,-8.887,-1.22,-4.429,2.66,3.22,0.84
,-8.772,-1.103,-4.494,-8.957,-1.158,-4.35,2.8,2.87,0.91
,-8.823,-1.235,-4.446,-8.921,-1.187,-4.228,3.01,2.66,0.77
24759.0,-8.928,-1.235,-4.135,-8.909,-1.364,-4.118,2.87,1.19,0.42
,-8.897,-1.268,-4.099,-8.899,-1.417,-4.156,2.87,1.12,0.14
,-8.933,-1.23,-4.178,-8.904,-1.397,-4.212,2.31,1.19,-0.21
,-8.988,-1.311,-4.185,-8.871,-1.335,-4.142,1.75,0.91,-0.21
24835.0,-8.914,-1.225,-4.353,-8.906,-1.402,-4.046,2.52,0.7,0.42
,-8.863,-1.235,-4.281,-8.969,-1.424,-3.991,2.66,0.35,0.49
,-8.875,-1.357,-4.171,-9.009,-1.417,-3.857,2.66,0.35,0.56
,-8.837,-1.366,-4.219,-9.002,-1.436,-3.874,3.22,0.35,0.49
24910.0,-9.0,-1.4,-3.865,-8.93,-1.388,-4.044,5.25,1.05,0.77
,-8.887,-1.436,-3.874,-8.911,-1.35,-4.044,4.48,1.26,0.7
,-8.892,-1.512,-3.867,-8.916,-1.302,-4.034,4.06,1.61,0.63
,-9.019,-1.45,-3.989,-8.882,-1.254,-4.042,4.2,1.96,0.56
24986.0,-8.964,-1.247,-3.999,-8.926,-1.359,-4.145,2.66,2.59,0.0
,-8.973,-1.328,-4.027,-8.93,-1.297,-4.212,2.24,2.45,0.07
,-8.981,-1.307,-4.056,-8.851,-1.309,-4.24,2.03,2.03,-0.07
,-8.949,-1.357,-4.097,-8.851,-1.314,-4.128,1.68,1.89,-0.28
25062.0,-8.921,-1.335,-4.054,-9.002,-1.412,-3.877,1.75,1.75,-0.84
,-9.007,-1.371,-4.018,-8.978,-1.366,-4.037,1.75,1.96,-0.84
,-8.935,-1.402,-3.845,-8.923,-1.378,-4.183,1.47,2.1,-0.7
,-8.945,-1.467,-3.881,-8.82,-1.393,-4.255,1.61,2.31,-0.7
25138.0,-8.849,-1.484,-4.113,-8.902,-1.24,-4.204,1.19,2.8,-0.56
,-8.871,-1.414,-4.281,-8.897,-1.285,-4.118,1.82,3.01,-0.42
,-8.926,-1.314,-4.25,-8.902,-1.359,-4.109,2.8,2.87,-0.42
,-8.892,-1.242,-4.171,-8.938,-1.486,-3.984,2.8,2.66,-0.42
25214.0,-8.94,-1.445,-3.999,-8.906,-1.563,-3.884,2.24,2.31,-0.56
,-8.945,-1.491,-3.862,-8.868,-1.622,-3.812,2.31,2.45,-0.42
,-8.885,-1.505,-3.955,-8.897,-1.658,-3.699,2.31,2.8,-0.35
,-8.866,-1.539,-3.898,-8.906,-1.606,-3.714,2.52,2.87,-0.21
25289.0,-8.887,-1.613,-3.635,-8.885,-1.752,-3.711,2.73,5.81,-0.7
,-9.095,-1.625,-3.565,-8.997,-1.984,-3.838,2.45,6.65,-2.38
,-8.813,-1.701,-3.527,-8.945,-1.936,-3.853,1.89,7.7,-3.22
,-9.031,-1.721,-3.623,-8.619,-1.735,-3.869,2.03,8.26,-3.01
25365.0,-8.729,-1.826,-3.838,-8.636,-1.488,-4.257,3.08,11.62,-1.26
,-8.76,-1.656,-4.066,-8.722,-1.543,-4.2,2.94,12.04,-0.56
,-8.794,-1.484,-4.161,-8.818,-1.369,-4.302,2.45,11.83,-0.07
,-8.715,-1.414,-4.168,-9.036,-1.196,-4.716,1.4,11.62,0.28
25441.0,-9.038,-1.041,-4.704,-8.54,-1.29,-4.681,0.7,9.17,2.87
,-8.768,-1.007,-5.061,-8.83,-1.089,-4.685,-1.19,8.12,3.08
,-8.55,-1.22,-4.989,-8.969,-0.759,-4.621,-2.73,6.93,3.57
,-8.524,-1.271,-4.884,-8.854,-0.402,-4.508,-2.94,6.51,3.5
25517.0,-8.804,-0.646,-4.496,-8.839,-2.003,-4.451,-14.49,2.31,-1.26
,-8.804,-1.196,-4.202,-8.744,-1.747,-4.621,-19.32,2.31,-2.8
,-8.784,-1.709,-4.025,-8.514,-1.586,-5.03,-21.07,3.15,-3.71
,-8.854,-2.111,-4.061,-8.203,-2.01,-4.96,-19.6,4.13,-3.57
25592.0,-8.256,-2.474,-4.623,-8.839,-2.072,-3.85,-12.25,4.48,0.63
,-8.421,-2.613,-4.192,-8.801,-2.123,-3.64,-7.28,5.81,2.66
,-8.729,-2.611,-3.733,-8.715,-2.108,-3.958,-2.45,7.35,4.76
,-8.875,-2.369,-3.821,-8.667,-1.862,-3.793,2.03,8.47,6.58
25668.0,-8.83,-1.689,-3.814,-8.622,-0.546,-4.245,12.25,13.09,13.86
,-8.765,-0.972,-3.9,-8.722,-0.548,-4.563,14.28,14.07,13.37
,-8.725,-0.462,-4.338,-8.935,-0.715,-4.415,13.79,14.21,12.25
,-8.454,-0.45,-4.3,-8.801,-1.027,-4.494,10.71,14.35,11.41
25743.0,-8.526,-0.739,-4.52,-8.48,-0.998,-5.066,1.75,14.84,7.49
,-8.519,-0.732,-4.798,-8.6,-1.175,-4.535,-0.49,15.05,5.95
,-8.38,-1.019,-4.592,-8.571,-1.374,-4.484,-2.8,14.91,4.41
,-8.289,-0.931,-4.511,-8.483,-1.859,-4.238,-2.45,15.47,3.71
25819.0,-8.66,-2.087,-3.91,-8.495,-0.723,-5.224,-1.4,19.39,5.74
,-8.734,-1.998,-3.774,-8.485,-0.574,-5.41,1.96,20.44,6.72
,-8.72,-1.563,-4.295,-8.672,-0.433,-5.097,5.88,20.44,7.21
,-8.452,-1.125,-4.563,-8.88,-0.335,-5.257,8.68,20.09,7.91
25895.0,-8.679,-0.129,-5.279,-7.952,-2.347,-4.922,8.33,14.7,9.03
,-8.406,-0.512,-5.394,-8.275,-2.12,-4.886,4.2,13.44,7.35
,-8.04,-1.153,-5.36,-8.332,-1.594,-5.331,0.0,13.23,5.88
,-8.011,-2.091,-4.781,-8.251,-1.223,-5.528,-2.03,14.28,5.67
25971.0,-8.454,-1.235,-5.233,-8.303,-0.89,-4.432,13.23,15.26,14.42
,-7.856,-0.869,-5.173,-8.636,-0.665,-4.81,13.44,16.17,13.72
,-8.119,-0.885,-4.637,-8.497,-0.33,-5.272,13.51,18.13,13.58
,-8.224,-0.96,-4.594,-8.555,-0.586,-5.19,14.21,19.04,13.65
26046.0,-8.478,-0.778,-5.219,-8.399,0.053,-5.123,14.35,18.41,12.25
,-8.107,-0.737,-5.25,-8.583,0.084,-5.446,14.77,18.48,11.27
,-7.755,-0.452,-5.377,-8.571,0.002,-5.365,16.31,18.83,9.94
,-7.916,-0.213,-5.506,-8.21,0.053,-5.568,17.36,19.95,8.47
26122.0,-8.313,0.309,-6.133,-7.877,-0.101,-6.145,10.64,18.06,1.68
,-8.38,0.175,-6.121,-7.976,-0.172,-6.14,8.33,17.36,0.35
,-8.382,-0.105,-6.162,-8.083,-0.438,-6.176,6.58,16.17,-1.05
,-7.985,0.06,-6.277,-8.382,-0.514,-6.341,5.74,15.68,-2.24
26198.0,-8.239,-0.512,-6.638,-7.968,-1.905,-5.834,3.5,12.74,-7.63
,-7.961,-0.739,-6.456,-7.985,-2.06,-5.975,3.08,12.04,-7.49
,-7.509,-1.232,-6.253,-7.935,-2.333,-5.815,2.24,12.88,-6.72
,-7.617,-1.613,-5.977,-7.772,-2.089,-6.011,1.68,13.58,-7.49
26274.0,-7.595,-1.668,-5.985,-7.834,-0.921,-6.159,6.44,11.62,-1.61
,-7.545,-1.278,-6.267,-7.976,-1.17,-6.078,7.42,11.62,-1.61
,-7.88,-1.096,-6.202,-7.942,-1.165,-5.944,6.86,11.27,-2.24
,-7.916,-0.876,-6.356,-7.861,-0.914,-6.155,6.72,9.94,-2.1
26350.0,-8.162,-0.883,-6.238,-8.136,0.041,-6.19,7.07,6.93,-0.07
,-8.294,-0.61,-6.308,-8.016,0.318,-6.109,5.53,5.46,-0.21
,-8.323,-0.632,-6.267,-8.074,0.333,-5.997,4.34,4.55,0.35
,-8.227,-0.45,-6.159,-7.693,-0.117,-5.767,5.11,3.29,0.14
26425.0,-7.861,-0.328,-6.03,-7.499,-2.96,-6.04,2.1,1.26,-4.69
,-8.217,-0.919,-5.968,-7.042,-3.221,-6.549,2.94,1.33,-4.41
,-7.55,-1.318,-6.15,-7.212,-3.563,-5.982,2.31,0.14,-4.13
,-7.657,-2.257,-6.224,-7.815,-4.549,-5.456,1.54,0.77,-2.38
26501.0,-7.227,-2.955,-7.009,-8.203,-1.68,-6.406,9.45,4.13,9.52
,-7.535,-2.304,-6.43,-7.997,-1.766,-6.042,10.29,4.97,10.64
,-7.42,-2.103,-6.528,-8.05,-1.67,-5.836,10.22,3.22,9.17
,-7.875,-2.209,-6.006,-7.641,-0.864,-6.145,10.29,3.85,10.29
26576.0,-8.019,-0.646,-6.018,-8.189,0.646,-5.86,16.45,4.27,17.01
,-7.887,0.031,-6.155,-8.287,0.593,-5.92,15.54,3.78,14.84
,-7.787,0.553,-6.078,-8.148,0.522,-6.037,14.77,2.87,12.6
,-8.09,0.694,-6.049,-7.923,-0.05,-6.085,13.09,3.36,10.5
26652.0,-7.787,-0.426,-6.054,-7.617,-2.044,-6.272,2.73,3.36,0.56
,-7.669,-0.773,-6.214,-7.461,-1.807,-6.284,1.47,4.69,0.42
,-7.636,-1.4,-6.023,-7.442,-1.644,-6.435,2.17,4.9,0.0
,-7.576,-1.766,-6.296,-7.849,-1.816,-6.059,2.45,4.83,0.07
26728.0,-7.875,-1.484,-6.521,-7.552,-1.586,-6.056,3.64,5.18,3.57
,-7.923,-1.649,-6.109,-7.588,-1.407,-6.126,3.15,4.2,4.41
,-7.653,-1.565,-6.195,-7.684,-1.357,-6.289,2.31,2.87,4.48
,-7.507,-1.491,-6.293,-7.789,-1.151,-6.152,2.24,3.01,4.2
26804.0,-7.765,-0.866,-6.162,-7.751,-0.215,-6.078,5.88,4.2,5.67
,-8.15,-0.572,-6.071,-7.758,-0.555,-6.097,5.67,4.9,4.69
,-8.033,-0.105,-6.059,-7.952,-0.785,-6.36,5.04,4.34,3.36
,-7.81,0.129,-6.26,-7.875,-1.149,-5.994,4.34,3.92,1.89
26879.0,-7.813,-1.299,-6.08,-7.925,-1.455,-6.365,0.77,4.76,1.4
,-7.586,-1.402,-6.15,-7.392,-1.603,-6.463,2.52,4.41,1.61
,-7.509,-1.584,-6.305,-7.31,-1.491,-6.547,3.01,4.27,1.68
,-7.87,-1.598,-6.43,-7.526,-1.338,-6.494,3.29,4.55,1.68
26955.0,-7.743,-1.342,-6.458,-7.83,-1.01,-6.243,1.33,3.71,2.87
,-7.834,-1.091,-6.408,-7.789,-0.948,-6.021,1.68,3.15,3.29
,-7.854,-1.153,-6.234,-7.698,-0.68,-6.183,1.19,2.94,3.5
,-7.796,-1.017,-6.485,-7.748,-0.531,-6.104,2.24,2.94,3.99
27031.0,-7.693,-0.488,-6.08,-7.789,-0.775,-6.111,2.38,2.1,2.17
,-7.739,-0.562,-6.047,-7.743,-0.785,-6.205,2.17,2.45,2.1
,-7.798,-0.608,-6.143,-7.77,-0.869,-6.14,1.75,2.45,1.68
,-7.937,-0.639,-6.119,-7.602,-0.952,-6.044,1.33,2.17,0.98
27107.0,-7.588,-0.833,-6.08,-7.82,-0.823,-6.245,0.98,3.01,0.21
,-7.753,-0.897,-6.174,-7.801,-1.113,-6.121,0.91,3.08,-0.28
,-7.791,-0.928,-6.111,-7.499,-1.055,-6.083,0.98,2.87,-0.21
,-7.777,-0.742,-6.169,-7.382,-0.921,-6.274,1.54,3.22,0.21
27183.0,-7.617,-0.919,-6.461,-7.576,-1.01,-6.829,-1.19,4.34,-1.61
,-7.674,-0.924,-6.691,-7.42,-0.936,-6.913,-1.33,4.2,-1.54
,-7.7,-0.912,-6.889,-7.607,-1.058,-6.973,-1.33,4.13,-1.05
,-7.743,-0.921,-6.863,-7.808,-1.259,-6.882,-1.82,4.13,-0.56
27258.0,-7.763,-1.531,-6.693,-7.696,-0.983,-6.638,-6.02,3.43,-0.28
,-7.562,-1.517,-6.645,-7.688,-0.447,-6.664,-5.67,3.08,0.63
,-7.394,-1.476,-6.523,-7.801,-0.177,-6.789,-5.32,3.08,1.05
,-7.502,-1.24,-6.59,-8.035,-0.256,-6.559,-4.9,3.43,0.84
27334.0,-7.775,-0.203,-6.439,-7.971,-0.605,-6.372,-7.42,1.12,-2.1
,-7.624,-0.476,-6.37,-7.827,-0.639,-6.468,-8.05,0.84,-2.45
,-7.72,-0.739,-6.284,-7.717,-0.749,-6.545,-7.77,1.19,-2.38
,-7.916,-0.766,-6.312,-7.77,-0.869,-6.542,-6.02,0.7,-1.96
27409.0,-7.803,-0.811,-6.502,-7.586,-1.261,-6.368,-3.01,-3.78,-4.34
,-7.858,-1.017,-6.344,-7.672,-0.79,-6.64,-3.08,-4.34,-4.48
,-7.502,-1.407,-6.155,-7.633,-0.9,-6.58,-2.8,-5.11,-4.48
,-7.485,-1.445,-5.963,-7.842,-1.019,-6.439,-2.66,-5.67,-3.64
27485.0,-8.117,-1.189,-6.602,-7.614,-0.402,-6.399,3.85,-5.32,-1.75
,-7.88,-1.508,-6.054,-7.976,-0.522,-6.442,5.04,-6.3,-0.49
,-7.552,-1.342,-6.217,-8.078,-0.763,-6.403,7.0,-7.21,1.4
,-7.377,-0.723,-6.37,-8.095,-0.979,-6.389,9.17,-7.21,2.38
27561.0,-8.136,-1.275,-6.159,-8.038,-0.715,-5.958,9.24,-8.47,0.28
,-7.475,-0.737,-6.281,-8.205,-0.876,-5.903,10.36,-11.34,-0.28
,-7.207,-0.514,-6.145,-8.066,-0.943,-5.927,10.22,-10.99,-0.35
,-7.571,-0.589,-5.702,-8.198,-0.902,-5.875,10.01,-9.03,-1.4
27637.0,-8.153,-0.782,-5.882,-8.062,-1.455,-5.896,7.56,-11.2,0.28
,-7.818,-0.785,-5.834,-7.983,-1.464,-5.949,7.42,-11.13,0.63
,-7.724,-0.811,-5.949,-7.485,-1.06,-6.078,7.56,-10.43,1.19
,-7.856,-1.084,-5.934,-7.504,-0.873,-6.088,7.14,-10.71,1.4
27712.0,-8.052,-0.921,-5.925,-7.94,-0.778,-5.726,7.49,-11.55,0.21
,-8.212,-0.995,-5.87,-8.284,-0.84,-5.633,6.65,-13.16,-0.84
,-7.875,-0.771,-5.851,-8.327,-0.785,-5.614,5.46,-14.7,-0.14
,-7.751,-0.859,-5.607,-8.27,-0.665,-5.489,4.13,-15.05,0.07
27788.0,-8.222,-0.627,-5.709,-8.495,-1.718,-5.638,4.62,-12.74,1.54
,-7.99,-0.486,-5.53,-8.306,-1.575,-5.858,2.24,-12.11,2.45
,-8.026,-1.125,-5.762,-7.844,-1.273,-5.853,1.54,-11.48,2.38
,-8.04,-1.558,-5.75,-7.782,-0.902,-5.865,2.59,-11.2,2.31
27864.0,-7.796,-0.842,-5.977,-8.246,-1.261,-5.324,3.15,-16.94,1.47
,-8.009,-1.005,-5.755,-8.406,-1.125,-5.59,1.61,-16.59,0.56
,-8.114,-1.201,-5.544,-8.344,-0.967,-5.705,0.63,-16.45,0.49
,-7.98,-1.232,-5.58,-8.361,-0.749,-5.556,2.45,-16.45,0.77
27940.0,-8.342,-0.778,-5.468,-8.433,-0.912,-5.162,5.18,-18.41,2.59
,-8.342,-0.864,-5.296,-8.457,-0.684,-5.255,3.92,-19.18,1.89
,-8.38,-0.857,-5.564,-8.267,-0.761,-4.989,3.43,-20.65,0.35
,-8.239,-0.89,-5.441,-8.378,-0.763,-4.824,2.94,-21.91,-0.77
28015.0,-8.583,-0.952,-4.759,-8.37,-0.814,-4.597,-1.82,-23.17,-5.04
,-8.634,-1.101,-4.331,-8.478,-0.744,-4.618,-2.73,-23.8,-4.97
,-8.72,-1.082,-4.52,-8.39,-0.945,-4.506,-2.66,-24.29,-4.48
,-8.514,-0.964,-4.594,-8.521,-1.015,-4.063,-2.94,-25.06,-5.25
28091.0,-8.768,-1.05,-4.446,-8.82,-0.991,-4.391,-2.59,-24.29,-6.09
,-8.784,-0.754,-4.795,-8.614,-1.345,-4.389,-1.05,-25.48,-5.25
,-8.78,-0.519,-5.087,-8.622,-1.613,-4.432,-2.8,-26.74,-4.97
,-8.725,-0.663,-4.81,-8.588,-1.29,-4.3,-6.09,-27.86,-5.6
28166.0,-8.665,-0.747,-4.786,-8.562,-1.476,-3.922,-0.77,-27.93,-8.75
,-8.806,-0.479,-5.133,-8.595,-1.749,-3.393,0.28,-28.91,-8.26
,-8.655,-0.218,-4.812,-8.842,-1.701,-2.931,-0.56,-29.75,-9.17
,-8.748,-0.488,-4.623,-9.229,-1.764,-2.857,-3.29,-30.1,-10.01
28242.0,-9.399,-1.826,-2.613,-9.198,-1.663,-2.481,1.33,-25.76,-7.63
,-9.179,-1.833,-2.491,-9.189,-1.419,-1.795,2.94,-24.64,-6.02
,-8.985,-1.728,-2.414,-9.399,-0.945,-2.288,4.27,-22.82,-5.18
,-9.112,-1.761,-2.106,-9.359,-0.869,-2.46,6.23,-20.65,-4.69
28318.0,-9.33,-1.084,-2.118,-8.952,-1.651,-3.472,3.22,-11.76,-5.53
,-9.517,-1.266,-2.371,-9.06,-1.665,-3.475,1.54,-9.8,-4.97
,-9.318,-1.522,-3.369,-9.184,-1.608,-3.81,0.84,-9.8,-5.18
,-8.914,-1.728,-3.18,-9.122,-1.297,-3.515,0.7,-9.52,-4.27
28394.0,-9.174,-1.117,-3.46,-8.99,-1.464,-3.247,5.32,-5.25,-3.29
,-9.158,-1.443,-3.759,-9.225,-1.586,-3.405,3.5,-5.6,-3.85
,-8.93,-1.642,-3.297,-9.067,-1.567,-2.879,2.52,-5.39,-3.01
,-9.036,-1.594,-3.408,-9.265,-1.565,-2.991,3.5,-4.76,-2.03
28470.0,-9.296,-1.639,-2.855,-8.921,-1.529,-3.465,4.41,-1.12,-0.49
,-9.277,-1.651,-2.709,-8.918,-1.732,-3.754,4.34,-0.21,0.14
,-9.421,-1.378,-3.41,-8.923,-1.821,-3.582,5.39,0.14,0.42
,-9.16,-1.208,-3.477,-8.894,-1.747,-3.637,4.76,-0.21,0.42
28545.0,-9.208,-1.625,-3.247,-8.918,-0.866,-3.877,7.7,1.19,2.17
,-9.497,-1.28,-3.262,-9.095,-1.108,-4.109,8.54,1.75,1.89
,-9.531,-0.893,-3.776,-9.095,-1.553,-3.984,7.91,1.19,0.91
,-9.165,-0.847,-3.814,-8.926,-1.433,-3.723,4.69,0.0,-0.49
28621.0,-8.89,-1.194,-3.793,-9.21,-1.608,-3.214,-2.24,-0.84,-4.48
,-9.323,-1.34,-3.51,-9.1,-1.78,-3.307,-3.99,-1.82,-4.06
,-9.22,-1.168,-3.558,-9.005,-1.965,-3.166,-6.09,-2.73,-4.48
,-9.162,-1.359,-3.209,-9.134,-1.974,-3.216,-9.1,-2.45,-4.97
28697.0,-9.177,-1.792,-2.678,-9.579,-1.661,-2.663,-12.95,0.21,-6.16
,-9.1,-1.491,-2.513,-9.213,-1.68,-2.687,-13.58,1.54,-6.65
,-9.447,-1.642,-2.335,-9.031,-1.792,-2.9,-15.19,2.73,-7.35
,-9.574,-1.46,-2.673,-9.215,-1.723,-3.089,-16.03,3.5,-7.42
28773.0,-9.237,-1.46,-3.02,-8.94,-1.519,-3.833,-4.83,8.96,-1.33
,-9.244,-1.266,-3.175,-8.88,-1.642,-4.042,-2.59,9.52,-0.28
,-9.289,-1.208,-3.434,-8.952,-1.795,-4.231,-1.61,9.73,-0.07
,-9.22,-1.46,-3.668,-8.926,-1.737,-4.106,-1.61,9.59,0.07
28848.0,-8.899,-1.61,-3.939,-9.201,-1.388,-3.616,4.13,9.8,1.54
,-9.072,-1.622,-3.699,-8.978,-1.371,-3.635,5.46,9.66,1.96
,-9.268,-1.412,-3.537,-9.007,-1.45,-3.508,7.28,9.87,2.59
,-9.27,-1.314,-3.592,-9.019,-1.46,-3.518,7.77,9.66,2.94
28924.0,-9.119,-1.338,-3.556,-8.997,-1.476,-4.058,7.56,9.52,2.8
,-9.103,-1.34,-3.587,-8.978,-1.445,-4.259,6.16,9.66,2.66
,-9.095,-1.601,-3.754,-8.832,-1.436,-4.305,4.76,9.45,2.31
,-9.028,-1.527,-3.857,-8.866,-1.342,-4.422,4.48,9.52,2.24
28999.0,-8.873,-1.321,-4.377,-8.861,-1.357,-4.381,3.08,7.77,1.33
,-8.878,-1.263,-4.506,-8.911,-1.51,-4.288,2.87,6.58,1.26
,-8.871,-1.441,-4.475,-8.911,-1.598,-3.989,2.52,5.6,1.12
,-8.794,-1.488,-4.463,-9.117,-1.519,-3.81,2.45,4.83,0.84
29075.0,-9.069,-1.517,-3.618,-9.045,-1.452,-3.501,2.52,3.57,0.35
,-9.179,-1.62,-3.405,-9.043,-1.462,-3.573,1.82,3.36,0.14
,-9.22,-1.572,-3.434,-9.052,-1.414,-3.774,1.54,3.71,0.28
,-9.131,-1.558,-3.544,-8.997,-1.409,-3.807,1.33,3.78,0.49
29151.0,-9.072,-1.366,-3.965,-8.713,-1.625,-4.489,0.77,4.9,0.91
,-9.048,-1.464,-4.106,-8.753,-1.51,-4.482,1.05,4.41,1.12
,-8.923,-1.484,-4.346,-8.825,-1.431,-4.391,1.75,3.92,1.4
,-8.804,-1.493,-4.489,-8.928,-1.354,-4.305,2.24,3.5,1.61
29227.0,-8.926,-1.357,-4.049,-9.191,-1.412,-3.632,2.87,1.96,1.33
,-8.971,-1.429,-3.75,-9.22,-1.443,-3.549,2.1,1.82,1.26
,-9.05,-1.527,-3.647,-9.06,-1.378,-3.872,1.61,1.96,1.12
,-9.143,-1.481,-3.618,-8.918,-1.438,-3.841,1.54,2.24,0.98
29303.0,-8.904,-1.4,-4.219,-8.933,-1.457,-4.092,-0.28,2.52,0.84
,-8.847,-1.488,-4.346,-9.005,-1.438,-3.999,0.35,2.31,1.05
,-8.813,-1.519,-4.374,-9.019,-1.405,-3.939,1.33,2.17,1.19
,-8.811,-1.46,-4.24,-9.04,-1.328,-3.769,2.73,2.1,1.4
29378.0,-9.033,-1.393,-3.644,-9.019,-1.385,-3.805,3.92,2.17,1.19
,-9.04,-1.376,-3.64,-9.002,-1.285,-3.924,3.43,2.45,1.26
,-9.012,-1.469,-3.661,-8.935,-1.369,-4.049,2.94,2.87,1.19
,-9.074,-1.378,-3.855,-8.94,-1.481,-4.149,2.45,3.08,1.19
29454.0,-8.926,-1.505,-4.006,-9.045,-1.251,-4.001,0.0,3.08,0.56
,-8.949,-1.417,-4.101,-9.0,-1.287,-3.936,0.28,3.08,0.42
,-8.978,-1.443,-3.984,-9.014,-1.342,-3.965,0.56,3.01,0.56
,-9.012,-1.364,-4.015,-8.985,-1.354,-4.099,1.12,2.94,0.91
29530.0,-8.878,-1.311,-4.013,-8.949,-1.297,-4.219,2.59,2.52,1.68
,-8.921,-1.381,-4.097,-8.914,-1.385,-4.154,2.45,2.52,1.61
,-8.928,-1.354,-4.121,-8.921,-1.395,-4.233,2.59,2.66,1.4
,-8.94,-1.323,-4.14,-8.88,-1.385,-4.24,2.38,2.31,1.26
29606.0,-8.906,-1.364,-4.255,-8.957,-1.441,-4.037,1.4,1.47,0.77
,-8.916,-1.429,-4.207,-8.995,-1.381,-3.996,1.54,1.26,0.77
,-8.957,-1.414,-4.101,-8.983,-1.376,-4.113,1.68,1.05,0.91
,-8.935,-1.503,-4.022,-8.914,-1.383,-4.02,1.89,0.98,0.91
29681.0,-8.914,-1.469,-3.958,-9.081,-1.376,-3.762,1.68,0.91,0.07
,-8.978,-1.433,-3.731,-9.028,-1.34,-3.793,1.89,1.19,0.14
,-9.086,-1.467,-3.702,-8.981,-1.347,-3.831,1.96,1.4,0.0
,-9.069,-1.472,-3.611,-8.885,-1.491,-3.934,2.17,1.82,0.14
29757.0,-8.923,-1.491,-4.073,-8.842,-1.34,-4.264,1.47,2.52,0.63
,-8.875,-1.374,-4.116,-8.875,-1.333,-4.106,1.96,2.52,0.7
,-8.947,-1.383,-4.252,-8.978,-1.297,-4.238,2.17,2.31,0.84
,-8.947,-1.275,-4.307,-9.002,-1.364,-4.111,2.03,1.82,0.63
29832.0,-8.964,-1.311,-3.934,-8.945,-1.438,-3.769,0.35,0.77,-1.05
,-8.847,-1.388,-3.79,-8.911,-1.441,-3.68,-0.49,0.91,-1.19
,-8.993,-1.644,-3.814,-8.897,-1.632,-3.673,-0.84,1.12,-1.47
,-9.031,-1.546,-3.829,-8.906,-1.826,-3.79,-0.49,1.75,-2.52
29908.0,-8.88,-1.881,-3.795,-9.057,-1.211,-4.24,1.19,3.92,-0.63
,-8.871,-1.704,-3.97,-9.026,-1.106,-4.221,3.15,4.2,0.07
,-8.94,-1.546,-4.078,-8.973,-1.089,-4.221,4.2,4.13,0.7
,-9.007,-1.395,-4.089,-8.935,-1.256,-4.161,4.9,4.13,1.54
29984.0,-8.918,-1.263,-4.046,-9.048,-1.407,-3.539,3.01,2.8,1.26
,-8.973,-1.338,-3.965,-9.105,-1.273,-3.508,2.94,2.73,0.98
,-8.983,-1.385,-3.845,-9.057,-1.268,-3.747,2.38,2.59,0.7
,-8.983,-1.438,-3.618,-8.935,-1.029,-3.776,1.61,2.8,1.05
30060.0,-8.935,-0.732,-3.869,-8.768,-1.644,-4.468,-3.08,3.15,1.54
,-8.99,-0.761,-4.082,-8.696,-2.28,-4.367,-6.02,2.87,0.7
,-8.995,-0.833,-4.269,-8.598,-2.563,-4.161,-8.75,2.17,-0.35
,-8.866,-1.113,-4.334,-8.835,-2.338,-3.855,-11.06,1.75,-1.61
30135.0,-8.88,-2.07,-3.826,-8.938,-1.606,-3.771,2.45,5.74,1.26
,-8.942,-1.986,-3.786,-8.952,-1.563,-3.735,4.06,6.37,2.24
,-8.935,-1.721,-3.884,-8.961,-1.744,-3.912,5.11,6.79,3.29
,-8.892,-1.709,-3.819,-8.801,-1.634,-3.929,5.53,7.28,3.78
30211.0,-8.768,-1.539,-3.867,-9.014,-1.893,-3.594,6.3,8.89,6.65
,-8.825,-1.555,-3.635,-8.878,-1.922,-3.673,6.72,9.8,7.14
,-8.914,-1.665,-3.34,-8.887,-1.615,-4.477,7.21,10.99,8.05
,-9.119,-1.893,-3.549,-8.634,-1.632,-4.391,7.77,11.97,8.61
30286.0,-8.586,-1.9,-4.027,-8.94,-0.725,-4.413,8.12,12.04,12.88
,-8.65,-2.106,-3.69,-8.856,-0.665,-4.692,8.61,13.3,13.93
,-8.854,-1.917,-3.486,-8.662,-1.003,-4.355,11.27,14.63,14.42
,-8.902,-1.199,-4.164,-8.957,-1.082,-4.53,14.07,14.63,13.72
30362.0,-8.72,-0.902,-4.472,-8.66,-0.153,-4.566,2.87,12.74,10.78
,-8.547,-0.069,-4.611,-8.909,-0.809,-4.243,4.76,12.46,8.75
,-8.775,0.168,-5.106,-8.885,-1.098,-4.496,1.82,11.41,6.44
,-8.576,0.144,-4.822,-8.636,-0.96,-4.401,-3.01,10.08,5.25
30438.0,-8.78,-0.383,-4.743,-8.492,-1.706,-3.709,-5.46,9.38,1.12
,-8.914,-0.179,-5.162,-8.571,-1.62,-3.424,-6.58,8.54,-0.56
,-8.806,-0.531,-4.788,-8.911,-1.565,-3.743,-10.29,8.54,-1.26
,-8.722,-1.333,-4.075,-8.804,-1.407,-4.015,-12.81,9.87,-1.96
30514.0,-8.696,-1.407,-3.994,-8.435,-0.902,-4.41,-1.82,14.56,2.1
,-8.765,-1.414,-4.353,-8.332,-1.709,-4.154,0.98,15.19,3.99
,-8.868,-1.196,-4.432,-8.452,-2.391,-3.652,4.97,14.77,4.2
,-8.875,-0.852,-4.508,-8.279,-2.312,-3.898,6.37,14.14,3.71
30590.0,-8.583,-2.163,-3.778,-8.536,0.211,-5.614,15.89,20.51,11.55
,-8.796,-1.429,-4.078,-8.387,0.586,-5.499,20.3,21.21,14.35
,-8.495,-0.809,-4.738,-8.48,0.799,-5.056,22.82,19.67,14.49
,-8.334,-0.359,-5.018,-8.519,0.68,-4.707,21.84,19.88,14.49
30665.0,-8.576,0.447,-4.618,-8.897,-2.233,-4.542,7.49,20.51,1.26
,-9.002,0.017,-4.152,-8.473,-2.204,-4.31,3.57,20.72,-0.77
,-8.935,-0.861,-4.566,-8.337,-1.551,-4.647,1.19,20.51,-0.77
,-8.681,-1.577,-4.257,-8.198,-0.869,-5.195,0.28,20.72,-1.05
30741.0,-8.038,-0.251,-5.867,-8.603,-1.039,-5.853,15.89,20.72,3.64
,-8.155,-0.22,-6.018,-7.882,-1.395,-5.666,13.23,20.09,3.36
,-8.311,-0.479,-5.958,-7.976,-1.151,-5.547,9.38,20.86,1.96
,-8.275,-0.914,-5.705,-8.028,-1.488,-5.324,4.48,21.21,-0.7
30817.0,-7.985,-1.735,-5.532,-8.088,-0.881,-6.222,7.91,22.19,-0.14
,-8.378,-1.563,-5.848,-7.978,-0.89,-6.188,10.36,22.4,0.77
,-8.323,-1.441,-6.116,-8.066,-0.869,-6.126,11.9,20.44,1.26
,-7.605,-1.043,-6.212,-8.299,-1.019,-6.14,13.72,19.6,2.03
30893.0,-7.992,-1.409,-6.025,-8.074,-1.85,-5.255,7.0,14.77,1.89
,-7.803,-1.376,-6.049,-8.222,-1.508,-5.432,6.79,15.54,2.66
,-7.844,-1.711,-5.755,-7.779,-1.122,-5.999,6.93,17.36,2.52
,-8.155,-1.811,-5.135,-7.454,-1.019,-6.245,6.23,19.04,4.27
30968.0,-7.715,-1.019,-6.123,-8.232,-0.902,-5.693,8.05,16.8,3.71
,-8.112,-0.558,-6.296,-7.746,-1.426,-5.765,7.0,17.15,2.8
,-8.208,-0.773,-6.08,-7.897,-1.333,-5.882,6.02,16.87,1.47
,-8.098,-0.766,-5.992,-7.99,-1.421,-5.817,5.74,16.03,1.26
31044.0,-7.913,-1.484,-6.301,-7.791,-0.246,-6.504,6.58,15.26,6.86
,-8.086,-1.007,-6.636,-7.48,-0.651,-6.509,8.54,14.0,7.56
,-8.078,-0.682,-6.583,-7.53,-0.534,-6.456,8.54,12.18,7.77
,-7.961,-0.225,-6.636,-8.055,-0.876,-6.322,6.93,10.22,6.44
31119.0,-8.248,-0.926,-5.875,-7.877,-0.629,-6.607,1.82,9.24,-0.35
,-8.038,-0.905,-5.808,-8.239,-0.459,-6.365,2.17,7.98,1.68
,-7.837,-0.792,-6.023,-7.81,-0.223,-6.286,3.64,6.16,2.45
,-7.875,-0.964,-6.217,-7.437,-0.392,-6.585,4.62,5.39,2.87
31195.0,-7.787,-0.471,-6.949,-7.676,-2.091,-6.384,3.57,3.57,-3.01
,-7.566,-0.756,-6.734,-7.533,-2.819,-5.992,3.78,2.87,-4.55
,-7.839,-1.338,-6.241,-7.184,-2.465,-6.298,3.22,3.08,-3.36
,-7.808,-1.84,-5.891,-7.329,-2.407,-6.411,1.33,4.41,-0.42
31271.0,-7.447,-2.388,-6.312,-8.071,-1.345,-6.375,7.42,3.01,6.37
,-7.509,-1.869,-6.607,-8.122,-0.66,-6.456,8.68,4.55,6.86
,-7.741,-1.756,-6.114,-7.722,-0.534,-6.123,7.7,4.55,7.28
,-7.693,-1.649,-6.064,-7.533,-0.546,-6.375,7.42,4.48,8.12
31347.0,-7.648,0.306,-6.923,-7.619,-0.926,-6.317,5.81,3.43,5.53
,-7.976,-1.208,-5.966,-7.557,-1.24,-6.406,4.06,3.57,5.04
,-8.059,-1.005,-6.224,-7.562,-1.35,-6.021,5.46,3.29,5.6
,-7.72,-0.869,-6.253,-7.442,-1.335,-6.198,8.12,2.66,6.79
31423.0,-7.693,-1.211,-6.32,-7.626,-1.048,-6.205,7.42,3.92,7.7
,-7.901,-1.304,-6.04,-7.696,-0.931,-6.214,6.93,4.62,7.07
,-7.617,-0.761,-6.444,-7.688,-0.483,-6.518,7.91,3.99,6.37
,-7.509,-0.938,-6.143,-7.751,-0.541,-6.475,7.35,3.71,6.58
31498.0,-7.626,-0.491,-6.174,-7.899,-0.45,-5.91,4.83,4.69,2.73
,-7.808,-0.294,-6.164,-7.653,-0.581,-6.071,5.11,4.27,1.4
,-7.966,-0.17,-6.164,-7.763,-0.634,-6.092,4.83,4.76,0.42
,-7.942,-0.251,-6.066,-7.83,-0.821,-6.097,3.99,4.9,-0.28
31574.0,-7.779,-0.818,-6.226,-7.437,-1.321,-6.267,3.43,6.09,-2.52
,-7.746,-0.617,-6.336,-7.401,-1.484,-6.403,3.64,6.44,-2.24
,-7.705,-0.861,-6.31,-7.49,-1.721,-6.54,3.36,6.09,-3.57
,-7.519,-0.969,-6.312,-7.621,-1.926,-6.454,2.73,5.46,-4.48
31650.0,-7.636,-1.874,-6.482,-7.463,-1.694,-6.626,2.73,4.76,-2.03
,-7.557,-1.744,-6.621,-7.454,-1.395,-6.703,3.5,4.27,-1.12
,-7.631,-1.699,-6.681,-7.478,-1.699,-6.504,3.71,3.85,-0.42
,-7.475,-1.563,-6.755,-7.657,-1.807,-6.478,3.92,3.43,0.07
31726.0,-7.595,-1.859,-6.36,-7.569,-1.17,-6.315,3.85,2.66,3.64
,-7.363,-1.508,-6.509,-7.576,-1.027,-6.289,5.88,1.89,4.41
,-7.502,-1.505,-6.423,-7.657,-0.873,-6.363,5.74,2.1,4.48
,-7.636,-1.247,-6.437,-7.746,-0.797,-6.42,5.74,1.89,4.34
31801.0,-7.767,-0.869,-6.312,-7.255,-1.036,-6.119,4.06,1.19,3.99
,-7.787,-0.974,-6.281,-7.48,-1.05,-6.188,3.64,1.54,3.85
,-7.911,-0.988,-6.255,-7.794,-1.134,-6.245,3.57,1.4,3.43
,-7.574,-0.943,-6.111,-7.655,-1.098,-6.317,3.43,0.77,2.94
31877.0,-7.597,-1.515,-6.253,-7.708,-0.931,-6.454,2.17,1.26,2.73
,-7.526,-1.309,-6.305,-7.913,-0.986,-6.25,3.64,1.12,2.87
,-7.533,-1.017,-6.389,-7.693,-1.139,-6.186,4.2,1.47,2.66
,-7.557,-0.852,-6.444,-7.492,-1.402,-6.219,3.5,1.75,2.24
31952.0,-7.631,-1.237,-6.133,-7.664,-1.108,-6.119,3.57,2.03,1.89
,-7.533,-0.991,-6.176,-7.746,-1.06,-6.181,3.85,1.75,1.33
,-7.308,-1.091,-6.126,-7.734,-0.912,-6.394,3.22,2.1,1.4
,-7.459,-0.991,-6.178,-7.877,-0.854,-6.497,3.29,2.8,0.98
32028.0,-7.688,-1.117,-6.468,-7.442,-1.23,-6.573,1.82,3.92,1.68
,-7.468,-1.271,-6.372,-7.562,-1.067,-6.492,0.98,3.57,2.17
,-7.217,-1.462,-6.387,-7.492,-1.117,-6.43,1.54,3.01,2.94
,-7.219,-1.424,-6.466,-7.535,-0.943,-6.545,2.1,3.22,2.87
32104.0,-7.722,-0.921,-6.691,-7.322,-0.598,-6.664,0.91,5.67,1.89
,-7.94,-0.916,-6.717,-7.246,-0.558,-6.837,-0.07,6.23,2.03
,-8.143,-0.888,-6.691,-7.452,-0.581,-6.75,-0.77,6.23,1.82
,-7.83,-0.704,-6.597,-7.569,-0.572,-6.796,-1.54,4.9,1.19
32180.0,-7.674,-0.68,-6.961,-7.519,-0.833,-6.798,-7.98,4.2,-2.31
,-7.842,-0.936,-6.734,-7.643,-0.914,-6.767,-8.89,3.5,-2.17
,-7.691,-0.864,-6.65,-7.691,-0.864,-6.614,-8.54,2.52,-1.82
,-7.547,-0.845,-6.671,-7.679,-0.957,-6.616,-8.54,1.12,-1.96
32255.0,-7.54,-1.192,-6.588,-7.554,-1.737,-6.466,-6.93,-1.05,-2.66
,-7.595,-1.137,-6.6,-7.061,-1.565,-6.312,-4.13,-1.26,-2.17
,-7.669,-1.151,-6.633,-6.717,-1.457,-6.504,-3.08,-0.7,-0.77
,-7.928,-1.768,-6.329,-7.404,-1.254,-6.478,-4.2,-1.47,-1.12
32331.0,-7.834,-1.479,-6.348,-7.684,-0.637,-6.724,1.19,-5.53,-2.17
,-7.758,-1.565,-6.265,-8.131,-0.73,-6.382,1.4,-5.6,-1.12
,-7.71,-1.424,-6.506,-7.983,-0.761,-6.183,3.15,-5.32,0.98
,-7.59,-1.046,-6.731,-6.798,-0.926,-6.1,7.35,-4.97,2.17
32407.0,-7.207,-0.29,-6.442,-8.215,-0.67,-5.851,6.23,-10.01,0.49
,-7.614,-0.416,-6.214,-7.942,-0.744,-5.817,5.18,-8.89,-0.21
,-7.901,-0.842,-6.131,-7.258,-0.711,-5.274,4.97,-8.47,-1.4
,-7.889,-0.847,-5.882,-7.803,-1.065,-5.839,5.95,-7.91,-2.38
32483.0,-8.1,-1.639,-5.843,-7.298,-1.242,-6.033,6.65,-1.89,2.87
,-7.461,-2.694,-5.202,-7.416,-1.043,-6.147,7.21,-3.92,3.5
,-7.667,-1.335,-6.047,-7.842,-0.895,-6.205,12.25,-4.55,5.95
,-7.516,-1.479,-5.934,-7.983,-1.005,-6.188,11.41,-5.32,5.46
32559.0,-7.784,-1.077,-6.104,-7.918,-0.531,-5.781,7.07,-8.68,3.29
,-7.454,-0.759,-6.183,-7.937,-0.306,-5.832,7.07,-8.4,3.36
,-7.777,-0.653,-6.107,-7.959,-0.364,-5.985,7.14,-7.42,3.29
,-7.904,-0.574,-5.92,-8.378,-1.082,-5.631,6.51,-8.05,0.77
32634.0,-8.32,0.771,-6.602,-7.593,-1.07,-5.946,14.98,-6.86,-2.87
,-8.382,-0.67,-5.549,-7.832,-1.307,-5.946,2.66,-6.72,-0.77
,-8.102,-0.759,-6.078,-7.877,-1.531,-5.901,0.35,-7.56,-0.84
,-7.794,-0.967,-5.774,-7.837,-1.608,-5.908,-0.35,-7.35,-1.05
32710.0,-7.791,-1.764,-5.97,-7.638,-1.424,-6.231,1.96,-4.69,0.7
,-7.968,-1.618,-6.09,-7.55,-1.165,-6.135,2.31,-4.13,2.03
,-8.124,-1.529,-6.183,-7.688,-1.295,-6.15,1.54,-4.76,1.96
,-7.93,-1.479,-6.238,-7.906,-1.072,-6.181,1.12,-6.16,1.54
32785.0,-8.126,-0.787,-6.135,-8.019,-0.964,-5.901,2.73,-7.84,2.1
,-8.138,-0.797,-5.791,-8.086,-1.022,-5.858,2.94,-8.89,2.03
,-7.976,-0.615,-6.1,-8.122,-1.117,-5.956,2.1,-9.52,2.03
,-8.038,-0.806,-5.891,-7.964,-1.0,-5.903,0.28,-10.15,1.68
32861.0,-7.983,-0.854,-5.803,-8.055,-0.711,-5.619,2.1,-13.44,0.21
,-8.11,-0.72,-5.87,-7.99,-0.969,-5.303,1.61,-13.93,-0.35
,-8.119,-0.653,-5.774,-8.193,-1.077,-5.209,0.35,-14.49,-1.54
,-7.999,-0.615,-5.757,-8.351,-1.378,-4.922,-1.05,-14.77,-2.87
32937.0,-8.378,-1.646,-4.972,-8.11,-0.909,-5.353,-4.41,-15.4,-6.37
,-8.425,-1.304,-4.999,-8.21,-1.041,-5.152,-3.29,-15.26,-4.83
,-8.145,-1.017,-5.267,-8.334,-1.048,-5.054,-2.03,-15.19,-4.13
,-8.119,-0.921,-5.398,-8.356,-1.278,-4.951,-2.03,-15.33,-4.27
33013.0,-8.289,-1.369,-4.728,-8.21,-1.271,-5.152,-3.78,-15.05,-3.85
,-8.222,-1.462,-4.886,-8.368,-0.926,-5.207,-3.08,-14.98,-3.64
,-8.229,-1.448,-4.91,-8.538,-1.0,-5.233,-2.31,-15.05,-2.87
,-8.093,-1.383,-5.15,-8.679,-0.505,-5.233,-1.47,-14.77,-2.24
33088.0,-8.579,-0.589,-5.166,-8.416,-1.429,-4.958,-1.05,-14.77,-2.52
,-8.464,-0.668,-5.236,-8.504,-1.409,-4.836,-3.01,-15.61,-3.08
,-8.227,-0.878,-5.36,-8.536,-1.424,-4.748,-4.48,-16.38,-3.99
,-8.193,-1.223,-5.126,-8.641,-1.129,-5.116,-4.62,-16.31,-3.99
33164.0,-8.471,-1.125,-4.654,-8.375,-1.046,-4.776,0.0,-16.17,-2.1
,-8.545,-1.098,-4.882,-8.368,-1.297,-4.415,-0.28,-16.24,-2.31
,-8.524,-1.208,-4.934,-8.545,-1.251,-4.173,0.0,-16.45,-2.45
,-8.504,-0.991,-5.097,-8.787,-1.23,-4.118,0.91,-16.66,-2.59
33240.0,-8.868,-1.115,-4.259,-8.478,-1.419,-4.745,4.06,-13.65,-2.45
,-8.758,-0.876,-4.506,-8.026,-2.132,-5.317,3.43,-13.58,-2.38
,-8.737,-0.933,-4.42,-8.67,-2.13,-4.96,1.54,-13.72,-1.96
,-8.715,-1.07,-4.525,-8.402,-2.199,-4.81,0.28,-13.72,-1.61
33316.0,-8.49,-2.087,-4.58,-8.82,-0.213,-4.925,12.18,-12.11,4.62
,-8.665,-1.845,-4.408,-8.847,-0.043,-4.86,16.8,-11.27,5.95
,-8.801,-1.153,-4.685,-8.808,0.328,-4.35,20.37,-10.99,5.95
,-8.784,-0.663,-4.812,-8.935,0.036,-3.972,21.91,-11.13,4.76
33391.0,-9.05,-0.299,-4.097,-8.842,-1.555,-3.872,-1.05,-13.72,-7.28
,-8.988,-0.601,-3.924,-8.725,-1.788,-3.879,-5.32,-14.28,-8.47
,-8.926,-1.05,-3.637,-8.739,-1.512,-3.987,-10.22,-14.49,-9.24
,-8.863,-1.366,-3.585,-8.897,-1.613,-3.798,-12.67,-13.93,-9.45
33467.0,-9.002,-1.584,-3.85,-8.914,-1.713,-3.51,-12.53,-10.85,-6.86
,-8.969,-1.682,-3.592,-8.952,-1.795,-3.314,-11.83,-9.66,-5.67
,-8.914,-1.591,-3.711,-9.04,-1.572,-3.271,-11.34,-8.61,-4.69
,-8.878,-1.613,-3.68,-9.158,-1.206,-3.74,-11.27,-8.05,-3.99
33543.0,-9.048,-1.041,-3.881,-8.935,-1.967,-3.307,-3.71,-3.92,-1.12
,-8.89,-1.22,-4.025,-9.088,-1.991,-2.946,-5.95,-3.85,-1.54
,-8.737,-1.512,-3.905,-9.16,-1.737,-3.118,-7.14,-3.15,-1.75
,-8.768,-1.797,-3.577,-9.222,-1.278,-3.297,-6.72,-1.82,-1.47
33618.0,-9.074,-0.897,-3.396,-8.914,-1.103,-4.063,-0.21,3.71,1.19
,-9.057,-0.936,-3.774,-9.021,-1.12,-4.101,-1.75,4.13,1.05
,-9.043,-0.9,-4.034,-8.997,-1.0,-4.183,-2.45,4.2,0.84
,-8.906,-0.933,-4.08,-9.021,-0.782,-4.398,-3.5,4.34,0.91
33694.0,-8.973,-0.818,-4.551,-8.804,-1.192,-4.515,-1.82,4.13,0.21
,-8.784,-0.866,-4.611,-8.94,-1.091,-4.288,-2.52,3.64,-0.21
,-8.574,-1.117,-4.666,-9.072,-1.05,-4.31,-2.73,3.57,-0.35
,-8.66,-1.225,-4.535,-8.966,-1.184,-4.066,-1.75,3.78,-0.49
33770.0,-8.839,-1.395,-3.814,-9.043,-1.161,-4.075,-0.28,3.5,-0.07
,-8.878,-1.579,-3.58,-8.99,-0.981,-4.307,0.28,4.13,0.42
,-8.94,-1.878,-3.719,-8.83,-0.782,-4.575,1.33,4.9,0.7
,-8.976,-1.639,-3.683,-8.751,-0.785,-4.654,3.43,5.46,1.19
33846.0,-8.67,-0.847,-4.786,-8.916,-1.357,-4.111,0.35,4.62,0.63
,-8.739,-0.897,-4.74,-8.926,-1.486,-4.001,0.21,4.27,0.42
,-8.787,-0.964,-4.623,-8.957,-1.457,-3.877,0.14,3.92,0.07
,-8.89,-1.137,-4.429,-8.959,-1.452,-4.08,-0.07,3.5,-0.14
33921.0,-8.835,-1.469,-4.015,-8.938,-1.177,-4.14,1.12,4.62,0.07
,-8.794,-1.347,-3.946,-8.899,-1.165,-4.326,1.68,4.97,0.56
,-8.847,-1.273,-3.996,-8.837,-1.206,-4.413,2.38,5.67,0.77
,-8.871,-1.318,-4.164,-8.732,-1.103,-4.597,2.73,5.6,0.7
33997.0,-8.689,-0.993,-4.767,-8.897,-1.129,-4.513,2.38,4.9,0.7
,-8.612,-1.055,-4.781,-8.942,-1.18,-4.379,1.68,4.48,0.56
,-8.684,-1.149,-4.661,-8.911,-1.094,-4.408,1.47,4.48,0.7
,-8.768,-1.062,-4.63,-8.904,-1.079,-4.482,1.96,4.48,0.77
34073.0,-8.82,-1.12,-4.58,-8.859,-1.156,-4.219,0.98,2.94,0.56
,-8.693,-1.223,-4.602,-8.938,-1.161,-4.106,0.91,2.66,0.42
,-8.696,-1.216,-4.501,-8.978,-1.156,-4.063,1.26,2.59,0.28
,-8.832,-1.139,-4.381,-8.868,-1.17,-4.011,1.68,2.66,0.28
34149.0,-8.806,-1.141,-4.058,-8.83,-1.244,-4.487,0.28,3.43,0.14
,-8.854,-1.364,-4.156,-8.756,-1.235,-4.453,0.0,3.92,0.0
,-8.772,-1.316,-4.329,-8.763,-1.201,-4.444,0.49,4.2,0.14
,-8.763,-1.29,-4.329,-8.768,-1.156,-4.556,0.91,4.48,0.28
34224.0,-8.851,-1.017,-4.659,-8.684,-1.175,-4.602,2.03,4.2,0.42
,-8.775,-1.086,-4.697,-8.804,-1.189,-4.501,1.68,3.78,0.42
,-8.741,-1.139,-4.736,-8.859,-1.132,-4.549,1.47,3.5,0.63
,-8.634,-1.089,-4.692,-8.801,-1.115,-4.561,1.75,3.15,0.7
34300.0,-8.777,-1.261,-4.525,-8.701,-1.206,-4.561,1.47,2.38,0.21
,-8.715,-1.309,-4.511,-8.775,-1.094,-4.578,1.75,2.17,0.35
,-8.753,-1.208,-4.647,-8.859,-0.988,-4.578,2.38,2.24,0.42
,-8.739,-1.242,-4.666,-8.885,-0.983,-4.513,2.38,2.24,0.56
34375.0,-8.897,-0.962,-4.477,-8.772,-1.299,-4.47,0.35,1.26,0.14
,-8.806,-1.055,-4.537,-8.77,-1.218,-4.465,-0.63,1.26,-0.21
,-8.744,-1.165,-4.511,-8.76,-1.283,-4.393,-1.12,0.98,-0.28
,-8.715,-1.266,-4.508,-8.835,-1.23,-4.367,-0.77,0.98,-0.14
34451.0,-8.861,-1.134,-4.391,-8.796,-1.034,-4.439,2.03,1.47,0.28
,-8.82,-1.113,-4.372,-8.768,-1.175,-4.427,2.03,1.26,0.21
,-8.827,-1.122,-4.365,-8.744,-1.33,-4.331,2.24,1.4,0.35
,-8.832,-1.027,-4.429,-8.813,-1.275,-4.365,2.8,1.54,0.42
34527.0,-8.818,-1.204,-4.408,-8.708,-1.027,-4.549,4.69,1.96,0.77
,-8.784,-1.117,-4.417,-8.734,-1.046,-4.535,4.55,1.82,0.7
,-8.849,-1.074,-4.563,-8.784,-1.067,-4.429,4.13,1.89,0.7
,-8.772,-1.06,-4.558,-8.82,-1.117,-4.42,4.13,1.89,0.7
34603.0,-8.811,-1.196,-4.283,-8.78,-1.182,-4.245,2.59,1.47,0.0
,-8.787,-1.29,-4.262,-8.878,-1.156,-4.262,2.45,1.96,0.0
,-8.916,-1.251,-4.228,-8.789,-1.127,-4.386,2.66,2.31,0.0
,-8.866,-1.199,-4.082,-8.806,-1.196,-4.611,2.87,2.45,0.14
34679.0,-8.677,-1.268,-4.654,-8.775,-1.175,-4.475,1.89,2.59,0.14
,-8.591,-1.371,-4.642,-8.72,-1.285,-4.575,2.59,2.59,0.28
,-8.701,-1.302,-4.661,-8.71,-1.199,-4.451,3.64,2.52,0.49
,-8.758,-1.225,-4.599,-8.777,-1.149,-4.609,4.2,2.31,0.49
34754.0,-8.808,-1.168,-4.625,-8.746,-1.259,-4.307,4.34,1.96,0.84
,-8.67,-1.184,-4.614,-8.82,-1.259,-4.317,3.99,1.75,0.7
,-8.753,-1.187,-4.558,-8.839,-1.187,-4.286,3.92,1.54,0.63
,-8.741,-1.153,-4.52,-8.804,-1.122,-4.343,3.78,1.61,0.56
34830.0,-8.732,-1.278,-4.341,-8.82,-1.318,-4.099,3.08,2.03,0.91
,-8.725,-1.307,-4.302,-8.892,-1.184,-4.164,3.29,2.24,1.05
,-8.703,-1.259,-4.262,-8.966,-1.129,-4.243,3.64,2.59,1.12
,-8.751,-1.34,-4.111,-8.823,-1.259,-4.396,3.92,3.01,1.19
34906.0,-8.725,-1.405,-4.664,-8.72,-1.173,-4.934,2.87,3.99,1.47
,-8.583,-1.481,-4.654,-8.715,-0.979,-4.977,3.36,3.92,1.89
,-8.583,-1.464,-4.759,-8.684,-0.916,-4.882,4.27,4.13,1.89
,-8.636,-1.412,-4.882,-8.691,-0.9,-4.824,5.6,4.06,1.89
34982.0,-8.648,-1.129,-4.458,-8.983,-1.141,-3.589,3.78,1.68,0.98
,-8.693,-1.206,-4.149,-9.002,-1.046,-3.676,3.08,2.1,0.42
,-8.727,-1.223,-3.79,-8.899,-1.07,-3.656,2.1,2.52,-0.35
,-8.89,-1.189,-3.752,-8.789,-1.228,-3.69,1.61,3.15,-0.91
35057.0,-8.722,-1.438,-3.743,-8.533,-1.481,-5.3,-1.33,7.21,0.14
,-8.71,-1.543,-4.166,-8.358,-1.409,-5.291,0.7,8.26,0.91
,-8.662,-1.5,-4.59,-8.399,-1.452,-4.922,3.57,8.75,2.03
,-8.648,-1.45,-5.078,-8.562,-1.409,-4.532,6.44,8.4,2.8
35133.0,-8.89,-1.371,-4.393,-8.334,-1.572,-4.774,11.97,8.47,3.5
,-9.033,-1.058,-4.865,-8.409,-2.127,-4.795,11.55,7.77,2.24
,-8.851,-0.972,-4.951,-8.449,-2.556,-4.707,9.24,6.58,1.33
,-8.471,-1.158,-5.001,-8.323,-2.74,-4.558,6.16,5.81,1.33
35208.0,-8.296,-2.637,-4.264,-8.99,-0.043,-3.412,13.37,7.91,10.71
,-8.545,-1.981,-4.334,-9.141,-0.031,-3.549,18.06,9.1,12.67
,-8.713,-1.165,-4.116,-9.148,-0.091,-4.288,20.72,10.01,13.02
,-8.894,-0.311,-3.817,-8.957,0.024,-4.901,19.53,11.06,11.97
35284.0,-8.835,0.079,-5.587,-8.564,-1.333,-3.853,-5.39,9.45,0.28
,-8.507,-0.273,-5.693,-9.119,-1.216,-3.695,-8.82,7.98,-1.68
,-8.356,-0.744,-5.195,-9.22,-0.794,-4.202,-10.57,7.84,-2.66
,-8.43,-1.247,-4.7,-8.727,-0.558,-4.341,-9.03,8.54,-4.27
35360.0,-8.588,-1.048,-4.396,-8.607,-1.452,-4.654,-6.72,10.36,-5.88
,-8.378,-1.965,-4.125,-8.452,-1.048,-4.908,-8.4,11.2,-3.85
,-8.246,-2.127,-4.006,-8.244,-0.584,-5.592,-5.6,13.23,-1.33
,-8.416,-2.087,-4.027,-8.145,-1.048,-5.343,-0.56,15.19,0.35
35436.0,-8.576,-1.204,-4.987,-8.22,-0.67,-5.681,2.38,15.47,3.71
,-8.969,-1.184,-5.183,-8.397,-0.727,-5.422,1.12,15.68,4.41
,-8.413,-1.125,-4.972,-8.325,-1.326,-4.709,-0.28,14.84,4.9
,-8.251,-0.754,-5.564,-8.361,-1.541,-4.465,-0.91,13.37,3.08
35511.0,-8.413,-0.955,-5.001,-8.193,-2.352,-5.53,-4.06,10.5,-5.18
,-8.258,-0.914,-5.678,-8.296,-2.759,-5.264,-2.17,8.68,-4.97
,-8.167,-1.271,-5.848,-8.399,-2.443,-5.358,-1.26,7.63,-2.31
,-8.311,-1.594,-5.863,-8.1,-1.831,-5.851,-1.26,7.91,1.33
35587.0,-8.165,-1.18,-6.061,-8.342,-0.443,-5.066,16.1,5.11,9.03
,-8.177,-0.742,-6.164,-8.318,-0.629,-4.848,14.49,3.15,7.98
,-8.174,-0.378,-6.001,-8.533,-1.077,-4.649,11.34,3.57,7.84
,-8.334,-0.163,-5.315,-8.258,-1.304,-4.898,7.21,4.76,6.23
35663.0,-8.536,-1.843,-4.712,-7.897,-1.476,-4.137,1.68,6.58,4.69
,-8.882,-1.907,-4.381,-8.095,-0.759,-4.58,3.08,7.42,7.77
,-8.437,-1.795,-4.319,-8.452,-0.392,-4.745,8.05,7.35,7.98
,-7.921,-1.584,-4.156,-8.646,0.199,-5.095,11.27,8.4,8.61
35739.0,-8.739,0.357,-5.092,-8.217,-1.747,-4.496,10.64,12.46,3.64
,-8.65,0.062,-5.083,-8.04,-1.855,-4.69,6.58,13.3,2.03
,-8.327,-0.503,-4.721,-8.007,-1.917,-4.568,3.08,14.21,1.47
,-8.26,-0.986,-4.86,-8.004,-1.764,-4.932,3.01,14.84,0.7
35815.0,-8.1,-1.45,-5.331,-7.999,-0.182,-5.855,14.21,18.97,2.24
,-8.378,-0.842,-5.599,-8.165,-1.335,-5.58,15.05,19.11,1.47
,-8.308,-0.424,-5.65,-7.932,-2.113,-5.449,14.7,18.48,0.35
,-7.923,-0.084,-5.508,-7.691,-2.625,-5.31,11.83,17.78,0.14
35890.0,-7.413,-2.912,-5.384,-8.342,-1.113,-5.939,6.93,18.69,1.61
,-7.885,-2.62,-5.207,-8.047,-0.211,-6.162,9.94,19.81,2.94
,-7.87,-2.235,-5.599,-7.471,-0.108,-6.241,12.6,20.37,4.34
,-8.031,-1.742,-5.867,-7.662,-0.342,-6.255,14.7,19.95,4.55
35966.0,-7.679,-0.675,-6.202,-8.038,-0.622,-6.066,2.52,17.08,-0.14
,-8.433,-1.084,-5.674,-7.875,-0.924,-5.942,1.05,18.83,-0.21
,-8.844,-1.405,-5.573,-8.043,-0.397,-5.944,2.31,18.9,1.68
,-8.667,-0.955,-5.604,-7.837,-0.156,-6.298,5.95,17.29,3.64
36041.0,-7.923,-0.141,-6.482,-7.93,-0.613,-6.569,5.11,11.06,-0.84
,-7.779,-0.079,-6.657,-7.609,-0.828,-6.738,4.27,10.08,-1.05
,-8.397,0.179,-6.813,-7.856,-1.05,-6.128,2.8,9.24,-2.17
,-7.904,-0.414,-6.772,-7.753,-1.086,-6.504,2.03,8.54,-2.87
36117.0,-7.688,-1.479,-6.114,-7.691,-3.08,-6.513,3.71,6.02,-3.01
,-7.547,-1.878,-6.286,-7.586,-3.3,-6.061,3.64,4.27,-2.87
,-7.535,-2.022,-6.056,-7.684,-3.206,-6.059,4.62,2.8,-2.24
,-7.148,-2.225,-6.822,-7.466,-2.927,-6.37,6.72,4.2,0.7
36193.0,-7.401,-2.34,-6.437,-7.789,-1.517,-6.99,9.87,6.86,9.1
,-7.217,-1.859,-6.612,-7.81,-1.905,-6.303,9.94,5.04,8.68
,-7.504,-1.761,-6.76,-7.763,-1.855,-5.882,9.8,7.49,11.27
,-7.753,-1.91,-6.525,-7.423,-0.828,-6.509,7.98,7.28,12.6
36269.0,-7.523,-0.507,-6.171,-8.102,0.419,-6.851,12.95,5.18,14.42
,-7.562,-0.177,-6.363,-7.779,0.536,-6.937,13.3,4.55,12.18
,-7.669,-0.187,-6.53,-7.729,0.199,-6.628,12.88,4.06,10.29
,-8.038,-0.194,-6.198,-7.767,-1.364,-5.425,9.45,5.46,8.89
36344.0,-7.351,-0.713,-6.643,-7.511,-2.0,-6.202,0.91,3.78,1.4
,-7.624,-0.895,-6.655,-7.485,-2.534,-5.915,2.31,3.57,0.14
,-7.66,-1.048,-6.518,-7.715,-1.299,-6.545,-0.14,4.48,0.21
,-7.578,-1.113,-6.856,-7.736,-1.249,-6.186,-1.47,4.55,0.35
36420.0,-7.602,-1.132,-6.162,-7.772,-0.787,-6.415,3.5,3.43,0.63
,-7.504,-0.847,-6.322,-7.703,-0.821,-6.442,2.8,3.36,0.77
,-7.653,-0.907,-6.25,-7.492,-0.828,-6.219,2.31,4.13,1.05
,-7.803,-0.768,-6.427,-7.473,-0.945,-6.272,2.73,4.06,0.84
36495.0,-7.669,-1.134,-6.336,-7.574,-1.993,-6.157,1.61,4.55,-1.61
,-7.834,-1.206,-6.298,-7.37,-1.799,-6.36,1.47,4.76,-0.98
,-7.861,-1.39,-6.504,-6.856,-0.715,-7.227,1.96,3.85,-0.28
,-8.004,-1.878,-6.588,-7.2,-1.866,-6.054,3.64,3.85,1.19
36571.0,-7.705,-1.242,-6.714,-7.138,-1.311,-6.324,4.06,3.92,1.4
,-7.995,-1.314,-6.437,-7.466,-0.974,-6.456,4.41,4.06,1.4
,-7.724,-1.106,-6.312,-7.904,-1.62,-5.98,3.85,2.59,1.4
,-7.279,-1.173,-6.346,-7.923,-0.838,-6.528,2.87,1.82,1.68
36647.0,-7.748,-1.232,-6.207,-7.818,-0.888,-6.403,3.43,2.17,2.31
,-7.399,-1.311,-6.073,-7.894,-0.845,-6.542,3.71,2.1,2.38
,-7.325,-1.108,-6.176,-7.954,-1.194,-6.578,4.13,1.96,2.38
,-7.523,-1.259,-6.26,-7.578,-1.512,-6.289,3.64,2.45,2.38
36723.0,-7.148,-1.486,-6.135,-7.772,-1.175,-6.403,2.59,1.33,1.75
,-7.109,-1.795,-6.178,-7.463,-1.015,-6.463,2.73,2.31,1.89
,-7.708,-1.548,-6.301,-7.425,-0.936,-6.439,3.5,3.5,1.61
,-8.057,-1.218,-6.43,-7.358,-0.847,-6.504,3.99,3.57,2.03
36799.0,-7.473,-0.952,-6.655,-7.423,-1.211,-6.207,2.1,3.5,1.61
,-7.765,-1.295,-6.597,-7.363,-1.146,-6.157,1.68,3.64,1.47
,-7.633,-1.395,-6.425,-7.392,-1.024,-6.207,1.75,3.43,1.89
,-7.483,-1.414,-6.248,-7.619,-0.878,-6.47,2.38,3.99,2.8
36874.0,-7.846,-0.974,-6.487,-7.318,-0.811,-6.693,0.7,6.58,1.61
,-7.775,-0.816,-6.597,-7.428,-0.704,-6.901,0.07,6.02,1.05
,-7.71,-0.878,-6.588,-7.664,-0.78,-6.825,-0.91,5.67,0.84
,-7.475,-1.022,-6.542,-7.581,-1.218,-6.652,-1.96,5.18,0.49
36950.0,-7.475,-1.163,-6.65,-7.827,-1.041,-6.882,-5.74,6.3,-0.77
,-7.406,-0.83,-6.872,-7.676,-1.129,-6.844,-5.25,6.23,-1.05
,-7.586,-0.981,-6.944,-7.413,-1.137,-6.705,-6.3,6.37,-1.61
,-7.753,-1.0,-6.858,-7.088,-1.003,-6.793,-6.65,6.09,-1.61
37026.0,-7.234,-1.029,-6.947,-7.952,-1.228,-6.724,-8.12,2.1,-1.54
,-7.473,-0.952,-6.901,-7.858,-1.027,-6.705,-8.47,1.75,-1.82
,-7.727,-0.897,-6.853,-7.655,-0.986,-6.545,-8.61,0.7,-2.03
,-7.854,-1.127,-6.738,-7.552,-1.036,-6.576,-9.31,0.0,-2.31
37102.0,-7.301,-1.149,-6.621,-7.557,-1.675,-6.456,-4.34,-5.53,-1.19
,-7.298,-1.127,-6.7,-7.416,-1.438,-6.564,-2.38,-5.88,-1.75
,-7.459,-1.299,-6.774,-7.621,-1.441,-6.406,-1.68,-5.95,-2.52
,-7.696,-1.591,-6.533,-7.684,-1.103,-6.43,-0.77,-6.44,-2.52
37177.0,-7.806,-0.969,-6.609,-7.432,-1.029,-6.341,6.79,-8.82,-1.19
,-7.681,-1.385,-6.174,-7.418,-1.012,-6.454,6.3,-8.19,-1.47
,-7.217,-1.637,-7.325,-7.648,-0.936,-6.336,25.55,-9.24,-8.4
,-7.667,-0.055,-6.987,-8.117,-1.055,-6.368,17.78,-9.8,-2.87
37253.0,-8.155,-0.658,-6.442,-7.408,-1.206,-6.298,9.38,-12.53,-0.98
,-7.669,-0.902,-6.394,-7.961,-1.316,-6.198,8.26,-14.91,-2.66
,-7.691,-0.876,-6.521,-7.959,-1.409,-6.071,8.19,-14.98,-1.68
,-6.712,-1.156,-5.597,-7.779,-1.11,-6.21,8.19,-15.89,-1.89
37328.0,-7.932,-1.292,-6.049,-8.098,-0.888,-5.848,8.47,-13.58,3.64
,-7.741,-0.995,-6.011,-8.358,-1.086,-5.855,8.82,-13.58,5.11
,-7.617,-0.739,-6.042,-8.315,-1.12,-6.03,7.77,-13.86,4.69
,-8.031,-0.766,-5.891,-7.686,-0.96,-5.963,6.37,-13.09,4.9
37404.0,-7.337,-0.759,-5.954,-7.875,-0.55,-5.81,6.09,-15.89,3.01
,-7.459,-0.861,-5.944,-7.894,-0.933,-5.817,6.02,-14.77,1.89
,-8.045,-0.768,-5.843,-7.971,-0.799,-5.738,5.81,-13.72,2.31
,-8.064,-0.617,-5.822,-8.126,-1.019,-5.879,5.6,-12.81,3.71
37480.0,-7.832,-1.017,-5.76,-8.313,-1.646,-5.753,5.04,-10.08,1.26
,-7.813,-1.036,-5.628,-7.949,-1.816,-5.597,4.76,-10.22,1.26
,-7.954,-1.251,-5.745,-7.803,-1.637,-5.654,3.78,-10.36,0.91
,-8.241,-1.603,-5.647,-7.906,-1.464,-5.729,3.01,-11.06,0.35
37556.0,-7.813,-1.314,-5.619,-8.425,-0.957,-5.319,5.53,-15.61,2.24
,-8.153,-1.194,-6.056,-8.299,-0.96,-5.19,5.74,-16.17,2.1
,-8.105,-0.967,-5.688,-8.356,-0.876,-5.269,5.46,-17.15,1.4
,-8.169,-0.948,-5.595,-8.38,-0.964,-5.056,4.76,-17.71,0.28
37631.0,-8.234,-0.818,-5.157,-8.524,-0.778,-5.037,3.92,-19.25,-0.49
,-8.37,-0.538,-5.116,-8.464,-0.878,-4.958,3.99,-19.53,-1.96
,-8.502,-0.44,-4.951,-8.265,-1.194,-4.829,2.73,-19.81,-3.15
,-8.543,-0.608,-4.972,-8.007,-1.673,-4.704,0.84,-20.37,-5.04
37707.0,-8.064,-1.642,-4.563,-8.717,-1.283,-4.499,-3.01,-20.65,-7.0
,-8.363,-1.474,-4.659,-8.643,-1.661,-4.269,-0.7,-19.88,-6.86
,-8.545,-1.292,-4.621,-8.464,-1.108,-4.436,-0.84,-20.02,-6.51
,-8.696,-1.321,-4.367,-8.521,-1.156,-4.539,-2.73,-20.09,-5.74
37783.0,-8.576,-1.141,-4.463,-8.509,-1.307,-4.099,-3.22,-19.39,-5.88
,-8.729,-1.24,-4.255,-8.547,-1.503,-3.941,-4.13,-18.97,-5.25
,-8.653,-0.986,-4.293,-8.727,-1.517,-4.123,-4.06,-18.55,-4.9
,-8.722,-1.249,-4.183,-8.748,-1.295,-4.422,-5.39,-18.83,-4.62
37859.0,-8.705,-1.216,-4.271,-8.756,-1.156,-4.87,-1.33,-16.66,-4.34
