Timestamp,AccX,AccY,AccZ,GyroX,GyroY,GyroZ,MagnX,MagnY,MagnZ
0.0,-9.658,-0.526,-2.259,-9.667,-0.476,-2.223,2.24,1.19,0.56
,-9.648,-0.548,-2.168,-9.643,-0.56,-2.223,2.38,1.33,0.7
,-9.634,-0.579,-2.204,-9.648,-0.503,-2.173,2.31,1.47,0.77
,-9.663,-0.541,-2.206,-9.655,-0.543,-2.225,2.38,1.47,0.77
76.0,-9.675,-0.493,-2.192,-9.665,-0.541,-2.271,2.38,1.47,0.7
,-9.679,-0.491,-2.228,-9.627,-0.55,-2.266,2.17,1.54,0.7
,-9.67,-0.574,-2.233,-9.629,-0.598,-2.261,2.1,1.61,0.7
,-9.643,-0.534,-2.252,-9.675,-0.596,-2.266,2.31,1.47,0.7
152.0,-9.636,-0.526,-2.247,-9.641,-0.534,-2.166,2.94,1.19,0.84
,-9.624,-0.514,-2.213,-9.634,-0.522,-2.216,2.73,1.26,0.77
,-9.694,-0.495,-2.197,-9.667,-0.51,-2.204,2.31,1.33,0.77
,-9.677,-0.526,-2.228,-9.67,-0.522,-2.247,2.03,1.19,0.63
227.0,-9.651,-0.555,-2.233,-9.634,-0.522,-2.223,2.1,1.26,0.77
,-9.672,-0.548,-2.242,-9.66,-0.514,-2.192,2.31,1.19,0.7
,-9.696,-0.51,-2.247,-9.598,-0.498,-2.156,2.52,1.12,0.77
,-9.61,-0.555,-2.252,-9.679,-0.534,-2.206,2.59,1.12,0.84
302.0,-9.655,-0.534,-2.221,-9.663,-0.579,-2.139,2.87,1.05,0.63
,-9.636,-0.51,-2.173,-9.655,-0.543,-2.206,3.29,1.33,0.7
,-9.682,-0.498,-2.218,-9.622,-0.488,-2.158,3.29,1.26,0.7
,-9.624,-0.498,-2.199,-9.636,-0.447,-2.154,2.87,1.19,0.63
378.0,-9.694,-0.505,-2.139,-9.643,-0.526,-2.302,1.89,1.4,0.56
,-9.677,-0.555,-2.166,-9.641,-0.524,-2.304,1.89,1.47,0.42
,-9.641,-0.558,-2.201,-9.639,-0.555,-2.29,1.61,1.4,0.56
,-9.66,-0.541,-2.29,-9.653,-0.541,-2.309,1.96,1.4,0.56
454.0,-9.679,-0.56,-2.304,-9.658,-0.531,-2.185,2.24,1.05,0.56
,-9.691,-0.514,-2.235,-9.696,-0.469,-2.175,2.38,1.05,0.56
,-9.66,-0.558,-2.225,-9.663,-0.546,-2.144,2.59,0.91,0.56
,-9.646,-0.534,-2.194,-9.67,-0.512,-2.156,2.87,0.98,0.49
530.0,-9.682,-0.567,-2.139,-9.629,-0.522,-2.17,2.73,1.05,0.49
,-9.682,-0.531,-2.149,-9.691,-0.553,-2.156,2.73,1.12,0.42
,-9.631,-0.531,-2.209,-9.708,-0.522,-2.13,2.73,1.26,0.42
,-9.66,-0.524,-2.12,-9.648,-0.524,-2.192,2.59,1.26,0.42
605.0,-9.701,-0.553,-2.185,-9.636,-0.503,-2.175,2.59,1.26,0.63
,-9.622,-0.555,-2.242,-9.708,-0.517,-2.19,2.52,1.33,0.63
,-9.696,-0.543,-2.235,-9.658,-0.548,-2.223,2.59,1.33,0.63
,-9.66,-0.584,-2.24,-9.67,-0.522,-2.166,2.8,1.26,0.63
681.0,-9.663,-0.514,-2.206,-9.703,-0.562,-2.151,3.01,1.05,0.56
,-9.672,-0.476,-2.235,-9.651,-0.548,-2.17,2.87,0.91,0.63
,-9.636,-0.522,-2.182,-9.639,-0.514,-2.17,2.73,1.05,0.56
,-9.667,-0.546,-2.187,-9.655,-0.514,-2.118,2.73,1.05,0.56
757.0,-9.672,-0.56,-2.173,-9.636,-0.548,-2.139,2.24,1.19,0.56
,-9.624,-0.51,-2.115,-9.672,-0.565,-2.194,2.59,1.33,0.56
,-9.663,-0.486,-2.113,-9.639,-0.534,-2.206,2.52,1.33,0.49
,-9.651,-0.459,-2.082,-9.636,-0.553,-2.218,1.96,1.33,0.35
833.0,-9.639,-0.474,-2.091,-9.696,-0.56,-2.058,1.75,1.61,0.42
,-9.684,-0.555,-2.185,-9.67,-0.682,-2.087,1.47,1.33,0.28
,-9.658,-0.44,-2.144,-9.612,-0.459,-2.022,1.12,1.33,0.35
,-9.667,-0.567,-2.032,-9.686,-0.443,-2.094,0.14,1.47,0.21
909.0,-9.677,-0.519,-2.008,-9.701,-0.656,-1.998,0.14,1.96,0.07
,-9.677,-0.546,-1.929,-9.612,-0.641,-2.015,0.0,2.38,0.21
,-9.665,-0.524,-1.85,-9.588,-0.625,-1.989,0.14,2.52,0.14
,-9.696,-0.55,-2.048,-9.631,-0.584,-1.972,0.0,2.94,0.14
984.0,-9.624,-0.481,-1.905,-9.648,-0.627,-1.895,1.33,4.62,0.77
,-9.648,-0.39,-1.878,-9.574,-0.663,-1.888,0.14,4.9,0.63
,-9.686,-0.51,-1.89,-9.605,-0.553,-1.864,-1.12,5.25,0.49
,-9.689,-0.61,-1.936,-9.636,-0.457,-1.876,-1.47,5.46,0.56
1060.0,-9.641,-0.44,-1.859,-9.588,-0.546,-1.742,-0.63,8.12,1.05
,-9.655,-0.519,-1.886,-9.639,-0.416,-1.828,-1.26,8.75,1.19
,-9.617,-0.61,-1.89,-9.55,-0.593,-1.85,-1.26,9.38,1.33
,-9.593,-0.663,-1.859,-9.524,-0.675,-1.866,-0.77,10.01,1.54
1135.0,-9.675,-0.469,-2.079,-9.61,-0.488,-2.297,-2.45,12.81,1.82
,-9.696,-0.584,-2.213,-9.61,-0.235,-2.453,-4.55,13.02,1.89
,-9.6,-0.689,-2.391,-9.667,-0.258,-2.702,-4.76,12.53,1.68
,-9.557,-0.615,-2.417,-9.531,-0.589,-2.584,-5.46,12.81,1.75
1211.0,-9.5,-0.747,-2.517,-9.588,-0.57,-1.922,-6.58,13.02,1.68
,-9.483,-0.9,-2.486,-9.612,0.012,-2.005,-4.34,13.37,2.24
,-9.538,-0.914,-2.285,-9.596,0.194,-2.773,-2.38,13.72,2.66
,-9.588,-0.617,-2.321,-9.421,-0.361,-3.178,-0.56,14.14,3.01
1287.0,-9.335,-0.692,-3.57,-9.517,-0.072,-3.013,-13.79,12.32,1.82
,-9.32,-0.967,-3.695,-9.383,0.232,-1.984,-10.22,12.39,2.38
,-9.34,-1.077,-3.427,-9.531,0.622,-1.598,-2.17,13.02,2.94
,-9.375,-0.711,-3.02,-9.512,0.455,-1.433,7.91,13.79,3.36
1363.0,-9.567,-0.103,-1.043,-9.234,-1.084,-2.855,-12.18,13.86,-0.28
,-9.452,-0.665,-2.438,-9.351,-0.299,-2.85,-20.23,12.32,-0.63
,-8.947,-1.402,-3.123,-9.61,-0.129,-2.477,-24.78,11.2,-0.21
,-9.028,-1.57,-3.171,-9.608,0.002,-2.072,-17.85,12.6,1.4
1438.0,-9.359,0.017,-1.67,-9.773,0.701,-2.91,3.5,19.04,0.84
,-9.275,0.294,-1.407,-9.296,0.268,-3.967,4.97,20.09,-0.28
,-9.227,0.663,-1.448,-8.868,-0.4,-4.2,3.08,19.88,-1.82
,-9.722,0.804,-1.807,-8.449,-0.426,-3.711,-1.47,19.74,-2.66
1514.0,-8.825,-0.091,-2.917,-9.868,-0.637,-2.434,-4.34,19.32,-4.34
,-9.016,0.098,-2.211,-9.564,-0.797,-3.118,2.1,22.75,-5.46
,-9.493,0.184,-1.989,-9.16,-0.385,-3.149,4.62,26.32,-6.09
,-9.753,-0.089,-2.35,-9.067,0.041,-3.831,1.82,28.07,-6.23
1589.0,-8.725,-0.254,-4.216,-9.366,-2.127,-3.465,-0.91,22.47,-5.18
,-8.332,-1.613,-4.094,-9.689,-1.948,-3.238,-6.72,24.36,-2.38
,-8.411,-2.783,-3.671,-9.179,-1.402,-3.855,-3.5,27.3,-0.07
,-8.902,-2.702,-3.652,-8.658,-1.491,-4.168,5.18,28.63,0.98
1665.0,-8.751,-1.292,-4.441,-8.76,0.773,-5.559,5.46,27.16,9.31
,-9.332,-0.316,-4.795,-8.988,0.017,-4.798,9.24,26.81,9.03
,-9.213,0.483,-5.489,-8.746,-0.38,-4.645,8.26,24.36,8.05
,-8.88,1.043,-5.753,-8.643,-0.531,-4.707,3.5,23.03,7.28
1741.0,-9.225,-0.531,-4.396,-8.842,0.378,-5.571,8.19,21.77,4.97
,-9.569,-0.467,-4.391,-8.469,0.522,-5.774,10.78,20.23,4.41
,-9.77,-0.476,-4.542,-8.636,0.103,-5.255,10.22,17.92,3.57
,-9.512,-0.17,-4.903,-8.662,-0.024,-5.044,10.15,15.82,3.15
1817.0,-9.031,-0.089,-4.707,-8.871,-0.4,-4.728,-5.18,12.46,-0.07
,-9.325,0.263,-4.963,-8.859,-0.522,-4.544,-4.76,10.15,-0.07
,-9.136,0.096,-5.054,-9.045,-0.493,-4.623,-5.18,8.82,-0.42
,-8.966,-0.187,-4.953,-9.04,-0.558,-4.482,-4.27,8.54,-0.84
1893.0,-8.837,-1.024,-4.604,-8.861,-0.304,-4.652,1.05,5.32,-0.56
,-8.686,-1.393,-4.36,-8.732,0.05,-4.628,1.54,6.93,-0.07
,-8.696,-1.304,-4.374,-8.772,0.12,-4.463,4.76,7.77,-0.21
,-8.842,-0.969,-4.355,-8.442,0.311,-4.764,7.42,7.91,-0.35
1968.0,-8.619,0.196,-4.829,-8.732,-1.127,-4.082,-0.42,6.58,-0.77
,-9.048,0.179,-4.807,-8.631,-1.591,-3.963,0.42,6.51,-1.89
,-9.198,-0.091,-4.673,-8.705,-1.773,-4.066,1.4,6.16,-2.59
,-8.949,-0.668,-4.178,-8.758,-1.567,-4.18,0.91,6.09,-2.1
2044.0,-9.052,-0.881,-4.369,-8.938,0.763,-4.803,10.64,7.7,2.66
,-9.031,0.043,-4.611,-8.504,0.227,-4.953,11.48,7.21,2.17
,-8.899,0.806,-4.867,-8.296,-0.881,-4.537,9.31,6.79,1.19
,-8.701,0.962,-4.982,-8.536,-1.479,-4.413,4.76,6.51,-0.28
2120.0,-8.789,-1.625,-4.343,-9.093,0.735,-4.573,6.51,8.19,0.14
,-9.005,-1.307,-4.46,-8.938,0.794,-4.537,11.41,8.47,0.77
,-8.978,-0.574,-4.733,-8.904,0.849,-4.812,14.98,7.98,0.63
,-8.921,0.232,-4.757,-8.512,0.443,-4.862,15.05,7.28,-0.35
2196.0,-8.315,-0.304,-4.848,-9.024,-2.084,-4.424,-10.43,5.04,-4.69
,-8.557,-0.962,-4.74,-9.038,-1.35,-4.408,-10.5,5.25,-3.64
,-8.782,-1.505,-4.843,-8.801,-0.756,-4.697,-8.54,5.46,-2.59
,-8.825,-2.101,-4.776,-8.459,-0.562,-4.731,-4.62,5.25,-1.61
2271.0,-8.777,-0.397,-4.865,-8.715,-1.156,-4.549,2.87,5.46,1.68
,-8.552,-0.431,-5.018,-8.973,-0.869,-4.602,-0.14,5.67,2.24
,-8.492,-0.914,-4.819,-8.782,-0.715,-4.599,-2.17,6.3,3.29
,-8.449,-1.086,-4.688,-8.722,-0.524,-4.539,-1.33,6.3,4.13
2347.0,-8.849,-0.223,-4.661,-8.887,0.273,-5.19,5.04,7.7,4.27
,-8.899,0.053,-4.645,-8.794,0.038,-5.087,4.76,8.33,3.43
,-8.902,0.373,-4.891,-8.741,-0.203,-5.068,4.2,7.84,2.03
,-8.938,0.433,-5.142,-8.569,-0.388,-5.092,3.01,7.14,0.91
2423.0,-8.37,-0.744,-4.872,-8.851,-0.778,-4.968,1.89,5.53,0.42
,-8.485,-0.962,-4.87,-8.868,-0.792,-4.92,1.89,6.51,1.19
,-8.636,-1.072,-4.994,-8.672,-0.723,-4.996,2.59,7.07,1.75
,-8.737,-0.893,-5.001,-8.71,-0.665,-5.037,3.43,7.56,2.1
2499.0,-8.571,-0.706,-5.037,-8.693,-0.012,-4.932,3.64,5.6,2.8
,-8.512,-0.641,-4.925,-8.722,0.005,-4.999,4.48,5.6,3.36
,-8.564,-0.39,-4.927,-8.737,-0.079,-5.032,4.97,5.88,3.99
,-8.442,-0.179,-5.001,-8.614,-0.148,-5.13,4.76,6.3,4.13
2574.0,-8.55,-0.235,-5.252,-8.806,-1.041,-5.202,0.0,6.3,2.31
,-8.586,-0.402,-5.245,-8.76,-1.11,-5.044,-0.07,6.09,1.75
,-8.77,-0.663,-5.279,-8.454,-0.79,-5.066,0.07,5.6,1.05
,-8.837,-0.859,-5.279,-8.246,-0.342,-5.276,1.61,4.48,0.77
2650.0,-8.466,-0.055,-5.099,-8.49,-0.108,-5.202,4.48,4.48,2.52
,-8.758,0.067,-5.102,-8.433,-0.299,-5.195,3.36,4.06,1.96
,-8.859,0.244,-5.224,-8.626,-0.196,-5.219,1.61,3.29,1.68
,-8.756,0.151,-5.195,-8.777,-0.407,-4.97,-0.35,3.01,1.75
2726.0,-8.751,-0.584,-5.123,-8.646,-0.849,-5.164,2.94,2.03,0.42
,-8.703,-0.641,-5.386,-8.593,-0.72,-5.264,2.73,1.33,0.98
,-8.772,-0.761,-5.3,-8.524,-0.617,-5.291,2.66,1.26,1.54
,-8.741,-0.816,-5.274,-8.705,-0.5,-5.379,2.24,0.77,1.96
2801.0,-8.703,-0.33,-5.54,-8.48,-0.56,-5.382,-3.43,-3.57,3.92
,-8.593,-0.579,-5.451,-8.737,-0.782,-5.095,-4.83,-4.48,4.13
,-8.751,-0.656,-5.164,-8.844,-0.766,-5.226,-5.32,-4.9,4.69
,-8.612,-0.572,-5.24,-8.591,-0.632,-5.367,-4.2,-5.81,5.32
2877.0,-8.547,-0.574,-5.415,-8.928,-0.591,-4.982,-3.57,-7.07,7.7
,-8.787,-0.577,-5.456,-8.516,-0.498,-5.027,-4.69,-6.86,7.56
,-8.851,-0.404,-5.681,-8.102,-0.519,-5.52,-3.71,-7.21,7.0
,-9.222,-0.627,-4.977,-8.32,-0.67,-5.252,-3.64,-7.98,6.37
2953.0,-8.634,-0.215,-5.473,-8.756,-0.266,-5.188,-1.54,-12.67,8.26
,-8.868,-0.136,-5.257,-9.158,-0.172,-4.898,-0.7,-13.23,7.56
,-9.009,-0.12,-5.157,-8.88,0.373,-5.432,0.56,-13.72,6.93
,-8.806,-0.148,-5.219,-8.447,0.572,-5.236,1.82,-13.65,6.16
3029.0,-8.713,0.27,-4.681,-8.82,0.12,-4.826,6.09,-15.89,3.85
,-8.789,0.38,-4.786,-8.753,-0.036,-4.932,4.55,-17.99,3.99
,-8.792,0.337,-4.824,-8.837,-0.199,-4.862,2.31,-18.83,3.57
,-8.892,0.232,-4.862,-8.849,-0.187,-4.803,1.12,-18.83,2.94
3104.0,-8.933,-0.148,-4.566,-8.658,0.206,-4.728,9.38,-12.25,0.42
,-8.832,-0.072,-4.513,-8.593,0.108,-4.513,10.92,-11.9,0.56
,-8.844,-0.232,-4.381,-8.825,0.005,-4.238,8.26,-12.11,0.77
,-8.804,0.005,-4.501,-9.012,-0.072,-4.037,10.08,-13.65,1.12
3180.0,-8.935,-0.117,-3.967,-9.069,-0.124,-4.046,9.24,-14.42,2.73
,-8.89,-0.244,-4.063,-8.99,-0.144,-3.939,7.7,-15.19,3.01
,-8.861,-0.127,-4.2,-9.002,-0.036,-3.982,6.51,-16.17,3.08
,-8.945,-0.026,-4.197,-9.019,0.041,-3.888,6.09,-16.59,3.15
3256.0,-9.048,0.139,-3.757,-8.796,-0.124,-3.319,6.72,-19.04,2.45
,-9.005,0.16,-3.707,-9.045,-0.263,-3.151,6.65,-19.53,1.47
,-8.981,0.16,-3.573,-9.131,-0.246,-3.333,5.6,-19.88,0.84
,-8.894,0.201,-3.642,-9.287,0.062,-3.467,3.57,-20.09,0.42
3332.0,-9.21,0.098,-3.321,-9.344,0.12,-2.67,4.69,-19.81,1.19
,-9.105,-0.06,-3.228,-9.373,0.249,-3.013,4.83,-18.97,0.77
,-8.961,-0.129,-2.95,-9.409,0.141,-3.151,5.39,-17.57,0.35
,-9.143,-0.124,-2.45,-9.234,-0.352,-3.273,6.58,-16.59,0.42
3407.0,-8.969,-0.503,-3.486,-9.521,-0.041,-3.015,-1.96,-16.03,-0.07
,-9.028,-0.622,-3.005,-9.43,-0.062,-3.245,3.08,-14.21,0.49
,-9.275,-0.292,-3.029,-9.249,-0.249,-3.448,6.51,-14.07,0.49
,-9.397,-0.199,-2.74,-9.088,-0.246,-3.329,7.49,-13.86,0.63
3483.0,-8.997,-0.074,-3.221,-9.289,-0.677,-3.206,7.42,-13.02,0.49
,-9.153,0.462,-3.546,-9.328,-0.302,-2.742,7.49,-14.49,-0.07
,-9.318,0.392,-3.877,-9.385,0.388,-2.371,3.64,-15.75,-0.07
,-9.289,-0.043,-4.085,-9.785,0.715,-2.556,-1.96,-17.22,-0.42
3558.0,-9.49,0.696,-3.223,-9.304,-0.273,-2.991,-2.52,-17.85,-2.66
,-9.308,0.089,-3.537,-9.598,0.069,-2.436,-8.75,-18.69,-2.87
,-9.162,-0.395,-3.833,-9.605,0.067,-2.424,-8.47,-18.41,-3.36
,-9.198,-0.763,-3.096,-9.615,-0.108,-1.922,-0.21,-16.31,-3.22
3634.0,-9.485,-0.23,-1.838,-9.481,0.249,-2.201,-0.91,-15.4,-3.5
,-9.567,-0.321,-2.685,-9.639,0.22,-1.883,-1.19,-15.26,-3.71
,-9.34,-0.433,-2.742,-9.703,0.256,-1.905,-0.49,-14.7,-3.5
,-9.44,-0.333,-2.06,-9.586,0.043,-1.862,5.25,-12.74,-3.15
3710.0,-9.541,-0.309,-1.922,-9.502,-0.361,-2.525,2.03,-8.82,-5.18
,-9.49,-0.378,-2.041,-9.478,-0.4,-2.546,3.57,-7.84,-5.11
,-9.435,-0.476,-2.156,-9.521,-0.335,-2.584,4.2,-6.72,-4.69
,-9.464,-0.426,-2.501,-9.44,-0.581,-2.352,7.7,-6.09,-4.41
3786.0,-9.423,-0.742,-1.979,-9.639,-0.203,-1.998,11.76,-4.69,-3.01
,-9.648,-0.376,-2.192,-9.564,-0.51,-1.795,13.02,-4.2,-2.66
,-9.636,-0.29,-2.123,-9.562,-0.404,-1.721,11.69,-4.27,-2.8
,-9.67,-0.201,-1.912,-9.718,-0.402,-1.938,9.59,-3.99,-2.94
3862.0,-9.612,-0.591,-2.01,-9.605,-0.428,-1.74,4.2,-1.05,-2.59
,-9.445,-0.464,-2.264,-9.73,-0.455,-1.505,5.32,-0.42,-2.17
,-9.474,-0.845,-1.926,-9.794,-0.177,-1.838,5.46,1.05,-1.68
,-9.531,-0.687,-1.759,-9.739,-0.196,-2.307,7.63,2.45,-1.33
3937.0,-9.493,-0.397,-2.532,-9.5,-0.287,-2.312,-0.98,4.13,-1.61
,-9.44,-0.62,-2.673,-9.476,-0.469,-2.015,-0.35,4.48,-1.33
,-9.414,-0.586,-2.673,-9.581,-0.567,-1.855,1.54,4.9,-0.91
,-9.507,-0.541,-2.501,-9.751,-0.392,-2.13,3.29,5.32,-0.56
4013.0,-9.797,-0.376,-2.474,-9.478,-0.651,-3.226,-0.21,6.09,-0.42
,-9.619,-0.507,-2.836,-9.476,-0.613,-3.118,-1.68,5.46,-0.63
,-9.541,-0.704,-3.106,-9.495,-0.538,-2.967,-1.89,5.25,-0.49
,-9.442,-0.73,-3.264,-9.557,-0.342,-3.068,-0.21,4.9,-0.21
4089.0,-9.514,-0.447,-3.116,-9.564,-0.395,-2.709,1.89,1.47,0.35
,-9.466,-0.479,-3.041,-9.555,-0.431,-2.541,2.38,0.91,0.28
,-9.529,-0.574,-3.001,-9.564,-0.474,-2.462,3.64,0.49,0.49
,-9.555,-0.541,-2.893,-9.596,-0.57,-2.326,5.04,0.07,0.77
4165.0,-9.574,-0.555,-2.288,-9.639,-0.479,-2.484,4.2,-0.28,1.12
,-9.593,-0.541,-2.223,-9.541,-0.522,-2.563,4.06,0.14,1.12
,-9.631,-0.505,-2.235,-9.567,-0.467,-2.623,3.64,0.42,0.98
,-9.67,-0.421,-2.395,-9.524,-0.443,-2.694,2.8,0.77,0.84
4240.0,-9.517,-0.512,-2.771,-9.502,-0.555,-2.749,3.43,0.63,1.12
,-9.543,-0.479,-2.845,-9.474,-0.493,-2.651,3.78,0.0,1.12
,-9.555,-0.431,-2.934,-9.524,-0.479,-2.551,3.64,-0.56,1.12
,-9.5,-0.51,-2.816,-9.572,-0.493,-2.391,3.5,-0.7,1.19
4316.0,-9.619,-0.474,-2.312,-9.581,-0.354,-2.182,4.34,-1.12,1.26
,-9.66,-0.488,-2.309,-9.627,-0.27,-2.182,4.2,-1.05,1.26
,-9.627,-0.464,-2.312,-9.651,-0.294,-2.297,3.92,-0.84,1.26
,-9.531,-0.34,-2.237,-9.588,-0.436,-2.438,3.71,-0.42,1.19
4391.0,-9.677,-0.739,-2.249,-9.543,-0.562,-2.347,-1.12,0.49,0.7
,-9.586,-0.409,-2.505,-9.603,-0.634,-2.276,-1.19,-0.28,-0.07
,-9.552,-0.091,-2.424,-9.627,-0.558,-2.187,-3.71,-1.05,-0.42
,-9.552,-0.117,-2.419,-9.629,-0.335,-2.235,-7.42,-1.47,-0.56
4467.0,-9.584,-0.292,-2.158,-9.536,-0.483,-2.288,-4.48,0.56,-0.07
,-9.624,-0.433,-2.395,-9.603,-0.196,-2.163,-6.93,0.49,-0.14
,-9.497,-0.416,-2.469,-9.619,-0.227,-1.998,-7.98,0.14,-0.14
,-9.493,-0.491,-2.517,-9.651,-0.388,-1.847,-8.89,0.0,-0.21
4543.0,-9.629,-0.474,-1.63,-9.55,-0.648,-1.701,-13.02,1.12,-0.35
,-9.646,-0.311,-1.771,-9.543,-0.555,-1.594,-12.81,1.54,-0.35
,-9.536,-0.524,-1.721,-9.672,-0.61,-1.534,-12.95,2.45,-0.42
,-9.569,-0.469,-1.917,-9.761,-0.199,-1.945,-10.71,3.57,-0.07
4619.0,-9.643,-0.124,-2.204,-9.6,-0.361,-2.469,-10.29,7.49,0.91
,-9.452,-0.397,-2.216,-9.481,-0.397,-2.166,-12.39,7.91,0.7
,-9.306,-0.672,-2.12,-9.579,-0.536,-1.986,-11.9,9.52,1.12
,-9.579,-0.567,-2.233,-9.402,-0.581,-2.051,-8.33,10.64,1.54
4694.0,-9.383,-0.823,-1.536,-9.608,0.223,-2.355,-3.57,15.82,2.94
,-9.684,-0.627,-1.45,-9.186,0.184,-2.955,-0.63,17.36,3.43
,-9.521,-0.208,-1.309,-9.237,-0.694,-2.773,0.63,18.34,3.64
,-9.643,0.239,-1.886,-9.117,-0.905,-3.415,-1.4,18.55,3.15
4770.0,-9.49,-0.888,-3.113,-9.404,-0.39,-3.068,-0.91,20.79,4.2
,-9.567,-0.311,-3.702,-9.371,-0.302,-2.426,4.34,18.83,3.92
,-9.45,-0.163,-3.606,-9.708,0.397,-2.326,3.5,18.2,3.43
,-9.435,-0.392,-3.214,-9.44,1.048,-3.324,4.13,18.34,3.43
4846.0,-9.136,0.409,-3.101,-9.493,-0.115,-2.639,-3.71,17.78,0.98
,-9.103,-1.218,-3.221,-9.517,0.986,-3.312,-8.82,20.79,2.31
,-8.677,-2.067,-2.596,-9.608,0.304,-3.826,-2.66,24.22,3.57
,-9.215,-1.555,-1.228,-8.957,-0.792,-3.312,16.52,28.07,4.76
4922.0,-8.878,-0.718,-2.972,-9.335,-0.089,-4.771,3.29,24.92,3.57
,-9.04,0.395,-3.393,-9.189,-0.962,-3.831,8.05,23.31,1.61
,-9.576,1.347,-4.128,-8.983,-0.574,-3.68,5.11,20.51,0.07
,-9.466,1.027,-4.671,-9.165,0.081,-3.477,-6.79,18.62,-0.56
4998.0,-9.0,-0.141,-3.862,-9.012,-1.761,-2.364,0.42,17.29,-1.61
,-8.938,-1.161,-3.687,-9.555,-0.462,-2.962,-3.08,19.46,-0.35
,-8.897,-2.34,-3.034,-9.533,0.287,-3.783,-0.49,23.03,2.1
,-8.799,-2.711,-2.266,-9.088,0.383,-4.451,11.69,26.46,4.55
5073.0,-8.734,-0.065,-4.097,-9.103,0.694,-4.214,3.43,24.99,6.79
,-8.844,-0.045,-3.632,-8.815,0.182,-4.082,5.74,25.76,5.95
,-9.002,0.983,-4.221,-8.897,-0.184,-3.728,7.35,21.77,4.2
,-9.284,1.479,-4.444,-8.825,-0.313,-4.202,3.08,19.25,2.8
5149.0,-8.988,-0.254,-4.405,-8.772,-0.122,-4.293,6.93,21.63,1.4
,-9.076,-0.653,-4.41,-8.772,0.199,-4.774,7.7,22.54,1.75
,-9.258,-0.785,-4.111,-8.856,0.0,-5.011,8.89,23.45,1.68
,-9.112,-0.565,-3.967,-8.988,-0.275,-4.946,9.66,22.75,1.54
5224.0,-8.787,-0.467,-4.75,-9.361,0.227,-4.331,-8.54,19.18,2.52
,-8.72,-0.648,-4.336,-9.196,0.321,-4.281,-7.28,19.04,2.52
,-8.624,-0.273,-4.468,-8.806,0.218,-4.279,-5.11,18.06,2.24
,-8.871,0.0,-4.427,-8.634,0.048,-4.338,-2.03,17.99,1.75
5300.0,-8.71,0.005,-4.381,-8.667,0.763,-5.255,-1.75,20.09,0.56
,-8.952,0.184,-4.554,-8.497,0.871,-5.65,-0.14,19.46,-0.14
,-9.036,0.615,-4.762,-8.641,0.658,-5.611,0.21,17.99,-0.49
,-8.655,0.933,-5.231,-8.784,0.388,-5.363,-1.54,16.45,-1.19
5376.0,-8.804,0.156,-5.224,-8.583,-1.072,-4.865,-8.68,12.95,-7.77
,-8.801,-0.122,-4.941,-8.497,-1.407,-4.85,-7.56,13.23,-8.68
,-8.825,-0.158,-5.035,-8.428,-1.764,-4.972,-5.88,12.74,-9.17
,-8.617,-0.519,-5.02,-8.533,-2.008,-4.819,-5.18,11.83,-9.1
5452.0,-8.658,-1.46,-5.037,-8.327,0.206,-5.889,7.91,12.74,-2.59
,-8.981,-0.474,-5.083,-8.095,-0.603,-5.855,10.5,11.69,-1.82
,-8.899,0.218,-5.611,-8.2,-1.426,-5.544,9.03,9.87,-1.54
,-8.576,0.419,-5.707,-8.263,-1.943,-5.334,4.97,9.1,-1.4
5527.0,-8.66,-2.398,-5.09,-8.677,-0.632,-5.061,8.47,8.47,4.9
,-9.06,-2.285,-4.8,-8.65,0.022,-5.248,12.88,8.68,6.44
,-9.007,-1.73,-4.872,-8.818,0.744,-5.42,16.24,7.98,7.7
,-8.916,-1.297,-4.771,-8.67,1.175,-5.504,16.31,7.56,9.24
5603.0,-8.418,1.031,-5.587,-8.61,-0.139,-4.929,3.22,4.34,6.44
,-8.246,0.653,-5.384,-8.875,-0.019,-4.836,1.47,4.27,5.95
,-8.165,0.225,-5.157,-8.727,0.074,-4.795,2.1,5.11,5.46
,-8.234,-0.163,-4.932,-8.713,0.203,-4.996,4.34,5.95,5.32
5678.0,-8.799,0.366,-5.183,-8.452,-0.407,-5.738,5.95,5.74,3.78
,-8.806,0.467,-5.231,-8.442,-0.778,-5.36,4.48,4.76,3.08
,-8.65,0.05,-5.212,-8.461,-1.12,-5.011,2.73,3.71,3.01
,-8.459,-0.117,-5.571,-8.387,-1.23,-4.815,2.59,3.08,3.08
5754.0,-8.488,-0.794,-4.779,-8.753,0.132,-5.176,10.78,3.71,5.74
,-8.562,-0.239,-4.941,-8.674,-0.256,-5.001,9.45,3.99,6.3
,-8.607,0.045,-4.913,-8.528,-0.268,-5.063,6.44,4.06,6.02
,-8.691,0.17,-5.142,-8.294,-0.079,-5.205,3.5,4.13,5.39
5830.0,-8.291,-0.258,-4.714,-8.756,0.258,-5.164,4.76,4.06,5.88
,-8.457,-0.22,-4.853,-8.72,0.44,-5.181,4.69,4.69,6.72
,-8.378,-0.208,-5.092,-8.571,0.479,-5.348,4.62,5.04,7.0
,-8.593,-0.165,-4.963,-8.514,0.388,-5.487,5.46,5.88,6.51
5906.0,-8.588,0.179,-5.315,-8.516,0.026,-5.384,1.68,4.48,1.26
,-8.576,0.194,-5.195,-8.497,0.103,-5.544,2.52,3.85,0.91
,-8.579,-0.01,-5.185,-8.394,0.005,-5.494,1.96,3.64,1.19
,-8.38,-0.261,-5.183,-8.413,0.034,-5.575,1.47,3.71,1.19
5982.0,-8.562,-0.067,-5.59,-8.385,-0.311,-5.178,-1.75,4.55,0.21
,-8.681,-0.302,-5.501,-8.311,0.017,-5.348,-1.82,3.92,0.21
,-8.653,-0.615,-5.413,-8.105,0.086,-5.233,-0.84,2.8,0.21
,-8.445,-0.663,-5.262,-8.263,0.29,-5.245,1.4,2.1,0.42
6057.0,-8.741,0.44,-5.341,-8.413,-0.093,-5.166,-1.4,3.22,-0.07
,-8.882,0.27,-5.315,-8.514,-0.112,-5.367,-2.17,2.52,-0.91
,-8.614,0.189,-5.217,-8.569,-0.136,-5.272,-1.26,1.54,-0.98
,-8.354,0.081,-5.324,-8.497,-0.177,-5.147,-0.56,0.84,-1.19
6133.0,-8.49,-0.038,-5.197,-8.488,-0.179,-5.439,2.94,1.12,-1.12
,-8.416,-0.179,-5.178,-8.617,-0.146,-5.406,1.75,1.19,-0.77
,-8.5,-0.378,-5.19,-8.624,-0.175,-5.418,0.49,1.47,-0.28
,-8.557,-0.349,-5.224,-8.478,-0.101,-5.43,0.35,1.12,0.07
6209.0,-8.485,0.062,-5.463,-8.478,0.065,-5.492,0.42,-0.63,0.63
,-8.653,0.345,-5.53,-8.373,0.038,-5.59,0.84,-1.33,-0.07
,-8.667,0.5,-5.631,-8.488,0.01,-5.508,-0.07,-2.17,-0.56
,-8.65,0.416,-5.674,-8.614,-0.096,-5.439,-2.03,-3.08,-0.84
6285.0,-8.737,-0.311,-5.188,-8.344,-0.443,-5.386,-1.82,-4.69,-2.59
,-8.636,-0.33,-5.351,-8.325,-0.376,-5.365,-2.1,-5.46,-1.89
,-8.507,-0.345,-5.518,-8.469,-0.354,-5.36,-2.73,-5.88,-1.26
,-8.574,-0.431,-5.482,-8.571,-0.648,-5.169,-2.45,-6.51,-0.63
6360.0,-8.646,-0.84,-5.19,-8.433,-0.158,-5.329,-0.84,-7.35,2.66
,-8.67,-0.773,-5.159,-8.71,-0.055,-5.279,0.56,-7.84,3.15
,-8.567,-0.692,-5.181,-8.753,-0.002,-5.25,1.82,-8.12,3.36
,-8.49,-0.526,-5.152,-8.715,-0.074,-5.229,2.73,-7.98,3.5
6436.0,-8.701,-0.151,-5.355,-8.677,0.309,-5.193,3.85,-9.8,3.08
,-8.691,-0.172,-5.233,-8.526,0.218,-4.903,6.09,-10.15,2.8
,-8.784,0.124,-5.274,-8.562,0.127,-4.898,8.61,-10.99,1.96
,-8.655,0.244,-5.212,-8.591,0.227,-5.162,9.1,-11.62,0.98
6511.0,-8.796,0.254,-5.229,-8.681,-0.581,-4.915,1.96,-13.86,0.14
,-8.861,0.108,-5.269,-8.748,-0.462,-4.879,2.03,-13.93,-0.35
,-8.66,-0.084,-5.219,-8.77,-0.321,-4.697,3.01,-13.93,-1.05
,-8.619,-0.311,-5.173,-9.055,-0.203,-4.436,5.6,-13.09,-1.61
6587.0,-8.61,0.287,-4.896,-8.952,-0.641,-4.752,9.66,-14.91,0.0
,-8.258,0.158,-5.066,-8.892,-0.282,-5.083,4.27,-15.75,0.77
,-8.471,0.017,-5.341,-8.892,-0.12,-5.08,0.91,-14.84,1.12
,-8.887,-0.869,-4.7,-8.658,-0.359,-5.03,0.98,-14.49,0.91
6663.0,-8.619,-0.826,-4.733,-8.655,-0.053,-4.858,12.11,-9.31,2.45
,-8.777,-1.11,-4.561,-8.574,0.081,-4.81,15.61,-8.19,3.92
,-8.995,-0.847,-4.566,-8.851,-0.036,-4.697,19.81,-8.89,5.04
,-8.921,-0.354,-4.695,-8.88,-0.024,-4.671,20.86,-11.27,5.81
6739.0,-9.005,-0.12,-4.362,-9.11,0.524,-4.154,7.7,-16.38,7.07
,-9.064,-0.156,-4.336,-8.887,0.44,-4.427,6.79,-17.43,7.0
,-8.894,-0.055,-4.401,-8.808,0.27,-4.243,6.93,-18.76,6.72
,-8.945,0.385,-4.243,-8.983,0.153,-4.106,7.35,-19.53,6.02
6815.0,-9.0,0.27,-4.011,-9.11,0.526,-3.13,6.44,-21.14,3.29
,-9.062,0.634,-3.735,-9.045,0.244,-3.271,9.24,-21.0,1.96
,-9.129,0.921,-3.666,-9.079,-0.062,-3.084,8.82,-21.84,0.63
,-8.954,0.888,-3.374,-9.021,-0.017,-2.943,5.04,-22.05,-0.07
6890.0,-8.866,0.01,-2.582,-9.198,-0.51,-3.396,-1.54,-21.14,-2.94
,-9.062,0.105,-2.649,-8.964,-1.0,-3.338,-1.19,-20.65,-3.57
,-9.313,0.297,-2.86,-9.117,-0.976,-2.848,-2.38,-20.65,-3.78
,-9.38,0.007,-3.195,-9.241,-0.342,-2.721,-7.84,-20.86,-3.57
6966.0,-9.318,0.376,-2.807,-9.182,-0.854,-3.391,7.63,-15.4,-2.94
,-9.299,0.558,-2.915,-9.17,-0.579,-3.4,1.19,-16.31,-3.15
,-9.268,0.045,-3.278,-9.177,-0.323,-2.879,-6.79,-16.87,-2.87
,-9.344,-0.555,-3.606,-9.308,0.179,-2.828,-7.35,-16.38,-2.45
7042.0,-9.404,0.397,-3.003,-9.237,-0.304,-3.489,7.49,-13.44,-2.45
,-9.335,-0.005,-2.675,-9.246,0.244,-3.396,3.85,-13.16,-2.31
,-9.38,-0.263,-3.123,-9.485,0.416,-3.221,2.66,-13.44,-2.31
,-9.172,-0.371,-3.262,-9.476,0.627,-3.166,3.01,-13.58,-2.52
7118.0,-9.33,0.395,-3.101,-9.495,-0.438,-2.781,1.26,-14.35,-4.83
,-9.366,-0.136,-2.905,-9.567,-0.352,-3.262,0.07,-14.28,-5.11
,-9.445,-0.421,-3.072,-9.263,-0.514,-2.888,2.17,-14.21,-5.04
,-9.385,-0.704,-2.68,-9.304,-0.531,-2.58,5.18,-13.79,-4.62
7193.0,-9.378,-0.605,-2.331,-9.533,-0.531,-1.799,4.76,-13.02,-3.5
,-9.466,-0.491,-2.142,-9.452,-0.553,-1.718,4.83,-12.53,-3.57
,-9.493,-0.328,-1.969,-9.454,-0.424,-1.682,3.85,-11.9,-3.22
,-9.545,-0.266,-2.053,-9.5,-0.359,-1.584,3.22,-11.27,-3.15
7269.0,-9.543,-0.251,-1.479,-9.538,-0.333,-2.747,8.54,-4.2,-1.33
,-9.71,-0.057,-1.929,-9.407,-0.579,-2.86,7.21,-3.43,-1.47
,-9.617,-0.22,-2.01,-9.507,-0.378,-3.13,4.97,-2.8,-1.54
,-9.619,-0.282,-2.18,-9.531,-0.421,-3.312,3.71,-2.03,-1.54
7344.0,-9.469,-0.505,-3.309,-9.605,-0.285,-2.907,3.99,-3.01,-1.4
,-9.423,-0.514,-3.108,-9.519,-0.254,-2.915,4.62,-3.43,-1.12
,-9.454,-0.534,-3.061,-9.395,-0.428,-2.845,6.3,-3.64,-0.84
,-9.538,-0.517,-2.843,-9.351,-0.687,-2.46,8.61,-3.92,-0.49
7420.0,-9.507,-0.486,-2.29,-9.471,-0.593,-1.991,10.64,-4.76,0.63
,-9.672,-0.342,-2.216,-9.505,-0.704,-1.828,9.73,-4.69,0.35
,-9.749,-0.148,-2.29,-9.574,-0.665,-1.716,6.51,-4.9,0.07
,-9.648,-0.486,-2.065,-9.605,-0.452,-1.575,3.22,-4.76,-0.07
7496.0,-9.679,-0.321,-1.661,-9.445,-0.471,-1.799,4.2,0.28,0.7
,-9.596,-0.376,-1.788,-9.617,-0.258,-2.01,2.52,0.91,0.7
,-9.519,-0.361,-1.914,-9.713,-0.191,-2.099,1.61,1.75,0.7
,-9.414,-0.5,-1.967,-9.677,-0.129,-2.307,1.54,2.87,0.77
7572.0,-9.5,-0.28,-2.592,-9.646,-0.373,-2.79,-0.14,5.11,0.63
,-9.466,-0.438,-2.716,-9.742,-0.266,-2.91,-0.84,5.18,0.63
,-9.507,-0.553,-2.757,-9.651,-0.218,-3.147,0.21,5.46,0.7
,-9.617,-0.548,-2.793,-9.514,-0.462,-3.209,1.19,5.18,0.77
7647.0,-9.43,-0.826,-2.941,-9.596,-0.342,-2.733,-4.48,1.54,0.0
,-9.481,-0.802,-3.106,-9.579,-0.208,-2.589,-0.42,1.4,0.35
,-9.497,-0.771,-2.895,-9.55,-0.27,-2.556,2.38,1.26,0.77
,-9.636,-0.469,-2.764,-9.608,-0.378,-2.455,4.48,1.12,1.05
7723.0,-9.622,-0.452,-2.4,-9.651,-0.378,-2.472,2.03,0.84,0.28
,-9.648,-0.443,-2.405,-9.639,-0.371,-2.651,3.01,0.98,0.21
,-9.56,-0.414,-2.388,-9.514,-0.294,-2.759,3.36,1.19,0.35
,-9.643,-0.414,-2.345,-9.533,-0.371,-2.869,3.85,1.61,0.49
7799.0,-9.509,-0.436,-2.757,-9.562,-0.335,-2.395,4.69,1.05,0.63
,-9.512,-0.404,-2.702,-9.548,-0.366,-2.35,5.18,1.19,0.63
,-9.581,-0.443,-2.575,-9.564,-0.445,-2.352,4.48,0.91,0.56
,-9.6,-0.431,-2.508,-9.567,-0.433,-2.34,3.85,0.77,0.42
7875.0,-9.55,-0.412,-2.4,-9.588,-0.349,-2.388,1.89,2.03,0.49
,-9.524,-0.433,-2.34,-9.555,-0.467,-2.417,2.45,2.24,0.49
,-9.624,-0.352,-2.338,-9.579,-0.443,-2.551,2.8,2.59,0.42
,-9.584,-0.318,-2.371,-9.567,-0.512,-2.666,2.17,2.73,0.21
7951.0,-9.545,-0.505,-2.687,-9.543,-0.457,-2.685,2.17,3.36,0.28
,-9.564,-0.45,-2.735,-9.569,-0.459,-2.627,2.8,3.08,0.28
,-9.548,-0.428,-2.678,-9.615,-0.388,-2.649,3.08,3.08,0.28
,-9.531,-0.431,-2.659,-9.5,-0.342,-2.632,3.5,2.94,0.28
8026.0,-9.517,-0.321,-2.67,-9.533,-0.495,-2.429,4.34,2.59,0.7
,-9.557,-0.412,-2.637,-9.567,-0.486,-2.264,3.71,2.52,0.7
,-9.555,-0.34,-2.692,-9.629,-0.302,-2.446,3.43,2.66,0.63
,-9.552,-0.445,-2.479,-9.622,-0.299,-2.522,2.52,2.8,0.7
8102.0,-9.538,-0.328,-2.582,-9.545,-0.467,-2.589,-1.05,2.87,0.14
,-9.543,-0.369,-2.594,-9.615,-0.419,-2.575,-1.54,2.8,0.07
,-9.55,-0.459,-2.606,-9.605,-0.335,-2.627,-0.91,3.15,0.07
,-9.5,-0.51,-2.608,-9.6,-0.369,-2.699,-0.07,3.43,0.21
8177.0,-9.497,-0.462,-2.752,-9.581,-0.486,-2.46,-3.01,3.01,0.0
,-9.5,-0.469,-2.764,-9.552,-0.292,-2.611,-3.08,3.15,0.14
,-9.509,-0.531,-2.663,-9.536,-0.285,-2.642,-2.73,3.36,0.28
,-9.557,-0.553,-2.534,-9.478,-0.306,-2.726,-1.68,3.43,0.35
8253.0,-9.454,-0.505,-2.692,-9.691,-0.177,-2.328,-1.4,3.43,0.49
,-9.497,-0.61,-2.517,-9.629,-0.168,-2.338,-0.21,3.92,0.84
,-9.509,-0.553,-2.407,-9.617,-0.134,-2.613,1.61,4.48,1.12
,-9.624,-0.392,-2.316,-9.342,-0.455,-2.663,3.15,4.62,1.12
8329.0,-9.251,-0.749,-2.484,-9.718,0.172,-2.125,-4.83,4.27,0.42
,-9.284,-0.936,-2.173,-9.622,-0.048,-2.158,-0.98,6.09,1.19
,-9.488,-0.962,-1.608,-9.383,-0.56,-2.572,3.64,8.26,1.82
,-9.773,-0.17,-1.864,-9.318,-0.988,-2.405,6.65,8.61,1.75
8405.0,-9.567,-0.902,-2.529,-9.416,-0.223,-3.9,-4.13,10.64,1.96
,-9.507,-0.227,-3.558,-9.194,-0.641,-3.453,-4.69,9.73,2.03
,-9.282,-0.512,-2.625,-9.275,-0.869,-3.08,-7.63,10.01,2.24
,-9.837,-0.134,-3.537,-9.435,-0.668,-2.111,-8.47,8.4,1.96
8480.0,-9.718,0.096,-2.788,-9.237,-1.079,-2.69,-2.73,5.18,2.66
,-9.411,0.562,-2.826,-9.452,-1.199,-2.462,-6.93,3.78,1.61
,-9.548,0.194,-2.821,-9.751,-0.51,-2.125,-13.23,3.5,1.47
,-9.191,-0.345,-3.092,-9.66,-0.153,-2.338,-19.04,3.43,1.26
8556.0,-9.509,0.005,-3.185,-9.572,-0.452,-2.149,-3.85,8.75,3.01
,-9.246,-0.802,-3.297,-9.631,1.235,-2.536,-5.39,9.17,4.06
,-9.184,-1.488,-3.496,-9.696,2.24,-2.532,0.28,11.41,5.74
,-9.222,-1.618,-3.29,-9.45,2.046,-2.977,12.67,14.49,7.14
8631.0,-9.287,0.979,-2.496,-9.49,-0.34,-3.3,-11.34,8.4,0.35
,-9.115,0.005,-2.467,-9.328,-0.847,-3.431,-14.49,9.59,-0.63
,-9.146,-0.404,-2.115,-9.098,-1.204,-3.3,-10.29,12.32,-1.4
,-9.411,-0.397,-2.577,-9.246,-0.78,-2.702,-3.01,13.3,-1.68
8707.0,-9.402,0.404,-2.924,-9.34,-0.022,-2.754,36.61,18.62,0.0
,-9.397,1.496,-3.355,-9.194,0.112,-2.783,34.37,16.24,-1.61
,-9.411,1.433,-3.317,-9.22,0.211,-2.721,24.64,16.17,-2.73
,-9.213,0.605,-3.149,-9.208,0.282,-2.513,13.58,16.94,-3.78
8783.0,-9.165,0.201,-2.615,-9.268,-1.481,-2.608,-5.46,17.85,-9.1
,-9.014,-0.294,-2.477,-9.189,-1.912,-2.788,-9.59,18.9,-8.89
,-9.083,-1.077,-2.472,-8.961,-2.345,-3.116,-11.48,20.37,-8.26
,-9.356,-1.402,-2.297,-8.765,-2.807,-3.13,-8.75,20.79,-7.56
8859.0,-9.04,-2.678,-2.898,-8.856,1.031,-4.776,8.19,26.95,3.29
,-9.062,-1.268,-3.745,-9.04,0.486,-4.558,15.75,27.79,4.55
,-9.184,0.057,-4.168,-8.966,-0.101,-4.532,17.22,27.79,4.62
,-9.064,0.976,-4.606,-9.196,-0.364,-4.362,12.46,27.3,4.13
8935.0,-9.38,-0.658,-4.087,-8.949,-1.555,-4.482,0.28,24.57,-0.21
,-9.131,-0.742,-4.427,-9.024,-0.945,-4.874,2.31,22.4,-0.07
,-8.983,-1.003,-4.302,-8.83,-0.108,-5.343,3.85,22.19,0.77
,-8.976,-1.452,-4.19,-8.732,0.232,-5.386,6.44,22.89,2.17
9010.0,-8.67,0.036,-5.355,-9.241,-0.507,-4.147,-1.33,16.66,4.76
,-8.887,-0.443,-5.006,-9.05,-0.854,-3.967,-5.18,16.59,4.76
,-9.148,-0.505,-4.635,-8.684,-1.046,-4.118,-4.2,15.82,4.69
,-9.088,-0.333,-4.539,-8.772,-1.251,-4.08,-3.15,14.49,4.27
9086.0,-8.83,-1.228,-4.257,-8.76,0.452,-5.195,0.49,13.86,9.31
,-8.772,-0.902,-4.401,-8.823,1.098,-5.188,3.43,14.28,10.36
,-8.722,-0.311,-4.98,-9.182,1.393,-4.994,5.46,13.65,10.92
,-8.789,-0.036,-5.087,-9.067,1.534,-4.685,5.11,13.44,10.64
9162.0,-8.729,1.464,-4.594,-9.002,-0.869,-4.551,-4.97,8.33,0.14
,-8.725,1.034,-4.329,-8.863,-0.787,-4.949,-7.91,8.4,-0.35
,-8.94,0.486,-4.417,-8.871,-0.998,-4.635,-9.1,8.47,-0.49
,-8.775,-0.519,-4.623,-8.516,-1.101,-4.69,-9.45,9.38,-0.56
9238.0,-8.373,-1.005,-4.736,-8.938,-0.488,-4.874,10.92,8.12,1.89
,-8.504,-1.055,-4.781,-9.459,-0.524,-4.582,9.8,8.82,3.29
,-8.686,-0.888,-4.609,-9.538,-0.086,-4.862,8.82,9.94,3.85
,-8.842,-0.694,-4.709,-9.014,0.069,-5.162,7.0,10.22,3.43
9313.0,-8.569,0.103,-5.374,-8.861,0.211,-5.135,1.33,5.46,2.03
,-8.495,-0.148,-5.238,-8.911,0.318,-4.968,2.1,5.67,1.4
,-8.677,-0.074,-5.195,-8.839,0.378,-4.884,5.11,6.09,-0.14
,-8.842,0.055,-5.114,-8.514,0.177,-5.087,8.26,5.81,-1.82
9389.0,-8.437,-0.321,-4.915,-8.737,-0.287,-4.836,0.21,1.47,-0.14
,-8.423,-0.735,-5.025,-8.861,-0.06,-5.159,-0.42,1.61,0.49
,-8.873,-0.718,-4.807,-8.66,-0.026,-5.293,-0.28,2.17,0.49
,-8.902,-0.517,-4.642,-8.411,-0.06,-5.358,0.07,2.17,0.28
9464.0,-8.516,-0.479,-5.111,-9.201,-0.567,-4.444,-0.77,-1.33,1.68
,-8.626,-0.897,-5.02,-9.012,-0.445,-4.233,-0.14,-1.4,2.66
,-8.689,-1.144,-4.681,-8.871,-0.055,-4.654,2.59,-0.91,3.01
,-9.079,-0.928,-4.434,-8.677,0.407,-4.822,5.6,-0.28,2.87
9540.0,-8.387,0.313,-4.817,-8.787,-0.483,-4.709,1.47,-1.12,2.45
,-8.045,-0.127,-4.958,-8.868,-0.555,-4.625,-1.12,-0.56,2.94
,-8.318,-0.57,-4.681,-9.062,-0.483,-4.034,-1.12,0.56,3.57
,-8.734,-0.421,-4.771,-8.945,0.005,-4.463,0.84,0.7,4.41
9616.0,-9.009,-0.043,-4.506,-8.433,-0.022,-4.865,2.87,2.45,3.85
,-9.134,-0.084,-4.539,-8.442,-0.048,-4.951,3.08,2.17,3.29
,-8.916,-0.495,-4.7,-8.725,-0.239,-4.815,3.78,1.33,3.15
,-8.76,-0.371,-4.757,-9.318,-0.141,-4.609,6.16,1.33,3.22
9692.0,-9.088,-0.136,-4.511,-9.296,0.048,-4.774,6.79,1.82,2.17
,-8.521,-0.34,-4.18,-9.026,-0.065,-4.951,5.04,2.24,2.45
,-8.289,-0.213,-4.549,-8.729,-0.249,-4.97,4.41,2.8,2.8
,-8.684,-0.103,-4.798,-8.756,-0.242,-4.941,3.92,3.71,2.31
9768.0,-8.753,-0.313,-4.614,-8.756,-0.041,-4.829,3.78,3.01,0.63
,-8.701,-0.156,-4.652,-8.861,-0.086,-4.81,3.5,3.15,1.68
,-8.418,-0.158,-4.915,-8.748,-0.16,-4.681,1.89,3.15,2.31
,-8.588,-0.172,-4.841,-8.691,0.014,-4.554,1.26,4.06,2.38
9843.0,-8.758,0.361,-4.75,-8.44,-0.663,-4.925,2.87,3.71,-1.12
,-8.938,0.251,-4.719,-8.607,-0.45,-5.09,1.4,3.85,-2.03
,-8.909,-0.187,-4.776,-8.99,-0.139,-5.197,0.84,3.71,-1.68
,-8.756,-0.491,-4.661,-8.921,-0.342,-4.939,0.42,4.13,-0.63
9919.0,-8.648,-0.493,-4.982,-8.882,-0.022,-5.202,1.82,2.38,0.49
,-8.574,-0.656,-4.972,-8.66,-0.285,-4.996,2.52,2.1,1.54
,-8.705,-0.615,-4.968,-8.753,-0.416,-4.817,4.13,1.75,1.75
,-9.019,-0.223,-5.154,-8.825,-0.548,-4.389,6.16,0.7,1.82
9995.0,-8.777,-0.242,-4.527,-8.717,-0.34,-4.616,4.2,-0.56,1.89
,-8.76,0.065,-4.776,-8.928,-0.112,-4.384,3.71,-0.77,1.96
,-8.813,-0.038,-4.64,-8.871,0.292,-4.592,0.91,-0.91,2.1
,-8.734,-0.148,-4.793,-8.72,0.34,-4.793,0.07,-0.98,2.31
10071.0,-8.964,0.263,-4.905,-8.655,-0.328,-5.085,0.77,-0.56,0.98
,-8.988,-0.108,-4.982,-8.708,-0.302,-5.279,-0.42,-0.84,0.49
,-8.959,-0.395,-4.853,-8.923,-0.555,-4.968,0.0,-0.98,0.35
,-8.787,-0.44,-4.994,-8.949,-0.627,-4.91,0.7,-1.33,0.49
10146.0,-8.894,-0.493,-5.097,-8.799,-0.816,-5.274,-1.12,-4.27,0.56
,-8.447,-0.869,-5.13,-9.119,-0.589,-5.281,-2.73,-4.34,1.68
,-8.291,-1.216,-5.104,-9.11,-0.194,-5.351,-2.59,-4.06,3.15
,-8.404,-1.031,-5.224,-8.839,-0.246,-5.097,0.84,-3.57,4.34
10222.0,-8.677,-0.232,-5.042,-8.83,0.115,-4.671,9.59,-3.64,3.15
,-8.71,-0.168,-4.96,-9.055,0.258,-4.874,10.64,-3.36,3.08
,-8.701,-0.034,-4.819,-8.859,0.201,-4.972,10.92,-4.41,3.5
,-8.595,0.124,-4.733,-8.756,0.115,-5.14,11.06,-5.04,3.57
10298.0,-8.768,-0.098,-5.2,-8.61,-0.182,-4.819,8.47,-8.68,1.82
,-8.751,-0.294,-5.042,-8.854,-0.385,-4.53,9.59,-8.75,1.61
,-8.713,-0.158,-5.128,-9.067,-0.38,-4.472,11.41,-8.61,1.68
,-8.617,-0.189,-5.001,-9.17,-0.479,-4.341,13.02,-8.61,1.47
10374.0,-8.981,-0.313,-4.558,-8.772,-0.323,-4.53,9.8,-12.88,3.64
,-8.796,-0.139,-4.846,-8.82,0.318,-5.056,8.05,-15.12,3.85
,-8.612,-0.201,-4.85,-8.981,-0.352,-4.398,7.28,-15.54,3.92
,-8.727,-0.328,-4.628,-8.866,-0.165,-4.434,7.7,-15.26,4.06
10449.0,-8.741,-0.029,-4.582,-9.351,0.132,-4.066,12.74,-15.47,3.64
,-8.906,-0.108,-4.329,-9.335,-0.11,-4.168,13.3,-14.91,3.64
,-9.057,-0.115,-4.183,-8.997,-0.419,-4.422,13.51,-14.98,3.71
,-9.191,0.026,-4.073,-8.847,-0.79,-4.405,12.95,-15.4,3.29
10525.0,-8.772,-0.912,-4.458,-9.086,0.474,-3.778,6.86,-19.11,4.62
,-8.866,-0.706,-4.235,-8.995,0.407,-3.86,11.41,-19.25,4.69
,-9.165,-0.194,-3.898,-9.007,0.0,-3.733,14.28,-19.46,4.76
,-9.11,0.268,-3.903,-9.1,-0.086,-3.652,13.3,-20.16,4.41
10600.0,-9.024,0.105,-3.546,-9.16,0.376,-3.202,5.67,-22.75,2.03
,-9.249,0.235,-3.369,-9.074,0.246,-3.345,7.0,-22.47,1.33
,-9.349,0.376,-3.104,-9.16,0.048,-3.259,7.07,-22.12,0.56
,-9.273,0.565,-3.214,-9.1,-0.156,-3.01,5.25,-22.68,-0.28
10676.0,-9.098,-0.208,-2.414,-9.194,-0.651,-3.173,3.43,-19.32,-3.22
,-9.351,0.098,-2.357,-9.239,-1.472,-2.783,4.97,-19.18,-3.85
,-9.289,0.445,-2.773,-9.244,-1.357,-2.522,1.4,-20.16,-4.27
,-9.313,-0.005,-3.089,-9.268,-0.455,-2.515,-5.04,-20.44,-3.71
10752.0,-9.414,0.321,-2.723,-9.399,-0.129,-2.709,7.77,-17.01,-2.87
,-9.5,0.323,-2.764,-9.275,-0.237,-2.661,0.49,-16.73,-2.52
,-9.409,0.014,-2.663,-9.289,-0.495,-2.661,-3.64,-15.89,-2.17
,-9.32,-0.045,-2.577,-9.232,-0.608,-2.525,-4.76,-15.68,-2.52
10828.0,-9.402,-0.651,-2.278,-9.459,-0.091,-2.548,1.89,-12.81,-2.38
,-9.505,-0.371,-2.151,-9.275,-0.122,-2.795,2.59,-11.76,-2.31
,-9.514,-0.476,-2.012,-9.375,-0.139,-2.769,1.96,-10.78,-2.1
,-9.469,-0.397,-2.132,-9.404,-0.086,-2.797,0.84,-10.22,-2.1
10904.0,-9.349,-0.321,-2.898,-9.596,-0.302,-2.082,-3.29,-9.17,-3.29
,-9.28,-0.689,-2.484,-9.55,-0.227,-1.783,-0.98,-8.19,-3.01
,-9.505,-0.823,-1.869,-9.557,-0.242,-2.242,3.36,-6.72,-2.31
,-9.61,-0.682,-1.744,-9.579,-0.402,-2.273,7.35,-6.44,-2.03
10979.0,-9.502,-0.273,-2.405,-9.548,-0.622,-2.077,2.73,-3.29,-1.33
,-9.5,-0.208,-2.197,-9.564,-0.438,-2.436,3.92,-2.31,-1.33
,-9.562,-0.28,-2.139,-9.517,-0.321,-3.001,3.78,-1.68,-1.54
,-9.555,-0.433,-2.201,-9.43,-0.507,-2.759,3.22,-0.7,-1.4
11055.0,-9.488,-0.402,-2.711,-9.66,-0.031,-2.726,3.85,0.07,-0.49
,-9.49,-0.38,-2.575,-9.536,-0.148,-2.623,4.34,0.56,-0.63
,-9.627,-0.254,-2.388,-9.538,-0.285,-2.757,4.69,0.77,-0.91
,-9.749,-0.014,-2.723,-9.569,-0.421,-3.017,2.8,0.07,-1.33
11131.0,-9.552,-0.534,-3.01,-9.493,-0.845,-2.807,0.56,-1.47,-1.82
,-9.497,-0.56,-3.13,-9.529,-0.665,-2.527,0.35,-2.17,-1.54
,-9.483,-0.732,-3.29,-9.517,-0.546,-2.216,1.75,-2.94,-1.33
,-9.418,-0.883,-2.962,-9.6,-0.402,-1.9,3.85,-2.8,-0.77
11207.0,-9.615,-0.23,-1.835,-9.588,-0.404,-2.517,6.58,-1.05,0.14
,-9.593,-0.268,-1.845,-9.49,-0.656,-2.237,3.36,-0.77,-0.14
,-9.675,-0.27,-2.087,-9.624,-0.555,-2.204,0.49,-0.56,-0.49
,-9.634,-0.352,-2.355,-9.77,-0.347,-2.209,-1.96,-0.56,-0.84
11282.0,-9.727,-0.179,-2.398,-9.483,-0.663,-2.778,2.03,1.75,-0.07
,-9.6,-0.359,-2.527,-9.541,-0.581,-2.781,0.49,1.61,0.07
,-9.433,-0.629,-2.692,-9.49,-0.39,-2.852,0.42,1.54,0.35
,-9.38,-0.747,-2.764,-9.462,-0.361,-2.702,2.87,1.89,0.91
11358.0,-9.359,-0.385,-2.563,-9.615,-0.447,-1.759,3.64,0.35,1.26
,-9.502,-0.519,-2.484,-9.651,-0.378,-1.68,3.5,0.7,1.4
,-9.536,-0.66,-2.225,-9.643,-0.304,-1.905,4.06,1.26,1.54
,-9.598,-0.57,-1.967,-9.562,-0.491,-2.058,4.69,1.89,1.68
11433.0,-9.66,-0.328,-2.309,-9.5,-0.38,-3.247,1.54,4.97,1.68
,-9.684,-0.361,-2.723,-9.435,-0.325,-3.443,0.7,4.76,1.26
,-9.77,-0.29,-2.838,-9.454,-0.5,-3.398,0.63,4.2,0.91
,-9.629,-0.244,-3.051,-9.471,-0.596,-3.199,-1.05,3.43,0.56
11509.0,-9.474,-0.622,-2.831,-9.627,-0.203,-2.276,1.19,0.7,0.98
,-9.564,-0.658,-2.45,-9.576,-0.225,-2.498,2.52,0.77,0.98
,-9.663,-0.526,-2.199,-9.493,-0.467,-2.673,3.99,0.98,1.26
,-9.703,-0.316,-2.192,-9.483,-0.541,-2.826,4.55,0.91,1.33
11585.0,-9.493,-0.639,-2.948,-9.67,-0.067,-2.486,4.34,1.33,1.47
,-9.541,-0.517,-2.673,-9.641,-0.249,-2.498,6.72,1.61,1.54
,-9.574,-0.201,-2.484,-9.588,-0.452,-2.656,7.14,1.89,1.47
,-9.689,-0.043,-2.379,-9.536,-0.581,-2.637,5.32,1.89,1.12
11661.0,-9.557,-0.51,-2.735,-9.641,-0.352,-2.467,2.52,0.91,0.35
,-9.567,-0.459,-2.663,-9.636,-0.378,-2.477,3.36,0.98,0.35
,-9.488,-0.538,-2.465,-9.519,-0.392,-2.517,3.22,1.12,0.42
,-9.61,-0.514,-2.309,-9.555,-0.457,-2.52,3.43,1.4,0.63
11736.0,-9.519,-0.407,-2.611,-9.555,-0.498,-2.627,3.01,1.75,0.63
,-9.536,-0.325,-2.711,-9.581,-0.419,-2.534,3.15,1.68,0.7
,-9.581,-0.414,-2.74,-9.581,-0.39,-2.467,2.59,1.47,0.56
,-9.6,-0.469,-2.718,-9.639,-0.325,-2.551,2.45,1.54,0.63
11812.0,-9.624,-0.306,-2.556,-9.529,-0.534,-2.702,0.63,0.98,0.0
,-9.531,-0.407,-2.606,-9.545,-0.534,-2.659,0.0,0.84,0.0
,-9.514,-0.464,-2.69,-9.581,-0.459,-2.603,0.42,0.84,0.14
,-9.521,-0.546,-2.726,-9.634,-0.445,-2.63,1.12,0.91,0.21
11888.0,-9.572,-0.45,-2.666,-9.564,-0.438,-2.709,2.24,0.7,0.7
,-9.514,-0.538,-2.649,-9.529,-0.404,-2.56,2.24,0.42,0.63
,-9.56,-0.409,-2.752,-9.564,-0.383,-2.441,3.08,0.42,0.63
,-9.56,-0.438,-2.749,-9.636,-0.311,-2.35,3.36,0.42,0.63
11964.0,-9.608,-0.335,-2.266,-9.576,-0.538,-2.536,4.27,0.98,0.84
,-9.6,-0.369,-2.285,-9.536,-0.467,-2.548,3.08,1.05,0.77
,-9.536,-0.424,-2.364,-9.605,-0.376,-2.565,2.38,0.98,0.63
,-9.651,-0.474,-2.489,-9.521,-0.364,-2.534,2.38,1.19,0.56
12040.0,-9.505,-0.397,-2.429,-9.572,-0.45,-2.584,1.68,1.96,0.42
,-9.61,-0.342,-2.517,-9.524,-0.479,-2.58,1.82,2.03,0.35
,-9.61,-0.38,-2.532,-9.524,-0.471,-2.582,1.61,2.17,0.35
,-9.598,-0.428,-2.489,-9.5,-0.476,-2.462,1.47,1.82,0.28
12115.0,-9.579,-0.476,-2.335,-9.634,-0.371,-2.4,2.31,2.45,0.56
,-9.581,-0.44,-2.271,-9.495,-0.436,-2.493,1.54,2.66,0.49
,-9.648,-0.392,-2.199,-9.476,-0.517,-2.558,0.77,2.87,0.35
,-9.667,-0.34,-2.271,-9.469,-0.61,-2.548,-0.21,2.87,0.49
12191.0,-9.533,-0.522,-2.577,-9.485,-0.577,-2.525,1.05,4.27,1.05
,-9.619,-0.404,-2.546,-9.569,-0.392,-2.568,1.61,4.13,1.05
,-9.562,-0.44,-2.582,-9.55,-0.304,-2.551,1.4,4.27,1.05
,-9.445,-0.567,-2.52,-9.552,-0.282,-2.527,1.05,4.34,1.26
12266.0,-9.615,-0.452,-2.546,-9.536,-0.823,-2.276,0.98,5.25,1.47
,-9.588,-0.574,-2.345,-9.45,-1.036,-2.192,2.1,5.74,1.75
,-9.576,-0.555,-2.438,-9.387,-1.304,-2.158,2.59,6.09,1.68
,-9.557,-0.826,-2.221,-9.588,-0.969,-2.673,2.38,6.44,1.96
12342.0,-9.476,-1.098,-2.915,-9.691,0.84,-2.764,7.56,7.49,5.6
,-9.34,-0.859,-2.871,-9.548,1.106,-3.116,9.8,7.56,5.88
,-9.555,-0.426,-2.675,-9.311,0.536,-2.764,12.67,7.91,5.53
,-9.536,0.103,-2.749,-9.349,-0.045,-2.68,11.13,7.77,4.69
12418.0,-9.466,-0.383,-2.472,-9.28,-1.05,-1.788,-12.95,6.37,1.19
,-9.536,-0.237,-2.204,-9.459,-1.292,-1.673,-9.52,6.72,1.33
,-9.562,-0.278,-1.986,-9.428,-0.845,-1.797,-9.24,6.93,1.26
,-9.421,-0.696,-1.539,-9.514,-0.069,-2.321,-8.89,8.61,1.68
12494.0,-9.356,0.199,-2.623,-9.253,1.122,-2.982,-4.55,11.48,2.8
,-9.299,0.132,-2.871,-9.73,0.902,-2.833,-6.16,13.02,2.94
,-9.38,0.038,-2.158,-9.643,0.196,-3.376,-3.5,15.89,3.22
,-9.359,0.629,-2.596,-9.186,-0.84,-3.273,1.75,15.75,2.59
12569.0,-9.282,-1.498,-2.649,-9.612,0.682,-2.979,-3.57,16.31,-0.7
,-9.131,-1.323,-1.974,-9.335,0.5,-3.297,6.79,19.11,0.07
,-9.454,-0.536,-2.02,-9.258,0.287,-3.154,13.79,19.39,0.42
,-9.517,0.428,-2.379,-9.289,0.282,-3.175,11.97,17.57,0.21
12645.0,-9.294,0.428,-3.431,-9.155,-2.302,-3.527,-8.75,15.47,-4.34
,-9.261,0.048,-3.546,-9.091,-2.257,-3.108,-10.15,15.26,-4.13
,-9.107,-0.61,-3.683,-9.241,-1.443,-3.238,-10.78,14.7,-3.36
,-9.112,-1.395,-3.831,-9.356,-0.436,-3.613,-8.68,14.98,-1.68
12720.0,-9.347,0.543,-3.754,-9.287,-0.361,-3.314,12.81,15.82,1.82
,-9.136,0.768,-3.951,-9.232,-0.328,-3.381,4.48,15.26,1.82
,-9.21,0.357,-3.824,-9.048,-0.366,-3.661,-3.15,14.84,1.26
,-9.308,-0.208,-3.711,-9.155,-0.309,-3.573,-6.51,15.54,0.56
12796.0,-9.512,-0.522,-3.393,-9.005,0.818,-4.401,4.27,16.59,0.91
,-9.454,-0.481,-3.355,-9.028,0.625,-4.298,5.18,16.73,0.91
,-9.399,-0.057,-3.683,-8.966,-0.029,-3.96,5.88,15.61,0.56
,-9.215,0.529,-4.147,-9.095,-0.634,-3.711,4.13,12.88,0.0
12872.0,-9.215,-0.909,-3.637,-8.851,-0.648,-3.999,-7.63,14.49,-2.24
,-9.28,-0.816,-3.802,-9.012,-0.476,-3.726,-3.29,14.14,-2.1
,-9.191,-0.718,-3.896,-9.201,0.007,-3.757,-0.21,14.0,-1.89
,-9.05,-0.73,-3.865,-9.234,0.488,-3.939,2.45,14.63,-1.19
12948.0,-9.227,0.282,-3.8,-8.995,-1.079,-4.14,0.21,12.81,-0.35
,-8.842,-0.275,-4.056,-9.081,-0.782,-3.699,-6.65,12.11,0.49
,-8.938,-0.907,-4.116,-9.033,-0.156,-3.929,-8.89,12.46,1.33
,-8.945,-1.304,-3.975,-9.136,0.06,-3.781,-6.3,12.67,1.47
13024.0,-9.182,0.304,-3.807,-9.002,-0.045,-4.298,0.49,11.9,2.94
,-8.899,0.479,-4.204,-9.083,-0.211,-4.082,-3.36,10.92,2.94
,-8.784,0.416,-4.389,-9.081,-0.596,-3.853,-6.72,11.34,2.8
,-8.806,0.175,-4.374,-8.981,-0.763,-4.202,-7.35,12.67,2.1
13099.0,-8.921,-1.113,-4.226,-8.813,-0.483,-4.506,-0.56,16.03,2.1
,-9.055,-1.254,-4.408,-9.28,-0.168,-4.075,2.03,15.12,2.52
,-8.892,-1.086,-4.511,-9.296,0.292,-4.645,5.18,13.51,3.01
,-8.674,-0.838,-4.602,-9.306,0.237,-4.556,7.63,13.23,2.59
13175.0,-8.868,-0.108,-5.006,-8.765,-1.531,-4.963,1.75,9.94,1.89
,-8.433,-0.447,-5.451,-9.493,-1.309,-4.513,1.26,9.73,2.45
,-8.047,-1.101,-5.389,-9.308,-0.759,-4.822,3.36,10.78,2.94
,-8.318,-1.546,-5.207,-8.961,-0.306,-4.815,7.7,11.9,3.71
13251.0,-8.878,0.002,-4.92,-9.191,0.704,-4.757,12.53,7.28,4.55
,-9.024,0.44,-4.91,-9.313,0.084,-4.121,11.55,7.07,2.94
,-9.263,0.78,-4.838,-8.624,0.187,-4.874,10.85,6.16,1.12
,-9.347,1.015,-4.843,-7.681,-0.409,-5.379,8.33,4.83,-0.07
13327.0,-8.038,-1.232,-5.142,-9.155,-0.304,-4.259,-2.8,0.28,5.6
,-8.978,-1.366,-4.822,-9.306,-0.081,-3.867,3.08,1.61,5.46
,-9.38,-1.012,-4.714,-8.734,0.129,-4.484,9.38,1.47,5.04
,-9.354,-0.45,-4.58,-8.725,0.318,-4.671,11.48,0.63,4.48
13402.0,-9.038,0.471,-5.2,-8.854,-1.192,-4.757,-1.68,-1.75,4.55
,-8.763,0.481,-5.542,-9.177,-1.065,-4.472,-2.73,-2.73,3.99
,-8.117,-0.177,-5.229,-9.34,-0.782,-4.252,-3.71,-3.29,4.55
,-8.177,-0.955,-4.882,-9.27,-0.388,-4.085,-2.45,-2.52,5.11
13478.0,-9.215,0.084,-4.188,-8.885,-0.093,-4.496,9.73,-2.59,4.83
,-9.203,0.366,-4.089,-8.708,-0.256,-4.362,8.26,-3.01,4.55
,-8.954,0.409,-4.274,-8.469,-0.28,-4.377,6.16,-3.43,4.62
,-8.825,0.244,-4.57,-8.696,0.038,-4.3,4.83,-3.22,4.55
13553.0,-9.067,0.51,-4.374,-8.938,0.057,-3.936,12.39,0.21,3.43
,-9.11,0.436,-4.276,-8.947,0.053,-3.936,10.92,0.21,2.31
,-9.086,0.191,-4.14,-9.155,-0.273,-3.92,8.33,0.35,1.82
,-8.918,-0.022,-3.865,-9.043,-0.395,-4.02,6.37,1.4,1.47
13629.0,-8.653,-0.414,-4.331,-8.866,0.089,-4.324,3.71,1.75,2.24
,-8.634,-0.297,-4.341,-8.902,-0.022,-4.336,4.9,3.15,2.45
,-8.825,-0.077,-3.951,-8.861,0.311,-4.379,4.83,4.97,2.38
,-9.064,0.194,-4.085,-8.923,0.462,-4.52,3.99,5.46,2.31
13705.0,-9.115,0.467,-4.41,-8.667,-0.237,-4.501,3.36,6.65,-1.89
,-9.227,0.452,-4.537,-8.665,-0.05,-4.582,2.94,6.23,-2.8
,-8.976,0.23,-4.585,-8.842,0.151,-4.578,2.73,6.09,-3.15
,-8.78,0.091,-4.544,-9.146,0.196,-4.602,2.8,5.88,-3.22
13781.0,-9.174,-0.117,-4.633,-8.605,-0.519,-4.759,0.14,6.79,-6.02
,-8.892,-0.749,-4.736,-8.734,-0.419,-4.724,-0.91,6.72,-5.53
,-8.67,-0.991,-4.501,-8.916,-0.495,-4.487,0.7,7.28,-4.76
,-8.748,-0.869,-4.511,-8.995,-0.33,-4.52,3.15,7.21,-4.06
13857.0,-8.997,-0.127,-4.618,-8.88,-1.108,-4.611,2.94,6.02,-2.94
,-8.751,-0.158,-4.451,-8.976,-0.806,-4.745,1.26,5.67,-2.45
,-8.698,-0.531,-4.448,-8.897,-0.361,-5.061,-1.33,5.53,-1.05
,-8.71,-0.907,-4.616,-8.832,-0.414,-4.903,-2.31,5.74,0.28
13932.0,-8.667,-0.68,-4.661,-8.811,-0.263,-5.166,2.31,4.06,2.8
,-8.842,-0.622,-4.889,-9.0,-0.503,-5.14,2.24,3.99,3.5
,-8.973,-0.555,-4.913,-9.002,-0.548,-5.255,2.17,3.64,3.85
,-8.954,-0.328,-5.059,-8.93,-0.73,-4.977,2.38,2.73,3.99
14008.0,-9.091,-0.622,-5.008,-8.887,-0.048,-4.721,2.31,-0.56,3.92
,-9.103,-0.237,-4.975,-8.949,0.151,-4.726,3.36,-1.54,3.92
,-8.825,-0.077,-5.047,-8.873,0.273,-4.898,2.38,-2.73,4.2
,-8.701,-0.108,-4.98,-8.792,0.347,-5.008,1.26,-2.87,4.34
14084.0,-8.629,-0.115,-4.941,-9.153,0.127,-4.884,-5.46,-5.6,3.5
,-8.643,-0.419,-4.795,-8.83,0.065,-4.891,-4.9,-4.69,3.22
,-8.844,-0.302,-4.86,-8.559,-0.302,-4.817,-2.03,-4.48,2.66
,-9.122,-0.153,-4.783,-8.679,-0.692,-4.681,0.35,-4.62,1.89
14160.0,-8.961,-0.706,-4.681,-8.815,-0.345,-4.731,2.73,-3.71,2.87
,-8.906,-0.538,-4.618,-8.758,-0.328,-4.913,5.25,-5.11,3.15
,-8.985,-0.369,-4.8,-8.806,-0.313,-4.908,6.86,-5.88,3.01
,-9.021,-0.426,-4.63,-8.969,-0.029,-5.133,6.93,-6.09,3.01
14235.0,-8.894,0.187,-5.181,-8.734,0.199,-4.645,8.54,-8.4,3.15
,-8.863,0.165,-5.027,-8.918,0.215,-4.341,9.38,-8.54,2.03
,-8.768,0.084,-4.817,-9.167,0.268,-4.264,9.38,-8.68,1.75
,-8.583,0.163,-4.736,-9.155,0.309,-4.302,10.15,-8.89,1.61
14311.0,-8.99,0.206,-4.334,-9.026,-0.254,-4.039,8.96,-11.9,1.12
,-8.916,0.002,-4.401,-9.05,-0.196,-4.133,7.21,-12.81,0.84
,-8.763,0.23,-4.616,-9.141,-0.239,-4.051,6.02,-13.58,0.35
,-8.887,-0.409,-4.381,-9.081,-0.407,-4.128,7.28,-13.16,-0.77
14386.0,-9.009,-0.5,-4.168,-8.902,-0.313,-3.932,4.76,-16.24,-0.14
,-9.069,-0.622,-4.018,-8.847,-0.328,-4.049,5.74,-16.31,-0.07
,-9.083,-0.481,-4.042,-9.005,-0.062,-4.2,6.3,-17.01,0.14
,-8.863,-0.321,-4.188,-9.191,-0.136,-4.058,6.65,-17.43,0.63
14462.0,-9.232,-0.101,-4.14,-8.973,0.105,-3.561,6.3,-18.27,1.54
,-9.184,-0.084,-3.963,-9.06,0.086,-3.369,7.77,-18.48,1.12
,-9.091,-0.098,-3.807,-9.241,0.175,-3.496,8.12,-18.41,0.77
,-8.964,-0.163,-3.611,-9.347,-0.057,-3.204,8.19,-18.41,0.49
14538.0,-9.258,-0.203,-3.156,-9.117,0.151,-3.144,1.68,-19.11,-0.56
,-9.294,-0.373,-3.07,-9.122,-0.132,-3.19,1.89,-18.69,-0.91
,-9.409,-0.278,-2.745,-9.124,-0.342,-3.12,3.36,-17.85,-1.33
,-9.344,-0.065,-2.778,-9.093,-0.445,-2.946,4.41,-17.5,-1.54
14614.0,-9.213,-0.258,-2.788,-9.356,-0.239,-2.917,6.51,-15.47,-1.82
,-9.457,0.0,-2.563,-9.294,-0.483,-3.013,7.84,-14.98,-2.1
,-9.397,0.287,-2.931,-9.308,-0.586,-2.84,5.18,-15.75,-2.03
,-9.232,0.218,-3.068,-9.404,-0.39,-2.417,1.68,-15.75,-1.68
14689.0,-9.588,-0.105,-2.673,-9.105,-1.117,-2.187,7.21,-12.6,-2.24
,-9.38,-0.177,-2.749,-9.268,-0.732,-2.125,2.24,-13.02,-2.38
,-9.39,-0.567,-2.414,-9.476,0.0,-2.309,0.21,-12.18,-1.96
,-9.268,-0.924,-2.453,-9.56,0.364,-2.441,0.49,-10.85,-1.75
14765.0,-9.598,0.486,-3.082,-9.306,0.237,-3.111,2.17,-9.24,-1.05
,-9.452,-0.151,-2.958,-9.423,0.065,-3.396,0.49,-7.98,-1.33
,-9.098,-0.258,-2.91,-9.457,-0.524,-3.001,3.64,-6.44,-1.96
,-9.033,-0.041,-2.917,-9.45,-0.66,-2.917,7.21,-6.02,-2.52
14841.0,-9.497,-0.543,-3.118,-9.646,-0.83,-2.946,7.98,-7.14,-2.03
,-9.512,-0.452,-2.766,-9.404,-0.747,-3.12,6.79,-7.49,-2.1
,-9.505,-0.421,-2.891,-9.323,-0.888,-2.726,3.92,-8.05,-2.24
,-9.481,-0.926,-2.659,-9.541,-0.55,-2.85,0.63,-8.12,-1.96
14917.0,-9.596,-0.469,-2.682,-9.55,-0.144,-2.371,4.48,-8.61,-0.84
,-9.596,-0.333,-2.441,-9.464,-0.12,-2.434,4.76,-8.61,-0.7
,-9.519,-0.139,-2.651,-9.588,-0.12,-2.383,4.55,-8.75,-0.7
,-9.481,-0.302,-2.434,-9.562,-0.254,-2.465,5.04,-8.47,-0.63
14993.0,-9.45,-0.56,-2.376,-9.852,-0.139,-1.56,8.19,-7.14,-0.49
,-9.447,-0.584,-2.056,-9.653,-0.199,-1.218,9.66,-6.3,-0.63
,-9.502,-0.464,-1.697,-9.696,-0.093,-1.924,9.87,-4.9,-0.84
,-9.739,-0.359,-1.378,-9.536,-0.637,-1.835,9.1,-3.64,-1.05
15068.0,-9.514,-0.711,-1.917,-9.677,-0.258,-1.577,-3.85,-0.14,-2.31
,-9.474,-0.644,-2.182,-9.761,-0.045,-1.675,-1.19,1.26,-1.82
,-9.524,-0.749,-1.881,-9.689,-0.211,-1.984,1.4,2.66,-1.12
,-9.538,-0.586,-1.677,-9.574,-0.438,-2.283,3.78,3.92,-0.7
15144.0,-9.407,-0.646,-2.553,-9.462,-0.424,-2.8,-2.52,6.86,-1.05
,-9.395,-0.754,-2.726,-9.485,-0.407,-2.802,-1.12,7.28,-0.7
,-9.407,-0.589,-2.704,-9.531,-0.373,-3.058,2.66,7.56,-0.28
,-9.555,-0.285,-2.936,-9.533,-0.5,-3.056,4.97,7.42,-0.07
15219.0,-9.373,-0.668,-3.113,-9.641,-0.285,-2.503,4.06,5.74,0.07
,-9.323,-0.778,-2.828,-9.517,-0.447,-2.501,5.32,5.88,0.28
,-9.464,-0.696,-2.592,-9.531,-0.428,-2.632,6.51,5.88,0.35
,-9.646,-0.56,-2.556,-9.586,-0.471,-2.728,6.72,6.09,0.49
15295.0,-9.574,-0.503,-2.948,-9.452,-0.345,-3.197,0.77,5.25,-0.21
,-9.603,-0.536,-3.077,-9.454,-0.211,-3.233,0.91,4.9,-0.07
,-9.438,-0.579,-3.08,-9.421,-0.438,-3.044,1.89,4.48,0.14
,-9.471,-0.424,-3.168,-9.5,-0.581,-2.883,3.43,4.13,0.28
15371.0,-9.605,-0.605,-2.773,-9.411,-0.696,-2.931,3.15,2.17,0.0
,-9.643,-0.498,-2.843,-9.373,-0.672,-2.97,3.5,1.75,0.0
,-9.536,-0.491,-2.903,-9.459,-0.684,-2.936,2.38,1.19,-0.14
,-9.5,-0.625,-2.917,-9.452,-0.672,-2.721,1.4,1.05,0.0
15447.0,-9.462,-0.541,-2.548,-9.586,-0.428,-2.728,5.74,0.98,1.05
,-9.555,-0.436,-2.527,-9.569,-0.546,-2.776,5.88,1.26,0.91
,-9.56,-0.38,-2.548,-9.541,-0.574,-2.833,4.34,0.98,0.77
,-9.586,-0.349,-2.606,-9.502,-0.603,-2.905,2.45,0.91,0.7
15522.0,-9.521,-0.622,-2.836,-9.435,-0.711,-2.888,1.19,0.42,0.21
,-9.538,-0.476,-2.857,-9.435,-0.842,-2.747,2.03,0.21,0.21
,-9.562,-0.45,-2.922,-9.552,-0.699,-2.656,1.26,-0.14,0.28
,-9.5,-0.615,-2.917,-9.617,-0.534,-2.575,0.49,-0.63,0.28
15598.0,-9.588,-0.546,-2.546,-9.538,-0.646,-2.915,2.73,0.0,1.26
,-9.497,-0.579,-2.563,-9.5,-0.617,-2.97,1.82,-0.07,1.26
,-9.526,-0.505,-2.694,-9.447,-0.622,-2.867,1.68,-0.07,1.33
,-9.562,-0.574,-2.836,-9.418,-0.526,-2.529,1.47,-0.28,1.33
15673.0,-9.574,-0.385,-2.623,-9.552,-0.565,-2.721,3.36,-0.35,1.82
,-9.524,-0.33,-2.582,-9.529,-0.486,-2.74,1.96,-0.42,1.61
,-9.579,-0.462,-2.536,-9.545,-0.407,-2.826,0.49,-0.7,1.33
,-9.591,-0.526,-2.711,-9.579,-0.311,-2.776,-0.14,-0.84,1.26
15749.0,-9.533,-0.313,-2.692,-9.509,-0.325,-2.357,1.89,-1.05,0.98
,-9.514,-0.38,-2.68,-9.581,-0.156,-2.355,0.56,-1.26,0.63
,-9.543,-0.392,-2.522,-9.576,-0.218,-2.414,-0.56,-1.33,0.21
,-9.538,-0.376,-2.469,-9.579,-0.33,-2.508,-1.4,-0.98,0.0
15825.0,-9.581,-0.419,-2.577,-9.586,-0.402,-2.546,-7.91,-0.77,-1.4
,-9.538,-0.565,-2.615,-9.572,-0.419,-2.577,-6.16,-0.42,-1.33
,-9.576,-0.51,-2.611,-9.569,-0.459,-2.692,-3.22,0.21,-0.91
,-9.619,-0.474,-2.498,-9.514,-0.56,-2.797,-0.91,0.77,-0.56
15901.0,-9.536,-0.735,-2.754,-9.541,-0.61,-2.536,-1.89,0.0,-0.42
,-9.512,-0.78,-2.63,-9.512,-0.481,-2.517,0.07,0.14,-0.07
,-9.488,-0.668,-2.592,-9.514,-0.558,-2.481,2.1,0.35,0.21
,-9.586,-0.699,-2.627,-9.512,-0.5,-2.505,2.94,0.35,0.56
15977.0,-9.536,-0.526,-2.326,-9.567,-0.586,-2.496,0.56,0.42,0.7
,-9.574,-0.385,-2.601,-9.572,-0.479,-2.606,0.49,0.56,0.7
,-9.548,-0.543,-2.46,-9.517,-0.421,-2.541,0.0,0.63,0.84
,-9.552,-0.591,-2.496,-9.538,-0.455,-2.343,0.56,0.77,0.98
16052.0,-9.533,-0.452,-2.101,-9.696,-0.395,-1.826,-1.75,1.19,0.84
,-9.567,-0.373,-1.991,-9.622,-0.622,-2.067,-2.94,1.54,0.77
,-9.581,-0.488,-1.687,-9.442,-0.644,-2.383,-4.41,2.87,0.91
,-9.667,-0.311,-1.783,-9.385,-0.627,-2.544,-3.99,3.57,0.91
16128.0,-9.385,-0.847,-2.213,-9.935,0.61,-1.704,-2.66,6.79,2.03
,-9.368,-0.727,-2.087,-9.629,0.665,-2.178,1.75,8.33,2.59
,-9.502,-0.708,-1.809,-9.481,0.16,-2.302,5.04,10.01,3.08
,-9.588,-0.352,-1.108,-9.234,-0.656,-2.68,7.0,11.41,3.22
16204.0,-9.186,-1.17,-2.324,-9.569,-0.136,-3.204,-15.4,12.18,1.19
,-9.574,-1.055,-2.601,-9.366,-0.457,-3.453,-6.93,12.74,1.68
,-9.409,-0.325,-2.974,-9.351,-1.139,-3.075,-3.29,12.39,1.68
,-9.471,-0.316,-2.228,-9.311,-1.457,-2.749,-2.24,13.58,2.17
16280.0,-9.442,-0.859,-2.682,-9.576,-0.565,-3.381,8.19,14.35,4.27
,-9.337,-0.546,-2.917,-9.495,-0.395,-2.804,9.87,13.09,3.99
,-9.402,-0.017,-3.525,-9.5,0.203,-2.659,7.84,12.6,3.57
,-9.529,-0.376,-3.183,-9.136,1.017,-2.86,3.99,13.44,3.5
16355.0,-9.313,1.036,-2.917,-9.0,-0.294,-3.003,1.89,12.53,0.28
,-9.464,0.318,-2.857,-9.485,-0.469,-2.893,-6.58,13.23,-0.7
,-9.234,-0.342,-2.515,-9.631,-0.849,-3.063,-8.12,14.56,-1.4
,-9.153,-0.529,-2.309,-9.505,-1.338,-2.977,-3.15,15.12,-1.82
16431.0,-9.299,-1.433,-3.084,-9.292,0.409,-3.245,2.59,15.54,0.28
,-8.861,-1.316,-2.63,-9.251,0.034,-3.154,9.52,17.78,1.26
,-9.043,-0.62,-2.828,-9.239,0.074,-2.824,15.75,16.45,1.47
,-9.182,0.261,-3.273,-9.433,0.304,-3.683,15.68,13.58,0.49
16506.0,-9.667,0.246,-4.097,-8.88,-1.223,-2.994,-3.78,11.55,-0.91
,-9.66,-0.191,-4.185,-9.265,-0.615,-2.979,-11.34,10.08,-0.7
,-9.074,-1.043,-3.989,-9.464,-0.019,-3.549,-16.03,11.76,-0.63
,-8.808,-1.481,-3.503,-9.509,0.074,-4.039,-12.11,14.77,-0.91
16582.0,-9.206,-0.06,-4.243,-9.596,0.311,-4.128,-5.6,13.65,0.35
,-8.83,0.045,-3.879,-9.529,-0.651,-4.147,-3.36,14.42,-0.07
,-9.04,0.325,-3.637,-9.299,-1.689,-3.994,2.66,13.3,-1.4
,-9.335,0.5,-4.03,-8.784,-2.144,-3.726,3.43,9.45,-2.8
16658.0,-8.871,-2.0,-3.518,-8.969,0.246,-3.802,5.67,11.55,0.07
,-9.251,-1.469,-3.264,-9.067,0.457,-3.862,11.69,11.41,0.7
,-9.189,-0.735,-3.355,-9.076,0.55,-3.831,13.23,10.99,1.96
,-9.038,-0.218,-3.666,-9.294,0.297,-3.599,9.87,10.57,3.15
16734.0,-10.091,0.062,-3.001,-8.739,-0.672,-3.482,-5.39,12.04,0.28
,-9.753,0.034,-3.175,-8.887,-0.943,-3.427,-7.49,8.82,0.63
,-9.052,-0.074,-3.364,-9.107,-0.945,-3.558,-9.24,8.68,1.05
,-8.914,-0.321,-3.319,-9.194,-0.383,-4.054,-7.91,9.87,1.61
16810.0,-9.485,0.036,-3.896,-9.289,-0.94,-4.032,-0.49,13.86,2.03
,-8.679,0.548,-4.623,-9.194,-1.266,-3.776,-4.76,10.29,2.52
,-8.334,0.371,-4.633,-9.134,-1.539,-3.721,-10.22,11.27,2.52
,-8.703,-0.428,-4.365,-9.026,-1.644,-3.697,-12.11,13.72,2.17
16885.0,-9.206,-1.247,-3.927,-8.392,0.297,-5.123,5.04,16.52,5.18
,-9.141,-0.598,-4.585,-8.861,0.136,-4.724,8.96,14.28,5.67
,-8.823,-0.019,-4.862,-9.256,0.242,-4.664,10.15,12.88,6.16
,-8.363,0.4,-5.291,-9.392,0.33,-4.152,7.84,12.95,6.16
16961.0,-9.179,0.507,-4.585,-8.708,0.141,-5.43,6.58,12.81,-0.35
,-9.091,0.129,-4.508,-8.169,-0.455,-5.413,5.95,12.67,-0.91
,-9.225,-0.043,-4.515,-8.09,-1.297,-5.171,7.98,11.62,-1.82
,-9.105,0.168,-4.977,-8.76,-1.84,-4.678,9.87,10.01,-2.17
17037.0,-9.318,-1.809,-4.547,-9.074,-0.493,-4.628,8.61,10.64,2.52
,-9.509,-1.405,-4.348,-8.949,-0.73,-4.401,11.06,9.38,2.94
,-9.21,-1.01,-4.324,-8.995,-0.761,-4.061,11.13,8.05,3.57
,-9.064,-0.503,-4.494,-8.993,-0.369,-4.221,9.38,6.72,3.92
17113.0,-8.586,0.06,-4.496,-9.265,0.888,-5.03,7.7,4.83,5.88
,-8.729,0.412,-4.547,-9.134,1.125,-4.578,7.14,4.97,5.95
,-8.588,0.522,-4.759,-8.684,1.062,-4.513,7.7,5.18,5.53
,-8.777,0.761,-4.896,-8.622,0.364,-4.542,9.73,5.53,3.78
17188.0,-9.009,-0.172,-4.671,-8.701,-0.981,-4.147,5.39,3.71,-2.59
,-9.38,-0.517,-4.573,-8.514,-0.598,-4.647,5.67,3.57,-3.22
,-9.215,-0.732,-4.279,-8.691,-0.558,-4.683,6.86,3.29,-2.87
,-8.792,-0.897,-4.494,-8.969,-0.637,-4.673,7.0,3.15,-2.31
17264.0,-9.225,-0.905,-4.403,-8.758,-0.342,-4.348,2.87,5.25,-0.98
,-8.863,-0.924,-4.13,-9.052,0.325,-4.535,3.57,5.11,0.21
,-8.634,-0.804,-4.456,-9.095,0.512,-4.544,4.55,4.9,1.61
,-8.588,-0.641,-4.53,-8.902,0.254,-4.69,5.67,5.67,2.1
17339.0,-8.717,-0.333,-4.602,-8.873,-0.306,-4.944,-0.56,7.21,-0.35
,-8.806,-0.644,-4.867,-8.949,-0.885,-4.616,1.4,6.79,-0.91
,-8.887,-0.503,-4.822,-8.765,-1.062,-4.681,3.85,6.37,-1.26
,-8.856,-0.172,-4.781,-8.55,-0.948,-4.676,4.2,6.86,-0.91
17415.0,-8.966,-0.747,-4.726,-8.299,-1.077,-4.422,1.54,6.51,0.63
,-9.122,-0.866,-4.743,-8.222,-0.608,-4.819,1.33,5.81,1.05
,-8.897,-0.991,-4.611,-8.792,-0.213,-5.025,1.19,5.53,1.82
,-8.763,-1.077,-4.302,-9.227,-0.182,-4.939,1.05,6.3,2.73
17491.0,-9.196,-0.464,-4.757,-8.464,-0.306,-4.494,1.82,7.42,3.64
,-8.985,-0.89,-4.424,-9.031,0.182,-4.92,2.03,6.65,4.27
,-8.648,-1.024,-4.109,-9.284,0.438,-5.037,4.2,6.93,5.11
,-8.315,-0.72,-4.092,-9.1,0.357,-4.968,6.72,8.12,6.09
17567.0,-8.76,0.306,-5.044,-8.804,0.335,-5.501,3.36,7.63,3.64
,-8.461,0.203,-5.102,-9.019,0.165,-5.307,2.1,7.35,3.43
,-8.528,0.261,-5.114,-8.947,0.287,-5.391,1.4,7.63,3.01
,-8.734,0.373,-5.394,-8.744,0.201,-5.465,0.42,7.42,2.31
17642.0,-8.83,-0.014,-5.341,-8.854,-1.342,-5.291,-3.85,0.21,-1.05
,-8.756,-0.38,-5.379,-8.737,-1.687,-5.193,-5.11,-1.33,-1.19
,-8.737,-0.814,-5.537,-8.543,-1.91,-4.963,-5.46,-1.82,-0.77
,-8.784,-1.007,-5.482,-8.574,-1.996,-4.98,-4.13,-2.87,-0.56
17718.0,-8.737,-1.788,-5.037,-8.617,-0.876,-5.501,-2.66,-3.78,7.63
,-8.959,-1.218,-5.106,-8.801,-0.833,-5.458,-1.12,-5.39,9.73
,-8.734,-0.739,-5.343,-8.796,-0.699,-5.597,-1.47,-7.35,11.62
,-8.574,-0.641,-5.441,-8.983,-0.491,-5.138,-3.92,-8.33,12.81
17794.0,-9.093,-0.01,-4.831,-8.698,0.814,-4.925,6.3,-10.85,11.13
,-8.799,0.524,-4.903,-8.871,0.672,-4.946,6.93,-11.83,10.22
,-8.672,0.933,-4.987,-9.11,0.62,-4.908,7.07,-12.74,9.38
,-8.643,0.957,-4.98,-9.206,0.931,-4.944,7.0,-14.0,8.61
17870.0,-9.174,0.916,-4.527,-9.055,-0.184,-4.491,5.6,-15.96,1.33
,-8.751,0.914,-4.779,-9.27,0.191,-4.592,0.91,-18.34,0.91
,-8.27,0.553,-4.941,-9.141,0.175,-4.128,-2.94,-18.62,0.42
,-8.536,0.062,-4.841,-9.026,-0.235,-4.185,-2.94,-17.5,-0.42
17946.0,-8.693,-0.22,-4.573,-8.885,-0.991,-4.317,-0.14,-19.32,-0.7
,-8.55,-0.663,-4.563,-9.112,-0.957,-4.085,-0.91,-19.39,0.28
,-9.072,-0.84,-4.329,-8.964,-0.471,-4.061,0.28,-19.25,0.7
,-9.064,-0.778,-4.554,-8.818,-0.05,-3.9,1.05,-20.58,1.19
18021.0,-8.808,0.182,-3.972,-8.904,-0.086,-3.845,5.46,-20.16,3.85
,-9.002,0.225,-3.831,-9.143,-0.158,-3.594,3.92,-20.16,4.48
,-9.093,0.223,-3.977,-9.304,0.101,-3.331,1.89,-20.79,5.32
,-8.739,0.103,-4.03,-9.246,0.541,-3.312,-1.26,-21.63,5.74
18097.0,-9.33,0.845,-3.345,-9.026,0.914,-3.625,7.49,-17.71,2.24
,-9.105,0.792,-3.597,-8.971,1.175,-3.556,5.04,-17.22,1.89
,-9.191,0.526,-3.264,-9.016,1.189,-3.776,4.62,-15.89,1.68
,-9.438,0.402,-3.266,-9.1,0.964,-3.853,4.62,-17.64,0.98
18173.0,-9.268,0.613,-3.585,-9.072,-0.421,-2.733,-11.55,-21.0,-5.11
,-9.383,0.108,-3.429,-9.543,-0.495,-2.73,-11.83,-19.18,-5.95
,-9.387,-0.227,-3.192,-9.256,-0.105,-3.364,-9.31,-16.87,-6.79
,-9.371,-0.529,-2.613,-9.174,0.041,-3.692,-6.65,-15.19,-6.93
18249.0,-9.191,-0.33,-3.63,-9.557,-0.163,-2.23,-9.73,-21.07,-4.34
,-9.182,-0.486,-3.041,-9.239,-0.141,-2.544,-8.33,-19.67,-4.48
,-9.076,-0.17,-2.886,-9.368,-0.605,-2.778,-7.84,-18.9,-4.41
,-9.105,-0.211,-2.414,-9.624,-1.079,-2.498,-9.17,-18.2,-4.13
18324.0,-9.239,-0.598,-2.647,-9.469,0.558,-3.262,-2.24,-17.43,-1.54
,-9.162,-0.172,-2.709,-9.469,-0.014,-3.233,1.54,-15.96,-2.03
,-9.61,-0.057,-2.594,-9.349,-0.608,-2.771,4.06,-14.0,-2.38
,-9.552,0.538,-2.888,-9.186,-0.62,-2.118,3.01,-14.98,-2.52
18400.0,-9.395,-0.22,-1.673,-9.323,-0.06,-2.132,9.24,-9.24,-2.87
,-9.746,0.227,-1.634,-9.519,-0.266,-1.941,10.92,-8.19,-3.08
,-9.88,0.507,-1.725,-9.536,0.139,-2.347,8.19,-9.31,-2.87
,-9.622,0.517,-2.273,-9.828,0.407,-2.551,2.31,-10.43,-2.73
18475.0,-9.538,0.404,-2.812,-9.411,0.115,-2.142,2.87,-4.62,-3.99
,-9.395,-0.045,-2.828,-9.524,-0.34,-2.12,2.1,-3.36,-4.06
,-9.663,-0.66,-2.146,-9.603,-0.388,-1.95,5.04,-1.05,-3.92
,-9.378,-0.273,-1.917,-9.392,-0.357,-1.898,10.08,-2.94,-3.5
18551.0,-9.375,-0.687,-1.874,-9.593,0.002,-2.254,6.58,1.05,-2.45
,-9.524,-0.639,-1.63,-9.454,-0.048,-2.752,9.24,3.78,-2.1
,-9.694,-0.278,-1.809,-9.533,-0.242,-3.061,11.69,5.39,-1.96
,-9.677,-0.227,-1.862,-9.375,-0.273,-3.489,11.83,6.09,-2.03
18627.0,-9.945,-0.55,-3.501,-9.306,-0.814,-3.472,12.88,7.0,-0.91
,-9.624,0.086,-4.092,-9.282,-0.945,-2.682,11.13,0.35,-1.4
,-9.294,0.065,-4.013,-9.698,-0.811,-2.067,4.55,-2.8,-2.03
,-9.277,-0.493,-3.924,-9.715,-0.474,-1.615,0.56,-3.71,-2.03
18703.0,-9.684,-0.11,-1.058,-9.227,-0.543,-2.608,14.14,0.7,0.21
,-9.82,0.328,-1.462,-9.617,-0.928,-2.245,12.11,1.05,0.21
,-9.617,0.299,-2.192,-9.715,-0.323,-2.099,7.28,0.84,-0.07
,-9.316,-0.069,-2.529,-9.418,0.17,-2.089,3.5,2.1,0.07
18778.0,-9.584,-0.282,-1.735,-9.33,-1.027,-2.462,-1.12,0.56,-0.35
,-9.876,-0.469,-1.931,-9.488,-0.897,-2.309,-3.08,-0.56,-0.49
,-9.608,-0.17,-2.438,-9.572,-0.534,-2.182,-5.53,-2.59,-0.98
,-9.33,-0.644,-2.563,-9.734,-0.249,-2.099,-8.33,-2.24,-0.91
18854.0,-9.756,-0.012,-2.51,-9.395,-0.737,-2.575,4.27,2.31,0.84
,-9.586,-0.062,-2.759,-9.639,-0.414,-2.635,1.4,1.89,0.77
,-9.428,-0.388,-2.948,-9.698,-0.179,-2.565,0.77,2.38,0.63
,-9.323,-0.632,-2.879,-9.617,-0.232,-2.56,2.94,3.64,0.91
18930.0,-9.624,-0.194,-2.694,-9.526,-0.648,-2.24,5.67,3.22,1.4
,-9.596,-0.294,-2.737,-9.653,-0.514,-2.118,4.2,2.8,1.33
,-9.471,-0.29,-2.678,-9.722,-0.105,-2.182,3.36,2.24,1.19
,-9.366,-0.51,-2.453,-9.67,-0.084,-2.288,2.52,2.87,1.19
19006.0,-9.524,-0.153,-2.41,-9.567,-0.352,-2.862,2.1,5.53,0.98
,-9.497,-0.261,-2.486,-9.552,-0.316,-2.912,1.54,6.44,0.91
,-9.495,-0.318,-2.594,-9.533,-0.337,-3.008,2.03,7.0,0.84
,-9.517,-0.431,-2.527,-9.603,-0.311,-3.218,2.94,7.63,0.84
19082.0,-9.557,-0.28,-3.324,-9.536,-0.436,-2.563,5.95,5.95,0.98
,-9.469,-0.392,-3.216,-9.646,-0.258,-2.582,5.53,5.39,0.84
,-9.55,-0.436,-3.092,-9.545,-0.237,-2.575,5.67,4.41,0.84
,-9.445,-0.325,-2.855,-9.529,-0.352,-2.558,4.9,3.64,0.84
19157.0,-9.521,-0.491,-2.63,-9.631,-0.294,-2.821,4.41,4.48,0.91
,-9.543,-0.493,-2.659,-9.462,-0.321,-3.01,5.74,4.9,1.05
,-9.555,-0.412,-2.723,-9.426,-0.613,-3.104,6.72,5.39,1.26
,-9.545,-0.325,-2.807,-9.428,-0.814,-3.149,7.0,5.95,1.26
19233.0,-9.447,-0.742,-3.211,-9.617,-0.022,-2.699,12.88,7.28,2.24
,-9.402,-0.632,-3.087,-9.612,-0.012,-2.682,15.89,7.49,2.73
,-9.478,-0.345,-2.996,-9.56,-0.273,-2.666,17.57,7.35,2.87
,-9.591,-0.163,-2.699,-9.418,-0.426,-2.749,17.99,7.63,2.87
19308.0,-9.373,-0.479,-2.704,-9.631,0.019,-2.958,10.5,5.81,2.59
,-9.392,-0.385,-2.716,-9.34,-0.036,-3.072,11.83,5.88,2.87
,-9.517,-0.141,-2.682,-9.107,-0.4,-3.13,11.62,5.88,2.87
,-9.548,0.05,-2.761,-9.253,-0.806,-3.046,8.96,5.11,2.45
19384.0,-9.39,-0.787,-2.797,-9.485,0.105,-2.458,-1.4,1.82,0.35
,-9.56,-0.225,-2.702,-9.488,-0.194,-2.484,0.7,1.75,0.77
,-9.56,-0.163,-2.544,-9.438,-0.395,-2.501,-1.33,1.05,0.77
,-9.469,0.014,-2.381,-9.316,-0.397,-2.615,-4.76,0.42,0.49
19460.0,-9.344,-0.584,-2.493,-9.45,-0.512,-1.993,-8.47,2.66,0.35
,-9.323,-0.553,-2.355,-9.605,-0.455,-2.113,-6.02,4.2,0.84
,-9.347,-0.543,-2.376,-9.569,-0.287,-2.345,-3.92,6.09,1.47
,-9.385,-0.663,-2.041,-9.541,-0.146,-2.534,-1.54,8.12,2.03
19536.0,-9.313,0.053,-2.828,-9.533,-0.062,-3.187,-2.38,11.76,2.31
,-9.335,-0.081,-2.912,-9.356,-0.416,-2.783,-5.25,12.11,2.1
,-9.474,-0.132,-2.991,-9.292,-0.567,-2.278,-7.63,11.41,1.75
,-9.505,0.101,-3.111,-9.27,-0.761,-1.716,-10.78,9.73,1.4
19611.0,-9.653,-0.577,-1.682,-9.067,-0.359,-3.221,-6.72,14.28,2.8
,-9.538,0.019,-2.364,-8.976,-0.091,-3.484,-6.44,14.35,2.66
,-9.306,-0.002,-2.907,-9.17,0.134,-3.264,-9.87,14.14,2.66
,-9.069,-0.218,-3.202,-9.261,0.158,-3.826,-12.32,15.19,3.08
19687.0,-9.124,-0.304,-3.63,-9.134,0.524,-3.139,-10.85,14.98,2.52
,-9.072,-0.854,-3.51,-9.385,1.342,-3.592,-12.6,15.33,3.36
,-9.371,-1.278,-2.446,-9.167,1.046,-4.566,-7.21,17.99,4.27
,-9.655,-0.692,-2.699,-9.349,-0.158,-4.704,2.66,17.01,4.55
19762.0,-9.342,-1.158,-4.29,-9.512,0.814,-3.486,-16.66,13.09,2.73
,-9.119,-0.969,-3.281,-9.256,0.112,-3.235,-6.3,14.84,2.66
,-9.091,0.153,-3.252,-9.031,-0.739,-3.037,1.68,14.28,1.4
,-9.251,1.039,-3.723,-9.076,-1.089,-2.242,-0.98,12.04,0.0
19838.0,-9.366,-0.507,-2.223,-8.77,-1.062,-3.75,5.6,20.23,1.96
,-9.392,0.388,-3.037,-8.837,-0.981,-3.204,7.77,16.8,1.61
,-9.488,0.244,-3.74,-8.851,0.053,-3.764,1.82,15.19,1.68
,-9.32,-0.505,-3.869,-9.067,0.677,-3.795,-2.87,16.1,2.31
19914.0,-9.213,0.747,-3.812,-8.959,-1.149,-4.398,9.8,18.69,2.66
,-9.196,0.369,-4.018,-8.708,-1.103,-4.377,2.66,18.06,2.59
,-9.191,-0.337,-4.14,-8.863,-0.802,-3.984,0.21,17.5,2.94
,-9.158,-0.864,-4.501,-9.005,-0.235,-3.34,1.12,16.94,3.78
19990.0,-8.77,0.811,-3.747,-9.361,0.376,-3.831,15.89,19.95,5.39
,-9.028,1.536,-3.539,-8.916,0.438,-3.9,12.32,20.51,4.76
,-9.036,1.541,-3.955,-8.526,0.859,-4.451,4.62,19.6,3.99
,-9.191,0.983,-3.814,-8.457,0.593,-5.08,-1.75,20.16,2.94
20066.0,-8.894,-0.526,-4.929,-8.933,-0.45,-4.441,-2.73,16.59,1.89
,-8.961,-1.728,-4.532,-8.935,0.287,-4.57,-0.63,18.76,3.08
,-8.875,-2.024,-4.111,-8.672,0.598,-4.764,6.37,21.0,3.85
,-8.923,-1.443,-4.106,-8.705,0.668,-4.374,13.72,19.88,4.34
20141.0,-8.782,0.634,-4.47,-9.251,0.146,-4.733,-3.01,19.53,5.04
,-9.072,0.553,-4.642,-8.964,0.419,-4.855,-5.25,19.11,5.04
,-9.146,0.28,-4.781,-8.753,0.617,-4.896,-5.32,18.48,4.97
,-8.88,0.12,-5.14,-8.734,0.694,-4.776,-2.87,18.27,4.2
20217.0,-8.71,0.318,-4.946,-8.21,0.402,-5.3,0.0,12.53,1.19
,-8.67,-0.026,-5.19,-8.169,0.244,-4.86,-2.87,11.69,0.91
,-9.076,-0.06,-5.229,-8.471,0.01,-4.831,-3.36,11.2,0.07
,-8.873,0.115,-5.274,-8.555,-0.378,-5.14,-1.54,10.64,-0.7
20293.0,-8.758,-0.677,-5.037,-8.507,-0.443,-4.949,1.82,11.69,3.15
,-8.679,-1.153,-4.949,-8.866,-0.034,-4.922,4.41,12.32,3.78
,-8.808,-1.189,-4.929,-9.076,0.122,-5.087,8.89,12.95,4.2
,-8.564,-0.981,-4.86,-9.143,0.311,-5.432,13.02,12.88,3.99
20369.0,-8.614,0.392,-5.848,-8.593,0.713,-4.908,7.98,6.79,4.06
,-8.504,0.596,-5.75,-8.356,0.615,-5.087,9.45,6.72,2.59
,-8.662,0.919,-5.477,-7.961,0.232,-4.922,10.99,7.28,0.56
,-8.452,1.034,-5.31,-8.313,0.148,-5.066,10.36,7.49,-1.47
20444.0,-9.237,0.318,-5.013,-8.622,0.428,-5.291,4.06,9.03,-1.54
,-9.344,0.278,-4.903,-8.653,0.117,-5.43,3.36,8.12,-2.17
,-9.179,0.282,-4.917,-8.392,-0.718,-5.607,2.52,7.28,-2.94
,-8.569,0.11,-5.027,-8.406,-1.704,-5.164,2.45,6.37,-3.99
20520.0,-8.44,-1.974,-5.075,-8.294,-0.562,-5.056,4.2,3.57,0.35
,-8.658,-1.417,-5.08,-8.851,-0.811,-4.886,9.94,4.13,1.19
,-8.392,-0.871,-4.831,-8.918,-0.282,-4.661,12.11,3.64,3.01
,-7.964,-0.617,-4.934,-8.851,0.677,-5.157,9.73,3.99,5.32
20595.0,-8.873,0.653,-5.085,-8.078,1.323,-5.209,8.89,4.34,6.02
,-8.847,0.57,-4.661,-8.418,1.268,-4.956,8.26,3.99,5.04
,-8.454,0.321,-4.666,-8.729,0.871,-4.893,7.56,4.55,5.18
,-8.023,0.806,-5.049,-8.815,0.404,-4.659,9.1,5.88,4.69
20671.0,-8.536,0.28,-5.126,-8.954,-0.871,-5.327,1.19,8.33,-0.42
,-8.454,0.129,-5.233,-8.665,-1.208,-4.838,0.98,8.05,-0.56
,-8.519,-0.101,-5.43,-8.33,-1.206,-4.92,1.26,7.77,-0.77
,-8.952,-0.34,-5.578,-8.177,-0.905,-5.03,1.19,7.21,-0.7
20747.0,-8.404,-0.309,-5.236,-8.863,0.94,-5.525,6.3,6.37,3.71
,-8.839,0.091,-5.427,-9.028,0.737,-5.43,6.23,6.02,3.29
,-8.914,0.507,-5.377,-8.842,0.412,-5.585,6.58,5.25,2.59
,-8.813,0.907,-5.537,-8.332,-0.132,-5.698,6.93,3.85,1.68
20823.0,-8.215,-0.481,-5.65,-8.416,-0.321,-5.552,5.6,1.33,-1.82
,-8.311,-0.677,-5.599,-7.822,-0.457,-5.587,7.21,1.75,-1.89
,-8.447,-0.488,-5.767,-7.952,-0.357,-5.53,8.75,1.12,-1.82
,-8.507,-0.498,-5.475,-8.569,-0.172,-5.585,8.33,0.63,-1.47
20899.0,-9.134,-0.055,-5.42,-7.516,0.797,-5.384,5.39,-1.19,0.7
,-9.179,0.06,-5.078,-8.136,0.644,-5.236,6.3,-3.01,0.98
,-8.636,0.311,-4.578,-8.983,0.239,-4.905,5.67,-3.15,1.68
,-7.985,0.687,-4.992,-9.093,-0.002,-4.795,4.41,-3.29,1.96
20974.0,-8.617,-0.172,-4.98,-8.399,-0.124,-5.138,2.59,-2.66,-0.56
,-8.385,-0.342,-4.951,-8.131,-0.409,-5.13,3.57,-2.1,-0.21
,-8.411,-0.263,-4.994,-8.449,-0.514,-4.939,4.83,-1.05,-0.21
,-8.6,0.014,-5.276,-8.899,-0.038,-5.169,5.18,-0.56,-0.28
21050.0,-8.916,0.342,-5.367,-8.784,0.065,-5.59,3.29,-1.33,0.56
,-8.643,0.641,-5.53,-8.988,0.022,-5.602,2.03,-2.1,0.0
,-8.373,0.701,-5.705,-8.993,0.115,-5.674,-0.7,-2.59,-0.63
,-8.37,0.34,-5.705,-8.873,0.256,-5.841,-2.8,-2.45,-1.12
21126.0,-8.399,-0.392,-5.631,-8.835,-0.976,-5.118,-0.28,-8.54,-3.15
,-7.928,-1.132,-5.492,-8.634,-0.785,-5.097,-1.4,-8.33,-2.17
,-8.227,-1.443,-5.351,-8.708,-0.689,-4.96,0.7,-7.49,-0.84
,-8.708,-1.309,-5.152,-8.349,-0.634,-5.013,4.48,-7.28,0.42
21202.0,-8.485,-0.759,-5.111,-8.655,0.062,-5.071,1.05,-10.71,6.37
,-8.454,-0.84,-5.152,-8.454,0.294,-5.126,1.12,-10.92,7.49
,-8.454,-0.708,-5.19,-8.593,0.397,-5.181,3.71,-10.57,7.84
,-8.875,-0.359,-4.977,-8.794,0.474,-5.073,5.6,-10.36,7.63
21277.0,-9.024,0.383,-5.066,-8.536,0.534,-4.803,5.81,-12.25,4.13
,-8.976,0.266,-4.625,-8.899,0.756,-4.752,4.76,-12.32,3.64
,-8.732,0.581,-4.855,-9.036,0.816,-4.807,3.71,-13.58,3.64
,-8.184,0.546,-5.135,-9.009,0.526,-4.819,2.87,-13.79,2.87
21353.0,-8.763,0.175,-4.893,-9.407,0.237,-4.365,-0.49,-15.68,-1.12
,-8.593,0.108,-5.032,-8.933,0.189,-4.427,1.4,-15.33,-2.1
,-8.768,0.11,-5.099,-8.425,-0.235,-4.642,4.27,-14.98,-3.85
,-9.263,0.117,-4.561,-8.275,-0.632,-4.515,6.37,-14.42,-5.18
21428.0,-8.538,-1.153,-3.982,-8.564,-0.318,-4.903,-1.26,-16.94,-3.43
,-9.04,-0.285,-4.637,-8.646,-0.617,-4.726,4.13,-17.08,-2.94
,-9.275,-0.091,-4.678,-9.502,-0.744,-3.888,4.83,-17.64,-2.38
,-8.861,-0.189,-4.554,-9.036,0.136,-4.343,1.96,-18.41,-1.68
21504.0,-8.67,0.294,-4.489,-9.048,-0.086,-4.128,6.44,-20.23,-1.19
,-8.861,-0.048,-4.221,-8.928,-0.201,-4.209,3.78,-19.46,-0.84
,-9.04,0.11,-4.293,-8.988,-0.431,-3.936,3.36,-20.3,-0.84
,-8.914,0.156,-4.269,-9.399,-0.651,-3.623,2.38,-20.02,-1.33
21580.0,-8.973,-0.581,-4.082,-9.198,0.029,-4.006,3.22,-22.54,-0.42
,-8.641,-0.639,-4.216,-9.177,0.299,-3.728,3.22,-23.17,0.35
,-8.842,-0.704,-4.314,-9.206,0.22,-3.451,5.88,-21.91,0.84
,-9.244,-0.455,-3.929,-9.0,-0.043,-3.623,9.59,-20.86,0.7
21656.0,-9.064,-0.452,-3.352,-8.859,0.407,-3.644,11.2,-12.11,0.07
,-9.605,-0.66,-3.032,-9.344,0.22,-3.427,14.84,-12.04,0.21
,-9.521,-0.11,-3.233,-9.354,0.122,-3.175,16.31,-17.64,0.7
,-8.794,0.481,-3.733,-9.237,0.096,-2.984,13.79,-20.65,0.77
21731.0,-9.373,0.081,-2.881,-9.421,-0.328,-3.687,3.15,-16.38,-2.03
,-9.141,0.323,-3.4,-9.447,-0.261,-3.18,1.05,-17.85,-2.38
,-8.952,0.275,-3.888,-9.127,0.024,-2.936,-1.96,-18.62,-2.73
,-9.148,-0.117,-3.719,-9.304,0.065,-2.551,-2.1,-16.94,-2.59
21807.0,-9.416,-0.041,-2.596,-9.273,-0.337,-3.582,-0.56,-15.82,-4.27
,-9.514,-0.191,-2.379,-8.985,-0.507,-3.74,-2.87,-14.35,-4.2
,-9.725,-0.244,-2.659,-9.177,-0.668,-3.63,-3.99,-13.93,-4.41
,-9.476,-0.292,-3.221,-9.328,-0.598,-3.01,-6.16,-15.4,-4.69
21883.0,-9.387,0.065,-2.778,-9.344,-0.424,-2.266,3.64,-20.51,-4.55
,-9.351,0.16,-2.85,-9.452,-0.443,-2.381,-1.26,-22.33,-5.25
,-9.347,-0.101,-2.257,-9.323,-0.304,-2.247,-4.27,-22.19,-5.53
,-9.584,-0.156,-2.752,-9.44,-0.589,-1.766,-4.48,-22.26,-5.74
21959.0,-9.349,-0.536,-1.603,-9.72,-0.191,-1.445,6.16,-14.63,-4.97
,-9.418,-0.605,-0.969,-9.564,-0.72,-1.412,7.56,-11.97,-4.48
,-9.6,-0.419,-1.247,-9.469,-0.893,-1.601,7.84,-11.62,-4.13
,-9.564,-0.175,-0.974,-9.296,-1.117,-1.448,6.72,-10.43,-4.06
22035.0,-9.502,-0.802,-1.524,-9.773,-0.309,-2.13,10.29,1.12,-2.1
,-9.529,-0.474,-1.816,-9.775,-0.093,-2.345,12.74,3.29,-1.61
,-9.538,-0.345,-1.914,-9.206,0.297,-2.292,13.51,4.97,-1.33
,-9.631,-0.282,-1.977,-9.332,-0.242,-1.917,14.77,6.02,-1.12
22110.0,-9.641,-0.457,-1.989,-9.552,-0.816,-2.469,4.48,4.55,-2.31
,-9.672,-0.354,-2.333,-9.533,-0.536,-2.694,3.01,4.06,-2.52
,-9.581,-0.821,-2.288,-9.543,-0.416,-2.795,1.33,4.41,-2.52
,-9.564,-0.919,-2.374,-9.457,-0.457,-3.003,2.52,5.25,-2.17
22186.0,-9.347,-0.739,-2.936,-9.756,-0.596,-2.261,9.45,6.86,-0.56
,-9.421,-0.945,-2.697,-9.696,-0.287,-2.553,12.74,8.12,0.14
,-9.483,-1.125,-2.582,-9.588,-0.304,-2.704,17.15,9.24,1.05
,-9.545,-1.072,-2.254,-9.531,-0.486,-3.022,21.28,10.01,1.96
22261.0,-9.323,-0.641,-3.065,-9.418,-0.493,-2.556,13.16,6.79,1.54
,-9.433,-0.672,-3.087,-9.519,-0.218,-2.776,14.14,6.72,1.54
,-9.469,-0.565,-3.027,-9.483,-0.407,-2.527,14.07,6.09,1.54
,-9.423,-0.495,-2.862,-9.533,-0.548,-2.522,14.14,5.88,1.68
22337.0,-9.639,-0.601,-2.477,-9.469,-0.84,-3.017,5.67,4.9,0.56
,-9.651,-0.481,-2.745,-9.407,-0.893,-2.867,4.69,4.48,0.07
,-9.56,-0.55,-2.694,-9.442,-0.828,-2.864,2.1,3.92,-0.21
,-9.524,-0.715,-2.838,-9.56,-0.665,-2.903,0.56,3.85,-0.21
22413.0,-9.555,-0.512,-3.108,-9.426,-0.696,-3.233,2.17,2.94,0.7
,-9.466,-0.605,-3.206,-9.366,-0.656,-3.075,0.56,2.17,0.63
,-9.392,-0.656,-3.223,-9.478,-0.605,-2.869,0.07,1.4,0.56
,-9.33,-0.778,-3.273,-9.445,-0.61,-2.592,1.19,1.4,0.84
22489.0,-9.536,-0.577,-2.359,-9.538,-0.558,-2.694,6.09,1.26,1.68
,-9.643,-0.543,-2.319,-9.43,-0.737,-2.864,5.32,1.89,1.61
,-9.667,-0.517,-2.328,-9.356,-0.754,-2.915,3.92,1.82,1.54
,-9.708,-0.5,-2.501,-9.433,-0.699,-2.986,1.89,1.68,1.33
22564.0,-9.507,-0.538,-3.041,-9.442,-0.345,-3.23,4.69,1.89,2.03
,-9.454,-0.479,-3.171,-9.529,-0.424,-3.211,4.83,1.61,2.03
,-9.397,-0.467,-3.154,-9.464,-0.648,-3.053,4.83,1.19,2.03
,-9.421,-0.433,-3.216,-9.469,-0.782,-2.879,5.39,0.63,2.1
22640.0,-9.502,-0.83,-2.745,-9.517,-0.622,-2.381,4.69,-0.98,1.82
,-9.519,-0.749,-2.513,-9.634,-0.648,-2.347,5.39,-0.84,1.96
,-9.509,-0.615,-2.498,-9.588,-0.622,-2.474,4.62,-0.84,1.96
,-9.521,-0.656,-2.412,-9.55,-0.617,-2.477,3.5,-0.42,2.1
22715.0,-9.545,-0.524,-2.582,-9.495,-0.684,-2.536,-1.26,0.7,2.1
,-9.445,-0.622,-2.601,-9.5,-0.526,-2.596,-2.73,0.77,2.03
,-9.426,-0.534,-2.596,-9.55,-0.469,-2.558,-2.94,0.91,2.03
,-9.452,-0.637,-2.572,-9.576,-0.455,-2.568,-3.64,1.26,2.03
22791.0,-9.541,-0.407,-2.709,-9.474,-0.625,-3.178,-2.73,2.8,2.31
,-9.519,-0.292,-2.816,-9.409,-0.529,-3.309,-3.01,2.52,2.03
,-9.5,-0.404,-2.996,-9.375,-0.586,-3.197,-5.04,2.31,1.82
,-9.55,-0.538,-3.166,-9.452,-0.579,-3.084,-5.74,1.89,1.82
22867.0,-9.466,-0.39,-2.785,-9.474,-0.534,-2.903,-4.55,-1.4,1.96
,-9.478,-0.304,-2.771,-9.517,-0.622,-2.836,-5.67,-1.89,1.96
,-9.531,-0.519,-2.831,-9.497,-0.579,-2.737,-5.67,-1.82,2.24
,-9.493,-0.648,-2.886,-9.483,-0.33,-2.503,-4.69,-1.89,2.52
22943.0,-9.605,-0.258,-2.393,-9.452,-0.299,-2.747,-3.71,-0.98,3.36
,-9.552,-0.328,-2.393,-9.395,-0.38,-2.603,-5.11,-0.28,3.36
,-9.591,-0.414,-2.41,-9.495,-0.395,-2.465,-5.81,0.14,3.43
,-9.579,-0.357,-2.654,-9.543,-0.39,-2.134,-7.14,-0.42,3.15
23019.0,-9.612,-0.366,-1.764,-9.555,0.39,-2.582,-9.52,2.31,2.8
,-9.643,-0.347,-1.555,-9.32,-0.139,-2.857,-11.2,3.01,2.66
,-9.753,-0.062,-1.512,-9.27,-0.711,-3.029,-13.16,2.45,2.17
,-9.749,0.431,-2.151,-9.131,-1.024,-3.137,-17.57,0.35,1.19
23094.0,-9.196,-0.967,-3.015,-9.538,0.416,-1.196,-10.5,3.29,2.31
,-9.574,-0.536,-2.793,-9.639,0.254,-2.024,-2.17,3.78,2.66
,-9.598,-0.034,-2.496,-9.608,0.002,-1.871,3.64,4.2,2.87
,-9.761,0.304,-1.941,-9.655,0.048,-2.838,6.72,5.39,3.08
23170.0,-9.66,-0.196,-3.568,-9.672,-0.057,-2.527,-13.79,3.22,1.4
,-9.139,-0.581,-4.099,-9.588,0.89,-2.974,-18.06,1.89,1.54
,-8.945,-1.137,-3.329,-9.658,1.094,-2.513,-17.29,3.92,2.03
,-9.203,-0.869,-2.934,-9.572,0.333,-2.477,-9.52,6.51,2.17
23246.0,-9.002,-0.536,-1.519,-9.253,-0.124,-3.802,-8.61,9.66,0.35
,-9.794,-0.553,-1.005,-8.705,-1.089,-3.644,0.84,12.67,0.28
,-9.83,0.256,-2.247,-8.782,-1.689,-2.699,0.56,8.68,-0.84
,-9.615,0.526,-3.092,-9.184,-1.508,-2.498,-7.56,5.25,-1.26
23322.0,-9.82,-0.869,-2.678,-8.969,-0.175,-1.625,11.76,13.02,2.31
,-9.943,-0.598,-2.929,-8.988,0.275,-1.876,14.56,13.02,3.29
,-9.706,-1.019,-2.381,-9.698,0.476,-2.398,15.26,14.07,4.41
,-9.502,-0.876,-1.622,-9.835,0.593,-3.063,18.9,16.1,4.83
23397.0,-9.028,0.467,-3.879,-9.222,-0.519,-3.08,-7.49,11.2,2.73
,-8.918,0.01,-3.281,-9.371,-1.225,-3.039,-10.15,13.37,2.24
,-8.801,0.045,-3.13,-9.648,-1.304,-2.496,-8.96,13.51,1.89
,-8.918,0.069,-3.044,-9.782,-0.629,-2.467,-6.86,13.37,2.52
23473.0,-9.734,0.038,-2.714,-8.954,1.68,-4.154,14.63,22.19,3.29
,-9.591,0.543,-2.766,-9.347,1.543,-3.932,13.65,20.93,3.22
,-8.978,0.754,-3.434,-9.454,1.031,-3.664,8.54,19.81,3.64
,-8.851,1.192,-3.659,-9.189,0.526,-3.475,4.97,19.39,2.73
23548.0,-9.076,-0.153,-3.039,-10.304,-1.302,-3.628,-5.81,24.36,-5.67
,-9.227,-0.61,-2.974,-9.61,-0.79,-4.178,-1.89,24.15,-5.53
,-9.301,-0.914,-3.254,-8.789,0.081,-4.623,0.91,23.38,-4.27
,-9.732,-1.309,-3.482,-8.064,0.548,-5.14,3.85,22.33,-2.8
23624.0,-8.528,0.486,-4.48,-9.15,0.036,-4.63,0.7,16.87,-3.36
,-8.976,0.603,-4.113,-8.928,-0.948,-4.432,-3.78,16.87,-4.9
,-9.462,0.749,-3.848,-8.973,-1.397,-4.166,-6.79,16.17,-5.39
,-9.56,0.572,-4.133,-9.064,-1.194,-3.826,-11.27,14.14,-4.76
23700.0,-9.0,-0.66,-3.829,-8.804,-0.713,-4.346,8.54,13.86,-1.96
,-9.143,-0.321,-3.532,-9.115,-0.665,-4.355,6.37,13.3,0.14
,-8.722,-0.244,-4.032,-9.131,-0.727,-4.18,-0.7,12.11,2.31
,-8.516,-0.684,-4.03,-8.949,-0.692,-4.13,-6.02,13.02,3.5
23776.0,-8.849,-0.665,-4.295,-8.938,-0.694,-3.814,-1.19,15.26,4.41
,-9.062,-0.66,-4.039,-9.002,-1.17,-3.92,0.77,16.52,4.34
,-9.05,-0.316,-4.145,-9.079,-1.651,-3.977,2.59,16.1,4.2
,-8.856,-0.17,-4.348,-8.995,-1.78,-3.644,3.43,16.17,4.2
23852.0,-8.662,-1.043,-4.496,-8.909,1.797,-4.898,7.7,15.26,11.83
,-8.727,-0.199,-4.738,-9.093,1.278,-4.121,10.92,16.24,10.57
,-8.926,1.062,-4.826,-8.547,0.778,-4.436,12.67,16.73,8.54
,-9.048,1.718,-4.829,-8.54,0.34,-4.355,9.94,16.24,6.37
23927.0,-9.036,0.235,-4.013,-8.748,1.146,-5.104,2.59,18.2,0.35
,-9.268,0.644,-4.188,-8.765,0.201,-4.958,7.42,18.34,-1.33
,-9.002,1.352,-4.372,-8.777,-0.536,-4.977,11.06,17.99,-2.8
,-8.921,1.598,-4.645,-8.847,-1.062,-4.831,9.03,16.8,-3.5
24003.0,-8.897,-1.366,-4.597,-8.804,-2.113,-4.8,1.05,15.33,-3.92
,-8.842,-1.637,-4.781,-8.746,-1.046,-4.944,2.73,14.63,-2.31
,-8.643,-2.242,-4.819,-8.22,-0.098,-5.604,4.13,14.28,0.0
,-8.835,-2.544,-4.616,-8.093,0.704,-5.793,7.28,14.42,2.52
24079.0,-8.519,1.058,-5.827,-8.638,-1.302,-4.853,9.38,13.79,6.65
,-9.028,0.641,-5.396,-8.93,-1.24,-4.826,4.13,13.16,5.39
,-9.045,-0.223,-4.774,-9.105,-0.514,-5.169,1.47,12.18,4.9
,-8.782,-0.782,-4.949,-8.89,0.06,-5.269,1.96,11.27,4.97
24155.0,-8.899,0.196,-5.145,-7.937,-0.696,-4.793,14.7,7.42,5.39
,-8.981,0.108,-5.126,-8.122,-0.634,-4.972,13.09,6.23,4.41
,-9.115,-0.115,-4.738,-8.306,-0.096,-5.181,10.92,5.46,4.34
,-8.421,-0.246,-4.898,-8.54,0.409,-5.238,8.75,5.04,5.25
24230.0,-8.725,0.749,-5.296,-8.804,1.146,-4.771,13.37,7.77,6.58
,-8.794,0.687,-5.403,-8.622,0.467,-4.992,11.97,6.72,5.81
,-8.976,0.574,-4.982,-8.378,-0.115,-5.145,12.18,6.58,4.69
,-8.801,1.067,-4.664,-8.308,-0.364,-5.061,13.23,6.51,2.94
24306.0,-8.265,-0.019,-5.264,-8.638,-0.519,-4.901,5.46,6.23,0.0
,-8.457,0.199,-5.422,-8.241,-0.613,-5.157,5.18,6.16,-0.49
,-9.038,0.045,-5.351,-7.923,-0.373,-5.674,3.5,5.67,-0.91
,-9.215,-0.239,-5.188,-8.229,-0.065,-5.738,1.89,4.48,-0.91
24381.0,-8.547,-0.017,-5.585,-8.473,-0.201,-5.348,0.28,3.43,0.98
,-8.892,-0.199,-5.42,-8.667,-0.06,-5.315,0.28,2.8,1.12
,-8.894,-0.292,-5.178,-8.65,-0.005,-5.676,0.7,1.96,1.89
,-8.452,-0.177,-5.312,-8.509,-0.134,-5.635,1.4,1.61,2.03
24457.0,-8.342,-0.232,-5.76,-8.65,-0.926,-4.937,1.54,-0.7,1.68
,-8.638,-0.467,-5.657,-8.313,-0.905,-4.858,2.17,-1.19,1.26
,-9.028,-0.536,-5.511,-8.368,-0.591,-4.977,3.08,-1.96,0.91
,-8.954,-0.725,-5.214,-8.473,-0.278,-5.193,3.43,-3.08,1.33
24533.0,-8.495,0.148,-5.446,-9.005,0.33,-5.083,3.85,-3.57,5.88
,-8.729,0.471,-5.482,-8.827,0.022,-5.016,2.94,-3.78,5.74
,-8.799,0.572,-5.396,-8.634,-0.249,-4.58,1.89,-4.48,4.9
,-9.081,0.541,-5.217,-8.466,-0.258,-4.96,0.77,-5.53,3.43
24609.0,-8.361,-0.069,-5.092,-8.935,0.66,-4.637,3.15,-6.09,3.36
,-8.562,0.268,-5.075,-8.871,0.773,-4.838,3.29,-5.74,2.87
,-8.624,0.613,-5.104,-8.945,0.751,-4.999,2.73,-5.95,1.75
,-8.746,0.766,-5.159,-8.911,0.656,-5.075,0.42,-6.23,0.63
24684.0,-8.851,0.696,-5.217,-8.751,-0.306,-4.625,-6.51,-10.5,-4.13
,-8.593,0.593,-5.09,-9.091,-0.699,-4.585,-6.79,-10.57,-5.18
,-8.492,0.459,-5.157,-9.225,-0.835,-4.716,-7.56,-10.78,-5.67
,-8.423,0.172,-5.056,-9.014,-0.878,-4.652,-7.98,-11.06,-6.02
24760.0,-8.938,-0.653,-4.767,-9.148,-0.775,-4.446,2.1,-12.11,-5.6
,-8.349,-0.383,-5.121,-8.976,-0.596,-4.776,3.71,-12.67,-5.25
,-8.157,-0.467,-5.099,-8.55,-0.534,-5.001,4.2,-12.11,-5.25
,-8.547,-0.641,-4.764,-8.717,-0.62,-4.891,4.27,-11.27,-4.69
24836.0,-8.65,-0.292,-4.968,-8.89,-0.419,-4.798,4.83,-13.72,-0.91
,-8.65,-0.261,-4.953,-8.966,-0.644,-4.779,4.9,-13.37,-0.98
,-9.055,-0.328,-4.645,-8.916,-0.615,-4.752,3.78,-13.09,-1.05
,-9.043,-0.225,-4.738,-8.904,-0.529,-4.503,2.87,-13.93,-0.77
24912.0,-8.981,-0.38,-4.362,-8.746,-0.153,-4.795,15.05,-13.3,-2.24
,-9.002,-0.337,-4.228,-8.926,-0.153,-4.623,15.82,-13.3,-1.82
,-8.897,-0.062,-4.324,-8.906,-0.034,-4.429,13.37,-14.49,-0.21
,-8.624,-0.108,-4.719,-8.827,0.055,-4.417,9.87,-15.19,0.91
24988.0,-8.926,-0.187,-4.049,-9.141,-0.553,-4.058,5.25,-15.96,0.21
,-9.021,-0.854,-3.307,-9.091,-0.376,-4.202,4.41,-14.35,0.21
,-9.117,-0.335,-4.379,-9.067,-0.469,-4.082,8.54,-14.14,0.91
,-9.129,-0.687,-4.106,-8.741,-0.409,-4.152,11.55,-12.74,1.12
25063.0,-8.485,-0.388,-4.058,-9.201,0.213,-4.295,9.73,-18.34,4.27
,-8.825,-0.514,-3.814,-8.954,-0.278,-4.223,10.15,-17.99,4.48
,-9.43,-0.129,-3.932,-8.899,-0.455,-4.123,10.85,-19.25,4.55
,-9.402,0.302,-4.106,-8.842,-0.349,-4.049,8.75,-20.44,4.48
25139.0,-9.067,-0.077,-3.604,-9.091,-0.29,-3.568,15.33,-11.76,3.57
,-9.268,0.208,-3.551,-9.064,-0.452,-3.604,17.57,-11.48,3.71
,-9.21,0.302,-3.613,-9.009,-0.376,-3.486,16.1,-13.02,3.57
,-9.182,0.055,-3.649,-9.124,-0.034,-3.18,11.55,-14.28,3.85
25214.0,-9.359,0.431,-3.139,-9.363,-0.134,-2.704,13.23,-16.66,3.15
,-9.347,0.514,-3.183,-9.27,-0.026,-2.728,8.96,-17.99,2.45
,-9.261,0.373,-3.051,-9.356,0.201,-2.694,4.55,-18.13,1.75
,-9.249,0.096,-3.027,-9.507,0.534,-2.965,2.8,-17.43,1.05
25290.0,-9.421,0.543,-3.084,-9.387,-0.452,-2.469,0.42,-20.93,-1.68
,-9.15,0.211,-3.106,-9.402,-0.122,-2.565,-5.32,-21.07,-2.66
,-9.112,-0.342,-2.766,-9.538,-0.175,-2.596,-6.44,-19.74,-3.22
,-9.079,-0.622,-2.644,-9.34,-0.622,-2.649,-4.69,-18.97,-3.64
25366.0,-9.227,-1.134,-2.618,-9.524,0.213,-2.479,-3.15,-14.98,-1.75
,-9.158,-1.575,-2.539,-9.402,0.333,-2.998,2.73,-13.65,-0.49
,-9.423,-1.362,-2.424,-9.411,0.144,-2.759,9.87,-14.0,0.7
,-9.667,-0.584,-2.426,-9.399,0.029,-2.58,12.46,-15.26,1.19
25442.0,-9.27,0.06,-2.06,-9.715,0.103,-1.907,1.05,-14.35,-1.54
,-9.407,0.218,-1.993,-9.502,0.187,-1.866,2.52,-12.95,-1.96
,-9.572,0.122,-1.728,-9.433,0.117,-1.981,1.75,-11.83,-2.17
,-9.698,0.048,-1.644,-9.552,0.017,-2.206,0.77,-11.27,-2.17
25517.0,-9.459,-0.208,-2.328,-9.732,-0.938,-2.369,-6.65,-8.12,-4.55
,-9.464,-0.467,-2.481,-9.529,-0.665,-2.472,-7.56,-7.63,-4.62
,-9.509,-0.596,-2.599,-9.404,-0.531,-2.022,-7.63,-7.35,-4.83
,-9.433,-0.797,-2.417,-9.512,-0.491,-2.233,-6.37,-6.23,-4.62
25593.0,-9.667,-0.51,-2.345,-9.591,-0.443,-2.173,2.94,-4.97,-1.61
,-9.495,-0.581,-2.654,-9.758,-0.203,-1.864,3.08,-5.46,-1.33
,-9.45,-0.56,-2.35,-9.718,0.148,-2.089,6.16,-4.69,-1.12
,-9.505,-0.474,-2.441,-9.617,0.196,-1.759,9.52,-3.78,-0.91
25669.0,-9.521,-0.065,-1.634,-9.474,-0.483,-2.161,4.83,-1.75,-2.45
,-9.677,-0.187,-1.543,-9.442,-0.531,-2.362,4.41,-0.49,-2.45
,-9.777,-0.268,-1.682,-9.423,-0.625,-2.101,4.41,0.35,-2.52
,-9.71,-0.282,-2.209,-9.646,-0.553,-2.18,2.87,0.28,-2.8
25745.0,-9.725,-0.342,-2.101,-9.5,-0.687,-2.271,8.96,4.76,-1.96
,-9.648,-0.266,-2.383,-9.543,-0.529,-2.398,6.37,4.34,-2.17
,-9.526,-0.503,-2.503,-9.651,-0.471,-2.443,3.57,4.2,-2.31
,-9.411,-0.682,-2.309,-9.885,-0.412,-2.599,3.64,5.04,-2.17
25821.0,-9.643,-0.038,-2.522,-9.615,-0.519,-1.797,-2.38,1.89,-2.38
,-9.433,-0.352,-2.264,-9.698,-0.62,-1.917,-6.79,1.96,-2.8
,-9.445,-0.622,-2.089,-9.629,-0.615,-2.154,-7.0,2.87,-2.87
,-9.538,-0.529,-1.91,-9.526,-0.706,-2.108,-5.11,4.2,-2.73
25896.0,-9.536,-0.548,-2.297,-9.576,-0.687,-2.91,0.14,8.33,-0.77
,-9.61,-0.302,-2.484,-9.517,-0.802,-3.092,0.84,8.54,-0.84
,-9.624,-0.108,-2.599,-9.576,-0.955,-3.293,-0.84,8.68,-1.05
,-9.658,-0.201,-2.802,-9.531,-0.759,-3.281,-3.99,8.4,-1.47
25972.0,-9.426,-0.603,-3.142,-9.562,-0.56,-2.843,0.7,5.04,-0.21
,-9.507,-0.742,-2.919,-9.541,-0.68,-2.893,1.96,4.97,0.21
,-9.622,-0.665,-2.831,-9.471,-0.763,-2.797,3.78,4.62,0.42
,-9.588,-0.577,-2.831,-9.423,-0.503,-2.623,4.34,4.13,0.49
26048.0,-9.555,-0.189,-2.582,-9.502,-0.806,-2.845,6.16,4.06,0.56
,-9.596,-0.11,-2.515,-9.466,-1.039,-2.85,3.08,3.64,0.07
,-9.617,-0.187,-2.68,-9.411,-1.024,-2.692,-0.91,3.22,-0.28
,-9.562,-0.481,-2.785,-9.521,-0.751,-2.558,-3.64,2.8,-0.49
26124.0,-9.612,-0.479,-2.398,-9.517,-0.778,-2.678,12.04,4.97,2.38
,-9.624,-0.33,-2.4,-9.493,-0.838,-2.589,10.15,5.11,2.38
,-9.61,-0.287,-2.63,-9.562,-0.646,-2.553,6.58,4.55,2.03
,-9.541,-0.531,-2.618,-9.619,-0.376,-2.647,4.13,4.69,1.82
26199.0,-9.622,-0.156,-2.816,-9.569,-0.57,-2.895,6.51,4.41,1.82
,-9.493,-0.223,-2.852,-9.545,-0.584,-2.91,3.71,3.71,1.4
,-9.43,-0.424,-2.905,-9.641,-0.529,-3.003,2.59,3.85,1.4
,-9.416,-0.529,-2.895,-9.485,-0.634,-2.986,3.01,4.06,1.4
26275.0,-9.43,-0.629,-2.893,-9.598,-0.352,-2.453,3.5,2.73,1.54
,-9.44,-0.589,-2.814,-9.596,-0.421,-2.393,4.69,2.52,1.54
,-9.495,-0.457,-2.649,-9.531,-0.471,-2.503,5.18,2.73,1.61
,-9.538,-0.335,-2.446,-9.531,-0.507,-2.608,4.34,2.8,1.4
26350.0,-9.576,-0.495,-2.577,-9.497,-0.541,-3.056,0.42,3.36,0.56
,-9.521,-0.428,-2.766,-9.466,-0.66,-3.072,-0.14,3.29,0.49
,-9.526,-0.428,-2.824,-9.481,-0.67,-3.013,-0.49,3.43,0.49
,-9.514,-0.397,-2.977,-9.452,-0.605,-3.094,-0.98,3.15,0.42
26426.0,-9.497,-0.512,-3.116,-9.488,-0.507,-2.733,2.59,1.82,0.84
,-9.478,-0.541,-2.879,-9.497,-0.486,-2.663,3.01,1.96,1.05
,-9.497,-0.455,-2.881,-9.533,-0.445,-2.627,3.29,1.82,1.26
,-9.521,-0.459,-2.821,-9.526,-0.414,-2.556,3.36,1.75,1.26
26502.0,-9.548,-0.395,-2.601,-9.402,-0.629,-2.97,1.96,2.17,0.91
,-9.572,-0.455,-2.745,-9.459,-0.517,-2.977,1.26,2.1,0.84
,-9.485,-0.481,-2.857,-9.478,-0.397,-2.915,0.84,1.96,0.77
,-9.438,-0.641,-2.919,-9.548,-0.352,-2.886,1.33,2.17,0.98
26578.0,-9.483,-0.433,-2.867,-9.462,-0.447,-2.644,3.15,1.26,0.98
,-9.447,-0.603,-2.826,-9.481,-0.27,-2.486,2.8,1.47,1.19
,-9.524,-0.677,-2.781,-9.588,-0.244,-2.453,3.99,1.4,1.33
,-9.521,-0.658,-2.728,-9.603,-0.172,-2.477,5.67,1.54,1.61
26653.0,-9.538,-0.402,-2.505,-9.462,-0.651,-3.116,-0.56,2.73,0.49
,-9.555,-0.445,-2.721,-9.474,-0.577,-3.13,-0.98,2.87,0.42
,-9.548,-0.61,-2.852,-9.49,-0.565,-3.139,-0.91,2.66,0.49
,-9.452,-0.55,-2.982,-9.505,-0.402,-2.97,-0.7,2.59,0.63
26729.0,-9.502,-0.462,-2.96,-9.478,-0.608,-2.601,-0.63,1.12,0.84
,-9.488,-0.546,-2.95,-9.493,-0.555,-2.63,-1.4,0.84,0.84
,-9.454,-0.598,-2.857,-9.533,-0.495,-2.711,-1.05,0.98,0.98
,-9.426,-0.668,-2.759,-9.497,-0.447,-2.802,-0.28,1.05,1.12
26804.0,-9.521,-0.457,-2.907,-9.507,-0.376,-2.831,1.26,0.91,1.75
,-9.481,-0.55,-3.032,-9.588,-0.299,-2.828,0.84,0.84,1.75
,-9.435,-0.51,-2.95,-9.564,-0.316,-2.883,0.98,0.91,1.82
,-9.454,-0.498,-2.898,-9.502,-0.455,-2.781,1.61,0.98,1.96
26880.0,-9.548,-0.452,-2.747,-9.328,0.22,-2.709,0.63,-0.07,1.61
,-9.548,-0.457,-2.769,-9.27,-0.273,-2.589,0.98,-0.14,1.54
,-9.725,-0.335,-2.809,-9.409,-0.888,-2.615,-1.4,-1.54,1.05
,-9.703,-0.055,-2.776,-9.538,-0.916,-2.481,-6.3,-3.85,0.42
26956.0,-9.481,-0.579,-2.4,-9.509,-0.218,-2.149,-9.87,-5.11,1.12
,-9.677,-0.462,-2.182,-9.43,-0.459,-1.955,-7.91,-5.04,1.19
,-9.608,-0.175,-2.094,-9.529,-0.443,-2.206,-7.21,-5.81,0.91
,-9.586,0.002,-1.974,-9.459,-0.486,-2.137,-6.93,-5.18,0.56
27032.0,-9.521,-0.237,-2.216,-9.541,-0.653,-2.386,0.14,4.41,1.26
,-9.485,-0.065,-2.307,-9.361,-0.522,-3.123,-0.7,5.18,0.91
,-9.55,-0.115,-2.615,-9.33,-0.62,-2.943,-3.5,5.32,0.56
,-9.509,-0.443,-2.654,-9.55,-0.503,-2.826,-7.56,5.32,0.63
27108.0,-9.55,-0.313,-3.092,-9.258,-1.259,-2.079,-5.39,3.08,0.84
,-9.493,-0.364,-2.965,-9.366,-1.278,-1.79,-5.11,3.15,0.98
,-9.627,-0.524,-2.895,-9.349,-0.581,-1.735,-4.27,4.27,1.61
,-9.399,-0.914,-2.687,-9.519,0.261,-2.706,-3.78,5.74,2.24
27183.0,-9.543,0.421,-3.262,-9.598,-0.993,-2.312,1.19,6.44,3.92
,-9.574,-0.151,-3.293,-9.395,-0.333,-2.156,-3.92,6.72,4.06
,-9.378,-0.692,-3.575,-9.476,0.048,-2.113,-5.32,6.3,3.57
,-9.292,-1.05,-2.898,-9.545,-0.136,-2.032,-0.98,8.47,3.92
27259.0,-9.375,-0.225,-2.127,-9.428,1.78,-3.427,9.03,10.71,3.5
,-9.308,-0.225,-1.598,-9.529,1.158,-3.69,12.81,14.28,3.92
,-9.442,0.68,-2.395,-9.249,-0.304,-3.661,14.14,13.86,2.87
,-9.493,1.548,-2.338,-8.806,-1.776,-3.123,11.41,13.93,1.19
27335.0,-9.098,-2.41,-2.228,-9.514,-0.747,-3.252,-0.63,16.66,0.14
,-9.354,-2.022,-1.393,-9.117,-0.854,-3.745,14.35,19.04,1.4
,-9.438,-1.029,-2.139,-8.976,-0.806,-3.544,19.6,17.22,2.24
,-9.739,-0.725,-2.422,-9.179,-0.06,-3.137,16.03,16.24,3.64
27411.0,-9.127,0.96,-3.037,-9.127,-1.184,-2.572,15.89,16.52,4.13
,-9.196,1.517,-3.508,-9.213,-1.622,-2.278,8.82,15.54,2.8
,-9.337,0.931,-3.376,-9.943,-1.35,-2.388,-0.91,16.66,1.89
,-9.203,-0.081,-2.948,-10.062,-0.78,-3.264,-6.37,19.32,1.54
27486.0,-9.691,-0.34,-3.967,-9.162,1.11,-4.235,9.38,16.24,6.09
,-8.77,-0.218,-4.568,-9.514,1.302,-3.984,5.18,15.61,7.07
,-8.483,-0.151,-4.372,-9.521,0.677,-3.654,4.55,16.94,6.44
,-8.787,0.5,-4.245,-9.093,-0.208,-3.577,6.86,15.75,4.34
27562.0,-8.885,-1.046,-3.384,-9.562,0.62,-3.908,-14.91,15.4,1.33
,-9.139,-1.034,-2.948,-8.873,0.715,-4.305,-5.74,16.94,1.12
,-9.359,-0.459,-3.245,-8.823,0.536,-4.243,3.85,16.59,0.98
,-9.574,0.223,-3.599,-8.973,0.436,-4.18,7.35,15.4,1.19
27637.0,-9.217,0.424,-4.008,-8.691,-0.017,-3.97,-0.7,16.87,-2.8
,-9.507,0.225,-3.666,-8.832,-0.62,-3.695,-1.96,16.1,-3.43
,-9.6,0.325,-3.546,-8.815,-0.95,-3.702,-4.83,12.88,-3.85
,-8.954,0.457,-3.955,-8.945,-1.017,-4.011,-9.03,11.34,-3.92
27713.0,-9.191,-0.94,-4.413,-8.832,-0.184,-4.865,-2.87,16.52,0.35
,-9.497,-1.261,-4.286,-8.808,-0.012,-5.016,-0.84,15.54,0.28
,-9.292,-1.271,-4.496,-9.196,-0.062,-4.585,2.17,14.49,0.07
,-9.208,-0.84,-4.204,-9.234,0.098,-4.575,3.71,12.95,1.12
27789.0,-9.091,-0.041,-4.145,-8.981,-0.251,-4.032,-3.85,7.77,-0.35
,-8.751,-0.105,-4.365,-8.603,0.742,-4.195,-5.81,8.12,-0.42
,-8.777,-0.522,-4.02,-7.93,0.976,-4.738,-5.18,9.52,-0.28
,-9.021,-0.732,-3.927,-8.49,0.55,-4.642,-1.19,10.08,-0.21
27865.0,-9.383,0.306,-4.314,-9.445,-2.134,-3.661,0.42,13.37,-0.91
,-9.777,-0.024,-4.3,-9.222,-1.878,-4.197,1.12,12.04,-1.82
,-9.73,-0.689,-4.238,-8.868,-1.584,-4.207,0.98,10.92,-2.31
,-9.457,-1.498,-3.97,-8.696,-0.986,-4.714,0.98,10.15,-2.59
27941.0,-8.287,-0.718,-4.987,-8.978,0.057,-4.724,12.32,9.31,3.71
,-8.49,-0.804,-5.068,-9.414,0.263,-4.24,11.69,8.89,5.18
,-8.425,-0.78,-5.197,-9.371,0.378,-4.2,11.27,9.1,6.51
,-8.514,-0.584,-4.889,-9.241,0.007,-4.168,13.16,9.8,7.0
28016.0,-9.397,-0.345,-4.046,-7.944,0.488,-5.106,9.45,7.98,4.13
,-9.306,-0.467,-4.422,-8.021,-0.05,-4.8,11.2,6.65,4.2
,-8.983,-0.16,-4.858,-8.873,-0.383,-4.41,13.16,5.6,4.41
,-8.717,0.278,-4.786,-9.311,-0.44,-4.42,13.86,4.83,5.18
28092.0,-9.359,-0.414,-4.286,-8.705,0.333,-4.81,5.67,7.07,3.01
,-9.17,-0.304,-4.415,-8.911,0.017,-4.798,5.18,6.3,2.94
,-9.007,-0.292,-4.19,-9.189,-0.055,-4.628,4.83,5.95,3.01
,-8.899,0.179,-4.436,-9.036,-0.144,-4.795,5.39,5.46,3.29
28168.0,-9.093,-0.098,-4.657,-7.976,0.256,-4.915,10.71,4.41,0.77
,-9.165,0.196,-4.695,-8.763,-0.402,-4.905,12.46,3.78,-0.14
,-8.918,0.632,-4.271,-9.304,-0.601,-4.87,12.04,3.85,-0.28
,-8.174,0.809,-4.611,-9.253,-0.787,-4.91,6.44,3.99,-0.42
28244.0,-9.048,-0.818,-4.977,-8.425,-0.486,-5.102,2.52,3.43,-1.82
,-9.33,-1.036,-4.53,-8.871,-0.079,-4.85,2.94,2.52,-1.75
,-9.067,-0.756,-4.606,-9.103,0.148,-4.666,4.41,0.77,-0.7
,-8.418,-0.744,-5.008,-9.007,-0.01,-4.525,4.62,-0.07,0.07
28319.0,-8.837,-0.165,-4.59,-8.43,0.034,-4.712,2.94,0.77,-1.68
,-8.89,-0.395,-4.695,-8.375,0.397,-5.03,2.52,0.63,-1.26
,-8.961,-0.548,-4.475,-8.804,0.388,-4.925,3.29,0.56,-1.12
,-8.76,-0.481,-4.334,-8.981,-0.055,-4.649,5.67,-0.07,-0.14
28395.0,-9.009,-0.447,-4.527,-9.079,-0.888,-4.578,0.0,0.07,-2.38
,-8.909,-0.84,-4.484,-9.012,-0.402,-4.456,0.49,-0.21,-2.38
,-8.947,-1.041,-4.453,-8.497,-0.103,-4.716,1.61,-0.49,-1.54
,-9.158,-1.086,-4.542,-8.356,-0.23,-4.815,3.92,-1.12,-0.49
28470.0,-8.71,-0.581,-4.664,-9.064,-0.364,-4.389,-0.28,-0.56,3.78
,-9.0,-0.878,-4.472,-9.115,0.101,-4.63,0.7,-0.21,3.64
,-9.189,-0.821,-4.312,-8.681,0.201,-4.819,3.15,-0.35,3.43
,-8.906,-0.459,-4.575,-8.418,0.117,-4.929,6.02,-1.12,3.36
28546.0,-8.871,0.12,-4.838,-9.091,-0.816,-4.669,4.48,-1.75,2.8
,-9.055,0.321,-4.817,-8.827,-1.28,-4.42,5.39,-1.89,1.33
,-9.024,0.251,-4.989,-8.981,-1.378,-4.243,3.78,-2.45,-0.07
,-9.124,-0.208,-4.91,-8.882,-1.175,-4.348,2.1,-2.8,-1.47
28622.0,-8.658,-0.926,-4.618,-9.172,0.172,-4.183,9.8,-4.62,3.99
,-8.509,-1.029,-4.642,-9.189,0.72,-4.348,8.4,-4.27,5.39
,-8.863,-1.048,-4.29,-8.885,1.058,-4.537,8.26,-3.5,5.88
,-9.155,-0.596,-4.101,-8.504,0.727,-4.642,10.08,-3.71,5.88
28698.0,-8.763,0.256,-4.369,-9.124,0.44,-4.494,-4.9,-6.44,2.66
,-9.093,0.012,-4.413,-9.016,0.459,-4.661,-3.57,-6.72,1.26
,-9.174,-0.017,-4.317,-8.99,0.347,-4.652,-0.91,-6.86,0.21
,-9.229,0.105,-4.346,-8.928,0.022,-4.547,1.19,-7.0,-0.77
28773.0,-8.856,-0.443,-4.334,-8.945,-1.05,-4.448,-5.53,-10.08,-4.13
,-8.945,-0.873,-4.374,-8.72,-1.141,-4.503,-6.23,-10.5,-3.71
,-9.014,-1.137,-4.377,-8.835,-1.316,-4.384,-6.02,-10.78,-3.36
,-9.122,-1.062,-4.357,-9.253,-1.304,-4.173,-4.27,-11.13,-2.52
28849.0,-9.234,-1.134,-4.219,-9.146,-0.574,-3.585,0.42,-11.97,2.03
,-9.064,-0.983,-4.173,-9.526,-0.057,-3.611,0.84,-12.11,3.15
,-9.052,-0.826,-4.238,-9.119,0.383,-3.888,1.47,-11.76,3.85
,-9.067,-0.507,-4.31,-8.538,0.321,-4.015,3.22,-10.78,3.78
28925.0,-8.794,0.091,-4.061,-9.186,-0.086,-4.111,-2.45,-9.17,3.29
,-9.232,-0.024,-3.915,-9.062,-0.426,-4.13,-0.35,-9.94,2.73
,-9.196,0.134,-3.989,-9.024,-0.692,-4.101,2.1,-10.99,1.89
,-9.148,0.026,-4.039,-9.162,-0.641,-4.03,2.52,-11.13,1.47
29001.0,-9.43,-0.581,-3.848,-9.256,-0.462,-3.984,11.06,-7.28,0.98
,-9.124,-0.318,-3.91,-9.277,-0.467,-3.817,10.71,-9.87,1.96
,-8.72,-0.112,-4.061,-9.182,-0.416,-3.69,7.98,-11.27,2.8
,-8.887,-0.306,-4.039,-9.615,-0.412,-3.443,5.95,-10.57,3.01
29077.0,-9.21,-0.045,-3.575,-9.115,0.122,-3.412,6.09,-13.02,3.78
,-8.863,-0.038,-3.68,-9.239,0.337,-3.594,4.48,-13.37,3.57
,-9.086,-0.309,-3.52,-9.423,0.414,-3.606,4.34,-11.55,3.15
,-9.21,-0.163,-3.424,-9.246,0.359,-3.482,6.51,-9.87,3.08
29152.0,-9.028,0.359,-3.352,-9.251,-0.184,-2.809,8.96,-8.05,0.21
,-9.172,0.309,-3.044,-9.239,-0.503,-2.898,9.59,-6.3,-0.49
,-9.311,0.206,-2.879,-9.423,-0.802,-2.919,9.17,-5.04,-0.7
,-9.277,0.038,-2.8,-9.481,-0.723,-3.099,7.28,-4.62,-0.49
29228.0,-9.225,-0.134,-3.352,-9.258,-0.756,-2.972,4.27,-11.2,-0.35
,-9.146,-0.062,-3.336,-9.32,-0.68,-2.656,1.89,-11.48,-0.7
,-9.134,-0.342,-3.228,-9.452,-0.5,-2.726,-0.56,-10.71,-0.7
,-9.15,-0.632,-3.046,-9.574,-0.196,-2.977,-0.35,-9.73,-0.42
29303.0,-9.584,0.134,-3.439,-9.306,0.062,-3.281,8.54,-6.37,0.77
,-9.371,0.261,-3.479,-9.328,-0.022,-2.905,9.17,-5.53,0.84
,-9.158,0.158,-3.376,-9.447,0.084,-3.096,10.36,-4.34,0.42
,-9.206,0.168,-3.369,-9.438,-0.026,-2.979,10.71,-4.2,-0.07
29379.0,-9.519,-0.156,-2.838,-9.115,-0.792,-2.642,5.32,-6.86,-1.54
,-9.383,-0.213,-3.077,-9.273,-0.754,-2.448,3.22,-7.7,-2.17
,-9.395,-0.491,-3.041,-9.404,-0.565,-2.477,2.03,-7.84,-2.24
,-9.196,-0.713,-2.541,-9.397,-0.325,-2.953,2.52,-7.0,-1.89
29455.0,-9.32,-0.447,-2.721,-9.538,-0.036,-2.326,5.18,-6.16,-0.7
,-9.402,-0.486,-2.45,-9.512,-0.299,-2.359,7.49,-4.62,-0.49
,-9.337,-0.462,-2.233,-9.5,-0.168,-2.611,8.75,-3.5,-0.42
,-9.485,-0.096,-2.082,-9.478,-0.275,-2.86,10.01,-2.8,-0.35
29531.0,-9.378,-0.364,-3.118,-9.531,-0.495,-2.668,0.91,-2.66,-1.82
,-9.342,-0.412,-3.144,-9.619,-0.191,-2.84,0.49,-2.45,-1.89
,-9.38,-0.759,-2.912,-9.581,-0.105,-3.431,0.98,-1.68,-1.61
,-9.395,-0.637,-2.702,-9.395,-0.404,-3.465,4.27,-0.77,-1.12
29606.0,-9.371,-0.447,-4.042,-9.538,-0.457,-2.4,-1.26,-3.57,-1.19
,-9.34,-0.723,-3.74,-9.655,-0.227,-2.357,1.61,-3.78,-1.05
,-9.306,-0.553,-3.491,-9.6,-0.335,-2.304,4.97,-3.57,-0.84
,-9.426,-0.565,-2.833,-9.43,-0.589,-2.419,7.14,-3.15,-0.63
29682.0,-9.375,-0.811,-2.517,-9.646,0.014,-2.036,-0.56,-2.73,-0.84
,-9.246,-1.074,-2.065,-9.603,-0.098,-2.132,4.41,-1.33,-0.14
,-9.407,-0.392,-2.314,-9.598,-0.342,-2.402,10.36,0.0,0.42
,-9.588,-0.211,-1.967,-9.476,-0.584,-2.781,10.78,1.12,0.56
29757.0,-9.407,-0.653,-3.19,-9.512,-0.337,-2.599,3.85,2.45,-0.28
,-9.229,-0.675,-3.18,-9.567,-0.11,-2.723,5.6,2.66,-0.07
,-9.263,-0.629,-3.075,-9.471,-0.354,-2.86,7.77,3.15,0.42
,-9.385,-0.5,-2.883,-9.43,-0.725,-3.108,8.61,3.5,0.63
29833.0,-9.368,-0.845,-3.25,-9.548,-0.428,-2.687,0.07,2.52,0.49
,-9.344,-0.794,-3.309,-9.6,-0.443,-2.438,2.31,2.45,0.7
,-9.38,-0.689,-3.228,-9.643,-0.27,-2.594,3.71,2.31,0.98
,-9.521,-0.591,-2.991,-9.584,-0.299,-2.785,4.9,2.45,1.26
29909.0,-9.485,-0.383,-2.874,-9.44,-0.524,-2.848,0.42,2.31,0.84
,-9.399,-0.512,-3.113,-9.557,-0.239,-2.611,0.14,2.38,0.98
,-9.301,-0.584,-3.199,-9.581,-0.146,-2.522,0.7,2.24,1.12
,-9.32,-0.648,-3.173,-9.562,-0.12,-2.527,2.24,2.52,1.33
29985.0,-9.586,-0.371,-2.673,-9.481,-0.409,-3.19,0.28,3.22,0.49
,-9.579,-0.548,-2.742,-9.442,-0.369,-3.333,-0.21,3.71,0.35
,-9.536,-0.634,-2.953,-9.387,-0.392,-3.338,-0.42,3.57,0.35
,-9.418,-0.608,-2.994,-9.387,-0.55,-3.355,0.49,3.85,0.42
30061.0,-9.284,-0.479,-3.096,-9.39,-0.57,-3.084,1.75,2.45,0.63
,-9.464,-0.294,-3.276,-9.411,-0.57,-3.089,2.8,1.96,0.63
,-9.464,-0.321,-3.221,-9.375,-0.605,-2.929,1.82,1.26,0.56
,-9.375,-0.495,-3.149,-9.442,-0.503,-2.702,1.12,0.98,0.7
30136.0,-9.514,-0.447,-2.644,-9.395,-0.507,-3.041,2.8,1.05,0.98
,-9.564,-0.359,-2.62,-9.392,-0.596,-3.061,2.03,1.26,0.84
,-9.502,-0.27,-2.716,-9.45,-0.522,-3.041,0.49,1.26,0.91
,-9.421,-0.428,-2.977,-9.505,-0.488,-2.943,-0.77,1.26,0.84
30212.0,-9.557,-0.438,-2.891,-9.435,-0.534,-3.173,4.27,1.68,1.19
,-9.471,-0.34,-2.893,-9.351,-0.495,-3.163,3.01,1.33,0.91
,-9.531,-0.445,-2.96,-9.361,-0.414,-3.058,1.61,1.12,0.63
,-9.45,-0.455,-3.096,-9.402,-0.373,-2.958,1.05,0.91,0.49
30288.0,-9.524,-0.309,-2.917,-9.469,-0.404,-3.008,2.38,0.91,0.7
,-9.512,-0.4,-2.85,-9.399,-0.479,-3.022,1.33,0.7,0.63
,-9.435,-0.404,-2.891,-9.387,-0.57,-2.97,0.77,0.63,0.56
,-9.445,-0.445,-2.946,-9.43,-0.486,-2.984,1.47,0.84,0.56
30364.0,-9.459,-0.459,-3.01,-9.483,-0.426,-2.931,3.22,0.98,0.98
,-9.476,-0.409,-2.931,-9.445,-0.467,-2.958,2.66,0.7,0.91
,-9.469,-0.433,-2.936,-9.433,-0.467,-2.917,2.17,0.56,0.7
,-9.502,-0.481,-2.994,-9.483,-0.349,-2.857,2.66,0.63,0.84
30439.0,-9.471,-0.294,-2.843,-9.466,-0.491,-2.793,3.78,0.56,0.7
,-9.462,-0.337,-2.924,-9.509,-0.426,-2.888,2.52,0.49,0.63
,-9.43,-0.443,-2.812,-9.457,-0.397,-2.974,2.1,0.77,0.56
,-9.471,-0.457,-2.747,-9.433,-0.414,-3.032,2.59,0.98,0.49
30515.0,-9.407,-0.488,-3.02,-9.509,-0.517,-2.936,1.82,0.63,0.42
,-9.462,-0.474,-3.027,-9.459,-0.443,-2.994,1.82,0.56,0.35
,-9.44,-0.486,-3.025,-9.433,-0.512,-3.001,1.96,0.56,0.49
,-9.524,-0.498,-2.994,-9.416,-0.543,-2.891,1.75,0.49,0.56
30590.0,-9.483,-0.392,-2.919,-9.488,-0.426,-2.35,3.29,0.07,1.05
,-9.407,-0.414,-2.831,-9.545,-0.436,-2.319,3.15,0.14,0.98
,-9.409,-0.39,-2.663,-9.488,-0.507,-2.235,2.8,0.35,0.98
,-9.462,-0.378,-2.548,-9.466,-0.457,-2.283,2.45,0.84,1.05
30666.0,-9.502,-0.223,-2.489,-9.373,-0.763,-2.938,-0.42,3.71,0.84
,-9.447,-0.268,-2.603,-9.39,-0.785,-2.816,-2.87,3.85,0.63
,-9.457,-0.383,-2.771,-9.464,-0.629,-2.51,-4.06,4.2,0.77
,-9.395,-0.56,-2.927,-9.555,-0.302,-2.24,-4.06,4.55,0.84
30742.0,-9.663,0.055,-2.383,-9.206,-1.168,-3.836,11.48,8.19,2.8
,-9.576,0.251,-3.101,-9.294,-1.182,-3.386,5.95,6.72,2.03
,-9.34,-0.105,-3.625,-9.316,-0.696,-2.972,-1.96,5.32,1.33
,-9.203,-0.682,-3.841,-9.414,-0.258,-2.23,-5.88,4.9,1.26
30818.0,-9.61,0.062,-1.737,-9.397,-0.689,-2.319,10.64,8.05,3.15
,-9.596,0.184,-1.716,-9.229,-0.742,-2.402,5.46,8.19,2.45
,-9.61,0.026,-1.721,-9.186,-0.412,-2.503,-0.98,8.47,2.03
,-9.672,-0.39,-2.151,-9.196,-0.251,-2.603,-7.07,8.05,1.61
30894.0,-9.215,-0.397,-3.104,-9.418,0.05,-3.209,-11.9,9.73,1.05
,-9.296,-0.878,-3.427,-9.509,0.457,-3.408,-10.22,10.92,2.17
,-9.335,-1.046,-3.037,-9.081,0.306,-3.754,-1.82,13.23,3.36
,-9.423,-0.546,-3.575,-8.94,-0.538,-3.35,6.65,13.02,3.5
30969.0,-9.198,-1.144,-2.984,-9.761,0.885,-3.412,4.06,12.39,1.47
,-9.208,-0.952,-1.926,-9.263,-0.792,-3.396,13.72,15.19,1.4
,-9.658,0.213,-1.991,-8.804,-2.144,-2.994,19.53,14.56,0.84
,-9.371,1.23,-3.068,-8.938,-1.922,-2.883,9.66,9.87,-1.05
31045.0,-9.39,-1.151,-3.187,-8.938,-0.488,-3.039,3.08,10.29,2.8
,-9.533,-0.493,-4.018,-9.215,0.615,-2.931,2.45,7.42,2.94
,-9.337,-0.601,-4.087,-9.481,1.409,-3.259,-1.05,8.82,3.5
,-9.091,-0.893,-3.786,-9.627,1.632,-3.63,-0.35,11.9,3.43
31121.0,-9.407,0.885,-3.781,-9.507,0.177,-3.242,-13.79,12.25,-1.89
,-9.009,0.12,-3.506,-9.569,0.189,-3.218,-16.66,14.07,-2.87
,-8.758,-0.194,-3.147,-9.201,-0.055,-3.434,-12.04,15.68,-3.15
,-9.244,-0.148,-2.879,-9.007,-0.213,-3.25,-5.74,14.28,-3.85
31197.0,-9.167,-0.026,-3.309,-9.05,-1.577,-4.03,-6.72,14.49,-4.83
,-9.076,0.134,-3.888,-8.804,-1.452,-3.994,-7.98,13.44,-4.97
,-9.244,-0.223,-4.08,-8.93,-1.041,-4.135,-12.46,12.81,-4.62
,-9.423,-1.108,-4.092,-8.871,-0.826,-4.209,-16.38,12.32,-3.15
31272.0,-8.93,-0.797,-4.25,-9.349,-0.768,-3.807,-3.71,12.53,0.63
,-9.031,-1.165,-4.07,-9.057,-0.354,-3.831,-3.85,14.84,1.75
,-9.182,-1.228,-3.788,-8.727,-0.101,-4.006,-0.49,16.52,2.24
,-9.229,-1.048,-3.948,-8.835,-0.177,-3.877,3.36,16.8,2.66
31348.0,-9.119,-0.223,-3.944,-8.533,-0.715,-4.24,-0.21,14.49,6.16
,-9.428,-0.242,-4.125,-9.074,-0.349,-3.592,0.14,14.0,6.09
,-9.191,-0.266,-4.494,-8.949,0.337,-3.75,-1.12,13.3,6.3
,-8.851,-0.565,-4.539,-8.906,0.797,-3.733,-1.96,13.58,6.58
31423.0,-8.851,0.742,-3.982,-8.885,-0.366,-4.255,-1.4,14.14,5.53
,-9.04,0.428,-3.994,-8.672,-0.172,-4.582,-6.23,14.98,5.39
,-8.985,0.062,-4.209,-8.794,-0.428,-4.274,-7.7,15.89,4.9
,-8.878,-0.285,-4.274,-9.088,-0.541,-4.228,-6.02,17.15,4.2
31499.0,-9.258,-0.713,-3.912,-8.918,-0.086,-4.841,6.09,16.1,3.71
,-9.234,-0.83,-4.511,-9.33,0.321,-4.783,9.45,15.4,3.78
,-8.806,-0.627,-4.767,-8.923,0.608,-4.941,11.76,15.68,3.01
,-8.758,-0.38,-4.941,-8.538,0.172,-4.922,14.0,16.38,1.89
31575.0,-8.717,-0.101,-4.783,-8.792,-0.574,-4.525,5.81,13.37,-0.63
,-8.76,-0.297,-4.568,-9.174,-0.512,-4.609,6.79,13.51,-1.19
,-8.875,-0.541,-4.465,-9.44,-0.249,-4.535,8.47,12.95,-1.12
,-8.804,-0.675,-4.202,-9.194,0.206,-4.867,11.13,12.39,0.0
31651.0,-8.72,0.445,-5.238,-8.66,0.239,-4.805,13.44,9.59,0.35
,-8.157,0.187,-5.097,-9.021,0.026,-4.463,10.01,8.96,1.26
,-7.803,0.0,-5.329,-9.167,-0.421,-4.379,9.03,9.73,1.26
,-8.009,0.122,-5.14,-9.385,-0.737,-4.238,10.29,11.27,0.07
31726.0,-9.069,-0.66,-4.592,-8.148,-0.304,-5.379,4.97,9.17,-1.26
,-8.83,-0.581,-5.016,-8.313,-0.371,-5.324,5.67,8.96,-1.05
,-8.681,-0.574,-5.159,-8.777,-0.447,-4.7,6.23,9.38,-0.42
,-8.454,-0.486,-5.288,-9.009,-0.225,-4.558,6.58,9.66,0.07
31802.0,-8.76,-0.103,-4.503,-9.067,0.278,-4.874,6.02,11.13,-1.12
,-8.658,0.268,-4.307,-8.88,0.034,-4.941,5.46,11.13,-1.19
,-8.464,0.787,-4.578,-8.789,0.022,-5.173,3.29,11.55,-1.82
,-8.837,0.785,-4.743,-8.464,-0.182,-5.181,-1.05,12.11,-2.8
31878.0,-8.509,-0.457,-5.487,-8.772,-0.715,-5.537,5.39,9.31,-5.81
,-8.641,-0.464,-5.542,-8.849,-1.024,-5.126,7.21,9.03,-5.04
,-8.593,-0.373,-5.805,-8.614,-1.161,-5.432,7.84,8.61,-4.83
,-8.617,-0.431,-5.76,-8.698,-1.584,-5.7,7.91,8.19,-5.39
31954.0,-9.079,-1.929,-5.544,-8.533,-1.017,-5.537,4.55,4.41,-3.57
,-8.624,-1.943,-5.597,-8.756,-0.842,-5.427,6.58,3.36,-1.96
,-8.256,-1.486,-5.599,-8.737,-0.804,-5.396,8.47,2.94,-0.14
,-8.354,-1.101,-5.604,-8.732,-0.584,-5.243,7.56,2.45,1.05
32030.0,-8.562,-0.613,-5.047,-8.579,0.39,-5.578,5.74,0.63,1.82
,-8.354,-0.814,-4.884,-8.689,0.471,-5.616,5.25,0.49,3.01
,-8.236,-0.706,-5.013,-8.739,0.055,-5.336,4.69,0.77,4.2
,-8.449,-0.213,-5.197,-8.811,-0.431,-5.243,5.04,1.12,4.41
32105.0,-8.813,-0.909,-5.068,-8.54,-0.718,-5.097,1.82,-1.61,0.21
,-8.713,-1.333,-4.776,-8.272,-0.342,-5.147,4.41,-1.75,0.35
,-8.6,-1.433,-4.826,-8.44,-0.23,-4.996,6.86,-1.96,1.33
,-8.603,-1.127,-4.934,-8.772,-0.297,-5.006,8.68,-2.24,2.45
32181.0,-8.77,-0.44,-4.949,-8.77,-0.232,-5.391,0.42,-3.36,4.41
,-8.792,-0.577,-5.061,-8.753,-0.273,-5.513,0.49,-3.99,4.48
,-8.593,-0.89,-4.891,-8.622,-0.45,-5.434,0.7,-4.13,4.06
,-8.646,-0.553,-5.181,-8.763,-0.663,-5.274,2.66,-4.13,3.57
32256.0,-9.17,-0.385,-5.224,-8.471,-1.165,-5.14,0.14,-6.93,1.68
,-8.969,-0.376,-4.987,-8.591,-1.486,-5.059,-0.98,-8.61,1.19
,-8.581,-0.254,-5.205,-8.693,-1.433,-5.059,-3.78,-9.66,1.54
,-8.361,-0.646,-5.157,-8.83,-1.34,-5.044,-6.79,-10.01,2.38
32332.0,-8.727,-1.421,-5.011,-8.361,-0.562,-4.381,0.91,-10.92,6.58
,-8.631,-1.558,-4.908,-7.973,-0.045,-4.604,1.4,-10.64,8.12
,-8.713,-1.651,-4.767,-8.27,-0.024,-4.688,2.73,-10.08,9.45
,-8.825,-1.436,-4.001,-8.906,0.034,-4.513,4.55,-9.59,10.99
32408.0,-9.143,-0.024,-4.446,-8.469,0.629,-4.872,1.19,-10.85,13.09
,-9.112,0.12,-4.831,-8.538,0.838,-4.74,2.94,-10.78,11.9
,-9.11,0.026,-4.42,-8.911,1.096,-4.64,4.55,-10.85,11.06
,-8.737,0.275,-4.714,-9.174,1.144,-4.606,6.58,-11.06,9.94
32484.0,-9.122,0.902,-4.798,-9.256,-0.045,-4.386,0.56,-12.11,2.52
,-8.878,0.584,-4.889,-9.201,0.029,-4.073,-2.1,-12.6,1.82
,-8.784,0.297,-4.951,-8.741,0.318,-4.424,-2.17,-12.39,0.63
,-8.885,0.041,-4.812,-8.636,0.141,-4.515,0.84,-11.83,-1.33
32559.0,-9.021,-0.246,-4.525,-8.739,-0.94,-3.9,-3.64,-14.91,-1.89
,-9.107,-0.424,-4.549,-8.899,-0.641,-4.372,-3.92,-16.03,-2.03
,-8.89,-0.625,-4.446,-9.086,-1.053,-3.884,-4.27,-16.45,-1.68
,-8.792,-0.51,-4.398,-8.899,-0.715,-4.08,-3.5,-16.24,-1.33
32635.0,-8.758,-0.541,-4.092,-8.928,0.201,-4.078,3.29,-15.12,1.05
,-9.1,-0.479,-3.874,-8.988,-0.043,-3.955,3.43,-14.28,0.84
,-9.234,-0.199,-3.991,-8.902,-0.084,-4.279,3.43,-14.7,0.7
,-9.241,0.026,-3.912,-8.983,-0.249,-4.223,1.4,-15.26,0.98
32711.0,-9.134,-0.364,-4.243,-9.083,-0.505,-4.082,-4.9,-20.09,1.54
,-9.246,-0.335,-4.133,-9.375,-0.67,-3.668,-3.36,-19.25,0.7
,-9.04,-0.251,-4.111,-9.196,-0.433,-3.654,-1.33,-18.48,0.21
,-8.954,-0.237,-4.183,-8.949,-0.041,-3.731,-0.21,-17.22,0.28
32787.0,-9.229,0.062,-3.673,-9.27,0.117,-3.403,4.13,-16.31,0.98
,-9.296,0.23,-3.604,-8.89,0.127,-3.278,3.15,-16.38,0.77
,-9.229,0.261,-3.62,-8.978,0.036,-3.319,1.75,-15.82,0.63
,-9.359,0.053,-3.429,-9.057,0.089,-3.084,0.21,-15.4,0.56
32863.0,-9.325,0.309,-3.029,-9.203,-0.103,-2.857,-0.28,-16.73,-1.33
,-9.284,0.33,-3.041,-9.32,-0.179,-2.759,-0.49,-16.1,-1.68
,-9.33,0.352,-3.027,-9.399,0.091,-2.548,-1.19,-14.98,-2.31
,-9.308,0.134,-2.965,-9.567,0.194,-2.86,-2.17,-13.44,-2.8
32938.0,-9.418,0.148,-3.156,-9.268,-0.605,-2.915,-7.35,-13.37,-3.92
,-9.407,-0.311,-3.206,-9.519,-0.553,-3.178,-11.9,-14.21,-3.99
,-9.174,-0.629,-2.994,-9.301,-0.634,-3.467,-11.97,-14.49,-3.64
,-9.182,-0.689,-2.917,-9.16,-1.082,-3.57,-8.26,-13.51,-3.43
33014.0,-9.081,-1.28,-3.266,-9.519,0.596,-2.996,2.45,-7.77,-0.14
,-9.263,-0.869,-2.962,-9.629,0.235,-3.065,12.39,-5.46,0.7
,-9.521,-0.077,-2.529,-9.328,-0.005,-2.697,18.76,-4.41,1.12
,-9.622,0.627,-3.022,-9.16,-0.077,-2.577,16.31,-5.95,0.84
33089.0,-9.289,-0.146,-2.149,-9.545,-0.637,-2.211,9.45,-4.62,-0.7
,-9.38,-0.108,-1.912,-9.447,-0.866,-1.974,9.87,-4.41,-0.63
,-9.536,-0.244,-2.029,-9.409,-0.95,-2.328,8.61,-4.97,-0.56
,-9.567,-0.493,-1.886,-9.428,-0.826,-2.264,6.3,-5.39,-0.28
33165.0,-9.457,-0.914,-2.096,-9.471,-0.424,-2.388,11.27,-1.61,2.17
,-9.507,-0.933,-1.953,-9.519,0.16,-2.764,14.35,-0.77,3.08
,-9.387,-0.84,-2.194,-9.459,0.419,-2.826,17.29,-0.49,3.92
,-9.502,-0.754,-2.288,-9.33,0.505,-2.649,20.37,0.28,4.76
33241.0,-9.371,0.665,-2.766,-9.567,0.01,-2.28,18.2,1.4,2.1
,-9.464,0.62,-2.536,-9.564,-0.175,-2.474,13.93,1.54,0.49
,-9.493,0.536,-2.204,-9.421,-0.132,-2.876,9.03,1.82,-0.84
,-9.533,0.469,-2.362,-9.421,-0.23,-2.931,3.85,2.03,-2.03
33317.0,-9.495,-0.275,-3.027,-9.569,-0.708,-2.757,-3.36,2.38,-3.57
,-9.45,-0.526,-3.104,-9.617,-0.519,-2.881,-3.92,2.17,-3.5
,-9.395,-0.699,-2.96,-9.555,-0.596,-3.08,-2.94,2.24,-3.15
,-9.418,-0.816,-2.709,-9.493,-0.766,-3.216,-2.31,2.8,-2.52
33392.0,-9.373,-0.68,-3.58,-9.562,-0.227,-3.149,-0.63,0.84,-1.26
,-9.304,-0.785,-3.618,-9.627,-0.043,-3.314,1.4,0.56,-0.49
,-9.284,-0.704,-3.498,-9.495,-0.213,-3.302,4.2,0.07,0.28
,-9.409,-0.553,-3.269,-9.399,-0.493,-3.312,7.42,0.14,0.84
33468.0,-9.34,-0.79,-3.216,-9.567,-0.12,-2.173,2.31,-3.43,0.84
,-9.316,-0.883,-3.017,-9.5,-0.077,-2.036,5.6,-3.36,1.33
,-9.438,-0.589,-2.793,-9.39,-0.208,-1.857,9.73,-2.87,2.03
,-9.521,-0.333,-2.328,-9.454,-0.201,-1.764,9.66,-2.52,2.17
33544.0,-9.617,-0.287,-1.747,-9.445,-0.426,-2.371,-3.15,1.47,0.84
,-9.72,-0.206,-1.677,-9.416,-0.436,-2.556,-4.27,2.59,0.84
,-9.806,-0.177,-1.89,-9.529,-0.244,-2.816,-5.39,3.36,0.77
,-9.675,-0.349,-2.127,-9.471,-0.117,-3.187,-6.23,4.13,0.84
33620.0,-9.517,-0.12,-3.379,-9.438,-0.536,-3.276,-1.05,5.11,1.54
,-9.43,-0.33,-3.534,-9.541,-0.263,-3.259,-1.96,4.69,1.54
,-9.387,-0.55,-3.568,-9.485,-0.158,-3.257,-1.12,4.2,1.61
,-9.414,-0.579,-3.506,-9.354,-0.416,-3.001,1.75,3.71,1.89
33695.0,-9.421,-0.495,-2.804,-9.684,-0.072,-2.8,1.4,1.96,2.03
,-9.457,-0.476,-2.661,-9.538,-0.132,-2.907,3.29,2.31,2.31
,-9.545,-0.309,-2.553,-9.521,-0.361,-2.943,3.99,2.45,2.38
,-9.586,-0.06,-2.63,-9.452,-0.424,-3.008,3.71,2.38,2.17
33771.0,-9.445,-0.392,-3.022,-9.421,-0.309,-3.259,0.84,2.1,1.12
,-9.5,-0.287,-3.008,-9.395,-0.414,-3.252,1.82,2.03,1.19
,-9.572,-0.127,-3.171,-9.5,-0.431,-3.068,1.47,1.33,1.05
,-9.483,-0.237,-3.173,-9.507,-0.447,-2.927,0.98,0.7,1.05
33846.0,-9.588,-0.321,-2.816,-9.411,-0.23,-2.943,6.3,0.28,1.68
,-9.617,-0.124,-2.86,-9.462,-0.179,-2.778,6.44,-0.21,1.54
,-9.529,-0.124,-2.936,-9.526,-0.124,-2.752,5.04,-0.49,1.33
,-9.404,-0.17,-2.955,-9.562,-0.084,-2.714,4.27,-0.49,1.19
33922.0,-9.507,-0.172,-2.529,-9.474,-0.242,-2.611,0.98,-0.21,0.42
,-9.454,-0.292,-2.596,-9.409,-0.237,-2.556,0.0,0.21,0.42
,-9.471,-0.28,-2.532,-9.485,-0.266,-2.599,0.28,0.49,0.35
,-9.514,-0.136,-2.603,-9.49,-0.306,-2.505,0.07,0.84,0.14
33998.0,-9.569,-0.261,-2.58,-9.418,-0.325,-3.118,-1.75,2.45,-0.14
,-9.619,-0.144,-2.651,-9.395,-0.383,-3.096,-1.82,2.38,-0.35
,-9.634,-0.156,-2.965,-9.428,-0.333,-2.982,-2.8,1.89,-0.56
,-9.474,-0.237,-3.053,-9.469,-0.184,-2.797,-4.41,1.54,-0.7
34074.0,-9.536,-0.117,-2.814,-9.579,-0.333,-2.73,-0.35,1.47,-0.77
,-9.478,-0.134,-2.711,-9.447,-0.27,-2.647,-1.68,1.05,-1.12
,-9.55,-0.201,-2.685,-9.454,-0.369,-2.73,-2.87,0.77,-1.33
,-9.619,-0.285,-2.766,-9.521,-0.471,-2.737,-4.27,0.35,-1.47
34150.0,-9.488,-0.364,-2.745,-9.555,-0.318,-2.611,-7.35,-0.7,-0.98
,-9.459,-0.486,-2.754,-9.493,-0.385,-2.702,-7.56,-0.63,-0.7
,-9.464,-0.689,-2.525,-9.38,-0.474,-2.56,-5.67,0.28,-0.28
,-9.538,-0.464,-2.486,-9.457,-0.419,-2.465,-2.59,1.19,0.14
34225.0,-9.552,-0.196,-2.304,-9.289,0.043,-2.888,2.66,3.78,1.33
,-9.529,0.172,-2.326,-9.222,-0.345,-2.84,1.4,2.94,1.19
,-9.653,0.407,-2.436,-9.402,-0.62,-2.594,-2.59,1.12,0.49
,-9.459,0.486,-2.804,-9.287,-0.701,-2.312,-9.17,-0.7,-0.49
34301.0,-9.438,-0.653,-1.979,-9.368,-0.768,-2.223,-2.59,6.51,0.91
,-9.517,-0.577,-1.797,-9.34,-0.905,-2.79,0.07,7.56,1.54
,-9.466,-0.555,-1.788,-9.072,-0.866,-2.903,2.45,8.61,2.24
,-9.541,-0.565,-2.264,-9.366,-0.782,-3.283,3.85,10.08,2.87
34377.0,-9.105,-0.414,-3.446,-9.66,0.491,-1.594,9.1,14.77,6.37
,-9.354,-0.182,-3.245,-9.679,0.995,-1.871,11.2,15.61,6.72
,-9.368,-0.067,-3.075,-9.694,1.134,-2.4,11.83,16.17,6.3
,-9.493,0.06,-2.228,-9.825,0.756,-3.135,14.56,17.85,5.6
34453.0,-9.713,0.33,-3.833,-9.21,0.117,-4.482,-7.84,9.8,-0.84
,-9.091,0.079,-4.039,-9.38,-0.182,-4.391,-11.69,9.17,-2.17
,-8.82,-0.139,-4.164,-9.363,-0.732,-4.147,-12.74,9.45,-3.08
,-8.756,0.053,-4.74,-9.246,-1.701,-3.128,-9.03,8.89,-3.64
34528.0,-9.263,-1.9,-2.304,-9.318,-0.519,-3.242,9.87,11.83,-0.56
,-9.569,-1.024,-1.613,-8.82,-0.861,-3.113,21.49,11.83,-0.63
,-9.521,-0.036,-2.362,-9.182,0.184,-3.12,21.56,9.45,-0.49
,-9.387,0.172,-2.857,-9.474,1.512,-3.623,12.25,8.68,0.91
34604.0,-9.342,1.687,-4.13,-9.706,-1.261,-3.094,-10.22,5.39,-1.05
,-9.014,0.144,-4.247,-10.05,-0.347,-3.549,-23.94,6.37,-0.28
,-8.863,-1.642,-3.575,-9.976,-0.072,-3.802,-25.13,9.94,0.56
,-9.217,-1.993,-2.874,-9.38,-0.455,-3.826,-11.41,12.32,0.21
34679.0,-8.653,-0.768,-3.618,-9.311,0.347,-3.441,-2.1,9.31,2.17
,-8.782,-0.431,-3.388,-9.117,-0.694,-3.106,1.89,10.71,1.68
,-9.277,0.321,-3.422,-8.914,-1.177,-3.003,3.71,9.31,0.56
,-9.493,0.859,-3.446,-9.134,-1.027,-2.965,-0.42,7.91,0.49
34755.0,-9.483,-0.684,-2.917,-8.758,-0.06,-3.498,2.45,10.22,4.34
,-9.275,-0.306,-3.427,-9.244,0.4,-3.41,2.59,9.24,5.53
,-9.095,-0.361,-3.47,-9.155,0.797,-3.795,1.75,10.99,6.72
,-8.897,-0.294,-3.446,-9.036,0.38,-4.101,2.59,13.58,6.93
34831.0,-9.086,-0.34,-3.932,-9.603,0.306,-3.594,-2.87,15.54,6.02
,-8.978,-0.653,-3.671,-9.155,0.024,-3.64,0.84,17.01,5.04
,-9.186,-0.311,-3.52,-8.528,-0.579,-3.597,7.63,17.71,3.43
,-9.646,0.098,-3.484,-8.725,-0.912,-3.546,11.13,16.66,2.87
34907.0,-9.196,-0.66,-3.685,-8.878,2.453,-5.09,3.57,18.41,6.72
,-9.375,0.474,-3.869,-9.359,2.154,-4.618,7.21,17.29,6.72
,-9.009,1.601,-4.386,-9.529,1.462,-4.049,6.3,15.33,6.02
,-8.739,2.218,-4.611,-9.093,0.751,-3.754,1.61,14.42,4.55
34983.0,-8.622,-0.412,-3.678,-8.961,-1.857,-4.453,-10.92,12.39,-3.22
,-8.737,-1.354,-3.453,-9.06,-0.802,-4.905,-8.47,13.58,-2.45
,-9.55,-2.228,-3.786,-8.871,0.349,-5.434,-2.17,14.77,-1.82
,-9.251,-2.19,-4.032,-8.976,0.78,-5.348,6.37,15.75,-0.63
35058.0,-8.806,0.553,-4.91,-9.203,0.309,-3.687,10.85,9.8,-1.47
,-8.734,-0.077,-4.336,-9.292,0.431,-4.061,4.27,10.99,-1.19
,-8.777,-0.457,-4.317,-9.73,1.06,-4.3,1.75,12.95,-1.61
,-8.93,-0.179,-4.051,-9.483,1.184,-4.628,3.71,15.05,-2.73
35134.0,-8.997,1.474,-5.025,-9.052,-0.287,-4.262,-8.68,10.85,-5.11
,-8.258,1.103,-5.004,-8.897,-0.747,-4.08,-12.95,10.36,-7.56
,-8.646,0.419,-4.683,-9.191,-0.952,-4.051,-16.66,10.85,-9.59
,-9.282,-0.189,-4.097,-9.069,-0.543,-4.338,-19.6,11.27,-10.22
35210.0,-8.847,-0.146,-4.578,-8.528,-0.223,-5.348,-13.79,9.59,-8.68
,-8.567,0.27,-4.771,-8.871,-0.577,-5.102,-13.79,9.31,-8.12
,-8.215,0.558,-5.068,-8.993,-0.476,-4.786,-14.77,8.47,-7.28
,-8.215,0.273,-5.317,-9.277,-0.27,-4.707,-16.31,7.98,-6.79
35286.0,-9.304,-0.445,-4.611,-8.6,-0.388,-5.15,-2.59,6.09,-7.21
,-9.081,-0.95,-4.523,-8.229,-0.526,-5.415,-2.52,5.25,-7.14
,-8.914,-1.077,-4.716,-8.344,-0.653,-5.439,-0.63,5.04,-7.14
,-8.782,-0.799,-4.788,-8.516,-1.117,-5.245,1.19,4.62,-6.72
35361.0,-8.799,-1.627,-4.874,-9.095,-1.527,-4.798,3.15,3.71,1.05
,-9.081,-1.661,-4.549,-8.935,-1.261,-4.891,6.16,2.87,2.8
,-8.942,-1.496,-4.707,-8.756,-0.859,-4.879,7.28,2.03,4.48
,-8.973,-1.469,-4.75,-8.832,-0.467,-4.652,6.93,1.54,5.95
35437.0,-8.689,-0.16,-4.491,-8.796,0.488,-4.456,12.88,0.98,11.13
,-8.66,0.074,-4.295,-8.866,0.948,-4.645,11.83,1.68,11.41
,-8.804,0.378,-4.295,-8.894,1.031,-4.625,10.22,2.45,11.27
,-8.871,0.397,-4.331,-8.765,1.144,-4.592,8.96,2.8,10.64
35512.0,-8.725,1.323,-4.64,-8.478,-0.285,-4.614,10.57,3.92,5.18
,-9.095,1.266,-4.633,-8.358,-0.579,-4.547,7.7,3.99,2.87
,-9.162,0.646,-4.503,-8.485,-0.593,-4.659,5.04,3.43,1.26
,-8.899,0.127,-4.491,-8.801,-0.148,-4.783,4.27,3.01,0.98
35588.0,-9.016,0.122,-4.893,-9.316,0.474,-5.044,5.46,5.04,2.03
,-8.863,0.043,-4.807,-9.158,-0.017,-4.841,5.25,4.76,1.61
,-8.629,0.38,-4.848,-8.502,-0.287,-4.815,6.23,4.55,0.91
,-8.935,0.706,-5.102,-8.464,-0.517,-4.719,6.09,4.69,-0.28
35664.0,-8.583,-0.782,-4.855,-8.703,-0.28,-5.36,7.63,3.71,0.42
,-8.856,-0.826,-4.757,-8.746,-0.371,-5.226,9.17,3.57,0.91
,-8.997,-0.424,-5.001,-9.043,-0.378,-4.867,10.36,2.8,1.05
,-9.072,-0.127,-5.152,-8.964,-0.392,-4.606,9.8,1.89,0.98
35740.0,-8.595,-0.543,-4.743,-8.705,-0.211,-5.341,10.5,-0.56,0.63
,-8.672,-0.725,-4.728,-8.851,-0.148,-5.322,9.52,-0.35,1.47
,-8.985,-0.55,-4.898,-8.909,0.005,-5.288,10.29,-1.19,1.96
,-8.715,-0.349,-5.298,-8.952,0.129,-5.14,10.57,-2.31,2.17
35815.0,-8.935,0.297,-5.083,-8.899,0.586,-5.233,10.64,-5.95,0.07
,-8.89,0.512,-5.068,-9.014,-0.108,-4.882,9.38,-6.44,-0.7
,-8.873,0.433,-4.992,-8.854,-0.34,-4.941,6.72,-7.49,-1.4
,-8.753,0.364,-4.97,-8.906,-0.514,-4.968,4.48,-8.33,-1.82
35891.0,-9.057,-0.397,-4.87,-8.394,-0.208,-4.7,5.25,-10.99,-4.41
,-9.05,-0.158,-4.836,-8.32,-0.907,-4.556,7.84,-10.99,-5.95
,-9.296,0.014,-4.362,-8.727,-1.17,-4.42,7.63,-11.83,-6.65
,-8.792,0.132,-4.681,-8.935,-1.096,-4.436,4.48,-13.44,-6.02
35967.0,-8.935,-1.06,-4.587,-8.914,-1.039,-4.422,5.04,-13.51,-1.19
,-8.696,-1.194,-4.609,-8.988,-0.811,-4.336,5.46,-13.3,0.21
,-8.672,-1.225,-4.63,-8.906,-0.706,-4.087,6.65,-13.02,1.12
,-8.959,-1.177,-4.377,-8.808,-0.665,-3.898,8.4,-13.09,1.54
36043.0,-8.854,-0.589,-3.632,-8.94,-0.424,-3.982,12.18,-11.62,3.64
,-9.174,-0.345,-3.501,-9.007,-0.29,-3.975,10.71,-12.6,4.83
,-9.043,-0.227,-3.826,-9.062,-0.182,-3.908,6.65,-13.93,6.16
,-8.887,-0.268,-3.963,-9.069,-0.101,-3.798,4.13,-13.72,6.93
36119.0,-9.062,0.108,-3.841,-9.275,-0.098,-3.644,6.79,-11.62,5.74
,-9.194,-0.433,-3.544,-9.273,-0.002,-3.647,5.11,-10.99,4.9
,-8.909,-0.019,-4.228,-9.062,0.129,-3.786,5.39,-10.57,4.69
,-8.961,-0.206,-3.855,-8.976,-0.096,-3.958,6.44,-9.38,4.13
36194.0,-9.095,-0.28,-3.893,-9.232,-0.072,-3.86,2.03,-9.59,4.41
,-9.141,-0.22,-3.972,-9.033,-0.278,-3.879,3.92,-8.96,3.71
,-9.215,-0.096,-3.862,-9.201,-0.44,-3.819,5.74,-8.26,3.01
,-9.16,-0.019,-3.869,-9.146,-0.512,-3.869,5.88,-8.47,2.8
36270.0,-9.177,-0.388,-3.819,-9.325,0.084,-3.668,8.4,-8.54,2.94
,-9.258,-0.278,-3.805,-9.268,0.144,-3.776,9.31,-8.19,3.08
,-9.397,-0.223,-3.719,-9.024,0.158,-4.042,10.15,-7.21,3.15
,-9.418,-0.036,-3.601,-9.021,-0.074,-3.96,9.8,-6.3,2.52
36345.0,-9.031,-0.053,-3.57,-9.129,0.352,-3.723,9.45,-4.34,1.68
,-9.289,0.318,-3.472,-9.105,-0.385,-3.51,11.06,-6.72,0.7
,-9.43,0.646,-3.364,-9.057,-0.794,-3.216,8.47,-9.87,-0.56
,-9.306,0.766,-3.398,-9.22,-0.759,-3.168,2.59,-12.53,-1.19
36421.0,-9.402,-0.39,-3.19,-9.229,-1.029,-3.448,1.96,-7.49,-1.26
,-9.328,-0.249,-3.47,-9.282,-0.689,-3.551,1.54,-7.35,-0.77
,-9.143,-0.608,-3.515,-9.229,-0.538,-3.542,0.42,-5.6,0.14
,-9.088,-1.053,-3.388,-9.186,-0.395,-3.431,3.36,-3.99,1.12
36497.0,-9.234,-0.395,-2.965,-9.182,-0.127,-3.362,10.99,-4.41,3.71
,-9.428,-0.151,-2.742,-9.213,-0.29,-3.372,10.57,-4.9,3.36
,-9.366,0.203,-3.197,-9.423,-0.153,-3.221,6.72,-6.79,2.59
,-9.277,0.069,-3.185,-9.493,0.223,-3.065,2.87,-7.7,2.45
36573.0,-9.536,0.471,-3.089,-9.282,-0.675,-2.917,11.13,-8.68,0.63
,-9.447,0.366,-2.905,-9.407,-0.723,-2.807,6.86,-9.24,-0.42
,-9.335,-0.019,-2.572,-9.349,-0.682,-3.161,3.36,-8.82,-0.98
,-9.275,-0.388,-2.673,-9.292,-0.785,-2.771,1.82,-8.68,-1.33
36648.0,-9.189,-0.665,-2.769,-9.342,-0.182,-2.941,7.14,-7.0,0.07
,-9.373,-0.447,-2.587,-9.311,-0.292,-2.62,9.1,-6.44,0.28
,-9.359,-0.266,-2.704,-9.385,-0.261,-2.62,6.93,-7.07,0.0
,-9.337,-0.196,-2.788,-9.414,-0.206,-2.041,4.9,-7.35,0.0
36724.0,-9.603,0.031,-2.041,-9.337,-0.584,-2.388,5.04,-2.94,-0.84
,-9.531,0.153,-2.429,-9.397,-0.378,-2.333,1.89,-2.94,-1.4
,-9.493,-0.12,-2.412,-9.481,0.01,-2.481,-1.05,-2.31,-1.33
,-9.349,-0.404,-2.666,-9.517,0.11,-3.015,-1.75,-1.54,-1.26
36799.0,-9.483,-0.16,-3.448,-9.459,-0.431,-3.649,-1.4,-0.35,-1.33
,-9.263,-0.443,-3.979,-9.555,-0.464,-3.218,-3.57,-1.19,-1.61
,-9.277,-0.725,-3.905,-9.536,-0.5,-2.972,-0.21,-0.98,-1.33
,-9.282,-0.756,-3.692,-9.538,-0.419,-3.135,4.55,-0.98,-1.05
36875.0,-9.447,-0.409,-3.24,-9.344,-0.684,-3.381,5.74,-4.06,-0.63
,-9.426,-0.263,-3.532,-9.354,-0.658,-3.08,4.27,-4.83,-0.91
,-9.392,-0.352,-3.733,-9.39,-0.605,-2.749,2.45,-5.53,-1.05
,-9.347,-0.603,-3.544,-9.476,-0.443,-2.469,2.66,-5.67,-0.84
36951.0,-9.541,-0.187,-2.51,-9.397,-0.493,-2.781,9.87,-5.04,1.26
,-9.514,-0.182,-2.718,-9.466,-0.524,-2.388,7.84,-5.18,1.05
,-9.433,-0.249,-2.831,-9.552,-0.235,-2.235,6.3,-5.18,1.05
,-9.373,-0.342,-2.747,-9.564,-0.175,-2.053,5.53,-4.9,1.05
37027.0,-9.576,-0.191,-1.902,-9.495,-0.376,-1.845,4.13,-2.1,0.63
,-9.476,-0.323,-1.991,-9.591,-0.187,-1.938,2.31,-1.47,0.35
,-9.476,-0.486,-1.831,-9.634,-0.151,-2.02,2.73,-0.07,0.49
,-9.543,-0.424,-1.857,-9.579,-0.156,-2.314,3.85,1.19,0.56
37103.0,-9.481,-0.354,-2.525,-9.454,-0.383,-3.592,-4.41,4.83,-0.77
,-9.44,-0.5,-2.941,-9.471,-0.318,-3.721,-4.48,5.04,-0.7
,-9.435,-0.579,-3.187,-9.418,-0.44,-3.836,-2.73,5.04,-0.49
,-9.433,-0.455,-3.441,-9.44,-0.572,-3.786,-0.91,4.76,-0.14
37178.0,-9.38,-0.794,-3.565,-9.531,-0.177,-2.532,0.56,0.49,0.56
,-9.421,-0.782,-3.276,-9.541,-0.215,-2.572,3.29,0.21,0.77
,-9.533,-0.567,-3.053,-9.411,-0.459,-2.601,5.25,0.0,0.98
,-9.509,-0.38,-2.788,-9.359,-0.416,-2.513,5.6,-0.14,1.12
37254.0,-9.519,-0.287,-2.536,-9.447,-0.522,-3.02,3.08,0.77,0.56
,-9.567,-0.206,-2.58,-9.445,-0.629,-3.159,2.59,0.84,0.35
,-9.545,-0.203,-2.663,-9.366,-0.67,-3.125,0.63,0.98,0.21
,-9.521,-0.313,-2.888,-9.445,-0.546,-2.994,-0.77,0.84,0.0
37330.0,-9.469,-0.371,-2.857,-9.564,-0.282,-2.544,4.62,0.91,0.91
,-9.509,-0.223,-2.766,-9.507,-0.402,-2.522,4.76,0.84,0.91
,-9.509,-0.194,-2.644,-9.517,-0.445,-2.584,3.92,1.05,0.7
,-9.514,-0.287,-2.529,-9.471,-0.479,-2.651,2.8,1.19,0.49
37406.0,-9.471,-0.392,-2.781,-9.55,-0.474,-2.958,3.08,2.59,0.49
,-9.454,-0.373,-2.814,-9.543,-0.361,-3.053,2.45,2.59,0.49
,-9.418,-0.495,-2.716,-9.507,-0.421,-3.278,1.68,2.8,0.56
,-9.476,-0.469,-2.836,-9.428,-0.474,-3.355,1.68,2.8,0.42
37481.0,-9.392,-0.584,-3.24,-9.533,-0.328,-2.525,0.84,1.19,0.7
,-9.428,-0.55,-3.061,-9.497,-0.342,-2.458,2.45,1.12,0.98
,-9.526,-0.395,-2.857,-9.521,-0.4,-2.582,4.41,1.19,1.12
,-9.536,-0.318,-2.773,-9.493,-0.342,-2.647,4.41,1.05,1.05
37557.0,-9.505,-0.488,-2.773,-9.483,-0.383,-3.218,1.26,2.17,0.35
,-9.497,-0.476,-2.769,-9.45,-0.522,-3.264,1.96,2.17,0.56
,-9.5,-0.445,-2.922,-9.378,-0.632,-3.273,2.1,2.24,0.49
,-9.562,-0.412,-3.01,-9.383,-0.55,-3.317,2.66,2.24,0.49
37632.0,-9.404,-0.507,-3.118,-9.545,-0.256,-2.405,6.09,0.63,1.19
,-9.471,-0.462,-2.907,-9.526,-0.208,-2.436,6.72,0.56,1.4
,-9.49,-0.359,-2.694,-9.514,-0.287,-2.508,6.51,0.42,1.26
,-9.552,-0.285,-2.536,-9.435,-0.4,-2.391,5.95,0.56,0.98
37708.0,-9.43,-0.431,-2.525,-9.471,-0.34,-2.627,1.61,2.59,0.28
,-9.497,-0.419,-2.431,-9.411,-0.352,-2.788,2.03,3.36,0.49
,-9.538,-0.361,-2.331,-9.418,-0.488,-2.819,2.38,3.78,0.42
,-9.541,-0.215,-2.412,-9.469,-0.529,-2.828,1.47,3.99,0.35
37784.0,-9.514,-0.436,-2.745,-9.409,-0.395,-2.754,-0.07,4.9,-0.21
,-9.502,-0.302,-2.752,-9.395,-0.479,-2.749,0.07,5.18,-0.28
,-9.517,-0.218,-2.747,-9.447,-0.471,-2.812,-0.84,5.11,-0.42
,-9.442,-0.213,-2.802,-9.49,-0.431,-2.785,-2.17,5.11,-0.63
37860.0,-9.452,-0.414,-2.998,-9.493,-0.524,-3.733,-3.15,6.44,-0.42
,-9.438,-0.462,-3.039,-9.411,-0.625,-3.838,-3.99,6.23,-0.35
,-9.536,-0.404,-3.326,-9.466,-0.704,-3.826,-4.06,5.95,-0.21
,-9.474,-0.426,-3.515,-9.49,-0.682,-3.843,-4.48,5.18,-0.28
37936.0,-9.433,-0.538,-3.711,-9.462,-0.084,-2.874,-1.75,0.14,0.21
,-9.512,-0.385,-3.513,-9.43,-0.246,-2.883,-1.54,-1.33,0.14
,-9.5,-0.141,-3.345,-9.426,-0.51,-2.831,-2.94,-2.8,-0.35
,-9.533,-0.074,-3.082,-9.335,-0.778,-2.642,-5.81,-3.99,-0.77
38011.0,-9.416,-0.766,-2.558,-9.495,-0.292,-1.912,-4.76,-2.94,-0.28
