Timestamp,AccX,AccY,AccZ,GyroX,GyroY,GyroZ,MagnX,MagnY,MagnZ
0.0,-9.127,-0.352,-3.893,-9.186,-0.366,-3.874,1.96,0.98,0.56
,-9.127,-0.443,-3.932,-9.143,-0.388,-3.793,2.17,1.05,0.77
,-9.062,-0.486,-3.951,-9.167,-0.419,-3.853,2.52,0.91,0.98
,-9.081,-0.101,-3.912,-9.112,-0.28,-3.831,3.08,0.91,0.91
76.0,-9.074,-0.407,-3.843,-9.179,-0.376,-3.714,2.31,1.05,0.7
,-9.093,-0.426,-3.833,-9.131,-0.397,-3.752,2.45,1.19,0.7
,-9.1,-0.443,-3.821,-9.191,-0.318,-3.757,2.52,1.19,0.77
,-9.15,-0.342,-3.781,-9.153,-0.29,-3.802,2.8,1.05,0.84
152.0,-9.186,-0.359,-3.86,-9.146,-0.311,-3.845,2.03,1.47,0.56
,-9.153,-0.378,-3.874,-9.182,-0.313,-3.867,2.24,1.54,0.77
,-9.165,-0.371,-3.932,-9.136,-0.349,-3.788,2.52,1.61,0.77
,-9.141,-0.34,-3.884,-9.153,-0.354,-3.821,2.66,1.68,0.84
228.0,-9.131,-0.337,-3.793,-9.127,-0.395,-3.862,1.96,1.4,0.63
,-9.155,-0.385,-3.836,-9.153,-0.333,-3.874,2.03,1.47,0.7
,-9.139,-0.424,-3.862,-9.148,-0.304,-3.869,2.17,1.61,0.7
,-9.155,-0.392,-3.857,-9.122,-0.376,-3.862,2.52,1.47,0.84
304.0,-9.146,-0.342,-3.963,-9.143,-0.33,-3.831,2.66,1.33,0.84
,-9.081,-0.328,-3.917,-9.127,-0.421,-3.807,2.87,1.12,0.84
,-9.105,-0.335,-3.853,-9.141,-0.414,-3.764,2.8,1.19,0.77
,-9.148,-0.366,-3.814,-9.124,-0.397,-3.762,3.01,1.19,0.7
380.0,-9.167,-0.321,-3.731,-9.127,-0.38,-3.888,2.52,1.33,0.63
,-9.134,-0.378,-3.735,-9.112,-0.4,-3.862,2.45,1.26,0.63
,-9.17,-0.328,-3.757,-9.134,-0.383,-3.865,2.31,1.47,0.7
,-9.148,-0.311,-3.831,-9.11,-0.306,-3.817,2.31,1.68,0.84
456.0,-9.22,-0.361,-3.812,-9.079,-0.335,-3.927,2.59,1.61,0.7
,-9.17,-0.321,-3.888,-9.081,-0.361,-3.955,2.59,1.4,0.63
,-9.141,-0.33,-3.877,-9.072,-0.311,-3.927,2.59,1.61,0.84
,-9.141,-0.39,-3.929,-9.17,-0.369,-3.893,2.73,1.47,0.84
532.0,-9.119,-0.316,-3.812,-9.143,-0.357,-3.728,2.87,0.84,0.63
,-9.15,-0.359,-3.719,-9.127,-0.364,-3.728,2.66,0.98,0.63
,-9.112,-0.39,-3.759,-9.146,-0.366,-3.81,2.66,1.05,0.56
,-9.146,-0.361,-3.719,-9.17,-0.364,-3.836,2.52,1.19,0.56
608.0,-9.107,-0.366,-3.869,-9.067,-0.345,-3.836,2.66,1.33,0.56
,-9.098,-0.342,-3.865,-9.153,-0.39,-3.781,2.87,1.4,0.56
,-9.115,-0.333,-3.85,-9.15,-0.369,-3.807,3.22,1.19,0.56
,-9.143,-0.313,-3.838,-9.158,-0.352,-3.826,3.29,1.12,0.63
684.0,-9.189,-0.404,-3.807,-9.172,-0.366,-3.8,2.8,1.26,0.56
,-9.093,-0.412,-3.776,-9.172,-0.352,-3.812,2.8,1.33,0.49
,-9.119,-0.328,-3.764,-9.136,-0.357,-3.867,2.8,1.33,0.49
,-9.1,-0.38,-3.774,-9.124,-0.359,-3.872,2.73,1.47,0.49
760.0,-9.172,-0.366,-3.862,-9.11,-0.409,-3.764,2.52,1.33,0.49
,-9.155,-0.359,-3.872,-9.1,-0.347,-4.049,2.45,1.54,0.42
,-9.158,-0.38,-3.867,-9.172,-0.335,-3.958,2.52,1.33,0.49
,-9.107,-0.4,-3.888,-9.189,-0.302,-4.161,2.8,1.4,0.49
836.0,-9.067,-0.287,-4.066,-9.107,-0.357,-3.891,3.15,0.49,0.35
,-9.165,-0.376,-4.003,-9.112,-0.366,-3.833,2.94,0.35,0.49
,-9.119,-0.404,-3.917,-9.174,-0.402,-3.817,2.8,0.14,0.49
,-9.093,-0.335,-3.917,-9.155,-0.447,-3.843,3.43,0.07,0.63
912.0,-9.139,-0.414,-3.812,-9.081,-0.443,-3.881,2.87,-0.63,0.28
,-9.189,-0.416,-3.877,-9.105,-0.431,-3.86,2.87,-0.49,0.35
,-9.136,-0.426,-3.86,-9.057,-0.402,-3.936,3.08,-0.42,0.42
,-9.143,-0.4,-3.929,-9.131,-0.474,-3.829,2.87,-0.84,0.28
988.0,-9.11,-0.371,-4.125,-9.146,-0.316,-3.979,3.64,-1.33,0.14
,-9.098,-0.455,-3.908,-9.21,-0.29,-3.855,3.71,-1.4,0.21
,-9.189,-0.321,-3.996,-9.189,-0.354,-3.695,3.64,-1.89,0.0
,-9.146,-0.352,-3.984,-9.148,-0.299,-3.597,3.64,-2.03,0.0
1064.0,-9.217,-0.433,-3.601,-9.182,-0.45,-3.41,2.66,-2.1,0.21
,-9.208,-0.335,-3.467,-9.273,-0.469,-3.508,2.1,-1.89,0.28
,-9.21,-0.445,-3.24,-9.217,-0.491,-3.508,0.98,-1.54,0.21
,-9.246,-0.548,-3.331,-9.191,-0.5,-3.556,0.21,-1.12,0.0
1140.0,-9.155,-0.495,-3.585,-9.136,-0.428,-3.953,0.28,0.07,0.63
,-9.203,-0.45,-3.666,-9.112,-0.443,-4.011,0.63,0.07,0.7
,-9.194,-0.407,-3.807,-9.105,-0.416,-4.013,0.77,0.14,0.84
,-9.179,-0.397,-3.908,-9.148,-0.407,-3.965,1.05,-0.14,0.77
1216.0,-9.139,-0.347,-3.903,-9.215,-0.369,-3.654,3.01,-1.75,1.19
,-9.146,-0.306,-3.896,-9.265,-0.357,-3.642,2.87,-2.1,1.12
,-9.196,-0.364,-3.853,-9.287,-0.323,-3.637,2.31,-2.31,0.98
,-9.203,-0.364,-3.707,-9.237,-0.337,-3.582,1.89,-2.52,0.91
1292.0,-9.234,-0.373,-3.563,-9.182,-0.44,-3.518,-1.19,-2.66,-0.14
,-9.189,-0.38,-3.563,-9.244,-0.414,-3.592,-1.96,-2.66,-0.42
,-9.237,-0.404,-3.534,-9.251,-0.304,-3.556,-2.52,-2.59,-0.42
,-9.232,-0.45,-3.513,-9.229,-0.321,-3.628,-2.8,-2.31,-0.28
1368.0,-9.217,-0.309,-3.644,-9.304,-0.39,-3.656,-3.78,-2.31,-0.14
,-9.292,-0.366,-3.766,-9.253,-0.237,-3.678,-3.71,-2.45,-0.07
,-9.342,-0.534,-3.759,-9.208,-0.098,-3.731,-3.85,-2.73,0.28
,-9.28,-0.486,-3.637,-9.217,-0.304,-3.738,-3.36,-3.22,0.7
1444.0,-9.141,-0.538,-3.726,-9.241,0.034,-2.989,-8.68,-4.06,-0.77
,-9.184,-0.486,-3.762,-9.368,0.201,-2.946,-7.63,-4.27,-0.7
,-9.273,-0.345,-3.668,-9.447,0.096,-2.876,-6.93,-4.41,-0.91
,-9.206,-0.213,-3.422,-9.421,-0.278,-3.041,-7.28,-4.34,-1.05
1520.0,-9.275,-1.05,-2.687,-9.581,-0.048,-2.663,-23.73,-2.03,-5.53
,-9.17,-0.983,-2.867,-9.426,-0.124,-2.809,-18.34,-0.91,-4.2
,-9.359,-0.694,-2.666,-9.256,-0.115,-2.922,-11.76,0.49,-2.45
,-9.612,-0.297,-2.644,-9.275,-0.041,-3.029,-6.51,1.82,-0.84
1596.0,-9.289,-0.27,-3.266,-9.512,-0.416,-3.199,-3.99,5.46,0.98
,-9.165,-0.455,-3.178,-9.49,-0.086,-3.039,-3.43,6.37,1.47
,-9.165,-0.469,-2.936,-9.359,0.294,-3.661,-1.61,6.86,1.82
,-9.344,-0.447,-3.037,-9.064,0.077,-3.613,-0.07,7.42,2.1
1672.0,-8.945,-0.268,-3.723,-8.765,-0.445,-4.092,-4.27,7.56,0.91
,-8.957,-0.629,-3.865,-9.007,-0.727,-3.326,-2.45,7.77,1.4
,-9.048,-0.737,-3.781,-9.316,-0.57,-2.929,1.82,7.56,2.03
,-9.112,-0.491,-3.967,-9.541,0.397,-3.07,4.76,7.56,2.52
1748.0,-9.533,0.782,-3.257,-9.17,-1.359,-3.202,14.49,8.96,3.78
,-9.261,0.687,-2.912,-9.282,-0.991,-3.319,7.98,9.1,2.94
,-9.083,-0.048,-3.4,-9.265,-0.55,-2.716,0.98,9.31,1.82
,-8.887,-1.115,-3.257,-9.392,0.407,-3.092,-1.82,10.15,2.03
1824.0,-9.301,0.993,-3.391,-9.229,0.361,-2.974,7.35,14.21,0.21
,-9.177,0.895,-2.644,-9.378,-0.514,-3.015,2.24,15.54,-0.21
,-9.038,0.56,-3.178,-9.241,-1.156,-2.534,-1.4,16.31,-1.54
,-8.741,0.325,-3.309,-9.194,-1.134,-3.051,-0.49,17.36,-1.33
1900.0,-9.06,-1.098,-2.948,-8.729,1.438,-3.209,-0.21,21.77,1.19
,-9.122,-0.486,-3.247,-9.002,1.713,-4.259,4.55,23.66,1.82
,-8.961,-0.101,-2.836,-8.643,1.486,-5.224,8.82,26.32,1.54
,-8.892,0.756,-3.283,-8.536,0.639,-5.327,10.85,28.21,0.14
1976.0,-8.603,-0.625,-5.214,-8.902,-1.452,-4.764,-10.71,24.43,-3.92
,-8.957,-1.898,-4.082,-8.765,-1.548,-4.573,-7.35,25.48,-3.43
,-9.055,-2.168,-4.195,-8.624,-1.216,-4.714,0.84,24.71,-1.89
,-8.899,-1.622,-4.838,-8.366,-0.692,-4.819,7.7,23.31,-0.28
2052.0,-8.368,0.251,-4.97,-8.954,-0.239,-4.707,9.38,23.87,2.45
,-8.564,0.89,-5.284,-9.069,-0.172,-4.561,9.66,23.31,2.03
,-8.655,0.864,-5.334,-8.861,-0.091,-4.996,4.69,22.47,1.19
,-8.801,0.352,-5.142,-8.804,-0.352,-5.097,0.42,22.54,0.98
2128.0,-8.507,-0.847,-5.066,-8.375,0.05,-5.843,3.22,14.07,0.28
,-8.387,-0.957,-4.903,-8.39,-0.077,-5.721,4.69,14.42,0.7
,-8.65,-0.577,-5.142,-8.346,-0.28,-5.327,7.49,13.44,-0.07
,-8.483,-0.081,-5.511,-8.612,-0.347,-4.819,8.26,12.11,-0.63
2204.0,-8.547,-0.644,-4.685,-8.815,-1.113,-4.922,1.4,14.0,-0.49
,-8.626,-1.122,-4.649,-8.191,-0.735,-5.051,2.59,13.79,1.05
,-8.658,-1.12,-5.193,-8.524,-0.313,-4.932,5.46,12.95,3.29
,-8.665,-1.328,-4.824,-8.375,0.225,-5.099,7.98,12.74,5.39
2280.0,-8.373,0.462,-5.219,-8.686,-0.081,-5.334,11.06,10.29,2.03
,-8.418,0.45,-5.537,-8.705,-0.254,-4.824,8.19,10.71,1.26
,-8.524,0.258,-5.525,-8.643,-0.103,-5.133,4.9,11.34,0.28
,-8.725,-0.041,-5.403,-8.44,-0.117,-5.233,3.85,11.41,-0.56
2356.0,-8.287,-0.524,-5.023,-8.299,-0.761,-4.977,10.36,8.61,-0.77
,-8.564,-0.811,-5.025,-8.136,-0.474,-5.485,12.25,8.68,-0.42
,-8.729,-1.039,-4.927,-8.33,-0.321,-5.36,13.16,8.82,-0.28
,-8.638,-1.469,-4.133,-8.387,-0.333,-5.657,13.16,8.68,-0.42
2432.0,-8.234,-0.687,-5.245,-8.976,-0.677,-4.783,16.24,7.56,-0.07
,-8.157,-0.658,-5.078,-9.091,-0.498,-4.779,16.31,8.47,0.07
,-8.299,-0.708,-5.164,-8.689,-0.371,-4.949,17.43,8.4,0.91
,-8.691,-0.67,-5.09,-8.897,0.179,-4.984,18.69,8.12,0.98
2508.0,-8.689,0.57,-5.547,-8.339,-0.675,-5.365,24.01,8.47,-1.47
,-8.227,0.653,-5.504,-8.646,-0.503,-5.508,21.91,8.54,-0.98
,-7.82,0.538,-5.834,-8.296,-0.409,-5.54,19.25,9.66,0.28
,-7.767,-0.089,-5.566,-8.452,-0.156,-5.626,13.72,10.36,0.35
2584.0,-8.744,-0.038,-5.597,-7.664,-0.842,-6.169,16.66,7.21,-8.26
,-8.641,-0.026,-5.642,-7.7,-1.677,-5.755,15.05,5.53,-9.52
,-8.27,-0.132,-5.791,-7.995,-2.015,-5.494,12.81,5.18,-9.17
,-7.889,-0.378,-5.939,-8.397,-2.252,-5.568,11.34,4.06,-9.03
2660.0,-8.832,-2.197,-5.336,-8.449,-1.177,-5.19,17.15,2.52,-2.17
,-8.531,-1.912,-5.044,-8.452,-0.754,-5.458,17.71,2.03,-0.7
,-8.177,-1.565,-5.049,-8.421,-0.675,-5.377,17.08,2.52,0.49
,-8.153,-1.388,-5.133,-8.349,-0.665,-5.42,15.54,3.36,0.7
2736.0,-8.339,-0.936,-5.525,-8.09,-1.498,-5.994,11.2,4.83,-0.28
,-8.145,-1.06,-5.786,-8.236,-1.333,-6.023,9.59,3.71,0.84
,-7.973,-1.194,-5.879,-8.576,-1.445,-5.97,8.12,3.08,2.24
,-7.894,-1.414,-6.009,-8.492,-1.555,-5.992,8.54,2.59,3.71
2812.0,-8.294,-1.543,-5.731,-8.267,-0.914,-5.319,12.88,-0.28,5.74
,-8.184,-1.098,-5.772,-8.167,-1.168,-5.602,13.86,-0.35,5.25
,-8.289,-0.902,-5.872,-8.148,-1.39,-5.611,11.69,-0.35,4.76
,-8.251,-1.048,-5.279,-8.294,-1.129,-5.597,9.73,-0.07,4.55
2888.0,-8.492,-0.816,-5.559,-8.409,-0.648,-5.386,7.28,-1.19,7.28
,-8.598,-0.656,-5.449,-8.459,-1.027,-5.262,7.07,-1.82,6.65
,-8.497,-0.361,-5.497,-8.452,-0.907,-5.157,6.16,-2.94,5.81
,-8.354,-0.512,-5.384,-8.346,-0.45,-5.207,4.48,-3.08,5.04
2964.0,-8.469,-0.227,-5.363,-8.349,-1.237,-5.14,3.57,-0.84,1.61
,-8.457,-0.306,-5.501,-8.045,-1.17,-5.245,1.96,-0.63,1.05
,-8.409,-0.158,-5.647,-8.277,-0.928,-5.195,0.98,-0.35,1.4
,-8.433,-0.593,-5.305,-8.485,-0.926,-5.284,-0.7,-0.28,2.38
3040.0,-8.466,-0.754,-5.367,-8.411,-1.357,-5.106,6.72,-1.47,0.35
,-8.464,-0.787,-5.068,-8.478,-1.728,-5.039,6.3,-1.68,0.42
,-8.313,-0.818,-5.197,-8.397,-2.048,-4.929,4.69,-2.45,0.14
,-8.212,-1.024,-5.212,-8.181,-2.283,-4.927,3.08,-2.31,-0.14
3116.0,-8.057,-2.28,-4.953,-8.564,-0.991,-5.324,4.55,0.21,2.8
,-8.313,-1.986,-5.051,-8.37,-0.826,-5.382,6.09,0.84,3.78
,-8.402,-1.512,-5.224,-8.315,-0.928,-5.367,7.42,1.05,4.69
,-8.478,-1.149,-5.374,-8.344,-1.067,-5.327,7.84,1.12,5.39
3192.0,-8.454,-0.983,-5.183,-8.354,-0.321,-5.047,7.28,1.54,4.83
,-8.354,-0.613,-5.183,-8.284,-0.304,-5.255,8.4,1.89,4.55
,-8.397,-0.481,-5.087,-8.344,-0.507,-5.348,7.91,2.66,4.27
,-8.402,-0.5,-4.946,-8.655,-0.818,-5.085,7.63,3.64,4.2
3268.0,-8.457,-0.914,-5.181,-8.303,-0.364,-5.432,4.34,6.3,2.87
,-8.413,-0.84,-5.159,-8.447,-0.421,-5.592,4.27,6.58,2.45
,-8.301,-0.55,-5.03,-8.512,-0.742,-5.544,3.22,6.93,2.03
,-8.217,-0.385,-5.207,-8.442,-1.098,-5.473,0.84,7.21,1.54
3344.0,-8.454,-0.995,-5.564,-8.538,-0.12,-5.729,-7.7,10.85,0.42
,-8.461,-0.713,-5.559,-8.727,-0.211,-5.537,-6.23,9.31,0.14
,-8.241,-0.335,-5.717,-8.526,-0.045,-5.664,-7.77,8.47,0.14
,-8.217,0.041,-5.901,-8.167,-0.144,-5.834,-9.17,8.19,-0.35
3420.0,-8.078,-0.601,-5.774,-8.37,-1.644,-5.635,-24.36,5.46,-1.33
,-8.282,-1.039,-5.755,-8.294,-1.354,-5.733,-26.18,5.18,-0.7
,-8.425,-1.711,-5.535,-8.351,-1.28,-5.654,-26.11,5.18,0.28
,-8.375,-1.622,-5.798,-8.452,-1.134,-5.839,-24.43,5.11,2.17
3496.0,-8.279,-1.216,-5.93,-7.985,-0.931,-6.018,-18.13,3.64,8.75
,-8.394,-1.299,-5.832,-8.232,-0.976,-5.738,-17.71,3.78,9.94
,-8.464,-1.137,-5.87,-8.366,-0.625,-5.894,-17.43,2.52,10.43
,-8.294,-1.019,-5.918,-8.229,-0.421,-6.028,-16.17,1.68,10.78
3572.0,-8.287,-0.467,-5.934,-8.469,0.091,-6.068,-11.13,-2.24,9.45
,-8.239,-0.412,-5.736,-8.564,0.352,-5.851,-11.69,-3.22,8.19
,-8.095,-0.235,-6.023,-8.413,0.227,-5.671,-10.78,-3.92,7.21
,-8.04,-0.447,-5.93,-8.382,0.055,-5.686,-11.13,-4.13,6.79
3648.0,-8.464,-0.105,-5.53,-7.865,-0.237,-5.492,-5.04,-4.41,3.08
,-8.435,-0.098,-5.607,-7.664,-0.354,-5.564,-3.92,-5.04,3.92
,-8.552,-0.227,-5.54,-8.246,-0.524,-5.331,-3.57,-5.04,4.2
,-8.787,-0.139,-5.518,-8.6,-0.239,-5.451,-5.32,-10.08,1.96
3724.0,-8.519,-0.165,-5.396,-8.366,-0.378,-5.446,-1.26,-10.99,-0.07
,-8.311,-0.101,-5.415,-8.77,-0.677,-5.233,-0.49,-9.66,0.91
,-8.337,-0.39,-5.408,-8.033,0.349,-6.001,-0.77,-7.49,2.38
,-8.636,-0.486,-5.274,-7.98,-0.361,-5.693,-0.77,-7.42,3.64
3800.0,-8.186,-0.239,-5.262,-8.368,-0.737,-5.264,-2.52,-15.33,1.75
,-8.49,0.007,-5.343,-8.576,-0.806,-5.159,-2.38,-15.96,1.61
,-8.435,-0.148,-5.374,-8.698,-0.493,-5.152,-3.85,-15.68,1.47
,-8.378,-0.426,-5.312,-8.662,-0.285,-5.099,-4.83,-14.42,1.54
3876.0,-8.945,0.139,-4.862,-8.497,-0.084,-4.793,4.76,-15.61,3.64
,-8.265,0.565,-4.989,-8.677,-0.349,-4.628,2.1,-16.87,3.64
,-8.155,0.627,-5.049,-8.619,-0.261,-4.513,-0.42,-16.31,3.64
,-8.311,0.244,-4.915,-8.894,-0.117,-4.348,-3.99,-16.59,2.52
3952.0,-9.048,-0.313,-4.465,-8.938,0.438,-4.468,0.14,-14.98,2.24
,-8.588,0.505,-4.451,-8.938,0.256,-4.398,2.52,-15.96,2.17
,-8.409,0.524,-4.357,-8.737,0.215,-4.13,1.19,-15.05,2.52
,-8.612,0.467,-4.255,-8.844,0.263,-4.228,0.21,-13.72,1.82
4028.0,-8.815,0.136,-4.434,-8.61,-0.184,-5.004,1.89,-10.92,0.07
,-8.555,-0.036,-4.824,-8.672,-0.239,-4.604,1.82,-11.41,0.14
,-8.825,-0.101,-4.834,-8.827,-0.132,-4.496,0.49,-12.04,0.0
,-8.832,-0.201,-4.838,-8.655,-0.06,-4.3,-1.19,-13.09,-0.21
4104.0,-8.882,-0.086,-3.843,-8.631,0.179,-4.312,-3.43,-15.47,-2.73
,-9.072,0.045,-4.223,-8.928,0.194,-4.195,-3.01,-15.4,-3.36
,-8.811,-0.11,-4.267,-9.086,0.16,-4.279,-2.73,-15.05,-3.08
,-8.734,-0.034,-4.228,-9.201,0.211,-4.085,-1.05,-14.63,-1.89
4180.0,-9.117,0.091,-3.908,-9.083,-0.766,-3.85,1.96,-14.42,-1.96
,-8.83,-0.084,-4.221,-9.012,-0.529,-3.549,-0.77,-15.12,-2.66
,-8.514,-0.369,-3.865,-9.244,-0.189,-3.805,-1.75,-15.05,-2.38
,-8.871,-0.713,-3.676,-9.055,0.077,-4.188,-0.56,-14.77,-1.61
4256.0,-8.725,0.203,-3.601,-9.414,0.201,-3.91,1.89,-14.28,-0.98
,-8.863,0.218,-3.269,-9.411,0.062,-4.025,3.43,-13.37,-0.91
,-9.119,0.132,-3.711,-8.985,0.318,-3.589,4.62,-13.16,-1.33
,-9.129,0.206,-3.64,-8.83,0.33,-3.4,6.58,-13.16,-0.77
4332.0,-9.103,0.141,-3.429,-9.112,-0.294,-3.206,-0.21,-14.7,-4.48
,-9.086,-0.16,-3.001,-9.174,-0.163,-3.824,-1.19,-13.93,-4.76
,-9.294,-0.041,-3.604,-9.067,-0.251,-3.482,-0.56,-13.79,-5.18
,-9.268,-0.242,-3.766,-9.203,-0.148,-3.496,-1.61,-13.79,-5.6
4408.0,-9.273,-0.22,-3.393,-9.241,-0.069,-3.881,6.58,-11.41,-2.87
,-9.318,-0.39,-3.376,-9.363,-0.072,-4.085,6.44,-11.97,-3.36
,-9.261,-0.182,-3.637,-9.275,-0.349,-3.553,7.35,-12.39,-4.69
,-8.954,-0.486,-3.52,-9.189,-0.294,-3.47,7.21,-13.44,-6.65
4484.0,-9.258,-0.266,-3.623,-9.672,-0.373,-2.694,3.85,-13.23,-3.78
,-9.129,-0.33,-2.979,-9.433,-0.124,-2.797,4.27,-12.67,-2.73
,-9.296,-0.445,-2.434,-9.258,-0.105,-2.757,5.46,-11.34,-1.61
,-9.543,-0.593,-2.194,-9.277,-0.366,-2.795,6.65,-10.29,-0.84
4560.0,-9.249,-0.424,-2.788,-9.234,-0.191,-3.329,6.16,-6.51,0.28
,-9.296,-0.237,-2.929,-9.186,-0.268,-3.381,6.58,-5.74,0.42
,-9.411,-0.098,-3.238,-9.292,-0.373,-3.156,6.16,-5.81,0.28
,-9.407,-0.146,-3.463,-9.478,-0.412,-3.058,4.27,-6.09,0.21
4636.0,-9.459,-0.383,-2.589,-9.411,-0.701,-2.458,2.1,-4.69,-0.42
,-9.514,-0.337,-2.257,-9.402,-0.766,-2.57,1.4,-4.27,-0.84
,-9.622,-0.333,-2.254,-9.442,-0.57,-2.907,0.7,-3.43,-0.84
,-9.581,-0.536,-2.319,-9.251,-0.78,-2.699,0.14,-2.45,-0.77
4712.0,-9.253,-0.876,-2.367,-9.438,-0.263,-3.467,3.08,2.17,1.33
,-9.588,-0.617,-2.615,-9.277,-0.28,-3.62,4.41,2.87,1.54
,-9.675,-0.359,-2.881,-9.249,-0.333,-3.9,4.55,3.08,1.75
,-9.55,-0.146,-3.25,-9.139,-0.294,-3.97,3.29,3.22,1.82
4788.0,-9.198,-0.278,-3.898,-9.27,-0.223,-3.044,6.3,0.28,2.59
,-9.251,-0.4,-3.498,-9.351,-0.306,-2.702,5.32,-0.28,2.38
,-9.316,-0.172,-3.465,-9.426,-0.294,-2.601,6.44,-0.98,1.96
,-9.375,-0.12,-3.391,-9.407,-0.215,-2.52,6.44,-1.4,1.82
4864.0,-9.476,-0.27,-2.438,-9.404,-0.309,-2.984,3.43,1.12,0.98
,-9.552,-0.345,-2.553,-9.457,-0.342,-3.178,2.87,1.89,0.7
,-9.469,-0.471,-2.702,-9.361,-0.297,-3.281,2.73,2.31,0.49
,-9.373,-0.395,-2.745,-9.34,-0.414,-3.326,2.66,2.94,0.63
4940.0,-9.299,-0.495,-3.364,-9.404,-0.23,-2.891,2.1,3.36,0.21
,-9.316,-0.345,-3.24,-9.483,-0.335,-2.919,3.5,3.5,0.49
,-9.397,-0.127,-3.084,-9.483,-0.409,-2.962,3.99,3.57,0.7
,-9.459,-0.146,-2.984,-9.457,-0.388,-3.008,3.57,3.78,0.77
5016.0,-9.495,-0.278,-3.195,-9.33,-0.376,-3.577,2.66,4.55,1.12
,-9.385,-0.239,-3.302,-9.258,-0.369,-3.534,1.33,4.27,0.63
,-9.351,-0.175,-3.374,-9.282,-0.292,-3.537,0.28,4.06,0.42
,-9.354,-0.213,-3.491,-9.366,-0.203,-3.549,-0.91,3.92,0.07
5092.0,-9.308,-0.189,-3.599,-9.316,-0.385,-3.309,2.59,2.52,0.56
,-9.294,-0.242,-3.577,-9.294,-0.503,-3.19,2.24,1.96,0.28
,-9.308,-0.261,-3.463,-9.378,-0.567,-3.017,1.68,1.54,0.0
,-9.294,-0.316,-3.434,-9.509,-0.395,-2.986,1.47,1.47,0.0
5168.0,-9.43,-0.194,-3.056,-9.33,-0.28,-3.226,3.99,1.96,0.42
,-9.416,-0.05,-3.149,-9.347,-0.345,-3.118,2.87,1.75,-0.14
,-9.299,-0.069,-3.173,-9.483,-0.318,-3.36,1.26,2.1,-0.49
,-9.304,-0.201,-3.178,-9.445,-0.28,-3.362,0.14,2.24,-0.77
5244.0,-9.344,-0.029,-3.333,-9.292,-0.385,-3.333,-0.14,1.75,-1.96
,-9.33,0.026,-3.314,-9.289,-0.474,-3.25,-2.17,1.54,-2.38
,-9.33,-0.179,-3.197,-9.318,-0.574,-3.216,-3.78,1.61,-2.38
,-9.397,-0.369,-3.331,-9.316,-0.431,-3.199,-3.71,1.68,-2.45
5320.0,-9.418,-0.335,-3.116,-9.354,-0.294,-3.149,-1.96,1.96,-1.82
,-9.442,-0.479,-3.056,-9.337,-0.27,-3.238,-2.52,2.24,-1.68
,-9.428,-0.598,-2.977,-9.354,-0.163,-3.398,-2.1,2.52,-1.47
,-9.404,-0.5,-3.049,-9.273,-0.194,-3.386,-0.35,2.94,-0.84
5396.0,-9.265,-0.311,-3.51,-9.292,-0.359,-3.283,0.28,2.73,-0.28
,-9.282,-0.337,-3.496,-9.342,-0.531,-3.269,0.14,2.59,-0.56
,-9.351,-0.4,-3.532,-9.361,-0.459,-3.305,0.21,2.24,-0.77
,-9.332,-0.342,-3.417,-9.38,-0.306,-3.317,-0.28,1.96,-0.84
5472.0,-9.32,-0.251,-3.252,-9.426,-0.431,-2.936,0.0,2.03,-0.56
,-9.378,-0.342,-3.113,-9.404,-0.555,-2.843,-0.49,2.17,-0.49
,-9.366,-0.402,-2.962,-9.418,-0.55,-3.044,-0.63,2.45,-0.49
,-9.418,-0.376,-2.9,-9.342,-0.369,-3.192,-0.42,2.94,-0.35
5548.0,-9.308,-0.258,-3.458,-9.165,-0.558,-3.257,-0.35,4.06,-0.21
,-9.244,-0.302,-3.558,-9.438,-0.459,-3.252,-2.03,4.06,-0.35
,-9.258,-0.438,-3.635,-9.447,-0.273,-3.24,-3.15,3.71,-0.49
,-9.167,-0.536,-3.537,-9.469,0.019,-3.317,-3.71,3.64,-0.42
5624.0,-9.395,-0.007,-3.35,-9.196,-0.84,-2.601,-9.24,3.08,-2.24
,-9.301,-0.223,-3.262,-9.457,-0.646,-2.458,-11.97,3.22,-2.73
,-9.201,-0.321,-3.259,-9.552,-0.462,-2.525,-13.02,3.29,-2.87
,-9.213,-0.56,-3.206,-9.524,-0.364,-2.522,-13.37,3.57,-2.38
5700.0,-9.517,-0.62,-2.594,-9.038,-0.273,-3.738,-10.5,7.77,0.28
,-9.308,-0.883,-2.848,-9.095,-0.06,-3.649,-10.64,8.82,0.49
,-9.208,-1.012,-3.025,-9.119,0.007,-3.501,-9.03,9.59,1.05
,-9.098,-0.821,-3.443,-9.16,-0.194,-2.962,-4.83,9.94,1.61
5776.0,-9.514,-0.144,-2.927,-9.316,-0.756,-2.912,0.0,11.48,2.31
,-9.258,-0.127,-3.178,-9.244,-0.869,-2.663,-0.28,11.27,1.96
,-9.143,-0.23,-3.108,-9.165,-0.73,-3.228,-0.77,11.2,2.66
,-9.292,-0.416,-2.948,-9.086,-0.127,-2.946,-2.38,11.55,3.08
5852.0,-9.139,0.124,-4.149,-8.964,0.318,-4.764,7.07,13.65,4.76
,-8.969,0.103,-3.872,-9.273,0.943,-4.57,5.32,12.67,5.32
,-9.038,0.268,-4.671,-9.438,1.077,-4.123,6.16,11.76,5.53
,-8.926,0.057,-5.075,-9.215,0.916,-3.001,7.21,10.99,4.9
5928.0,-9.373,0.622,-2.807,-9.179,-0.943,-3.635,9.31,13.23,0.98
,-9.165,-0.038,-2.982,-8.562,-0.89,-4.111,4.62,13.02,0.28
,-9.557,-0.342,-3.123,-8.418,-0.787,-3.814,2.73,12.67,0.7
,-9.667,-0.799,-3.951,-8.851,-0.297,-3.623,0.42,11.83,0.14
6004.0,-9.191,-0.101,-2.972,-8.997,0.057,-3.087,3.15,15.4,-0.77
,-9.519,-0.313,-2.52,-8.495,-0.043,-4.389,-0.63,16.8,-1.54
,-9.794,-0.524,-2.687,-8.346,-0.912,-4.058,-1.33,17.92,-1.68
,-9.392,-0.323,-3.104,-8.636,-1.374,-4.259,0.0,18.27,-1.4
6080.0,-8.646,-1.371,-4.398,-9.179,0.124,-3.766,11.62,18.62,5.88
,-9.112,-0.991,-3.886,-9.241,-0.175,-3.446,17.01,19.6,6.51
,-9.016,-0.436,-4.018,-9.464,0.168,-3.398,18.41,19.53,6.3
,-8.993,-0.134,-3.795,-9.227,1.151,-3.819,15.68,19.81,6.3
6156.0,-8.622,1.46,-4.243,-8.978,-0.026,-4.365,0.91,20.09,-1.75
,-8.44,1.173,-4.255,-9.306,-0.196,-4.451,-3.64,20.02,-1.96
,-8.547,0.4,-4.212,-9.203,-0.225,-4.743,-6.79,20.44,-1.89
,-8.873,0.263,-4.274,-8.629,-0.345,-4.987,-4.27,21.21,-1.82
6232.0,-8.244,-0.562,-5.037,-8.842,-0.287,-5.506,-6.02,16.94,-4.27
,-8.081,-1.019,-4.843,-8.619,-0.543,-5.487,-6.65,18.83,-4.48
,-8.593,-1.089,-4.618,-8.208,-1.228,-5.343,-2.94,20.23,-4.13
,-8.966,-0.711,-5.142,-8.119,-1.429,-5.102,0.63,18.34,-4.06
6308.0,-8.466,-0.916,-5.099,-8.634,-0.136,-4.98,9.45,16.8,2.03
,-8.83,-0.273,-4.953,-8.82,-0.218,-5.252,11.27,13.79,1.12
,-8.43,-0.038,-4.965,-9.026,-0.278,-5.279,8.33,12.88,1.47
,-8.198,-0.084,-4.97,-8.863,-0.237,-5.267,4.76,13.72,2.8
6384.0,-8.653,-0.227,-5.188,-8.526,-1.043,-4.815,6.09,12.53,2.24
,-8.37,-0.278,-5.262,-8.679,-1.146,-4.822,6.44,11.27,2.59
,-8.315,-0.503,-5.128,-8.464,-0.804,-5.059,6.58,10.99,2.66
,-8.435,-0.962,-4.91,-8.294,-0.481,-5.243,6.72,11.27,3.15
6460.0,-8.49,-0.529,-4.992,-8.528,0.51,-5.173,9.8,11.76,6.44
,-8.545,-0.194,-4.764,-8.775,0.043,-4.774,8.75,10.57,5.88
,-8.27,-0.11,-4.953,-9.069,-0.244,-4.917,8.82,12.18,6.02
,-8.478,0.194,-4.905,-8.713,-0.39,-5.08,10.43,13.72,5.81
6536.0,-8.423,-0.677,-5.183,-8.361,-0.517,-5.374,13.37,10.43,3.15
,-7.921,-0.715,-5.293,-8.236,-0.498,-5.619,15.68,10.5,3.08
,-8.222,-0.771,-5.379,-8.433,-0.514,-5.202,18.55,10.5,3.29
,-8.658,-0.754,-5.288,-8.44,-0.34,-5.439,19.88,10.22,3.64
6612.0,-8.387,-0.158,-5.458,-8.387,-0.191,-5.86,19.53,8.89,5.04
,-8.342,0.019,-5.475,-8.33,-0.29,-5.698,19.81,8.75,5.18
,-8.236,0.122,-5.772,-8.351,-0.503,-5.568,19.67,8.47,4.83
,-8.215,-0.005,-5.997,-8.614,-0.369,-5.427,19.6,8.61,4.41
6688.0,-8.514,-0.165,-5.501,-8.447,-0.605,-5.363,24.43,7.35,2.8
,-8.605,-0.337,-5.312,-8.263,-0.629,-5.604,23.73,6.79,2.03
,-8.665,-0.182,-5.343,-8.177,-0.871,-5.64,23.31,6.51,1.19
,-8.485,-0.419,-5.456,-8.294,-0.708,-5.592,22.12,6.72,1.19
6764.0,-8.196,-0.921,-5.604,-8.516,-0.766,-5.085,21.14,3.71,3.08
,-8.504,-1.225,-5.229,-8.299,-0.443,-5.384,20.58,4.41,4.13
,-8.526,-1.421,-5.063,-7.949,-0.206,-5.475,21.63,5.18,4.55
,-8.516,-1.189,-4.968,-7.897,-0.074,-5.604,24.01,5.95,4.97
6840.0,-8.138,0.148,-5.961,-8.145,-0.646,-5.497,23.73,4.13,4.34
,-8.404,0.232,-6.119,-8.296,-0.696,-5.662,22.61,3.08,3.5
,-8.452,-0.062,-5.693,-8.61,-0.802,-5.528,20.16,2.94,4.27
,-8.198,-0.424,-5.401,-8.531,-0.962,-5.564,17.64,3.71,5.39
6916.0,-8.177,-1.029,-5.678,-8.48,-0.376,-5.855,9.45,4.41,6.16
,-8.066,-0.976,-5.731,-8.545,-0.366,-5.604,10.29,5.32,6.79
,-8.332,-0.689,-5.791,-8.32,-0.409,-5.693,10.78,4.27,5.95
,-8.361,-0.445,-5.918,-8.043,-0.529,-5.726,9.87,3.08,4.69
6992.0,-8.16,-0.45,-5.741,-8.289,-0.787,-5.901,3.36,0.91,2.24
,-8.356,-0.416,-5.81,-8.382,-0.869,-5.791,2.66,0.28,1.68
,-8.366,-0.419,-5.87,-8.356,-0.928,-5.733,2.52,-0.21,1.4
,-8.33,-0.357,-5.843,-8.354,-1.017,-5.561,2.24,-0.42,1.4
7068.0,-8.294,-1.165,-5.413,-8.308,-1.007,-5.583,1.68,1.05,1.82
,-8.165,-1.352,-5.229,-8.294,-0.574,-5.609,1.61,0.84,2.03
,-8.212,-1.182,-5.439,-8.222,-0.371,-5.583,1.54,0.77,2.03
,-8.382,-1.084,-5.54,-8.318,-0.517,-5.279,1.68,0.77,2.1
7144.0,-8.433,-0.395,-5.25,-8.246,-0.732,-5.475,1.61,-0.07,0.98
,-8.361,-0.189,-5.434,-8.318,-0.684,-5.506,0.84,-0.49,0.63
,-8.289,-0.325,-5.477,-8.267,-0.44,-5.518,-0.35,0.07,0.42
,-8.291,-0.469,-5.418,-8.215,-0.328,-5.525,-0.98,0.49,0.14
7220.0,-8.433,-0.543,-5.386,-8.296,-0.849,-5.358,-3.64,1.75,-0.07
,-8.277,-0.67,-5.209,-8.399,-0.723,-5.497,-4.48,2.24,0.42
,-8.117,-0.799,-5.173,-8.457,-0.299,-5.681,-4.06,3.08,0.7
,-8.21,-0.881,-5.252,-8.385,-0.062,-5.767,-3.71,3.78,0.49
7296.0,-8.21,-0.239,-5.693,-8.038,-0.744,-5.52,-5.04,4.06,1.05
,-8.533,-0.431,-5.556,-8.162,-0.658,-5.788,-7.21,3.78,0.7
,-8.526,-0.591,-5.461,-8.418,-0.658,-5.803,-7.98,3.01,0.91
,-8.155,-0.737,-5.396,-8.607,-0.593,-5.776,-8.54,3.29,1.68
7372.0,-8.504,-0.378,-5.932,-8.172,-0.352,-5.92,-11.2,2.87,3.01
,-8.43,-0.419,-5.87,-8.241,-0.249,-5.939,-12.95,3.22,2.94
,-8.373,-0.512,-5.853,-8.325,-0.165,-5.87,-14.91,2.59,2.73
,-8.258,-0.584,-5.81,-8.43,-0.144,-5.76,-15.05,2.03,3.08
7448.0,-8.366,-0.045,-5.832,-8.203,-0.103,-6.011,-15.12,-1.12,3.5
,-8.313,0.069,-5.906,-8.244,-0.371,-5.767,-14.42,-0.98,3.92
,-8.325,0.148,-5.954,-8.54,-0.641,-5.319,-14.21,-0.98,4.48
,-8.265,0.117,-6.004,-8.344,-0.469,-5.765,-14.77,-1.05,4.55
7524.0,-8.124,-0.704,-5.633,-8.665,-1.278,-5.738,-15.26,-2.1,4.34
,-8.126,-0.948,-5.532,-8.354,-1.024,-6.006,-14.28,-2.31,4.69
,-8.404,-1.027,-5.616,-8.117,-0.888,-6.056,-12.88,-3.36,4.62
,-8.5,-1.235,-5.7,-8.16,-0.883,-5.901,-11.27,-4.2,5.04
7600.0,-8.224,-0.727,-5.738,-8.48,0.486,-5.906,-3.43,-5.18,7.35
,-8.48,-0.524,-5.456,-8.571,0.45,-5.733,-2.52,-6.37,8.05
,-8.208,-0.034,-5.616,-8.691,0.213,-5.456,-1.54,-7.98,8.61
,-8.107,0.349,-5.927,-8.363,0.292,-5.413,-1.47,-8.68,8.47
7676.0,-7.992,0.299,-5.298,-8.574,1.01,-5.272,-0.21,-11.41,3.99
,-8.076,0.306,-5.178,-8.392,1.062,-5.255,1.26,-11.83,3.85
,-8.454,0.5,-5.166,-8.363,0.878,-5.248,3.08,-12.11,3.22
,-8.784,0.761,-5.217,-8.44,0.684,-5.19,4.06,-12.67,2.1
7752.0,-8.466,0.68,-5.19,-8.105,0.866,-5.173,0.28,-8.05,-0.07
,-8.358,0.555,-5.209,-8.339,0.383,-5.178,-0.56,-8.54,-0.56
,-8.603,0.294,-5.489,-8.478,0.287,-4.652,0.14,-9.59,-1.96
,-8.811,0.213,-4.922,-8.61,0.199,-4.597,-2.73,-12.6,-3.78
7828.0,-8.37,0.251,-4.86,-8.772,-1.218,-4.628,-2.8,-13.09,-5.11
,-8.344,-0.081,-4.836,-8.918,-1.376,-4.578,-3.43,-11.55,-4.83
,-8.471,-0.505,-4.637,-8.705,-0.976,-4.731,-2.45,-9.59,-4.69
,-8.794,-0.835,-4.623,-8.342,-0.572,-4.903,-0.14,-8.26,-4.2
7904.0,-8.457,-0.45,-4.843,-8.303,-0.835,-4.678,3.01,-14.28,0.42
,-8.677,-0.479,-4.963,-8.552,-0.893,-4.726,-0.14,-14.98,0.14
,-8.691,-0.529,-4.738,-8.799,-0.828,-4.508,-4.83,-15.68,0.0
,-8.385,-0.629,-4.671,-8.89,-0.589,-4.599,-6.51,-14.98,0.98
7980.0,-8.847,-0.258,-4.532,-8.729,1.108,-4.439,7.91,-13.51,7.77
,-8.679,0.144,-4.448,-8.914,0.881,-4.3,9.8,-13.37,8.19
,-8.77,0.471,-4.465,-8.801,0.648,-4.305,8.96,-13.86,7.07
,-8.734,0.89,-4.448,-8.813,0.452,-3.984,7.07,-14.42,5.95
8056.0,-8.825,0.361,-3.991,-8.954,0.383,-3.927,-4.34,-14.21,-0.42
,-8.825,0.321,-4.015,-9.091,0.194,-3.802,-3.85,-14.35,-1.68
,-8.691,0.421,-3.951,-8.988,0.258,-3.865,-3.64,-14.56,-1.54
,-8.756,0.541,-4.003,-8.813,0.345,-3.841,-3.64,-14.14,-1.47
8132.0,-8.792,0.464,-4.039,-8.988,0.534,-4.25,-8.47,-11.62,-4.13
,-8.959,0.364,-3.735,-8.72,0.514,-4.14,-10.5,-11.06,-3.99
,-9.174,0.345,-3.786,-8.794,0.254,-4.092,-11.83,-10.92,-4.76
,-9.294,0.369,-3.881,-8.971,-0.16,-3.752,-12.81,-11.41,-6.3
8208.0,-9.179,-0.342,-3.92,-9.086,-0.129,-3.881,-17.36,-8.47,-10.36
,-9.0,-0.199,-3.53,-9.141,-0.237,-3.798,-14.14,-7.7,-9.59
,-9.093,0.036,-4.087,-9.036,-0.421,-4.011,-12.81,-7.91,-9.03
,-8.894,-0.122,-4.056,-8.966,-0.651,-3.984,-13.79,-8.19,-8.12
8284.0,-8.961,-0.883,-3.979,-9.107,0.297,-3.635,-8.47,-7.35,-3.64
,-9.148,-0.519,-3.869,-9.215,0.256,-3.877,-3.71,-7.07,-2.52
,-9.048,-0.01,-4.123,-8.906,0.153,-3.812,-0.98,-6.79,-2.45
,-9.009,0.115,-3.975,-9.005,0.129,-4.173,0.14,-6.23,-1.82
8360.0,-9.069,0.122,-3.79,-9.005,0.627,-4.386,4.2,-5.04,0.77
,-9.107,0.28,-3.635,-8.574,0.199,-4.319,7.21,-4.55,2.94
,-9.383,0.526,-3.723,-9.036,-0.641,-4.499,9.52,-4.69,4.27
,-9.792,0.404,-3.963,-8.959,-0.948,-4.061,6.58,-7.42,1.82
8436.0,-8.892,-0.345,-3.656,-9.119,0.258,-3.072,7.7,-7.35,-0.14
,-9.129,-0.165,-3.719,-9.256,0.357,-3.082,8.68,-7.21,-0.21
,-9.375,0.017,-3.498,-9.426,0.727,-3.743,8.75,-6.93,-0.21
,-9.268,0.182,-3.46,-9.033,0.826,-4.03,8.19,-6.58,0.21
8512.0,-8.882,0.519,-4.128,-9.371,-0.239,-3.683,6.65,-6.51,0.84
,-8.878,-0.019,-3.659,-9.249,-0.392,-3.424,6.72,-6.02,1.54
,-9.143,-0.268,-3.628,-9.146,-0.412,-3.092,9.31,-6.02,1.47
,-9.186,-0.206,-3.446,-9.383,-0.395,-3.101,11.76,-5.74,1.19
8588.0,-9.454,-0.321,-3.202,-8.849,0.239,-3.893,10.57,-4.13,0.21
,-9.363,0.017,-3.711,-8.906,-0.01,-3.972,11.41,-4.34,-0.35
,-9.349,0.256,-3.769,-9.143,-0.23,-3.573,9.03,-5.46,-0.91
,-9.05,0.254,-3.872,-9.409,0.141,-3.546,8.47,-6.09,-1.54
8664.0,-9.612,0.168,-3.606,-9.244,-0.17,-3.051,13.51,-7.0,-2.45
,-9.44,0.345,-3.391,-9.349,-0.297,-3.185,9.17,-6.86,-2.59
,-9.215,0.342,-3.135,-9.117,-0.395,-2.73,3.57,-6.86,-3.22
,-9.086,0.029,-2.938,-9.162,-0.467,-2.276,-0.14,-6.09,-3.64
8740.0,-9.414,-0.505,-2.075,-9.452,-0.115,-3.032,2.38,-0.42,-1.54
,-9.612,-0.292,-2.137,-9.04,-0.28,-3.206,4.13,1.19,-1.19
,-9.608,0.026,-2.137,-9.062,-0.412,-3.369,4.13,2.52,-0.84
,-9.576,0.165,-2.694,-9.22,-0.603,-3.4,2.8,3.64,-0.84
8816.0,-9.304,-0.486,-3.458,-9.304,-0.022,-4.391,9.03,7.14,1.89
,-9.466,-0.282,-3.697,-9.115,-0.101,-4.508,10.22,6.79,2.17
,-9.471,-0.199,-3.829,-8.911,0.225,-4.587,9.31,5.95,1.96
,-9.38,0.002,-4.18,-8.952,0.139,-4.319,8.4,5.04,1.75
8892.0,-9.062,-0.084,-3.934,-9.385,-0.34,-3.163,2.1,0.14,-0.63
,-9.15,-0.321,-3.577,-9.294,-0.081,-3.199,1.89,-0.14,-0.42
,-9.215,-0.522,-3.221,-9.265,-0.053,-3.206,2.24,-0.28,0.07
,-9.359,-0.625,-3.195,-9.191,-0.134,-3.142,3.78,0.0,0.42
8968.0,-9.244,-0.211,-2.924,-9.399,0.045,-3.415,4.27,2.66,0.84
,-9.349,-0.256,-2.965,-9.165,-0.031,-3.585,4.83,3.29,0.98
,-9.395,-0.199,-2.898,-9.229,-0.091,-3.833,5.46,3.85,1.12
,-9.435,-0.024,-3.192,-9.22,-0.294,-4.106,5.88,4.27,0.84
9044.0,-9.162,-0.285,-4.235,-9.174,-0.189,-3.719,3.43,3.08,-0.14
,-9.134,-0.218,-4.168,-9.27,-0.357,-3.324,4.41,2.38,-0.07
,-9.139,-0.232,-4.063,-9.383,-0.261,-3.312,5.46,1.82,0.35
,-9.103,-0.275,-3.788,-9.34,-0.184,-3.295,6.93,1.54,0.77
9120.0,-9.318,-0.134,-3.352,-9.277,-0.266,-3.515,6.09,1.68,0.91
,-9.268,-0.101,-3.537,-9.182,-0.194,-3.47,4.34,1.75,0.0
,-9.191,-0.074,-3.46,-9.158,-0.156,-3.467,2.38,1.82,-0.42
,-9.385,-0.048,-3.597,-9.107,-0.249,-3.391,0.63,1.96,-0.77
9196.0,-9.203,-0.325,-3.4,-9.117,-0.179,-3.649,-1.19,2.59,-0.91
,-9.313,-0.117,-3.47,-9.16,-0.302,-3.707,-0.07,2.66,-0.7
,-9.476,-0.127,-3.628,-9.127,-0.428,-3.652,-0.21,2.45,-1.12
,-9.299,-0.129,-3.659,-9.249,-0.483,-3.539,-0.98,2.1,-1.4
9272.0,-9.222,-0.364,-3.384,-9.256,-0.036,-3.563,2.31,2.38,-0.07
,-9.354,-0.251,-3.319,-9.229,-0.141,-3.69,3.57,2.73,0.35
,-9.421,-0.069,-3.362,-9.141,-0.148,-3.8,4.13,2.73,0.42
,-9.347,-0.005,-3.424,-9.103,-0.208,-3.8,3.71,2.66,0.56
9348.0,-9.148,-0.311,-3.685,-9.196,-0.108,-3.671,3.01,2.59,0.49
,-9.136,-0.376,-3.585,-9.201,-0.141,-3.738,3.29,2.38,0.42
,-9.337,-0.256,-3.577,-9.354,-0.342,-3.865,3.85,2.66,0.35
,-9.371,-0.179,-3.649,-9.098,-0.246,-3.695,3.36,2.38,-0.28
9424.0,-9.055,-0.165,-3.556,-9.296,-0.256,-3.369,-1.19,1.05,-1.82
,-9.177,-0.519,-3.386,-9.256,-0.172,-3.427,-1.19,1.19,-1.33
,-9.28,-0.601,-3.336,-9.261,-0.086,-3.539,1.12,1.54,-0.56
,-9.342,-0.438,-3.374,-9.251,-0.091,-3.635,3.71,2.03,0.07
9500.0,-9.201,-0.091,-3.582,-9.308,-0.163,-3.546,2.17,2.66,-0.42
,-9.244,-0.079,-3.565,-9.351,-0.215,-3.561,1.68,2.66,-0.63
,-9.246,-0.029,-3.537,-9.287,-0.38,-3.616,1.4,2.73,-0.77
,-9.208,0.029,-3.563,-9.189,-0.412,-3.666,0.49,2.66,-0.91
9576.0,-9.136,-0.337,-3.817,-9.316,-0.12,-3.683,1.05,3.01,-0.49
,-9.165,-0.342,-3.81,-9.258,-0.148,-3.695,1.82,2.87,-0.21
,-9.194,-0.397,-3.747,-9.189,-0.258,-3.774,2.03,2.8,-0.21
,-9.198,-0.273,-3.565,-9.127,-0.39,-3.798,2.52,2.87,0.0
9652.0,-9.086,-0.536,-3.826,-9.179,-0.663,-3.723,3.15,2.17,1.4
,-9.217,-0.584,-3.857,-9.167,-0.529,-3.666,5.18,2.17,1.89
,-9.246,-0.641,-3.795,-9.246,-0.392,-3.762,6.65,2.1,2.24
,-9.177,-0.617,-3.723,-9.258,-0.084,-3.96,8.19,1.89,2.59
9728.0,-9.186,-0.053,-3.898,-9.407,-0.208,-2.919,10.29,0.77,3.01
,-9.153,0.005,-3.814,-9.545,-0.38,-2.438,8.47,0.63,2.73
,-9.146,-0.105,-3.551,-9.584,-0.211,-2.558,6.93,0.63,2.59
,-9.184,-0.129,-3.166,-9.488,-0.182,-2.69,6.58,1.05,2.66
9804.0,-9.256,-0.199,-3.159,-9.062,-0.555,-3.044,1.26,4.9,1.96
,-9.062,-0.452,-3.451,-9.502,0.022,-3.154,-0.56,5.67,2.17
,-8.902,-0.782,-3.625,-9.445,0.282,-2.912,-1.33,6.44,2.8
,-8.799,-0.912,-3.424,-9.433,0.431,-3.13,1.19,7.42,3.57
9880.0,-9.416,0.089,-2.962,-9.005,-0.967,-3.479,-2.03,10.01,1.61
,-9.237,-0.256,-3.209,-8.902,-1.235,-3.139,-5.39,10.5,1.82
,-9.127,-0.62,-3.403,-9.155,-0.991,-3.439,-5.39,10.71,2.24
,-8.995,-0.727,-3.307,-9.124,-0.012,-4.037,-2.52,11.69,3.5
9956.0,-9.148,0.766,-4.085,-9.1,0.507,-4.322,14.56,14.07,6.51
,-9.277,1.182,-4.381,-8.756,0.093,-4.032,9.94,13.51,4.9
,-9.016,0.838,-4.35,-8.959,-0.361,-3.611,2.73,12.53,2.45
,-9.043,0.596,-3.888,-9.284,-0.78,-3.769,-0.63,11.55,0.77
10032.0,-9.062,-0.931,-3.398,-8.866,0.349,-3.888,-0.98,11.97,0.07
,-9.093,-1.01,-3.46,-8.938,0.933,-3.972,1.89,12.81,1.89
,-9.009,-0.847,-3.372,-8.861,0.974,-4.176,4.48,13.16,3.08
,-9.16,-0.392,-3.774,-8.772,0.072,-3.798,6.65,13.16,3.5
10108.0,-8.89,-0.531,-3.544,-9.072,-0.771,-4.156,-9.45,13.51,-1.82
,-8.966,-0.529,-3.829,-9.363,-0.826,-3.683,-5.67,14.07,-1.26
,-8.971,-0.823,-3.623,-9.124,-0.4,-3.759,-3.01,14.35,-0.07
,-8.854,-0.668,-4.377,-8.823,0.512,-4.19,2.8,14.21,1.05
10184.0,-8.691,1.512,-4.726,-8.878,-0.376,-3.743,15.05,14.35,1.89
,-8.703,1.721,-5.296,-8.839,-1.249,-3.814,3.57,11.83,-1.4
,-8.725,1.158,-4.743,-8.847,-1.74,-4.116,-7.63,11.41,-4.06
,-8.909,0.467,-4.214,-8.902,-1.79,-4.432,-14.35,11.83,-6.86
10260.0,-8.811,-1.73,-4.587,-8.473,0.122,-5.64,2.87,14.07,2.03
,-9.064,-1.266,-4.41,-8.71,0.38,-5.721,9.94,15.33,3.78
,-9.014,-0.677,-4.872,-8.863,0.273,-5.274,16.03,15.33,4.9
,-8.648,-0.115,-5.425,-8.768,0.558,-4.915,18.69,13.79,6.3
10336.0,-8.502,0.486,-4.728,-9.052,-0.464,-4.221,1.4,7.28,-1.82
,-8.571,0.261,-4.259,-9.198,-0.56,-4.334,-0.35,8.26,-1.47
,-8.799,-0.074,-4.245,-8.923,-0.086,-4.41,-2.31,7.84,-0.63
,-8.856,-0.457,-4.24,-8.581,0.467,-5.011,-3.71,7.98,0.7
10412.0,-8.689,0.708,-4.975,-8.818,0.002,-4.369,6.93,4.97,1.54
,-8.629,0.672,-4.846,-8.961,-0.424,-4.286,2.87,4.76,0.49
,-8.71,0.412,-4.688,-8.737,-0.778,-4.252,-0.14,5.39,-1.12
,-8.88,0.227,-4.491,-8.775,-0.969,-4.238,-1.68,6.65,-2.45
10488.0,-8.906,-0.715,-4.458,-8.409,0.11,-4.635,-0.49,6.65,-0.98
,-8.734,-0.622,-4.707,-8.428,-0.007,-4.503,0.77,6.37,-0.63
,-8.847,-0.211,-4.762,-8.708,-0.323,-4.176,2.1,5.39,-0.42
,-8.466,0.029,-4.925,-8.839,-0.235,-4.106,2.38,4.69,-0.63
10564.0,-8.76,-0.416,-3.824,-8.622,0.17,-4.535,-0.42,12.04,-0.21
,-8.792,-0.373,-3.996,-8.277,0.419,-4.953,2.87,13.65,0.56
,-8.837,-0.227,-4.073,-8.547,0.304,-4.7,4.83,13.44,0.42
,-8.851,-0.053,-4.204,-8.557,-0.132,-4.949,5.67,13.02,0.28
10640.0,-8.746,-0.694,-5.097,-8.586,-1.962,-4.843,3.36,13.09,-1.61
,-8.614,-1.17,-4.872,-8.634,-1.838,-5.135,3.08,13.44,-0.7
,-8.306,-1.618,-4.736,-8.409,-1.558,-5.475,4.13,14.98,0.98
,-8.698,-1.89,-4.532,-8.327,-1.048,-5.724,6.72,15.26,2.66
10716.0,-8.189,-0.199,-6.104,-9.019,0.024,-4.989,21.21,5.95,7.91
,-8.059,0.105,-6.155,-9.165,0.002,-4.752,20.16,6.02,7.91
,-8.248,0.187,-5.748,-8.794,-0.002,-4.671,18.34,7.84,7.07
,-8.727,0.134,-5.281,-8.48,-0.115,-4.752,16.17,8.82,5.88
10792.0,-8.256,-0.067,-4.951,-8.705,0.56,-5.027,19.25,7.42,5.25
,-8.454,0.278,-5.128,-8.497,0.086,-4.893,23.03,6.93,4.69
,-8.667,0.847,-5.307,-8.622,0.108,-4.96,26.25,5.81,3.15
,-8.753,0.802,-5.279,-8.77,0.175,-5.106,24.92,5.81,2.03
10868.0,-8.952,0.397,-5.296,-8.337,0.017,-5.592,16.73,7.98,0.07
,-8.483,0.168,-5.587,-8.44,-0.189,-5.573,14.35,7.42,-1.54
,-8.227,0.074,-5.609,-8.631,-0.541,-5.542,14.98,7.77,-2.38
,-8.239,0.031,-5.671,-8.605,-0.921,-5.351,16.31,8.12,-4.34
10944.0,-8.047,-0.962,-5.482,-8.607,-1.311,-5.252,11.2,6.72,-4.27
,-8.038,-1.137,-5.307,-8.323,-1.098,-5.374,11.62,7.63,-2.8
,-8.387,-1.35,-5.166,-7.999,-0.933,-5.41,11.48,7.49,-1.61
,-8.552,-1.546,-5.26,-8.102,-1.031,-5.499,12.6,6.51,-0.49
11020.0,-8.576,-0.986,-5.537,-8.11,-0.026,-5.786,13.51,3.92,2.24
,-8.727,-0.737,-5.497,-8.248,-0.115,-5.848,14.49,3.36,2.38
,-8.559,-0.424,-5.614,-8.634,-0.352,-5.475,14.14,2.66,2.73
,-8.265,-0.191,-5.645,-8.686,-0.309,-5.415,12.67,2.38,3.01
11096.0,-8.476,-0.388,-5.372,-8.356,-0.73,-5.532,7.49,-0.28,0.7
,-8.318,-0.742,-5.456,-8.193,-0.577,-5.497,6.16,0.42,1.12
,-8.507,-0.94,-5.257,-8.282,-0.56,-5.439,5.53,0.21,1.19
,-8.442,-0.718,-5.511,-8.394,-0.639,-5.317,6.44,-0.28,1.26
11172.0,-8.397,-0.596,-5.437,-8.306,-1.199,-5.13,1.82,-3.85,0.63
,-8.323,-1.098,-5.202,-8.445,-0.802,-5.188,-0.56,-3.5,1.19
,-8.323,-1.357,-4.972,-8.334,-0.376,-5.528,-0.63,-2.52,2.45
,-8.287,-1.34,-5.128,-8.595,0.038,-5.712,0.63,-2.1,3.08
11248.0,-8.839,-0.024,-5.604,-8.402,-1.426,-5.544,4.48,0.21,1.82
,-8.806,-0.5,-5.386,-8.155,-1.316,-5.59,3.01,1.05,2.31
,-8.643,-1.024,-5.449,-7.988,-1.096,-5.54,2.59,2.17,2.94
,-8.454,-1.409,-5.43,-8.392,-0.78,-5.444,3.78,3.43,3.64
11324.0,-8.65,-0.483,-5.444,-8.382,-0.706,-5.398,5.04,0.98,3.57
,-8.478,-0.888,-5.276,-8.65,-0.297,-5.343,2.24,0.7,4.41
,-8.131,-1.108,-5.274,-8.708,0.057,-5.284,1.12,1.26,4.97
,-8.15,-0.885,-5.284,-8.607,0.208,-5.307,1.26,1.61,5.11
11400.0,-8.27,0.268,-5.413,-8.691,-0.101,-5.056,-2.38,1.12,5.04
,-8.26,0.452,-5.575,-8.361,-0.251,-5.118,-4.9,1.54,4.9
,-8.595,0.452,-5.64,-8.442,-0.242,-5.236,-7.42,1.89,4.27
,-8.77,0.158,-5.453,-8.593,0.01,-5.403,-9.8,2.38,3.5
11476.0,-8.61,0.364,-5.518,-8.497,-0.773,-5.078,-10.01,2.1,1.68
,-8.564,0.156,-5.331,-8.277,-0.916,-5.188,-12.32,2.52,1.19
,-8.552,-0.129,-5.334,-8.476,-0.598,-5.214,-14.84,2.73,1.26
,-8.653,-0.479,-5.118,-8.564,-0.093,-5.458,-17.64,2.38,1.47
11552.0,-8.684,0.179,-5.291,-8.267,-0.792,-5.176,-9.59,2.1,2.24
,-8.588,0.359,-5.358,-8.416,-0.811,-5.24,-11.06,2.38,1.47
,-8.538,-0.062,-5.03,-8.66,-0.694,-5.188,-14.84,2.38,0.98
,-8.289,-0.414,-5.049,-8.72,-0.345,-5.329,-17.08,2.73,1.33
11628.0,-8.445,-0.151,-5.365,-8.485,-0.833,-5.659,-7.63,1.61,2.73
,-8.129,-0.347,-5.403,-8.303,-0.778,-5.585,-9.38,3.43,2.52
,-8.361,-0.644,-5.231,-8.291,-0.581,-5.767,-9.38,5.32,3.08
,-8.748,-0.735,-5.439,-8.301,-0.459,-5.906,-10.36,2.59,2.66
11704.0,-8.279,-0.479,-5.975,-8.315,0.483,-6.028,-1.19,0.7,3.08
,-8.516,-0.318,-5.843,-8.1,0.543,-5.784,1.05,1.4,4.06
,-8.516,-0.182,-5.961,-8.55,0.424,-5.587,1.54,0.28,4.34
,-8.557,0.105,-5.872,-8.78,0.187,-5.52,2.03,-2.17,3.5
11780.0,-8.708,-0.043,-5.482,-8.349,-0.644,-5.231,-0.84,-7.98,-1.75
,-8.344,-0.189,-5.477,-8.552,-0.538,-5.159,-1.47,-7.49,-1.19
,-8.37,-0.469,-5.243,-8.6,-0.278,-5.226,-1.75,-7.21,-0.7
,-8.397,-0.584,-5.413,-8.433,-0.086,-5.307,-0.21,-7.98,-0.35
11856.0,-8.394,0.053,-5.37,-8.373,0.022,-5.044,2.38,-12.04,1.19
,-8.559,-0.045,-5.214,-8.186,-0.436,-4.882,0.63,-12.32,0.56
,-8.346,-0.036,-5.171,-8.574,-0.617,-4.274,-0.28,-12.32,0.07
,-8.279,-0.117,-5.063,-8.782,-0.055,-4.915,-0.77,-11.34,0.42
11932.0,-8.703,-0.036,-4.85,-8.488,0.608,-4.896,7.42,-7.98,1.89
,-8.787,-0.069,-4.733,-8.306,0.493,-5.016,6.23,-8.82,1.68
,-8.681,0.043,-4.781,-8.325,0.069,-4.982,5.46,-9.73,0.77
,-8.787,0.275,-4.695,-8.61,-0.4,-4.786,4.06,-11.76,-0.63
12008.0,-8.739,-0.747,-4.597,-8.646,-0.069,-4.69,-3.01,-12.18,-2.45
,-8.662,-0.634,-4.573,-8.77,0.062,-4.757,0.91,-11.48,-1.33
,-8.65,-0.536,-4.587,-8.976,-0.034,-4.551,3.57,-10.92,-0.35
,-8.646,-0.297,-4.606,-8.768,0.081,-4.582,5.25,-10.64,0.49
12084.0,-8.533,0.153,-4.582,-8.638,-0.146,-4.319,0.63,-11.9,-0.56
,-8.624,-0.045,-4.427,-8.696,-0.223,-4.145,-2.17,-12.88,-1.4
,-8.851,-0.112,-4.365,-8.813,-0.122,-4.094,-3.5,-13.79,-2.38
,-8.71,-0.048,-4.482,-8.813,0.024,-4.003,-3.08,-13.93,-2.31
12160.0,-8.842,0.22,-4.109,-9.069,0.084,-4.078,5.95,-9.94,-1.05
,-8.818,0.29,-4.389,-8.789,0.179,-4.051,6.3,-9.52,-0.91
,-8.914,0.065,-4.286,-8.765,0.189,-4.025,5.46,-8.75,-0.7
,-9.215,-0.019,-3.999,-8.799,0.055,-4.243,4.41,-8.82,-1.47
12236.0,-8.796,-0.201,-4.235,-8.787,-0.488,-4.118,-4.34,-10.57,-5.6
,-8.823,-0.357,-4.07,-9.016,-0.637,-4.121,-2.59,-9.59,-5.04
,-8.892,-0.433,-3.967,-9.06,-0.56,-4.657,0.21,-8.4,-4.48
,-8.878,-0.536,-4.015,-8.818,-0.376,-4.85,2.38,-7.7,-3.92
12312.0,-8.737,-0.206,-4.214,-9.048,0.12,-4.164,7.0,-8.82,0.63
,-8.689,-0.261,-3.807,-8.949,0.294,-4.171,6.72,-7.98,0.42
,-9.062,-0.304,-3.786,-9.062,0.239,-4.109,8.12,-7.63,-0.14
,-9.098,-0.103,-3.982,-9.16,0.048,-4.066,8.89,-8.33,-0.84
12388.0,-9.277,-0.067,-4.087,-8.966,-0.251,-4.262,4.27,-9.45,-2.73
,-8.93,0.062,-4.133,-9.038,-0.385,-3.972,4.13,-10.22,-3.78
,-8.775,0.022,-3.92,-8.933,-0.574,-3.769,4.06,-10.64,-4.06
,-8.966,-0.041,-4.405,-9.005,-0.861,-3.537,2.87,-11.55,-5.11
12464.0,-9.222,-0.823,-3.326,-9.179,-0.074,-3.381,6.79,-9.66,-2.38
,-9.122,-0.675,-3.477,-9.32,-0.022,-3.793,9.24,-9.24,-1.47
,-9.098,-0.555,-3.664,-9.16,-0.254,-3.518,11.34,-9.24,-0.77
,-9.122,-0.404,-3.391,-9.198,0.005,-3.525,13.37,-9.03,-0.07
12540.0,-9.191,0.189,-3.594,-9.215,-0.299,-3.699,9.17,-8.96,-1.61
,-9.258,0.124,-3.874,-9.134,-0.704,-3.807,6.58,-9.59,-2.87
,-9.179,0.01,-3.814,-8.995,-0.627,-3.575,4.06,-9.59,-3.36
,-9.158,-0.148,-3.384,-9.103,-0.548,-3.506,2.31,-9.1,-3.43
12616.0,-9.22,-0.699,-3.147,-9.148,-0.397,-3.625,2.59,-8.05,-2.59
,-9.301,-0.919,-2.927,-9.103,-0.27,-3.74,2.87,-7.21,-1.89
,-9.375,-0.806,-3.106,-9.098,-0.333,-3.702,4.2,-6.79,-1.54
,-9.249,-0.648,-3.305,-9.17,-0.462,-3.805,5.39,-6.51,-1.26
12692.0,-9.136,-0.79,-3.582,-9.141,-0.436,-3.692,2.03,-7.0,-2.73
,-9.134,-0.68,-3.434,-9.378,-0.402,-3.25,4.83,-7.28,-2.59
,-9.206,-0.244,-3.702,-9.28,-0.266,-3.644,7.7,-7.91,-3.43
,-9.208,-0.304,-3.757,-9.306,-0.646,-3.238,6.51,-8.33,-4.76
12768.0,-9.241,-0.61,-3.197,-9.421,-0.761,-2.45,0.77,-7.28,-3.64
,-9.277,-0.773,-3.025,-9.493,-0.696,-2.527,1.33,-6.44,-2.8
,-9.313,-0.861,-2.721,-9.383,-0.581,-2.436,3.29,-5.53,-1.75
,-9.402,-0.763,-2.699,-9.299,-0.78,-2.209,6.93,-4.41,-0.91
12844.0,-9.38,-0.885,-2.166,-9.478,-0.476,-3.149,8.61,2.1,1.12
,-9.428,-0.871,-2.259,-9.337,-0.452,-3.348,8.82,3.64,1.19
,-9.502,-0.72,-2.515,-9.203,-0.414,-3.532,8.68,4.9,1.05
,-9.509,-0.627,-2.673,-9.196,-0.352,-3.81,7.42,5.81,0.84
12920.0,-9.141,-0.546,-3.826,-9.306,-0.668,-3.709,0.14,5.95,-0.42
,-9.194,-0.66,-3.908,-9.256,-0.706,-3.556,0.14,5.39,-0.63
,-9.124,-0.723,-3.695,-9.316,-0.775,-3.501,0.91,5.04,-0.35
,-9.237,-0.692,-3.577,-9.301,-0.749,-3.568,1.4,4.9,-0.14
12996.0,-9.258,-0.672,-3.539,-9.201,-0.639,-3.743,2.31,4.48,1.05
,-9.273,-0.656,-3.711,-9.249,-0.567,-3.795,2.31,4.34,1.12
,-9.227,-0.656,-3.704,-9.33,-0.553,-3.862,2.03,3.85,1.05
,-9.213,-0.617,-3.719,-9.318,-0.572,-3.85,1.89,3.64,1.12
13072.0,-9.122,-0.524,-3.776,-9.301,-0.514,-3.293,2.59,1.61,1.4
,-9.179,-0.558,-3.649,-9.34,-0.488,-3.233,2.8,1.4,1.33
,-9.203,-0.637,-3.539,-9.342,-0.436,-3.151,3.29,1.33,1.47
,-9.225,-0.584,-3.348,-9.366,-0.443,-3.223,4.06,1.33,1.75
13148.0,-9.294,-0.498,-3.24,-9.277,-0.648,-3.436,0.35,2.59,0.42
,-9.251,-0.526,-3.23,-9.282,-0.677,-3.434,-0.42,2.94,0.35
,-9.215,-0.615,-3.321,-9.27,-0.66,-3.52,-0.98,3.01,0.14
,-9.227,-0.672,-3.367,-9.301,-0.644,-3.57,-0.91,3.22,0.14
13224.0,-9.325,-0.608,-3.798,-9.256,-0.558,-3.965,0.49,3.43,1.12
,-9.268,-0.538,-3.893,-9.174,-0.531,-3.884,0.56,3.01,1.26
,-9.22,-0.543,-3.893,-9.146,-0.534,-3.786,0.42,2.59,1.12
,-9.119,-0.608,-3.833,-9.234,-0.546,-3.666,0.56,2.24,1.05
13300.0,-9.21,-0.524,-3.625,-9.189,-0.68,-3.367,4.27,1.05,2.17
,-9.225,-0.471,-3.503,-9.253,-0.684,-3.345,3.85,0.91,1.96
,-9.222,-0.541,-3.467,-9.323,-0.593,-3.439,2.59,0.77,1.54
,-9.232,-0.634,-3.412,-9.277,-0.55,-3.393,1.54,0.91,1.47
13376.0,-9.241,-0.479,-3.372,-9.225,-0.428,-3.551,0.77,1.89,1.47
,-9.244,-0.562,-3.317,-9.246,-0.579,-3.539,0.7,2.03,1.47
,-9.342,-0.481,-3.388,-9.234,-0.617,-3.549,1.19,2.03,1.61
,-9.335,-0.378,-3.542,-9.191,-0.572,-3.565,0.77,2.03,1.4
13452.0,-9.172,-0.56,-3.388,-9.299,-0.507,-3.317,1.61,2.38,1.33
,-9.34,-0.507,-3.283,-9.258,-0.524,-3.372,1.96,2.73,1.54
,-9.359,-0.593,-3.24,-9.201,-0.524,-3.455,2.52,3.08,1.82
,-9.275,-0.491,-3.24,-9.198,-0.491,-3.522,2.94,3.36,2.03
13528.0,-9.246,-0.426,-3.532,-9.15,-0.369,-3.826,0.14,4.27,1.33
,-9.263,-0.424,-3.522,-9.119,-0.385,-3.826,-0.98,4.06,1.05
,-9.275,-0.371,-3.678,-9.072,-0.481,-3.771,-1.75,3.99,0.84
,-9.253,-0.33,-3.8,-9.141,-0.536,-3.656,-2.59,3.92,0.56
13604.0,-9.241,-0.61,-3.546,-9.213,-0.627,-3.419,-0.63,3.29,1.26
,-9.289,-0.541,-3.503,-9.182,-0.67,-3.431,0.07,3.29,1.54
,-9.292,-0.546,-3.34,-9.213,-0.639,-3.51,0.0,3.5,1.68
,-9.33,-0.519,-3.386,-9.189,-0.694,-3.57,-0.77,3.71,1.47
13680.0,-9.155,-0.617,-3.673,-9.069,-0.206,-4.2,-0.28,5.04,2.45
,-9.174,-0.56,-3.869,-9.014,-0.112,-4.097,0.56,4.83,2.59
,-9.304,-0.438,-4.056,-9.012,-0.168,-4.121,0.7,4.34,2.1
,-9.227,-0.318,-4.192,-9.064,-0.407,-3.886,-0.07,3.85,1.4
13756.0,-9.172,-0.452,-3.697,-9.354,-0.948,-2.96,-2.94,1.68,1.68
,-9.258,-0.419,-3.683,-9.409,-0.684,-2.907,-2.59,1.47,1.82
,-9.203,-0.627,-3.467,-9.395,-0.266,-2.802,-3.5,1.47,2.17
,-9.148,-0.835,-3.183,-9.34,-0.108,-3.065,-3.99,1.82,2.66
13832.0,-9.076,-0.278,-2.838,-9.337,0.261,-3.051,-12.53,4.83,0.42
,-9.158,-0.345,-2.86,-9.284,0.194,-2.927,-12.88,6.02,0.35
,-9.112,-0.23,-3.092,-9.323,-0.11,-2.702,-12.11,6.93,-0.35
,-9.081,-0.141,-2.769,-9.507,-0.251,-3.087,-10.15,8.12,0.07
13908.0,-9.457,-0.486,-3.745,-9.019,-1.534,-2.85,-7.28,12.18,1.19
,-8.954,-0.794,-3.848,-9.167,-0.373,-3.412,-7.77,12.18,2.24
,-8.782,-1.132,-3.769,-9.308,0.337,-3.422,-5.95,13.37,4.13
,-8.88,-1.63,-3.309,-9.069,0.988,-4.8,-0.49,15.61,6.86
13984.0,-8.65,0.682,-5.006,-9.057,-0.397,-3.329,0.42,12.18,5.32
,-8.598,-0.311,-4.795,-9.069,0.091,-3.063,-6.37,12.32,5.67
,-8.727,-1.208,-4.104,-9.332,0.299,-2.685,-4.69,13.02,6.23
,-9.024,-1.161,-3.419,-9.313,0.211,-2.917,3.71,13.86,6.3
14060.0,-9.457,0.096,-2.314,-8.54,-0.653,-4.575,2.66,18.27,4.55
,-9.299,0.438,-3.836,-8.617,-1.005,-4.468,0.14,16.87,3.57
,-8.868,0.371,-4.348,-8.643,-0.529,-4.355,-4.69,15.68,2.59
,-8.775,0.12,-4.984,-8.911,0.045,-4.101,-8.12,15.12,1.89
14136.0,-8.959,0.218,-3.932,-9.411,1.314,-4.752,8.75,19.74,1.05
,-8.916,0.01,-3.333,-9.06,1.618,-5.549,7.56,21.91,1.4
,-8.906,-0.041,-2.862,-8.526,0.962,-6.071,8.61,23.52,1.89
,-9.32,0.531,-3.005,-8.16,-0.132,-5.769,12.39,22.61,1.61
14212.0,-8.38,-0.909,-5.374,-8.911,-2.161,-4.255,-7.63,16.45,-3.43
,-8.402,-1.625,-5.166,-8.973,-1.898,-3.884,-0.77,16.31,-3.29
,-8.617,-1.826,-4.726,-8.911,-1.091,-4.111,4.97,16.24,-1.96
,-8.863,-1.957,-4.501,-8.727,-0.165,-4.52,7.77,16.8,-0.14
14288.0,-8.847,0.641,-5.408,-8.471,1.242,-4.893,21.77,15.26,7.28
,-8.815,0.876,-5.951,-8.514,1.015,-4.635,13.86,12.53,6.3
,-8.519,1.015,-5.714,-8.811,0.349,-4.24,8.33,11.97,4.2
,-8.375,1.292,-5.312,-9.249,-0.036,-4.556,5.53,12.32,0.42
14364.0,-9.21,-0.263,-4.764,-8.332,-0.311,-4.915,-8.96,8.12,-6.86
,-8.847,-0.412,-4.989,-8.538,-0.036,-5.166,-6.93,8.26,-6.65
,-8.399,-0.436,-5.109,-8.679,0.163,-5.358,-3.5,9.59,-6.23
,-8.09,-0.409,-5.042,-8.478,-0.213,-5.48,-0.07,10.85,-5.67
14440.0,-8.54,-0.909,-5.073,-8.591,-0.814,-4.635,-8.19,8.19,-5.46
,-8.325,-1.117,-4.853,-8.605,-0.883,-4.664,-7.0,7.07,-5.67
,-8.263,-1.132,-4.688,-8.588,-0.926,-4.609,-2.31,8.05,-4.55
,-8.459,-0.974,-4.635,-8.705,-0.73,-4.683,2.03,9.17,-2.59
14516.0,-8.557,-0.785,-4.319,-8.811,0.976,-5.492,4.83,13.02,4.34
,-8.239,0.196,-5.145,-8.459,0.124,-5.334,9.94,12.53,3.78
,-8.318,0.828,-5.518,-8.49,-0.869,-4.937,12.46,12.46,2.8
,-8.646,0.888,-5.492,-8.416,-1.247,-4.688,9.94,12.11,1.47
14592.0,-8.229,-1.68,-4.628,-8.306,-0.785,-5.808,3.85,11.41,-1.33
,-8.461,-1.732,-4.831,-8.282,-0.632,-5.793,9.17,11.62,-0.07
,-8.495,-1.57,-5.047,-8.392,-0.704,-5.566,14.0,11.62,1.12
,-8.528,-1.168,-5.465,-8.705,-0.914,-5.195,17.92,11.34,2.31
14668.0,-8.507,-0.802,-5.054,-8.77,0.007,-5.284,10.08,8.05,3.92
,-8.086,-0.739,-5.154,-8.471,0.529,-5.53,10.85,8.33,3.64
,-8.354,-0.668,-5.044,-8.308,1.029,-5.724,13.72,9.31,3.15
,-8.703,-0.278,-5.181,-8.447,1.263,-5.91,17.57,8.54,2.24
14744.0,-8.732,1.187,-5.552,-8.172,-1.307,-5.946,20.37,4.69,-5.6
,-8.287,1.177,-6.064,-8.112,-2.309,-5.683,18.41,2.24,-8.33
,-8.069,0.775,-6.427,-8.526,-2.649,-5.363,14.98,1.33,-9.73
,-8.153,-0.184,-6.303,-8.44,-2.639,-5.623,11.76,1.47,-9.52
14820.0,-8.524,-2.407,-5.566,-8.495,-0.445,-5.647,22.47,0.28,0.0
,-8.423,-1.953,-5.535,-8.466,-0.232,-5.635,24.22,-0.56,0.35
,-8.356,-1.388,-5.58,-8.509,-0.345,-5.171,24.92,-0.63,0.35
,-8.504,-0.754,-5.683,-7.736,-0.483,-5.394,24.92,-0.07,0.14
14896.0,-7.468,-1.029,-5.252,-8.77,-0.641,-5.422,11.76,-1.4,2.24
,-8.126,-1.376,-4.872,-8.655,-0.916,-5.398,13.23,0.49,4.2
,-8.655,-1.357,-4.872,-8.423,-0.957,-5.401,16.87,0.42,5.18
,-8.933,-0.885,-5.157,-8.002,-0.881,-5.415,21.91,-1.19,4.9
14972.0,-8.047,-0.735,-5.573,-8.124,-1.354,-5.312,18.34,-2.52,3.78
,-8.411,-0.663,-5.736,-8.275,-1.563,-5.219,16.59,-2.52,3.29
,-8.66,-0.754,-5.54,-8.473,-1.764,-4.946,14.28,-2.94,3.15
,-8.337,-0.9,-5.432,-8.351,-1.541,-5.059,11.34,-2.8,3.43
15048.0,-8.461,-1.51,-4.972,-8.057,-0.56,-5.164,8.96,0.14,10.36
,-8.595,-1.548,-4.846,-8.387,-0.302,-5.382,9.94,0.7,11.06
,-8.796,-1.254,-4.817,-8.411,-0.103,-5.501,11.62,0.0,11.2
,-8.368,-0.823,-4.843,-8.418,-0.168,-5.585,11.41,-0.63,11.13
15124.0,-8.559,-0.357,-5.339,-8.543,0.067,-5.272,7.42,0.0,8.19
,-8.471,0.014,-5.358,-8.423,-0.218,-5.348,8.05,-0.7,6.86
,-8.382,0.369,-5.331,-8.373,-0.596,-5.394,7.91,-0.42,5.46
,-8.471,0.235,-5.363,-8.543,-0.68,-5.41,6.09,0.42,4.27
15200.0,-8.605,-0.601,-5.367,-8.157,-1.436,-5.212,6.3,2.66,0.84
,-8.605,-0.778,-5.26,-8.325,-1.271,-5.389,5.04,2.66,0.56
,-8.248,-1.151,-5.229,-8.483,-1.046,-5.547,2.87,2.24,0.49
,-8.184,-1.433,-5.078,-8.538,-1.156,-5.427,1.68,2.38,0.63
15276.0,-8.442,-1.177,-5.427,-8.382,-0.38,-5.288,1.61,1.54,1.96
,-8.332,-1.012,-5.571,-8.5,-0.304,-5.279,1.82,1.47,2.17
,-8.37,-0.742,-5.43,-8.622,-0.074,-5.418,1.82,1.75,1.89
,-8.318,-0.443,-5.403,-8.416,0.069,-5.511,1.26,1.61,1.33
15352.0,-8.354,-0.05,-5.611,-8.574,-1.472,-5.078,-4.62,1.61,0.42
,-8.406,-0.455,-5.418,-8.591,-1.395,-5.276,-8.33,1.4,0.28
,-8.244,-0.857,-5.303,-8.559,-0.967,-5.595,-10.15,1.61,0.63
,-8.334,-1.065,-5.451,-8.603,-0.581,-5.745,-10.64,2.45,1.19
15428.0,-8.591,-0.112,-5.985,-8.495,-0.56,-5.573,-9.45,2.52,2.8
,-8.605,-0.268,-5.702,-8.524,-0.675,-5.36,-13.3,2.59,2.31
,-8.425,-0.572,-5.614,-8.516,-0.687,-5.374,-16.17,3.08,1.89
,-8.459,-0.639,-5.456,-8.502,-0.771,-5.207,-15.12,3.29,0.63
15504.0,-8.54,-0.656,-5.207,-8.143,-0.586,-5.642,-12.53,1.68,-0.63
,-8.78,-0.337,-5.142,-8.296,-0.905,-5.231,-13.23,1.05,-0.07
,-8.78,-0.258,-5.066,-8.512,-0.692,-5.248,-14.91,-0.42,0.7
,-8.44,-0.514,-5.298,-8.461,-0.335,-5.458,-15.47,-0.91,1.61
15580.0,-8.6,-0.306,-5.453,-8.387,-0.55,-5.631,-7.35,-2.73,2.59
,-8.514,-0.385,-5.492,-8.488,-0.457,-5.42,-8.05,-3.01,2.38
,-8.488,-0.421,-5.664,-8.483,-0.316,-5.604,-7.42,-4.2,1.61
,-8.411,-0.388,-5.767,-8.504,-0.306,-5.511,-6.3,-4.13,0.7
15656.0,-8.351,-0.459,-5.784,-8.674,-0.562,-5.341,-3.71,-6.79,-0.21
,-8.327,-0.658,-5.913,-8.418,-0.235,-5.389,-4.83,-6.58,0.84
,-8.313,-0.967,-5.688,-8.363,-0.203,-5.391,-3.85,-5.74,1.96
,-8.646,-0.924,-5.446,-8.906,-0.371,-5.231,-0.07,-6.02,2.31
15732.0,-8.756,-0.352,-5.473,-8.768,-0.57,-5.083,2.24,-10.85,1.96
,-8.26,-0.139,-5.65,-8.49,-0.581,-5.566,2.31,-11.06,1.33
,-8.421,-0.165,-5.654,-8.344,-0.866,-5.24,3.01,-10.43,0.35
,-8.296,-0.309,-5.245,-8.208,-1.074,-5.092,-0.56,-10.36,-0.77
15808.0,-8.131,-1.091,-4.903,-8.528,-0.378,-4.872,4.13,-12.53,1.4
,-8.641,-0.957,-4.951,-8.947,-0.62,-4.7,7.7,-13.16,1.26
,-8.65,-0.517,-5.078,-8.859,-0.648,-4.776,10.99,-13.65,1.75
,-8.54,-0.251,-5.087,-8.588,-0.584,-4.721,10.78,-13.72,1.96
15884.0,-8.291,-0.457,-4.848,-8.756,-0.5,-4.106,-0.98,-18.62,1.4
,-8.44,-0.464,-4.767,-8.825,-0.256,-4.058,-1.61,-19.25,1.54
,-8.55,-0.524,-4.544,-8.789,-0.132,-4.001,-1.61,-18.9,2.17
,-8.713,-0.577,-4.353,-8.835,-0.048,-4.006,0.14,-17.57,2.17
15960.0,-8.844,-0.086,-4.085,-8.737,0.115,-3.953,4.41,-12.04,2.8
,-8.89,-0.246,-3.965,-8.997,0.251,-4.228,1.89,-12.53,2.31
,-8.739,-0.235,-3.896,-8.997,0.045,-3.836,1.05,-13.16,1.75
,-8.61,-0.043,-3.917,-8.947,0.005,-3.857,1.33,-13.16,0.77
16036.0,-8.744,-0.263,-3.745,-8.866,-0.144,-3.664,-6.09,-13.58,-3.71
,-8.806,-0.474,-3.484,-8.938,-0.16,-3.754,-4.55,-12.32,-3.71
,-8.993,-0.474,-3.57,-8.947,-0.237,-3.951,-2.1,-11.55,-3.57
,-8.906,-0.34,-3.747,-9.002,-0.436,-3.824,-0.91,-11.2,-3.5
16112.0,-9.141,-0.538,-3.781,-8.942,-0.311,-3.996,-4.55,-7.77,-2.45
,-9.208,-0.579,-3.652,-8.964,-0.859,-3.999,-5.04,-8.26,-4.2
,-8.995,-0.172,-3.9,-9.021,-1.223,-3.769,-6.65,-9.8,-5.32
,-8.878,0.06,-4.044,-8.947,-1.342,-3.589,-9.31,-10.43,-5.81
16188.0,-8.916,-1.216,-3.786,-9.067,-0.325,-3.927,-2.31,-7.07,-1.54
,-8.918,-0.921,-3.723,-9.148,-0.431,-3.831,2.38,-6.72,-0.14
,-8.971,-0.474,-3.716,-9.112,-0.474,-3.936,5.11,-6.58,0.98
,-9.093,-0.22,-3.805,-9.033,-0.278,-3.958,5.11,-6.58,1.33
16264.0,-9.043,-0.05,-3.97,-9.287,-0.66,-3.264,3.01,-7.0,0.0
,-9.11,-0.014,-3.745,-9.208,-0.644,-3.307,1.4,-7.14,-0.56
,-9.17,-0.165,-3.549,-9.162,-0.505,-3.408,-0.77,-7.35,-1.12
,-9.155,-0.357,-3.199,-9.158,-0.505,-3.429,-2.31,-6.93,-1.05
16340.0,-9.177,-0.648,-3.501,-8.921,-0.148,-3.891,1.75,-4.34,-0.84
,-9.17,-0.682,-3.312,-8.954,-0.27,-3.664,3.15,-3.78,-0.28
,-9.222,-0.392,-3.656,-9.002,-0.333,-3.656,4.83,-3.64,-0.28
,-9.182,-0.275,-3.989,-9.172,-0.297,-3.924,4.55,-3.85,-0.84
16416.0,-9.275,-0.01,-4.166,-9.091,-0.687,-3.695,3.99,-3.22,-2.1
,-9.095,0.01,-4.288,-9.287,-0.735,-3.632,1.61,-4.27,-2.59
,-8.964,-0.158,-4.145,-9.33,-0.668,-3.673,-1.33,-4.62,-2.59
,-9.026,-0.536,-3.96,-9.115,-0.443,-3.47,-1.96,-4.69,-2.24
16492.0,-9.124,-0.412,-3.539,-9.344,-0.555,-3.592,0.21,-4.41,-2.8
,-9.05,-0.462,-3.668,-9.265,-0.62,-3.599,-0.49,-4.2,-3.08
,-9.081,-0.593,-3.644,-9.155,-0.613,-3.424,-0.84,-3.92,-2.87
,-9.165,-0.574,-3.558,-9.086,-0.732,-3.396,-0.49,-3.78,-2.38
16568.0,-9.014,-0.802,-3.391,-9.167,-0.601,-3.582,1.82,-2.73,-0.91
,-9.201,-0.847,-3.486,-9.158,-0.388,-3.654,2.8,-2.52,-0.56
,-9.347,-0.857,-3.53,-9.227,-0.457,-3.857,4.2,-1.75,-0.07
,-9.294,-0.715,-3.501,-9.076,-0.364,-3.958,5.81,-1.61,0.21
16644.0,-9.064,-0.349,-4.032,-9.244,-0.57,-3.264,3.85,-4.06,-4.55
,-9.313,-0.134,-4.274,-9.325,-0.605,-2.982,3.99,-4.62,-5.88
,-9.275,-0.302,-3.929,-9.407,-0.318,-3.07,0.0,-4.55,-4.83
,-9.048,-0.536,-3.321,-9.418,-0.316,-3.257,-2.24,-4.2,-3.43
16720.0,-9.158,-0.581,-3.106,-9.38,-0.773,-2.84,-8.68,-1.75,-2.8
,-9.074,-0.814,-2.974,-9.579,-0.629,-3.065,-9.38,-0.91,-2.45
,-9.15,-1.091,-2.876,-9.519,-0.586,-3.3,-8.54,0.35,-1.96
,-9.167,-1.029,-2.745,-9.332,-0.715,-3.465,-6.02,1.82,-0.91
16796.0,-9.083,-0.823,-3.611,-9.115,-0.378,-4.08,-5.11,3.92,0.35
,-9.016,-0.84,-3.829,-9.208,-0.512,-3.9,-2.94,4.13,0.91
,-9.129,-0.565,-4.075,-9.239,-0.713,-3.888,-0.14,3.92,1.19
,-9.117,-0.321,-4.183,-9.194,-0.648,-3.848,1.05,3.22,1.33
16872.0,-9.196,-0.586,-3.917,-9.21,-0.481,-3.752,5.53,1.26,2.59
,-9.131,-0.548,-3.924,-9.256,-0.452,-3.69,5.95,0.7,2.66
,-9.05,-0.55,-3.845,-9.263,-0.447,-3.508,6.09,0.42,2.66
,-9.172,-0.503,-3.853,-9.301,-0.366,-3.585,6.16,0.28,2.52
16948.0,-9.215,-0.445,-3.664,-9.217,-0.505,-3.637,3.57,-0.42,1.82
,-9.165,-0.452,-3.601,-9.294,-0.519,-3.654,3.5,-0.56,1.96
,-9.206,-0.503,-3.766,-9.282,-0.424,-3.676,3.5,-0.56,2.03
,-9.189,-0.589,-3.738,-9.294,-0.404,-3.69,3.99,-0.7,2.17
17024.0,-9.189,-0.426,-3.561,-9.294,-0.553,-3.458,3.36,-0.98,1.89
,-9.127,-0.498,-3.451,-9.265,-0.486,-3.424,2.8,-0.84,1.89
,-9.136,-0.613,-3.355,-9.203,-0.505,-3.302,2.87,-0.63,1.75
,-9.225,-0.577,-3.419,-9.284,-0.572,-3.269,3.57,-0.49,1.89
17100.0,-9.354,-0.605,-3.319,-9.253,-0.486,-3.448,2.87,0.77,1.96
,-9.375,-0.5,-3.52,-9.182,-0.493,-3.396,3.15,0.84,1.89
,-9.356,-0.395,-3.47,-9.32,-0.495,-3.379,2.8,0.84,1.89
,-9.34,-0.371,-3.489,-9.304,-0.543,-3.326,2.31,0.77,1.68
17176.0,-9.253,-0.476,-3.348,-9.323,-0.292,-3.597,3.36,1.61,1.89
,-9.213,-0.414,-3.379,-9.263,-0.309,-3.676,3.64,1.75,1.96
,-9.222,-0.436,-3.431,-9.284,-0.349,-3.752,3.71,2.03,2.03
,-9.246,-0.395,-3.484,-9.225,-0.323,-3.795,3.85,2.38,2.17
17252.0,-9.134,-0.392,-3.716,-9.229,-0.491,-3.671,0.77,1.19,0.84
,-9.186,-0.469,-3.738,-9.184,-0.467,-3.532,0.56,1.33,0.84
,-9.261,-0.452,-3.687,-9.217,-0.392,-3.506,0.84,1.19,0.77
,-9.287,-0.503,-3.721,-9.239,-0.495,-3.546,0.63,0.77,0.42
17328.0,-9.191,-0.596,-3.403,-9.294,-0.333,-3.436,0.7,1.12,0.98
,-9.234,-0.586,-3.245,-9.244,-0.33,-3.489,1.61,1.33,1.33
,-9.335,-0.562,-3.283,-9.263,-0.347,-3.551,2.73,1.4,1.47
,-9.313,-0.529,-3.309,-9.215,-0.369,-3.532,3.78,1.61,1.89
17404.0,-9.215,-0.536,-3.46,-9.344,-0.409,-3.376,4.06,2.03,2.17
,-9.251,-0.591,-3.467,-9.38,-0.447,-3.259,5.18,2.17,2.38
,-9.229,-0.486,-3.403,-9.392,-0.246,-3.463,6.37,2.17,2.31
,-9.313,-0.424,-3.369,-9.299,-0.302,-3.537,6.79,2.31,2.52
17480.0,-9.222,-0.285,-3.522,-9.194,-0.469,-3.211,0.21,2.45,0.07
,-9.186,-0.383,-3.443,-9.27,-0.404,-3.156,-1.05,2.59,-0.21
,-9.184,-0.529,-3.439,-9.229,-0.404,-2.946,-0.98,2.94,0.07
,-9.217,-0.493,-3.403,-9.273,-0.443,-2.809,-0.35,3.43,0.42
17556.0,-9.423,-0.512,-2.737,-9.136,-0.471,-3.594,-0.07,7.35,1.96
,-9.505,-0.517,-2.936,-9.098,-0.68,-3.613,-0.91,7.91,1.26
,-9.368,-0.321,-3.242,-9.105,-0.701,-3.747,-1.82,8.26,0.63
,-9.184,-0.225,-3.441,-9.026,-0.608,-3.798,-3.85,8.33,0.21
17632.0,-9.127,-0.625,-3.391,-9.222,0.223,-3.845,1.68,9.8,1.75
,-9.447,-0.462,-3.539,-9.079,0.148,-3.915,3.64,10.22,1.75
,-9.478,-0.371,-3.415,-8.928,-0.201,-3.759,3.36,9.87,0.98
,-9.442,-0.105,-3.57,-8.935,-0.459,-3.632,2.1,9.45,-0.07
17708.0,-9.069,-0.409,-3.759,-8.949,-0.201,-3.853,-9.17,9.03,-0.07
,-9.296,-0.773,-3.049,-8.914,-0.562,-3.235,-9.17,9.73,0.07
,-9.474,-0.462,-3.29,-9.062,-0.22,-3.838,-8.33,10.15,-0.21
,-9.368,-0.27,-3.707,-8.885,-0.036,-4.212,-9.94,9.66,-1.26
17784.0,-8.892,-0.211,-4.147,-9.232,-1.089,-3.125,-16.38,8.33,-1.19
,-8.851,-0.538,-4.032,-9.241,-1.161,-2.857,-18.06,8.82,-1.26
,-8.892,-1.034,-3.204,-9.392,-0.593,-3.379,-17.29,10.08,-0.56
,-9.146,-1.201,-2.941,-9.105,-0.208,-4.209,-12.04,11.48,0.7
17860.0,-8.959,-0.364,-3.92,-8.918,-0.175,-3.989,1.61,14.49,6.65
,-8.756,-0.586,-3.941,-9.165,0.304,-3.867,2.38,15.26,7.28
,-8.531,-0.897,-3.171,-9.117,0.45,-4.202,5.04,16.66,8.12
,-8.837,-0.823,-3.221,-9.009,0.29,-4.305,11.55,17.29,8.89
17936.0,-8.804,0.134,-3.841,-8.636,0.524,-5.377,9.94,20.3,9.1
,-8.868,0.306,-3.841,-8.528,-0.211,-4.614,11.34,20.51,8.96
,-8.892,0.505,-4.482,-8.995,-0.101,-4.396,8.96,17.22,6.09
,-8.868,0.895,-4.896,-9.134,0.101,-4.336,3.99,14.14,4.13
18012.0,-9.031,0.371,-4.159,-9.062,-0.273,-3.989,4.55,15.47,-0.91
,-8.679,0.136,-4.398,-9.069,0.311,-4.436,2.94,15.82,-0.98
,-8.636,-0.371,-4.192,-8.839,0.538,-5.173,1.26,16.66,0.14
,-8.804,-0.586,-4.082,-8.543,-0.045,-5.41,1.96,17.78,1.4
18088.0,-8.598,-0.809,-5.083,-8.94,-0.883,-4.568,-7.91,11.27,-0.07
,-8.323,-1.505,-4.721,-8.916,-0.189,-4.862,-6.51,12.11,0.35
,-8.543,-1.785,-4.307,-8.76,0.074,-4.853,-2.03,12.18,0.56
,-8.686,-1.51,-4.429,-8.65,0.246,-4.367,3.36,10.85,1.4
18164.0,-8.77,0.481,-4.652,-8.653,-0.44,-4.389,7.98,12.11,3.5
,-8.765,0.656,-5.157,-8.492,-0.866,-3.793,6.3,10.08,3.5
,-8.684,0.218,-5.329,-8.382,-0.785,-3.85,2.59,9.03,2.8
,-8.885,-0.168,-4.798,-8.552,-0.517,-4.283,0.98,9.31,1.47
18240.0,-9.024,-0.282,-4.487,-7.815,0.436,-5.3,10.85,14.14,5.67
,-9.265,-0.146,-4.618,-8.09,0.45,-5.037,7.42,12.95,5.53
,-9.229,0.12,-4.975,-8.533,0.079,-4.683,5.53,11.2,4.27
,-8.294,0.27,-5.3,-9.052,-0.347,-4.436,4.48,10.5,3.08
18316.0,-9.153,-0.522,-4.355,-8.574,0.725,-5.69,0.14,13.93,0.56
,-8.813,-0.907,-4.527,-8.258,1.668,-5.925,1.19,14.49,2.03
,-8.658,-1.027,-4.736,-8.325,1.799,-5.815,3.5,14.49,3.85
,-8.854,-0.33,-4.903,-8.536,1.285,-5.602,8.68,12.46,4.48
18392.0,-8.536,0.503,-5.413,-8.351,-0.943,-5.166,-0.56,9.87,-6.23
,-8.744,-0.077,-5.138,-8.705,-1.094,-5.195,-1.61,9.73,-7.63
,-8.524,-0.402,-4.958,-8.655,-1.067,-5.341,-0.07,8.75,-8.68
,-8.272,-0.373,-5.353,-8.476,-1.096,-5.243,2.45,8.12,-8.19
18468.0,-8.44,-1.046,-5.269,-8.76,-0.732,-5.312,10.22,4.9,-2.38
,-8.241,-0.931,-5.377,-8.6,-0.79,-5.317,10.92,5.6,-1.4
,-8.294,-0.916,-5.095,-8.354,-0.821,-5.317,11.34,6.86,-0.49
,-8.603,-0.885,-5.109,-8.433,-0.665,-5.64,10.78,6.23,0.07
18544.0,-8.284,-0.981,-5.511,-8.222,-0.622,-5.386,10.15,2.38,0.14
,-8.425,-1.062,-5.279,-8.267,-1.091,-5.264,12.39,3.01,0.98
,-8.519,-0.976,-5.355,-8.514,-1.62,-4.882,15.12,3.01,1.82
,-8.473,-0.596,-5.257,-8.78,-1.649,-4.783,17.5,2.03,3.01
18620.0,-8.708,-1.421,-4.707,-8.65,0.392,-5.255,19.39,4.76,10.99
,-8.638,-0.828,-4.946,-8.725,0.555,-5.358,21.98,3.5,10.78
,-8.361,0.041,-5.288,-8.543,0.531,-5.386,23.87,2.66,9.59
,-8.378,0.392,-5.188,-8.492,0.565,-5.54,20.58,3.43,8.75
18696.0,-8.392,0.316,-5.37,-8.363,-0.727,-4.984,10.15,1.26,1.12
,-8.256,-0.122,-5.059,-8.402,-0.335,-5.162,8.68,2.17,1.12
,-8.375,-0.68,-4.98,-8.622,-0.325,-5.231,8.82,2.87,1.89
,-8.579,-0.948,-4.85,-8.524,-0.378,-5.13,11.06,2.73,2.8
18772.0,-8.222,-0.299,-5.343,-8.43,-0.491,-5.65,14.91,3.78,5.25
,-8.315,-0.254,-5.489,-8.406,-0.646,-5.611,14.56,4.06,5.88
,-8.636,-0.373,-5.487,-8.521,-0.632,-5.372,12.46,2.73,5.81
,-8.579,-0.4,-5.614,-8.634,-0.493,-5.48,10.5,0.56,5.39
18848.0,-8.409,-0.139,-5.726,-8.593,0.5,-5.772,7.91,0.49,3.5
,-8.334,0.189,-5.674,-8.686,0.105,-5.489,6.93,0.14,2.94
,-8.327,0.447,-5.755,-8.751,-0.299,-5.183,5.74,-0.77,1.96
,-8.531,0.613,-5.975,-8.576,-0.574,-5.078,4.41,-1.68,0.63
18924.0,-8.574,-0.725,-4.872,-8.502,-0.136,-5.252,3.01,-0.35,0.49
,-8.442,-0.581,-5.044,-8.658,-0.019,-5.162,3.5,-1.33,0.42
,-8.227,-0.534,-5.13,-8.648,-0.089,-4.944,3.85,-0.84,0.7
,-8.323,-0.373,-5.181,-8.32,-0.187,-5.059,4.62,-0.56,0.7
19000.0,-8.457,-0.191,-4.999,-8.394,-0.275,-5.19,1.4,0.0,-2.03
,-8.583,-0.304,-5.042,-8.593,-0.242,-5.219,1.12,0.63,-2.59
,-8.624,-0.376,-5.066,-8.65,-0.235,-5.145,1.26,0.91,-2.87
,-8.385,-0.244,-5.154,-8.311,-0.101,-5.351,2.31,1.61,-2.87
19076.0,-8.315,-0.297,-5.415,-8.435,-0.838,-5.482,1.75,3.99,-5.25
,-8.504,-0.67,-5.465,-8.404,-1.173,-5.611,1.05,4.48,-5.11
,-8.411,-0.84,-5.336,-8.318,-1.598,-5.3,2.24,5.18,-4.9
,-8.425,-0.73,-5.257,-8.26,-1.814,-5.262,3.36,5.25,-4.48
19152.0,-8.33,-1.376,-5.413,-8.502,-0.981,-5.587,2.66,3.64,-0.84
,-8.476,-0.96,-5.583,-8.454,-0.964,-5.631,1.82,3.15,0.28
,-8.483,-0.849,-5.597,-8.392,-1.163,-5.358,-0.35,2.94,1.75
,-8.447,-0.967,-5.664,-8.409,-0.893,-5.774,-3.22,2.38,3.36
19228.0,-8.5,-0.833,-5.958,-8.763,-0.943,-5.162,-8.82,-1.33,8.05
,-8.574,-0.895,-5.882,-8.646,-0.62,-5.209,-9.66,-1.61,8.96
,-8.588,-1.007,-5.635,-8.617,-0.357,-5.181,-10.29,-1.61,9.66
,-8.634,-1.11,-5.398,-8.89,-0.06,-4.927,-10.08,-1.12,10.85
19304.0,-8.617,0.414,-5.264,-8.871,0.816,-5.188,-7.98,-2.87,11.13
,-8.069,0.651,-5.327,-8.703,0.677,-5.083,-8.96,-3.22,9.66
,-8.002,0.687,-5.248,-8.703,0.476,-4.824,-10.22,-2.52,8.4
,-8.507,0.739,-5.08,-8.667,0.459,-4.956,-10.71,-2.45,7.0
19380.0,-8.631,0.632,-5.135,-8.339,0.022,-5.202,-8.82,-1.61,1.33
,-8.591,0.543,-5.25,-8.169,-0.424,-5.171,-8.05,-0.91,0.21
,-8.871,0.299,-5.13,-8.425,-0.782,-5.26,-8.61,-1.05,-1.19
,-8.77,0.371,-5.329,-8.282,-0.811,-5.377,-8.4,-1.96,-2.17
19456.0,-8.337,-0.869,-5.274,-8.461,-0.514,-4.87,-5.95,-5.04,-3.71
,-8.605,-0.713,-5.016,-8.658,-0.337,-5.051,-3.78,-4.69,-3.92
,-8.543,-0.572,-5.011,-9.299,-0.215,-4.86,-2.73,-4.62,-3.57
,-8.457,-0.603,-4.865,-8.799,-0.093,-5.319,-2.52,-3.36,-2.52
19532.0,-8.459,-0.148,-5.075,-8.665,0.203,-5.121,-2.17,-4.83,-0.21
,-8.22,-0.352,-5.011,-8.612,0.378,-5.183,-3.36,-5.67,-0.77
,-8.303,-0.206,-4.963,-8.366,0.287,-5.164,-1.4,-6.09,-1.54
,-8.519,-0.074,-5.049,-8.363,-0.012,-5.114,0.35,-6.44,-1.75
19608.0,-8.868,-0.156,-4.927,-8.957,-0.022,-5.051,-1.19,-3.22,-0.98
,-9.007,-0.62,-5.13,-8.531,-0.153,-5.274,1.4,-4.62,-0.28
,-8.574,-0.062,-4.855,-8.181,-0.313,-5.31,0.91,-4.76,-0.35
,-8.842,-0.055,-4.776,-8.272,-0.445,-5.188,2.45,-5.11,-0.42
19684.0,-8.567,-0.498,-5.133,-8.713,-0.294,-5.035,0.63,-6.79,-1.96
,-8.732,-0.596,-4.992,-8.593,-0.371,-5.071,1.68,-7.49,-1.61
,-8.631,-0.445,-5.063,-8.67,-0.45,-4.946,2.52,-9.52,-0.98
,-8.397,-0.249,-5.128,-8.768,-0.433,-4.647,2.8,-10.08,-0.35
19760.0,-8.842,-0.316,-4.621,-9.033,-0.101,-4.53,6.37,-9.59,1.47
,-8.782,-0.16,-4.611,-8.693,0.148,-4.819,6.93,-10.29,1.47
,-8.617,-0.074,-4.733,-8.437,0.263,-4.566,6.51,-10.29,2.24
,-8.473,-0.129,-4.688,-8.744,0.232,-4.458,6.3,-9.52,3.15
19836.0,-8.969,0.23,-4.544,-8.801,-0.148,-4.436,2.31,-11.9,0.0
,-8.873,0.156,-4.597,-8.909,-0.251,-4.408,1.82,-11.9,-0.28
,-8.653,0.12,-4.566,-9.043,-0.129,-4.623,1.89,-11.69,-0.35
,-8.614,0.017,-4.57,-8.906,0.268,-4.642,2.94,-10.71,0.21
19912.0,-8.581,0.311,-4.338,-8.978,-0.304,-4.018,6.58,-11.9,-0.42
,-8.722,0.266,-4.006,-8.746,-0.395,-4.147,3.99,-11.27,-1.26
,-8.921,-0.129,-3.769,-8.722,-0.514,-4.152,2.52,-10.85,-2.1
,-9.093,-0.251,-3.786,-8.772,-0.759,-3.807,1.96,-11.13,-2.8
19988.0,-8.933,-0.682,-3.446,-8.746,0.407,-4.587,7.63,-9.31,1.05
,-9.069,-0.349,-3.692,-8.832,-0.007,-4.594,11.62,-8.89,1.96
,-8.99,0.105,-4.293,-9.062,-0.443,-4.46,12.25,-9.73,2.03
,-8.82,0.495,-4.688,-9.088,-0.663,-4.166,9.87,-10.43,2.03
20064.0,-9.232,-0.519,-4.319,-8.933,-0.057,-4.147,4.62,-12.95,0.07
,-8.94,-0.33,-4.31,-8.99,0.014,-3.683,4.2,-13.93,-0.42
,-9.0,-0.012,-4.424,-9.036,-0.194,-3.532,4.62,-14.84,-0.49
,-9.045,-0.024,-4.346,-9.019,-0.426,-3.125,2.59,-15.68,-0.98
20140.0,-9.079,-0.311,-3.192,-9.215,-0.127,-2.788,-0.77,-15.4,-2.59
,-9.201,-0.158,-2.984,-9.263,0.065,-3.216,0.49,-14.7,-1.61
,-9.349,-0.194,-3.049,-9.031,0.055,-3.278,0.63,-13.72,-1.4
,-9.232,-0.349,-2.759,-8.981,-0.098,-2.793,0.35,-12.6,-1.4
20216.0,-9.27,-0.266,-2.812,-9.414,0.06,-3.08,-1.61,-8.96,-2.8
,-9.22,-0.543,-2.812,-9.222,0.043,-3.23,-1.54,-7.91,-2.94
,-9.244,-0.407,-2.721,-9.17,-0.048,-3.273,0.21,-6.72,-2.52
,-9.335,-0.11,-2.623,-9.28,-0.163,-3.092,0.35,-5.67,-2.87
20292.0,-9.366,-0.22,-3.415,-8.882,0.041,-3.585,-3.57,-1.89,-3.85
,-9.282,0.029,-3.68,-9.203,-0.325,-3.455,-2.45,-1.75,-4.06
,-9.244,0.244,-3.994,-9.39,-0.538,-3.671,-3.36,-2.45,-5.11
,-8.988,0.321,-4.056,-9.258,-0.388,-3.551,-6.23,-3.01,-5.95
20368.0,-9.351,-0.194,-3.75,-9.261,-0.704,-3.166,-8.12,-2.31,-6.16
,-9.162,-0.479,-3.774,-9.277,-0.603,-3.082,-10.36,-2.38,-6.23
,-9.083,-0.615,-3.632,-9.28,-0.424,-3.037,-9.87,-2.03,-5.39
,-9.129,-0.696,-3.24,-9.502,-0.481,-3.137,-8.54,-1.4,-4.34
20444.0,-9.505,-0.452,-3.345,-9.026,-0.517,-3.496,0.0,1.89,0.07
,-9.361,-0.258,-3.513,-9.062,-0.503,-3.628,0.49,1.96,0.35
,-9.273,-0.371,-3.62,-9.241,-0.462,-3.723,0.21,2.24,0.35
,-9.119,-0.538,-3.613,-9.39,-0.321,-3.963,0.49,2.45,0.84
20520.0,-9.308,-0.218,-4.116,-9.119,-0.5,-3.374,4.97,1.89,1.47
,-9.048,-0.105,-4.123,-9.356,-0.479,-3.321,3.64,1.19,1.05
,-8.88,-0.261,-3.85,-9.414,-0.464,-3.262,2.73,0.91,0.84
,-9.014,-0.457,-3.604,-9.483,-0.44,-3.391,3.43,1.05,1.26
20596.0,-9.328,-0.414,-3.364,-9.074,-0.546,-3.635,6.37,1.96,1.82
,-9.311,-0.376,-3.597,-9.203,-0.4,-3.568,7.0,2.24,2.31
,-9.21,-0.598,-3.64,-9.232,-0.297,-3.738,8.12,2.52,3.08
,-9.074,-0.555,-3.568,-9.217,-0.136,-3.891,10.64,3.15,3.85
20672.0,-9.17,-0.062,-4.19,-9.074,-0.378,-3.845,12.46,1.26,3.29
,-9.072,-0.134,-4.295,-9.067,-0.294,-3.508,11.2,0.49,2.94
,-9.0,-0.225,-4.286,-9.208,-0.273,-3.257,10.64,-0.28,2.8
,-9.045,-0.323,-4.121,-9.418,-0.196,-3.235,11.27,-0.7,3.22
20748.0,-9.45,-0.134,-3.259,-9.186,-0.562,-3.374,9.45,-0.77,2.94
,-9.416,-0.098,-3.35,-9.198,-0.538,-3.297,7.42,-0.77,2.45
,-9.344,-0.275,-3.336,-9.45,-0.404,-3.336,5.04,-0.42,1.89
,-9.268,-0.445,-3.415,-9.349,-0.134,-3.396,4.06,-0.07,1.75
20824.0,-9.33,0.096,-3.314,-9.15,-0.445,-3.53,4.41,1.61,1.75
,-9.313,0.017,-3.467,-9.232,-0.51,-3.606,1.4,1.47,1.12
,-9.227,-0.318,-3.467,-9.234,-0.493,-3.63,-0.98,1.61,0.63
,-9.158,-0.495,-3.455,-9.222,-0.366,-3.623,-0.84,1.68,0.77
20900.0,-9.225,-0.273,-3.759,-9.227,-0.218,-3.738,4.48,1.68,2.45
,-9.277,-0.366,-3.798,-9.258,-0.273,-3.726,4.06,1.54,2.52
,-9.15,-0.443,-3.726,-9.227,-0.223,-3.518,4.2,1.4,2.8
,-9.241,-0.313,-3.874,-9.335,-0.007,-3.506,4.76,1.05,2.59
20976.0,-9.308,0.057,-3.417,-9.258,-0.105,-3.403,3.08,0.84,1.61
,-9.273,-0.045,-3.269,-9.261,-0.266,-3.489,1.61,1.05,1.26
,-9.268,-0.194,-3.245,-9.208,-0.371,-3.551,1.12,1.54,1.26
,-9.32,-0.182,-3.362,-9.206,-0.352,-3.652,1.68,1.82,1.12
21052.0,-9.167,-0.285,-3.68,-9.284,-0.345,-3.496,1.33,2.03,0.63
,-9.129,-0.302,-3.702,-9.337,-0.273,-3.676,0.98,2.1,0.63
,-9.143,-0.495,-3.544,-9.296,-0.285,-3.676,0.7,2.24,0.84
,-9.184,-0.517,-3.477,-9.265,-0.206,-3.805,1.82,2.52,1.26
21128.0,-9.215,-0.199,-3.826,-9.186,-0.34,-3.819,4.06,1.61,1.89
,-9.189,-0.189,-3.96,-9.287,-0.302,-3.771,4.34,1.26,1.96
,-9.155,-0.328,-3.953,-9.201,-0.223,-3.642,4.27,0.98,2.03
,-9.124,-0.397,-3.888,-9.201,-0.165,-3.561,5.04,0.56,2.17
21204.0,-9.246,-0.146,-3.491,-9.323,-0.249,-3.204,5.81,-0.21,2.17
,-9.32,-0.249,-3.393,-9.311,-0.158,-3.24,5.32,-0.35,1.96
,-9.28,-0.266,-3.295,-9.366,-0.148,-3.393,5.18,0.21,2.03
,-9.296,-0.297,-3.278,-9.284,-0.175,-3.496,4.97,0.42,1.89
21280.0,-9.203,-0.163,-3.565,-9.251,-0.057,-3.762,1.89,1.47,0.98
,-9.208,-0.17,-3.695,-9.22,-0.156,-3.738,1.68,1.54,0.77
,-9.258,-0.108,-3.671,-9.213,-0.189,-3.714,1.68,1.33,0.7
,-9.229,-0.043,-3.759,-9.21,-0.285,-3.702,1.47,1.12,0.63
21356.0,-9.179,-0.325,-3.623,-9.28,-0.122,-3.616,0.28,0.0,-0.21
,-9.15,-0.337,-3.518,-9.289,-0.199,-3.635,0.63,0.14,-0.28
,-9.237,-0.227,-3.568,-9.184,-0.285,-3.597,1.05,-0.07,-0.35
,-9.237,-0.249,-3.582,-9.241,-0.211,-3.503,0.77,-0.14,-0.56
21432.0,-9.268,-0.225,-3.372,-9.284,-0.062,-3.453,-3.08,-0.49,-2.17
,-9.249,-0.194,-3.345,-9.155,-0.194,-3.357,-2.94,-0.21,-1.96
,-9.409,-0.364,-3.36,-9.155,-0.531,-3.23,-2.66,0.0,-2.45
,-9.292,-0.223,-3.419,-9.251,-0.634,-3.228,-2.24,-0.14,-2.73
21508.0,-9.27,-0.543,-3.269,-9.277,-0.141,-3.329,0.63,1.68,-0.77
,-9.273,-0.345,-3.348,-9.371,-0.112,-3.491,1.75,1.82,-0.63
,-9.356,-0.115,-3.46,-9.222,-0.117,-3.472,1.61,1.89,-0.63
,-9.38,-0.103,-3.503,-9.213,-0.232,-3.357,0.14,1.82,-0.91
21584.0,-9.217,-0.438,-3.24,-9.27,0.402,-3.697,-5.25,3.15,-1.96
,-9.371,-0.534,-3.271,-9.162,0.287,-3.364,-3.64,3.43,-1.26
,-9.409,-0.268,-3.522,-9.16,0.101,-3.245,-2.31,3.15,-1.05
,-9.311,0.184,-3.573,-9.179,-0.175,-3.039,-2.73,2.8,-1.19
21660.0,-9.32,-0.201,-2.97,-9.167,-1.455,-2.828,-15.05,3.78,-2.73
,-9.457,-0.034,-3.23,-9.191,-1.637,-2.426,-15.4,3.85,-3.22
,-9.414,-0.297,-3.08,-9.33,-1.115,-2.347,-17.99,4.48,-3.5
,-9.277,-0.883,-2.996,-9.531,-0.459,-2.326,-19.39,5.53,-3.15
21736.0,-9.627,-0.177,-3.24,-8.882,-1.173,-3.053,-1.05,12.74,1.33
,-9.105,-0.543,-3.479,-9.088,-0.687,-3.793,-6.86,12.88,1.75
,-8.82,-0.921,-3.257,-9.016,-0.373,-3.671,-8.12,14.0,3.71
,-8.964,-1.134,-3.472,-8.705,-0.254,-3.506,-5.88,14.84,4.48
21812.0,-8.823,-0.302,-3.111,-9.43,1.235,-3.577,10.85,18.2,8.89
,-9.368,-0.39,-2.513,-9.107,1.139,-4.614,13.79,20.51,10.22
,-9.509,-0.029,-2.666,-8.464,0.067,-4.489,16.66,21.42,9.87
,-9.545,0.579,-2.931,-8.409,-0.725,-4.133,17.92,21.28,9.45
21888.0,-8.746,-0.928,-4.178,-8.897,-0.168,-4.422,-0.84,18.83,6.37
,-9.098,-0.876,-3.53,-8.926,-0.376,-4.209,3.64,19.25,5.67
,-8.892,-0.452,-4.022,-8.878,-0.036,-4.417,5.74,19.11,4.97
,-8.722,-0.211,-3.836,-8.902,0.266,-4.35,6.3,19.53,5.46
21964.0,-9.158,0.823,-4.57,-9.028,1.45,-4.456,11.9,17.29,3.85
,-9.048,1.302,-4.86,-8.947,1.046,-3.86,12.95,16.1,2.1
,-8.827,1.646,-4.544,-8.873,0.447,-3.738,12.46,15.61,1.05
,-9.016,1.642,-4.599,-8.636,-0.361,-4.018,7.84,14.84,-0.98
22040.0,-8.715,-1.089,-4.214,-8.629,-0.672,-4.716,-8.19,15.4,-4.41
,-8.667,-1.402,-4.882,-8.571,-0.352,-4.865,-3.29,14.56,-2.31
,-8.842,-1.388,-4.743,-8.504,-0.385,-4.87,2.45,14.77,-0.35
,-8.954,-1.05,-4.874,-8.665,-0.34,-4.886,7.63,14.63,-0.63
22116.0,-8.65,-0.38,-4.728,-8.842,0.141,-4.673,18.2,16.1,3.15
,-8.928,-0.091,-4.197,-8.636,-0.093,-5.059,19.53,17.01,3.29
,-9.033,0.414,-4.432,-8.614,-0.469,-4.879,19.11,16.38,1.68
,-8.744,0.426,-4.63,-8.677,-0.476,-5.075,15.4,15.47,0.56
22192.0,-8.82,-0.055,-5.272,-8.437,-0.189,-5.126,12.74,12.53,0.63
,-8.873,0.187,-5.422,-8.665,-0.053,-5.173,13.16,12.88,0.0
,-8.593,0.081,-5.398,-8.701,0.215,-5.071,11.55,13.37,-0.42
,-8.296,-0.01,-5.25,-8.485,-0.012,-4.987,11.2,14.35,-0.35
22268.0,-8.672,-0.629,-4.678,-8.483,-0.876,-4.616,6.93,13.37,-0.49
,-8.698,-0.957,-4.666,-8.437,-0.814,-4.532,5.88,13.37,-0.14
,-8.772,-1.168,-4.69,-8.437,-0.601,-4.795,6.23,11.34,0.14
,-8.734,-1.108,-4.628,-8.507,0.089,-5.212,6.93,9.31,-0.21
22344.0,-8.524,0.574,-5.487,-8.571,0.086,-4.896,9.17,9.66,1.19
,-8.66,0.759,-5.492,-8.576,0.23,-4.594,6.58,9.52,0.07
,-8.83,0.194,-5.03,-8.658,0.529,-4.635,-0.56,8.26,-1.96
,-8.67,0.098,-5.13,-8.665,0.514,-4.7,-0.35,6.51,-3.64
22420.0,-8.595,0.275,-4.635,-8.279,-1.979,-4.8,7.14,9.73,-7.07
,-8.557,-0.179,-4.805,-8.102,-2.173,-4.719,5.53,9.73,-6.72
,-8.466,-0.78,-4.822,-8.035,-2.096,-5.173,4.62,9.66,-6.09
,-8.413,-1.299,-4.937,-8.526,-2.075,-4.807,5.18,9.17,-4.9
22496.0,-8.576,-1.33,-4.896,-8.581,-0.273,-5.607,19.18,5.67,0.28
,-8.356,-0.66,-5.207,-8.239,-0.84,-5.336,21.14,5.67,-0.63
,-8.519,-0.512,-5.272,-8.078,-1.091,-5.264,21.07,6.09,-1.96
,-8.648,-0.407,-5.195,-8.244,-1.237,-5.154,19.74,6.86,-2.87
22572.0,-8.61,-0.938,-5.264,-8.459,0.936,-5.633,23.45,9.31,3.71
,-8.811,-0.278,-5.504,-8.825,0.94,-5.353,28.0,9.31,3.64
,-8.813,0.378,-5.616,-8.591,0.806,-5.552,29.26,9.45,2.59
,-8.622,0.72,-5.441,-8.196,0.199,-5.906,27.51,10.36,0.98
22648.0,-8.09,-0.512,-5.989,-8.119,-0.749,-5.915,9.38,6.58,-4.69
,-8.167,-0.861,-5.97,-8.232,-0.905,-5.944,10.57,6.09,-4.76
,-8.39,-1.029,-5.951,-8.373,-0.986,-6.08,12.53,5.04,-5.39
,-8.181,-0.916,-6.028,-8.512,-1.187,-6.018,14.28,3.85,-6.02
22724.0,-8.54,-1.433,-6.085,-7.741,-1.555,-5.968,5.88,3.5,-1.33
,-8.792,-1.675,-5.709,-7.87,-2.008,-5.549,5.32,4.69,0.35
,-8.691,-1.778,-5.607,-8.033,-2.52,-5.398,4.13,3.08,1.82
,-8.148,-1.687,-5.592,-8.533,-2.592,-5.276,4.69,0.98,2.94
22800.0,-8.402,-2.163,-5.185,-8.763,-0.237,-5.36,5.95,-3.57,10.36
,-8.318,-1.505,-5.341,-8.638,-0.141,-5.111,9.87,-4.2,11.34
,-8.327,-0.974,-5.564,-8.277,-0.211,-4.903,10.36,-4.76,10.85
,-8.5,-0.519,-5.525,-8.244,-0.187,-5.083,9.94,-4.97,9.73
22876.0,-8.576,0.007,-5.059,-8.552,-0.409,-5.365,9.66,-1.82,5.53
,-8.567,0.191,-5.085,-8.763,-0.739,-5.109,9.66,-2.45,4.06
,-8.279,0.17,-5.303,-8.531,-1.139,-4.826,9.73,-2.31,3.43
,-8.148,0.007,-5.456,-8.318,-1.261,-5.013,9.8,-1.47,3.22
22952.0,-8.294,-1.318,-5.042,-8.363,-0.797,-5.205,10.71,0.14,2.66
,-8.301,-1.342,-5.106,-8.299,-0.663,-5.276,10.92,0.42,2.59
,-8.44,-1.244,-4.984,-8.466,-0.663,-5.36,11.34,0.49,2.66
,-8.488,-1.117,-5.008,-8.547,-0.531,-5.41,10.43,0.14,2.52
23028.0,-8.492,-0.531,-5.489,-8.461,-0.761,-5.441,5.88,0.07,1.12
,-8.488,-0.507,-5.518,-8.509,-0.754,-5.468,5.25,0.14,0.77
,-8.466,-0.503,-5.401,-8.363,-0.835,-5.372,4.9,0.84,0.49
,-8.399,-0.598,-5.315,-8.198,-0.893,-5.406,4.2,1.19,0.28
23104.0,-8.337,-1.024,-5.374,-8.323,-1.338,-5.15,2.38,1.96,-0.84
,-8.624,-1.182,-5.197,-8.509,-1.072,-5.298,1.33,2.17,-0.7
,-8.571,-1.149,-5.176,-8.559,-0.744,-5.418,0.77,2.1,0.0
,-8.344,-1.283,-5.238,-8.622,-0.763,-5.14,-0.14,2.59,0.84
23180.0,-8.43,-0.96,-5.19,-8.421,-0.993,-5.403,-2.8,3.57,3.01
,-8.253,-1.11,-5.157,-8.593,-0.857,-5.485,-5.11,3.71,3.92
,-8.315,-0.847,-5.264,-8.777,-0.644,-5.585,-6.02,3.85,4.69
,-8.272,-0.845,-5.327,-8.681,-0.625,-5.463,-8.4,3.57,5.11
23256.0,-8.239,-0.577,-5.549,-8.729,-0.12,-5.36,-11.41,2.1,7.28
,-8.217,-0.433,-5.755,-8.54,-0.041,-5.525,-12.39,2.52,7.21
,-8.636,-0.541,-5.284,-8.543,-0.201,-5.341,-13.72,2.31,6.72
,-8.813,-0.39,-5.181,-8.418,-0.282,-5.432,-12.88,1.47,6.09
23332.0,-8.344,-0.493,-5.322,-8.291,-0.328,-5.638,-15.33,0.07,5.67
,-8.363,-0.648,-5.24,-8.418,-0.68,-5.26,-15.33,0.63,5.95
,-8.559,-0.634,-5.307,-8.536,-0.804,-5.032,-14.84,0.63,6.3
,-8.469,-0.495,-5.374,-8.485,-0.658,-5.001,-13.58,0.42,6.58
23408.0,-8.433,-0.517,-4.898,-8.502,-0.294,-4.905,-10.29,1.47,5.88
,-8.39,-0.187,-5.039,-8.445,-0.474,-4.925,-9.8,-0.35,5.04
,-8.43,-0.053,-5.027,-8.469,-0.682,-4.905,-9.8,-1.26,3.57
,-8.49,-0.031,-4.956,-8.433,-0.316,-5.494,-10.43,-0.42,2.45
23484.0,-8.351,-0.215,-5.504,-8.698,0.369,-4.848,-2.31,2.31,1.4
,-8.449,0.034,-5.394,-8.897,0.565,-5.004,1.19,2.38,1.05
,-8.21,0.424,-5.207,-8.813,0.44,-5.056,2.31,2.8,0.84
,-8.332,0.223,-4.853,-8.421,0.122,-5.171,2.31,3.15,0.63
23560.0,-8.153,-0.297,-5.42,-8.344,-0.476,-5.544,-6.58,-2.03,-4.9
,-8.354,-0.373,-5.441,-8.351,-0.579,-5.485,-2.87,-1.96,-5.32
,-8.5,-0.424,-5.48,-8.646,-0.785,-5.31,0.35,-3.08,-6.09
,-8.559,-0.397,-5.595,-8.605,-0.888,-5.336,2.03,-3.43,-5.88
23636.0,-8.363,-0.914,-5.339,-8.399,-1.433,-5.494,1.61,-4.41,-3.92
,-8.294,-0.627,-5.42,-8.279,-0.804,-5.863,2.66,-4.76,-3.43
,-8.289,-0.704,-5.439,-8.402,-1.278,-5.717,0.98,-4.76,-2.66
,-8.464,-0.948,-5.537,-8.356,-1.067,-5.473,-1.26,-4.9,-1.61
23712.0,-8.497,-0.814,-5.248,-8.378,-0.354,-5.3,10.22,-4.69,3.57
,-8.502,-0.519,-5.217,-8.442,-0.414,-5.506,11.13,-4.62,4.13
,-8.445,-0.321,-5.307,-8.586,-0.491,-5.489,9.17,-4.76,4.69
,-8.406,-0.275,-5.272,-8.562,-0.421,-5.339,6.3,-5.25,5.39
23788.0,-8.655,-0.333,-5.154,-8.739,0.249,-4.965,6.65,-8.82,5.67
,-8.605,-0.256,-5.078,-8.715,0.431,-5.059,5.53,-10.57,4.83
,-8.519,-0.091,-5.013,-8.574,0.388,-5.087,4.97,-11.9,4.41
,-8.634,0.024,-4.932,-8.375,0.201,-4.98,4.83,-12.81,4.06
23864.0,-8.406,0.065,-4.776,-8.94,0.251,-4.36,-1.4,-12.46,0.98
,-8.492,-0.031,-4.487,-8.748,0.218,-4.338,-0.35,-11.97,0.21
,-14.853,-0.208,-7.614,-8.741,-0.034,-4.616,-2.52,-4.41,0.91
,-9.055,-0.084,-4.314,-8.693,-0.318,-4.599,-1.89,-9.87,-0.42
23940.0,-8.605,-0.517,-4.64,-8.942,-0.847,-4.195,-3.57,-13.58,-3.08
,-8.471,-0.45,-4.444,-9.009,-0.857,-4.286,-2.52,-13.16,-3.22
,-8.662,-0.565,-4.245,-8.93,-0.687,-4.357,-2.24,-12.11,-3.29
,-8.861,-0.639,-4.223,-8.873,-0.522,-4.24,-1.89,-11.83,-3.08
24016.0,-8.758,-0.531,-4.456,-8.66,-0.325,-4.52,0.07,-11.2,-0.28
,-8.701,-0.629,-4.326,-8.777,-0.182,-4.661,0.63,-11.27,0.0
,-8.662,-0.517,-4.24,-8.827,-0.246,-4.379,1.54,-11.13,0.56
,-8.614,-0.388,-4.35,-8.966,-0.268,-4.243,1.68,-11.69,0.56
24092.0,-9.021,-0.189,-4.188,-8.916,-0.158,-3.989,2.59,-11.9,0.42
,-8.973,-0.122,-4.106,-9.014,-0.402,-3.85,2.87,-11.76,-0.14
,-8.787,0.062,-3.893,-9.036,-0.421,-3.807,2.52,-11.62,-0.42
,-8.89,0.081,-4.166,-9.002,-0.469,-3.707,0.84,-11.62,-1.19
24168.0,-9.036,-0.479,-3.776,-8.796,-0.457,-3.659,0.98,-10.36,-0.21
,-9.062,-0.491,-3.611,-8.76,-0.213,-3.728,0.98,-9.73,0.14
,-9.095,-0.546,-3.35,-8.811,-0.081,-3.654,1.82,-9.31,0.42
,-9.043,-0.491,-3.819,-8.973,-0.115,-3.216,1.89,-8.96,-0.14
24244.0,-9.237,-0.261,-3.508,-8.863,-0.292,-3.977,1.75,-6.3,0.28
,-9.33,-0.304,-3.532,-8.921,-0.132,-4.362,1.75,-5.95,-0.14
,-9.328,-0.203,-3.965,-8.954,-0.024,-4.068,2.38,-5.6,-0.42
,-9.074,-0.206,-4.178,-8.916,0.072,-4.037,1.89,-5.6,-0.77
24320.0,-9.036,-0.112,-3.769,-9.105,-0.785,-3.963,-0.49,-5.39,-2.17
,-9.206,-0.383,-3.836,-8.997,-0.751,-3.814,-2.1,-5.32,-2.17
,-9.16,-0.543,-3.905,-9.005,-0.455,-3.826,-2.87,-5.39,-2.17
,-9.112,-0.802,-4.049,-9.095,-0.165,-4.051,-3.01,-5.6,-1.75
24396.0,-9.15,-0.012,-4.147,-9.11,-0.206,-3.62,1.33,-5.67,-0.63
,-9.119,0.11,-4.415,-9.284,-0.151,-3.955,-0.98,-6.37,-1.4
,-9.06,0.007,-4.204,-9.237,-0.117,-3.8,-2.45,-6.72,-1.75
,-8.993,-0.227,-4.054,-9.17,-0.048,-3.819,-2.52,-6.23,-1.75
24472.0,-9.131,-0.182,-3.898,-9.124,-0.632,-3.431,-4.34,-7.35,-2.45
,-9.012,-0.306,-3.812,-9.127,-0.787,-3.022,-4.69,-7.35,-2.38
,-9.033,-0.244,-3.869,-9.301,-0.72,-3.168,-4.34,-7.35,-2.24
,-9.091,-0.426,-3.704,-9.256,-0.586,-2.919,-4.76,-7.07,-2.1
24548.0,-9.328,-0.309,-2.991,-9.337,-0.488,-3.125,0.63,-3.71,-0.42
,-9.22,-0.357,-3.099,-9.375,-0.498,-3.264,-0.98,-3.01,-0.49
,-9.186,-0.337,-3.087,-9.356,-0.409,-3.506,-2.03,-2.17,-0.49
,-9.277,-0.419,-3.132,-9.119,-0.352,-3.441,-2.66,-1.12,-0.63
24624.0,-9.203,-0.196,-3.697,-9.131,-0.548,-3.946,0.91,0.84,0.35
,-9.253,-0.27,-3.841,-9.122,-0.481,-3.793,0.77,0.84,0.28
,-9.079,-0.282,-3.872,-9.095,-0.213,-3.711,0.91,0.56,0.28
,-9.036,-0.44,-3.831,-9.112,-0.235,-3.501,1.05,0.91,0.35
24700.0,-9.095,-0.261,-3.281,-9.313,-0.438,-3.486,1.61,0.42,-0.21
,-9.282,-0.239,-3.405,-9.284,-0.431,-3.735,0.28,0.91,-0.77
,-9.38,-0.251,-3.388,-9.134,-0.546,-3.695,-0.56,0.84,-1.33
,-9.344,-0.306,-3.553,-9.021,-0.517,-3.661,-1.68,0.77,-1.33
24776.0,-9.232,-0.235,-3.726,-9.141,-0.371,-3.692,1.05,0.63,-4.69
,-9.294,-0.235,-3.762,-9.182,-0.428,-3.585,-1.19,0.84,-3.5
,-9.16,-0.11,-3.967,-9.201,-0.455,-3.331,-4.41,1.12,-2.17
,-9.217,-0.455,-3.666,-9.335,-0.369,-3.278,-4.62,1.05,-1.82
24852.0,-9.371,-0.354,-3.247,-9.17,-0.421,-3.408,-1.82,2.45,-0.28
,-9.28,-0.474,-3.197,-9.155,-0.297,-3.498,-1.75,3.01,-0.14
,-9.213,-0.479,-3.223,-9.091,-0.376,-3.609,-0.91,3.57,0.21
,-9.213,-0.474,-3.221,-9.131,-0.337,-3.776,0.21,4.27,0.56
24928.0,-9.146,-0.333,-3.996,-8.959,-0.488,-4.133,0.14,5.18,0.42
,-9.115,-0.335,-4.145,-8.978,-0.536,-3.929,-0.21,4.62,0.28
,-9.048,-0.424,-4.19,-9.127,-0.469,-3.833,-0.28,4.2,0.35
,-9.038,-0.438,-4.238,-9.208,-0.306,-3.843,0.56,3.78,0.63
25004.0,-9.213,-0.22,-3.881,-9.098,-0.321,-3.661,2.17,2.59,0.77
,-9.146,-0.273,-3.848,-9.198,-0.318,-3.687,2.1,2.52,0.84
,-9.143,-0.287,-3.805,-9.239,-0.309,-3.676,2.38,2.52,0.84
,-9.136,-0.28,-3.793,-9.227,-0.239,-3.664,2.94,2.45,0.98
25080.0,-9.186,-0.261,-3.781,-9.098,-0.51,-3.661,3.15,2.73,1.05
,-9.167,-0.27,-3.812,-9.11,-0.354,-3.604,2.45,2.52,0.77
,-9.098,-0.292,-3.819,-9.253,-0.282,-3.656,2.17,2.38,0.63
,-9.105,-0.483,-3.833,-9.277,-0.237,-3.683,2.45,2.52,0.77
25156.0,-9.203,-0.273,-3.719,-9.069,-0.443,-4.042,3.99,3.01,1.26
,-9.213,-0.309,-3.869,-9.033,-0.483,-3.848,3.92,3.08,1.26
,-9.201,-0.392,-4.013,-9.184,-0.333,-3.967,3.92,2.59,1.19
,-9.131,-0.416,-4.113,-9.177,-0.144,-3.929,4.13,2.38,1.05
25232.0,-9.158,-0.141,-3.958,-9.115,-0.299,-3.884,3.29,1.12,0.56
,-9.174,-0.313,-3.9,-9.136,-0.366,-3.766,2.66,0.91,0.56
,-9.139,-0.33,-3.948,-9.172,-0.337,-3.731,2.94,0.7,0.63
,-9.153,-0.366,-3.987,-9.191,-0.364,-3.666,3.22,0.56,0.63
25308.0,-9.172,-0.321,-3.685,-9.122,-0.436,-3.711,1.89,0.35,-0.07
,-9.148,-0.337,-3.692,-9.122,-0.514,-3.709,1.89,0.63,0.0
,-9.174,-0.376,-3.661,-9.208,-0.486,-3.664,2.1,0.7,0.14
,-9.148,-0.404,-3.687,-9.184,-0.505,-3.625,2.38,0.77,0.21
25384.0,-9.208,-0.426,-3.592,-9.124,-0.407,-4.025,2.66,1.54,0.28
,-9.222,-0.376,-3.721,-9.036,-0.369,-4.109,2.52,1.61,0.28
,-9.198,-0.256,-3.716,-8.954,-0.378,-4.07,2.24,1.54,0.28
,-9.189,-0.275,-3.879,-9.055,-0.414,-4.056,1.54,1.19,0.07
25460.0,-9.15,-0.285,-3.9,-9.127,-0.548,-3.738,3.57,-0.07,0.42
,-9.182,-0.182,-3.903,-9.165,-0.476,-3.714,2.87,-0.42,0.07
,-9.206,-0.251,-3.833,-9.172,-0.416,-3.743,1.47,-0.49,-0.21
,-9.155,-0.392,-3.735,-9.184,-0.349,-3.714,0.63,-0.56,-0.35
25536.0,-9.191,-0.323,-3.551,-9.203,-0.503,-3.489,2.1,-0.28,0.42
,-9.232,-0.369,-3.46,-9.122,-0.493,-3.506,1.26,-0.28,0.14
,-9.222,-0.359,-3.546,-9.146,-0.479,-3.486,0.56,-0.07,0.0
,-9.167,-0.424,-3.539,-9.186,-0.447,-3.532,-0.28,0.07,-0.14
25612.0,-9.172,-0.366,-3.601,-9.115,-0.407,-3.699,0.7,1.89,0.49
,-9.172,-0.345,-3.671,-9.103,-0.459,-3.671,0.56,2.03,0.63
,-9.103,-0.278,-3.668,-9.136,-0.493,-3.546,0.14,1.96,0.49
,-9.141,-0.263,-3.733,-9.146,-0.565,-3.417,-0.35,2.03,0.14
25688.0,-9.249,-0.553,-3.429,-9.153,-0.517,-3.965,1.75,3.5,1.05
,-9.296,-0.598,-3.506,-9.095,-0.503,-4.092,2.73,3.85,1.33
,-9.251,-0.558,-3.637,-9.06,-0.572,-4.02,3.99,3.99,1.82
,-9.112,-0.505,-3.776,-9.062,-0.495,-4.111,5.39,4.13,2.24
25764.0,-9.043,-0.433,-4.066,-8.957,-0.17,-4.247,13.86,3.57,4.69
,-9.246,-0.318,-3.824,-8.997,-0.433,-4.262,14.84,3.08,4.27
,-9.361,-0.045,-4.212,-9.074,-0.763,-3.893,14.07,2.1,2.94
,-9.174,0.074,-4.52,-9.146,-0.668,-3.589,10.36,0.63,1.96
25840.0,-9.32,-0.397,-3.23,-9.182,-0.79,-2.649,5.04,-0.49,0.35
,-9.521,0.012,-3.142,-9.246,-0.881,-2.9,3.5,-0.56,-0.7
,-9.308,0.012,-3.118,-9.215,-0.672,-3.068,-1.33,-0.35,-1.12
,-9.201,-0.522,-2.857,-9.148,-0.347,-3.034,-7.0,0.28,-0.77
25916.0,-9.21,-0.266,-2.838,-9.275,0.213,-3.575,-0.49,5.95,3.29
,-9.363,-0.225,-2.958,-8.983,0.105,-3.831,-2.59,7.07,2.87
,-9.239,-0.112,-2.721,-8.849,0.108,-4.147,-2.73,8.54,2.73
,-9.426,0.12,-3.025,-9.076,-0.153,-4.154,-4.13,9.31,1.96
25992.0,-9.139,-0.122,-3.984,-9.06,-0.888,-3.501,-11.76,8.12,-0.49
,-9.074,-0.144,-3.723,-8.964,-1.383,-2.697,-11.13,8.12,-1.26
,-9.043,-0.17,-3.69,-9.323,-1.347,-3.049,-10.57,8.33,-1.4
,-9.031,-0.347,-3.561,-9.395,-0.876,-3.128,-10.15,9.24,-0.63
26068.0,-9.462,-0.215,-4.183,-8.921,-0.416,-3.886,8.12,11.41,4.34
,-8.935,-0.115,-4.64,-9.158,-0.057,-4.13,3.36,10.36,3.71
,-8.445,-0.266,-4.63,-9.273,0.357,-3.984,0.42,11.2,4.48
,-8.603,-0.481,-4.135,-9.162,0.732,-3.798,1.96,12.53,4.83
26144.0,-9.122,0.419,-3.372,-9.031,-0.321,-4.305,8.96,15.26,2.1
,-9.067,0.115,-3.132,-9.021,-0.371,-4.807,6.72,16.45,2.38
,-9.014,-0.177,-3.424,-8.76,-0.479,-4.96,5.81,16.24,3.22
,-8.875,-0.325,-3.546,-8.524,-0.409,-4.743,6.02,15.4,4.13
26220.0,-8.665,0.089,-4.405,-9.186,0.311,-4.226,13.09,15.26,2.73
,-8.926,0.605,-4.173,-8.854,-0.357,-4.228,13.09,14.98,1.54
,-8.969,0.78,-3.898,-8.746,-0.83,-4.372,9.59,14.63,-0.14
,-9.196,0.72,-3.659,-8.76,-0.909,-4.293,4.06,14.35,-2.24
26296.0,-8.861,-0.814,-4.063,-8.636,-0.122,-4.539,2.24,16.17,-1.19
,-8.916,-0.512,-4.135,-8.746,-0.476,-4.286,6.44,15.89,-2.1
,-8.851,-0.069,-4.46,-8.851,-0.074,-4.834,8.12,15.12,-2.66
,-8.794,0.22,-4.664,-8.753,0.081,-4.893,5.88,14.77,-2.59
26372.0,-8.744,-0.436,-5.011,-8.595,-0.689,-4.989,0.7,11.62,-6.09
,-8.524,-1.058,-5.039,-8.557,-0.294,-4.977,-0.21,11.48,-4.76
,-8.756,-1.397,-5.068,-8.729,-0.16,-4.81,2.31,11.41,-3.57
,-8.76,-1.177,-5.095,-8.804,-0.258,-5.035,6.44,10.71,-3.78
26448.0,-8.827,-0.495,-5.056,-8.579,0.069,-4.984,1.05,9.45,-2.45
,-8.61,-0.625,-5.284,-8.504,-0.175,-4.898,0.07,8.61,-1.82
,-8.552,-0.517,-5.243,-8.693,-0.651,-4.64,2.03,7.56,-1.75
,-8.461,-0.115,-5.173,-8.658,-1.094,-4.748,5.46,7.28,-2.03
26524.0,-8.703,-1.194,-4.769,-8.693,1.318,-4.716,6.65,7.91,2.17
,-8.729,-0.972,-4.625,-8.48,1.218,-4.994,10.99,8.68,2.73
,-8.753,-0.089,-4.491,-8.799,0.627,-4.96,14.14,8.96,2.24
,-8.921,0.699,-4.413,-8.72,0.237,-4.898,12.39,8.12,0.91
26600.0,-8.768,0.062,-4.666,-8.433,-1.546,-4.647,-0.49,7.0,-7.07
,-8.725,-0.069,-4.468,-8.303,-2.536,-4.628,1.96,7.21,-7.7
,-8.559,-0.292,-4.688,-8.488,-3.211,-4.568,2.66,6.86,-7.21
,-8.557,-0.845,-4.736,-8.378,-3.247,-4.975,0.77,7.07,-5.67
26676.0,-8.378,-3.005,-5.322,-8.526,-1.23,-4.879,5.53,6.58,5.25
,-8.179,-2.618,-5.425,-8.6,-0.854,-4.774,8.19,5.53,7.77
,-8.232,-2.154,-5.286,-8.679,-0.431,-4.755,9.52,5.46,9.73
,-8.473,-1.603,-5.181,-8.708,-0.182,-4.774,10.43,4.76,11.13
26752.0,-8.873,0.629,-4.815,-8.607,1.948,-5.465,17.08,6.65,13.65
,-8.863,1.484,-5.006,-8.993,1.795,-5.044,18.13,5.46,11.9
,-8.818,1.835,-4.922,-8.634,1.376,-5.193,16.31,4.9,9.38
,-8.667,1.883,-4.836,-8.172,0.436,-5.202,11.13,3.85,5.81
26828.0,-8.174,-0.732,-4.824,-8.519,-1.512,-5.2,0.7,4.83,-3.43
,-8.634,-1.388,-4.642,-8.607,-1.074,-5.319,3.78,4.83,-2.38
,-8.6,-1.697,-4.779,-8.569,-0.718,-5.41,7.98,4.55,-0.98
,-8.605,-1.766,-4.987,-8.361,-0.074,-5.736,11.62,4.41,0.21
26904.0,-8.464,-0.005,-5.693,-8.693,-1.225,-5.434,15.4,2.31,0.98
,-8.672,-0.199,-5.621,-8.485,-1.737,-5.477,12.6,2.73,1.12
,-8.686,-0.321,-5.635,-8.299,-1.977,-5.367,11.76,2.8,1.4
,-8.567,-0.665,-5.839,-8.351,-2.058,-5.329,11.55,2.38,2.03
26980.0,-8.715,-1.61,-5.118,-8.557,0.976,-5.312,22.61,-0.35,8.4
,-8.753,-0.991,-5.248,-8.662,1.098,-5.221,25.06,0.0,8.61
,-8.691,-0.098,-5.339,-8.437,0.859,-5.303,26.25,0.91,7.91
,-8.591,0.73,-5.257,-8.033,0.187,-5.19,25.2,1.12,6.3
27056.0,-8.222,-0.33,-5.126,-8.619,-0.431,-4.85,8.89,-1.05,2.66
,-8.918,-0.565,-4.733,-8.725,-0.084,-5.15,11.41,-1.54,2.03
,-8.815,-0.462,-4.843,-8.856,-0.256,-5.185,12.67,-3.57,0.98
,-8.399,-0.653,-4.848,-8.6,-0.656,-5.032,14.14,-3.64,0.7
27132.0,-8.251,-0.871,-5.085,-8.531,-1.555,-5.087,6.37,-3.15,-1.19
,-8.366,-1.108,-5.188,-8.251,-1.668,-4.752,6.23,-2.59,-1.47
,-8.739,-1.261,-5.085,-8.27,-1.773,-4.803,6.3,-2.45,-1.4
,-8.737,-1.383,-5.133,-8.748,-1.67,-4.458,7.21,-1.96,-0.35
27208.0,-8.634,-1.012,-4.628,-8.703,-0.206,-4.841,12.32,-0.35,7.28
,-8.488,-0.464,-4.815,-8.449,-0.194,-4.865,13.23,-0.14,7.42
,-8.856,-0.27,-4.779,-8.492,-0.251,-4.949,11.2,0.42,7.14
,-9.005,-0.191,-4.776,-8.787,-0.385,-4.889,9.45,0.0,6.72
27284.0,-8.691,-0.227,-5.035,-8.569,-0.943,-5.047,6.23,0.21,2.87
,-8.545,-0.27,-4.941,-8.595,-0.881,-5.006,5.46,-0.77,2.17
,-8.449,-0.541,-4.891,-8.557,-0.668,-4.987,4.9,-0.63,2.03
,-8.485,-0.704,-4.994,-8.751,-0.55,-4.908,4.76,-0.21,2.17
27360.0,-8.727,-0.438,-4.953,-8.593,-0.919,-4.908,6.44,1.47,1.19
,-8.648,-0.617,-4.858,-8.593,-1.031,-4.908,5.04,1.82,1.4
,-8.581,-0.835,-4.757,-8.504,-1.007,-4.949,3.99,2.45,1.61
,-8.44,-0.828,-4.855,-8.655,-0.773,-4.96,3.92,2.73,1.61
27436.0,-8.751,-0.663,-5.035,-8.746,-0.928,-5.03,3.43,3.22,1.26
,-8.665,-0.366,-5.181,-8.765,-1.103,-5.006,2.45,3.01,1.26
,-8.469,-0.261,-5.224,-8.557,-1.031,-5.109,0.56,2.87,1.05
,-8.559,-0.543,-5.15,-8.459,-0.818,-5.123,-1.82,3.08,0.84
27512.0,-8.576,-0.692,-5.181,-8.6,-1.012,-4.815,0.07,2.73,3.01
,-8.691,-0.536,-5.013,-8.569,-1.173,-4.901,-0.98,2.45,3.08
,-8.545,-0.491,-4.767,-8.605,-1.194,-5.039,-2.8,1.96,3.71
,-8.519,-0.603,-4.786,-8.681,-1.015,-5.14,-6.16,0.98,4.69
27588.0,-8.746,-0.584,-5.269,-8.765,0.048,-5.006,-8.47,1.96,7.49
,-8.715,-0.151,-5.25,-8.729,-0.005,-4.838,-8.68,1.4,7.35
,-8.696,0.069,-5.178,-8.564,0.285,-5.095,-10.57,1.96,7.35
,-8.796,0.084,-4.922,-8.586,0.175,-4.949,-12.32,2.1,7.21
27664.0,-8.839,0.103,-4.925,-8.569,0.34,-4.822,-13.3,0.91,4.13
,-9.086,-0.05,-4.874,-8.497,0.687,-5.202,-12.6,0.98,3.43
,-8.916,0.098,-4.901,-8.411,0.455,-4.803,-11.69,0.84,3.29
,-8.574,0.426,-5.19,-8.55,0.354,-4.544,-10.78,1.75,3.5
27740.0,-8.768,0.218,-4.247,-8.813,0.038,-5.355,-13.86,3.15,-0.14
,-8.698,0.246,-4.503,-8.459,-0.067,-5.674,-14.14,3.78,-0.56
,-8.715,0.086,-4.815,-8.2,-0.601,-5.449,-13.79,4.27,-0.84
,-8.748,-0.007,-5.008,-8.265,-1.103,-5.123,-13.51,4.55,-1.26
27816.0,-8.497,-1.05,-5.389,-8.538,-0.196,-5.36,-12.04,1.96,-2.38
,-8.71,-0.794,-5.394,-8.461,-0.383,-5.346,-7.49,0.84,-2.59
,-8.748,-0.632,-5.3,-8.502,-0.759,-5.035,-6.09,0.14,-2.73
,-8.768,-0.294,-5.269,-8.476,-0.907,-5.183,-5.81,-0.56,-2.8
27892.0,-8.698,-1.084,-5.059,-8.693,-0.251,-4.877,-4.55,-0.35,0.07
,-8.768,-1.07,-5.001,-8.519,-0.122,-5.004,-0.35,-1.61,0.56
,-8.653,-0.802,-4.893,-8.569,0.117,-5.032,3.71,-1.75,1.4
,-8.61,-0.514,-4.819,-8.689,0.34,-4.929,6.02,-2.59,2.24
27968.0,-8.6,0.529,-4.925,-8.722,-0.51,-4.879,2.24,-2.8,0.77
,-8.562,0.235,-4.69,-8.476,-0.701,-4.953,-0.14,-1.4,0.56
,-8.787,-0.043,-4.645,-8.342,-0.773,-4.987,-0.77,-0.84,0.7
,-8.825,-0.249,-4.688,-8.346,-0.56,-4.975,-1.26,-1.68,0.42
28044.0,-8.638,-0.412,-4.831,-8.662,-0.321,-5.099,3.99,-4.13,2.1
,-8.605,-0.859,-4.709,-8.906,-0.318,-5.114,4.2,-4.55,3.01
,-8.574,-0.792,-4.609,-8.825,-0.201,-4.791,2.66,-4.27,3.71
,-8.653,-0.364,-5.001,-8.911,-0.029,-4.908,4.76,-3.71,4.62
28120.0,-8.5,-0.036,-5.08,-8.871,0.175,-4.917,5.11,-5.88,4.27
,-8.449,-0.352,-4.872,-8.993,0.4,-4.992,3.99,-5.32,4.9
,-8.622,-0.313,-4.846,-8.65,0.778,-5.121,5.67,-5.04,5.18
,-8.796,-0.091,-4.846,-8.373,0.713,-4.953,7.21,-5.32,5.11
28196.0,-8.428,0.469,-4.941,-9.021,0.414,-4.415,-0.35,-7.42,0.98
,-8.705,0.103,-4.616,-9.064,0.749,-4.551,0.14,-7.28,0.35
,-8.904,0.101,-4.482,-8.701,0.962,-4.527,2.31,-7.84,0.14
,-8.878,0.189,-4.415,-8.674,0.928,-4.391,3.92,-8.05,0.35
28272.0,-8.638,0.826,-4.286,-8.844,-0.328,-4.346,-3.99,-8.75,-5.6
,-8.885,0.878,-4.463,-8.679,-0.548,-4.331,-7.0,-9.17,-7.35
,-8.93,0.459,-4.408,-8.595,-0.72,-4.355,-10.71,-8.89,-8.75
,-9.057,-0.048,-4.288,-8.658,-0.826,-4.295,-12.74,-8.61,-9.87
28348.0,-8.875,-0.687,-4.2,-8.696,-0.235,-4.649,-4.55,-6.51,-5.6
,-8.997,-0.51,-4.219,-8.818,-0.366,-4.623,-2.24,-6.16,-4.69
,-8.957,-0.426,-4.097,-8.911,-0.376,-4.657,-1.05,-5.81,-4.13
,-9.067,-0.361,-4.298,-8.703,-0.254,-4.681,-1.4,-6.72,-4.48
28424.0,-8.662,-0.213,-4.609,-8.818,0.038,-4.819,-1.75,-8.26,-4.97
,-8.756,-0.06,-4.3,-8.765,-0.153,-4.63,-1.96,-8.47,-4.41
,-9.069,0.029,-4.444,-8.804,-0.392,-4.137,-1.89,-9.31,-4.2
,-9.04,0.012,-4.74,-9.012,-0.526,-4.006,-3.64,-10.5,-4.48
28500.0,-8.839,-0.598,-3.924,-9.033,-0.759,-4.207,-3.57,-9.94,-4.97
,-8.887,-0.483,-4.422,-8.981,-0.641,-3.989,-2.59,-10.85,-3.57
,-8.885,-0.493,-4.47,-9.005,-0.352,-3.91,-3.08,-11.2,-1.89
,-9.009,-0.493,-4.788,-9.052,-0.165,-3.766,-0.77,-10.85,-0.35
28576.0,-8.983,-0.036,-3.975,-9.028,-0.605,-2.91,-0.14,-13.44,-1.12
,-8.875,-0.156,-3.888,-8.993,-0.244,-2.79,-3.43,-14.14,-1.47
,-8.993,-0.471,-3.305,-9.072,-0.012,-3.094,-3.57,-13.16,-0.98
,-9.141,-0.639,-3.24,-9.131,0.062,-2.867,-1.05,-11.76,-0.98
28652.0,-9.428,0.172,-3.551,-9.189,-0.388,-2.989,4.62,-8.26,-0.35
,-9.306,0.206,-3.671,-9.306,-0.412,-2.974,3.92,-7.98,-0.98
,-9.007,-0.01,-3.369,-9.253,0.031,-2.931,1.96,-7.0,-1.33
,-8.871,-0.256,-3.276,-9.237,0.177,-3.132,0.98,-5.88,-1.82
28728.0,-9.203,-0.048,-3.338,-9.268,-0.084,-3.343,-0.7,-1.75,-3.36
,-9.201,-0.005,-3.233,-9.251,-0.177,-3.862,-0.7,-1.12,-3.71
,-8.978,0.045,-3.357,-9.194,-0.179,-3.826,-2.52,-0.56,-4.41
,-9.139,-0.057,-3.218,-9.134,-0.069,-4.53,-2.94,0.77,-4.41
28804.0,-9.031,-0.354,-4.776,-9.177,-1.027,-4.535,-5.25,-0.42,-3.92
,-8.832,-0.498,-4.996,-9.198,-0.491,-4.52,-5.25,-1.26,-3.64
,-8.598,-0.775,-4.779,-9.16,-0.134,-4.142,-3.92,-1.61,-2.87
,-8.947,-1.058,-4.535,-9.186,-0.022,-4.104,-0.49,-1.68,-1.89
28880.0,-9.184,-0.196,-4.142,-9.222,-0.531,-3.431,5.25,-5.46,0.0
,-8.964,-0.285,-3.869,-9.253,-0.495,-3.312,4.48,-6.02,-0.21
,-8.942,-0.261,-3.692,-9.34,-0.651,-3.163,4.55,-6.02,-0.14
,-9.15,-0.4,-3.771,-9.335,-0.601,-3.118,5.46,-5.88,0.0
28956.0,-9.244,-0.369,-3.123,-9.323,-0.177,-3.197,19.39,-2.87,5.04
,-9.294,-0.036,-3.084,-9.301,-0.357,-3.19,20.16,-2.31,4.83
,-9.234,0.022,-3.218,-9.306,-0.397,-3.312,18.2,-1.89,4.13
,-9.198,-0.096,-3.154,-9.347,-0.488,-3.3,16.24,-1.4,3.92
29032.0,-9.244,-0.357,-3.343,-9.131,-0.177,-2.907,12.74,0.98,2.8
,-9.179,-0.182,-3.374,-9.27,-0.282,-3.053,12.67,1.26,2.73
,-9.208,-0.117,-3.307,-9.361,-0.366,-3.156,11.48,1.68,2.38
,-9.184,-0.153,-3.082,-9.301,-0.328,-3.434,9.73,2.45,1.96
29108.0,-9.213,-0.428,-3.484,-9.208,-0.33,-4.042,4.83,5.18,1.12
,-9.232,-0.409,-3.699,-9.131,-0.321,-4.087,5.46,5.6,1.33
,-9.227,-0.287,-3.831,-9.067,-0.246,-4.183,5.88,5.53,1.33
,-9.282,-0.325,-3.999,-9.024,-0.514,-4.125,4.97,5.04,1.12
29184.0,-9.009,-0.723,-3.927,-9.304,-0.313,-3.558,3.64,3.01,0.56
,-9.15,-0.735,-3.735,-9.277,-0.27,-3.826,5.95,2.87,0.98
,-9.265,-0.546,-3.577,-9.115,-0.38,-3.826,8.4,2.94,1.47
,-9.304,-0.34,-3.527,-9.074,-0.443,-3.738,9.24,3.01,1.75
29259.0,-9.1,-0.529,-3.673,-9.134,-0.318,-3.673,6.09,2.87,0.84
,-9.052,-0.493,-3.597,-9.086,-0.352,-3.69,7.0,2.94,0.98
,-9.119,-0.304,-3.451,-9.165,-0.498,-3.86,7.35,2.87,1.05
,-9.237,-0.292,-3.692,-9.107,-0.555,-3.934,6.51,3.01,0.98
29334.0,-9.143,-0.447,-3.879,-9.232,-0.347,-3.711,2.52,2.94,0.56
,-9.17,-0.531,-3.81,-9.234,-0.345,-3.817,2.45,2.87,0.56
,-9.182,-0.5,-3.745,-9.184,-0.345,-3.867,2.94,2.87,0.77
,-9.244,-0.378,-3.711,-9.16,-0.325,-4.025,3.22,3.01,0.77
29409.0,-9.1,-0.424,-4.073,-9.201,-0.335,-3.807,3.15,2.03,0.63
,-9.0,-0.431,-3.97,-9.241,-0.297,-3.788,3.5,1.82,0.84
,-9.062,-0.534,-3.9,-9.179,-0.361,-3.692,4.2,1.75,1.05
,-9.083,-0.512,-3.862,-9.21,-0.364,-3.788,5.04,1.75,1.19
29484.0,-9.16,-0.316,-3.812,-9.229,-0.45,-3.685,2.31,1.12,0.49
,-9.122,-0.323,-3.8,-9.201,-0.392,-3.702,1.89,1.19,0.49
,-9.093,-0.426,-3.74,-9.253,-0.33,-3.793,1.61,1.19,0.49
,-9.112,-0.474,-3.668,-9.217,-0.447,-3.848,2.24,1.54,0.91
29559.0,-9.165,-0.366,-3.984,-9.088,-0.467,-3.893,1.33,1.12,0.49
,-9.134,-0.39,-4.07,-9.182,-0.407,-3.802,1.12,0.84,0.49
,-9.036,-0.464,-4.054,-9.201,-0.321,-3.721,1.05,0.49,0.49
,-8.997,-0.476,-3.975,-9.282,-0.321,-3.719,1.26,0.35,0.49
29634.0,-9.261,-0.371,-3.731,-9.184,-0.376,-3.678,1.4,-0.07,0.49
,-9.172,-0.373,-3.714,-9.182,-0.404,-3.601,1.4,-0.14,0.56
,-9.146,-0.369,-3.659,-9.213,-0.419,-3.599,1.68,0.0,0.49
,-9.196,-0.412,-3.699,-9.229,-0.34,-3.664,1.96,-0.07,0.49
29709.0,-9.179,-0.345,-3.697,-9.165,-0.357,-3.766,2.59,0.49,0.49
,-9.203,-0.302,-3.754,-9.179,-0.39,-3.726,2.59,0.63,0.49
,-9.167,-0.309,-3.687,-9.196,-0.359,-3.752,2.38,0.49,0.35
,-9.155,-0.392,-3.711,-9.189,-0.385,-3.719,2.52,0.63,0.28
29784.0,-9.153,-0.503,-3.673,-9.076,-0.505,-3.778,1.89,0.56,-0.07
,-9.206,-0.498,-3.807,-9.086,-0.51,-3.716,1.96,0.42,-0.14
,-9.215,-0.421,-3.92,-9.191,-0.543,-3.714,2.03,0.28,-0.21
,-9.155,-0.452,-3.905,-9.215,-0.421,-3.778,1.96,0.21,-0.07
29859.0,-9.275,-0.409,-3.743,-9.064,-0.364,-3.934,3.71,-0.07,1.12
,-9.206,-0.412,-3.807,-9.072,-0.383,-3.814,3.29,-0.14,0.98
,-9.186,-0.369,-3.891,-9.098,-0.5,-3.683,2.94,-0.21,0.84
,-9.107,-0.371,-3.984,-9.186,-0.431,-3.661,2.59,-0.56,0.63
29934.0,-9.186,-0.376,-3.786,-9.217,-0.68,-3.666,2.87,-1.26,1.05
,-9.167,-0.371,-3.79,-9.287,-0.639,-3.728,1.96,-1.4,0.77
,-9.172,-0.543,-3.709,-9.284,-0.476,-3.759,1.05,-1.61,0.56
,-9.198,-0.596,-3.687,-9.172,-0.254,-3.831,1.19,-1.61,0.77
30009.0,-9.148,-0.151,-3.783,-9.191,0.026,-3.422,3.5,-2.24,0.56
,-9.139,-0.227,-3.618,-9.275,-0.081,-3.448,1.96,-2.45,0.0
,-9.287,-0.357,-3.542,-9.215,-0.474,-3.508,-0.07,-2.52,-1.33
,-9.244,-0.206,-3.463,-9.196,-0.744,-3.374,-1.33,-2.8,-2.31
30084.0,-9.189,-0.651,-3.283,-9.375,-0.302,-2.852,-6.51,-1.4,-2.17
,-9.253,-0.517,-3.264,-9.402,-0.309,-2.907,-5.25,-0.84,-1.68
,-9.308,-0.409,-3.19,-9.313,-0.22,-3.195,-4.83,-0.28,-1.12
,-9.373,-0.275,-3.094,-9.201,-0.467,-3.314,-4.97,0.49,-0.56
30159.0,-9.074,-0.835,-3.403,-9.392,-0.093,-3.647,-10.5,3.01,-1.05
,-9.033,-1.055,-3.283,-9.21,0.11,-3.589,-7.63,3.92,0.28
,-9.184,-0.909,-3.343,-9.241,0.057,-3.683,-2.31,4.76,1.61
,-9.363,-0.56,-3.326,-9.265,-0.227,-3.431,1.75,5.04,2.24
30234.0,-9.328,-0.184,-3.587,-8.978,-0.414,-3.975,-4.41,4.34,0.7
,-9.313,-0.007,-3.9,-9.079,-0.656,-3.601,-4.34,3.85,0.07
,-9.129,0.048,-4.154,-9.258,-0.727,-3.333,-5.53,2.94,-0.7
,-8.983,-0.158,-4.214,-9.323,-0.526,-3.513,-6.86,2.52,-1.05
30309.0,-9.33,-0.242,-3.635,-9.057,-1.139,-3.168,0.35,2.59,0.49
,-9.354,-0.017,-3.841,-9.32,-0.995,-2.917,-1.47,1.89,0.28
,-9.117,-0.316,-3.855,-9.509,-0.476,-3.116,-5.39,2.1,0.35
,-8.861,-0.9,-3.518,-9.282,-0.134,-2.881,-7.35,3.08,1.19
30384.0,-9.325,-0.019,-3.151,-9.086,0.44,-4.29,-2.52,7.63,2.94
,-9.194,-0.335,-3.034,-8.799,0.148,-4.269,-7.49,7.84,2.8
,-9.335,-0.251,-3.003,-8.741,-0.361,-3.953,-6.3,8.12,3.15
,-9.306,0.364,-3.831,-8.969,-0.711,-3.853,-3.71,7.56,2.38
30459.0,-9.337,-0.711,-2.934,-9.246,0.802,-3.769,3.85,10.71,3.15
,-9.43,-0.132,-3.094,-9.162,-0.373,-3.491,9.52,10.99,2.87
,-9.119,0.517,-3.037,-8.945,-1.156,-3.702,11.06,10.85,2.17
,-9.311,1.094,-3.379,-8.88,-1.429,-3.754,8.54,10.29,1.19
30534.0,-8.957,-1.493,-3.714,-9.012,-0.778,-2.838,4.06,12.67,2.1
,-8.88,-1.646,-3.936,-9.306,0.38,-3.424,9.03,13.79,3.99
,-8.861,-1.778,-3.685,-9.356,1.28,-4.18,12.95,14.56,6.3
,-8.863,-1.455,-3.424,-9.249,1.462,-4.252,18.2,15.89,8.4
30609.0,-8.966,0.9,-4.317,-9.158,0.141,-2.685,4.69,13.44,3.43
,-8.789,-0.136,-4.18,-9.182,0.163,-2.941,-0.56,14.7,2.03
,-8.863,-0.531,-3.451,-9.172,-0.158,-3.393,1.12,15.96,1.68
,-8.935,-0.256,-3.015,-9.165,-0.732,-3.642,5.46,16.94,0.14
30684.0,-8.909,-1.311,-3.836,-8.765,0.067,-4.439,-5.46,19.67,2.8
,-8.772,-1.479,-3.642,-8.67,-0.06,-4.066,-1.54,20.79,3.85
,-8.777,-1.012,-4.07,-8.768,-0.002,-3.9,4.76,20.58,3.57
,-8.703,-0.433,-4.183,-8.856,0.421,-4.353,8.47,20.02,3.15
30759.0,-8.835,0.505,-4.771,-8.521,-0.548,-4.465,3.71,21.28,1.26
,-8.866,0.354,-4.913,-8.83,-0.206,-4.731,3.15,20.02,1.12
,-8.583,0.139,-4.951,-8.849,-0.11,-5.396,3.43,20.37,1.68
,-8.55,-0.579,-4.496,-8.899,-0.081,-5.719,3.01,21.0,2.24
30834.0,-8.76,-0.256,-5.827,-8.509,0.625,-5.808,5.6,16.66,0.14
,-8.502,-0.452,-5.645,-8.684,0.129,-5.43,5.25,17.5,-0.98
,-8.485,-0.12,-5.331,-8.461,-0.493,-5.31,7.77,17.85,-2.1
,-8.607,0.483,-5.53,-8.495,-0.936,-4.893,9.94,15.33,-3.22
30909.0,-8.856,-1.129,-4.774,-8.296,-1.39,-4.597,4.41,12.18,-2.31
,-8.727,-0.876,-5.106,-8.416,-1.515,-4.585,8.82,9.8,-1.54
,-8.648,-0.847,-4.941,-8.399,-1.254,-5.03,9.73,9.52,-0.14
,-8.476,-1.067,-4.879,-8.581,-0.56,-5.272,7.84,9.87,1.26
30984.0,-8.507,-0.041,-5.623,-8.782,-0.629,-4.719,15.33,10.43,4.9
,-8.406,-0.05,-5.607,-8.667,-0.711,-4.712,12.95,10.15,4.62
,-8.402,-0.318,-5.114,-8.399,-0.931,-4.791,10.78,10.92,4.62
,-8.488,-0.56,-4.996,-8.437,-1.043,-4.743,11.69,11.76,5.11
31059.0,-8.526,-0.96,-5.042,-8.291,0.866,-5.162,19.46,11.41,8.33
,-8.646,-0.696,-4.97,-8.457,0.627,-5.475,21.28,10.64,8.33
,-8.521,-0.012,-5.255,-8.48,0.447,-5.501,22.33,8.19,7.49
,-8.181,0.471,-5.42,-8.473,0.036,-5.319,20.65,6.65,5.95
31134.0,-8.598,-0.261,-5.176,-8.55,0.849,-5.499,11.48,9.03,0.14
,-8.667,-0.457,-5.016,-8.251,1.096,-5.719,14.7,8.89,-0.77
,-8.67,-0.373,-4.882,-8.222,0.914,-5.994,19.25,8.82,-0.84
,-8.693,0.165,-4.951,-8.504,0.467,-5.875,24.36,7.91,-0.98
31209.0,-8.492,-0.22,-5.609,-8.5,-1.12,-5.659,16.1,4.48,-6.72
,-8.375,-0.823,-5.609,-8.772,-0.986,-5.628,15.61,4.9,-5.95
,-8.423,-1.364,-5.262,-8.614,-0.823,-5.705,17.36,5.39,-5.04
,-8.32,-1.139,-5.585,-8.485,-0.744,-6.138,21.21,5.04,-4.34
31284.0,-8.291,-0.883,-6.36,-8.344,-2.173,-5.698,24.92,4.83,-5.74
,-8.184,-1.12,-6.169,-8.693,-1.668,-5.434,21.91,2.73,-4.48
,-7.631,-1.711,-6.1,-8.677,-1.165,-5.42,19.32,1.19,-2.66
,-7.7,-2.096,-5.939,-8.732,-0.921,-5.319,19.18,0.84,-0.91
31359.0,-8.495,-0.723,-5.243,-8.256,-0.534,-5.501,18.06,-3.57,-0.7
,-8.504,-0.782,-5.097,-7.746,-1.11,-5.437,15.12,-1.75,-0.35
,-8.413,-0.699,-5.652,-8.165,-1.878,-5.142,14.42,-0.77,0.0
,-8.777,-0.546,-5.341,-8.662,-1.843,-5.08,11.06,-2.31,0.35
31434.0,-8.703,-1.512,-5.133,-8.624,-0.352,-5.355,13.72,-4.48,6.09
,-8.646,-1.149,-5.047,-8.61,-0.979,-5.281,14.91,-4.55,6.09
,-8.586,-0.857,-5.138,-8.303,-0.897,-5.394,16.17,-4.97,5.53
,-8.672,-0.445,-5.224,-7.576,-0.94,-5.41,15.61,-5.6,4.9
31509.0,-7.679,-0.646,-5.468,-8.88,-1.082,-4.771,9.45,-8.12,1.61
,-8.526,-0.385,-5.351,-8.555,-1.534,-4.503,9.52,-7.7,1.12
,-8.981,-0.548,-5.197,-8.552,-1.721,-4.274,7.77,-7.56,1.61
,-8.964,-0.706,-5.111,-8.366,-1.622,-4.41,6.58,-7.49,2.45
31584.0,-8.49,-1.424,-4.611,-8.543,-0.809,-4.733,6.3,-3.99,4.62
,-8.689,-0.974,-4.841,-8.567,-0.821,-4.676,7.28,-3.5,4.97
,-8.684,-0.546,-5.095,-8.732,-0.718,-4.602,7.0,-3.71,5.18
,-8.567,-0.605,-5.035,-8.863,-0.79,-4.41,5.53,-3.15,5.39
31659.0,-8.564,-0.943,-4.233,-8.763,-0.579,-4.786,4.9,-1.54,4.34
,-8.162,-0.948,-4.41,-8.672,-0.706,-4.657,3.92,-1.33,4.13
,-8.107,-0.933,-4.532,-8.588,-0.806,-4.578,3.08,0.07,3.99
,-8.567,-0.797,-4.513,-8.667,-0.778,-4.666,2.8,0.56,3.57
31734.0,-8.665,-0.771,-4.817,-8.392,-1.149,-4.417,2.94,3.36,2.52
,-8.612,-0.972,-4.803,-7.808,-0.866,-4.558,3.01,4.48,2.73
,-9.014,-1.141,-4.573,-8.014,-0.591,-4.86,3.57,5.32,3.22
,-8.928,-1.251,-4.647,-8.873,-0.519,-5.037,4.13,4.55,3.57
31809.0,-9.21,-0.498,-4.965,-8.404,-1.467,-4.977,1.89,4.27,-0.98
,-8.691,-0.773,-4.858,-8.409,-1.498,-5.109,1.82,4.27,-0.63
,-8.244,-1.074,-5.032,-8.531,-1.402,-5.238,1.19,4.9,-0.21
,-8.361,-1.24,-5.016,-8.583,-1.359,-5.128,0.56,6.09,0.21
31884.0,-8.536,-1.33,-4.965,-8.744,-0.687,-5.173,2.52,6.09,2.73
,-8.471,-1.074,-4.972,-8.72,-0.534,-5.382,2.59,6.02,3.08
,-8.469,-0.849,-5.109,-8.655,-0.433,-5.37,1.33,5.53,3.15
,-8.547,-0.888,-5.269,-8.65,-0.759,-5.099,-0.14,5.88,3.01
31959.0,-8.521,-0.926,-5.095,-8.655,-0.766,-5.918,-5.81,6.37,2.73
,-8.454,-1.196,-5.095,-8.631,-0.766,-5.817,-6.09,6.44,3.78
,-8.454,-0.921,-5.37,-8.555,-0.895,-5.676,-5.81,6.09,4.34
,-8.567,-0.648,-5.707,-8.473,-0.687,-5.738,-5.39,4.83,4.41
32034.0,-8.277,-0.684,-5.444,-8.531,-0.5,-5.339,-16.31,2.17,4.34
,-8.303,-0.802,-5.348,-8.756,-0.239,-5.396,-18.83,2.66,4.41
,-8.457,-0.893,-5.331,-8.83,-0.093,-5.221,-20.16,2.66,4.97
,-8.48,-0.79,-5.315,-8.737,-0.235,-5.224,-19.88,2.17,6.09
32109.0,-8.605,-0.371,-5.185,-8.44,-1.048,-5.183,-21.21,1.33,5.88
,-8.751,-0.57,-4.946,-8.282,-0.976,-5.386,-20.44,0.91,6.02
,-8.765,-0.589,-5.001,-8.394,-1.027,-5.31,-18.97,0.98,6.86
,-8.538,-0.617,-5.276,-8.691,-0.857,-5.027,-18.13,1.47,7.91
32184.0,-8.665,-0.653,-5.176,-8.619,-0.601,-5.465,-9.66,-2.24,8.54
,-8.406,-0.402,-5.365,-8.629,-0.526,-5.389,-9.31,-2.73,8.82
,-8.366,-0.51,-5.449,-8.734,-0.313,-5.334,-8.75,-2.17,8.61
,-8.488,-0.637,-5.43,-8.49,-0.043,-5.42,-9.1,-1.96,8.12
32259.0,-8.334,0.077,-5.595,-8.624,0.443,-5.37,-3.78,-5.39,5.74
,-8.38,0.012,-5.439,-8.622,0.842,-5.272,-3.85,-5.32,4.69
,-8.466,0.043,-5.477,-8.61,0.926,-5.238,-2.38,-5.53,3.99
,-8.586,0.206,-5.408,-8.815,0.675,-4.896,0.0,-5.46,3.36
32334.0,-8.617,0.392,-4.901,-8.531,-0.357,-4.752,-0.84,-6.51,-2.17
,-8.512,0.144,-4.87,-8.382,-0.782,-4.81,-1.61,-6.16,-2.8
,-8.842,0.057,-4.767,-8.358,-0.876,-4.815,-0.84,-6.51,-3.57
,-8.763,0.074,-4.855,-8.459,-0.78,-4.932,0.35,-7.7,-3.99
32409.0,-8.906,-0.641,-4.805,-8.641,-0.447,-4.728,4.9,-7.21,-0.49
,-8.672,-0.409,-4.925,-8.631,-0.153,-4.807,4.13,-8.96,-1.33
,-8.375,-0.56,-4.822,-8.61,0.069,-4.427,2.66,-8.33,-0.63
,-8.672,-0.675,-4.602,-8.713,0.294,-4.535,1.54,-8.47,-0.21
32484.0,-8.679,0.203,-5.071,-8.433,0.019,-4.647,6.37,-5.88,0.07
,-8.689,0.084,-4.669,-8.514,-0.026,-4.649,5.25,-4.97,0.84
,-9.134,-0.172,-4.496,-8.753,-0.084,-4.654,3.5,-6.37,0.42
,-8.777,0.134,-4.652,-8.854,-0.084,-4.463,2.31,-8.68,-0.84
32559.0,-8.871,-0.065,-4.353,-8.796,0.065,-4.602,1.47,-7.42,-2.17
,-8.792,-0.012,-4.448,-8.698,0.019,-4.781,0.07,-7.63,-2.66
,-8.722,-0.026,-4.494,-8.662,-0.254,-4.692,-0.84,-7.49,-3.01
,-8.665,0.079,-4.58,-8.708,-0.584,-4.537,-1.05,-7.56,-3.43
32634.0,-8.849,-0.905,-4.338,-8.634,-0.282,-4.652,-3.57,-7.28,-4.34
,-8.902,-0.735,-4.149,-8.842,-0.402,-4.532,-1.82,-7.77,-4.13
,-8.727,-0.491,-4.36,-8.82,-0.409,-4.496,-0.77,-8.96,-3.71
,-8.729,-0.266,-4.561,-8.815,-0.328,-4.257,-0.91,-9.24,-3.22
32709.0,-9.0,-0.144,-4.29,-8.643,-0.275,-4.439,1.54,-6.16,-2.59
,-9.103,-0.081,-4.281,-9.019,-0.39,-4.25,2.59,-6.51,-2.24
,-9.115,0.201,-4.527,-8.536,-0.292,-4.262,2.1,-7.21,-1.61
,-8.911,0.23,-4.58,-8.815,-0.237,-4.24,-0.77,-7.49,-1.26
32784.0,-8.866,-0.304,-4.458,-8.897,-0.555,-4.001,-3.57,-9.52,-5.18
,-8.851,-0.4,-4.312,-8.952,-0.651,-3.941,-3.29,-8.68,-4.2
,-8.703,-0.457,-4.305,-9.107,-0.459,-3.927,-2.45,-8.12,-3.57
,-8.83,-0.524,-4.178,-9.134,-0.136,-4.264,-1.4,-7.42,-3.5
32859.0,-8.861,-0.282,-4.018,-8.918,-0.845,-3.793,-5.18,-8.54,-3.43
,-8.868,-0.483,-4.13,-9.016,-0.723,-3.549,-6.3,-7.98,-3.15
,-8.832,-0.687,-3.786,-9.131,-0.553,-3.666,-6.02,-7.28,-2.52
,-8.878,-0.778,-3.872,-9.074,-0.5,-3.47,-4.27,-6.51,-1.47
32934.0,-9.105,-0.613,-3.848,-8.928,-0.045,-3.838,1.68,-4.41,1.12
,-8.978,-0.349,-3.587,-8.981,0.361,-3.79,1.68,-4.83,1.26
,-9.055,-0.263,-3.994,-9.048,0.318,-3.764,0.49,-5.6,-0.07
,-8.768,-0.258,-4.087,-9.052,0.385,-3.905,-0.7,-5.74,-0.7
33009.0,-9.043,0.091,-3.922,-9.083,-0.608,-3.743,-7.21,-6.09,-3.99
,-8.997,-0.29,-4.018,-9.11,-0.529,-4.058,-9.31,-6.09,-4.34
,-9.052,-0.586,-3.965,-9.064,-0.663,-3.632,-8.75,-5.88,-3.99
,-9.028,-0.742,-3.884,-9.04,-0.737,-3.91,-7.14,-5.39,-3.36
33084.0,-8.997,-0.775,-3.893,-8.961,-0.488,-3.817,-3.85,-4.9,-0.49
,-8.959,-0.809,-3.537,-9.072,-0.318,-3.759,-1.68,-4.62,0.63
,-9.079,-0.462,-4.118,-9.227,-0.311,-3.781,1.12,-4.55,1.05
,-9.028,-0.543,-3.994,-9.191,-0.105,-3.841,2.1,-4.41,2.1
33159.0,-9.225,-0.012,-3.764,-9.418,-0.273,-3.522,3.99,-4.27,2.38
,-9.072,-0.342,-3.439,-9.32,-0.007,-3.922,2.52,-3.5,2.31
,-9.143,-0.483,-3.594,-8.995,-0.026,-3.829,4.69,-2.73,2.45
,-9.268,-0.51,-3.376,-8.894,-0.347,-3.936,6.79,-2.03,2.73
33234.0,-8.789,-0.589,-3.709,-9.5,-0.199,-3.331,4.27,-1.61,2.17
,-8.849,-0.378,-3.678,-9.418,-0.23,-3.539,6.37,-0.84,2.17
,-9.229,-0.184,-3.465,-9.227,-0.342,-3.836,6.37,-0.28,2.03
,-9.354,-0.168,-3.163,-9.0,-0.407,-4.152,4.69,0.07,2.1
33309.0,-8.842,-0.459,-4.111,-9.435,0.179,-3.783,2.52,0.21,2.38
,-8.808,-0.433,-4.113,-9.349,0.163,-3.821,3.36,0.28,2.45
,-8.952,-0.294,-3.838,-9.208,0.012,-3.869,4.83,0.28,2.52
,-9.227,-0.06,-3.795,-9.143,-0.294,-3.936,5.74,0.21,2.38
33384.0,-9.067,-0.383,-3.958,-9.239,0.034,-3.716,-0.35,-1.19,0.14
,-8.959,-0.278,-3.86,-9.213,-0.156,-3.625,1.75,-0.84,0.49
,-9.086,-0.163,-3.692,-9.184,-0.251,-3.836,3.22,-0.91,0.63
,-9.208,-0.012,-3.668,-9.081,-0.086,-4.219,3.57,-0.7,0.21
33459.0,-9.033,-0.189,-4.118,-9.227,-0.321,-3.692,4.83,-0.7,-0.14
,-9.095,-0.4,-3.843,-9.112,-0.354,-3.711,4.62,-0.35,0.28
,-9.134,-0.459,-3.635,-8.961,-0.412,-3.697,5.67,-0.21,0.84
,-9.292,-0.347,-3.683,-9.083,-0.531,-3.51,7.28,-0.21,0.98
33534.0,-9.179,-0.378,-3.735,-9.28,-0.148,-3.573,5.39,0.35,0.14
,-9.155,-0.194,-3.726,-9.217,-0.187,-3.46,5.32,0.56,0.14
,-9.177,-0.098,-3.654,-9.32,-0.213,-3.561,4.69,0.7,0.14
,-9.215,-0.086,-3.534,-9.241,-0.438,-3.647,4.9,1.05,0.35
33609.0,-9.091,-0.514,-3.743,-9.165,-0.215,-3.917,4.27,1.47,0.35
,-9.064,-0.558,-3.702,-9.244,-0.242,-3.941,5.18,1.68,0.49
,-9.112,-0.519,-3.762,-9.15,-0.309,-3.831,6.09,1.82,0.42
,-9.122,-0.349,-3.829,-9.165,-0.23,-3.879,6.65,1.68,0.49
33684.0,-9.179,-0.242,-3.886,-9.215,-0.459,-3.821,5.74,1.26,0.42
,-9.11,-0.208,-3.807,-9.182,-0.524,-3.786,6.02,1.26,0.63
,-9.119,-0.347,-3.867,-9.174,-0.476,-3.8,5.32,1.19,0.42
,-9.043,-0.5,-3.821,-9.198,-0.378,-3.766,5.18,1.19,0.49
33759.0,-9.184,-0.39,-3.874,-9.165,-0.294,-3.735,4.34,0.77,0.56
,-9.083,-0.378,-3.888,-9.172,-0.223,-3.668,3.85,0.56,0.56
,-9.086,-0.369,-3.862,-9.237,-0.175,-3.52,3.85,0.42,0.63
,-9.153,-0.323,-3.836,-9.275,-0.246,-3.589,4.13,0.56,0.77
33834.0,-9.191,-0.354,-3.58,-9.174,-0.512,-3.611,1.82,0.7,0.07
,-9.124,-0.486,-3.573,-9.167,-0.4,-3.577,1.47,0.98,0.14
,-9.139,-0.517,-3.549,-9.287,-0.325,-3.613,1.82,1.33,0.21
,-9.153,-0.481,-3.611,-9.284,-0.256,-3.778,2.73,1.61,0.35
33909.0,-9.265,-0.254,-3.987,-9.021,-0.395,-4.145,2.31,1.4,0.28
,-9.186,-0.371,-4.094,-9.012,-0.493,-3.941,2.17,1.26,0.35
,-9.079,-0.392,-4.188,-9.081,-0.61,-3.723,2.52,0.7,0.35
,-9.009,-0.364,-4.192,-9.196,-0.464,-3.57,2.94,0.49,0.49
33984.0,-9.282,-0.378,-3.558,-9.131,-0.361,-3.601,4.83,-0.28,0.84
,-9.258,-0.306,-3.506,-9.201,-0.369,-3.575,4.27,-0.14,0.63
,-9.194,-0.266,-3.537,-9.153,-0.447,-3.484,3.43,0.0,0.56
,-9.16,-0.297,-3.623,-9.115,-0.352,-3.436,3.01,0.28,0.42
34059.0,-9.227,-0.268,-3.436,-9.232,-0.438,-3.654,3.57,1.61,0.7
,-9.251,-0.347,-3.417,-9.21,-0.412,-3.769,2.31,1.75,0.21
,-9.234,-0.404,-3.458,-9.16,-0.299,-3.805,0.98,1.89,0.0
,-9.22,-0.495,-3.518,-9.174,-0.428,-3.855,0.21,2.17,-0.14
34134.0,-9.129,-0.5,-3.817,-9.112,-0.388,-3.979,1.19,2.24,0.7
,-9.179,-0.44,-3.92,-9.083,-0.433,-3.936,2.1,2.24,0.7
,-9.146,-0.421,-3.958,-9.076,-0.313,-3.946,2.52,1.89,0.63
,-9.1,-0.354,-3.927,-9.093,-0.191,-3.953,2.8,1.61,0.77
34209.0,-9.155,-0.347,-3.8,-9.253,-0.383,-3.565,1.61,0.7,0.63
,-9.153,-0.373,-3.786,-9.155,-0.397,-3.513,0.98,0.49,0.49
,-9.184,-0.333,-3.707,-9.201,-0.491,-3.482,0.91,0.28,0.35
,-9.251,-0.325,-3.695,-9.227,-0.55,-3.405,0.42,0.21,0.14
34284.0,-9.287,-0.438,-3.384,-9.258,-0.151,-3.733,1.05,1.96,1.19
,-9.217,-0.438,-3.329,-9.122,-0.172,-3.829,1.26,2.52,1.54
,-9.196,-0.292,-3.398,-9.074,-0.366,-3.886,1.47,2.8,1.54
,-9.294,-0.206,-3.51,-9.177,-0.476,-3.982,1.19,3.08,1.26
34359.0,-9.131,-0.421,-4.176,-9.069,-0.263,-4.152,-0.56,2.45,0.35
,-9.069,-0.261,-4.2,-9.019,-0.333,-4.046,-0.35,1.89,0.56
,-9.024,-0.179,-4.166,-9.122,-0.493,-3.955,-0.77,1.47,0.63
,-9.088,-0.165,-4.223,-9.11,-0.596,-3.877,-1.54,0.77,0.14
34434.0,-9.167,-0.596,-3.781,-9.206,-0.132,-3.364,-1.96,-1.05,0.63
,-9.17,-0.491,-3.719,-9.239,-0.129,-3.094,-0.63,-1.19,0.98
,-9.155,-0.424,-3.664,-9.299,-0.069,-3.106,-0.14,-1.05,1.12
,-9.158,-0.232,-3.453,-9.375,-0.136,-3.049,-0.14,-0.77,1.33
34509.0,-9.387,-0.182,-3.211,-9.031,-0.78,-3.144,-6.58,1.47,-0.77
,-9.239,-0.136,-3.238,-9.301,-0.634,-3.221,-8.12,1.89,-1.33
,-9.103,-0.246,-3.455,-9.39,-0.34,-3.235,-10.08,2.52,-1.26
,-8.935,-0.562,-3.41,-9.378,-0.462,-3.498,-11.34,3.01,-0.84
34584.0,-9.062,-0.747,-3.202,-9.04,-0.077,-4.123,-5.53,6.23,0.49
,-9.134,-0.73,-3.19,-8.878,-0.045,-4.391,-2.31,6.93,1.96
,-9.395,-0.481,-3.482,-8.971,0.01,-4.252,1.68,7.42,2.87
,-9.294,-0.218,-3.972,-9.189,0.361,-4.302,4.27,7.35,3.36
34659.0,-9.127,0.491,-4.075,-9.019,-0.845,-3.429,-1.89,5.39,0.35
,-9.177,0.239,-3.872,-9.194,-1.036,-2.292,-5.39,5.32,-0.42
,-9.162,-0.256,-3.544,-9.454,-0.352,-3.453,-8.68,5.46,-0.63
,-9.033,-0.546,-3.329,-8.782,-0.012,-4.011,-8.19,5.88,-0.49
34734.0,-8.746,-0.254,-4.13,-9.136,0.56,-4.042,4.55,5.67,4.41
,-8.978,-0.579,-4.436,-9.184,0.823,-4.149,4.41,6.09,4.55
,-9.024,-0.558,-4.089,-9.127,0.505,-4.006,6.44,6.65,4.9
,-8.954,0.0,-4.061,-9.177,-0.151,-4.085,9.17,7.0,3.71
34809.0,-8.88,-0.957,-3.419,-9.155,-0.952,-3.494,-6.79,6.65,-0.63
,-9.05,-1.22,-2.991,-9.098,-1.05,-3.403,-0.49,8.33,0.21
,-9.06,-1.067,-3.135,-8.978,-1.0,-3.077,4.62,8.54,1.05
,-9.136,-0.926,-3.331,-9.239,-0.428,-3.458,7.0,8.82,2.8
34884.0,-9.105,0.246,-4.001,-8.624,0.464,-4.434,11.97,10.5,5.6
,-9.076,0.593,-4.554,-8.983,0.565,-4.29,9.52,9.73,5.32
,-8.866,0.644,-4.829,-9.289,0.818,-4.305,6.51,9.59,5.32
,-8.634,0.445,-4.42,-9.404,0.988,-4.353,4.27,9.8,4.62
34959.0,-9.127,0.426,-4.133,-9.131,-0.873,-3.867,0.7,7.0,-1.33
,-8.897,-0.223,-3.81,-9.158,-0.696,-4.271,-3.85,8.19,-1.4
,-8.902,-0.782,-3.666,-8.801,-0.646,-4.305,-4.2,8.82,-1.75
,-8.995,-0.993,-3.757,-8.6,-0.258,-4.451,-2.1,9.17,-1.54
35034.0,-8.748,0.029,-4.331,-8.892,-0.242,-3.553,3.78,8.47,-0.35
,-8.868,0.101,-4.097,-8.942,-0.663,-3.563,4.06,9.17,-0.91
,-9.045,0.199,-3.85,-9.052,-1.129,-3.297,5.04,10.36,-1.26
,-9.179,0.096,-3.735,-9.313,-1.12,-3.101,4.69,10.57,-1.19
35109.0,-9.16,-0.656,-3.223,-8.662,0.579,-4.472,10.57,15.89,3.92
,-9.007,-0.002,-3.68,-8.612,0.838,-4.726,11.97,15.75,4.2
,-8.811,0.524,-4.369,-8.787,0.68,-4.511,10.36,14.98,3.99
,-8.562,0.424,-4.484,-8.861,0.531,-4.489,5.53,15.12,3.08
35184.0,-8.966,0.203,-4.496,-8.758,-0.919,-4.537,-3.78,14.28,-6.3
,-8.818,-0.227,-4.515,-8.686,-0.708,-4.649,-3.64,14.56,-5.67
,-8.667,-0.699,-4.41,-8.713,-0.943,-4.432,-2.73,15.75,-4.2
,-8.844,-1.062,-4.436,-8.586,-0.72,-4.515,-0.63,15.54,-3.22
35259.0,-8.672,-1.007,-4.64,-8.562,-0.637,-4.614,4.97,14.77,1.47
,-8.827,-1.036,-4.63,-8.512,0.115,-4.922,4.06,14.98,2.45
,-8.792,-1.074,-4.633,-8.856,0.739,-4.915,4.06,14.49,2.8
,-8.526,-1.213,-4.824,-8.691,1.125,-5.032,4.2,13.86,3.01
35334.0,-8.658,0.828,-4.886,-8.629,-1.285,-4.714,9.45,13.93,-0.56
,-8.504,0.493,-4.901,-8.904,-1.603,-4.972,7.0,14.42,-0.56
,-8.595,0.038,-4.922,-8.973,-1.474,-5.372,5.81,13.09,-1.19
,-8.509,-0.469,-5.001,-8.519,-1.752,-5.358,6.79,12.67,-1.26
35409.0,-8.48,-1.266,-5.441,-8.579,-0.297,-5.564,22.54,10.08,2.87
,-8.516,-0.495,-5.571,-8.567,-0.675,-5.408,24.64,8.82,2.59
,-8.488,-0.065,-5.75,-8.533,-0.761,-5.305,24.43,7.77,1.82
,-8.366,0.041,-5.829,-8.617,-0.979,-5.106,21.42,7.7,1.05
35484.0,-8.741,-0.849,-4.91,-8.897,1.206,-5.257,18.34,4.76,2.1
,-8.622,-0.244,-5.095,-8.665,1.488,-5.425,21.0,4.48,1.54
,-8.777,0.151,-5.118,-8.325,1.278,-5.439,23.03,4.55,0.77
,-9.045,0.648,-5.109,-8.279,0.723,-5.396,24.71,3.22,-1.12
35559.0,-8.248,-0.074,-5.398,-8.469,-1.096,-5.367,11.2,-0.7,-6.79
,-8.579,-0.682,-5.157,-8.332,-1.055,-5.537,11.27,-0.21,-6.3
,-8.643,-1.12,-5.13,-8.263,-1.115,-5.599,13.02,-0.56,-6.02
,-8.815,-1.086,-5.195,-8.43,-1.22,-5.729,15.26,-1.89,-6.23
35634.0,-8.531,-1.187,-5.841,-8.722,-2.737,-4.702,17.36,-2.59,-5.32
,-8.334,-1.56,-5.81,-9.057,-2.424,-4.573,16.87,-3.08,-3.36
,-8.1,-2.096,-5.707,-9.103,-1.874,-4.704,16.52,-2.38,-0.07
,-8.323,-2.852,-4.946,-8.938,-1.424,-4.367,16.1,-0.7,4.2
35709.0,-8.543,-0.658,-4.367,-8.882,-0.196,-5.169,22.05,-0.91,10.92
,-8.047,-0.093,-4.728,-8.562,-0.364,-5.166,19.32,-1.05,9.45
,-8.464,0.086,-4.941,-8.337,-0.672,-5.154,15.61,-0.84,8.12
,-8.952,0.05,-4.989,-8.48,-0.409,-5.363,11.34,-0.91,7.56
35784.0,-8.868,-0.227,-5.202,-8.643,-0.297,-4.764,12.81,0.77,5.25
,-8.875,0.093,-5.123,-8.581,-0.431,-4.805,13.3,0.63,4.9
,-8.897,0.069,-5.008,-8.416,-0.56,-4.716,10.85,1.26,4.76
,-8.839,0.038,-4.999,-8.337,-0.402,-4.98,8.33,0.7,4.34
35859.0,-8.581,-0.488,-5.075,-8.768,-0.433,-5.331,4.9,2.52,1.05
,-8.772,-0.531,-5.224,-8.923,-0.615,-5.185,4.2,2.03,0.84
,-8.526,-0.603,-5.152,-8.77,-0.895,-4.994,4.69,2.03,1.05
,-8.583,-0.732,-5.238,-8.607,-1.149,-4.927,5.74,2.17,0.7
35934.0,-8.684,-1.311,-4.836,-8.806,-1.058,-5.018,4.83,1.05,0.14
,-8.282,-1.251,-4.975,-8.679,-1.285,-4.956,6.58,0.77,0.0
,-8.256,-1.041,-5.183,-8.464,-1.469,-4.776,7.0,1.26,-0.28
,-8.703,-0.998,-5.197,-8.165,-1.517,-4.642,5.95,0.98,-0.84
36009.0,-8.306,-1.381,-4.645,-8.557,-0.723,-4.92,6.16,1.12,0.07
,-8.813,-0.976,-4.671,-8.667,-0.883,-4.812,7.56,2.45,0.07
,-8.854,-0.617,-4.891,-8.674,-1.122,-4.7,7.84,2.31,-0.14
,-8.681,-0.622,-4.977,-8.492,-1.113,-4.767,6.79,2.38,-0.28
36084.0,-8.387,-0.861,-4.867,-8.603,-0.902,-4.889,3.5,1.47,0.49
,-8.624,-0.814,-4.889,-8.681,-0.849,-5.037,3.08,1.68,0.56
,-8.646,-0.806,-4.903,-8.744,-0.895,-5.037,2.17,1.26,0.63
,-8.547,-0.89,-4.783,-8.588,-0.849,-4.987,1.96,1.89,1.12
36159.0,-8.531,-0.696,-5.162,-8.488,-1.285,-4.862,1.68,3.29,1.33
,-8.55,-0.663,-5.075,-8.461,-0.84,-5.047,0.14,3.36,1.47
,-8.516,-1.139,-4.805,-8.543,-0.646,-5.085,-1.68,3.92,2.03
,-8.533,-1.383,-4.733,-8.658,-0.773,-4.757,-1.4,4.2,2.24
36234.0,-8.674,-0.72,-4.798,-8.696,-0.191,-5.461,-6.65,5.46,2.38
,-8.679,-0.462,-5.083,-8.689,-0.459,-5.336,-8.75,5.6,2.66
,-8.684,-0.45,-5.135,-8.626,-0.579,-5.185,-11.2,5.95,3.15
,-8.638,-0.333,-5.346,-8.679,-0.596,-4.941,-12.46,5.88,3.43
36309.0,-8.488,-0.677,-4.992,-8.614,-0.869,-5.274,-20.37,5.11,3.99
,-8.512,-0.696,-5.047,-8.502,-1.129,-5.102,-19.67,5.74,4.41
,-8.835,-0.641,-5.018,-8.624,-1.165,-4.898,-18.27,5.32,4.62
,-8.842,-0.701,-5.257,-8.48,-0.998,-5.104,-18.76,4.13,5.04
36384.0,-8.342,-0.771,-5.463,-8.562,-0.593,-5.642,-15.05,2.24,7.77
,-8.49,-0.543,-5.688,-8.607,-0.651,-5.556,-14.49,2.03,8.19
,-8.54,-0.474,-5.784,-8.571,-0.694,-5.64,-14.42,1.4,8.12
,-8.5,-0.469,-5.798,-8.614,-0.952,-5.552,-13.86,1.82,8.12
36459.0,-8.796,-0.768,-5.707,-8.918,-0.29,-5.389,-10.5,-2.24,8.4
,-8.746,-0.706,-5.568,-8.55,-0.007,-5.674,-7.14,-4.27,7.21
,-8.567,-0.522,-5.566,-8.217,-0.055,-5.614,-4.55,-4.62,6.3
,-8.67,-0.44,-5.379,-8.203,-0.065,-5.446,-3.57,-4.48,5.67
36534.0,-8.318,-0.043,-5.341,-8.559,0.225,-5.236,-3.92,-6.23,2.31
,-8.6,-0.184,-5.123,-8.296,0.098,-4.941,-3.36,-6.09,1.82
,-8.705,-0.091,-5.252,-8.559,-0.156,-4.75,-2.17,-7.21,1.68
,-8.904,0.041,-5.178,-8.696,-0.103,-4.664,-1.33,-9.73,0.98
36609.0,-8.646,0.115,-4.805,-8.557,-0.127,-4.614,0.98,-12.25,-1.33
,-8.677,0.304,-4.745,-8.827,-0.258,-4.424,0.7,-11.69,-1.47
,-8.646,0.237,-4.599,-8.842,-0.005,-4.319,-1.82,-11.55,-1.75
,-8.397,0.06,-4.618,-8.777,-0.261,-4.137,-4.34,-11.27,-1.89
36684.0,-8.815,-0.395,-3.996,-8.492,0.077,-4.508,-2.73,-9.8,-1.89
,-8.861,-0.067,-4.176,-8.332,-0.184,-4.46,-1.12,-9.31,-1.61
,-8.873,-0.134,-4.283,-8.559,-0.507,-4.413,-0.91,-9.38,-1.75
,-8.887,0.101,-4.499,-8.835,-0.838,-4.377,-1.75,-10.92,-2.59
36759.0,-8.737,-0.852,-4.408,-8.732,-0.541,-4.298,-1.89,-8.33,-1.54
,-8.739,-0.885,-4.424,-8.801,-0.28,-4.403,-0.28,-8.19,-0.63
,-8.878,-0.873,-4.482,-8.871,-0.12,-4.374,0.98,-8.4,0.28
,-8.818,-0.641,-4.48,-8.942,-0.012,-4.422,2.1,-8.68,0.98
36834.0,-9.009,0.175,-4.31,-8.971,0.081,-4.25,0.35,-8.68,1.54
,-8.756,0.424,-4.549,-8.933,0.206,-4.324,-1.47,-9.87,0.35
,-8.409,0.316,-4.532,-8.868,0.285,-4.436,-2.45,-9.24,-0.56
,-8.588,0.098,-4.322,-8.839,0.191,-4.223,-2.38,-7.7,-1.12
36909.0,-8.832,-0.072,-4.166,-8.873,0.402,-4.322,-1.96,-6.72,-1.33
,-8.983,-0.096,-3.953,-9.019,-0.103,-4.286,1.05,-5.18,-0.98
,-9.21,0.16,-4.092,-8.902,-0.529,-4.099,3.01,-5.32,-1.26
,-9.378,0.505,-4.259,-8.591,-0.986,-3.874,0.77,-7.0,-2.38
36984.0,-8.729,-1.01,-3.857,-8.859,-0.019,-4.247,-5.67,-7.49,-4.2
,-9.174,-0.725,-3.735,-8.847,0.019,-4.183,-1.4,-7.14,-3.29
,-9.052,-0.335,-3.948,-8.844,-0.072,-4.058,0.0,-7.56,-2.94
,-8.959,-0.148,-4.063,-9.055,-0.043,-3.802,-0.35,-7.84,-2.38
37059.0,-9.296,-0.062,-3.977,-9.024,-0.378,-3.556,-0.28,-6.72,-2.66
,-9.179,-0.105,-4.027,-8.938,-0.4,-3.518,-1.05,-7.21,-2.8
,-9.182,-0.199,-3.991,-9.081,-0.304,-3.604,-2.38,-7.21,-3.01
,-9.007,-0.287,-3.735,-9.079,-0.168,-3.707,-3.85,-6.86,-3.5
37134.0,-8.942,-0.237,-3.728,-9.127,0.182,-4.365,-1.05,-5.18,-2.31
,-9.002,-0.299,-3.738,-9.052,0.007,-4.149,1.4,-4.48,-1.33
,-9.028,-0.038,-3.948,-9.052,-0.225,-4.274,4.62,-4.06,-0.49
,-9.062,0.292,-3.953,-8.926,-0.39,-3.884,5.18,-4.13,0.14
37209.0,-9.184,-0.546,-3.733,-8.985,-0.668,-3.53,-1.12,-6.09,-2.8
,-9.361,-0.493,-3.97,-8.964,-0.57,-3.644,-1.75,-6.79,-4.34
,-9.203,-0.328,-3.833,-9.122,-0.428,-3.757,-3.29,-7.56,-4.76
,-8.88,-0.316,-3.719,-9.127,-0.246,-3.417,-4.69,-7.14,-4.76
37284.0,-9.146,-0.345,-3.601,-9.048,-0.055,-3.92,5.6,-4.55,-0.84
,-9.213,-0.256,-3.484,-8.966,-0.203,-3.953,8.26,-4.06,-0.07
,-9.277,-0.165,-3.922,-9.072,-0.376,-3.664,9.66,-4.13,-0.07
,-9.107,-0.043,-3.831,-9.179,-0.438,-3.862,9.24,-4.48,-0.07
37359.0,-9.189,-0.651,-3.537,-9.052,-0.251,-4.243,9.52,-4.34,0.49
,-9.215,-0.605,-3.288,-9.016,-0.299,-3.963,10.64,-3.99,1.05
,-9.34,-0.486,-3.647,-8.94,-0.282,-3.788,11.13,-4.06,0.63
,-9.287,-0.275,-4.159,-9.05,-0.146,-3.556,11.76,-4.76,0.28
37434.0,-9.28,-0.237,-3.266,-9.055,-0.692,-3.4,9.87,-4.9,-0.49
,-9.416,-0.11,-3.374,-9.119,-0.668,-3.594,11.06,-4.41,-0.49
,-9.311,-0.306,-3.604,-9.174,-0.505,-3.747,8.05,-4.55,-0.63
,-9.122,-0.658,-3.391,-9.191,-0.287,-3.687,5.39,-4.34,-0.49
37509.0,-9.222,-0.163,-3.613,-9.208,-0.455,-3.592,6.23,-3.36,0.42
,-9.263,-0.318,-3.427,-9.081,-0.182,-3.654,4.76,-3.29,0.56
,-9.34,-0.464,-3.424,-9.103,-0.378,-3.711,4.27,-3.22,0.77
,-9.383,-0.591,-3.558,-9.095,-0.744,-3.52,5.11,-3.22,1.26
37584.0,-9.189,-0.864,-3.319,-9.33,-0.44,-2.994,6.72,-2.1,1.89
,-9.265,-0.725,-3.185,-9.316,-0.462,-3.35,8.82,-1.68,2.31
,-9.32,-0.369,-3.02,-9.347,-0.541,-3.597,9.94,-1.05,2.52
,-9.354,-0.28,-3.032,-9.34,-0.397,-3.936,7.98,-0.56,2.03
37659.0,-9.256,-0.38,-4.152,-9.275,-0.345,-3.721,3.01,-1.26,1.33
,-9.06,-0.369,-4.13,-9.304,-0.268,-3.57,2.31,-2.03,1.33
,-8.961,-0.426,-3.831,-9.306,-0.311,-3.477,2.17,-2.31,1.4
,-9.079,-0.421,-3.68,-9.261,-0.464,-3.601,3.01,-2.31,1.26
37734.0,-9.232,-0.754,-3.539,-9.261,-0.275,-3.206,1.89,-3.15,-0.14
,-9.165,-0.78,-3.424,-9.27,-0.215,-2.95,4.62,-3.08,0.35
,-9.131,-0.704,-3.3,-9.299,-0.325,-2.785,6.51,-2.59,0.91
,-9.191,-0.581,-3.29,-9.39,-0.397,-2.804,7.35,-2.1,1.05
37809.0,-9.45,-0.404,-3.037,-9.311,-0.476,-3.273,3.22,0.56,0.21
,-9.474,-0.412,-2.965,-9.32,-0.364,-3.439,-1.75,0.98,0.28
,-9.395,-0.574,-2.843,-9.325,-0.297,-3.513,-2.03,1.4,0.42
,-9.308,-0.45,-3.08,-9.32,-0.412,-3.618,0.0,1.61,0.49
37884.0,-9.284,-0.529,-3.716,-9.268,-0.215,-3.81,-1.12,1.82,0.63
,-9.083,-0.526,-3.723,-9.241,-0.254,-3.687,0.21,1.68,0.91
,-9.177,-0.471,-3.738,-9.246,-0.325,-3.654,1.75,1.89,1.19
