Timestamp,AccX,AccY,AccZ,GyroX,GyroY,GyroZ,MagnX,MagnY,MagnZ
0.0,-9.749,-1.342,-1.508,-9.698,-1.201,-1.668,14.0,4.9,-0.98
,-9.703,-1.259,-1.563,-9.691,-1.266,-1.567,14.21,5.18,-1.05
,-9.825,-1.07,-1.634,-9.689,-1.354,-1.586,14.49,5.25,-1.19
,-9.686,-0.988,-1.754,-9.78,-1.163,-1.591,13.65,5.74,-0.98
75.0,-9.655,-1.055,-1.637,-9.746,-1.137,-1.895,13.09,6.3,-0.14
,-9.789,-0.96,-1.622,-9.71,-1.287,-1.788,12.46,6.09,-0.35
,-9.641,-1.067,-1.821,-9.708,-1.287,-1.797,11.2,5.88,-0.28
,-9.701,-1.117,-1.749,-9.71,-1.314,-1.835,10.99,5.95,-0.28
151.0,-9.694,-1.149,-1.809,-9.5,-1.007,-2.046,10.22,6.3,0.21
,-9.787,-1.103,-1.802,-9.677,-0.845,-2.077,9.52,6.23,0.35
,-9.682,-1.144,-1.874,-9.698,-0.983,-2.084,8.75,6.02,0.49
,-9.643,-1.149,-1.924,-9.801,-0.995,-2.113,8.05,6.09,0.7
227.0,-9.753,-0.979,-2.223,-9.72,-1.385,-2.163,6.44,5.6,-0.49
,-9.713,-0.952,-2.156,-9.572,-1.359,-2.201,5.39,5.32,-0.28
,-9.646,-1.048,-2.173,-9.663,-1.378,-2.082,3.78,5.11,-0.14
,-9.78,-1.23,-2.046,-9.749,-1.555,-2.096,2.45,4.34,-0.56
302.0,-9.797,-1.577,-1.945,-9.761,-1.07,-2.06,1.33,2.45,0.42
,-9.847,-1.457,-1.948,-9.622,-1.027,-2.053,2.59,2.17,0.42
,-9.708,-1.225,-2.036,-9.684,-0.871,-1.914,3.15,1.54,0.42
,-9.71,-1.132,-1.945,-9.701,-0.893,-1.835,2.52,1.54,0.77
378.0,-9.801,-0.938,-1.594,-9.804,-1.187,-1.421,-0.7,0.21,0.21
,-9.813,-1.022,-1.385,-9.686,-1.266,-1.699,-1.75,0.28,0.35
,-9.835,-1.055,-1.29,-9.452,-0.94,-1.819,-2.52,0.35,0.49
,-9.919,-1.041,-1.388,-9.507,-0.768,-1.756,-2.73,0.21,0.7
453.0,-9.742,-0.558,-1.847,-9.61,-1.17,-1.426,-2.17,0.28,0.7
,-9.868,-0.56,-1.663,-9.608,-1.704,-1.493,-4.55,-0.42,0.14
,-9.742,-0.605,-1.524,-9.718,-1.943,-1.575,-7.07,-1.4,-0.35
,-9.761,-0.687,-1.455,-9.708,-1.938,-1.668,-9.66,-1.75,-0.91
529.0,-9.579,-1.864,-1.601,-10.079,-1.223,-1.807,-6.16,-0.28,1.89
,-9.572,-1.656,-1.668,-9.629,-1.039,-2.13,-4.55,0.77,2.66
,-9.579,-1.589,-1.586,-9.507,-0.955,-2.321,-3.92,2.38,3.22
,-10.065,-1.35,-1.419,-9.371,-0.833,-2.496,-3.92,2.8,3.29
605.0,-9.433,-1.053,-2.312,-9.524,-1.352,-1.668,1.19,-5.11,3.57
,-9.452,-1.271,-2.108,-9.66,-1.089,-1.555,2.52,-3.85,3.99
,-9.215,-1.476,-2.053,-9.887,-0.773,-1.665,3.85,-2.73,4.34
,-9.361,-1.455,-1.78,-9.742,-0.215,-1.484,4.83,-1.4,4.76
681.0,-9.742,-0.194,-1.364,-9.615,-1.084,-1.811,3.08,4.34,4.62
,-10.077,-0.503,-1.292,-9.6,-1.096,-1.96,0.42,5.74,3.22
,-9.986,-0.665,-1.522,-9.885,-0.644,-1.962,-1.33,4.62,1.96
,-9.478,-1.003,-1.67,-9.962,-0.369,-2.067,-2.1,3.85,1.75
757.0,-9.749,-0.278,-2.056,-9.785,-1.878,-1.84,0.14,3.57,-0.07
,-9.976,-0.467,-1.835,-9.777,-1.199,-2.213,-3.5,2.38,-0.77
,-9.732,-1.462,-1.656,-9.708,-0.534,-2.362,-7.14,0.28,-0.98
,-9.612,-2.087,-1.551,-9.732,-0.115,-2.252,-6.3,-1.4,-0.42
832.0,-9.6,-0.108,-2.235,-9.38,-0.505,-2.469,-0.07,-0.84,-0.91
,-9.651,-0.38,-2.347,-9.718,-0.804,-2.111,-1.75,-0.91,-1.68
,-9.765,-0.302,-2.371,-9.574,-1.335,-1.993,-1.89,-1.12,-2.59
,-9.55,-0.249,-2.613,-9.737,-1.582,-1.732,-2.1,-1.4,-3.36
908.0,-9.861,-1.642,-1.644,-9.526,-1.409,-1.747,-2.03,2.59,-1.26
,-9.765,-1.567,-1.831,-9.6,-1.531,-1.519,-1.4,1.96,-0.49
,-9.758,-1.462,-1.74,-9.782,-1.433,-1.627,-1.19,1.54,-0.35
,-10.033,-1.292,-1.692,-9.679,-1.225,-1.575,-1.12,-0.35,-1.12
984.0,-10.371,-0.668,-1.586,-9.899,-1.73,-1.074,7.07,-1.89,-1.75
,-9.557,-0.471,-1.79,-9.835,-1.661,-1.354,2.73,-2.17,-1.61
,-9.576,-1.405,-0.938,-9.825,-1.689,-1.512,-2.17,-1.89,-1.19
,-9.464,-1.646,-1.106,-9.794,-1.271,-1.653,0.21,-1.68,-0.35
1060.0,-9.646,-0.909,-1.776,-9.799,-0.383,-1.407,6.37,-4.55,0.07
,-9.663,-0.577,-1.85,-9.725,-0.586,-1.292,5.74,-4.69,-0.49
,-9.718,-0.397,-1.732,-9.636,-0.881,-1.486,3.5,-4.97,-1.26
,-9.691,-0.479,-1.541,-9.653,-1.137,-1.725,0.42,-4.62,-2.03
1135.0,-9.777,-0.981,-1.95,-9.667,-1.352,-2.414,-0.07,-4.41,-3.08
,-10.01,-0.876,-2.173,-9.763,-1.732,-2.249,0.63,-4.76,-3.01
,-9.909,-0.914,-2.197,-9.931,-1.862,-2.039,0.07,-4.62,-2.87
,-9.77,-1.23,-2.199,-9.993,-1.996,-1.941,-0.35,-4.34,-2.87
1211.0,-9.44,-2.158,-1.969,-9.859,-2.216,-1.747,-1.68,-3.5,-3.22
,-9.684,-1.823,-2.371,-9.722,-1.866,-1.886,-1.19,-4.13,-4.9
,-9.84,-1.95,-2.139,-9.933,-1.469,-2.089,0.07,-3.15,-3.01
,-9.689,-2.319,-1.771,-9.569,-1.385,-1.898,-0.35,-2.94,-0.91
1286.0,-9.696,-1.113,-1.826,-9.744,-1.048,-1.414,3.22,-3.99,1.54
,-9.758,-1.086,-1.598,-9.655,-0.914,-1.405,2.94,-3.64,1.75
,-9.756,-0.926,-1.828,-9.713,-1.05,-1.261,3.71,-3.5,1.96
,-9.026,-1.419,-1.079,-9.557,-1.338,-1.139,2.03,-3.85,1.68
1362.0,-9.665,-1.448,-1.094,-9.703,-1.117,-1.086,0.84,-4.83,1.12
,-9.665,-1.266,-1.314,-9.73,-1.108,-1.024,1.82,-5.04,1.12
,-9.773,-1.003,-1.431,-10.321,-1.28,-0.794,1.54,-5.11,1.05
,-9.782,-1.041,-1.285,-9.655,-0.991,-1.031,0.42,-5.04,0.63
1438.0,-9.603,-0.675,-1.208,-9.67,-0.701,-0.589,-1.54,-5.88,-0.42
,-9.519,-0.567,-1.175,-9.689,-0.936,-0.718,-2.24,-6.09,-1.26
,-9.684,-0.309,-1.23,-9.359,-1.161,-0.617,-1.54,-5.95,-1.96
,-10.151,-0.541,-0.586,-9.663,-1.019,-0.768,-5.53,-5.6,-2.87
1514.0,-9.679,-0.857,-0.881,-9.679,-1.065,-0.699,-5.04,-5.53,-3.78
,-9.619,-0.859,-0.792,-9.61,-0.967,-0.89,-5.11,-5.6,-4.34
,-9.675,-0.84,-0.79,-9.593,-1.132,-0.797,-5.95,-5.81,-4.9
,-9.993,-0.957,-0.696,-9.746,-1.23,-0.866,-6.37,-5.88,-5.39
1589.0,-9.722,-1.39,-0.794,-9.596,-2.072,-1.053,-4.97,-6.16,-5.6
,-9.713,-1.596,-0.823,-9.734,-2.125,-1.048,-4.76,-6.37,-5.46
,-9.916,-1.673,-0.955,-9.643,-2.335,-1.005,-3.5,-6.79,-4.97
,-9.505,-1.953,-1.007,-9.746,-2.479,-1.065,-3.01,-6.65,-4.27
1665.0,-9.667,-2.513,-0.775,-9.591,-1.744,-1.184,1.89,-6.09,-1.33
,-9.624,-2.245,-0.912,-9.82,-1.412,-1.328,4.06,-6.23,-0.42
,-9.615,-2.199,-0.924,-9.77,-1.443,-1.194,4.97,-6.44,0.14
,-9.596,-2.307,-0.909,-9.911,-1.139,-1.613,5.81,-6.86,0.28
1740.0,-9.99,-1.084,-1.326,-9.792,-1.304,-1.199,8.96,-7.63,0.63
,-9.887,-0.976,-1.366,-9.806,-1.476,-1.084,9.24,-7.56,0.7
,-9.818,-1.041,-1.295,-9.818,-1.479,-1.036,8.54,-7.28,0.77
,-9.773,-1.297,-1.314,-9.73,-1.591,-1.156,7.98,-7.0,0.98
1816.0,-9.832,-1.63,-0.727,-10.002,-1.184,-0.701,8.12,-6.86,2.45
,-9.698,-1.608,-0.897,-9.751,-1.168,-1.0,8.47,-6.65,2.45
,-10.084,-1.244,-0.938,-10.474,-0.912,-1.017,9.03,-6.58,2.38
,-9.785,-1.149,-0.921,-9.742,-1.211,-0.859,8.75,-6.65,2.1
1892.0,-9.744,-1.117,-0.883,-9.976,-0.967,-0.931,5.25,-6.16,1.54
,-9.529,-1.072,-0.816,-10.12,-1.127,-0.993,5.11,-5.95,1.05
,-9.854,-0.84,-1.0,-9.775,-1.522,-0.933,4.97,-5.67,0.91
,-9.883,-0.866,-1.003,-10.041,-1.445,-0.95,4.62,-5.39,0.84
1968.0,-9.832,-1.548,-0.849,-10.11,-1.711,-0.452,3.22,-5.95,0.07
,-9.909,-1.519,-0.955,-9.959,-1.639,-0.706,3.29,-5.74,-0.14
,-10.024,-1.747,-0.782,-9.954,-1.598,-0.794,3.5,-5.18,-0.21
,-9.926,-1.855,-0.665,-9.962,-1.701,-0.876,3.92,-4.69,-0.7
2044.0,-9.864,-1.778,-0.761,-9.854,-1.491,-0.555,2.59,-5.25,0.98
,-9.835,-1.608,-1.127,-9.84,-1.18,-0.639,4.06,-5.46,1.47
,-9.756,-1.768,-0.737,-10.971,-1.405,-1.17,3.78,-5.11,1.96
,-9.902,-1.701,-0.61,-9.82,-1.407,-0.481,3.57,-5.11,2.03
2119.0,-9.799,-1.589,-0.232,-9.648,-1.481,-0.16,6.16,-4.34,2.73
,-9.773,-1.625,-0.182,-9.773,-1.278,-0.249,6.37,-3.99,3.01
,-9.686,-1.687,-0.225,-9.921,-1.187,-0.395,7.35,-3.78,2.87
,-9.55,-1.809,0.031,-9.897,-1.113,-0.39,7.91,-3.29,2.8
2195.0,-9.938,-1.096,-0.33,-9.751,-1.618,-0.148,9.45,-2.38,3.78
,-9.986,-1.216,-0.27,-9.758,-1.546,-0.318,9.31,-2.1,3.43
,-9.837,-1.455,-0.254,-9.935,-1.244,-0.447,8.96,-1.96,3.22
,-9.689,-1.606,-0.206,-10.081,-1.196,-0.371,8.96,-1.4,3.08
2271.0,-9.978,-1.144,-0.495,-9.811,-1.285,-0.388,9.24,0.77,2.03
,-9.947,-1.074,-0.529,-9.907,-1.357,-0.306,8.54,1.19,1.82
,-9.887,-1.089,-0.519,-10.002,-1.254,-0.347,7.84,1.61,1.75
,-9.82,-1.17,-0.503,-9.94,-1.151,-0.433,7.21,2.1,1.54
2347.0,-10.017,-1.043,-0.546,-9.885,-1.266,-0.73,4.69,4.69,1.12
,-10.033,-0.974,-0.567,-9.682,-1.311,-0.768,4.13,4.76,0.91
,-10.081,-1.017,-0.584,-9.658,-1.309,-0.744,3.36,4.83,0.7
,-9.995,-1.082,-0.665,-9.777,-1.256,-0.648,2.66,5.11,0.49
2422.0,-9.797,-1.302,-0.5,-9.643,-1.309,-0.507,2.45,8.96,-1.47
,-9.933,-1.299,-0.507,-9.744,-1.448,-0.361,2.38,10.01,-1.96
,-9.916,-1.165,-0.56,-10.029,-1.565,-0.407,2.1,10.43,-2.52
,-9.77,-1.005,-0.658,-10.098,-1.747,-0.445,1.96,10.85,-2.94
2498.0,-10.086,-1.572,-0.62,-9.887,-1.503,-0.811,1.26,13.58,-3.08
,-9.969,-1.63,-0.656,-9.89,-1.374,-0.804,1.05,14.07,-3.15
,-9.887,-1.598,-0.751,-9.935,-1.196,-0.79,1.33,14.49,-3.08
,-9.825,-1.563,-0.751,-9.993,-1.015,-0.95,1.4,14.91,-2.8
2573.0,-9.928,-0.95,-1.003,-9.72,-1.091,-0.847,-0.77,16.66,-2.8
,-9.935,-0.988,-0.952,-9.787,-1.153,-0.823,-1.4,17.01,-2.73
,-9.825,-1.089,-0.847,-9.828,-1.216,-0.902,-1.89,17.5,-2.66
,-9.895,-0.988,-0.924,-9.813,-1.469,-0.948,-2.31,17.57,-2.66
2649.0,-9.785,-1.505,-1.0,-9.804,-2.053,-1.24,-2.1,19.32,-1.68
,-9.816,-1.606,-1.043,-9.742,-2.209,-1.122,-2.17,19.74,-1.4
,-9.677,-1.989,-0.945,-9.643,-2.063,-1.33,-2.17,19.95,-0.98
,-10.089,-2.316,-0.866,-9.667,-2.063,-1.302,-3.36,20.16,-0.84
2725.0,-9.612,-1.84,-1.275,-9.787,-1.412,-1.452,2.52,22.05,1.05
,-9.651,-1.792,-1.175,-9.775,-1.323,-1.591,2.8,22.75,1.33
,-9.787,-1.773,-1.084,-9.708,-1.484,-1.34,1.82,22.82,1.33
,-9.923,-1.57,-1.24,-9.665,-1.307,-1.496,2.59,22.82,1.47
2801.0,-9.725,-1.299,-1.443,-9.818,-1.086,-1.826,5.46,23.52,1.61
,-9.849,-1.242,-1.56,-9.756,-1.211,-1.977,6.37,23.38,1.54
,-9.782,-1.228,-1.579,-9.73,-1.414,-1.819,6.79,23.38,1.26
,-9.816,-1.146,-1.582,-9.722,-1.314,-1.919,6.93,23.45,1.19
2877.0,-9.691,-1.29,-1.965,-9.811,-1.732,-2.02,7.56,21.98,0.91
,-9.744,-1.333,-2.022,-9.689,-1.598,-2.292,7.49,22.05,0.77
,-9.77,-1.496,-1.847,-9.696,-1.493,-2.589,6.86,21.7,0.42
,-9.801,-2.297,-1.536,-9.497,-1.756,-2.292,1.19,21.63,1.68
2952.0,-9.6,-1.625,-2.345,-9.608,-1.732,-2.419,7.63,21.28,0.14
,-9.454,-1.515,-2.592,-9.66,-1.847,-2.374,7.77,21.07,0.07
,-9.682,-1.835,-2.201,-9.579,-1.814,-2.551,7.07,21.0,-0.28
,-9.61,-1.855,-2.319,-9.627,-1.699,-2.52,8.05,20.93,-0.21
3028.0,-9.605,-1.531,-2.493,-9.533,-1.326,-2.173,10.29,20.58,0.49
,-9.411,-1.366,-2.726,-9.584,-1.287,-2.324,13.44,20.65,0.56
,-9.447,-1.213,-2.728,-9.38,-0.792,-2.793,11.27,20.79,0.42
,-9.533,-1.421,-2.185,-9.409,-1.259,-2.225,8.54,21.0,0.28
3104.0,-9.366,-1.139,-2.247,-5.236,4.171,-10.44,7.07,20.93,-0.49
,-9.344,-1.156,-2.19,-10.754,0.438,-3.836,7.91,21.14,-0.84
,-9.342,-1.113,-2.223,-9.313,-2.175,-1.024,7.98,21.63,-1.05
,-35.544,-1.79,-11.469,-9.576,-1.4,-2.178,18.55,-3.57,-5.11
3180.0,-9.27,-0.933,-2.74,-9.507,-1.388,-2.575,7.63,12.25,-3.15
,-9.332,-1.618,-2.484,-9.584,-1.304,-2.603,5.18,11.83,-3.64
,-9.505,-1.711,-2.52,-9.512,-1.342,-2.84,5.88,12.18,-3.85
,-9.356,-1.546,-2.436,-9.495,-1.481,-2.718,7.21,12.6,-3.78
3255.0,-9.361,-1.706,-2.802,-9.359,-1.977,-2.489,6.79,9.45,-4.62
,-9.426,-1.933,-2.673,-9.497,-2.07,-2.381,6.65,9.24,-4.76
,-9.476,-2.032,-2.28,-9.351,-1.792,-3.199,5.88,9.45,-4.76
,-9.416,-1.95,-2.467,-9.268,-1.78,-3.137,5.74,9.45,-4.2
3331.0,-9.38,-1.563,-3.149,-9.627,-1.838,-2.563,7.56,5.67,-2.38
,-9.418,-1.78,-2.84,-9.78,-1.706,-2.797,6.23,5.88,-2.66
,-9.507,-1.907,-2.632,-9.428,-1.728,-2.917,6.51,5.39,-2.59
,-9.392,-2.027,-2.592,-9.572,-1.699,-2.816,7.56,4.41,-2.17
3406.0,-9.488,-1.575,-3.039,-9.086,-1.941,-2.843,8.4,-3.29,0.07
,-9.543,-1.699,-2.996,-9.512,-1.883,-2.498,7.7,-4.9,0.07
,-9.462,-1.689,-2.965,-9.543,-1.814,-2.553,7.49,-6.44,-0.21
,-9.502,-1.725,-2.905,-9.665,-1.711,-2.316,7.21,-8.4,-0.56
3482.0,-10.206,-1.57,-2.776,-9.323,-2.041,-2.29,7.14,-12.39,-0.28
,-9.631,-2.048,-2.58,-9.497,-1.991,-1.953,3.57,-15.75,0.14
,-8.94,-1.776,-2.642,-10.122,-1.661,-2.199,6.86,-15.26,1.47
,-9.093,-1.835,-2.357,-9.562,-1.644,-2.62,7.14,-13.02,1.82
3558.0,-9.174,-1.697,-2.51,-9.06,-1.795,-1.869,14.84,-16.03,1.68
,-9.344,-1.634,-2.386,-9.32,-1.78,-1.706,14.98,-14.21,1.61
,-9.789,-1.529,-2.228,-9.459,-1.809,-1.663,14.84,-13.79,1.4
,-9.347,-1.653,-2.46,-10.263,-1.685,-1.941,15.61,-14.56,1.54
3634.0,-9.902,-1.519,-2.58,-9.402,-1.737,-1.701,20.16,-16.8,0.77
,-8.82,-1.424,-2.675,-9.797,-2.024,-1.661,18.9,-16.31,1.4
,-8.792,-1.335,-2.034,-9.892,-1.919,-1.943,15.54,-11.69,1.05
,-8.957,-1.441,-1.886,-9.459,-1.917,-1.919,12.11,-6.09,0.21
3709.0,-9.225,-1.974,-1.627,-9.426,-1.922,-1.388,7.63,-4.27,0.07
,-9.265,-2.091,-1.677,-9.682,-1.881,-1.5,6.79,-3.22,0.07
,-9.256,-2.041,-1.613,-9.751,-1.984,-1.407,7.42,-1.96,0.0
,-9.196,-1.859,-1.417,-9.596,-1.852,-1.393,7.21,-0.42,-0.28
3785.0,-9.519,-1.91,-1.405,-9.567,-1.735,-1.608,7.56,1.89,1.54
,-9.325,-1.895,-1.381,-9.584,-1.754,-1.723,8.33,2.94,1.68
,-9.478,-1.809,-1.237,-9.574,-1.893,-1.811,8.75,3.85,1.33
,-9.737,-1.74,-1.443,-9.378,-1.977,-2.036,9.24,3.5,1.19
3861.0,-9.318,-1.907,-1.931,-9.665,-1.479,-1.778,9.17,3.99,1.68
,-9.399,-1.852,-1.804,-9.756,-1.464,-2.041,9.31,5.04,1.26
,-9.598,-1.749,-1.742,-9.651,-1.575,-2.259,9.31,5.67,0.77
,-9.631,-1.601,-1.823,-9.529,-1.651,-2.472,8.82,5.81,0.77
3937.0,-9.378,-1.773,-2.474,-9.737,-2.022,-2.29,-0.42,2.52,0.56
,-9.361,-1.845,-2.455,-9.615,-1.926,-2.237,-1.33,2.87,0.21
,-9.407,-1.922,-2.276,-9.502,-1.948,-2.178,-1.54,3.57,0.0
,-9.608,-1.984,-2.206,-9.452,-2.01,-2.151,-1.05,3.64,-0.14
4013.0,-9.541,-2.027,-2.108,-9.598,-1.881,-1.996,3.01,2.24,0.84
,-9.411,-1.981,-2.106,-9.572,-1.893,-2.058,3.85,2.1,0.7
,-9.521,-1.907,-2.005,-9.474,-1.847,-1.986,4.34,2.31,0.7
,-9.555,-1.948,-2.01,-9.557,-1.773,-2.091,4.48,2.1,0.84
4088.0,-9.564,-1.735,-2.166,-9.526,-1.957,-2.178,5.25,1.68,0.35
,-9.598,-1.792,-2.218,-9.493,-1.852,-2.113,4.41,1.61,0.49
,-9.466,-1.874,-2.182,-9.6,-1.864,-2.022,3.5,1.47,0.56
,-9.543,-1.938,-2.142,-9.591,-1.835,-2.137,2.94,1.61,0.56
4164.0,-9.55,-1.807,-2.206,-9.588,-1.917,-2.144,2.17,1.12,0.28
,-9.524,-1.878,-2.247,-9.533,-1.869,-2.089,1.82,0.98,0.42
,-9.507,-1.929,-2.175,-9.591,-1.835,-2.024,1.54,1.05,0.42
,-9.557,-1.931,-2.079,-9.576,-1.809,-1.977,1.61,1.47,0.28
4240.0,-9.555,-1.929,-1.912,-9.521,-2.053,-1.977,1.96,1.19,0.56
,-9.555,-1.943,-1.902,-9.521,-1.989,-1.996,2.24,1.05,0.56
,-9.483,-1.986,-1.977,-9.536,-1.948,-2.029,2.59,0.98,0.56
,-9.564,-2.053,-2.02,-9.481,-1.895,-2.017,2.94,1.05,0.77
4316.0,-9.5,-1.893,-1.874,-9.38,-1.826,-1.969,4.76,2.1,0.91
,-9.701,-1.828,-1.972,-9.617,-1.831,-2.012,4.76,1.75,1.05
,-9.524,-1.843,-2.008,-9.521,-1.797,-2.127,4.69,1.47,1.05
,-9.584,-1.84,-2.044,-9.536,-1.809,-2.005,4.2,1.26,1.05
4391.0,-9.6,-1.838,-2.113,-9.529,-1.936,-2.233,2.24,0.91,0.77
,-9.588,-1.866,-2.154,-9.524,-1.898,-2.235,1.54,0.84,0.63
,-9.584,-1.857,-2.154,-9.579,-1.862,-2.173,0.98,0.49,0.84
,-9.397,-1.888,-2.139,-9.581,-1.953,-2.053,0.77,0.35,0.77
4467.0,-9.608,-1.883,-2.175,-9.521,-2.034,-2.213,0.28,-0.77,0.84
,-9.581,-1.931,-2.127,-9.564,-2.029,-2.182,0.07,-1.05,0.98
,-9.574,-1.919,-2.18,-9.552,-2.048,-2.194,-0.14,-1.47,0.98
,-9.545,-1.977,-2.197,-9.548,-2.058,-2.182,-0.49,-1.82,1.12
4542.0,-9.502,-2.075,-2.115,-9.543,-1.979,-2.06,0.91,-2.1,1.54
,-9.519,-2.046,-2.132,-9.502,-1.984,-2.02,1.4,-2.1,1.68
,-9.567,-1.974,-2.063,-9.502,-1.893,-1.886,1.54,-2.17,2.1
,-9.56,-1.955,-1.998,-9.474,-1.876,-1.627,1.82,-2.31,2.24
4618.0,-9.462,-1.845,-1.503,-9.562,-1.67,-1.371,1.68,-0.49,2.31
,-9.488,-1.84,-1.28,-9.409,-1.634,-1.175,1.89,0.49,2.45
,-9.667,-1.771,-1.134,-9.359,-1.692,-1.127,2.1,0.98,2.66
,-9.816,-1.716,-1.354,-9.485,-1.795,-1.012,2.03,0.42,3.08
4694.0,-9.61,-1.783,-1.098,-9.287,-1.878,-2.493,0.0,2.66,4.06
,-9.536,-1.67,-1.117,-9.172,-1.811,-2.458,0.49,2.94,4.41
,-10.033,-1.644,-1.481,-9.208,-1.838,-2.395,0.35,1.89,4.69
,-9.873,-1.685,-2.201,-9.344,-1.838,-2.237,-0.07,-0.91,5.6
4770.0,-9.474,-1.905,-1.972,-9.495,-1.682,-1.962,-2.1,2.17,4.41
,-9.739,-1.713,-1.926,-9.217,-1.752,-1.421,-1.75,2.8,4.48
,-9.691,-1.577,-1.764,-10.038,-1.821,-1.426,-1.89,2.8,4.69
,-9.993,-1.579,-1.984,-9.856,-2.0,-1.857,-2.66,1.26,4.9
4845.0,-9.16,-2.015,-1.706,-9.727,-1.598,-1.374,-7.14,-3.85,8.26
,-9.155,-2.067,-1.596,-9.696,-1.395,-1.663,-7.49,-1.4,8.54
,-9.184,-2.192,-1.347,-9.883,-1.122,-1.668,-7.21,2.1,8.54
,-9.462,-1.969,-1.211,-9.804,-1.05,-2.087,-5.67,4.9,8.96
4921.0,-9.062,-0.991,-2.048,-9.655,-0.558,-2.716,-4.27,3.01,9.1
,-9.658,-0.967,-2.154,-9.229,-0.605,-2.197,-5.6,5.11,8.26
,-9.603,-1.173,-2.41,-9.442,-0.811,-1.881,-6.65,5.53,7.21
,-9.852,-0.84,-2.412,-9.648,-1.278,-1.445,-6.3,4.83,6.44
4997.0,-9.725,-1.862,-1.208,-9.493,-2.266,-1.378,-18.27,7.35,4.27
,-10.462,-1.998,-1.137,-9.167,-1.843,-1.912,-15.68,5.04,3.71
,-9.706,-2.142,-1.661,-9.715,-1.543,-1.491,-13.16,1.26,4.2
,-9.105,-2.335,-1.589,-9.751,-1.199,-1.792,-11.34,1.68,5.32
5073.0,-9.423,-1.089,-1.862,-9.907,-1.027,-1.843,-4.62,5.18,5.95
,-9.787,-0.885,-1.701,-9.581,-0.905,-1.888,-6.44,5.6,4.41
,-9.485,-1.096,-1.797,-9.909,-0.759,-2.12,-8.19,5.25,3.71
,-10.029,-1.094,-1.484,-9.39,-0.72,-2.034,-7.91,4.2,3.01
5149.0,-9.536,-0.644,-1.807,-9.703,-1.472,-2.292,-5.39,0.07,2.52
,-9.536,-1.065,-1.948,-9.892,-1.189,-2.175,-5.53,-0.77,2.31
,-9.38,-1.292,-2.008,-9.524,-1.366,-2.168,-4.27,-1.82,2.52
,-9.701,-1.519,-2.213,-9.608,-1.278,-2.07,-2.03,-2.8,2.38
5224.0,-9.478,-1.175,-2.213,-9.722,-0.45,-2.434,-1.26,-4.13,2.94
,-9.596,-1.043,-2.175,-9.71,-0.467,-2.357,-2.38,-4.69,2.45
,-9.73,-0.799,-2.35,-9.725,-0.62,-2.381,-3.36,-6.09,1.26
,-9.478,-0.512,-2.553,-9.529,-0.938,-2.101,-3.57,-7.14,0.42
5300.0,-9.751,-1.211,-2.178,-9.761,-1.567,-2.089,-5.25,-7.56,-0.77
,-9.567,-1.491,-2.247,-9.584,-1.512,-1.96,-3.5,-7.7,0.21
,-9.631,-1.685,-2.168,-9.612,-1.541,-2.01,-3.01,-7.28,0.98
,-9.643,-1.565,-2.113,-9.684,-1.644,-2.175,-1.75,-6.65,1.33
5375.0,-9.56,-1.663,-2.103,-9.596,-1.902,-1.752,-2.59,-9.1,0.56
,-9.689,-1.548,-2.034,-9.469,-1.811,-1.874,-2.03,-8.96,0.21
,-9.691,-1.682,-2.027,-10.206,-1.752,-1.965,-1.82,-8.68,0.21
,-9.794,-1.766,-1.785,-9.598,-1.397,-1.977,-1.68,-8.33,0.7
5451.0,-9.737,-1.359,-1.852,-9.684,-0.771,-1.764,4.34,-7.21,2.94
,-9.739,-1.374,-1.711,-9.842,-0.526,-1.931,4.06,-7.07,3.36
,-9.689,-1.357,-1.692,-9.818,-0.57,-1.809,3.57,-7.07,3.29
,-9.67,-1.019,-1.716,-9.914,-0.079,-2.149,4.69,-7.28,2.8
5527.0,-9.675,-0.395,-1.866,-9.665,-0.627,-1.553,-2.03,-8.12,-0.14
,-9.835,-0.457,-1.907,-9.596,-0.893,-1.448,-2.73,-8.12,-0.56
,-9.818,-0.419,-1.874,-9.6,-1.019,-1.436,-2.87,-8.05,-1.19
,-9.708,-0.462,-1.843,-9.722,-1.302,-1.35,-3.01,-7.98,-1.61
5603.0,-9.564,-1.723,-1.22,-9.538,-2.754,-1.242,-4.62,-6.65,-1.47
,-9.672,-1.984,-1.223,-9.55,-2.831,-1.268,-3.57,-6.16,-0.35
,-9.596,-2.477,-1.12,-9.653,-2.783,-1.371,-2.8,-5.74,0.7
,-9.67,-2.517,-1.304,-9.77,-2.656,-1.445,-1.26,-5.6,1.33
5678.0,-9.658,-2.525,-1.448,-9.651,-1.378,-1.421,6.02,-3.85,4.34
,-9.722,-2.044,-1.756,-9.828,-1.062,-1.457,8.96,-3.22,5.11
,-9.753,-2.096,-1.307,-9.866,-0.747,-1.534,8.68,-2.94,5.6
,-9.73,-1.795,-1.271,-9.746,-0.555,-1.565,9.31,-2.73,5.95
5754.0,-9.706,-0.424,-1.472,-10.036,-0.091,-1.467,9.24,-2.03,6.3
,-9.555,-0.285,-1.242,-9.95,-0.117,-1.555,8.68,-1.75,6.23
,-9.849,-0.507,-1.141,-9.818,-0.45,-1.326,6.65,-0.98,5.95
,-9.928,-0.017,-1.68,-9.914,-0.591,-1.304,7.35,-0.98,5.32
5829.0,-9.928,-0.921,-1.177,-9.67,-0.823,-1.51,1.96,-1.12,3.99
,-10.804,-1.153,-1.333,-9.574,-0.883,-1.51,1.4,0.28,4.97
,-9.794,-1.034,-1.369,-9.706,-0.974,-1.436,1.89,-0.77,4.34
,-9.825,-0.976,-1.354,-9.682,-0.902,-1.479,1.89,-0.91,3.99
5905.0,-10.012,-1.168,-1.491,-9.964,-1.438,-1.45,0.21,0.63,2.38
,-9.811,-1.321,-1.464,-10.002,-1.472,-1.536,-0.7,0.7,2.73
,-9.682,-1.438,-1.543,-10.136,-1.527,-1.443,0.14,0.98,2.94
,-9.634,-1.653,-1.299,-10.024,-1.369,-1.539,-0.35,1.26,3.22
5981.0,-9.864,-1.366,-1.531,-9.859,-1.223,-1.462,2.8,1.68,3.08
,-9.77,-1.33,-1.517,-9.82,-1.079,-1.491,3.22,1.89,2.8
,-9.732,-1.287,-1.575,-9.768,-1.036,-1.553,3.92,2.1,2.52
,-9.797,-1.163,-1.579,-9.876,-0.797,-1.658,4.34,2.66,2.45
6057.0,-9.902,-0.486,-1.814,-9.911,-0.704,-1.651,5.46,3.71,2.24
,-9.993,-0.388,-1.852,-9.933,-0.888,-1.618,5.04,3.99,1.4
,-10.05,-0.402,-1.799,-9.892,-0.933,-1.685,4.13,4.13,0.91
,-10.084,-0.548,-1.744,-9.84,-1.034,-1.732,3.15,4.06,0.28
6133.0,-9.907,-1.132,-1.653,-9.835,-1.888,-1.546,0.84,5.67,-1.96
,-9.964,-1.311,-1.673,-9.502,-2.127,-1.407,0.7,5.88,-2.1
,-10.033,-1.419,-1.709,-9.552,-2.233,-1.314,0.63,6.09,-2.24
,-10.103,-1.524,-1.687,-9.756,-1.996,-1.505,1.05,6.16,-2.45
6208.0,-9.966,-1.589,-1.67,-9.943,-0.763,-1.819,6.93,9.1,-1.26
,-10.017,-1.263,-1.821,-9.892,-0.665,-1.886,7.28,9.17,-1.33
,-9.983,-1.055,-1.893,-9.895,-0.574,-1.888,6.93,9.38,-1.47
,-9.94,-0.842,-1.924,-9.856,-0.565,-1.84,5.88,9.38,-1.96
6284.0,-9.887,-0.455,-1.843,-9.789,-0.768,-1.768,2.45,10.36,-3.36
,-9.878,-0.428,-1.852,-9.742,-1.003,-1.601,2.31,10.64,-3.57
,-9.842,-0.409,-1.953,-9.78,-1.146,-1.634,1.96,11.06,-3.85
,-9.859,-0.586,-1.833,-9.782,-1.196,-1.761,1.4,11.27,-4.34
6360.0,-9.82,-1.287,-1.823,-9.675,-1.644,-1.828,0.35,13.02,-4.62
,-9.732,-1.452,-1.802,-9.691,-2.029,-1.639,0.49,12.88,-4.48
,-9.799,-1.627,-1.78,-9.648,-2.003,-1.902,0.91,13.3,-4.06
,-10.328,-1.704,-2.704,-9.653,-2.111,-1.864,2.31,14.14,-4.76
6436.0,-9.663,-2.111,-1.977,-9.567,-1.996,-1.984,4.06,14.63,-0.07
,-9.655,-2.134,-1.95,-9.584,-1.977,-2.06,4.69,14.84,0.56
,-9.686,-2.041,-1.943,-9.677,-1.723,-2.206,5.53,15.19,0.98
,-9.653,-2.029,-1.943,-9.679,-1.429,-2.249,5.74,15.19,1.4
6511.0,-9.696,-1.046,-2.383,-9.569,-0.787,-2.142,8.96,15.68,2.52
,-9.737,-0.991,-2.218,-9.718,-0.632,-2.324,8.47,15.68,2.17
,-9.66,-0.828,-2.185,-9.742,-0.656,-2.367,8.12,15.75,1.96
,-9.6,-0.818,-2.125,-9.689,-0.79,-2.324,7.42,15.89,2.1
6587.0,-9.782,-0.735,-2.402,-9.643,-0.828,-2.63,7.28,15.33,1.05
,-9.56,-0.567,-2.623,-9.686,-0.921,-2.503,7.35,15.12,0.35
,-9.598,-0.845,-2.424,-9.598,-1.125,-2.51,5.81,15.12,-0.21
,-9.581,-0.782,-2.584,-9.641,-1.45,-2.393,5.6,14.98,-0.56
6662.0,-9.603,-1.424,-2.572,-9.536,-1.242,-2.788,3.08,14.0,-1.4
,-9.514,-1.307,-2.769,-9.469,-1.187,-2.85,5.53,13.86,-1.68
,-9.521,-1.311,-2.704,-9.564,-1.218,-2.804,4.34,13.79,-1.47
,-9.459,-1.555,-2.498,-9.569,-1.467,-2.565,3.36,13.72,-1.19
6738.0,-9.507,-1.445,-2.654,-9.452,-1.34,-2.618,3.01,13.79,-0.91
,-9.438,-1.445,-2.711,-9.414,-1.347,-2.675,3.29,13.51,-0.91
,-9.497,-1.656,-2.324,-9.457,-1.206,-2.702,-0.21,13.58,-0.77
,-9.49,-1.488,-2.393,-9.464,-1.015,-2.749,3.01,13.3,-0.77
6814.0,-9.481,-0.833,-2.749,-9.454,-0.857,-2.644,4.55,13.16,-0.63
,-9.438,-0.794,-2.682,-9.466,-0.955,-2.666,3.08,12.74,-1.12
,-9.514,-0.766,-2.608,-9.311,-1.06,-2.716,2.24,12.67,-1.47
,-9.411,-0.792,-2.704,-9.344,-1.184,-2.737,1.4,12.67,-1.82
6890.0,-34.367,-1.948,-14.235,-9.521,-1.273,-3.151,10.99,-15.26,-6.37
,-6.126,2.192,-7.854,-9.299,-1.665,-2.735,11.55,0.21,-3.85
,-10.424,-1.981,-1.766,-9.464,-1.665,-2.96,-9.45,8.61,-2.87
,-9.105,-2.35,-2.099,-9.342,-1.642,-3.185,-3.15,8.82,-2.66
6965.0,-9.225,-1.448,-3.247,-9.485,-1.795,-3.094,1.68,6.44,-2.31
,-9.526,-1.627,-3.046,-9.433,-1.522,-3.118,0.56,7.14,-2.38
,-9.292,-1.807,-2.769,-9.564,-1.307,-3.19,0.21,6.93,-2.45
,-9.411,-2.101,-2.589,-9.418,-1.122,-3.25,0.21,6.58,-2.45
7041.0,-9.399,-1.247,-3.072,-9.462,-1.668,-2.443,5.04,3.01,-1.12
,-9.342,-1.347,-2.886,-9.464,-1.199,-2.778,4.06,3.36,-1.61
,-9.258,-1.4,-2.58,-9.5,-1.077,-2.723,3.78,3.78,-2.03
,-9.586,-1.405,-2.493,-9.34,-1.199,-2.632,4.2,3.43,-2.24
7117.0,-9.454,-1.417,-2.261,-9.462,-1.421,-2.568,3.36,-2.45,-1.47
,-9.564,-1.251,-2.429,-9.208,-1.244,-2.57,4.62,-3.99,-1.96
,-9.574,-1.4,-2.407,-9.421,-1.345,-2.359,5.18,-5.74,-1.89
,-9.428,-1.606,-2.615,-9.703,-1.206,-2.453,5.6,-6.93,-1.33
7193.0,-9.514,-1.266,-2.166,-9.581,-1.529,-3.051,3.01,-8.05,-1.54
,-9.789,-1.302,-2.328,-9.165,-1.639,-3.154,2.73,-10.71,-2.03
,-9.655,-1.675,-2.625,-9.148,-1.309,-2.905,2.17,-14.35,-1.75
,-9.407,-1.527,-2.929,-9.287,-1.524,-2.757,3.78,-16.45,-0.84
7269.0,-9.387,-1.766,-2.3,-9.505,-1.653,-2.434,3.43,-8.96,-1.54
,-9.689,-1.706,-2.223,-9.337,-1.709,-2.216,4.9,-8.68,-1.82
,-9.586,-1.699,-2.233,-9.347,-1.778,-2.125,5.67,-9.52,-1.12
,-9.739,-1.68,-2.163,-9.591,-1.687,-1.957,6.02,-10.22,-0.28
7344.0,-9.536,-1.572,-1.907,-9.579,-1.062,-1.541,9.8,-9.24,0.63
,-9.44,-1.467,-1.721,-9.768,-1.015,-1.448,11.62,-9.94,0.91
,-9.363,-1.228,-1.598,-10.062,-1.046,-1.697,12.67,-9.45,1.12
,-9.567,-1.134,-1.479,-10.163,-1.345,-2.034,11.97,-8.47,0.77
7420.0,-9.911,-1.649,-2.757,-9.306,-1.567,-2.134,11.55,-16.87,1.19
,-9.014,-1.687,-2.974,-9.698,-1.572,-1.804,13.02,-19.67,1.33
,-8.926,-1.596,-2.752,-10.163,-1.584,-2.063,13.58,-18.34,0.7
,-9.206,-1.548,-2.603,-10.163,-1.376,-2.333,13.37,-14.91,-0.07
7495.0,-9.773,-1.364,-2.864,-9.684,-1.381,-2.041,11.97,-15.68,-1.26
,-9.019,-1.28,-2.781,-9.462,-1.608,-1.919,8.82,-15.89,-0.77
,-8.94,-1.407,-2.644,-9.435,-1.56,-1.673,5.32,-13.65,-1.61
,-9.275,-1.479,-2.175,-9.533,-1.455,-1.232,3.29,-10.22,-2.52
7571.0,-9.493,-1.737,-0.84,-9.61,-1.627,-0.61,-1.96,-4.34,-3.78
,-9.44,-1.586,-0.665,-9.581,-1.685,-0.725,-1.54,-2.8,-3.15
,-9.761,-1.778,-0.242,-9.457,-1.881,-0.94,-0.98,-1.68,-2.73
,-9.715,-1.799,-0.483,-9.378,-1.835,-1.048,0.7,-1.68,-1.96
7647.0,-9.385,-1.886,-1.06,-9.758,-1.871,-2.118,3.29,1.26,0.7
,-9.447,-1.888,-1.175,-9.564,-1.847,-2.381,4.2,2.38,0.63
,-9.629,-1.919,-1.28,-9.564,-1.888,-2.491,5.32,2.8,0.42
,-9.773,-1.905,-1.761,-9.555,-1.764,-2.529,6.86,2.59,0.91
7723.0,-9.675,-1.701,-2.51,-9.677,-1.577,-2.601,9.8,2.59,1.47
,-9.703,-1.759,-2.663,-9.663,-1.56,-2.479,9.59,2.38,1.19
,-9.634,-1.811,-2.666,-9.603,-1.555,-2.364,9.1,1.75,0.91
,-9.622,-1.663,-2.584,-9.538,-1.522,-2.139,8.12,1.54,0.77
7798.0,-9.658,-1.517,-1.948,-9.658,-1.546,-1.517,2.59,0.28,0.07
,-9.689,-1.613,-1.895,-9.725,-1.565,-1.433,1.89,-0.14,0.28
,-9.605,-1.63,-1.634,-9.576,-1.596,-1.493,1.54,-0.35,0.28
,-9.751,-1.61,-1.56,-9.639,-1.67,-1.498,1.47,-0.63,0.42
7874.0,-9.567,-1.761,-1.563,-9.61,-1.56,-1.515,2.38,-1.26,0.7
,-9.6,-1.749,-1.474,-9.603,-1.462,-1.486,3.29,-1.05,0.7
,-9.651,-1.764,-1.448,-9.581,-1.431,-1.364,4.48,-0.84,0.98
,-9.71,-1.706,-1.488,-9.744,-1.397,-1.395,5.81,-0.91,1.26
7949.0,-9.847,-1.582,-1.601,-9.624,-1.534,-1.788,6.16,-0.21,1.68
,-9.823,-1.503,-1.694,-9.569,-1.598,-1.646,5.95,-0.63,1.75
,-9.655,-1.522,-1.893,-9.569,-1.665,-1.555,5.11,-1.47,2.1
,-9.572,-1.467,-1.878,-9.667,-1.701,-1.548,4.41,-1.47,2.31
8025.0,-9.631,-1.713,-1.414,-9.584,-1.776,-1.744,2.03,-0.49,1.75
,-9.696,-1.716,-1.417,-9.596,-1.649,-1.754,1.68,-0.84,1.89
,-9.691,-1.862,-1.615,-9.686,-1.625,-1.754,1.4,-1.33,2.31
,-9.531,-1.838,-1.773,-9.679,-1.589,-1.802,1.47,-1.26,2.52
8101.0,-9.742,-1.622,-1.945,-9.667,-1.721,-1.859,1.61,0.28,2.8
,-9.564,-1.591,-1.902,-9.646,-1.567,-1.862,1.12,0.63,2.73
,-9.45,-1.682,-1.835,-9.517,-1.543,-1.706,0.49,1.4,2.52
,-9.574,-1.785,-1.864,-9.739,-1.594,-1.673,0.7,2.31,2.31
8177.0,-9.485,-1.618,-1.718,-9.708,-1.328,-1.086,0.28,4.48,2.87
,-9.557,-1.527,-1.618,-9.823,-1.299,-1.005,0.42,4.97,2.66
,-9.67,-1.493,-1.464,-9.943,-1.292,-1.024,0.56,5.32,2.38
,-9.564,-1.385,-1.273,-9.696,-1.228,-1.091,0.84,6.09,2.52
8253.0,-9.485,-1.299,-0.916,-9.861,-1.68,-1.713,1.61,5.39,3.85
,-9.605,-1.366,-0.876,-10.163,-1.563,-2.18,1.68,6.02,3.64
,-9.648,-1.543,-1.101,-9.777,-1.469,-2.9,2.59,6.58,3.36
,-9.639,-1.701,-1.364,-9.184,-1.567,-3.285,3.71,7.49,3.29
8328.0,-9.028,-1.575,-3.166,-9.825,-1.409,-2.125,0.07,3.5,4.06
,-9.119,-1.613,-2.819,-9.763,-1.335,-1.922,-2.45,4.97,2.73
,-9.447,-1.697,-2.56,-9.675,-1.409,-1.692,-3.85,6.16,1.4
,-9.883,-1.687,-2.477,-9.691,-1.665,-1.342,-3.57,5.39,0.98
8404.0,-10.179,-1.85,-1.45,-9.289,-1.213,-2.146,-7.49,4.69,3.01
,-9.99,-1.888,-1.965,-9.361,-1.266,-1.843,-3.85,2.24,3.92
,-9.828,-1.512,-2.333,-9.483,-1.496,-1.383,-1.47,-0.35,4.41
,-9.426,-1.421,-2.352,-9.679,-1.496,-0.928,-1.12,-2.17,4.69
8480.0,-9.825,-1.347,-0.627,-9.115,-1.586,-0.919,-2.66,2.45,4.76
,-9.933,-1.22,-0.589,-9.387,-1.141,-0.888,-2.73,2.87,4.83
,-9.832,-1.12,-0.266,-9.325,-1.302,-1.278,-3.22,3.36,5.25
,-10.129,-1.232,-0.507,-8.902,-1.352,-0.993,-3.15,1.96,5.6
8556.0,-9.56,-1.027,-0.873,-9.878,-0.577,-1.048,-0.42,10.36,6.86
,-9.727,-0.945,-0.828,-9.902,-0.034,-1.706,1.19,10.29,5.81
,-10.227,-0.682,-0.847,-9.732,0.024,-1.644,1.68,9.59,4.69
,-9.962,-0.634,-1.103,-9.809,-0.479,-1.826,0.7,8.05,4.41
8631.0,-9.292,-0.775,-2.063,-9.679,-1.338,-1.28,-3.78,4.2,0.35
,-9.725,-0.739,-1.869,-10.268,-1.637,-1.034,-4.13,5.32,-0.28
,-9.122,-1.287,-1.895,-9.871,-1.91,-1.534,-4.76,6.16,-0.42
,-9.675,-1.23,-1.393,-9.488,-1.936,-1.563,-3.78,6.3,-0.56
8707.0,-9.751,-2.185,-1.761,-9.61,-1.558,-1.783,0.35,-4.76,-0.14
,-9.17,-2.412,-2.118,-9.567,-1.027,-2.127,2.8,-4.06,1.12
,-9.56,-2.139,-2.005,-9.88,-0.328,-2.204,6.23,-3.22,2.17
,-9.349,-1.701,-1.996,-9.579,-0.048,-2.374,8.89,-2.45,2.8
8782.0,-9.464,-0.756,-1.967,-9.756,-0.658,-1.926,0.84,-5.39,0.7
,-9.619,-1.089,-1.835,-9.646,-0.859,-1.886,-0.21,-5.88,-0.28
,-9.694,-1.005,-1.881,-9.655,-1.235,-1.776,0.63,-6.86,-1.26
,-9.622,-0.83,-1.888,-9.564,-1.658,-1.589,1.19,-7.28,-1.89
8858.0,-9.725,-1.752,-1.701,-9.476,-1.029,-2.412,0.07,-7.35,-2.8
,-9.658,-1.558,-2.079,-9.481,-1.082,-2.221,1.89,-6.93,-2.38
,-9.507,-1.225,-2.209,-9.947,-1.184,-2.077,3.15,-6.72,-2.1
,-9.624,-1.003,-2.218,-9.768,-1.268,-2.194,2.66,-6.44,-2.1
8934.0,-9.579,-1.417,-2.015,-9.715,-1.426,-2.101,-2.66,-8.82,-3.57
,-9.789,-1.505,-2.091,-9.71,-1.5,-2.12,-3.01,-8.75,-3.36
,-9.67,-1.51,-2.02,-9.584,-1.079,-2.338,-2.73,-8.47,-3.01
,-9.737,-1.424,-2.094,-9.495,-0.888,-2.338,0.07,-8.19,-2.94
9010.0,-9.591,-0.907,-2.371,-9.742,-1.953,-1.213,-3.5,-8.61,-3.78
,-9.701,-1.457,-1.886,-9.576,-1.979,-1.259,-5.18,-8.47,-4.13
,-9.605,-1.371,-1.91,-9.608,-1.586,-1.177,-4.9,-8.4,-3.99
,-9.804,-1.603,-1.575,-9.598,-2.065,-1.254,-5.32,-8.26,-4.06
9085.0,-9.608,-2.206,-1.072,-9.495,-1.448,-1.256,-0.91,-6.93,-1.12
,-9.581,-1.981,-1.22,-9.526,-1.555,-1.144,1.68,-7.0,0.07
,-9.555,-1.694,-1.338,-9.651,-1.661,-1.036,3.5,-7.14,0.7
,-9.526,-1.503,-1.309,-9.706,-1.737,-1.161,4.2,-7.21,0.91
9161.0,-9.761,-1.826,-1.029,-9.684,-1.716,-1.452,3.43,-6.16,1.33
,-9.663,-1.656,-1.307,-9.725,-1.687,-1.484,4.9,-6.37,1.47
,-9.665,-1.646,-1.46,-9.679,-1.677,-1.529,4.9,-6.3,1.96
,-9.552,-1.704,-1.4,-9.785,-1.618,-1.555,5.04,-5.88,2.73
9237.0,-9.792,-1.625,-1.584,-9.789,-1.661,-1.876,6.3,-4.48,3.36
,-9.835,-1.479,-1.852,-9.849,-1.914,-1.811,6.93,-4.34,3.57
,-9.909,-1.388,-2.022,-9.933,-2.17,-1.589,7.14,-4.2,3.64
,-9.914,-1.481,-1.876,-9.933,-2.276,-1.409,6.51,-4.41,3.71
9313.0,-9.797,-2.204,-1.431,-9.89,-1.799,-1.383,7.28,-2.87,6.37
,-9.667,-2.424,-1.216,-9.931,-1.474,-1.508,7.84,-2.59,6.79
,-9.713,-2.228,-1.261,-9.928,-1.235,-1.338,9.03,-2.24,7.21
,-9.907,-2.118,-1.421,-9.77,-0.981,-1.388,9.38,-1.89,7.91
9389.0,-9.777,-0.979,-1.28,-9.801,-0.766,-1.146,6.93,-1.68,7.84
,-9.813,-0.723,-1.364,-9.768,-0.845,-1.077,7.42,-1.19,7.42
,-9.844,-0.749,-1.098,-9.868,-0.864,-1.091,6.3,-1.05,7.14
,-9.907,-0.735,-1.206,-9.947,-0.909,-1.106,6.02,-1.26,6.79
9464.0,-9.964,-0.888,-1.156,-9.653,-0.835,-1.345,5.67,-0.91,5.53
,-9.761,-0.885,-1.268,-9.749,-0.802,-1.275,5.18,-1.19,5.25
,-9.789,-0.95,-1.244,-9.914,-0.742,-1.151,4.27,-0.98,5.32
,-9.72,-0.972,-1.237,-9.82,-0.488,-1.225,3.85,-0.84,5.18
9540.0,-9.945,-0.73,-1.17,-9.883,-1.017,-1.405,1.47,0.63,1.61
,-9.995,-0.73,-1.192,-9.828,-1.192,-1.304,1.33,0.84,1.4
,-9.933,-0.876,-1.407,-9.885,-1.261,-1.292,1.89,0.91,1.12
,-9.866,-0.912,-1.457,-9.931,-1.24,-1.34,2.17,1.05,0.7
9615.0,-9.89,-1.285,-1.378,-9.763,-1.759,-1.271,2.17,3.22,-0.84
,-9.871,-1.354,-1.39,-9.928,-1.91,-1.199,2.03,3.36,-1.12
,-9.94,-1.362,-1.414,-10.031,-1.792,-1.338,1.68,3.78,-1.19
,-9.964,-1.536,-1.374,-10.108,-1.644,-1.405,1.47,4.2,-1.19
9691.0,-10.043,-1.455,-1.524,-9.751,-1.405,-1.369,4.27,5.46,-1.33
,-9.899,-1.486,-1.582,-9.911,-1.247,-1.371,4.27,5.53,-1.33
,-9.854,-1.464,-1.508,-9.971,-1.041,-1.462,4.41,5.81,-1.4
,-9.739,-1.433,-1.467,-10.112,-0.871,-1.534,4.55,6.44,-1.4
9767.0,-9.995,-0.747,-1.639,-9.849,-1.029,-1.479,3.57,7.91,-3.29
,-9.794,-0.682,-1.668,-9.804,-1.223,-1.268,2.66,7.98,-3.71
,-9.706,-0.847,-1.627,-9.931,-1.254,-1.409,1.82,8.4,-3.92
,-9.785,-0.933,-1.527,-9.933,-1.316,-1.412,0.98,8.96,-4.2
9843.0,-9.911,-1.452,-1.405,-9.43,-1.333,-1.677,-1.12,11.41,-4.69
,-9.952,-1.383,-1.429,-9.524,-1.479,-1.46,-1.33,11.55,-4.48
,-9.909,-1.251,-1.443,-10.232,-1.421,-2.079,-1.75,11.48,-4.34
,-9.713,-1.285,-1.565,-9.878,-1.496,-1.519,-1.96,11.34,-4.13
9918.0,-9.765,-1.646,-1.407,-9.742,-1.802,-1.565,-2.31,13.44,-2.24
,-9.734,-1.838,-1.295,-9.739,-1.831,-1.687,-2.17,14.07,-1.96
,-9.66,-1.838,-1.409,-9.698,-1.699,-1.833,-1.61,14.7,-1.33
,-9.785,-1.953,-1.405,-9.603,-1.747,-1.831,-1.4,15.05,-1.05
9994.0,-9.564,-1.847,-1.78,-9.847,-1.357,-2.01,0.14,16.73,-0.56
,-9.689,-1.888,-1.783,-9.823,-1.242,-2.084,0.63,17.08,-0.49
,-9.887,-1.819,-1.843,-9.725,-1.098,-2.144,1.26,17.5,-0.42
,-9.902,-1.677,-1.886,-9.658,-1.086,-2.127,1.82,17.57,-0.49
10070.0,-9.684,-1.094,-2.144,-9.679,-1.091,-2.225,1.26,17.85,-0.84
,-9.658,-1.129,-2.144,-9.639,-1.086,-2.182,1.12,17.92,-1.19
,-9.706,-1.139,-2.233,-9.572,-1.263,-2.161,1.4,17.78,-1.61
,-9.734,-1.039,-2.201,-9.557,-1.46,-2.113,1.4,17.78,-1.96
10146.0,-9.529,-1.692,-1.938,-9.55,-1.589,-2.158,-0.56,17.5,-3.36
,-9.447,-1.831,-2.044,-9.526,-1.639,-2.254,0.56,17.5,-3.08
,-9.543,-1.732,-2.067,-9.545,-1.697,-2.228,1.96,17.64,-2.8
,-9.533,-1.723,-2.106,-9.576,-1.943,-2.084,3.01,17.64,-2.8
10221.0,-9.529,-1.723,-2.446,-9.521,-1.63,-2.522,4.34,18.41,-1.47
,-9.421,-1.821,-2.426,-9.421,-1.527,-2.431,4.9,18.41,-1.4
,-9.428,-1.816,-2.419,-9.481,-1.426,-2.477,5.11,18.55,-1.26
,-9.478,-1.642,-2.422,-9.584,-1.469,-2.352,5.6,19.04,-1.33
10297.0,-9.588,-1.429,-2.544,-9.32,-1.357,-2.575,4.48,19.46,-1.19
,-9.512,-1.357,-2.405,-9.471,-1.273,-2.625,4.34,19.67,-1.54
,-9.476,-1.39,-2.522,-9.313,-1.24,-2.613,4.34,19.53,-1.68
,-9.296,-1.33,-2.613,-9.33,-1.464,-2.407,4.2,19.46,-1.82
10373.0,-9.371,-1.522,-2.34,-10.208,-2.529,-0.053,2.8,21.56,-1.96
,-9.296,-1.642,-2.364,-9.311,0.261,-4.338,3.5,21.7,-2.31
,-9.371,-1.563,-2.386,-9.442,-1.685,-1.701,4.62,21.91,-2.1
,-0.036,-9.737,-1.706,-9.397,-1.039,-2.508,-43.96,12.18,8.47
10448.0,-9.277,-1.043,-2.69,-9.464,-1.287,-2.807,1.4,13.72,-3.92
,-9.497,-1.359,-2.582,-9.282,-1.653,-2.659,0.0,13.65,-3.92
,-9.313,-1.244,-2.936,-9.471,-1.503,-2.883,0.49,12.88,-4.27
,-9.411,-1.17,-2.855,-9.385,-1.318,-3.07,1.05,13.09,-4.69
10524.0,-9.383,-1.481,-3.235,-9.373,-2.027,-3.223,1.05,10.15,-5.81
,-9.284,-1.642,-3.527,-9.497,-2.084,-3.032,-0.07,9.17,-5.39
,-9.246,-1.673,-3.731,-9.624,-2.036,-3.302,-0.84,8.47,-5.53
,-9.184,-1.819,-3.503,-9.222,-2.407,-3.056,-1.82,8.96,-5.74
10600.0,-9.469,-2.536,-2.879,-9.296,-2.194,-3.455,-1.89,6.3,-3.36
,-9.32,-2.436,-3.218,-9.383,-1.756,-3.501,0.77,4.69,-2.52
,-9.459,-2.544,-3.144,-9.32,-1.953,-3.475,2.8,2.59,-1.47
,-9.296,-2.517,-3.269,-9.232,-2.003,-3.654,4.06,0.63,-0.63
10676.0,-9.275,-2.065,-3.321,-9.629,-1.744,-3.13,6.72,-4.41,1.19
,-9.239,-2.249,-2.924,-9.899,-1.826,-3.005,5.39,-5.11,1.05
,-9.49,-1.831,-3.092,-9.426,-1.598,-3.556,7.77,-6.02,1.05
,-9.763,-1.732,-3.159,-8.815,-1.744,-2.888,8.33,-7.42,1.12
10751.0,-9.143,-1.409,-2.749,-9.423,-1.304,-2.35,12.39,-17.29,3.64
,-9.277,-1.536,-2.666,-9.694,-1.256,-2.268,10.99,-16.45,3.22
,-9.533,-1.417,-2.051,-9.206,-1.321,-2.302,10.78,-15.26,3.08
,-9.859,-1.388,-2.285,-9.217,-1.292,-2.264,11.34,-17.01,2.73
10827.0,-9.184,-1.431,-2.343,-8.964,-1.579,-3.065,10.08,-19.88,0.42
,-9.328,-1.469,-2.486,-8.89,-1.642,-2.974,10.71,-18.48,-0.07
,-9.622,-1.484,-2.929,-9.194,-1.819,-2.556,11.27,-19.04,-0.07
,-9.107,-1.421,-3.07,-9.454,-1.926,-2.477,11.2,-18.34,0.7
10903.0,-9.466,-1.993,-2.596,-9.454,-2.079,-1.235,8.82,-6.58,-1.61
,-9.332,-1.723,-2.096,-9.78,-2.027,-1.445,8.96,-5.74,-1.47
,-9.323,-1.718,-1.85,-9.596,-1.936,-1.577,7.84,-4.34,-1.26
,-9.332,-1.893,-1.515,-9.256,-1.706,-2.123,6.65,-2.66,-1.26
10979.0,-9.055,-1.577,-1.874,-9.608,-1.529,-1.357,7.84,-3.22,0.91
,-9.091,-1.622,-1.859,-9.689,-1.266,-1.309,5.74,-1.26,0.0
,-9.244,-1.766,-1.594,-9.732,-1.409,-1.46,4.2,0.91,-1.05
,-9.507,-1.778,-1.426,-9.454,-1.689,-1.551,4.41,2.52,-1.89
11054.0,-9.292,-1.89,-1.725,-9.562,-1.862,-2.156,-0.21,1.75,0.0
,-9.409,-2.075,-1.79,-9.545,-1.871,-2.24,0.63,2.94,0.07
,-9.493,-2.134,-2.0,-9.471,-1.802,-2.357,2.45,3.36,0.07
,-9.438,-2.008,-2.094,-9.536,-1.871,-2.434,4.69,3.64,0.21
11130.0,-9.421,-2.056,-2.613,-9.545,-1.869,-2.666,7.98,3.01,1.47
,-9.428,-2.091,-2.58,-9.502,-1.759,-2.771,9.17,3.22,1.54
,-9.445,-1.962,-2.52,-9.428,-1.85,-2.764,10.29,3.64,1.33
,-9.593,-1.871,-2.632,-9.433,-1.977,-2.666,10.71,3.43,1.26
11205.0,-9.533,-1.957,-2.666,-9.605,-1.716,-2.486,6.79,2.17,1.4
,-9.505,-1.924,-2.752,-9.531,-1.797,-2.551,6.93,1.47,1.26
,-9.572,-1.809,-2.615,-9.447,-1.809,-2.62,6.51,1.12,1.19
,-9.414,-1.819,-2.355,-9.409,-1.91,-2.776,5.32,1.4,1.19
11281.0,-9.337,-2.067,-2.788,-9.61,-1.881,-2.123,2.31,-1.61,1.75
,-9.325,-2.096,-2.651,-9.622,-1.771,-2.158,2.87,-1.12,1.54
,-9.371,-2.091,-2.367,-9.581,-1.742,-2.211,3.78,-0.56,1.33
,-9.478,-1.981,-2.213,-9.457,-1.754,-2.113,4.76,0.0,1.12
11357.0,-9.385,-1.735,-2.017,-9.608,-1.744,-2.096,4.55,-1.33,1.82
,-9.433,-1.881,-1.831,-9.552,-1.615,-2.0,4.55,-0.42,1.61
,-9.445,-1.902,-1.735,-9.433,-1.618,-2.032,5.04,0.28,1.26
,-9.703,-1.862,-1.845,-9.404,-1.682,-2.096,5.67,0.28,1.26
11433.0,-9.45,-1.878,-2.123,-9.569,-1.795,-1.996,3.78,0.21,1.61
,-9.497,-1.852,-2.158,-9.55,-1.725,-2.075,3.64,0.49,1.4
,-9.519,-1.866,-2.094,-9.567,-1.756,-2.182,3.71,0.49,1.26
,-9.514,-1.828,-1.979,-9.545,-1.783,-2.376,3.57,0.77,1.12
11509.0,-9.402,-1.826,-2.383,-9.608,-1.761,-2.257,2.45,0.63,1.68
,-9.445,-1.871,-2.345,-9.605,-1.754,-2.24,2.17,0.84,1.47
,-9.44,-1.876,-2.285,-9.507,-1.792,-2.209,2.24,1.33,1.26
,-9.548,-1.859,-2.266,-9.423,-1.866,-2.091,2.38,1.54,1.19
11584.0,-9.481,-1.886,-2.101,-9.514,-1.85,-2.199,1.96,1.12,1.12
,-9.481,-1.886,-2.125,-9.541,-1.881,-2.206,2.24,1.19,1.05
,-9.541,-1.878,-2.151,-9.445,-1.804,-2.316,2.38,0.98,1.05
,-9.574,-1.869,-2.132,-9.371,-1.747,-2.216,2.66,0.77,1.12
11660.0,-9.562,-1.852,-2.295,-9.514,-1.852,-2.319,2.8,0.49,1.33
,-9.56,-1.852,-2.252,-9.552,-1.857,-2.347,2.24,0.49,1.33
,-9.574,-1.795,-2.338,-9.555,-1.945,-2.123,2.8,0.56,1.26
,-9.574,-1.871,-2.228,-9.541,-1.821,-2.223,2.66,0.49,1.33
11736.0,-9.524,-1.89,-2.185,-9.5,-1.922,-2.235,3.36,0.14,1.54
,-9.536,-1.874,-2.29,-9.538,-1.96,-2.276,3.64,-0.07,1.68
,-9.505,-1.862,-2.257,-9.495,-1.895,-2.3,3.85,-0.35,1.82
,-9.512,-1.886,-2.285,-9.55,-1.862,-2.223,3.99,-0.28,1.96
11812.0,-9.495,-1.785,-2.264,-9.452,-1.852,-2.163,5.11,-0.98,2.03
,-9.584,-1.852,-2.199,-9.49,-1.795,-2.084,4.62,-1.26,2.1
,-9.505,-1.826,-2.166,-9.552,-1.776,-2.063,4.34,-1.68,2.17
,-9.541,-1.866,-2.209,-9.593,-1.74,-2.032,4.48,-1.89,2.17
11887.0,-9.598,-1.802,-2.13,-9.545,-1.74,-2.245,3.36,-2.66,2.17
,-9.61,-1.78,-2.156,-9.536,-1.749,-2.309,3.01,-3.01,2.24
,-9.576,-1.78,-2.316,-9.517,-1.706,-2.19,2.52,-3.57,2.17
,-9.505,-1.742,-2.252,-9.507,-1.697,-2.137,1.82,-3.71,2.24
11963.0,-9.56,-1.732,-2.091,-9.663,-1.692,-1.307,-2.59,-4.27,2.31
,-9.536,-1.704,-1.902,-9.725,-1.735,-1.371,-3.01,-3.85,2.38
,-9.49,-1.735,-1.687,-9.617,-1.732,-1.345,-3.57,-3.08,2.38
,-9.476,-1.682,-1.445,-9.495,-1.718,-1.345,-4.13,-2.17,2.17
12038.0,-9.43,-1.752,-1.216,-9.533,-1.531,-1.747,-4.34,-0.49,3.71
,-9.38,-1.699,-1.024,-9.579,-1.443,-1.819,-4.41,0.56,4.06
,-9.694,-1.67,-1.249,-9.538,-1.577,-2.087,-3.85,0.91,4.2
,-9.651,-1.649,-1.563,-9.304,-1.771,-2.101,-2.87,0.35,4.48
12114.0,-9.347,-1.874,-1.866,-9.5,-1.737,-1.457,-5.67,0.7,4.83
,-9.615,-1.835,-1.838,-9.734,-1.637,-1.307,-4.83,1.75,4.41
,-9.392,-1.819,-1.802,-9.608,-1.646,-1.551,-3.78,2.45,4.41
,-9.552,-1.663,-1.572,-9.548,-1.721,-1.443,-3.43,3.22,4.48
12190.0,-9.541,-2.058,-1.943,-9.615,-1.773,-1.831,-4.83,1.82,8.19
,-9.213,-2.166,-1.761,-9.466,-1.259,-2.139,-4.27,3.57,9.52
,-9.423,-2.079,-1.689,-9.196,-0.873,-1.886,-3.08,5.81,9.94
,-9.507,-2.106,-1.814,-9.562,-0.665,-1.589,-1.26,6.65,9.87
12266.0,-9.435,-0.581,-1.431,-9.95,-0.907,-1.799,-1.75,13.02,7.07
,-9.773,-0.309,-1.28,-9.38,-0.785,-2.319,-2.8,14.21,6.02
,-9.933,-0.491,-1.304,-9.359,-0.512,-2.324,-4.2,13.79,5.25
,-9.801,-0.983,-1.512,-9.399,-0.385,-2.288,-4.97,11.62,4.9
12341.0,-9.617,-0.256,-1.972,-9.215,-1.795,-1.706,-4.9,8.19,1.75
,-9.969,-0.251,-2.067,-9.368,-2.357,-1.575,-7.42,6.86,-0.49
,-9.82,-0.565,-1.989,-9.375,-3.089,-1.412,-10.43,4.69,-1.47
,-9.691,-1.005,-2.063,-10.132,-3.025,-1.63,-13.02,2.52,-1.96
12417.0,-9.603,-2.721,-2.321,-9.768,-1.089,-2.697,0.14,-5.46,3.08
,-9.371,-2.146,-2.745,-9.646,-0.976,-2.838,4.48,-6.37,5.18
,-9.39,-1.613,-2.893,-9.686,-0.895,-2.778,5.32,-4.41,5.6
,-9.385,-1.323,-2.709,-9.296,-0.926,-2.587,4.48,-1.68,4.9
12493.0,-9.136,-1.242,-2.029,-9.971,-1.677,-2.754,-3.99,0.21,-1.12
,-9.27,-1.718,-1.586,-9.88,-1.414,-3.044,-5.25,2.45,-1.61
,-9.885,-1.625,-1.721,-9.5,-1.17,-3.166,-3.29,1.61,-2.17
,-9.983,-1.773,-2.249,-9.409,-1.086,-3.025,-0.7,-2.1,-1.68
12569.0,-9.519,-0.909,-2.9,-9.407,-1.359,-2.032,5.74,-2.66,1.19
,-9.605,-0.933,-2.857,-9.768,-1.06,-2.067,4.41,-3.22,0.63
,-9.667,-1.108,-2.668,-9.581,-0.866,-2.24,2.31,-3.64,0.21
,-9.593,-1.259,-2.405,-9.849,-0.696,-2.41,0.42,-3.29,0.0
12645.0,-9.67,-0.799,-2.414,-9.665,-1.84,-2.23,-2.31,-4.76,-0.07
,-9.746,-1.094,-2.23,-9.495,-1.893,-2.362,-2.52,-4.97,-0.42
,-9.603,-1.393,-2.225,-9.615,-2.072,-2.18,-1.89,-5.04,-0.63
,-9.71,-1.682,-2.041,-9.454,-2.261,-1.977,-0.91,-4.76,-0.56
12720.0,-9.519,-2.326,-1.634,-9.682,-1.053,-2.56,5.39,-4.9,2.59
,-9.471,-2.211,-1.706,-9.957,-0.713,-2.642,6.58,-5.46,3.29
,-9.598,-2.075,-1.759,-9.777,-0.998,-2.312,6.58,-5.88,3.85
,-9.696,-1.62,-2.211,-9.773,-1.216,-2.254,7.77,-6.72,3.71
12796.0,-9.775,-1.512,-2.003,-9.605,-1.563,-1.462,1.26,-9.17,3.71
,-9.423,-1.484,-1.977,-9.782,-1.469,-1.567,2.1,-9.17,4.2
,-9.43,-1.522,-1.725,-9.847,-1.606,-1.405,2.38,-9.03,4.41
,-9.426,-1.505,-1.677,-9.61,-1.62,-1.448,2.87,-8.54,4.41
12871.0,-9.66,-1.874,-1.433,-9.643,-1.462,-1.649,3.99,-8.54,5.6
,-9.507,-1.898,-1.534,-9.813,-1.072,-1.771,5.6,-8.54,6.09
,-9.418,-1.737,-1.572,-9.832,-0.735,-1.924,7.28,-8.12,6.23
,-9.471,-1.642,-1.632,-9.799,-0.39,-2.046,7.91,-7.77,6.37
12947.0,-9.799,-0.244,-2.099,-9.806,-0.304,-1.603,5.25,-8.26,5.67
,-9.77,-0.469,-1.759,-9.785,-0.246,-1.735,3.85,-8.05,4.97
,-9.928,-0.342,-1.668,-9.691,-0.05,-1.936,2.94,-8.05,3.78
,-9.938,-0.282,-1.594,-9.739,0.022,-2.034,1.89,-8.4,3.15
13023.0,-9.859,-0.51,-1.598,-9.584,-1.668,-1.371,-2.38,-8.19,1.19
,-9.785,-0.586,-1.764,-9.45,-2.225,-1.139,-2.8,-8.12,0.98
,-9.655,-0.842,-1.697,-9.517,-2.618,-1.029,-2.73,-8.12,0.91
,-9.727,-1.498,-1.005,-9.514,-2.654,-1.106,-3.57,-7.7,1.12
13099.0,-9.624,-2.496,-1.223,-9.777,-1.448,-1.5,2.8,-5.04,6.09
,-9.78,-2.257,-1.309,-9.832,-1.251,-1.45,3.99,-4.55,6.44
,-9.825,-1.881,-1.383,-9.854,-1.046,-1.39,3.99,-4.2,6.51
,-9.809,-1.46,-1.527,-9.904,-0.861,-1.46,3.92,-4.13,6.79
13174.0,-9.861,-0.759,-1.309,-10.005,-0.562,-1.46,1.12,-3.22,5.88
,-9.82,-0.751,-1.395,-9.947,-0.677,-1.51,2.24,-2.73,5.18
,-9.763,-0.677,-1.35,-9.809,-1.024,-1.393,1.96,-2.59,4.97
,-9.854,-0.634,-1.333,-9.746,-1.309,-1.297,2.24,-2.24,4.97
13250.0,-9.837,-1.527,-1.278,-9.943,-1.402,-1.402,2.8,-1.4,4.48
,-9.581,-1.835,-1.173,-10.084,-1.378,-1.515,3.36,-0.98,5.11
,-9.663,-1.826,-1.072,-10.136,-1.33,-1.701,3.99,-0.7,5.25
,-9.832,-1.673,-1.235,-10.033,-1.443,-1.713,5.32,-0.21,5.32
13325.0,-9.864,-1.577,-1.649,-10.002,-1.036,-1.472,6.93,0.98,5.04
,-9.82,-1.484,-1.625,-10.055,-0.943,-1.536,7.91,1.47,5.04
,-9.883,-1.448,-1.479,-9.983,-0.931,-1.575,8.75,1.96,5.18
,-9.983,-1.283,-1.436,-9.885,-0.826,-1.603,9.45,2.38,5.18
13401.0,-9.844,-0.562,-1.776,-10.117,0.069,-1.742,8.4,3.08,3.5
,-9.902,-0.27,-1.78,-9.804,-0.316,-1.668,7.63,3.57,2.8
,-10.041,-0.055,-1.749,-9.627,-0.732,-1.555,6.58,3.85,1.75
,-10.167,0.057,-1.766,-9.914,-0.864,-1.653,5.18,4.13,0.91
13477.0,-10.352,-0.639,-1.965,-9.859,-0.857,-1.855,3.08,6.72,-3.15
,-10.364,-0.407,-2.166,-9.947,-1.211,-1.457,3.08,6.51,-4.13
,-10.002,-0.263,-2.297,-10.024,-1.354,-1.519,1.54,6.23,-5.11
,-9.844,-0.445,-2.125,-10.055,-1.378,-1.778,-0.63,6.44,-5.88
13553.0,-10.029,-1.527,-1.687,-10.005,-1.0,-1.768,-2.8,8.68,-7.98
,-9.887,-1.29,-1.833,-9.988,-0.928,-1.788,-1.68,9.17,-8.19
,-9.787,-1.208,-1.785,-10.098,-1.05,-1.675,-1.26,9.66,-8.4
,-9.938,-1.117,-1.735,-9.725,-1.055,-1.68,-0.63,10.5,-8.47
13629.0,-9.6,-1.359,-1.488,-9.722,-1.989,-1.744,-3.29,12.74,-7.28
,-9.643,-1.357,-1.634,-9.672,-2.178,-1.752,-2.66,13.23,-7.0
,-9.739,-1.531,-1.625,-9.679,-2.156,-1.742,-2.66,13.72,-6.58
,-9.823,-1.799,-1.627,-9.61,-2.268,-1.718,-1.89,13.79,-6.09
13704.0,-9.39,-2.118,-2.187,-9.667,-1.594,-1.871,5.53,16.45,-2.31
,-9.631,-2.233,-1.462,-9.655,-1.417,-1.989,4.06,17.08,-1.61
,-9.643,-1.998,-1.656,-9.627,-1.256,-1.847,4.62,17.22,-1.26
,-9.651,-1.79,-1.725,-9.675,-1.019,-1.835,5.25,17.71,-0.63
13780.0,-9.639,-0.766,-1.9,-9.727,-0.352,-2.199,6.72,17.99,-0.77
,-9.686,-0.694,-2.036,-9.619,-0.39,-2.149,6.72,17.85,-0.98
,-9.785,-0.555,-2.063,-9.569,-0.424,-2.139,6.86,17.71,-1.47
,-9.77,-0.481,-2.072,-9.734,-0.701,-2.087,6.79,17.64,-1.96
13856.0,-9.672,-0.83,-2.178,-9.466,-2.096,-1.898,3.43,17.08,-3.78
,-9.612,-1.098,-2.111,-9.579,-1.996,-1.479,3.08,16.52,-3.85
,-9.663,-1.409,-2.139,-9.244,-2.752,-1.61,1.47,16.45,-4.06
,-9.648,-1.823,-1.898,-9.474,-1.761,-2.539,2.52,16.38,-3.92
13932.0,-9.5,-1.816,-2.331,-9.538,-1.945,-2.443,6.09,16.66,-2.1
,-9.495,-1.914,-2.383,-9.536,-1.644,-2.565,4.97,16.66,-1.4
,-9.466,-1.857,-2.376,-9.665,-1.342,-2.697,5.6,16.66,-0.77
,-9.55,-2.015,-2.371,-9.529,-0.988,-3.013,6.23,16.73,-0.42
14007.0,-9.634,-0.893,-2.91,-9.474,-1.189,-2.998,9.17,16.24,0.28
,-9.612,-1.151,-2.764,-9.452,-1.18,-2.986,7.07,15.96,0.0
,-9.428,-1.017,-2.96,-9.442,-1.364,-2.883,8.26,15.82,-0.14
,-9.438,-1.01,-3.104,-9.454,-1.383,-2.946,7.98,15.89,-0.28
14083.0,-9.426,-1.381,-2.857,-20.51,-1.46,-10.627,6.16,16.59,-0.77
,-9.253,-1.316,-2.907,-5.19,3.448,-8.737,5.95,17.22,-0.56
,-9.407,-1.287,-2.639,-10.522,-1.122,-2.659,5.95,17.71,-0.77
,-9.344,-1.347,-2.682,-9.127,-2.039,-2.005,5.46,17.64,-0.91
14158.0,-9.698,-0.926,-3.034,-9.273,-0.998,-2.747,7.28,9.45,-1.4
,-9.361,-0.926,-2.919,-9.481,-1.292,-2.651,5.81,7.49,-0.98
,-9.414,-1.058,-2.855,-9.44,-1.149,-2.936,4.2,6.44,-0.98
,-9.564,-0.981,-2.816,-9.593,-1.596,-2.692,3.15,5.6,-1.47
14234.0,-9.282,-1.407,-3.183,-9.395,-1.488,-2.41,3.01,1.82,-3.15
,-9.454,-1.268,-3.238,-9.639,-1.759,-2.357,3.57,1.54,-2.66
,-9.299,-1.266,-3.034,-9.478,-1.799,-2.443,2.94,2.03,-2.73
,-9.514,-1.208,-2.635,-9.378,-1.735,-2.362,2.31,2.52,-3.36
14310.0,-9.478,-1.577,-2.383,-9.397,-2.077,-2.087,0.49,-2.31,-2.17
,-9.325,-1.567,-2.565,-9.598,-2.106,-2.087,0.21,-3.08,-1.75
,-9.445,-1.563,-2.3,-9.526,-2.06,-2.297,-0.14,-3.22,-1.4
,-8.947,-1.893,-1.694,-9.45,-1.902,-2.479,-0.35,-3.22,-1.54
14386.0,-9.825,-1.488,-2.63,-9.478,-1.429,-2.974,10.43,-8.68,1.12
,-9.462,-1.51,-2.984,-9.464,-1.35,-2.876,10.71,-10.43,1.19
,-9.452,-1.579,-2.912,-9.727,-1.048,-3.144,9.87,-10.71,1.26
,-9.541,-1.553,-2.905,-9.459,-1.201,-3.046,9.45,-11.83,0.98
14461.0,-9.418,-1.385,-2.864,-9.629,-1.519,-1.826,8.4,-14.35,0.56
,-9.304,-1.448,-2.422,-9.72,-1.421,-1.811,7.28,-12.74,0.42
,-9.385,-1.464,-2.185,-9.56,-1.534,-1.682,7.42,-11.62,0.0
,-9.378,-1.419,-1.974,-9.701,-1.697,-1.57,7.63,-10.5,-0.28
14537.0,-9.174,-1.577,-1.847,-9.342,-1.177,-1.522,6.37,-15.26,-0.28
,-9.241,-1.591,-1.634,-9.342,-1.144,-1.275,8.54,-14.0,-0.14
,-9.414,-1.551,-1.594,-9.543,-1.055,-1.117,10.85,-12.53,-0.07
,-9.356,-1.462,-1.596,-9.521,-1.211,-1.053,12.11,-11.06,-0.21
14613.0,-9.517,-1.29,-0.916,-9.588,-1.335,-1.984,8.05,-2.1,-1.61
,-9.816,-1.359,-1.046,-9.34,-1.409,-2.063,7.35,-2.24,-1.75
,-9.464,-1.448,-1.481,-9.342,-1.531,-1.972,6.86,-3.36,-1.54
,-9.289,-1.393,-1.476,-9.287,-1.771,-1.888,5.95,-2.38,-1.47
14689.0,-9.562,-2.003,-1.821,-9.672,-1.984,-2.568,-1.05,1.89,-2.03
,-9.636,-2.089,-2.108,-9.433,-1.864,-2.57,0.35,2.24,-1.96
,-9.543,-2.048,-2.247,-9.495,-1.876,-2.575,2.03,2.31,-1.61
,-9.519,-1.902,-2.101,-9.529,-1.914,-2.675,2.73,2.66,-1.26
14765.0,-9.457,-2.058,-2.429,-9.541,-1.756,-2.402,2.94,1.68,-0.28
,-9.598,-1.996,-2.292,-9.507,-1.606,-2.276,3.71,2.1,-0.21
,-9.677,-1.931,-2.364,-9.488,-1.615,-2.13,4.9,1.47,-0.14
,-9.619,-1.821,-2.355,-9.526,-1.606,-2.056,5.81,0.77,0.07
14840.0,-9.66,-1.563,-1.955,-9.5,-1.656,-1.374,6.72,1.33,-0.07
,-9.648,-1.484,-1.938,-9.737,-1.747,-1.536,6.65,1.12,-0.21
,-9.529,-1.539,-1.747,-9.619,-1.697,-1.838,5.67,1.47,0.07
,-9.5,-1.536,-1.555,-9.55,-1.62,-2.02,4.97,2.24,0.14
14916.0,-9.464,-1.62,-2.036,-9.569,-1.665,-2.17,7.35,2.1,0.91
,-9.485,-1.67,-2.036,-9.521,-1.613,-2.288,7.14,2.38,0.98
,-9.526,-1.685,-2.17,-9.567,-1.613,-2.254,7.21,2.59,0.77
,-9.438,-1.68,-2.06,-9.454,-1.5,-2.309,7.35,2.59,0.77
14991.0,-9.517,-1.61,-2.072,-9.648,-1.795,-2.046,4.55,2.31,0.49
,-9.557,-1.606,-2.118,-9.555,-1.747,-2.178,3.78,1.54,0.28
,-9.502,-1.783,-2.041,-9.586,-1.828,-2.096,3.29,2.03,0.21
,-9.548,-1.725,-1.974,-9.481,-1.804,-2.144,2.87,2.24,0.07
15067.0,-9.495,-1.859,-2.0,-9.598,-1.759,-1.95,4.34,2.03,0.28
,-9.569,-1.886,-2.022,-9.636,-1.677,-2.132,4.62,2.1,0.21
,-9.569,-1.816,-1.981,-9.564,-1.697,-2.194,5.11,2.31,0.28
,-9.56,-1.759,-1.931,-9.507,-1.735,-2.264,5.25,2.31,0.42
15143.0,-9.512,-1.694,-2.331,-9.545,-1.728,-2.139,4.76,1.75,1.05
,-9.567,-1.675,-2.28,-9.588,-1.732,-2.034,4.48,1.82,0.91
,-9.517,-1.79,-2.266,-9.562,-1.752,-2.012,4.27,1.96,0.77
,-9.56,-1.704,-2.187,-9.598,-1.756,-2.003,3.92,2.03,0.7
15219.0,-9.636,-1.749,-2.087,-9.6,-1.749,-1.974,3.78,1.89,0.63
,-9.514,-1.756,-2.19,-9.598,-1.749,-2.163,3.57,1.82,0.63
,-9.478,-1.711,-2.118,-9.593,-1.675,-2.182,3.15,1.47,0.49
,-9.507,-1.764,-1.986,-9.557,-1.651,-2.18,2.73,1.96,0.42
15294.0,-9.519,-1.697,-2.285,-9.536,-1.797,-1.948,2.17,1.61,0.7
,-9.509,-1.756,-2.312,-9.624,-1.747,-1.96,1.82,1.54,0.63
,-9.476,-1.807,-2.199,-9.579,-1.704,-1.965,1.82,1.68,0.49
,-9.538,-1.802,-2.07,-9.557,-1.697,-1.981,1.96,2.1,0.28
15370.0,-9.514,-1.749,-2.015,-9.619,-1.788,-2.077,1.82,1.47,0.63
,-9.452,-1.807,-2.041,-9.569,-1.677,-2.034,2.1,1.61,0.56
,-9.476,-1.864,-2.01,-9.521,-1.709,-2.039,2.52,1.75,0.56
,-9.545,-1.907,-2.041,-9.529,-1.656,-2.029,3.22,2.1,0.56
15446.0,-9.593,-1.685,-2.146,-9.536,-1.792,-2.094,2.66,2.24,0.56
,-9.548,-1.694,-2.185,-9.488,-1.723,-1.938,2.45,2.03,0.56
,-9.574,-1.723,-2.17,-9.615,-1.694,-2.187,2.03,2.45,0.49
,-9.617,-1.697,-2.223,-9.569,-1.721,-2.17,2.03,2.17,0.42
15522.0,-9.634,-1.802,-2.134,-9.529,-1.871,-2.221,1.89,2.38,0.42
,-9.55,-1.735,-2.257,-9.517,-1.826,-2.192,2.31,2.1,0.49
,-9.514,-1.792,-2.216,-9.564,-1.833,-2.197,2.17,1.96,0.63
,-9.452,-1.852,-2.24,-9.557,-1.754,-2.067,2.17,2.1,0.63
15598.0,-9.615,-1.673,-2.17,-9.603,-1.799,-1.905,2.59,2.52,0.42
,-9.557,-1.752,-1.953,-9.639,-1.747,-2.161,2.03,2.1,0.49
,-9.375,-1.651,-1.912,-9.574,-1.788,-2.18,2.03,2.38,0.63
,-9.615,-1.811,-1.859,-9.564,-1.785,-2.273,1.96,2.31,0.77
15673.0,-9.581,-1.677,-2.192,-9.543,-1.795,-2.194,2.03,2.73,1.05
,-9.509,-1.697,-2.127,-9.562,-1.864,-2.151,2.1,2.8,0.98
,-9.55,-1.732,-2.326,-9.5,-1.773,-2.292,1.96,2.66,0.77
,-9.612,-1.704,-2.345,-9.56,-1.886,-2.108,1.96,2.45,0.56
15749.0,-9.442,-1.764,-2.23,-9.629,-1.833,-2.304,1.75,1.96,0.84
,-9.488,-1.761,-2.364,-9.574,-1.847,-2.084,2.1,1.61,0.7
,-9.538,-1.883,-2.182,-9.536,-1.694,-2.271,1.47,1.54,0.77
,-9.552,-1.855,-2.343,-9.608,-1.797,-2.024,1.33,1.61,0.77
15824.0,-9.598,-1.639,-2.46,-9.624,-1.799,-2.247,1.33,1.05,0.77
,-9.337,-1.802,-2.084,-9.586,-1.816,-2.132,0.63,0.98,0.98
,-9.552,-1.79,-2.106,-9.502,-1.768,-1.945,0.84,0.91,0.91
,-9.655,-1.847,-2.149,-9.663,-1.682,-2.032,0.42,0.77,0.84
15900.0,-9.655,-1.768,-2.419,-9.61,-1.888,-2.084,0.98,1.12,1.19
,-9.584,-1.754,-2.446,-9.543,-1.823,-2.077,1.19,0.84,1.12
,-9.533,-1.788,-2.429,-9.562,-1.701,-2.201,1.26,0.56,1.19
,-9.435,-1.888,-2.185,-9.636,-1.704,-2.204,1.05,0.84,1.33
15976.0,-9.474,-1.718,-2.249,-9.55,-1.855,-2.357,2.45,0.49,1.4
,-9.514,-1.778,-2.312,-9.555,-1.831,-2.326,2.24,0.56,1.4
,-9.552,-1.807,-2.364,-9.383,-1.792,-2.285,2.31,0.35,1.26
,-9.502,-1.9,-2.345,-9.387,-1.692,-2.211,2.73,0.21,1.26
16052.0,-9.667,-1.804,-2.223,-9.452,-1.807,-2.371,3.57,-0.35,1.4
,-9.634,-1.785,-2.34,-9.485,-1.79,-2.316,3.01,-0.7,1.47
,-9.485,-1.752,-2.324,-9.497,-1.778,-2.242,3.22,-0.63,1.4
,-9.605,-1.833,-2.465,-9.552,-1.749,-2.168,2.94,-0.7,1.4
16127.0,-9.586,-1.665,-2.142,-9.631,-1.584,-1.943,2.73,-0.56,1.19
,-9.643,-1.673,-2.063,-9.581,-1.577,-1.941,2.66,-0.63,1.12
,-9.545,-1.67,-1.953,-9.598,-1.586,-1.922,2.52,-0.49,1.12
,-9.586,-1.632,-1.979,-9.636,-1.584,-2.003,2.94,-0.42,1.05
16203.0,-9.579,-1.63,-2.044,-9.505,-1.732,-2.118,3.71,-0.77,1.26
,-9.545,-1.704,-2.103,-9.572,-1.735,-2.091,3.57,-0.84,1.19
,-9.538,-1.709,-2.146,-9.619,-1.704,-2.075,3.5,-0.98,1.05
,-9.505,-1.744,-2.115,-9.605,-1.62,-2.051,3.43,-0.77,0.98
16279.0,-9.574,-1.627,-1.979,-9.646,-1.658,-1.857,3.57,-0.84,0.91
,-9.531,-1.634,-1.907,-9.373,-1.62,-1.862,3.22,-0.91,0.77
,-9.619,-1.644,-1.917,-9.655,-1.613,-1.668,3.29,-0.7,0.84
,-9.598,-1.615,-1.919,-9.49,-1.598,-1.697,3.5,-0.7,0.98
16355.0,-9.572,-1.457,-1.795,-9.574,-1.503,-1.622,1.96,-0.63,1.05
,-9.581,-1.474,-1.673,-9.596,-1.543,-1.732,1.19,-0.77,1.12
,-9.67,-1.484,-1.697,-9.529,-1.539,-1.73,0.35,-1.05,1.12
,-9.663,-1.46,-1.615,-9.5,-1.692,-1.706,-0.7,-1.26,1.19
16430.0,-9.5,-1.85,-1.735,-9.567,-1.948,-1.448,-5.11,-1.26,2.45
,-9.536,-1.929,-1.62,-9.6,-1.845,-1.543,-5.04,-0.7,2.66
,-9.512,-1.893,-1.476,-9.651,-1.91,-1.914,-4.76,0.07,3.22
,-9.543,-1.883,-1.421,-9.438,-1.898,-2.027,-4.41,0.77,3.5
16506.0,-9.517,-1.61,-2.065,-9.684,-2.178,-1.393,-2.73,0.21,4.9
,-9.304,-1.488,-2.099,-9.67,-2.41,-1.527,-4.34,-0.07,5.11
,-9.311,-1.606,-1.895,-9.361,-2.513,-1.433,-6.86,1.05,4.97
,-9.488,-1.962,-1.596,-9.083,-2.498,-1.256,-8.33,2.45,4.76
16581.0,-9.038,-2.611,-0.919,-10.239,-1.007,-2.022,-1.19,5.46,9.73
,-9.143,-2.642,-0.503,-9.318,-0.33,-2.402,1.19,9.1,10.22
,-9.773,-2.312,-0.665,-9.433,0.359,-2.245,6.16,10.71,10.43
,-9.768,-1.821,-0.957,-9.866,0.737,-2.728,10.92,10.22,11.34
16657.0,-9.469,0.543,-2.596,-9.399,-1.173,-2.094,-1.54,4.76,8.82
,-10.158,0.378,-2.419,-9.349,-1.634,-1.56,-6.16,3.99,6.3
,-9.981,0.053,-2.989,-9.56,-1.706,-1.077,-9.45,-0.14,4.48
,-9.304,-0.505,-2.505,-10.124,-1.397,-1.053,-12.88,-2.1,3.43
16733.0,-10.067,-1.098,-1.747,-9.311,-1.63,-2.343,-10.78,2.66,1.75
,-9.653,-0.897,-2.063,-9.548,-2.146,-2.23,-11.55,0.28,2.17
,-9.521,-0.936,-2.718,-9.471,-2.783,-1.981,-13.65,-1.89,1.89
,-8.911,-1.173,-2.893,-9.663,-2.929,-1.826,-15.68,-1.61,1.4
16809.0,-9.306,-2.678,-1.646,-9.899,-2.017,-0.845,-2.31,3.57,0.7
,-9.28,-2.551,-1.015,-9.608,-1.56,-1.211,0.56,6.86,1.68
,-9.507,-2.28,-0.806,-9.526,-1.45,-1.237,2.52,9.87,2.38
,-9.655,-2.201,-0.598,-9.229,-1.129,-2.125,3.99,10.92,2.8
16885.0,-9.433,-1.141,-2.06,-9.957,0.373,-2.788,9.94,4.62,4.48
,-9.562,-0.814,-2.316,-9.782,0.696,-2.804,10.5,3.92,4.06
,-9.531,-0.507,-2.441,-9.895,0.749,-2.867,10.99,3.08,3.57
,-9.899,-0.041,-2.548,-9.816,0.727,-2.759,10.43,2.52,2.73
16960.0,-9.809,0.596,-2.833,-9.289,-1.981,-2.398,-6.72,-3.08,-2.59
,-9.603,-0.053,-2.462,-9.438,-2.302,-2.412,-10.5,-4.13,-4.2
,-9.718,-0.744,-2.367,-9.524,-2.855,-2.209,-12.74,-4.55,-5.74
,-9.378,-1.484,-2.381,-9.684,-2.728,-2.211,-12.53,-4.83,-5.95
17036.0,-9.777,-2.316,-2.651,-9.655,-1.653,-3.154,3.5,-2.66,-2.31
,-9.799,-1.948,-3.082,-9.541,-1.874,-2.781,5.46,-3.5,-1.61
,-9.794,-1.56,-3.312,-9.591,-2.072,-2.455,5.11,-4.27,-0.91
,-9.574,-1.51,-3.403,-9.787,-1.981,-2.343,3.01,-4.69,-0.49
17112.0,-9.672,-1.924,-2.211,-9.742,-1.962,-1.644,3.08,-3.57,-0.56
,-9.806,-1.996,-2.06,-9.469,-1.919,-1.565,3.71,-4.41,0.49
,-9.768,-2.022,-2.106,-9.323,-1.871,-1.553,5.39,-4.97,1.61
,-9.84,-2.034,-1.907,-9.354,-1.893,-1.716,7.35,-4.97,3.08
17188.0,-9.663,-1.955,-1.804,-9.421,-2.19,-1.63,13.02,-6.58,4.55
,-9.703,-2.056,-1.67,-9.478,-1.91,-1.677,12.88,-6.3,4.83
,-9.622,-2.161,-1.496,-9.663,-1.579,-1.907,12.95,-6.16,4.97
,-9.478,-2.211,-1.591,-9.701,-1.441,-2.0,14.35,-6.23,5.67
17263.0,-9.684,-1.366,-1.936,-9.813,-0.809,-2.123,17.92,-5.81,8.05
,-9.653,-1.321,-1.962,-9.761,-0.634,-2.096,16.87,-5.74,7.84
,-9.665,-1.175,-1.96,-9.854,-0.577,-2.072,16.45,-5.74,7.7
,-9.715,-1.053,-1.924,-9.844,-0.658,-1.933,16.38,-5.74,7.56
17339.0,-9.725,-0.579,-1.771,-9.732,0.048,-1.893,11.06,-6.93,4.9
,-9.73,-0.653,-1.807,-9.629,0.148,-1.74,10.57,-7.0,4.41
,-9.873,-0.522,-1.709,-9.694,0.299,-1.622,9.73,-7.14,4.13
,-9.794,0.062,-2.187,-9.876,0.251,-1.498,10.99,-7.56,3.71
17414.0,-9.873,-0.034,-1.235,-9.471,-1.201,-1.491,-1.89,-7.91,-1.05
,-9.835,0.065,-1.625,-9.562,-1.869,-1.122,-2.8,-8.33,-1.47
,-9.825,-0.33,-1.486,-9.433,-2.118,-1.149,-3.99,-8.33,-1.82
,-9.639,-0.715,-1.455,-9.445,-2.345,-1.098,-4.27,-8.54,-1.89
17490.0,-9.555,-2.623,-0.969,-9.572,-1.969,-1.362,-0.14,-5.88,2.45
,-9.526,-2.735,-0.876,-9.646,-1.496,-1.519,0.77,-5.39,3.36
,-9.684,-2.618,-1.015,-9.653,-1.35,-1.644,1.54,-4.76,4.27
,-9.672,-2.615,-0.778,-9.818,-1.18,-1.517,0.56,-4.13,4.9
17566.0,-9.89,-1.213,-1.302,-9.682,-0.926,-1.345,1.61,-3.43,6.58
,-9.782,-1.235,-1.189,-9.859,-0.871,-1.359,1.89,-3.01,6.58
,-9.761,-1.089,-1.187,-9.823,-0.976,-1.309,2.66,-2.8,6.44
,-9.588,-1.103,-1.278,-9.797,-0.955,-1.354,3.85,-2.38,6.65
17642.0,-9.804,-0.907,-1.378,-9.844,-1.036,-1.73,3.5,-1.82,6.02
,-9.792,-0.967,-1.541,-9.887,-1.352,-1.694,2.94,-0.28,5.88
,-9.931,-1.048,-1.558,-9.852,-1.725,-1.493,2.52,-0.84,5.67
,-9.842,-0.826,-1.761,-9.964,-2.113,-1.283,2.73,-1.26,5.6
17718.0,-9.974,-2.101,-1.357,-10.031,-1.053,-2.0,3.64,0.35,6.23
,-9.99,-1.766,-1.721,-10.031,-1.036,-1.929,5.67,0.49,6.72
,-10.012,-1.292,-2.01,-10.036,-1.196,-1.811,7.49,0.7,6.79
,-9.89,-1.096,-2.132,-10.227,-1.096,-1.821,7.07,0.7,6.51
17793.0,-10.223,-1.072,-1.749,-10.002,-0.835,-2.084,4.97,1.54,3.29
,-10.232,-0.768,-1.902,-10.108,-0.809,-2.077,5.18,1.96,3.01
,-10.036,-0.646,-1.969,-10.134,-1.072,-2.115,4.9,2.31,2.45
,-10.024,-0.663,-2.048,-10.1,-1.151,-2.084,3.99,2.52,1.96
17869.0,-9.954,-1.402,-1.838,-10.062,-0.871,-1.783,2.73,4.06,-1.33
,-9.904,-1.268,-1.859,-9.938,-0.632,-1.857,3.08,4.48,-1.96
,-9.95,-1.151,-1.843,-9.83,-0.704,-1.764,3.22,4.76,-2.73
,-10.11,-1.046,-1.828,-9.686,-1.216,-1.376,2.94,5.11,-3.43
17945.0,-9.852,-1.311,-1.464,-9.811,-0.426,-1.974,0.77,8.33,-6.58
,-10.096,-1.192,-1.5,-9.876,-0.536,-1.835,1.33,9.1,-6.79
,-10.06,-0.51,-2.048,-9.998,-0.421,-1.881,3.01,9.45,-7.77
,-9.931,-0.591,-1.838,-9.923,-0.369,-1.938,1.75,10.15,-8.61
18021.0,-9.919,-0.445,-1.974,-9.727,-1.591,-1.766,-6.16,10.43,-9.03
,-9.897,-0.596,-2.015,-9.651,-1.575,-1.823,-7.42,10.64,-9.52
,-9.72,-1.065,-1.819,-9.749,-1.79,-1.713,-8.05,10.99,-10.01
,-9.775,-1.364,-1.833,-9.758,-1.89,-1.701,-7.84,11.34,-9.94
18096.0,-9.856,-2.199,-1.089,-9.643,-2.225,-1.814,-4.48,14.0,-6.72
,-9.682,-2.07,-1.73,-9.557,-2.252,-1.73,-2.59,14.07,-6.23
,-9.734,-2.448,-1.668,-9.471,-2.175,-1.721,-2.24,14.35,-5.46
,-9.615,-2.314,-1.778,-9.366,-2.005,-1.943,-1.47,14.7,-4.62
18172.0,-9.574,-1.895,-1.857,-9.619,-1.321,-1.984,3.15,16.8,-2.1
,-9.627,-1.658,-2.032,-9.608,-1.275,-2.005,4.13,16.87,-1.89
,-9.617,-1.441,-2.082,-9.603,-1.235,-1.972,4.27,16.8,-1.89
,-9.629,-1.352,-1.981,-9.593,-1.082,-2.099,3.92,16.73,-1.96
18247.0,-9.615,-1.053,-2.115,-9.423,-1.486,-1.855,5.04,16.8,-1.4
,-9.555,-1.168,-1.993,-9.691,-1.084,-0.979,4.55,16.52,-1.54
,-9.521,-1.113,-2.127,-9.189,-1.656,-2.087,5.25,16.1,-1.75
,-9.438,-1.402,-1.859,-9.531,-1.366,-2.199,4.97,16.03,-1.82
18323.0,-9.552,-1.395,-2.144,-9.533,-1.687,-2.264,5.53,15.47,-1.12
,-9.423,-1.534,-2.099,-9.5,-1.675,-2.434,5.39,15.68,-0.98
,-9.593,-1.364,-2.087,-9.454,-1.747,-2.618,6.16,15.68,-0.91
,-9.485,-1.491,-2.137,-9.529,-1.749,-2.603,6.09,15.47,-0.91
18399.0,-9.591,-1.771,-2.347,-9.495,-1.275,-3.154,7.21,16.66,0.35
,-9.5,-1.376,-2.757,-9.301,-1.546,-2.871,8.47,16.38,0.63
,-9.576,-1.412,-2.742,-9.383,-1.345,-2.986,8.26,16.03,0.42
,-9.505,-1.34,-3.034,-9.282,-1.295,-3.022,7.77,15.96,0.28
18475.0,-9.493,-1.232,-2.828,-10.175,-1.295,-2.271,6.3,19.53,-0.07
,-9.488,-1.074,-3.01,-9.404,-0.696,-3.266,5.95,19.32,-0.07
,-1.01,4.142,12.166,-9.655,-0.718,-2.565,19.32,-51.8,-7.56
,-8.464,-2.304,-1.134,-9.555,-0.687,-2.675,-10.5,-6.86,-2.52
18550.0,-9.442,-1.029,-2.52,-9.402,-1.223,-2.635,-0.91,8.89,-4.69
,-9.323,-1.062,-2.761,-9.471,-0.912,-3.082,-2.73,7.56,-5.18
,-9.61,-1.022,-2.41,-9.356,-1.189,-2.821,-2.66,6.65,-5.32
,-9.318,-0.983,-2.903,-9.395,-1.479,-2.735,-1.89,5.67,-5.6
18626.0,-9.586,-1.457,-2.752,-9.306,-2.003,-2.185,-3.22,3.29,-6.09
,-9.387,-1.613,-2.582,-9.392,-1.948,-2.434,-4.76,2.24,-6.09
,-9.569,-1.79,-2.137,-9.497,-2.008,-2.627,-4.83,1.96,-6.16
,-9.555,-1.907,-2.132,-9.287,-1.816,-2.781,-4.34,1.05,-6.3
18701.0,-9.409,-1.706,-2.714,-9.215,-2.333,-2.335,-0.21,-5.74,-3.85
,-9.598,-1.941,-2.443,-9.215,-2.12,-2.053,-0.63,-6.86,-3.15
,-9.529,-2.099,-2.481,-9.588,-1.912,-1.701,0.63,-7.98,-2.94
,-9.643,-2.355,-2.359,-10.017,-1.388,-2.242,2.59,-9.73,-2.8
18777.0,-9.296,-1.438,-2.324,-9.526,-1.438,-2.352,10.57,-14.14,-0.07
,-9.308,-1.359,-2.225,-9.56,-1.335,-2.443,9.45,-13.16,0.77
,-9.411,-1.335,-2.154,-9.407,-1.242,-2.178,8.54,-11.55,0.77
,-9.383,-1.412,-2.469,-9.529,-1.318,-1.878,8.75,-11.2,0.0
18853.0,-9.615,-1.371,-1.977,-9.686,-1.575,-1.84,6.58,-12.81,-0.35
,-9.464,-1.642,-1.941,-9.519,-1.421,-1.864,5.6,-14.0,-1.05
,-9.337,-1.601,-2.034,-9.531,-1.572,-1.718,5.74,-14.42,-2.1
,-9.43,-1.646,-1.965,-9.131,-1.783,-1.78,5.39,-14.14,-3.22
18929.0,-9.296,-1.881,-1.307,-9.007,-1.601,-2.041,4.55,-10.57,-2.59
,-9.864,-1.972,-1.577,-9.344,-1.601,-2.23,5.81,-10.29,-2.8
,-9.83,-2.233,-2.187,-9.524,-1.761,-2.257,8.05,-11.97,-2.1
,-9.277,-1.725,-2.24,-9.445,-1.876,-1.926,10.29,-11.76,-1.19
19005.0,-9.428,-1.661,-1.62,-9.732,-1.91,-1.247,8.26,-2.1,-1.4
,-9.541,-1.606,-1.393,-9.61,-1.74,-1.476,7.63,-0.84,-1.26
,-9.488,-1.764,-1.22,-9.529,-1.539,-1.491,7.0,0.35,-1.19
,-9.536,-1.893,-0.998,-9.34,-1.594,-1.481,7.14,1.4,-1.19
19080.0,-9.564,-1.608,-1.709,-9.509,-1.615,-1.57,4.34,2.38,-0.28
,-9.414,-1.665,-1.792,-9.615,-1.721,-1.62,3.71,3.22,-0.63
,-9.517,-1.551,-1.732,-9.629,-1.926,-1.728,2.94,3.85,-1.12
,-9.433,-1.563,-1.768,-9.581,-1.96,-1.855,1.89,4.06,-1.19
19156.0,-9.538,-1.912,-2.19,-9.418,-1.912,-2.175,1.4,4.13,-0.84
,-9.454,-1.977,-2.237,-9.56,-1.926,-2.034,1.89,4.27,-0.84
,-9.416,-2.027,-2.209,-9.663,-1.874,-1.893,2.38,4.9,-1.12
,-9.385,-1.955,-2.319,-9.797,-1.914,-1.919,3.22,5.6,-1.4
19232.0,-9.71,-2.067,-2.168,-9.426,-2.046,-2.484,5.53,4.97,0.07
,-9.584,-2.003,-2.347,-9.485,-1.819,-2.35,6.58,4.2,0.56
,-9.395,-2.003,-2.441,-9.746,-1.756,-2.364,7.28,4.13,0.63
,-9.38,-2.044,-2.469,-9.744,-1.742,-2.438,7.77,4.2,0.35
19308.0,-9.598,-1.878,-2.589,-9.457,-1.883,-2.395,4.76,2.66,0.21
,-9.512,-1.912,-2.608,-9.675,-1.804,-2.381,4.06,2.17,0.56
,-9.416,-1.855,-2.603,-9.663,-1.711,-2.307,3.43,2.03,0.35
,-9.447,-1.835,-2.582,-9.564,-1.749,-2.276,2.45,1.96,-0.14
19383.0,-9.514,-1.807,-2.154,-9.543,-1.977,-1.591,-2.31,1.26,-0.14
,-9.459,-1.886,-2.084,-9.744,-1.981,-1.776,-3.43,1.54,-0.28
,-9.404,-1.984,-2.003,-9.677,-1.936,-1.933,-3.99,1.96,-0.7
,-9.471,-1.991,-1.74,-9.574,-1.945,-2.197,-3.71,2.66,-0.98
19459.0,-9.304,-2.003,-2.199,-9.49,-1.859,-1.333,-2.38,1.61,1.33
,-9.323,-1.926,-2.091,-9.672,-1.807,-1.251,-2.03,2.45,0.77
,-9.378,-1.929,-1.957,-9.672,-1.687,-1.228,-1.47,3.36,0.07
,-9.383,-1.89,-1.687,-9.603,-1.792,-1.4,-0.7,4.48,-0.42
19534.0,-9.584,-1.773,-1.606,-9.581,-1.938,-2.142,1.47,4.06,1.4
,-9.411,-1.902,-1.756,-9.636,-1.948,-2.393,1.68,3.85,1.33
,-9.311,-1.826,-1.862,-9.55,-1.926,-2.623,2.1,4.41,1.05
,-9.395,-1.85,-1.902,-9.442,-1.933,-2.754,2.03,5.25,0.7
19610.0,-9.39,-1.936,-2.843,-9.416,-1.941,-2.788,2.1,3.92,0.7
,-9.438,-2.02,-2.965,-9.447,-1.977,-2.527,2.24,4.06,0.49
,-9.464,-2.027,-3.044,-9.531,-1.91,-2.391,2.24,4.06,0.49
,-9.466,-1.953,-3.017,-9.598,-1.898,-2.34,2.45,3.92,0.42
19686.0,-9.557,-1.845,-2.297,-9.474,-1.948,-1.907,1.54,3.15,0.14
,-9.478,-1.833,-2.166,-9.478,-1.938,-1.931,1.05,2.8,0.21
,-9.445,-1.821,-2.089,-9.521,-1.922,-1.881,0.7,2.94,0.21
,-9.416,-1.883,-1.967,-9.572,-1.91,-2.079,0.49,3.01,0.0
19762.0,-9.509,-1.833,-2.257,-9.356,-2.01,-2.496,1.82,2.66,0.35
,-9.49,-1.819,-2.402,-9.423,-1.96,-2.402,1.68,2.45,0.35
,-9.392,-1.907,-2.498,-9.462,-1.929,-2.324,1.33,2.31,0.28
,-9.387,-1.969,-2.527,-9.593,-1.855,-2.266,1.4,2.52,0.28
19838.0,-9.567,-1.85,-2.333,-9.411,-1.931,-2.491,2.38,3.01,0.42
,-9.55,-1.792,-2.465,-9.416,-2.008,-2.472,2.1,2.52,0.56
,-9.445,-1.902,-2.465,-9.452,-1.931,-2.493,1.61,2.17,0.49
,-9.411,-1.917,-2.508,-9.454,-1.972,-2.395,1.19,2.03,0.49
19913.0,-9.514,-1.876,-2.355,-9.459,-1.977,-2.359,1.68,1.96,0.56
,-9.488,-1.871,-2.374,-9.483,-1.931,-2.316,1.61,1.61,0.63
,-9.43,-1.962,-2.383,-9.45,-1.864,-2.23,1.68,1.68,0.7
,-9.478,-1.962,-2.343,-9.485,-1.843,-2.199,1.89,1.61,0.63
19989.0,-9.488,-1.871,-2.221,-9.442,-1.866,-2.393,2.94,1.54,0.49
,-9.454,-1.869,-2.201,-9.395,-1.929,-2.331,2.66,1.75,0.42
,-9.493,-1.831,-2.252,-9.588,-1.866,-2.458,2.59,1.82,0.42
,-9.55,-1.883,-2.355,-9.526,-1.922,-2.541,2.38,1.75,0.42
20065.0,-9.512,-1.876,-2.563,-9.423,-1.955,-2.443,2.24,1.19,0.49
,-9.392,-1.922,-2.525,-9.466,-1.938,-2.292,1.89,1.19,0.42
,-9.435,-1.929,-2.515,-9.497,-1.929,-2.209,1.82,1.26,0.35
,-9.447,-1.948,-2.548,-9.459,-1.91,-2.233,1.68,1.26,0.28
20141.0,-9.505,-1.855,-2.185,-9.514,-1.965,-2.237,2.24,1.19,0.63
,-9.423,-1.941,-2.166,-9.447,-1.888,-2.261,2.17,1.19,0.63
,-9.464,-1.936,-2.113,-9.495,-1.898,-2.316,2.17,1.19,0.42
,-9.502,-2.015,-2.158,-9.409,-1.9,-2.374,2.66,1.33,0.56
20216.0,-9.452,-1.929,-2.419,-9.493,-1.828,-2.465,2.87,1.33,0.7
,-9.43,-1.886,-2.479,-9.478,-1.895,-2.448,3.08,1.19,0.7
,-9.433,-1.955,-2.414,-9.447,-1.938,-2.448,3.08,1.33,0.63
,-9.509,-1.941,-2.443,-9.435,-1.974,-2.369,3.36,1.33,0.77
20292.0,-9.454,-1.965,-2.211,-9.495,-1.914,-2.134,2.52,1.26,0.7
,-9.507,-1.936,-2.18,-9.478,-1.9,-2.173,2.73,1.4,0.56
,-9.505,-1.881,-2.209,-9.481,-1.922,-2.168,2.87,1.4,0.63
,-9.495,-1.866,-2.113,-9.464,-1.919,-2.268,2.59,1.33,0.7
20367.0,-9.509,-1.948,-2.328,-9.485,-1.926,-2.458,2.45,1.33,0.91
,-9.481,-1.936,-2.35,-9.481,-2.051,-2.465,2.45,1.33,0.91
,-9.521,-1.95,-2.309,-9.442,-1.948,-2.527,2.45,1.4,0.77
,-9.493,-1.953,-2.395,-9.474,-1.895,-2.493,2.52,1.19,0.91
20443.0,-9.497,-1.886,-2.455,-9.464,-1.905,-2.266,3.36,1.05,0.91
,-9.445,-1.907,-2.383,-9.529,-1.922,-2.283,2.94,1.05,0.98
,-9.524,-1.914,-2.383,-9.466,-1.919,-2.257,2.38,0.98,0.98
,-9.466,-1.898,-2.343,-9.421,-1.895,-2.199,2.1,0.84,0.91
20519.0,-9.459,-1.852,-2.182,-9.478,-1.914,-2.376,2.24,1.05,1.05
,-9.505,-1.866,-2.156,-9.457,-1.919,-2.379,2.31,1.19,1.12
,-9.509,-1.859,-2.225,-9.39,-1.95,-2.431,2.24,1.05,1.26
,-9.533,-1.855,-2.276,-9.447,-1.926,-2.379,2.1,1.05,1.26
20595.0,-9.476,-1.907,-2.328,-9.447,-1.857,-2.266,2.87,0.98,0.91
,-9.474,-1.859,-2.326,-9.435,-1.919,-2.206,3.01,1.05,0.84
,-9.497,-1.845,-2.213,-9.485,-1.876,-2.24,2.66,0.91,0.91
,-9.488,-1.835,-2.283,-9.478,-1.869,-2.204,2.38,0.84,0.98
20670.0,-9.517,-1.91,-2.194,-9.481,-1.919,-2.235,1.61,0.7,0.77
,-9.454,-1.898,-2.166,-9.49,-1.917,-2.276,1.4,0.7,0.91
,-9.517,-1.938,-2.221,-9.5,-1.941,-2.357,1.4,0.63,0.84
,-9.471,-1.914,-2.268,-9.493,-1.905,-2.335,1.47,0.7,0.91
20746.0,-9.5,-1.912,-2.369,-9.517,-1.936,-2.192,2.31,0.63,1.12
,-9.421,-1.931,-2.328,-9.533,-1.895,-2.158,2.45,0.7,1.12
,-9.471,-1.953,-2.3,-9.56,-1.79,-2.137,2.45,0.7,1.05
,-9.459,-1.922,-2.235,-9.493,-1.855,-2.213,2.66,0.77,0.98
20822.0,-9.495,-1.871,-2.223,-9.462,-1.922,-2.283,2.31,0.35,1.12
,-9.529,-1.898,-2.304,-9.43,-1.912,-2.276,2.45,0.56,1.26
,-9.457,-1.981,-2.259,-9.471,-1.893,-2.297,2.66,0.7,1.4
,-9.466,-1.962,-2.271,-9.552,-1.9,-2.24,3.15,0.49,1.33
20898.0,-9.555,-1.866,-2.324,-9.454,-1.89,-2.3,3.85,0.21,1.61
,-9.531,-1.926,-2.199,-9.495,-2.005,-2.297,3.57,0.0,1.54
,-9.572,-1.943,-2.204,-9.481,-2.12,-2.352,3.36,-0.35,1.61
,-9.5,-1.938,-2.221,-9.474,-2.13,-2.374,3.85,-0.77,1.82
20974.0,-9.524,-2.142,-2.45,-9.505,-1.728,-2.321,6.65,-2.59,2.1
,-9.459,-1.974,-2.419,-9.471,-1.732,-2.216,7.28,-2.52,1.89
,-9.404,-1.862,-2.472,-9.536,-1.685,-2.029,7.0,-2.59,1.82
,-9.469,-1.718,-2.458,-9.483,-1.721,-1.835,6.16,-3.01,1.61
21049.0,-9.421,-1.718,-1.586,-9.557,-1.823,-1.053,2.31,-2.45,1.33
,-9.471,-1.807,-1.445,-9.442,-1.922,-1.122,2.45,-2.03,1.33
,-9.517,-1.821,-1.187,-9.304,-1.931,-1.249,2.73,-1.54,1.54
,-9.55,-1.828,-1.031,-9.258,-1.924,-1.141,2.94,-1.33,1.89
21125.0,-9.289,-1.852,-1.194,-9.663,-1.682,-2.123,3.92,0.63,3.36
,-9.304,-1.845,-1.141,-9.564,-1.737,-2.575,4.76,1.54,3.08
,-9.634,-1.771,-1.4,-9.531,-1.673,-2.592,5.74,2.1,3.22
,-9.552,-1.792,-1.74,-9.519,-1.768,-2.982,6.44,1.96,3.85
21200.0,-9.404,-1.653,-2.982,-9.978,-1.558,-2.194,6.02,0.84,4.27
,-9.402,-1.563,-2.69,-9.703,-1.637,-2.414,4.13,1.26,3.78
,-9.39,-1.515,-2.448,-9.483,-1.62,-2.17,1.54,1.89,3.36
,-9.552,-1.601,-1.965,-9.49,-1.716,-2.182,-1.26,2.38,2.8
21276.0,-9.33,-1.816,-1.9,-9.818,-1.491,-1.986,-10.15,0.84,2.94
,-9.452,-1.831,-1.536,-9.344,-1.371,-1.919,-11.48,2.31,2.94
,-9.603,-1.89,-1.405,-9.184,-1.405,-1.646,-11.62,3.5,3.08
,-9.811,-1.737,-1.412,-9.17,-1.697,-1.208,-10.71,3.08,3.43
21352.0,-9.564,-2.034,-1.206,-9.363,-1.89,-2.106,-16.87,4.9,5.11
,-9.524,-2.199,-1.407,-9.275,-1.977,-2.087,-14.35,5.18,5.81
,-9.648,-2.053,-1.125,-9.026,-2.144,-1.941,-11.2,6.02,6.72
,-9.856,-1.855,-1.778,-9.246,-2.235,-1.761,-8.26,4.83,6.86
21428.0,-10.081,-2.324,-1.938,-9.433,-0.474,-3.242,-0.42,11.55,10.36
,-10.105,-2.137,-2.556,-9.33,-0.235,-2.958,4.41,8.82,10.99
,-9.82,-1.56,-3.113,-9.665,-0.522,-2.374,9.45,4.83,11.13
,-9.45,-1.039,-3.262,-9.756,-0.304,-2.467,11.41,2.8,10.92
21503.0,-9.371,-0.433,-2.063,-9.856,-0.814,-2.398,0.56,10.57,0.7
,-9.976,-0.586,-1.938,-9.462,-0.96,-2.388,-1.68,9.73,-1.12
,-9.512,-0.715,-1.945,-9.787,-1.039,-2.491,-2.94,6.58,-1.47
,-9.943,-0.759,-1.886,-9.203,-1.476,-2.443,-5.04,3.5,-0.98
21579.0,-9.284,-1.914,-2.185,-9.526,-2.328,-2.01,-11.13,-1.89,-2.03
,-9.34,-2.178,-2.168,-9.325,-2.582,-1.945,-9.66,-0.42,-3.5
,-9.38,-2.276,-2.211,-9.677,-2.556,-1.613,-6.93,0.56,-4.06
,-9.265,-2.376,-2.123,-10.017,-2.192,-1.96,-3.92,1.82,-3.5
21655.0,-9.615,-2.065,-2.194,-9.206,-1.644,-2.398,9.8,-2.03,2.03
,-9.706,-1.783,-2.376,-9.222,-1.823,-2.075,10.43,-2.52,3.08
,-9.411,-1.529,-2.611,-9.667,-1.694,-2.201,10.15,-2.73,3.08
,-9.191,-1.577,-2.558,-9.428,-1.529,-2.426,8.75,-1.68,2.94
21731.0,-9.562,-1.414,-2.321,-9.782,-1.06,-2.381,8.12,0.07,1.26
,-9.658,-1.35,-2.285,-9.732,-0.847,-2.438,8.05,1.19,1.68
,-9.411,-1.278,-2.29,-9.672,-0.536,-2.347,7.63,1.05,1.89
,-9.605,-1.127,-2.17,-9.459,-0.354,-2.24,7.91,0.49,2.24
21806.0,-9.541,-0.299,-1.996,-9.634,-1.091,-2.101,4.97,-2.17,0.77
,-9.56,-0.309,-1.914,-9.433,-1.424,-1.814,2.87,-2.52,-0.14
,-9.622,-0.68,-1.898,-9.162,-1.857,-1.728,0.7,-3.64,-1.47
,-9.809,-0.775,-2.089,-9.189,-2.111,-1.85,0.07,-4.97,-2.73
21882.0,-9.481,-1.821,-2.19,-9.543,-1.79,-2.115,4.41,-6.16,-1.05
,-9.787,-1.799,-2.12,-9.435,-1.986,-2.19,5.11,-6.09,-0.49
,-9.663,-1.747,-2.139,-9.517,-2.398,-2.082,4.76,-6.09,-0.35
,-9.497,-1.766,-2.113,-9.421,-2.625,-2.094,3.85,-6.23,-0.07
21958.0,-9.555,-2.795,-1.955,-9.672,-2.529,-2.185,4.69,-6.51,1.19
,-9.454,-3.204,-1.689,-9.861,-1.716,-2.718,5.32,-5.74,2.31
,-9.538,-3.044,-1.914,-9.964,-1.472,-2.747,9.66,-5.25,3.43
,-9.548,-2.797,-2.012,-9.797,-1.196,-2.735,12.88,-5.11,4.41
22033.0,-9.691,-0.945,-2.635,-9.701,-1.175,-2.335,11.2,-7.07,6.44
,-9.725,-1.067,-2.465,-9.78,-1.474,-2.029,9.03,-7.21,6.09
,-9.749,-1.117,-2.273,-9.658,-1.261,-2.012,7.56,-7.14,5.32
,-9.785,-1.323,-2.094,-9.782,-1.07,-2.3,7.28,-7.35,4.48
22109.0,-9.789,-1.007,-2.357,-9.629,-1.165,-1.823,9.17,-7.63,4.27
,-9.679,-0.962,-2.283,-9.617,-1.261,-1.78,8.33,-7.7,4.13
,-9.689,-1.11,-1.967,-9.643,-1.591,-1.601,7.14,-7.42,3.36
,-9.756,-1.055,-1.943,-9.502,-1.996,-1.409,6.02,-7.63,2.94
22185.0,-9.538,-2.261,-1.555,-9.548,-2.077,-1.601,5.11,-7.7,5.88
,-9.524,-2.522,-1.534,-9.608,-1.84,-1.512,5.81,-7.0,6.93
,-9.433,-2.484,-1.515,-9.653,-1.866,-1.173,6.65,-6.65,8.12
,-9.651,-2.24,-1.685,-9.581,-1.663,-1.211,7.77,-6.51,8.96
22261.0,-9.603,-1.802,-0.873,-9.801,-0.687,-1.694,4.97,-4.76,11.62
,-9.629,-1.546,-1.271,-9.842,-0.433,-1.816,6.44,-4.48,11.62
,-9.73,-1.426,-1.39,-9.887,-0.438,-1.4,7.56,-4.55,11.97
,-9.672,-1.005,-1.515,-9.842,-0.428,-1.778,8.54,-4.41,12.25
22336.0,-9.773,-0.744,-1.517,-9.866,-1.433,-1.543,6.23,-3.43,9.52
,-9.78,-0.775,-1.474,-9.818,-1.539,-1.634,6.23,-3.01,9.1
,-9.897,-0.974,-1.618,-9.675,-1.488,-1.639,6.23,-2.59,8.61
,-9.873,-1.187,-1.625,-9.763,-1.374,-1.756,6.16,-2.45,7.91
22412.0,-9.966,-1.055,-1.804,-9.871,-1.043,-1.438,5.39,-0.91,7.49
,-10.081,-0.864,-1.883,-9.789,-1.129,-1.505,4.83,-0.77,6.79
,-10.189,-0.888,-1.687,-9.725,-1.467,-1.158,2.94,-0.42,5.88
,-9.993,-0.974,-1.515,-9.828,-1.304,-1.785,3.08,-0.07,5.32
22488.0,-9.94,-1.153,-1.744,-9.801,-1.213,-1.658,4.27,1.75,5.53
,-10.134,-1.175,-1.773,-9.619,-1.153,-1.723,4.62,1.96,5.04
,-10.091,-1.271,-1.699,-9.675,-1.094,-1.668,4.9,2.17,4.27
,-10.014,-1.24,-1.642,-10.036,-0.881,-1.783,5.39,2.52,3.92
22564.0,-10.182,-0.548,-2.039,-9.94,-0.725,-2.077,4.06,3.92,0.84
,-10.227,-0.306,-2.285,-10.014,-0.835,-2.036,3.29,4.06,0.63
,-10.11,-0.29,-2.335,-9.911,-0.993,-2.06,2.1,3.92,0.0
,-10.041,-0.474,-2.192,-9.952,-1.103,-1.929,0.91,3.92,-0.7
22639.0,-10.141,-1.314,-1.974,-9.77,-1.536,-1.898,-0.7,4.9,-3.43
,-10.062,-1.45,-1.886,-9.895,-1.405,-1.866,-0.49,4.69,-3.57
,-9.995,-1.68,-1.924,-9.797,-1.603,-1.527,-0.42,4.55,-3.22
,-9.902,-1.687,-1.993,-9.876,-1.395,-1.646,0.28,4.69,-3.22
22715.0,-9.976,-1.254,-1.658,-9.773,-0.558,-1.709,1.61,6.79,-4.69
,-9.909,-1.058,-1.677,-9.751,-0.531,-1.706,1.82,7.07,-4.97
,-9.773,-0.823,-1.811,-9.904,-0.522,-1.737,1.54,7.21,-5.39
,-9.739,-0.744,-1.689,-9.768,-0.723,-1.62,1.33,7.84,-5.95
22790.0,-9.746,-0.897,-1.639,-9.679,-1.476,-1.701,-2.59,9.38,-7.56
,-9.854,-0.962,-1.677,-9.631,-1.5,-1.747,-2.38,9.73,-7.21
,-9.761,-1.082,-1.615,-9.708,-1.541,-1.919,-2.45,10.08,-7.35
,-9.667,-1.359,-1.685,-9.629,-1.589,-2.036,-2.17,10.64,-7.28
22866.0,-9.777,-1.732,-2.091,-9.349,-1.778,-1.675,-1.47,12.32,-4.97
,-9.89,-1.788,-2.039,-9.469,-2.06,-1.953,-1.47,12.46,-4.55
,-9.746,-2.008,-2.012,-9.658,-1.723,-2.127,-1.4,12.95,-4.27
,-9.708,-2.106,-1.965,-9.797,-1.529,-2.28,-1.05,13.37,-3.99
22942.0,-9.854,-1.45,-2.333,-9.677,-1.596,-2.386,0.21,14.14,-3.08
,-9.777,-1.553,-2.259,-9.689,-1.503,-2.376,-0.91,14.49,-3.15
,-9.646,-1.639,-2.266,-9.655,-1.484,-2.319,-0.84,14.56,-3.22
,-9.665,-1.622,-2.185,-9.545,-1.316,-2.266,-0.07,14.7,-3.15
23018.0,-9.478,-1.271,-2.292,-9.588,-1.196,-2.161,3.92,15.47,-2.66
,-9.519,-1.278,-2.132,-9.643,-1.232,-2.111,2.59,15.75,-2.73
,-9.521,-1.285,-2.056,-9.524,-0.972,-2.455,3.01,15.75,-2.87
,-9.557,-1.053,-2.295,-9.509,-1.271,-2.151,3.15,15.61,-2.8
23094.0,-9.653,-1.153,-2.379,-9.371,-1.651,-2.453,2.59,14.98,-3.36
,-9.682,-1.508,-2.113,-9.399,-1.778,-2.297,2.94,14.49,-3.15
,-9.459,-2.376,-2.06,-9.296,-1.785,-2.381,-1.54,14.28,-1.82
,-9.517,-1.699,-2.34,-9.38,-1.811,-2.158,2.66,14.07,-2.03
23169.0,-9.44,-1.62,-2.278,-9.481,-1.527,-2.462,2.87,14.77,-2.59
,-9.363,-1.632,-2.431,-9.636,-1.601,-2.268,2.24,14.56,-2.52
,-9.373,-1.493,-2.479,-9.49,-1.082,-2.721,1.61,15.12,-2.24
,-9.519,-1.543,-2.391,-9.466,-0.936,-2.996,0.98,15.4,-2.24
23245.0,-9.361,-1.283,-2.501,-9.407,-1.766,-2.874,-0.56,14.63,-2.38
,-9.402,-0.964,-3.108,-9.411,-2.0,-2.867,0.56,14.63,-2.8
,-9.342,-1.249,-3.044,-9.402,-1.998,-2.826,-0.28,14.84,-3.01
,-9.301,-1.589,-2.953,-36.176,-2.539,-17.55,-0.77,15.61,-3.29
23321.0,-5.793,0.952,-7.377,-9.225,-1.888,-3.185,6.79,2.17,-4.2
,-10.366,-3.046,-1.452,-9.363,-2.101,-3.072,-4.62,10.57,-2.38
,-8.873,-1.761,-3.869,-9.363,-2.132,-2.757,2.17,10.01,-2.24
,-9.363,-2.19,-2.931,-9.45,-1.632,-2.828,2.94,9.87,-1.96
23397.0,-9.32,-1.479,-2.804,-9.435,-1.498,-2.388,4.13,8.12,-1.4
,-9.562,-1.28,-2.793,-9.474,-1.426,-2.386,1.89,7.07,-0.77
,-9.373,-1.328,-2.525,-9.82,-1.33,-2.601,1.05,6.44,-0.63
,-9.27,-1.431,-2.35,-9.15,-1.062,-2.915,0.07,6.37,-0.63
23472.0,-9.119,-1.326,-2.419,-9.753,-1.244,-2.096,-1.47,-2.45,0.21
,-9.122,-1.259,-2.359,-9.598,-1.228,-2.426,-0.63,-1.33,-0.28
,-9.596,-1.206,-2.173,-9.186,-1.575,-2.168,-0.7,-0.49,-1.26
,-9.505,-1.189,-2.218,-9.282,-1.675,-2.132,-0.49,-1.26,-1.89
23548.0,-9.71,-1.876,-1.814,-9.17,-1.457,-2.883,-2.8,-8.68,-0.77
,-9.636,-1.788,-2.228,-9.234,-1.295,-2.52,-0.42,-9.38,-1.05
,-9.593,-1.893,-2.515,-9.457,-1.153,-2.453,2.17,-10.99,-1.33
,-9.459,-1.694,-2.922,-9.502,-1.517,-2.364,4.83,-13.09,-1.26
23623.0,-9.256,-1.845,-1.878,-9.442,-1.385,-2.156,-0.77,-10.57,-1.26
,-9.574,-1.804,-1.728,-9.323,-1.335,-1.996,0.63,-10.78,-1.47
,-9.576,-1.62,-1.962,-9.21,-1.606,-2.044,2.87,-12.18,-0.98
,-9.624,-1.541,-2.151,-9.273,-1.876,-1.926,4.83,-13.79,-0.42
23699.0,-9.658,-1.843,-2.087,-9.356,-1.711,-2.572,5.81,-9.59,-1.61
,-9.531,-1.804,-2.156,-9.038,-1.697,-2.455,8.26,-10.43,-1.4
,-9.868,-1.668,-2.326,-9.16,-1.637,-2.347,9.8,-11.41,-0.7
,-9.627,-1.642,-2.496,-9.67,-1.644,-2.168,10.29,-13.09,0.35
23775.0,-9.648,-1.606,-2.211,-9.048,-1.445,-2.302,13.44,-7.07,-2.17
,-9.852,-1.17,-2.316,-9.38,-1.572,-2.07,14.21,-7.7,-1.82
,-9.608,-1.271,-2.615,-9.574,-1.589,-2.094,13.02,-8.68,-1.4
,-9.249,-1.28,-2.532,-9.751,-1.615,-2.065,11.06,-7.63,-1.26
23851.0,-9.682,-1.543,-2.19,-9.395,-1.972,-2.051,7.7,-3.01,-3.29
,-9.488,-1.531,-1.922,-9.258,-1.969,-2.012,6.37,-2.52,-3.01
,-9.378,-1.709,-1.953,-9.457,-1.926,-1.814,4.48,-1.61,-3.01
,-9.418,-1.972,-2.144,-9.43,-1.814,-1.625,3.71,-1.47,-2.94
23926.0,-9.438,-1.833,-1.364,-9.404,-1.682,-1.649,5.81,3.01,-3.01
,-9.694,-1.795,-1.23,-9.246,-1.754,-1.524,6.58,3.71,-2.66
,-9.61,-1.804,-1.242,-9.103,-1.905,-1.491,7.28,3.85,-2.24
,-9.698,-1.649,-1.455,-9.258,-1.895,-1.216,7.63,3.36,-1.89
24002.0,-9.579,-1.945,-1.034,-9.392,-1.953,-2.156,4.13,8.47,-2.38
,-9.887,-1.948,-1.139,-9.292,-2.173,-2.386,4.48,8.4,-1.89
,-9.77,-1.828,-1.371,-9.241,-2.307,-2.51,4.41,7.42,-0.98
,-9.682,-1.768,-1.847,-9.241,-2.154,-2.434,3.57,6.58,-0.28
24078.0,-9.574,-1.991,-2.529,-9.407,-1.974,-2.635,7.35,8.61,-0.56
,-9.713,-1.835,-2.63,-9.356,-2.063,-2.577,7.56,7.98,-0.28
,-9.596,-1.809,-2.565,-9.509,-2.012,-2.536,6.72,6.93,0.14
,-9.469,-1.859,-2.654,-9.557,-1.914,-2.582,5.6,6.44,0.49
24154.0,-9.55,-1.799,-2.491,-9.447,-1.802,-2.168,4.69,5.46,0.28
,-9.545,-1.737,-2.623,-9.564,-1.78,-2.178,3.85,5.11,0.49
,-9.378,-1.737,-2.453,-9.653,-1.675,-2.249,2.87,4.9,0.35
,-9.306,-1.778,-2.254,-9.56,-1.709,-2.257,1.89,5.11,0.0
24230.0,-9.359,-1.79,-2.292,-9.627,-1.945,-2.498,-1.89,3.78,0.28
,-9.299,-1.866,-2.201,-9.476,-1.936,-2.474,-2.66,4.34,0.07
,-9.462,-2.032,-2.288,-9.505,-1.943,-2.651,-2.73,4.76,-0.07
,-9.469,-2.063,-2.376,-9.354,-1.984,-2.682,-2.17,4.76,-0.07
24305.0,-9.423,-1.943,-2.627,-9.488,-1.929,-2.505,0.63,3.36,0.42
,-9.414,-1.933,-2.67,-9.407,-1.845,-2.527,1.12,3.64,0.14
,-9.457,-1.922,-2.57,-9.43,-1.802,-2.407,1.33,3.99,-0.07
,-9.552,-1.919,-2.577,-9.308,-1.795,-2.426,1.61,3.85,0.0
24381.0,-9.347,-1.742,-2.247,-9.502,-1.89,-1.917,1.12,3.5,-0.49
,-9.416,-1.79,-2.022,-9.512,-1.888,-2.125,0.42,3.99,-0.56
,-9.5,-1.838,-1.907,-9.428,-1.945,-2.324,-0.07,3.99,-0.56
,-9.495,-1.823,-1.859,-9.344,-1.941,-2.536,-0.42,3.85,-0.49
24456.0,-9.316,-1.924,-2.663,-9.44,-1.914,-2.864,-1.12,3.15,-0.07
,-9.375,-1.965,-2.757,-9.392,-1.989,-2.874,-1.26,3.43,-0.14
,-9.452,-1.993,-2.766,-9.347,-2.005,-2.785,-1.12,3.15,-0.21
,-9.447,-1.945,-2.783,-9.347,-2.034,-2.733,-0.98,2.87,-0.28
24532.0,-9.373,-2.07,-2.625,-9.407,-1.912,-2.479,1.26,3.01,-0.28
,-9.464,-2.089,-2.527,-9.34,-1.96,-2.496,1.89,3.08,-0.21
,-9.469,-1.993,-2.474,-9.359,-1.967,-2.434,2.31,2.8,0.0
,-9.533,-1.953,-2.513,-9.395,-1.941,-2.412,2.31,2.31,0.07
24608.0,-9.442,-1.912,-2.328,-9.423,-1.91,-2.469,2.52,2.45,0.21
,-9.505,-1.869,-2.355,-9.442,-1.898,-2.527,2.52,2.31,0.42
,-9.474,-1.888,-2.386,-9.414,-1.886,-2.513,2.66,2.24,0.49
,-9.397,-1.828,-2.491,-9.39,-1.876,-2.493,2.52,2.17,0.42
24684.0,-9.442,-1.938,-2.469,-9.505,-2.012,-2.503,2.24,2.8,0.0
,-9.375,-1.926,-2.45,-9.418,-2.058,-2.615,2.17,2.87,-0.07
,-9.351,-1.881,-2.417,-9.44,-2.036,-2.704,2.52,3.01,0.0
,-9.454,-1.967,-2.474,-9.387,-1.991,-2.726,2.87,3.29,-0.14
24759.0,-9.368,-1.989,-2.737,-9.421,-1.95,-2.458,3.43,2.45,0.28
,-9.342,-1.933,-2.63,-9.452,-1.838,-2.374,3.29,2.8,0.21
,-9.407,-1.924,-2.594,-9.442,-1.857,-2.364,3.08,2.94,0.21
,-9.414,-1.902,-2.525,-9.457,-1.914,-2.393,3.08,2.87,0.28
24835.0,-9.39,-1.981,-2.465,-9.435,-2.063,-2.472,2.31,2.73,0.49
,-9.356,-2.027,-2.388,-9.409,-1.902,-2.587,2.1,2.8,0.63
,-9.34,-2.072,-2.458,-9.411,-1.819,-2.503,2.45,3.15,0.7
,-9.44,-2.111,-2.465,-9.483,-1.866,-2.501,3.22,3.15,0.7
24910.0,-9.325,-1.835,-2.544,-9.349,-1.859,-2.541,3.08,3.57,0.77
,-9.466,-1.845,-2.505,-9.399,-1.941,-2.539,2.8,3.78,0.77
,-9.442,-1.957,-2.472,-9.378,-1.979,-2.455,2.45,3.78,0.7
,-9.407,-1.929,-2.56,-9.356,-1.996,-2.577,2.38,3.36,0.84
24986.0,-9.43,-1.993,-2.601,-9.361,-1.984,-2.809,1.89,3.57,0.63
,-9.435,-1.933,-2.599,-9.34,-1.89,-2.769,1.89,3.22,0.77
,-9.442,-1.979,-2.682,-9.366,-1.972,-2.745,1.89,2.94,0.91
,-9.409,-1.986,-2.728,-9.378,-1.938,-2.783,2.1,3.22,0.84
25062.0,-9.385,-1.95,-2.718,-9.38,-1.943,-2.613,1.96,2.66,0.84
,-9.359,-1.984,-2.651,-9.38,-2.01,-2.534,1.82,2.59,0.77
,-9.404,-1.941,-2.596,-9.347,-1.986,-2.575,1.89,2.45,0.7
,-9.397,-1.919,-2.649,-9.44,-1.96,-2.584,2.03,2.45,0.84
25138.0,-9.423,-1.888,-2.608,-9.347,-1.948,-2.678,2.24,2.24,0.91
,-9.371,-1.948,-2.637,-9.375,-1.926,-2.615,1.96,2.31,1.05
,-9.387,-1.969,-2.668,-9.407,-1.917,-2.656,1.75,2.1,0.91
,-9.392,-1.96,-2.699,-9.409,-1.943,-2.67,1.89,2.1,0.91
25214.0,-9.356,-1.945,-2.582,-9.323,-1.945,-2.601,1.96,1.96,0.98
,-9.34,-1.922,-2.642,-9.373,-1.938,-2.642,1.96,1.96,0.91
,-9.404,-1.919,-2.637,-9.404,-1.969,-2.697,1.96,2.03,1.05
,-9.349,-1.936,-2.618,-9.387,-1.948,-2.697,1.82,1.89,1.05
25289.0,-9.349,-1.931,-2.67,-9.373,-1.85,-2.656,2.17,1.75,1.05
,-9.392,-1.902,-2.663,-9.397,-1.888,-2.627,2.17,1.75,1.12
,-9.407,-1.9,-2.642,-9.38,-1.89,-2.572,2.03,1.68,1.05
,-9.366,-1.89,-2.635,-9.387,-1.957,-2.584,2.03,1.75,0.98
25365.0,-9.435,-1.938,-2.486,-9.397,-1.864,-2.625,1.61,1.75,1.05
,-9.416,-1.912,-2.517,-9.39,-1.89,-2.699,2.1,1.96,0.98
,-9.423,-1.89,-2.57,-9.359,-1.95,-2.718,2.1,1.61,0.91
,-9.361,-1.847,-2.582,-9.311,-1.977,-2.709,1.96,1.54,1.05
25441.0,-9.249,-1.914,-2.642,-9.349,-1.893,-2.57,1.68,1.54,0.77
,-9.462,-1.888,-2.687,-9.392,-1.89,-2.52,1.96,1.68,0.7
,-9.423,-1.859,-2.694,-9.284,-1.886,-2.527,1.82,1.4,0.77
,-9.373,-1.843,-2.627,-9.442,-1.907,-2.481,1.4,1.47,0.91
25517.0,-9.493,-1.9,-2.458,-9.385,-1.888,-2.79,1.26,1.96,0.77
,-9.45,-1.912,-2.615,-9.359,-1.977,-2.773,1.26,1.96,0.77
,-9.244,-1.878,-2.429,-9.452,-1.895,-2.814,1.05,2.1,0.84
,-9.445,-1.917,-2.728,-9.392,-1.938,-2.85,1.26,1.54,0.91
25592.0,-9.359,-1.922,-2.814,-9.395,-1.898,-2.702,2.1,1.54,0.77
,-9.366,-1.917,-2.776,-9.397,-1.876,-2.627,2.24,1.47,1.05
,-9.404,-1.907,-2.757,-9.395,-1.866,-2.611,2.17,1.19,0.98
,-9.373,-1.876,-2.723,-9.397,-1.835,-2.551,2.1,1.12,0.91
25668.0,-9.404,-1.802,-2.548,-9.435,-1.953,-2.69,1.33,0.91,0.84
,-9.442,-1.819,-2.563,-9.332,-1.84,-2.714,1.12,0.91,0.91
,-9.397,-1.893,-2.58,-9.521,-1.948,-2.659,0.77,0.77,0.91
,-9.387,-1.878,-2.594,-9.225,-1.914,-2.632,0.63,1.05,1.05
25743.0,-9.478,-1.914,-2.666,-9.43,-1.922,-2.776,1.19,0.21,1.05
,-9.454,-1.95,-2.79,-9.342,-2.027,-2.666,1.26,0.49,1.19
,-9.45,-1.967,-2.714,-9.435,-2.108,-2.673,1.33,-0.14,1.4
,-9.363,-1.888,-2.757,-9.375,-2.048,-2.639,1.82,-0.49,1.47
25819.0,-9.328,-1.826,-2.649,-9.395,-2.206,-2.857,3.71,-2.03,2.03
,-9.33,-1.933,-2.582,-9.359,-2.113,-3.005,3.43,-2.17,1.89
,-9.366,-2.125,-2.651,-9.273,-2.01,-3.094,3.29,-2.24,2.24
,-9.445,-2.261,-2.706,-9.237,-1.924,-3.072,4.13,-2.66,2.52
25895.0,-9.359,-1.967,-2.991,-9.409,-1.883,-2.505,6.16,-3.5,2.38
,-9.383,-1.993,-2.845,-9.399,-1.905,-2.453,5.88,-3.71,2.38
,-9.454,-1.993,-2.776,-9.428,-1.883,-2.302,6.02,-4.06,2.45
,-9.418,-2.01,-2.608,-9.363,-1.816,-2.242,6.23,-4.69,2.45
25971.0,-9.378,-1.735,-2.084,-9.361,-1.744,-1.902,5.25,-5.25,1.96
,-9.481,-1.759,-2.125,-9.385,-1.742,-1.785,4.69,-5.32,1.89
,-9.44,-1.792,-2.041,-9.438,-1.689,-1.804,4.27,-5.25,1.96
,-9.476,-1.776,-2.005,-9.385,-1.749,-1.713,4.27,-4.97,2.17
26046.0,-9.366,-1.792,-1.474,-9.593,-1.687,-1.955,3.85,-2.1,2.45
,-9.576,-1.732,-1.572,-9.392,-1.721,-2.015,3.78,-1.68,2.59
,-9.512,-1.788,-1.689,-9.328,-1.661,-1.898,3.78,-1.61,2.94
,-9.519,-1.776,-1.575,-9.481,-1.534,-1.816,3.71,-0.91,3.36
26122.0,-9.543,-1.596,-1.996,-9.555,-1.866,-3.015,-0.49,1.75,3.78
,-9.725,-1.567,-2.304,-9.557,-1.864,-3.24,-0.56,0.63,4.06
,-9.552,-1.658,-2.625,-9.418,-1.713,-3.293,-1.19,-0.63,4.48
,-9.509,-1.821,-2.764,-9.677,-1.57,-3.381,-2.45,-1.19,4.62
26198.0,-9.584,-1.46,-3.403,-9.842,-1.991,-2.649,-6.02,-4.27,3.29
,-9.459,-1.448,-3.197,-9.82,-2.091,-2.747,-8.33,-4.76,3.01
,-9.447,-1.594,-3.015,-9.497,-1.912,-2.764,-10.92,-4.69,2.87
,-9.476,-1.823,-2.63,-9.21,-1.637,-2.455,-12.39,-4.06,2.87
26274.0,-9.201,-1.565,-2.096,-9.624,-1.998,-1.163,-8.89,-5.6,3.57
,-9.347,-1.816,-1.807,-9.643,-1.84,-1.242,-9.38,-4.34,3.15
,-9.426,-2.012,-1.606,-9.73,-1.627,-1.204,-8.47,-3.43,3.36
,-9.43,-2.094,-1.333,-9.943,-1.457,-1.785,-6.44,-2.38,3.85
26350.0,-9.514,-1.189,-2.046,-9.241,-1.261,-1.694,6.16,-2.31,6.86
,-9.521,-0.876,-2.379,-9.897,-1.199,-1.926,6.09,-3.22,6.86
,-9.052,-0.893,-2.304,-9.701,-1.194,-1.965,3.78,-2.1,6.58
,-8.954,-1.077,-1.948,-9.701,-0.838,-1.799,0.98,1.19,5.67
26425.0,-9.474,-0.821,-1.826,-9.876,-1.297,-1.424,2.1,6.3,1.54
,-9.459,-0.763,-1.534,-10.122,-1.469,-1.735,-0.77,7.63,1.33
,-9.438,-0.847,-1.546,-9.517,-1.682,-1.986,-3.36,9.52,0.77
,-9.296,-1.223,-1.256,-9.273,-1.814,-2.156,-6.09,12.04,0.14
26501.0,-9.074,-2.06,-1.907,-9.299,-1.831,-2.374,-4.55,2.87,0.84
,-9.792,-2.572,-1.799,-9.273,-1.737,-2.261,-2.94,4.62,0.07
,-9.789,-2.596,-2.115,-9.28,-1.804,-1.953,1.33,2.31,0.84
,-9.194,-2.379,-2.268,-9.916,-1.56,-1.804,6.09,0.7,2.52
26576.0,-10.223,-1.342,-2.173,-9.543,-1.488,-2.357,10.01,8.12,0.21
,-9.552,-1.474,-2.405,-9.617,-1.74,-2.285,9.94,3.92,1.12
,-9.624,-1.302,-2.848,-9.476,-1.838,-2.453,9.52,1.12,1.82
,-9.246,-1.232,-2.883,-9.615,-1.314,-2.788,7.63,-0.07,2.31
26652.0,-9.39,-1.036,-2.709,-9.895,-1.067,-2.29,6.65,-4.34,1.82
,-9.363,-0.845,-2.429,-9.67,-1.448,-2.73,4.27,-1.96,1.54
,-9.38,-1.017,-2.032,-9.56,-1.821,-2.936,1.82,0.56,0.56
,-9.916,-0.866,-1.845,-9.325,-2.053,-2.632,1.33,0.35,-0.77
26728.0,-9.442,-2.23,-2.34,-9.61,-2.051,-2.362,0.35,-2.87,0.35
,-9.407,-2.644,-2.106,-9.514,-1.283,-2.448,3.43,-3.43,1.54
,-9.505,-2.737,-2.058,-9.555,-0.89,-2.436,7.07,-4.62,2.59
,-9.639,-2.565,-2.161,-9.368,-1.005,-2.34,10.29,-5.88,3.08
26804.0,-9.696,-1.132,-2.235,-9.447,-1.393,-2.041,3.01,-9.03,0.91
,-9.686,-0.969,-2.711,-9.423,-1.756,-1.644,2.59,-10.85,0.42
,-9.727,-1.254,-2.431,-9.452,-1.831,-1.742,1.05,-11.06,0.28
,-9.672,-1.271,-2.345,-9.507,-1.843,-1.579,0.49,-10.64,0.0
26879.0,-9.71,-1.723,-1.548,-9.586,-0.821,-2.261,8.54,-7.56,2.1
,-9.531,-1.407,-1.711,-9.612,-1.091,-2.087,9.59,-7.56,2.45
,-9.643,-1.0,-1.682,-9.698,-1.431,-1.962,9.1,-7.77,2.8
,-9.703,-0.749,-1.807,-9.418,-1.821,-1.91,7.35,-8.61,2.17
26955.0,-9.452,-2.115,-1.826,-9.655,-2.161,-1.625,0.21,-10.43,0.28
,-9.543,-2.144,-1.933,-9.71,-1.785,-1.783,1.54,-10.36,0.84
,-9.581,-2.067,-1.962,-9.734,-1.831,-1.957,3.57,-10.01,1.61
,-9.548,-2.175,-1.704,-9.756,-1.74,-2.149,3.57,-9.59,2.38
27031.0,-9.751,-1.919,-1.981,-9.684,-1.254,-1.979,4.9,-9.59,4.06
,-9.72,-1.881,-1.902,-9.732,-1.223,-1.941,4.9,-9.45,4.34
,-9.761,-1.754,-1.883,-9.641,-1.244,-1.831,5.11,-9.59,4.48
,-9.734,-1.285,-2.099,-9.636,-1.225,-1.634,6.23,-9.66,4.69
27107.0,-9.548,-0.926,-1.675,-9.73,-1.261,-1.393,2.8,-9.31,3.78
,-9.804,-0.749,-1.816,-9.596,-1.682,-1.153,1.96,-9.31,2.73
,-9.725,-0.778,-1.795,-9.557,-1.862,-0.909,0.56,-9.17,1.89
,-9.832,-0.919,-1.68,-9.383,-2.163,-1.024,-0.28,-9.31,1.47
27183.0,-9.423,-2.455,-0.945,-9.689,-2.405,-1.433,3.5,-7.07,4.55
,-9.581,-2.443,-1.113,-9.648,-2.199,-1.464,5.81,-6.86,5.53
,-9.641,-2.424,-1.409,-9.665,-2.3,-1.302,6.79,-6.58,6.65
,-9.746,-2.536,-1.457,-9.603,-2.041,-1.362,7.91,-6.09,7.56
27258.0,-9.682,-1.862,-1.397,-9.907,-0.871,-1.653,9.73,-4.13,8.96
,-9.847,-1.484,-1.651,-9.866,-0.503,-1.768,10.22,-3.64,8.75
,-9.95,-1.161,-1.68,-10.014,-0.361,-1.754,9.8,-3.22,8.68
,-9.904,-0.914,-1.692,-10.031,-0.493,-1.646,8.96,-2.87,8.4
27334.0,-10.031,-0.462,-1.663,-9.911,-1.096,-1.835,6.3,-0.35,6.3
,-9.914,-0.79,-1.527,-9.986,-1.137,-1.847,4.55,0.28,5.46
,-9.923,-0.763,-1.704,-9.957,-1.151,-1.874,4.76,0.98,4.76
,-9.926,-1.041,-1.675,-9.952,-1.302,-1.835,4.27,1.54,4.06
27409.0,-9.976,-1.39,-1.742,-9.868,-1.493,-1.527,0.49,4.48,0.14
,-10.029,-1.651,-1.541,-9.713,-1.34,-1.723,-0.21,5.11,-0.21
,-9.866,-1.766,-1.369,-9.667,-1.268,-1.924,-0.21,5.74,-0.7
,-10.01,-1.692,-1.462,-9.725,-1.421,-1.89,0.7,6.3,-1.05
27485.0,-9.928,-1.816,-1.658,-9.842,-1.855,-1.785,1.12,10.29,-0.91
,-9.811,-1.924,-1.598,-9.749,-1.972,-1.689,1.54,11.34,-1.33
,-9.859,-1.931,-1.649,-9.864,-1.957,-1.68,1.96,12.25,-1.61
,-9.868,-1.862,-1.754,-9.866,-1.792,-1.675,2.31,12.6,-1.61
27561.0,-9.866,-1.491,-1.651,-9.694,-0.993,-1.56,3.22,16.52,-1.19
,-9.773,-1.357,-1.548,-9.686,-1.096,-1.63,2.87,17.22,-1.05
,-9.785,-1.168,-1.627,-9.627,-1.156,-1.68,3.01,17.64,-0.77
,-9.653,-1.017,-1.591,-9.6,-1.129,-1.785,2.66,17.85,-0.35
27637.0,-9.636,-1.11,-1.857,-9.825,-1.283,-1.969,0.98,19.88,0.42
,-9.73,-1.187,-1.979,-9.698,-1.503,-1.941,0.77,20.02,0.35
,-9.801,-1.115,-2.101,-9.689,-1.309,-2.247,0.7,20.37,0.14
,-9.811,-1.103,-2.008,-9.691,-1.326,-2.371,0.21,20.51,-0.35
27712.0,-9.751,-1.249,-2.493,-9.6,-1.354,-2.572,-0.35,21.0,-1.26
,-9.749,-1.33,-2.56,-9.564,-1.34,-2.647,-0.84,20.86,-1.33
,-9.751,-1.311,-2.716,-9.672,-1.474,-2.536,-1.19,20.58,-1.47
,-9.672,-1.321,-2.618,-9.732,-1.287,-2.733,-1.47,20.58,-2.1
27788.0,-9.782,-1.151,-2.862,-9.435,-1.445,-2.685,-2.03,19.18,-3.01
,-9.73,-1.199,-2.898,-9.378,-1.548,-2.563,-2.87,18.69,-3.22
,-9.631,-1.333,-2.812,-9.507,-1.548,-2.498,-3.99,18.55,-3.5
,-9.495,-1.488,-2.726,-9.576,-1.333,-2.819,-3.08,18.83,-3.57
27864.0,-9.543,-1.452,-2.594,-9.409,-1.46,-2.742,-0.28,18.13,-2.66
,-9.533,-1.481,-2.733,-9.49,-1.278,-2.895,-0.28,18.06,-2.45
,-9.402,-1.527,-2.788,-9.603,-1.347,-2.869,0.07,18.13,-2.17
,-9.459,-1.481,-2.776,-9.335,-1.46,-2.745,-0.07,17.99,-1.89
27940.0,-9.385,-1.512,-2.757,-9.402,-1.553,-2.845,-2.03,17.57,-3.01
,-9.323,-1.364,-2.874,-9.306,-1.476,-3.003,-1.96,17.92,-2.66
,-9.495,-1.555,-2.714,-9.215,-1.433,-2.917,-2.17,17.78,-2.24
,-9.287,-1.634,-2.845,-9.239,-1.311,-2.986,-1.68,18.06,-1.75
28015.0,-26.923,-0.481,-19.954,-9.251,-1.649,-2.771,15.05,-30.24,-7.77
,-6.832,-0.711,-4.405,-9.22,-1.606,-2.764,-7.42,0.07,-4.2
,-10.182,-2.312,-1.697,-9.562,-1.778,-2.735,-7.0,14.0,-2.59
,-9.036,-1.385,-3.36,-9.337,-1.529,-2.84,0.35,13.44,-2.73
28091.0,-9.385,-1.275,-2.733,-9.433,-1.218,-2.469,3.01,12.11,-1.4
,-9.275,-1.369,-2.692,-9.404,-1.362,-2.632,2.31,11.97,-1.68
,-9.215,-1.464,-2.592,-9.332,-1.35,-2.737,1.82,11.83,-2.73
,-9.289,-1.508,-2.426,-9.328,-1.07,-2.702,1.89,11.69,-3.57
28166.0,-9.213,-1.072,-2.498,-9.277,-1.182,-3.061,2.17,9.38,-2.31
,-9.579,-1.067,-2.493,-9.397,-1.117,-3.159,1.68,9.03,-2.52
,-9.493,-1.405,-2.57,-9.28,-1.149,-3.226,1.47,7.7,-3.15
,-9.397,-1.653,-2.364,-9.16,-1.486,-3.223,-1.12,5.53,-3.22
28242.0,-9.282,-1.802,-3.001,-9.416,-1.29,-3.139,-0.21,1.26,-2.38
,-9.244,-1.754,-3.149,-9.483,-1.371,-3.072,1.33,0.35,-2.1
,-9.512,-1.522,-3.08,-9.421,-1.524,-3.147,2.31,-0.42,-1.89
,-9.538,-1.354,-3.142,-9.665,-1.608,-3.247,2.1,-1.33,-1.82
28318.0,-9.277,-1.764,-3.719,-9.229,-1.864,-3.486,-0.98,-8.75,-2.1
,-9.332,-1.711,-3.881,-9.512,-2.118,-3.288,-0.28,-10.99,-1.54
,-8.916,-1.835,-4.164,-9.301,-1.965,-2.962,0.0,-12.04,-1.12
,-8.76,-1.869,-3.853,-9.462,-1.761,-2.735,-0.35,-10.36,-0.98
28394.0,-9.409,-1.771,-2.831,-8.995,-1.725,-3.448,2.66,-5.67,0.0
,-9.474,-1.855,-2.663,-8.918,-1.539,-3.429,3.22,-5.88,0.7
,-9.703,-2.008,-2.804,-8.995,-1.474,-3.113,5.39,-7.21,1.05
,-9.61,-1.943,-3.36,-9.371,-1.551,-2.924,8.75,-10.36,1.54
28470.0,-9.471,-1.644,-2.46,-9.289,-1.496,-3.029,11.2,-8.47,-0.63
,-9.591,-1.35,-2.584,-9.304,-1.653,-2.965,11.55,-9.1,-0.98
,-9.923,-1.412,-2.816,-9.308,-1.938,-2.814,10.57,-12.53,-1.26
,-9.526,-1.388,-2.936,-9.167,-1.955,-2.881,9.03,-15.96,-0.84
28545.0,-9.378,-1.761,-2.761,-9.428,-1.747,-2.28,10.64,-15.54,-1.54
,-9.555,-1.737,-2.714,-9.232,-1.752,-2.245,11.13,-16.52,-1.61
,-9.347,-1.582,-2.438,-9.203,-1.584,-2.036,10.64,-16.1,-1.33
,-9.332,-1.608,-2.254,-9.122,-1.651,-1.893,9.38,-14.42,-1.26
28621.0,-9.375,-1.677,-1.701,-9.481,-1.493,-1.933,8.33,-6.3,-2.1
,-9.474,-1.771,-1.766,-9.43,-1.421,-1.945,8.54,-5.18,-1.82
,-9.43,-1.723,-1.797,-9.543,-1.429,-1.96,9.24,-4.62,-1.47
,-9.529,-1.505,-1.752,-9.385,-1.572,-2.067,9.59,-4.13,-1.26
28697.0,-9.332,-1.577,-2.0,-9.524,-1.692,-1.575,6.09,-1.4,-1.12
,-9.246,-1.634,-1.862,-9.701,-1.598,-1.63,5.04,-0.07,-1.47
,-9.387,-1.706,-1.661,-9.509,-1.632,-1.89,3.99,1.05,-1.75
,-9.548,-1.713,-1.644,-9.265,-1.682,-1.761,3.78,1.75,-1.68
28773.0,-9.457,-1.831,-1.637,-9.459,-1.668,-2.197,1.82,3.99,-0.91
,-9.488,-2.005,-1.692,-9.43,-1.558,-2.247,2.1,4.69,-0.7
,-9.505,-1.962,-1.773,-9.399,-1.692,-2.371,3.15,5.11,-0.49
,-9.562,-1.864,-2.0,-9.433,-1.78,-2.472,4.2,5.18,0.0
28848.0,-9.416,-1.862,-2.484,-9.512,-1.814,-2.592,3.29,6.09,0.21
,-9.454,-1.838,-2.489,-9.5,-1.728,-2.613,3.15,6.23,-0.07
,-9.452,-1.776,-2.434,-9.438,-1.792,-2.704,2.66,6.09,-0.28
,-9.497,-1.788,-2.46,-9.34,-1.917,-2.639,1.75,5.95,-0.14
28924.0,-9.395,-2.07,-2.563,-9.308,-1.919,-2.654,-1.12,4.83,-0.28
,-9.497,-2.094,-2.709,-9.438,-1.936,-2.68,-0.63,4.62,-0.21
,-9.459,-2.029,-2.807,-9.548,-1.816,-2.714,0.14,3.85,0.0
,-9.332,-1.893,-2.79,-9.533,-1.687,-2.697,0.56,3.78,0.21
28999.0,-9.495,-1.749,-2.793,-9.375,-1.859,-2.764,-0.56,3.08,0.21
,-9.44,-1.862,-2.821,-9.363,-1.811,-2.642,-1.33,2.73,0.35
,-9.399,-1.819,-2.931,-9.541,-1.79,-2.577,-1.54,2.59,0.21
,-9.363,-1.819,-2.824,-9.502,-1.785,-2.503,-1.61,2.59,-0.21
29075.0,-9.442,-1.811,-2.405,-9.375,-1.857,-2.57,-3.01,2.52,-0.63
,-9.471,-1.876,-2.493,-9.375,-1.78,-2.443,-3.08,2.17,-0.42
,-9.447,-1.924,-2.515,-9.39,-1.785,-2.426,-2.45,2.03,-0.28
,-9.435,-1.936,-2.517,-9.416,-1.742,-2.41,-1.89,1.96,-0.35
29151.0,-9.512,-1.682,-2.307,-9.416,-1.744,-2.259,-2.03,2.66,-0.63
,-9.45,-1.632,-2.288,-9.378,-1.792,-2.257,-2.38,2.73,-0.77
,-9.548,-1.663,-2.194,-9.407,-1.917,-2.328,-3.01,2.8,-0.77
,-9.497,-1.728,-2.206,-9.332,-1.876,-2.266,-3.57,2.73,-0.35
29227.0,-9.39,-1.804,-2.225,-9.421,-1.799,-2.347,-1.96,3.22,-0.56
,-9.464,-1.795,-2.178,-9.392,-1.826,-2.393,-1.89,3.08,-0.63
,-9.524,-1.804,-2.252,-9.392,-1.857,-2.525,-2.24,2.59,-0.21
,-9.466,-1.761,-2.367,-9.438,-1.876,-2.527,-2.31,2.31,0.14
29303.0,-9.433,-1.864,-2.596,-9.332,-1.929,-3.039,0.07,3.22,0.77
,-9.466,-1.869,-2.711,-9.287,-1.936,-2.977,0.0,3.01,0.91
,-9.409,-1.878,-2.84,-9.359,-1.888,-3.003,0.28,2.59,0.91
,-9.347,-1.924,-3.02,-9.407,-1.859,-2.907,0.56,2.59,0.98
29378.0,-9.421,-1.828,-2.857,-9.45,-1.857,-2.716,2.38,2.87,0.35
,-9.423,-1.766,-2.778,-9.38,-1.792,-2.716,2.1,2.52,0.28
,-9.402,-1.84,-2.773,-9.316,-1.881,-2.649,1.75,2.31,0.42
,-9.407,-1.845,-2.714,-9.39,-1.843,-2.637,1.75,2.24,0.49
29454.0,-9.392,-1.826,-2.67,-9.426,-1.855,-2.749,2.17,2.03,0.14
,-9.392,-1.838,-2.615,-9.356,-1.876,-2.833,2.31,2.24,0.14
,-9.418,-1.814,-2.57,-9.371,-1.907,-2.826,2.24,2.45,0.21
,-9.481,-1.895,-2.649,-9.385,-1.876,-2.907,2.45,1.96,0.35
29530.0,-9.347,-1.795,-2.986,-9.521,-1.804,-2.702,3.36,1.33,0.84
,-9.296,-1.797,-2.903,-9.402,-1.761,-2.711,3.15,1.26,0.77
,-9.349,-1.823,-2.749,-9.323,-1.874,-2.623,2.94,1.4,0.7
,-9.457,-1.843,-2.656,-9.32,-1.933,-2.56,2.87,1.4,0.63
29606.0,-9.356,-1.876,-2.527,-9.411,-1.799,-2.271,3.57,1.47,0.63
,-9.459,-1.785,-2.501,-9.44,-1.78,-2.335,3.85,1.68,0.56
,-9.464,-1.783,-2.4,-9.395,-1.74,-2.347,3.71,1.47,0.42
,-9.423,-1.785,-2.338,-9.399,-1.761,-2.434,3.71,1.47,0.49
29681.0,-9.392,-1.819,-2.503,-9.395,-1.811,-2.845,4.27,2.1,0.91
,-9.447,-1.864,-2.62,-9.421,-1.737,-2.857,4.34,2.1,0.98
,-9.38,-1.855,-2.718,-9.409,-1.709,-2.91,4.55,1.96,0.98
,-9.416,-1.821,-2.735,-9.404,-1.795,-2.943,4.76,2.24,0.84
29757.0,-9.349,-1.852,-2.943,-9.366,-1.797,-2.747,3.57,1.19,0.56
,-9.392,-1.878,-2.876,-9.399,-1.771,-2.651,3.57,1.33,0.49
,-9.373,-1.821,-2.883,-9.404,-1.821,-2.553,3.5,1.47,0.63
,-9.428,-1.833,-2.816,-9.464,-1.85,-2.465,3.29,1.12,0.42
29832.0,-9.471,-1.862,-2.589,-9.481,-1.831,-2.469,2.73,0.98,0.63
,-9.33,-1.883,-2.505,-9.5,-1.821,-2.474,2.94,1.19,0.7
,-9.361,-1.852,-2.469,-9.43,-1.835,-2.443,3.36,1.4,0.7
,-9.361,-1.857,-2.491,-9.43,-1.807,-2.472,3.78,1.33,0.56
29908.0,-9.423,-1.84,-2.565,-9.368,-1.835,-2.831,4.2,1.47,0.56
,-9.404,-1.819,-2.704,-9.435,-1.804,-2.855,4.2,1.47,0.63
,-9.387,-1.847,-2.716,-9.39,-1.788,-2.807,4.34,1.54,0.7
,-9.378,-1.883,-2.819,-9.371,-1.804,-2.726,4.48,1.68,0.63
29984.0,-9.373,-1.876,-2.711,-9.392,-1.766,-2.45,3.36,1.61,0.56
,-9.414,-1.833,-2.584,-9.421,-1.802,-2.369,3.43,1.61,0.49
,-9.375,-1.792,-2.558,-9.476,-1.785,-2.434,3.29,1.61,0.35
,-9.442,-1.807,-2.496,-9.433,-1.783,-2.402,3.29,1.68,0.35
30060.0,-9.411,-1.828,-2.391,-9.318,-1.852,-2.489,2.66,1.68,0.28
,-9.409,-1.831,-2.491,-9.474,-1.888,-2.563,2.66,1.82,0.21
,-9.387,-1.807,-2.534,-9.325,-1.847,-2.644,2.66,1.75,0.14
,-9.351,-1.831,-2.491,-9.392,-1.907,-2.714,2.8,2.03,0.14
30135.0,-9.387,-1.977,-2.783,-9.466,-1.84,-2.807,3.57,2.17,0.14
,-9.354,-1.878,-2.778,-9.399,-1.814,-2.785,3.92,2.59,0.14
,-9.428,-1.926,-2.809,-9.325,-1.843,-2.749,4.13,2.31,0.07
,-9.416,-1.807,-2.848,-9.399,-1.876,-2.771,4.2,2.24,0.07
30211.0,-9.399,-1.886,-2.673,-9.426,-1.89,-2.582,2.45,1.68,0.07
,-9.402,-1.91,-2.651,-9.361,-1.91,-2.589,2.31,1.61,0.14
,-9.395,-1.876,-2.625,-9.411,-1.907,-2.577,2.31,1.68,0.14
,-9.411,-1.902,-2.52,-9.383,-1.924,-2.546,2.31,1.82,0.28
30286.0,-9.404,-1.864,-2.589,-9.347,-1.924,-2.666,2.66,1.61,0.35
,-9.442,-1.852,-2.62,-9.385,-1.938,-2.647,2.8,1.68,0.49
,-9.38,-1.912,-2.603,-9.392,-1.902,-2.649,2.73,1.61,0.35
,-9.373,-1.919,-2.673,-9.392,-1.862,-2.627,2.73,1.47,0.42
30362.0,-9.464,-1.84,-2.647,-9.435,-1.907,-2.639,3.36,1.47,0.42
,-9.387,-1.845,-2.706,-9.402,-1.857,-2.668,3.15,1.4,0.49
,-9.383,-1.845,-2.68,-9.43,-1.902,-2.618,2.87,1.4,0.49
,-9.361,-1.95,-2.639,-9.438,-1.874,-2.649,2.94,1.26,0.35
30438.0,-9.44,-1.912,-2.699,-9.407,-1.89,-2.816,2.66,1.26,0.49
,-9.426,-1.941,-2.67,-9.39,-1.878,-2.769,2.59,1.05,0.63
,-9.418,-1.917,-2.79,-9.392,-1.914,-2.67,2.73,0.98,0.63
,-9.368,-1.957,-2.757,-9.328,-1.895,-2.687,2.8,0.84,0.77
30514.0,-9.373,-1.907,-2.615,-9.359,-1.869,-2.477,2.8,0.77,0.7
,-9.38,-1.895,-2.584,-9.356,-1.941,-2.467,2.94,0.91,0.56
,-9.521,-1.862,-2.608,-9.366,-1.919,-2.498,3.08,0.84,0.63
,-9.45,-1.821,-2.472,-9.407,-1.938,-2.46,3.01,0.56,0.56
30590.0,-9.485,-1.881,-2.515,-9.273,-1.991,-2.778,3.29,0.77,0.56
,-9.476,-1.914,-2.673,-9.426,-1.9,-2.702,3.15,0.63,0.77
,-9.363,-1.859,-2.769,-9.438,-1.859,-2.737,2.87,0.28,1.05
,-9.337,-1.914,-2.769,-9.469,-1.871,-2.721,2.66,0.14,0.98
30665.0,-9.485,-1.878,-2.611,-9.383,-1.886,-2.496,2.66,0.21,0.63
,-9.371,-1.922,-2.599,-9.493,-1.84,-2.52,2.8,-0.07,0.7
,-9.363,-1.917,-2.584,-9.44,-1.831,-2.443,3.15,0.21,0.84
,-9.359,-1.962,-2.51,-9.447,-1.89,-2.501,3.43,0.56,0.84
30741.0,-9.404,-1.893,-2.455,-9.435,-1.89,-2.493,3.01,0.14,0.63
,-9.407,-1.933,-2.503,-9.45,-1.912,-2.498,3.08,0.28,0.63
,-9.416,-1.871,-2.51,-9.438,-1.895,-2.584,3.22,0.28,0.77
,-9.411,-1.886,-2.479,-9.383,-1.878,-2.635,3.5,0.56,0.84
30817.0,-9.366,-1.905,-2.678,-9.459,-1.84,-2.702,3.64,0.35,0.98
,-9.404,-1.938,-2.702,-9.337,-1.974,-2.637,3.64,0.56,0.77
,-9.347,-1.924,-2.711,-9.426,-1.881,-2.57,3.78,0.77,0.84
,-9.402,-1.838,-2.778,-9.404,-1.835,-2.56,3.78,0.63,0.84
30893.0,-9.423,-1.871,-2.446,-9.459,-1.948,-2.458,2.45,0.56,0.56
,-9.418,-1.845,-2.429,-9.38,-1.917,-2.436,2.31,0.35,0.56
,-9.478,-1.933,-2.45,-9.435,-1.933,-2.498,2.45,0.56,0.63
,-9.438,-1.917,-2.417,-9.464,-1.91,-2.575,2.66,0.49,0.7
30968.0,-9.43,-1.89,-2.62,-9.407,-1.874,-2.544,3.15,0.28,0.91
,-9.402,-1.898,-2.546,-9.466,-1.852,-2.443,3.08,0.35,0.84
,-9.356,-1.95,-2.589,-9.428,-1.871,-2.357,3.08,0.42,0.77
,-9.387,-1.905,-2.568,-9.416,-1.874,-2.417,3.29,0.56,0.7
31044.0,-9.426,-1.905,-2.391,-9.423,-1.888,-2.331,2.45,0.7,0.63
,-9.435,-1.936,-2.359,-9.488,-1.957,-2.35,2.38,0.49,0.7
,-9.495,-1.912,-2.314,-9.366,-1.919,-2.386,2.31,0.56,0.84
,-9.466,-1.938,-2.319,-9.471,-1.931,-2.412,2.38,0.77,0.98
31119.0,-9.387,-1.972,-2.441,-9.414,-2.02,-2.577,2.52,0.42,1.54
,-9.541,-1.914,-2.481,-9.552,-2.099,-2.491,2.87,0.0,1.68
,-9.44,-1.878,-2.51,-9.438,-2.058,-2.544,2.73,-0.28,1.61
,-9.354,-1.907,-2.551,-9.387,-1.977,-2.625,2.59,-0.14,1.68
31195.0,-9.416,-1.847,-2.601,-9.318,-1.993,-2.606,4.27,-1.75,2.03
,-9.361,-1.878,-2.615,-9.337,-1.922,-2.544,3.71,-2.17,2.17
,-9.296,-1.895,-2.63,-9.368,-1.799,-2.41,3.5,-2.52,2.24
,-9.306,-2.029,-2.58,-9.454,-1.608,-2.307,3.36,-2.73,1.89
31271.0,-9.529,-1.474,-2.213,-9.435,-1.79,-1.788,2.94,-3.08,0.35
,-9.512,-1.393,-2.125,-9.349,-1.792,-1.744,1.33,-3.64,0.28
,-9.447,-1.462,-1.919,-9.428,-1.694,-1.74,-0.42,-3.85,0.21
,-9.447,-1.594,-1.869,-9.433,-1.364,-1.618,-2.1,-4.2,0.28
31347.0,-9.555,-1.031,-1.481,-9.318,-2.187,-1.512,-3.01,-2.52,-1.12
,-9.66,-0.936,-1.438,-9.308,-2.429,-1.709,-6.09,-2.31,-1.19
,-9.545,-1.192,-1.429,-9.375,-2.426,-2.154,-10.36,-2.1,-0.98
,-9.459,-1.642,-1.33,-9.265,-2.331,-2.328,-13.58,-1.89,-0.42
31423.0,-9.366,-2.056,-2.398,-9.289,-2.166,-2.412,-2.59,1.89,1.05
,-9.342,-1.826,-2.441,-9.624,-2.077,-2.771,-1.61,2.59,1.12
,-9.533,-1.821,-2.355,-9.409,-2.044,-2.883,-1.82,2.87,1.47
,-9.519,-2.015,-2.536,-9.227,-1.78,-2.608,-1.96,2.38,2.31
31498.0,-9.112,-1.744,-2.391,-9.56,-1.754,-1.797,0.63,4.27,1.96
,-9.172,-1.687,-1.759,-9.277,-1.84,-1.84,-1.61,5.95,1.68
,-9.768,-1.618,-1.881,-9.098,-1.878,-1.414,-2.31,5.67,1.75
,-9.636,-1.792,-1.914,-9.395,-1.957,-1.627,-2.45,4.55,2.31
31574.0,-9.485,-2.132,-1.56,-9.533,-1.742,-3.412,1.47,10.08,5.25
,-10.199,-2.087,-2.474,-8.859,-1.917,-3.18,5.53,7.77,5.88
,-9.471,-2.137,-2.984,-9.179,-1.874,-2.793,8.68,4.83,7.42
,-9.21,-1.778,-2.855,-9.136,-1.886,-2.513,9.73,4.55,7.98
31650.0,-9.414,-1.747,-1.981,-9.093,-1.235,-3.144,5.25,14.28,5.88
,-10.61,-1.242,-3.01,-8.981,-1.577,-2.56,7.21,11.69,4.97
,-9.663,-1.141,-3.46,-10.072,-1.718,-2.637,7.28,6.93,5.95
,-9.172,-1.074,-3.288,-10.0,-1.572,-3.319,4.55,5.53,6.23
31726.0,-9.256,-1.299,-3.336,-9.876,-1.409,-2.496,3.43,4.2,1.33
,-9.512,-0.828,-3.216,-9.497,-1.845,-2.69,2.52,4.41,0.56
,-9.385,-0.512,-3.07,-9.323,-1.804,-2.62,-1.05,4.76,-0.28
,-9.39,-1.005,-2.525,-9.361,-1.577,-2.589,-5.32,6.51,-1.68
31801.0,-9.253,-1.479,-2.3,-9.564,-2.938,-2.56,-0.14,4.83,-2.94
,-9.722,-1.524,-2.295,-9.6,-3.166,-2.635,-0.63,4.62,-3.36
,-9.43,-1.986,-2.13,-9.541,-2.45,-3.147,-1.33,2.8,-2.31
,-10.005,-2.338,-2.17,-9.024,-2.065,-3.08,-0.98,-0.84,-0.84
31877.0,-9.217,-2.032,-3.037,-9.478,-1.821,-2.125,10.92,-8.19,5.53
,-9.117,-2.199,-2.948,-9.557,-1.606,-1.996,10.01,-7.98,4.97
,-9.323,-2.125,-2.733,-9.672,-1.417,-1.788,8.54,-7.84,4.13
,-9.351,-1.876,-2.548,-9.543,-1.704,-1.742,7.07,-7.49,3.92
31952.0,-9.557,-1.833,-1.943,-9.404,-0.577,-2.575,1.4,-13.58,2.94
,-9.749,-1.819,-2.161,-9.304,-0.617,-2.431,3.43,-14.0,3.15
,-9.469,-1.29,-2.548,-9.552,-0.883,-2.285,5.74,-13.93,3.64
,-9.366,-0.94,-2.599,-9.816,-0.806,-2.501,6.79,-12.88,3.92
32028.0,-9.765,-0.536,-2.68,-9.311,-1.283,-2.185,3.78,-13.3,0.91
,-9.753,-0.488,-2.802,-9.426,-1.5,-1.871,1.26,-13.72,0.35
,-9.485,-0.684,-2.568,-9.399,-1.744,-1.658,-1.54,-14.14,-0.28
,-9.55,-0.931,-2.362,-9.462,-1.819,-1.68,-3.85,-14.42,-1.12
32104.0,-9.545,-1.967,-1.378,-9.55,-2.51,-1.242,-4.76,-13.23,-1.89
,-9.399,-2.139,-1.094,-9.476,-2.697,-1.314,-4.13,-13.02,-1.68
,-9.378,-2.335,-0.859,-9.531,-2.67,-1.417,-3.15,-12.81,-1.05
,-9.488,-2.436,-1.196,-9.454,-2.111,-1.852,-1.19,-13.02,-0.28
32180.0,-9.457,-1.881,-1.998,-9.701,-1.709,-1.658,9.24,-11.55,4.83
,-9.39,-1.275,-2.245,-9.56,-1.742,-1.721,11.76,-11.27,5.04
,-9.72,-1.476,-1.929,-9.655,-1.979,-1.876,9.24,-10.5,5.25
,-9.725,-1.424,-1.972,-9.746,-1.957,-2.125,8.19,-10.29,4.48
32255.0,-9.665,-1.945,-2.233,-9.684,-1.677,-1.78,9.73,-9.31,5.18
,-9.765,-1.713,-2.194,-9.744,-1.441,-1.843,10.78,-9.31,5.74
,-9.773,-1.642,-2.204,-9.641,-1.266,-1.668,11.06,-9.17,5.67
,-9.61,-1.718,-1.9,-9.878,-0.809,-1.929,10.22,-8.96,5.81
32331.0,-9.868,-1.34,-1.515,-9.811,-2.589,-1.826,8.26,-8.47,5.74
,-9.899,-1.132,-1.79,-9.612,-2.611,-1.835,7.21,-8.33,5.81
,-9.897,-1.704,-1.737,-9.55,-2.656,-1.795,6.37,-8.12,6.09
,-9.89,-2.288,-1.718,-9.629,-2.489,-1.579,6.3,-8.05,6.58
32406.0,-9.859,-2.455,-1.354,-9.428,-1.697,-1.311,12.74,-5.04,10.08
,-10.01,-2.426,-1.173,-9.665,-1.043,-1.656,12.88,-4.83,10.78
,-9.737,-2.211,-1.12,-9.878,-0.79,-1.634,12.25,-4.76,11.27
,-9.526,-1.972,-1.201,-9.852,-0.656,-1.555,11.76,-4.62,11.55
32482.0,-9.797,-0.39,-1.716,-9.986,-0.503,-1.046,9.1,-3.57,9.31
,-9.634,0.112,-1.608,-9.861,-0.498,-1.409,7.7,-3.5,8.82
,-9.849,0.153,-1.761,-9.835,-1.05,-1.254,6.16,-2.94,8.54
,-9.921,0.11,-1.649,-9.667,-1.345,-1.33,5.25,-2.59,7.07
32558.0,-9.641,-1.558,-1.333,-9.794,-2.19,-1.421,3.71,-0.84,5.46
,-9.677,-2.022,-1.177,-9.675,-2.041,-1.438,3.78,-0.42,5.39
,-9.847,-1.962,-1.436,-9.718,-2.089,-1.283,4.9,-0.35,5.25
,-9.813,-1.953,-1.546,-9.873,-2.029,-1.417,4.76,0.07,5.11
32634.0,-9.919,-1.876,-1.433,-10.117,-0.684,-1.814,5.6,1.26,6.58
,-9.94,-1.56,-1.603,-9.981,-0.558,-1.914,6.65,1.68,7.14
,-9.962,-1.189,-1.632,-9.923,-0.467,-1.888,7.07,1.89,7.07
,-10.062,-0.943,-1.756,-10.021,-0.495,-1.862,7.84,2.24,6.93
32710.0,-9.983,-0.567,-1.922,-10.077,-0.952,-1.898,5.11,2.73,2.59
,-9.928,-0.629,-1.871,-10.079,-0.983,-1.79,4.41,3.22,1.61
,-9.909,-0.577,-1.95,-10.177,-1.058,-1.752,3.64,3.43,0.91
,-9.926,-0.694,-1.989,-10.1,-1.115,-1.761,2.52,3.57,0.07
32785.0,-9.938,-1.242,-1.651,-9.892,-1.228,-1.953,0.42,3.99,-3.29
,-9.742,-1.342,-1.689,-9.947,-1.364,-1.744,0.21,4.41,-3.29
,-9.861,-1.412,-1.689,-9.823,-1.491,-1.651,0.14,4.62,-3.43
,-9.895,-1.395,-1.689,-9.876,-1.9,-1.455,0.63,5.04,-3.99
32861.0,-9.895,-1.84,-1.498,-9.746,-1.424,-1.876,0.77,7.35,-5.04
,-9.952,-1.886,-1.613,-9.966,-1.285,-1.788,1.12,7.7,-4.76
,-9.969,-1.577,-1.984,-9.99,-0.974,-1.811,2.73,7.98,-4.76
,-9.72,-1.677,-1.814,-9.811,-0.404,-1.981,2.17,8.4,-4.76
32937.0,-9.78,-0.378,-1.658,-9.655,-1.146,-1.56,-1.75,11.06,-5.74
,-9.744,-0.16,-1.697,-9.854,-1.369,-1.503,-3.01,11.48,-6.44
,-9.806,-0.536,-1.527,-9.686,-1.56,-1.601,-5.18,12.04,-6.93
,-9.646,-0.847,-1.548,-9.71,-1.766,-1.642,-5.81,12.25,-7.14
33013.0,-9.576,-1.728,-1.732,-9.67,-2.111,-1.548,-2.45,15.12,-4.69
,-9.782,-1.704,-1.862,-9.694,-2.036,-1.816,-2.17,15.33,-5.25
,-9.682,-1.797,-1.768,-9.746,-2.096,-1.957,-2.73,15.47,-5.6
,-9.634,-1.95,-1.551,-9.713,-2.058,-2.041,-3.5,15.89,-5.81
33088.0,-9.6,-2.029,-1.986,-9.567,-1.572,-2.223,0.14,17.43,-3.64
,-9.648,-1.907,-2.151,-9.514,-1.354,-2.23,1.61,17.36,-3.5
,-9.521,-1.926,-2.065,-9.648,-1.18,-2.23,2.17,17.36,-3.15
,-9.545,-1.907,-2.079,-9.579,-0.936,-2.333,2.73,17.78,-2.45
33164.0,-9.569,-0.888,-2.271,-9.519,-1.28,-2.022,1.89,16.87,-3.01
,-9.629,-0.818,-2.304,-9.541,-1.472,-1.883,1.05,16.66,-3.71
,-9.55,-0.885,-2.247,-9.727,-1.515,-1.323,0.28,16.87,-4.13
,-9.569,-1.007,-2.053,-9.373,-2.302,-1.204,-0.28,17.01,-4.62
33240.0,-9.541,-1.196,-2.355,-9.392,-2.381,-1.862,1.96,17.01,-4.27
,-9.533,-1.534,-2.02,-9.28,-2.233,-2.118,2.1,16.87,-4.13
,-9.433,-1.78,-2.077,-9.361,-2.166,-1.981,1.19,16.52,-3.57
,-9.385,-2.163,-1.821,-9.447,-1.989,-2.257,-0.7,16.94,-3.01
33316.0,-9.418,-1.811,-2.426,-9.239,-1.527,-2.692,3.99,16.8,-1.89
,-9.514,-1.498,-2.513,-9.588,-1.464,-2.86,4.06,16.87,-1.89
,-9.421,-1.395,-2.666,-9.524,-1.275,-2.974,3.71,16.66,-1.96
,-9.459,-1.548,-2.623,-9.564,-1.201,-3.084,2.17,16.17,-1.82
33391.0,-9.694,-1.101,-3.352,-9.284,-1.493,-3.508,3.15,16.45,-2.87
,-9.655,-1.161,-3.321,-9.246,-1.642,-3.388,2.45,16.1,-3.08
,-9.433,-1.113,-3.664,-9.414,-1.56,-3.257,2.59,15.68,-3.29
,-9.15,-1.256,-3.69,-9.509,-1.529,-3.017,1.68,16.45,-3.5
33467.0,-3.829,-1.912,-1.232,-9.15,-1.575,-3.362,15.26,10.15,0.0
,-10.378,0.077,-4.783,-9.225,-1.752,-3.23,8.26,11.2,-3.15
,-9.301,-1.89,-2.783,-9.258,-1.895,-3.108,-1.26,10.5,-4.62
,-9.229,-1.701,-3.197,-9.27,-1.508,-3.422,-3.36,8.75,-4.55
33543.0,-9.306,-1.941,-2.867,-9.524,-2.314,-2.639,-4.41,8.33,-5.39
,-9.407,-2.132,-2.754,-9.215,-2.398,-2.9,-5.11,7.7,-5.39
,-9.265,-2.008,-3.068,-9.203,-2.345,-2.812,-4.13,6.09,-5.25
,-9.289,-2.283,-2.558,-9.11,-2.398,-2.95,-2.8,5.11,-4.76
33618.0,-9.292,-2.292,-2.67,-9.363,-1.941,-2.644,4.41,3.57,-0.35
,-9.428,-2.101,-2.639,-9.399,-1.814,-2.752,6.3,2.38,0.0
,-9.55,-1.936,-2.692,-9.643,-1.498,-2.86,7.77,-0.14,0.35
,-9.433,-1.996,-2.675,-9.438,-1.622,-2.785,8.4,-2.59,1.12
33694.0,-9.323,-1.706,-2.661,-9.718,-1.06,-2.709,5.18,-7.77,1.26
,-9.627,-1.517,-2.721,-9.459,-1.173,-2.541,5.18,-9.8,0.28
,-9.378,-1.539,-2.986,-9.84,-1.378,-2.426,5.74,-12.32,0.49
,-9.196,-1.347,-2.807,-9.258,-1.567,-2.407,5.67,-13.02,1.33
33770.0,-8.923,-1.814,-2.089,-9.864,-2.063,-1.759,1.12,-19.74,0.56
,-9.177,-2.051,-1.692,-9.596,-2.005,-1.761,0.91,-17.36,0.07
,-9.234,-2.209,-1.831,-9.299,-1.969,-1.622,2.94,-15.89,-0.28
,-9.548,-2.204,-1.421,-9.548,-1.957,-1.809,5.53,-14.42,-0.42
33846.0,-9.06,-1.989,-1.9,-9.28,-1.5,-2.161,15.26,-18.62,3.5
,-9.1,-1.938,-1.752,-9.32,-1.354,-2.357,16.8,-15.89,3.01
,-9.246,-1.785,-1.857,-9.196,-1.364,-2.292,18.06,-12.67,2.45
,-9.533,-1.706,-2.192,-9.273,-1.534,-2.144,19.46,-11.13,2.24
33921.0,-9.462,-1.651,-2.051,-9.485,-1.488,-2.388,16.03,-1.89,0.7
,-9.619,-1.598,-2.175,-9.502,-1.431,-2.321,17.57,-1.05,-0.14
,-9.61,-1.419,-2.134,-9.395,-1.519,-2.216,18.13,-0.77,-0.56
,-9.619,-1.208,-2.374,-9.385,-1.613,-2.075,16.66,-0.98,-0.56
33997.0,-9.361,-1.754,-1.895,-9.404,-1.955,-1.742,6.16,0.14,-2.38
,-9.485,-1.869,-1.866,-9.493,-1.862,-1.709,4.97,0.77,-2.59
,-9.61,-1.922,-1.816,-9.471,-1.96,-1.847,4.2,0.63,-2.31
,-9.497,-1.965,-1.826,-9.33,-1.871,-1.661,3.71,0.35,-1.61
34073.0,-9.363,-1.709,-1.493,-9.469,-1.771,-2.044,2.24,3.29,-0.28
,-9.61,-1.807,-1.529,-9.366,-1.716,-1.907,1.47,3.5,-0.21
,-9.715,-1.761,-1.728,-9.349,-1.876,-1.876,1.19,3.01,0.14
,-9.689,-1.756,-1.979,-9.418,-1.914,-1.819,0.84,1.89,0.56
34149.0,-9.509,-1.852,-1.866,-9.356,-2.087,-2.139,-0.35,3.64,-0.56
,-9.622,-1.809,-2.039,-9.454,-2.187,-2.233,0.42,3.43,-0.49
,-9.598,-1.902,-2.108,-9.44,-2.211,-2.259,0.7,3.08,-0.07
,-9.466,-2.005,-2.12,-9.521,-2.067,-2.283,0.7,3.15,0.21
34224.0,-9.538,-1.972,-2.213,-9.464,-2.132,-2.912,5.32,4.2,0.35
,-9.596,-1.922,-2.41,-9.356,-2.046,-3.02,5.11,3.85,0.56
,-9.55,-1.907,-2.611,-9.361,-1.938,-2.927,4.76,3.08,0.84
,-9.495,-1.855,-2.675,-9.466,-1.886,-2.809,3.92,2.45,0.98
34300.0,-9.445,-1.811,-2.57,-9.442,-1.795,-2.257,1.33,2.17,-0.28
,-9.485,-1.704,-2.225,-9.342,-1.84,-2.094,0.7,1.96,-0.7
,-9.66,-1.682,-2.316,-9.517,-1.883,-2.082,-0.63,1.4,-0.7
,-9.67,-1.756,-2.35,-9.476,-1.752,-2.35,-1.54,0.49,-0.28
34375.0,-9.414,-1.984,-1.936,-9.44,-1.893,-1.713,-2.94,0.63,-0.35
,-9.483,-1.979,-1.912,-9.505,-1.859,-1.795,-3.5,0.91,-0.35
,-9.548,-2.015,-1.917,-9.485,-1.802,-1.941,-2.87,0.98,-0.21
,-9.469,-1.96,-1.862,-9.366,-1.833,-1.871,-1.75,1.26,-0.07
34451.0,-9.404,-1.902,-1.677,-9.548,-1.637,-1.687,2.31,2.73,0.7
,-9.462,-1.948,-1.728,-9.548,-1.682,-1.752,2.87,3.29,0.7
,-9.435,-1.831,-1.644,-9.495,-1.661,-1.744,3.78,3.64,0.49
,-9.49,-1.74,-1.644,-9.493,-1.737,-1.902,3.99,3.78,0.35
34527.0,-9.521,-1.828,-2.072,-9.421,-1.886,-2.422,1.26,4.55,0.49
,-9.483,-1.919,-2.233,-9.533,-1.895,-2.577,1.4,4.55,0.49
,-9.512,-1.855,-2.34,-9.552,-1.933,-2.723,1.26,4.48,0.42
,-9.485,-1.855,-2.491,-9.421,-1.941,-2.716,1.12,4.76,0.28
34603.0,-9.371,-1.974,-2.632,-9.495,-1.979,-2.577,0.77,4.41,-0.21
,-9.45,-2.048,-2.587,-9.423,-1.945,-2.551,1.05,4.69,-0.21
,-9.564,-2.032,-2.721,-9.474,-1.905,-2.41,1.61,4.2,-0.28
,-9.428,-1.974,-2.656,-9.414,-1.931,-2.35,1.82,3.92,-0.21
34679.0,-9.476,-1.883,-2.247,-9.368,-2.058,-2.57,1.26,3.92,-0.56
,-9.627,-1.962,-2.276,-9.385,-2.079,-2.603,1.05,3.71,-0.49
,-9.593,-1.95,-2.46,-9.442,-2.082,-2.623,1.05,3.29,-0.14
,-9.426,-1.955,-2.467,-9.421,-2.046,-2.527,1.33,2.94,0.14
34754.0,-9.45,-1.948,-2.446,-9.402,-1.878,-2.285,3.43,3.71,-0.28
,-9.517,-1.886,-2.388,-9.442,-1.926,-2.28,3.71,3.43,-0.21
,-9.533,-1.845,-2.355,-9.469,-1.965,-2.335,3.57,3.22,-0.07
,-9.457,-1.828,-2.319,-9.493,-1.931,-2.388,3.22,2.94,0.14
34830.0,-9.418,-1.924,-2.369,-9.497,-1.945,-2.412,2.24,2.59,0.0
,-9.397,-1.941,-2.367,-9.5,-1.986,-2.522,2.31,2.8,0.0
,-9.483,-1.943,-2.309,-9.392,-1.974,-2.529,2.1,3.15,-0.14
,-9.5,-1.998,-2.362,-9.387,-2.034,-2.505,2.31,3.15,0.0
34906.0,-9.325,-1.969,-2.52,-9.481,-1.933,-2.359,2.52,2.87,0.07
,-9.349,-1.972,-2.489,-9.457,-1.957,-2.331,2.59,3.08,0.0
,-9.514,-1.974,-2.419,-9.423,-1.955,-2.34,2.66,2.94,0.0
,-9.476,-1.902,-2.412,-9.404,-1.941,-2.395,2.66,2.73,0.07
34982.0,-9.433,-1.957,-2.376,-9.445,-1.996,-2.369,2.03,2.38,0.21
,-9.44,-1.998,-2.414,-9.49,-2.082,-2.548,2.03,2.45,0.28
,-9.423,-1.948,-2.426,-9.402,-2.072,-2.618,1.96,2.31,0.35
,-9.43,-1.996,-2.395,-9.39,-2.051,-2.615,1.96,2.24,0.28
35057.0,-9.387,-2.036,-2.694,-9.5,-1.955,-2.491,3.29,1.89,0.84
,-9.402,-1.969,-2.666,-9.438,-1.919,-2.388,3.5,1.75,0.77
,-9.411,-1.969,-2.623,-9.459,-1.84,-2.352,3.57,1.82,0.77
,-9.466,-1.96,-2.517,-9.464,-1.821,-2.297,3.5,1.68,0.63
35133.0,-9.469,-1.84,-2.29,-9.395,-1.965,-2.335,2.45,1.61,0.7
,-9.44,-1.888,-2.312,-9.423,-2.012,-2.374,1.89,1.4,0.7
,-9.397,-1.936,-2.283,-9.43,-1.893,-2.369,1.68,1.4,0.56
,-9.426,-2.005,-2.333,-9.49,-1.938,-2.469,1.75,1.26,0.56
35208.0,-9.485,-1.96,-2.513,-9.442,-2.034,-2.496,2.24,1.33,0.7
,-9.407,-1.89,-2.515,-9.483,-1.972,-2.527,2.24,1.26,0.7
,-9.387,-1.953,-2.563,-9.497,-1.933,-2.577,2.17,1.33,0.7
,-9.385,-2.008,-2.527,-9.416,-1.969,-2.572,2.17,1.47,0.49
35284.0,-9.354,-2.07,-2.56,-9.438,-1.941,-2.295,2.38,1.12,0.84
,-9.38,-2.034,-2.527,-9.485,-1.902,-2.257,2.59,1.4,0.91
,-9.409,-1.977,-2.522,-9.478,-1.941,-2.245,2.8,1.33,0.84
,-9.423,-1.936,-2.458,-9.411,-1.957,-2.297,2.8,1.33,0.77
35360.0,-9.433,-1.936,-2.386,-9.457,-1.979,-2.328,2.1,0.98,0.98
,-9.433,-1.969,-2.417,-9.442,-1.986,-2.371,2.24,0.98,0.98
,-9.45,-1.991,-2.364,-9.454,-1.945,-2.431,2.38,1.12,0.84
,-9.426,-2.015,-2.4,-9.476,-1.957,-2.522,2.59,1.19,0.84
35436.0,-9.421,-1.941,-2.625,-9.462,-1.91,-2.355,3.01,0.98,1.19
,-9.359,-2.027,-2.601,-9.502,-1.89,-2.316,2.94,1.12,1.12
,-9.411,-2.022,-2.592,-9.478,-1.855,-2.249,3.15,1.19,0.98
,-9.361,-1.969,-2.508,-9.433,-1.91,-2.206,3.22,1.19,0.84
35511.0,-9.481,-1.981,-2.254,-9.407,-1.967,-2.505,1.75,0.91,1.05
,-9.414,-1.933,-2.345,-9.478,-1.9,-2.34,1.82,1.12,0.98
,-9.373,-2.003,-2.367,-9.378,-1.922,-2.355,1.89,1.12,0.98
,-9.459,-2.072,-2.359,-9.505,-1.914,-2.525,1.89,1.12,0.98
35587.0,-9.478,-1.962,-2.551,-9.378,-2.008,-2.505,2.17,0.77,1.12
,-9.433,-1.962,-2.56,-9.414,-1.974,-2.422,2.24,0.84,1.12
,-9.471,-1.998,-2.651,-9.478,-1.902,-2.422,2.52,0.63,1.12
,-9.351,-1.984,-2.594,-9.517,-1.974,-2.259,2.87,0.7,1.12
35663.0,-9.476,-1.857,-2.297,-9.452,-1.984,-2.479,2.66,0.91,1.12
,-9.478,-1.905,-2.3,-9.474,-1.962,-2.484,2.31,0.56,1.19
,-9.378,-1.991,-2.247,-9.507,-1.912,-2.503,1.96,0.98,1.19
,-9.452,-1.984,-2.405,-9.5,-1.929,-2.577,2.24,0.91,1.19
35739.0,-9.464,-1.986,-2.553,-9.423,-1.986,-2.484,2.94,0.49,1.4
,-9.39,-2.012,-2.565,-9.452,-1.967,-2.412,3.08,0.21,1.26
,-9.445,-2.01,-2.563,-9.493,-1.936,-2.326,3.36,0.28,1.12
,-9.452,-2.008,-2.553,-9.464,-1.926,-2.355,3.5,0.21,1.12
35815.0,-9.442,-1.926,-2.371,-9.433,-2.029,-2.379,3.43,-0.49,1.33
,-9.466,-1.938,-2.352,-9.469,-1.945,-2.484,3.01,-0.7,1.33
,-9.402,-2.036,-2.369,-9.462,-1.835,-2.51,3.01,-0.77,1.4
,-9.39,-2.048,-2.345,-9.452,-1.876,-2.496,3.43,-0.91,1.33
35890.0,-9.45,-1.936,-2.527,-9.493,-2.012,-2.46,3.71,-2.03,1.54
,-9.421,-2.032,-2.541,-9.402,-2.022,-2.417,3.99,-2.03,1.47
,-9.423,-2.046,-2.469,-9.474,-1.907,-2.469,4.55,-1.82,1.4
,-9.411,-2.032,-2.438,-9.459,-1.933,-2.364,5.11,-2.17,1.4
35966.0,-9.5,-1.969,-2.324,-9.502,-1.931,-2.211,5.04,-3.08,1.47
,-9.517,-1.91,-2.314,-9.45,-1.972,-2.077,5.25,-3.29,1.68
,-9.469,-1.902,-2.261,-9.5,-1.821,-2.091,5.18,-3.71,1.68
,-9.368,-1.914,-2.252,-9.514,-1.878,-2.173,5.11,-3.78,1.61
36041.0,-9.524,-1.886,-2.151,-9.466,-1.917,-1.953,4.41,-4.41,1.89
,-9.502,-1.9,-2.06,-9.483,-1.898,-1.79,4.06,-4.13,2.03
,-9.418,-1.905,-2.075,-9.672,-1.802,-1.859,3.64,-4.2,2.03
,-9.454,-1.931,-2.072,-9.641,-1.857,-1.888,3.64,-4.06,1.96
36117.0,-9.608,-1.85,-1.996,-9.505,-1.807,-2.094,1.89,-3.99,2.66
,-9.442,-1.823,-1.965,-9.586,-1.811,-2.039,1.61,-3.99,2.94
,-9.433,-1.756,-1.979,-9.485,-1.859,-1.965,1.19,-3.43,2.8
,-9.526,-1.783,-2.094,-9.363,-1.914,-1.785,0.63,-3.22,2.59
36193.0,-9.459,-1.84,-1.565,-9.586,-1.508,-1.055,-1.89,-1.47,2.59
,-9.462,-1.754,-1.45,-9.758,-1.467,-1.496,-1.75,-0.49,2.52
,-9.418,-1.725,-1.206,-9.411,-1.675,-1.637,-1.89,0.77,2.38
,-9.524,-1.608,-1.072,-9.265,-1.754,-1.441,-2.1,1.61,2.66
36269.0,-9.258,-1.778,-1.5,-9.033,-1.577,-2.338,-7.42,3.85,4.83
,-9.672,-1.783,-1.508,-8.935,-1.823,-2.154,-7.0,4.41,4.41
,-9.943,-1.843,-2.491,-8.983,-2.19,-1.606,-5.53,2.31,4.83
,-9.328,-1.761,-2.577,-9.866,-2.295,-1.512,-5.32,0.56,5.32
36344.0,-9.648,-2.417,-1.718,-9.572,-1.479,-1.409,-6.65,6.51,4.9
,-9.608,-2.127,-1.45,-10.096,-1.51,-1.862,-4.06,6.23,5.46
,-9.476,-1.742,-1.598,-9.483,-1.307,-2.113,-3.01,6.09,6.3
,-9.069,-1.46,-1.263,-9.543,-0.905,-1.974,-3.43,7.7,6.86
36420.0,-9.954,-0.471,-2.666,-9.368,-0.711,-2.051,0.56,7.77,5.39
,-9.115,-0.452,-2.551,-10.414,-1.031,-1.912,-0.98,8.19,4.48
,-9.301,-0.421,-2.355,-10.1,-1.488,-2.292,-3.43,10.29,2.59
,-9.407,-0.459,-2.469,-9.261,-1.637,-2.156,-5.18,11.9,1.12
36495.0,-9.39,-1.56,-2.194,-9.505,-0.998,-2.663,-4.13,5.11,-0.21
,-9.246,-1.397,-2.252,-9.418,-1.388,-2.517,-4.27,6.72,-0.42
,-9.593,-1.07,-2.094,-9.146,-1.692,-2.438,-5.32,8.82,-1.47
,-10.223,-0.835,-2.46,-9.06,-2.056,-2.082,-6.65,7.28,-2.8
36571.0,-9.777,-2.644,-1.692,-9.143,-3.786,-3.19,-12.39,7.14,-6.23
,-9.806,-3.501,-1.96,-9.093,-3.908,-2.745,-9.87,2.52,-3.99
,-9.325,-4.106,-2.194,-9.304,-3.273,-2.699,-4.55,-1.47,-0.28
,-9.483,-4.192,-2.551,-9.608,-2.905,-2.766,3.15,-4.69,2.87
36647.0,-9.548,-1.9,-3.154,-9.469,-1.113,-2.821,23.59,3.5,7.77
,-9.694,-1.275,-3.257,-9.734,-1.23,-2.714,22.47,0.91,7.84
,-9.335,-0.933,-3.197,-10.033,-1.027,-2.895,17.22,-0.77,7.49
,-9.325,-0.888,-2.979,-9.622,-0.991,-2.943,11.2,-0.63,6.23
36723.0,-9.622,-0.838,-2.745,-9.488,-0.727,-2.235,6.09,-5.6,4.2
,-9.622,-0.584,-2.656,-9.423,-1.106,-1.981,6.44,-4.48,3.64
,-9.495,-0.517,-2.458,-9.543,-0.811,-1.876,6.51,-2.94,2.66
,-9.557,-0.744,-2.228,-9.624,-0.634,-2.051,6.37,-1.82,2.03
36799.0,-9.634,-0.634,-2.175,-9.409,-1.187,-2.091,0.98,-5.18,-0.84
,-9.574,-0.723,-2.364,-9.39,-1.433,-1.773,-1.05,-6.37,-2.03
,-9.574,-0.878,-2.338,-9.44,-1.318,-1.721,-3.22,-6.86,-3.29
,-9.536,-1.084,-2.24,-9.347,-1.479,-1.685,-4.48,-6.58,-3.85
36874.0,-9.466,-1.493,-1.656,-9.445,-1.986,-2.168,-3.5,-6.3,-3.71
,-9.531,-1.464,-1.711,-9.605,-2.18,-2.146,-2.59,-6.72,-2.87
,-9.689,-1.685,-1.876,-9.347,-2.216,-2.431,-1.82,-6.79,-2.45
,-9.593,-1.852,-2.056,-9.277,-2.565,-2.245,-0.84,-7.0,-2.45
36950.0,-9.471,-2.505,-2.345,-9.639,-1.845,-2.685,1.75,-7.0,-1.33
,-9.517,-2.35,-2.422,-9.876,-1.771,-2.699,2.52,-7.07,-0.84
,-9.524,-2.142,-2.536,-9.801,-1.797,-2.587,2.94,-7.14,-0.35
,-9.67,-1.874,-2.733,-9.677,-1.728,-2.649,2.73,-7.21,0.14
37026.0,-9.675,-1.668,-2.517,-9.536,-2.367,-1.876,1.33,-7.7,0.7
,-9.588,-1.687,-2.481,-9.588,-2.407,-1.79,1.47,-7.77,0.7
,-9.574,-1.807,-2.201,-9.615,-2.838,-1.12,1.26,-7.49,0.7
,-9.541,-2.111,-1.993,-9.567,-2.139,-1.68,1.54,-7.28,0.63
37102.0,-9.579,-2.118,-1.718,-9.442,-2.029,-1.694,7.77,-6.16,3.08
,-9.524,-2.077,-1.835,-9.66,-1.902,-1.776,8.12,-6.51,3.71
,-9.509,-2.151,-1.687,-9.56,-2.106,-1.464,7.98,-6.58,4.27
,-9.56,-2.103,-1.723,-9.636,-1.522,-2.091,8.19,-6.3,4.41
37177.0,-9.562,-1.63,-1.766,-9.61,-1.575,-1.491,8.89,-5.46,5.46
,-9.694,-1.579,-1.814,-9.579,-1.438,-1.496,8.19,-5.25,5.39
,-9.663,-1.536,-1.713,-9.67,-1.278,-1.622,8.4,-5.18,5.18
,-9.55,-1.476,-1.711,-9.665,-1.333,-1.582,8.54,-5.04,5.25
37253.0,-9.756,-1.261,-1.692,-9.608,-1.866,-1.407,7.14,-3.5,5.46
,-9.797,-1.397,-1.522,-9.438,-1.685,-1.639,6.65,-4.13,5.04
,-9.617,-1.536,-1.433,-9.67,-1.295,-1.878,6.72,-4.48,4.76
,-9.545,-1.747,-1.402,-9.799,-1.01,-1.936,6.72,-4.06,4.9
37328.0,-9.835,-0.986,-1.936,-9.555,-1.804,-1.627,6.44,-3.15,5.18
,-9.825,-1.149,-1.962,-9.576,-1.998,-1.553,5.32,-3.08,4.69
,-9.84,-1.381,-1.687,-9.675,-1.713,-1.601,3.71,-3.08,4.41
,-9.703,-1.634,-1.668,-9.801,-1.515,-1.589,3.64,-2.87,4.48
37404.0,-9.892,-1.417,-1.591,-9.775,-1.651,-1.866,6.37,-1.26,5.81
,-9.801,-1.287,-1.598,-9.689,-1.608,-1.95,5.81,-1.12,5.46
,-9.811,-1.429,-1.627,-9.701,-1.716,-1.855,4.9,-0.84,5.11
,-9.78,-1.661,-1.709,-9.765,-1.685,-1.792,4.48,-0.63,4.69
37480.0,-9.82,-1.61,-1.749,-9.744,-1.79,-1.694,5.32,1.12,5.18
,-9.921,-1.603,-1.797,-9.83,-1.634,-1.785,5.18,1.47,5.04
,-9.895,-1.785,-1.709,-9.878,-1.663,-1.613,4.9,1.47,4.97
,-9.868,-1.73,-1.673,-9.928,-1.17,-1.924,5.25,1.47,4.83
37556.0,-9.974,-0.974,-2.142,-9.911,-1.161,-2.139,4.69,3.08,2.66
,-9.974,-0.854,-2.264,-10.0,-1.053,-2.178,3.71,3.43,1.89
,-9.928,-0.957,-2.211,-10.163,-1.079,-2.268,2.45,3.71,1.05
,-9.84,-1.086,-2.07,-9.935,-1.165,-2.168,1.54,4.13,0.7
37631.0,-9.823,-1.419,-2.142,-9.713,-2.056,-1.943,-1.26,5.74,-1.75
,-9.962,-1.625,-2.091,-9.876,-2.216,-1.943,-1.54,6.23,-2.03
,-9.966,-1.728,-2.091,-9.897,-2.288,-1.883,-1.89,6.65,-2.17
,-9.871,-1.878,-2.039,-9.873,-2.209,-1.989,-2.17,6.93,-2.31
37707.0,-9.861,-2.161,-2.115,-9.899,-1.249,-2.288,-1.19,9.45,-0.63
,-9.871,-1.874,-2.28,-9.921,-1.048,-2.285,-0.49,9.94,-0.35
,-9.84,-1.764,-2.146,-9.794,-0.773,-2.534,-1.4,10.36,-0.42
,-9.835,-1.51,-2.257,-9.703,-0.771,-2.407,-1.61,10.85,-0.49
37783.0,-9.66,-0.79,-2.261,-9.761,-1.261,-2.07,-6.3,12.04,-2.24
,-9.651,-0.72,-2.273,-9.675,-1.311,-2.048,-6.37,12.53,-2.17
