Timestamp,AccX,AccY,AccZ,GyroX,GyroY,GyroZ,MagnX,MagnY,MagnZ
0.0,-9.179,-0.342,-3.721,-9.229,-0.359,-3.723,2.24,1.96,0.7
,-9.194,-0.371,-3.719,-9.203,-0.349,-3.716,2.24,1.82,0.7
,-9.203,-0.369,-3.723,-9.227,-0.376,-3.704,2.31,1.75,0.7
,-9.244,-0.428,-3.726,-9.203,-0.402,-3.673,2.52,1.54,0.63
75.0,-9.241,-0.402,-3.609,-9.237,-0.364,-3.659,3.01,1.33,0.77
,-9.237,-0.402,-3.642,-9.201,-0.407,-3.628,3.08,1.33,0.77
,-9.179,-0.436,-3.642,-9.186,-0.385,-3.664,3.08,1.33,0.77
,-9.203,-0.373,-3.673,-9.189,-0.354,-3.652,3.15,1.33,0.84
150.0,-9.225,-0.34,-3.642,-9.21,-0.436,-3.458,2.94,1.54,0.91
,-9.258,-0.428,-3.656,-9.232,-0.304,-3.671,2.66,1.33,0.91
,-9.239,-0.402,-3.625,-9.208,-0.345,-3.635,2.73,1.33,0.98
,-9.227,-0.407,-3.611,-9.253,-0.397,-3.546,3.08,1.47,0.98
226.0,-9.251,-0.426,-3.599,-9.265,-0.361,-3.687,1.75,1.61,0.42
,-9.22,-0.357,-3.649,-9.246,-0.39,-3.68,1.75,1.68,0.56
,-9.225,-0.376,-3.587,-9.16,-0.383,-3.692,1.61,1.68,0.63
,-9.275,-0.4,-3.618,-9.196,-0.402,-3.625,1.75,1.61,0.63
302.0,-9.229,-0.352,-3.659,-9.203,-0.359,-3.618,2.8,1.54,0.7
,-9.27,-0.361,-3.606,-9.229,-0.426,-3.666,2.8,1.47,0.77
,-9.225,-0.392,-3.606,-9.222,-0.392,-3.63,2.52,1.47,0.77
,-9.239,-0.352,-3.587,-9.234,-0.361,-3.623,2.52,1.61,0.77
378.0,-9.184,-0.349,-3.585,-9.21,-0.366,-3.69,2.73,1.75,0.91
,-9.17,-0.28,-3.587,-9.203,-0.364,-3.735,2.73,1.75,0.84
,-9.256,-0.325,-3.668,-9.208,-0.333,-3.714,2.52,1.75,0.84
,-9.275,-0.361,-3.685,-9.217,-0.273,-3.666,2.24,1.61,0.77
453.0,-9.203,-0.325,-3.594,-9.241,-0.39,-3.599,2.73,1.47,0.7
,-9.213,-0.357,-3.659,-9.227,-0.38,-3.609,2.45,1.33,0.56
,-9.206,-0.404,-3.616,-9.287,-0.335,-3.597,2.52,1.33,0.56
,-9.21,-0.354,-3.623,-9.256,-0.34,-3.611,2.73,1.47,0.63
529.0,-9.206,-0.371,-3.58,-9.186,-0.385,-3.666,2.24,1.61,0.63
,-9.186,-0.373,-3.609,-9.184,-0.354,-3.683,2.24,1.75,0.7
,-9.249,-0.349,-3.632,-9.222,-0.337,-3.637,2.24,1.82,0.63
,-9.213,-0.349,-3.649,-9.251,-0.318,-3.654,2.1,1.89,0.7
605.0,-9.208,-0.357,-3.661,-9.198,-0.385,-3.685,2.03,1.96,0.7
,-9.198,-0.402,-3.642,-9.213,-0.345,-3.647,2.1,1.89,0.63
,-9.174,-0.431,-3.683,-9.241,-0.364,-3.649,2.31,1.68,0.63
,-9.201,-0.39,-3.652,-9.213,-0.395,-3.685,2.52,1.68,0.7
681.0,-9.196,-0.397,-3.673,-9.22,-0.383,-3.683,2.03,1.54,0.63
,-9.227,-0.404,-3.673,-9.234,-0.347,-3.661,2.24,1.47,0.56
,-9.225,-0.361,-3.649,-9.196,-0.354,-3.673,2.45,1.47,0.63
,-9.227,-0.378,-3.642,-9.225,-0.378,-3.647,2.45,1.54,0.7
756.0,-9.213,-0.371,-3.637,-9.194,-0.378,-3.661,2.45,1.26,0.63
,-9.186,-0.354,-3.687,-9.206,-0.369,-3.637,2.38,1.19,0.49
,-9.21,-0.376,-3.716,-9.217,-0.371,-3.592,2.52,1.47,0.63
,-9.167,-0.361,-3.649,-9.227,-0.349,-3.589,2.45,1.54,0.7
832.0,-9.251,-0.359,-3.609,-9.256,-0.328,-3.68,2.45,1.47,0.77
,-9.213,-0.383,-3.587,-9.215,-0.345,-3.668,2.52,1.61,0.84
,-9.198,-0.369,-3.644,-9.198,-0.366,-3.606,2.45,1.47,0.77
,-9.227,-0.364,-3.62,-9.16,-0.364,-3.599,2.59,1.61,0.84
908.0,-9.227,-0.376,-3.563,-9.172,-0.385,-3.601,2.59,1.47,0.7
,-9.268,-0.424,-3.604,-9.201,-0.419,-3.601,2.59,1.47,0.77
,-9.289,-0.345,-3.623,-9.225,-0.395,-3.687,2.66,1.47,0.77
,-9.249,-0.361,-3.611,-9.244,-0.404,-3.62,2.45,1.47,0.84
983.0,-9.256,-0.371,-3.733,-9.155,-0.349,-3.771,2.17,1.33,0.77
,-9.215,-0.38,-3.685,-9.198,-0.373,-3.68,2.38,1.4,0.84
,-9.229,-0.304,-3.733,-9.179,-0.34,-3.68,2.38,1.26,0.56
,-9.139,-0.318,-3.714,-9.167,-0.294,-3.661,2.1,1.26,0.56
1059.0,-9.208,-0.342,-3.613,-9.198,-0.512,-3.534,2.38,0.91,0.56
,-9.217,-0.392,-3.565,-9.27,-0.491,-3.606,2.17,0.77,0.49
,-9.215,-0.378,-3.565,-9.229,-0.316,-3.68,2.1,0.91,0.49
,-9.186,-0.376,-3.551,-9.203,-0.424,-3.549,2.03,1.05,0.49
1135.0,-9.196,-0.476,-3.513,-9.217,-0.235,-3.63,0.35,1.47,0.35
,-9.203,-0.426,-3.661,-9.217,-0.282,-3.685,1.12,1.61,0.56
,-9.213,-0.371,-3.618,-9.21,-0.285,-3.69,2.03,1.68,0.77
,-9.182,-0.299,-3.673,-9.174,-0.428,-3.726,2.24,1.54,0.77
1211.0,-9.203,-0.474,-3.716,-9.174,-0.357,-3.764,0.7,1.05,0.28
,-9.189,-0.419,-3.661,-9.179,-0.388,-3.79,1.61,0.84,0.28
,-9.21,-0.275,-3.716,-9.189,-0.349,-3.762,2.45,0.7,0.49
,-9.225,-0.256,-3.769,-9.186,-0.414,-3.738,2.38,0.63,0.42
1286.0,-9.203,-0.345,-3.74,-9.251,-0.347,-3.57,3.78,-0.28,0.91
,-9.213,-0.373,-3.659,-9.268,-0.342,-3.62,3.71,-0.28,0.84
,-9.294,-0.359,-3.613,-9.263,-0.294,-3.518,3.36,-0.42,0.7
,-9.263,-0.366,-3.642,-9.258,-0.316,-3.544,3.01,-0.42,0.7
1362.0,-9.201,-0.383,-3.41,-9.213,-0.337,-3.412,2.31,-0.63,0.56
,-9.244,-0.266,-3.573,-9.282,-0.321,-3.539,2.66,-0.49,0.42
,-9.225,-0.232,-3.455,-9.179,-0.39,-3.408,2.17,-0.63,0.35
,-9.251,-0.369,-3.527,-9.265,-0.311,-3.443,1.96,-0.42,0.35
1438.0,-9.251,-0.352,-3.388,-9.294,-0.419,-3.384,2.45,0.0,0.0
,-9.27,-0.369,-3.4,-9.304,-0.402,-3.453,2.1,0.28,0.0
,-9.241,-0.464,-3.388,-9.316,-0.38,-3.513,2.03,0.42,0.14
,-9.275,-0.407,-3.398,-9.328,-0.357,-3.568,2.17,0.49,0.21
1514.0,-9.232,-0.395,-3.57,-9.232,-0.424,-3.649,2.45,1.05,0.42
,-9.201,-0.4,-3.563,-9.21,-0.309,-3.64,2.52,1.19,0.42
,-9.277,-0.345,-3.652,-9.241,-0.285,-3.589,2.45,0.98,0.42
,-9.246,-0.414,-3.463,-9.251,-0.33,-3.592,2.17,0.84,0.49
1589.0,-9.229,-0.376,-3.587,-9.263,-0.361,-3.518,2.8,0.63,0.42
,-9.213,-0.39,-3.515,-9.237,-0.392,-3.326,3.01,0.35,0.49
,-9.208,-0.378,-3.58,-9.261,-0.464,-3.47,3.43,0.35,0.49
,-9.244,-0.337,-3.53,-9.299,-0.424,-3.518,3.64,0.35,0.49
1665.0,-9.296,-0.361,-3.434,-9.249,-0.376,-3.439,3.99,0.42,0.7
,-9.287,-0.443,-3.448,-9.246,-0.378,-3.463,3.71,0.56,0.77
,-9.292,-0.385,-3.431,-9.21,-0.328,-3.458,3.5,0.7,0.77
,-9.268,-0.395,-3.431,-9.241,-0.359,-3.513,3.15,1.12,0.7
1740.0,-9.246,-0.404,-3.518,-9.258,-0.436,-3.498,1.89,1.05,0.49
,-9.253,-0.342,-3.515,-9.347,-0.402,-3.51,1.96,0.98,0.35
,-9.268,-0.4,-3.537,-9.308,-0.414,-3.532,1.68,0.91,0.42
,-9.208,-0.45,-3.489,-9.289,-0.404,-3.522,1.54,1.12,0.35
1816.0,-9.273,-0.38,-3.561,-9.217,-0.388,-3.589,1.96,1.05,0.28
,-9.241,-0.376,-3.57,-9.249,-0.352,-3.57,2.17,0.98,0.42
,-9.222,-0.404,-3.601,-9.241,-0.364,-3.613,2.24,0.7,0.35
,-9.206,-0.4,-3.632,-9.246,-0.361,-3.63,2.66,0.77,0.35
1892.0,-9.225,-0.378,-3.513,-9.191,-0.347,-3.518,2.73,0.14,0.42
,-9.301,-0.428,-3.673,-9.244,-0.316,-3.515,2.59,0.0,0.21
,-9.28,-0.443,-3.467,-9.316,-0.29,-3.771,2.66,-0.21,0.21
,-9.275,-0.376,-3.542,-9.273,-0.431,-3.611,2.73,-0.14,0.21
1968.0,-9.213,-0.385,-3.467,-9.222,-0.354,-3.417,1.19,-0.84,-0.56
,-9.229,-0.45,-3.539,-9.237,-0.44,-3.417,1.82,-0.91,-0.63
,-9.222,-0.33,-3.592,-9.227,-0.436,-3.419,2.31,-1.05,-0.49
,-9.189,-0.328,-3.537,-9.308,-0.467,-3.333,2.38,-1.12,-0.49
2044.0,-9.335,-0.505,-3.257,-9.292,-0.756,-3.142,-0.21,-0.98,-2.17
,-9.311,-0.357,-3.19,-9.316,-0.644,-3.123,-1.33,-0.98,-2.31
,-9.282,-0.414,-3.173,-9.368,-0.579,-3.084,-2.73,-0.63,-2.17
,-9.194,-0.579,-3.058,-9.296,-0.503,-3.19,-3.99,0.07,-1.75
2119.0,-9.301,-0.529,-3.132,-9.253,-0.629,-3.235,-2.52,2.24,-0.14
,-9.268,-0.541,-3.171,-9.375,-0.438,-3.281,-2.38,2.73,0.0
,-9.251,-0.644,-3.259,-9.328,-0.378,-3.235,-1.89,2.8,0.14
,-9.208,-0.663,-3.29,-9.311,-0.404,-3.211,-1.4,3.08,0.49
2195.0,-9.351,-0.565,-3.18,-9.332,-0.596,-3.276,-0.7,4.69,2.03
,-9.308,-0.591,-3.372,-9.38,-0.455,-3.41,-0.28,5.04,2.45
,-9.241,-0.646,-3.314,-9.347,-0.409,-3.393,0.14,5.18,2.8
,-9.28,-0.658,-3.271,-9.349,-0.22,-3.692,0.63,5.67,3.22
2271.0,-9.301,-0.189,-3.905,-9.292,-0.318,-3.702,-0.56,5.04,3.08
,-9.172,-0.23,-3.97,-9.27,-0.179,-3.506,-1.61,4.55,2.94
,-9.055,-0.285,-3.853,-9.311,-0.077,-3.525,-1.82,4.34,3.15
,-9.072,-0.409,-3.63,-9.32,-0.06,-3.367,-0.91,4.13,3.29
2347.0,-9.308,-0.172,-3.037,-9.229,-0.371,-3.393,-6.44,3.64,1.75
,-9.397,-0.201,-3.084,-9.162,-0.433,-3.553,-8.33,3.99,1.19
,-9.462,-0.203,-3.333,-9.067,-0.302,-3.664,-10.78,3.85,0.21
,-9.306,-0.237,-3.357,-9.098,-0.294,-3.812,-12.53,3.85,0.07
2422.0,-9.067,-0.45,-3.666,-9.512,-1.151,-2.661,-12.18,3.43,-0.56
,-8.878,-0.912,-3.25,-9.438,-0.775,-2.958,-12.04,4.27,0.91
,-8.954,-1.409,-2.568,-9.32,-0.663,-3.271,-9.8,6.09,2.94
,-9.282,-1.56,-2.331,-9.153,-0.981,-3.319,-4.9,7.7,4.69
2498.0,-9.131,-0.869,-3.218,-8.904,0.689,-4.195,1.4,12.25,12.11
,-9.194,-0.285,-3.262,-8.882,0.096,-3.654,5.88,13.16,11.9
,-9.22,0.751,-4.13,-9.241,-0.156,-3.695,7.77,12.32,9.31
,-8.928,1.07,-4.173,-9.354,0.376,-4.307,3.08,11.41,7.42
2573.0,-9.232,0.756,-4.197,-9.33,-0.51,-4.049,3.71,8.89,5.46
,-9.17,0.443,-4.195,-8.971,0.285,-4.408,0.21,8.96,5.88
,-9.04,-0.5,-3.831,-9.038,0.457,-4.145,-3.36,9.45,6.37
,-9.131,-1.067,-3.23,-8.993,0.132,-3.678,0.0,9.87,7.0
2649.0,-9.012,-0.318,-2.814,-9.0,0.304,-4.039,1.75,10.78,7.28
,-9.466,0.065,-3.271,-8.978,-0.715,-3.367,4.34,10.85,5.88
,-9.428,0.926,-3.924,-9.273,-0.849,-3.228,4.2,9.17,3.57
,-9.246,1.079,-4.111,-9.062,-0.072,-3.814,-0.49,8.12,3.08
2725.0,-8.866,0.653,-4.08,-8.844,-0.33,-3.611,10.22,10.57,4.48
,-9.17,0.689,-4.204,-8.524,-0.292,-3.869,7.35,10.15,4.27
,-9.287,0.246,-3.79,-8.737,-0.369,-3.975,3.01,10.64,3.43
,-9.229,-0.141,-3.446,-9.086,-0.534,-3.75,1.4,12.11,3.29
2801.0,-9.299,-0.589,-3.329,-8.933,1.003,-4.068,6.86,15.4,6.86
,-9.225,-0.268,-3.563,-8.966,0.957,-3.967,10.01,16.1,6.86
,-9.086,0.199,-3.561,-8.689,0.955,-3.735,11.76,15.75,6.72
,-8.985,0.802,-3.975,-8.536,0.883,-3.647,10.5,15.26,6.51
2876.0,-9.002,0.842,-4.03,-8.775,0.223,-4.884,4.13,16.66,1.47
,-9.265,0.845,-4.417,-8.579,-0.239,-4.807,2.59,16.1,0.49
,-9.316,0.751,-4.46,-8.653,-0.701,-5.128,0.49,16.24,0.0
,-9.196,0.524,-4.477,-8.643,-0.976,-5.027,-0.84,16.24,-0.56
2952.0,-8.686,-1.029,-5.133,-8.526,-0.27,-5.327,2.52,12.04,-0.21
,-8.488,-1.003,-5.252,-8.815,0.06,-5.118,4.48,11.55,0.63
,-8.454,-0.792,-5.403,-9.028,0.12,-4.748,6.09,11.48,2.31
,-8.466,-0.648,-5.401,-9.057,0.325,-4.604,7.77,11.69,4.48
3028.0,-8.818,0.333,-4.616,-8.866,0.184,-4.063,4.41,9.66,4.55
,-8.598,0.378,-4.728,-9.04,0.115,-4.042,3.71,9.66,5.39
,-8.464,0.469,-4.805,-9.263,0.096,-3.91,4.06,9.17,6.02
,-8.495,0.318,-4.41,-9.045,0.648,-4.259,4.69,9.59,6.44
3104.0,-8.586,0.995,-4.537,-8.818,-0.333,-4.518,4.97,8.54,2.94
,-8.538,0.881,-4.585,-8.725,-0.656,-4.489,1.75,8.96,2.66
,-8.784,0.44,-4.477,-8.655,-0.809,-4.673,-1.19,9.1,1.96
,-8.885,0.103,-4.582,-8.528,-0.89,-4.879,-2.1,9.66,1.54
3180.0,-8.461,-1.031,-4.982,-8.586,0.72,-5.233,4.34,11.2,7.28
,-8.524,-0.983,-4.877,-8.557,0.969,-5.444,7.14,10.92,8.54
,-8.648,-0.558,-4.879,-8.567,0.919,-5.374,9.59,11.06,9.24
,-8.6,0.098,-5.016,-8.739,0.653,-5.322,11.06,11.06,9.66
3255.0,-9.115,0.505,-5.099,-8.217,0.9,-5.2,1.61,9.94,7.42
,-9.165,0.67,-5.193,-8.351,0.854,-5.121,3.57,9.03,6.02
,-8.856,0.79,-5.183,-8.746,0.857,-5.032,4.34,8.19,5.11
,-8.327,0.967,-5.171,-8.892,1.022,-5.068,4.62,7.84,4.62
3331.0,-8.768,1.079,-4.999,-8.55,0.938,-5.2,2.94,5.39,0.07
,-8.526,0.759,-4.858,-8.638,0.921,-5.095,-0.42,5.39,-0.35
,-8.437,0.577,-4.867,-8.538,0.704,-5.169,-2.38,5.46,-0.7
,-8.519,0.713,-4.975,-8.402,0.112,-5.142,-2.24,5.04,-1.26
3406.0,-8.366,-0.591,-5.121,-8.43,-1.464,-5.147,-4.13,2.73,-2.66
,-8.564,-1.184,-5.25,-8.349,-0.773,-5.231,-1.61,2.1,-1.33
,-8.593,-1.665,-5.188,-8.215,-0.062,-5.465,1.4,1.96,0.07
,-8.574,-1.773,-5.183,-8.373,0.275,-5.305,5.6,2.17,1.4
3482.0,-8.32,0.208,-5.274,-8.425,0.541,-4.98,10.15,-0.14,6.86
,-8.445,0.127,-5.111,-8.397,0.412,-4.838,7.98,0.35,7.84
,-8.514,0.127,-5.051,-8.583,0.213,-4.719,7.98,0.42,7.84
,-8.449,0.438,-5.181,-8.818,0.208,-4.551,9.31,0.21,7.14
3558.0,-8.861,0.321,-4.513,-8.815,0.933,-4.403,12.67,2.1,6.86
,-8.71,0.479,-4.558,-8.756,1.366,-4.597,13.37,2.52,6.51
,-8.691,0.629,-4.563,-8.629,1.634,-4.726,12.88,2.45,5.81
,-8.763,0.794,-4.427,-8.545,1.407,-4.798,12.04,2.8,5.11
3634.0,-8.586,0.952,-4.865,-8.631,-0.732,-4.791,2.73,3.43,-1.12
,-8.552,0.309,-4.776,-8.722,0.036,-5.035,0.84,4.2,-0.84
,-8.555,-0.369,-4.724,-8.751,0.747,-5.154,1.68,4.9,-0.35
,-8.588,-0.713,-4.798,-8.775,0.95,-5.068,4.55,5.39,0.35
3709.0,-8.65,0.842,-4.901,-8.509,0.61,-5.279,9.45,5.18,-1.75
,-8.626,0.907,-5.209,-8.689,0.495,-5.3,6.44,4.55,-2.59
,-8.306,0.646,-5.207,-8.562,0.278,-5.384,3.57,5.04,-3.36
,-8.323,0.421,-4.929,-8.346,-0.122,-5.36,3.36,6.23,-3.92
3785.0,-8.306,-0.617,-5.312,-8.461,-0.445,-5.341,3.29,6.65,-2.17
,-8.457,-0.866,-5.14,-8.279,-0.325,-5.449,5.74,7.42,-0.63
,-8.622,-0.639,-5.229,-8.203,-0.4,-5.439,9.03,6.51,0.21
,-8.497,-0.337,-5.422,-8.334,-0.469,-5.293,10.08,5.81,0.56
3860.0,-8.354,-0.653,-5.061,-8.605,0.897,-5.152,2.52,3.22,3.85
,-8.38,-0.44,-5.016,-8.576,0.861,-5.056,3.15,3.08,4.55
,-8.461,-0.091,-5.085,-8.607,0.696,-4.98,4.62,3.22,5.25
,-8.61,0.431,-5.03,-8.562,0.656,-4.908,5.67,2.73,5.53
3936.0,-8.593,0.715,-4.934,-8.471,0.644,-5.207,4.13,4.62,2.66
,-8.737,0.778,-4.848,-8.342,0.483,-5.31,5.11,4.83,1.89
,-8.71,0.871,-5.056,-8.442,0.242,-5.363,4.2,4.34,0.91
,-8.547,0.658,-4.999,-8.471,-0.184,-5.329,2.73,4.41,0.49
4012.0,-8.55,-0.464,-5.269,-8.55,0.0,-5.631,-0.56,4.97,0.07
,-8.397,-0.491,-5.413,-8.49,0.235,-5.635,0.0,4.69,0.84
,-8.275,-0.433,-5.561,-8.363,0.187,-5.465,0.84,4.76,1.61
,-8.416,-0.318,-5.633,-8.473,0.426,-5.468,1.19,4.62,2.17
4088.0,-8.708,0.648,-5.58,-8.057,-0.081,-5.446,1.47,3.57,1.26
,-8.715,0.708,-5.59,-8.062,-0.045,-5.353,0.91,3.08,0.28
,-8.653,0.531,-5.571,-8.418,0.287,-5.382,-0.49,2.73,-0.21
,-8.471,0.172,-5.528,-8.717,0.675,-5.441,-1.75,1.75,0.0
4164.0,-8.66,0.665,-5.52,-8.339,-0.55,-5.54,0.35,0.07,-0.7
,-8.571,0.541,-5.504,-8.375,-0.684,-5.351,-2.31,0.21,-0.77
,-8.382,0.151,-5.518,-8.356,-0.617,-5.437,-4.76,0.35,-0.77
,-8.323,-0.323,-5.446,-8.375,-0.376,-5.575,-5.39,0.56,-0.49
4239.0,-8.33,-0.361,-5.578,-8.729,0.285,-5.386,0.98,-1.61,4.13
,-8.442,-0.467,-5.523,-8.557,0.735,-5.37,-0.14,-1.61,5.25
,-8.469,-0.421,-5.523,-8.394,0.871,-5.233,-0.21,-1.54,6.37
,-8.564,-0.194,-5.434,-8.275,0.974,-5.202,0.98,-1.89,7.07
4315.0,-8.449,0.895,-5.142,-8.459,0.9,-5.001,-1.82,-2.38,5.67
,-8.696,0.962,-4.999,-8.526,0.651,-5.083,-1.68,-2.52,4.83
,-8.605,1.156,-5.071,-8.67,0.419,-4.905,-1.61,-2.24,3.64
,-8.488,1.029,-5.025,-8.576,0.299,-4.999,-2.73,-1.61,3.01
4391.0,-8.449,0.069,-5.118,-8.612,0.27,-5.106,-4.41,-1.12,2.24
,-8.447,-0.203,-5.116,-8.569,0.385,-5.023,-3.99,-0.98,2.52
,-8.593,-0.086,-5.145,-8.464,0.302,-4.951,-2.24,-1.75,2.59
,-8.536,0.148,-5.09,-8.366,0.218,-5.073,-1.05,-1.61,2.8
4467.0,-8.459,0.077,-4.987,-8.559,0.476,-5.027,-3.64,-0.63,2.94
,-8.435,0.151,-5.188,-8.471,0.495,-5.217,-1.61,-0.84,3.08
,-8.607,0.268,-5.095,-8.406,0.364,-5.164,0.91,-0.98,2.87
,-8.591,0.404,-5.032,-8.248,0.524,-5.099,2.73,-0.42,2.38
4542.0,-8.356,0.704,-5.269,-8.538,1.137,-5.063,5.18,-1.54,2.45
,-8.624,0.864,-5.238,-8.483,0.907,-5.13,5.39,-1.75,1.19
,-8.78,1.039,-5.097,-8.631,0.658,-5.118,5.04,-1.82,0.0
,-8.689,1.153,-5.03,-8.993,0.577,-5.135,3.29,-1.68,-0.7
4618.0,-8.576,0.548,-5.408,-8.605,0.191,-5.396,2.17,-2.59,-3.43
,-8.545,0.443,-5.212,-8.617,0.01,-5.377,2.94,-2.1,-3.15
,-8.614,0.33,-5.248,-8.378,0.06,-5.324,3.29,-2.38,-3.5
,-8.567,0.246,-5.317,-8.191,0.132,-5.279,3.01,-2.73,-3.85
4693.0,-8.39,0.215,-5.221,-8.679,0.258,-4.996,0.84,-5.39,-1.4
,-8.591,0.302,-5.26,-8.557,0.179,-4.831,-0.14,-6.93,-1.96
,-8.638,0.261,-5.145,-8.533,0.311,-4.855,-1.33,-7.42,-2.03
,-8.808,0.22,-5.054,-8.586,0.493,-5.018,-1.68,-6.86,-1.68
4769.0,-8.538,0.491,-4.989,-8.418,0.443,-4.604,0.07,-7.35,-0.49
,-8.591,0.285,-5.162,-8.495,0.505,-4.913,0.14,-7.49,0.42
,-9.026,0.574,-4.934,-8.76,0.223,-4.74,-2.31,-8.61,-0.42
,-8.667,0.139,-4.415,-8.813,0.139,-4.728,-2.52,-9.31,-0.84
4845.0,-8.708,0.395,-4.752,-9.036,-0.179,-4.592,0.21,-8.68,-0.7
,-8.569,0.462,-4.669,-8.77,-0.141,-4.604,1.26,-7.91,-0.42
,-8.581,0.323,-4.621,-8.6,-0.012,-4.499,2.24,-7.28,0.28
,-8.744,0.148,-4.736,-8.583,0.122,-4.475,3.99,-6.93,1.33
4921.0,-8.784,0.45,-4.539,-8.705,0.782,-4.903,10.57,-6.51,2.45
,-8.55,0.792,-4.575,-8.976,0.495,-4.314,8.26,-7.07,2.66
,-8.536,0.809,-4.453,-8.902,0.452,-4.235,4.41,-7.56,2.94
,-8.643,0.713,-4.413,-8.868,0.541,-4.111,1.61,-7.91,2.24
4996.0,-8.662,0.771,-4.142,-8.72,0.737,-4.357,1.12,-7.28,-0.63
,-8.734,0.759,-4.221,-8.823,0.507,-4.183,0.84,-7.07,-0.77
,-8.758,0.694,-4.14,-9.012,0.464,-4.156,0.42,-7.07,-1.68
,-8.813,0.593,-4.08,-9.206,0.572,-4.173,0.0,-6.09,-1.96
5072.0,-9.213,0.708,-4.448,-8.777,0.211,-4.805,0.98,-4.41,-2.66
,-8.997,0.993,-4.826,-8.942,0.098,-4.91,0.77,-4.34,-3.22
,-8.732,0.986,-4.949,-8.655,0.112,-4.776,-0.63,-4.27,-3.57
,-8.524,0.696,-4.791,-8.612,-0.194,-4.628,-1.96,-4.27,-4.06
5148.0,-8.799,-0.596,-4.369,-8.851,-0.187,-4.061,-4.83,-8.89,-4.83
,-8.94,-0.668,-4.494,-8.921,-0.11,-3.821,-1.96,-8.61,-3.92
,-8.837,-0.498,-4.348,-9.028,0.268,-4.003,0.07,-8.54,-3.22
,-8.765,-0.352,-4.24,-8.909,0.651,-4.137,1.26,-8.47,-1.96
5224.0,-8.878,1.034,-4.267,-9.246,0.687,-4.003,7.7,-7.84,0.21
,-8.904,1.062,-4.207,-8.918,0.744,-4.274,6.09,-7.77,-0.21
,-9.06,0.72,-3.824,-8.839,0.692,-4.367,4.69,-7.07,-1.12
,-9.296,0.629,-3.819,-8.926,0.452,-4.654,4.76,-6.51,-2.52
5300.0,-8.993,-0.055,-4.386,-9.072,-0.062,-4.166,-2.24,-8.61,-4.97
,-8.966,-0.053,-4.166,-9.136,-0.053,-4.044,0.35,-8.26,-4.97
,-8.892,0.084,-4.357,-9.268,0.098,-4.078,2.17,-8.47,-5.25
,-8.897,0.048,-4.286,-9.182,0.297,-4.223,2.52,-8.68,-5.11
5375.0,-9.012,0.682,-4.647,-9.261,-0.014,-3.475,10.92,-8.89,-2.45
,-8.772,0.725,-4.338,-9.325,0.27,-3.695,9.24,-8.96,-2.38
,-8.887,0.395,-3.951,-9.093,0.438,-3.611,8.12,-8.96,-2.24
,-9.162,-0.002,-3.798,-9.05,0.168,-3.738,8.96,-8.82,-2.66
5451.0,-8.976,-0.074,-3.845,-9.277,0.402,-3.721,7.49,-9.03,-2.38
,-8.945,-0.359,-3.635,-9.198,0.816,-3.948,8.89,-8.61,-1.54
,-9.148,-0.419,-3.403,-9.122,0.814,-3.946,11.83,-8.19,-0.77
,-9.239,-0.148,-3.412,-9.194,0.428,-3.477,14.35,-8.19,-1.05
5526.0,-9.335,0.115,-3.408,-8.792,0.44,-3.951,8.19,-9.1,-3.57
,-9.366,0.237,-3.609,-8.878,-0.258,-3.582,10.36,-9.31,-4.97
,-9.349,0.782,-4.078,-9.227,-0.579,-3.594,10.5,-10.01,-6.3
,-9.129,0.924,-4.317,-9.433,-0.577,-3.563,6.3,-10.92,-7.63
5602.0,-9.411,-0.404,-3.628,-9.265,-0.134,-2.994,8.68,-11.41,-6.44
,-9.196,-0.378,-3.412,-9.476,0.127,-3.051,8.54,-11.34,-5.6
,-9.15,-0.546,-3.297,-9.519,0.132,-2.879,9.17,-10.78,-4.9
,-9.184,-0.467,-3.051,-9.447,0.196,-3.135,10.64,-10.15,-4.69
5678.0,-9.203,-0.103,-2.974,-9.22,-0.392,-3.053,6.09,-8.26,-6.23
,-9.122,-0.177,-3.125,-9.349,-0.658,-3.013,7.56,-7.56,-6.23
,-9.136,-0.242,-3.218,-9.366,-0.802,-2.919,9.1,-7.21,-6.23
,-9.112,-0.27,-3.056,-9.366,-0.629,-3.276,10.01,-6.86,-5.74
5754.0,-9.225,-0.462,-3.285,-9.167,-0.321,-3.656,8.54,-4.97,-5.04
,-9.172,-0.369,-3.309,-9.289,-0.077,-3.821,7.28,-4.55,-4.76
,-9.227,-0.407,-3.295,-9.225,-0.089,-3.695,5.39,-4.48,-4.9
,-9.237,-0.388,-3.683,-9.189,-0.424,-3.29,4.9,-4.69,-5.25
5829.0,-9.375,-0.479,-3.367,-9.189,-0.345,-3.051,3.78,-6.65,-4.97
,-9.485,-0.409,-3.242,-9.239,-0.653,-2.424,4.83,-7.0,-5.11
,-9.435,-0.211,-3.312,-9.306,-0.912,-2.271,5.04,-7.42,-5.32
,-9.402,-0.048,-3.465,-9.488,-1.058,-2.082,2.94,-7.98,-5.88
5905.0,-9.706,-0.993,-2.18,-9.287,-0.995,-1.888,4.48,-4.2,-2.8
,-9.605,-0.914,-2.213,-9.471,-1.072,-1.749,5.6,-3.08,-1.96
,-9.39,-0.854,-2.178,-9.739,-0.809,-1.998,6.16,-1.61,-1.12
,-9.227,-0.909,-1.991,-9.708,-0.55,-2.101,6.79,0.14,-0.21
5981.0,-9.608,-0.402,-2.422,-9.316,-0.4,-3.506,8.26,6.93,1.82
,-9.354,-0.244,-2.745,-9.308,-0.488,-3.52,5.53,7.7,1.26
,-9.227,-0.225,-3.034,-9.38,-0.376,-3.613,3.36,8.05,0.98
,-9.371,-0.22,-3.403,-9.337,-0.227,-3.793,1.75,8.05,0.77
6057.0,-9.27,-0.124,-3.817,-9.328,-0.479,-3.352,-0.21,5.67,-0.28
,-9.246,-0.258,-3.814,-9.469,-0.428,-3.238,-1.05,4.97,-0.35
,-9.201,-0.483,-3.637,-9.526,-0.34,-3.163,-0.7,4.48,-0.21
,-9.306,-0.495,-3.522,-9.426,-0.352,-3.106,1.05,4.41,0.07
6132.0,-9.366,-0.495,-3.187,-9.407,-0.495,-3.262,1.47,3.5,0.21
,-9.349,-0.493,-3.326,-9.407,-0.409,-3.362,1.75,3.5,0.0
,-9.342,-0.462,-3.321,-9.328,-0.33,-3.393,1.82,3.71,0.28
,-9.316,-0.498,-3.195,-9.395,-0.402,-3.4,1.82,3.78,0.42
6208.0,-9.299,-0.514,-3.429,-9.239,-0.359,-3.537,0.0,3.22,0.07
,-9.246,-0.479,-3.36,-9.265,-0.395,-3.508,0.35,3.08,0.21
,-9.354,-0.469,-3.515,-9.27,-0.376,-3.448,1.05,2.59,0.14
,-9.301,-0.424,-3.563,-9.292,-0.438,-3.417,1.75,2.38,0.28
6284.0,-9.325,-0.51,-3.192,-9.474,-0.333,-3.178,3.29,1.61,0.91
,-9.354,-0.613,-3.101,-9.332,-0.354,-3.343,3.85,1.96,1.12
,-9.438,-0.51,-3.089,-9.263,-0.407,-3.436,4.34,2.17,1.05
,-9.493,-0.44,-3.075,-9.287,-0.361,-3.51,4.27,2.24,0.98
6359.0,-9.268,-0.426,-3.486,-9.378,-0.493,-3.324,3.01,1.75,0.14
,-9.244,-0.359,-3.415,-9.318,-0.503,-3.293,2.87,1.68,0.0
,-9.323,-0.414,-3.331,-9.33,-0.462,-3.312,2.45,1.75,0.14
,-9.375,-0.45,-3.238,-9.313,-0.433,-3.386,2.45,1.54,0.14
6435.0,-9.32,-0.412,-3.333,-9.38,-0.498,-3.34,2.38,1.4,0.28
,-9.308,-0.419,-3.281,-9.366,-0.467,-3.321,1.96,1.61,0.42
,-9.368,-0.519,-3.266,-9.354,-0.433,-3.384,1.75,1.54,0.49
,-9.418,-0.625,-3.202,-9.301,-0.452,-3.467,2.17,1.75,0.63
6511.0,-9.332,-0.517,-3.415,-9.404,-0.581,-3.147,2.52,1.26,0.63
,-9.256,-0.476,-3.285,-9.423,-0.514,-3.175,2.24,1.19,0.14
,-9.287,-0.383,-3.226,-9.359,-0.481,-3.264,1.82,1.26,0.0
,-9.378,-0.467,-3.087,-9.328,-0.514,-3.345,0.91,1.12,0.07
6587.0,-9.261,-0.455,-3.331,-9.332,-0.514,-3.218,1.4,1.68,0.77
,-9.308,-0.486,-3.326,-9.404,-0.5,-3.18,1.47,1.61,0.77
,-9.318,-0.514,-3.364,-9.43,-0.531,-3.195,1.54,1.75,0.98
,-9.316,-0.548,-3.228,-9.351,-0.5,-3.19,1.96,1.89,1.26
6662.0,-9.349,-0.459,-3.185,-9.409,-0.38,-3.417,3.15,2.38,1.89
,-9.351,-0.371,-3.281,-9.263,-0.256,-3.312,2.87,2.52,1.75
,-9.361,-0.459,-3.278,-9.246,-0.287,-3.295,2.1,2.73,1.75
,-9.347,-0.5,-3.29,-9.299,-0.416,-3.19,2.03,2.66,1.61
6738.0,-9.344,-0.524,-3.149,-9.34,-0.373,-3.352,-1.61,2.87,0.7
,-9.366,-0.443,-3.151,-9.328,-0.414,-3.419,-1.54,2.8,0.84
,-9.414,-0.428,-3.195,-9.268,-0.392,-3.446,-1.68,2.87,0.77
,-9.361,-0.333,-3.254,-9.265,-0.424,-3.534,-2.31,3.08,0.49
6814.0,-9.335,-0.505,-3.503,-9.32,-0.462,-3.563,-2.38,2.59,0.63
,-9.344,-0.519,-3.458,-9.308,-0.39,-3.714,-1.4,2.38,0.84
,-9.34,-0.462,-3.46,-9.359,-0.33,-3.74,-0.42,2.38,1.05
,-9.296,-0.471,-3.398,-9.208,-0.364,-3.795,0.14,2.45,1.33
6890.0,-9.177,-0.345,-3.798,-9.366,-0.385,-3.604,0.77,0.7,0.56
,-9.206,-0.292,-3.817,-9.385,-0.359,-3.606,1.4,0.14,0.49
,-9.39,-0.309,-3.838,-9.32,-0.318,-3.53,1.82,-0.35,0.42
,-9.359,-0.414,-3.721,-9.251,-0.273,-3.467,2.45,-0.98,0.7
6965.0,-9.27,-0.27,-3.34,-9.378,-0.337,-2.967,8.75,-2.31,1.61
,-9.34,-0.335,-3.254,-9.411,-0.459,-2.886,8.89,-2.38,1.47
,-9.395,-0.357,-3.166,-9.378,-0.421,-2.766,9.24,-2.31,1.4
,-9.397,-0.302,-3.106,-9.402,-0.404,-2.771,9.31,-2.17,1.4
7041.0,-9.428,-0.438,-2.797,-9.328,-0.445,-2.886,7.0,0.0,1.4
,-9.402,-0.455,-2.735,-9.366,-0.424,-2.867,6.37,0.42,1.4
,-9.43,-0.443,-2.802,-9.366,-0.534,-3.049,5.81,0.91,1.26
,-9.409,-0.44,-2.816,-9.33,-0.503,-3.12,5.11,1.4,0.98
7116.0,-9.385,-0.333,-3.25,-9.299,-0.507,-3.46,2.17,2.87,1.05
,-9.363,-0.378,-3.29,-9.289,-0.493,-3.479,1.47,2.87,0.91
,-9.392,-0.38,-3.396,-9.304,-0.57,-3.434,0.84,2.73,0.84
,-9.34,-0.436,-3.451,-9.304,-0.529,-3.348,0.7,2.59,0.84
7192.0,-9.337,-0.493,-3.326,-9.33,-0.457,-3.218,3.64,2.03,1.33
,-9.347,-0.407,-3.273,-9.404,-0.421,-3.175,3.71,2.1,1.26
,-9.332,-0.402,-3.24,-9.368,-0.416,-3.175,3.01,2.1,1.19
,-9.294,-0.469,-3.206,-9.38,-0.455,-3.214,2.59,2.03,1.19
7268.0,-9.342,-0.486,-3.317,-9.263,-0.541,-2.994,0.35,2.17,0.91
,-9.313,-0.467,-3.271,-9.371,-0.57,-2.867,-0.14,2.31,0.98
,-9.273,-0.476,-3.187,-9.45,-0.613,-2.702,-0.42,2.52,1.12
,-9.261,-0.519,-3.221,-9.404,-0.687,-2.479,-1.12,2.59,1.05
7344.0,-9.469,-0.591,-2.606,-9.387,-0.278,-3.142,-3.71,6.09,2.24
,-9.366,-0.493,-2.558,-9.282,-0.28,-3.384,-4.2,6.79,2.24
,-9.383,-0.464,-2.618,-9.198,-0.402,-3.544,-4.9,7.84,2.52
,-9.385,-0.333,-2.807,-9.194,-0.495,-3.616,-5.25,8.68,2.73
7420.0,-9.287,-0.402,-3.881,-9.143,-0.048,-4.02,-3.99,8.47,3.36
,-9.234,-0.208,-4.032,-9.153,-0.256,-3.776,-2.52,7.63,3.22
,-9.122,-0.014,-4.018,-9.208,-0.493,-3.479,-2.87,6.93,3.01
,-9.198,0.045,-4.085,-9.229,-0.766,-2.95,-4.62,5.88,2.24
7495.0,-9.438,-0.531,-2.864,-9.119,-0.275,-3.673,-8.47,4.76,1.96
,-9.608,0.007,-3.494,-9.079,-0.737,-3.305,-7.42,4.48,0.91
,-9.399,0.249,-3.597,-9.225,-0.974,-3.151,-9.45,3.71,0.42
,-9.191,0.122,-3.728,-9.361,-0.754,-2.804,-12.04,3.43,0.63
7571.0,-9.371,-0.376,-3.034,-9.373,-0.206,-3.058,-3.92,6.16,3.43
,-9.375,-0.347,-2.927,-9.328,-0.28,-3.087,-6.09,6.65,3.85
,-9.34,-0.471,-2.934,-9.179,-0.385,-3.084,-6.79,7.28,4.83
,-9.335,-0.266,-2.986,-9.026,-0.56,-2.912,-6.65,7.77,4.62
7647.0,-9.189,-0.67,-2.891,-9.129,0.921,-3.975,-2.59,11.34,6.23
,-9.308,-0.608,-2.809,-8.921,0.706,-4.125,1.47,12.11,7.07
,-9.438,-0.184,-2.927,-8.871,-0.115,-3.766,5.11,13.02,7.56
,-9.414,0.589,-3.888,-8.978,-0.744,-3.417,4.97,12.74,6.51
7723.0,-9.22,-0.665,-3.833,-9.253,-0.577,-3.135,-4.48,12.11,4.62
,-9.277,-0.333,-3.836,-9.27,-0.091,-2.836,-1.33,11.48,4.55
,-9.237,-0.034,-4.025,-9.237,0.586,-3.293,-0.7,10.99,5.11
,-9.124,-0.191,-3.716,-8.961,0.96,-3.841,-0.56,11.27,6.02
7798.0,-8.775,0.577,-4.245,-9.177,0.072,-3.829,-4.41,12.88,3.15
,-8.875,-0.443,-3.877,-9.194,0.981,-4.046,-8.82,13.23,4.69
,-9.083,-1.053,-3.745,-9.146,1.22,-3.843,-5.04,14.28,6.51
,-9.107,-0.768,-3.553,-9.057,0.811,-3.723,4.13,15.33,7.14
7874.0,-8.978,0.242,-3.446,-9.122,0.258,-3.977,-3.43,15.26,3.5
,-9.057,0.005,-3.482,-8.909,0.031,-4.166,-2.87,15.61,3.15
,-9.093,0.065,-3.884,-8.746,-0.558,-4.185,-1.68,15.4,2.38
,-9.148,0.165,-3.896,-8.672,-0.847,-4.209,-1.33,15.4,2.03
7949.0,-8.782,-0.861,-4.011,-9.026,0.531,-3.948,3.29,17.92,6.16
,-8.954,-0.641,-3.903,-9.256,0.692,-4.295,7.98,18.55,7.21
,-9.072,-0.242,-3.989,-9.301,0.663,-4.338,11.06,19.11,7.98
,-8.926,0.268,-4.176,-9.055,0.983,-4.599,11.9,19.25,8.33
8025.0,-8.564,0.928,-4.621,-9.033,0.345,-4.822,-2.52,16.59,3.22
,-8.449,0.964,-4.635,-9.043,0.486,-5.123,-1.68,16.52,2.45
,-8.581,0.852,-4.85,-8.648,0.684,-4.858,-0.98,15.75,1.61
,-8.72,0.567,-4.769,-8.617,0.909,-4.889,-0.49,15.26,0.56
8101.0,-8.693,0.742,-4.779,-8.428,-0.51,-4.688,0.7,13.3,-2.66
,-8.959,0.572,-4.788,-8.538,-0.581,-4.381,-1.89,12.95,-3.08
,-8.851,0.175,-4.884,-8.796,-0.615,-4.561,-5.04,12.67,-3.15
,-8.705,-0.261,-4.793,-8.705,-0.57,-4.714,-6.72,12.81,-2.1
8177.0,-8.526,-0.491,-4.917,-8.722,-0.218,-4.436,1.54,11.13,2.1
,-8.358,-0.424,-5.02,-8.696,-0.062,-4.561,2.52,11.83,3.78
,-8.416,-0.526,-4.774,-8.61,0.077,-4.563,3.71,12.88,4.62
,-8.559,-0.371,-4.597,-8.61,-0.012,-4.755,5.67,14.0,5.18
8252.0,-8.839,-0.129,-4.606,-8.186,-0.313,-5.185,3.36,14.77,8.19
,-8.933,-0.002,-4.616,-8.256,-0.617,-5.023,5.67,14.56,8.05
,-8.748,0.285,-5.027,-8.586,-0.689,-5.018,7.28,14.07,8.19
,-8.461,0.055,-5.209,-8.693,-0.555,-5.08,6.16,13.93,9.1
8328.0,-8.5,-0.28,-5.037,-8.775,1.196,-5.224,13.02,14.98,13.51
,-8.301,-0.053,-4.953,-8.904,1.548,-5.221,11.69,15.54,14.42
,-8.411,0.345,-4.996,-8.849,1.61,-5.095,11.34,15.82,14.63
,-8.648,0.706,-5.051,-8.698,1.46,-5.205,11.13,15.05,13.65
8404.0,-8.576,1.18,-5.114,-8.421,1.479,-5.2,0.35,11.97,6.79
,-8.363,0.811,-5.087,-8.603,1.445,-5.183,0.42,12.32,5.25
,-8.337,0.921,-4.999,-8.758,1.424,-5.255,2.31,12.74,4.13
,-8.315,1.362,-5.193,-8.579,1.199,-5.245,4.2,12.32,2.59
8480.0,-8.311,0.744,-5.243,-8.464,-0.838,-5.573,-6.65,10.5,-2.66
,-8.095,0.115,-5.341,-8.241,-0.67,-5.619,-7.98,10.5,-2.73
,-8.122,-0.536,-5.374,-8.15,-0.342,-5.688,-7.21,10.22,-2.1
,-8.315,-0.787,-5.511,-8.133,-0.038,-5.738,-3.99,9.87,-1.05
8556.0,-8.033,0.211,-5.774,-8.313,0.309,-5.877,4.48,6.37,4.55
,-8.122,0.419,-5.683,-8.49,0.093,-5.631,3.64,6.23,4.48
,-8.112,0.488,-5.652,-8.586,0.16,-5.499,2.59,6.44,4.76
,-8.208,0.388,-5.654,-8.275,0.316,-5.501,1.12,6.02,5.32
8631.0,-8.277,0.404,-5.465,-8.342,0.617,-5.274,8.61,5.25,6.3
,-8.339,0.33,-5.353,-8.265,0.809,-5.384,8.26,5.11,6.58
,-8.323,0.57,-5.47,-8.337,0.742,-5.363,8.26,5.25,6.44
,-8.275,0.546,-5.231,-8.378,0.988,-5.487,7.84,5.95,6.44
8707.0,-8.227,1.189,-5.458,-8.543,0.366,-5.358,8.89,5.53,3.5
,-8.189,1.106,-5.41,-8.356,0.237,-5.276,8.47,5.67,2.66
,-8.315,1.0,-5.389,-8.165,0.268,-5.384,7.49,5.81,1.89
,-8.497,0.601,-5.351,-8.189,0.189,-5.501,6.65,6.23,1.26
8782.0,-8.313,0.275,-5.664,-8.385,0.732,-5.702,8.89,7.63,1.96
,-8.392,0.33,-5.817,-8.452,1.012,-5.523,9.31,7.42,2.45
,-8.32,0.436,-5.642,-8.251,1.309,-5.676,9.1,7.21,2.73
,-8.308,0.704,-5.709,-8.026,1.091,-5.604,9.45,7.35,2.24
8858.0,-8.088,0.771,-5.633,-8.332,0.242,-5.724,5.18,7.07,-2.17
,-8.258,0.687,-5.635,-8.105,0.199,-5.815,5.74,6.86,-2.66
,-8.318,0.687,-5.875,-7.985,0.036,-5.791,6.72,6.51,-2.94
,-8.358,0.512,-5.796,-8.047,-0.053,-5.776,6.58,6.72,-3.08
8934.0,-8.148,-0.139,-5.817,-7.973,-0.117,-5.939,5.88,4.2,-1.05
,-8.162,-0.254,-5.875,-8.074,0.01,-5.963,4.55,3.71,-0.14
,-8.086,-0.433,-5.8,-8.186,0.0,-5.836,4.06,2.94,0.7
,-8.023,-0.302,-5.93,-8.189,0.055,-5.815,4.83,1.82,1.4
9010.0,-8.327,-0.048,-5.714,-8.119,0.555,-5.382,8.19,2.87,3.99
,-8.366,0.0,-5.525,-8.133,0.838,-5.54,9.52,2.59,4.76
,-8.131,0.151,-5.523,-8.282,0.897,-5.544,10.29,2.17,5.46
,-8.047,0.287,-5.475,-8.368,0.771,-5.492,9.66,1.96,5.67
9085.0,-8.296,0.694,-5.564,-8.014,0.383,-5.635,6.65,0.84,2.8
,-8.186,0.517,-5.571,-7.999,0.273,-5.721,6.16,0.84,2.38
,-8.026,0.486,-5.654,-8.205,0.0,-5.681,5.88,0.28,1.68
,-7.964,0.538,-5.788,-8.311,-0.158,-5.578,5.6,0.21,1.4
9161.0,-8.117,-0.05,-5.712,-8.267,0.555,-5.69,3.22,-0.28,3.15
,-8.059,-0.017,-5.803,-8.263,0.452,-5.583,3.36,0.28,3.85
,-8.098,0.17,-5.748,-8.308,0.292,-5.499,4.06,0.7,4.69
,-8.248,0.419,-5.772,-8.138,0.507,-5.489,4.76,0.42,5.04
9236.0,-7.94,0.957,-5.544,-8.387,0.696,-5.652,4.69,0.14,2.38
,-8.074,1.409,-5.664,-8.174,0.603,-5.786,4.06,0.0,0.98
,-8.363,1.354,-5.642,-8.038,0.414,-5.791,1.89,0.28,-0.07
,-8.504,1.017,-5.65,-8.05,0.134,-5.829,0.0,0.77,-0.63
9312.0,-8.133,0.017,-6.021,-7.837,-0.541,-5.757,-0.63,0.91,-1.05
,-8.411,-0.213,-6.126,-7.71,-0.72,-5.647,-0.63,0.77,-0.14
,-8.519,-0.206,-6.088,-8.031,-0.201,-5.664,-0.21,0.21,0.63
,-8.222,-0.175,-5.944,-8.402,0.536,-5.908,-0.77,-0.07,1.61
9388.0,-8.519,1.074,-6.04,-8.205,0.404,-5.755,0.14,-1.61,3.57
,-8.351,1.338,-6.018,-8.203,0.469,-5.765,-1.75,-1.75,3.01
,-8.179,1.299,-5.908,-8.241,0.543,-5.855,-4.55,-1.4,2.31
,-8.181,0.792,-5.736,-8.457,0.517,-5.726,-6.37,-1.26,1.47
9464.0,-8.571,0.598,-5.705,-8.385,0.519,-5.626,-0.07,-2.38,-0.84
,-8.569,0.706,-5.748,-8.196,0.577,-5.559,-0.49,-2.73,-1.33
,-8.342,0.677,-5.745,-8.217,0.687,-5.671,-0.84,-2.94,-1.33
,-8.289,0.522,-5.717,-8.222,0.639,-5.733,-2.66,-3.01,-1.05
9540.0,-8.514,0.531,-5.595,-8.186,0.227,-5.537,-4.76,-4.2,-1.12
,-8.399,0.27,-5.504,-8.193,0.483,-5.738,-5.6,-4.2,-0.7
,-8.196,0.141,-5.47,-8.356,0.419,-5.709,-5.53,-3.43,0.07
,-8.174,0.077,-5.382,-8.294,0.074,-5.449,-4.55,-2.8,1.05
9615.0,-8.318,-0.136,-5.367,-8.184,0.287,-5.676,-2.87,-2.45,2.87
,-8.131,-0.254,-5.401,-8.294,0.23,-5.602,-1.33,-1.68,3.92
,-8.141,-0.302,-5.523,-8.385,0.292,-5.518,-0.07,-3.08,4.76
,-8.1,0.124,-5.678,-8.375,0.404,-5.446,2.38,-4.34,5.11
9691.0,-8.289,0.45,-5.422,-8.248,1.132,-5.272,7.14,-4.2,4.76
,-8.337,0.658,-5.418,-8.169,1.151,-5.2,7.63,-3.99,4.41
,-8.337,0.72,-5.41,-8.366,0.928,-5.255,8.19,-4.27,3.92
,-8.519,0.945,-5.324,-8.646,0.656,-5.133,8.96,-5.25,3.01
9767.0,-8.725,0.826,-5.453,-8.253,0.919,-5.09,7.07,-6.23,0.21
,-8.552,0.893,-5.229,-8.246,0.916,-5.049,6.37,-5.67,0.14
,-8.234,0.938,-5.262,-8.363,0.838,-5.233,6.16,-4.76,-0.28
,-8.222,0.809,-5.111,-8.653,0.747,-5.307,5.67,-4.69,-1.33
9843.0,-8.744,0.821,-5.334,-8.145,0.553,-5.267,3.22,-7.0,-2.8
,-8.658,0.83,-5.248,-8.306,0.57,-5.312,3.29,-6.44,-3.22
,-8.497,0.713,-5.217,-8.366,0.534,-5.329,2.8,-6.02,-3.5
,-8.308,0.598,-5.185,-8.385,0.498,-5.217,1.75,-6.23,-3.78
9918.0,-8.437,0.581,-5.305,-8.579,-0.139,-5.226,3.92,-6.3,-3.43
,-8.344,0.404,-5.257,-8.868,-0.251,-5.367,3.99,-6.09,-3.01
,-8.404,0.12,-5.202,-8.624,0.416,-5.497,4.48,-6.02,-2.38
,-8.478,-0.029,-5.231,-8.555,0.261,-5.674,5.95,-5.81,-2.03
9994.0,-8.37,0.452,-5.465,-8.382,0.218,-5.236,10.99,-8.61,0.84
,-8.332,0.495,-5.432,-8.55,0.091,-5.166,9.38,-9.31,1.05
,-8.358,0.574,-5.516,-8.713,0.191,-5.099,7.63,-9.87,1.26
,-8.445,0.345,-5.353,-8.72,0.242,-4.838,6.09,-10.85,1.05
10069.0,-8.784,0.392,-4.855,-8.605,0.445,-4.817,8.19,-13.58,1.68
,-8.576,0.538,-4.764,-8.748,0.613,-4.815,7.84,-13.58,1.89
,-8.49,0.426,-4.728,-8.708,0.864,-4.867,6.86,-13.72,1.61
,-8.521,0.378,-4.807,-8.681,1.012,-4.862,6.09,-14.07,0.98
10145.0,-8.681,0.857,-4.446,-8.698,0.0,-4.353,3.43,-14.7,-2.03
,-8.603,0.115,-4.207,-8.689,0.005,-4.491,-0.14,-14.35,-2.45
,-8.973,0.447,-4.386,-8.6,0.017,-4.221,0.77,-15.05,-2.94
,-8.78,0.189,-4.594,-8.76,0.165,-4.269,-0.35,-14.98,-2.94
10221.0,-8.753,0.177,-4.393,-8.856,0.514,-4.441,3.5,-14.07,-1.33
,-8.727,0.089,-4.491,-8.916,0.56,-4.281,3.15,-13.93,-1.26
,-8.729,0.194,-4.575,-9.019,0.713,-4.001,3.71,-14.14,-0.7
,-8.837,0.433,-4.535,-9.129,0.727,-3.865,4.48,-14.14,-0.21
10297.0,-9.026,0.577,-3.8,-8.811,-0.077,-3.881,-1.26,-13.44,-4.34
,-8.732,0.476,-3.798,-9.177,-0.005,-3.857,-2.94,-13.44,-4.76
,-8.61,0.335,-4.14,-9.229,0.16,-3.695,-3.57,-13.44,-4.9
,-8.591,0.089,-4.063,-9.139,0.495,-3.829,-3.43,-13.44,-4.48
10372.0,-9.174,0.675,-3.845,-8.892,-0.677,-3.893,-0.98,-12.53,-7.0
,-9.122,0.371,-3.585,-8.897,-0.419,-4.034,-5.74,-12.6,-6.79
,-9.103,-0.141,-3.836,-8.983,0.146,-3.704,-8.47,-11.83,-6.51
,-8.973,-0.625,-3.912,-9.172,0.782,-4.326,-8.05,-10.92,-6.09
10448.0,-9.031,1.11,-4.616,-9.131,-0.325,-3.431,3.92,-11.2,-4.83
,-8.897,1.098,-4.527,-9.349,-0.041,-3.333,-0.07,-11.9,-5.53
,-8.928,0.675,-4.305,-9.354,0.237,-3.778,-3.64,-11.62,-5.67
,-9.002,0.072,-3.877,-9.129,0.258,-3.74,-4.55,-11.06,-6.16
10524.0,-9.036,0.294,-3.979,-9.268,0.146,-3.661,-0.28,-11.2,-4.69
,-9.091,0.112,-4.022,-9.328,0.182,-3.668,0.21,-11.2,-4.48
,-9.052,-0.132,-3.999,-9.361,0.29,-3.47,2.31,-10.92,-4.27
,-9.203,-0.079,-3.963,-9.246,0.156,-3.333,5.11,-11.06,-4.34
10600.0,-9.189,-0.156,-3.163,-9.296,0.218,-2.752,3.57,-10.43,-5.18
,-9.079,-0.246,-3.027,-9.529,0.182,-2.991,5.32,-10.01,-5.11
,-9.095,-0.012,-3.269,-9.323,0.053,-2.603,7.42,-9.17,-5.25
,-9.189,0.144,-3.092,-9.404,0.031,-3.061,7.7,-8.61,-5.11
10676.0,-9.261,0.153,-3.245,-9.141,0.067,-3.556,3.92,-5.81,-5.6
,-9.196,0.258,-3.355,-9.083,-0.196,-3.226,5.25,-5.25,-5.39
,-9.261,0.361,-3.534,-9.174,-0.294,-3.345,4.97,-5.11,-5.88
,-9.122,0.211,-3.47,-9.21,-0.302,-3.147,3.64,-5.11,-6.23
10751.0,-9.28,-0.421,-3.034,-9.129,-0.045,-3.534,2.66,-3.22,-5.46
,-9.485,-0.369,-3.242,-9.036,-0.299,-3.573,3.43,-2.87,-5.46
,-9.313,-0.251,-3.264,-9.067,-0.373,-3.496,3.43,-2.8,-5.46
,-9.155,-0.096,-3.434,-9.306,-0.237,-3.616,3.92,-2.73,-5.25
10827.0,-9.392,-0.048,-3.731,-9.34,-0.517,-3.479,6.16,-3.08,-4.9
,-9.299,-0.084,-3.666,-9.328,-0.313,-3.714,4.69,-3.43,-4.76
,-9.337,-0.156,-3.508,-9.22,-0.215,-3.855,3.29,-3.78,-4.69
,-9.395,-0.354,-3.513,-9.095,-0.347,-3.664,2.45,-3.92,-4.76
10902.0,-9.143,-0.495,-3.429,-9.579,-0.615,-2.46,2.45,-5.25,-3.85
,-9.184,-0.656,-3.005,-9.598,-0.366,-2.51,3.5,-4.83,-3.08
,-9.33,-0.761,-2.776,-9.442,-0.29,-2.694,5.39,-4.2,-2.17
,-9.521,-0.861,-2.398,-9.27,-0.201,-2.848,6.93,-3.29,-1.47
10978.0,-9.328,-0.261,-3.075,-9.44,-0.378,-2.879,5.18,0.35,-0.77
,-9.39,-0.467,-2.919,-9.354,-0.357,-2.898,3.99,0.77,-0.98
,-9.418,-0.514,-2.855,-9.428,-0.251,-3.123,4.13,1.12,-0.84
,-9.474,-0.392,-2.972,-9.347,-0.187,-3.4,4.41,1.61,-0.77
11054.0,-9.112,-0.184,-3.374,-9.584,-0.524,-2.651,4.27,2.59,-0.7
,-9.1,-0.337,-3.199,-9.682,-0.328,-2.91,3.5,2.8,-0.63
,-9.196,-0.586,-2.958,-9.49,-0.251,-3.046,3.36,3.57,-0.42
,-9.387,-0.644,-2.764,-9.203,-0.39,-3.226,4.41,4.34,0.0
11130.0,-9.081,-0.476,-3.393,-9.289,-0.294,-3.391,-0.28,5.95,-0.21
,-9.167,-0.474,-3.309,-9.249,-0.292,-3.553,0.35,6.16,0.07
,-9.337,-0.357,-3.3,-9.177,-0.357,-3.79,0.63,6.3,-0.07
,-9.402,-0.254,-3.348,-9.119,-0.29,-3.908,-0.56,6.23,-0.28
11205.0,-9.206,-0.211,-4.027,-9.308,-0.445,-3.556,0.21,4.2,-0.14
,-9.203,-0.23,-4.049,-9.354,-0.397,-3.427,1.05,3.92,0.0
,-9.148,-0.34,-3.85,-9.44,-0.275,-3.362,1.89,3.29,0.35
,-9.239,-0.388,-3.776,-9.404,-0.366,-3.376,2.94,2.73,0.49
11281.0,-9.28,-0.495,-3.283,-9.38,-0.378,-3.34,2.73,1.82,0.42
,-9.246,-0.476,-3.369,-9.33,-0.38,-3.18,3.36,2.03,0.63
,-9.222,-0.512,-3.312,-9.373,-0.328,-3.154,3.99,2.1,0.84
,-9.296,-0.452,-3.321,-9.378,-0.369,-3.139,4.55,2.31,1.19
11357.0,-9.361,-0.347,-3.235,-9.275,-0.242,-3.616,2.66,3.29,1.19
,-9.363,-0.342,-3.429,-9.251,-0.29,-3.613,2.73,3.36,1.33
,-9.263,-0.261,-3.486,-9.249,-0.318,-3.558,2.94,3.36,1.4
,-9.265,-0.256,-3.527,-9.268,-0.349,-3.472,3.22,3.5,1.33
11433.0,-9.275,-0.354,-3.486,-9.325,-0.388,-3.326,3.99,3.08,1.26
,-9.292,-0.266,-3.496,-9.282,-0.376,-3.281,4.48,2.94,1.05
,-9.316,-0.244,-3.396,-9.337,-0.34,-3.412,3.71,2.66,1.12
,-9.354,-0.316,-3.352,-9.28,-0.38,-3.429,2.87,2.73,1.12
11508.0,-9.246,-0.407,-3.4,-9.229,-0.292,-3.534,2.8,3.22,1.05
,-9.287,-0.321,-3.479,-9.234,-0.321,-3.532,2.94,3.22,0.91
,-9.28,-0.254,-3.606,-9.282,-0.457,-3.508,2.87,3.15,0.7
,-9.249,-0.208,-3.611,-9.234,-0.5,-3.35,2.38,3.08,0.7
11584.0,-9.361,-0.457,-3.324,-9.249,-0.395,-3.455,2.8,2.94,1.12
,-9.366,-0.371,-3.403,-9.258,-0.424,-3.451,2.73,2.87,0.98
,-9.347,-0.27,-3.417,-9.268,-0.352,-3.427,2.1,2.94,0.77
,-9.28,-0.287,-3.415,-9.318,-0.299,-3.422,1.05,2.94,0.7
11660.0,-9.354,-0.287,-3.494,-9.213,-0.294,-3.561,1.19,3.15,0.77
,-9.28,-0.302,-3.51,-9.289,-0.287,-3.515,0.91,3.15,0.77
,-9.201,-0.352,-3.565,-9.292,-0.22,-3.498,0.63,3.08,0.7
,-9.201,-0.359,-3.628,-9.251,-0.371,-3.494,1.12,3.22,0.7
11735.0,-9.273,-0.345,-3.513,-9.256,-0.392,-3.539,1.68,3.08,0.84
,-9.249,-0.313,-3.556,-9.287,-0.33,-3.568,1.82,3.08,0.7
,-9.206,-0.256,-3.549,-9.258,-0.223,-3.656,1.61,3.08,0.63
,-9.256,-0.328,-3.489,-9.203,-0.23,-3.659,1.19,2.94,0.7
11811.0,-9.184,-0.249,-3.683,-9.22,-0.29,-3.659,2.1,2.45,0.49
,-9.196,-0.321,-3.683,-9.201,-0.328,-3.618,2.1,2.52,0.56
,-9.16,-0.349,-3.594,-9.172,-0.34,-3.599,2.31,2.17,0.63
,-9.249,-0.297,-3.676,-9.249,-0.361,-3.568,2.66,2.1,0.63
11887.0,-9.284,-0.385,-3.563,-9.227,-0.302,-3.577,2.73,1.54,0.56
,-9.27,-0.354,-3.611,-9.268,-0.287,-3.513,2.66,1.68,0.56
,-9.234,-0.34,-3.561,-9.292,-0.38,-3.501,2.66,1.68,0.63
,-9.275,-0.345,-3.611,-9.277,-0.347,-3.369,2.73,1.61,0.63
11963.0,-9.268,-0.328,-3.494,-9.217,-0.39,-3.628,2.52,1.96,0.7
,-9.237,-0.385,-3.482,-9.27,-0.249,-3.635,2.31,1.89,0.77
,-9.198,-0.431,-3.431,-9.308,-0.304,-3.649,2.17,2.03,1.05
,-9.277,-0.407,-3.556,-9.256,-0.235,-3.695,2.38,2.17,0.98
12038.0,-9.215,-0.282,-3.699,-9.251,-0.29,-3.687,2.73,1.82,1.12
,-9.117,-0.321,-3.711,-9.222,-0.333,-3.58,3.01,1.61,1.19
,-9.21,-0.268,-3.716,-9.28,-0.366,-3.501,3.29,1.33,0.98
,-9.275,-0.275,-3.697,-9.273,-0.428,-3.431,3.36,1.05,0.84
12114.0,-9.237,-0.421,-3.369,-9.232,-0.287,-3.429,3.08,1.33,0.84
,-9.354,-0.366,-3.314,-9.234,-0.376,-3.522,3.01,1.54,1.12
,-9.351,-0.292,-3.384,-9.256,-0.385,-3.597,3.08,1.61,1.05
,-9.241,-0.313,-3.47,-9.251,-0.278,-3.649,2.66,1.89,0.98
12190.0,-9.146,-0.309,-3.568,-9.268,-0.268,-3.616,2.66,2.17,0.98
,-9.21,-0.4,-3.577,-9.198,-0.316,-3.656,2.66,1.89,0.98
,-9.282,-0.29,-3.599,-9.21,-0.395,-3.714,2.87,1.82,1.05
,-9.263,-0.196,-3.649,-9.239,-0.287,-3.637,2.94,1.75,1.05
12266.0,-9.246,-0.285,-3.601,-9.316,-0.409,-3.458,2.66,1.05,0.84
,-9.256,-0.316,-3.53,-9.249,-0.33,-3.434,2.38,1.19,0.84
,-9.229,-0.424,-3.408,-9.234,-0.321,-3.472,2.17,1.33,0.98
,-9.296,-0.366,-3.436,-9.234,-0.385,-3.41,2.38,1.4,0.98
12341.0,-9.215,-0.311,-3.436,-9.275,-0.199,-3.544,1.33,2.1,1.05
,-9.261,-0.29,-3.424,-9.284,-0.179,-3.53,0.77,2.1,0.84
,-9.304,-0.354,-3.324,-9.203,-0.292,-3.656,0.28,2.17,0.91
,-9.292,-0.256,-3.494,-9.165,-0.28,-3.778,0.28,2.38,0.7
12417.0,-9.153,-0.333,-3.853,-9.177,-0.191,-3.932,-1.68,1.82,0.56
,-9.167,-0.476,-3.771,-9.129,-0.246,-3.759,-1.12,1.75,0.98
,-9.201,-0.357,-3.769,-9.201,-0.378,-3.649,-0.28,1.61,0.98
,-9.217,-0.23,-3.977,-9.225,-0.263,-3.611,0.35,1.12,0.77
12492.0,-9.244,-0.211,-3.503,-9.359,-0.285,-3.419,0.91,0.21,0.91
,-9.292,-0.278,-3.51,-9.222,-0.249,-3.482,0.49,0.07,0.98
,-9.292,-0.376,-3.441,-9.201,-0.325,-3.527,0.14,0.21,0.98
,-9.301,-0.323,-3.393,-9.21,-0.345,-3.503,0.0,0.35,0.91
12568.0,-9.229,-0.184,-3.606,-9.22,-0.275,-3.764,0.42,0.91,1.05
,-9.275,-0.153,-3.644,-9.179,-0.275,-3.74,0.14,0.56,0.84
,-9.203,-0.163,-3.769,-9.217,-0.282,-3.709,-0.56,0.21,0.7
,-9.177,-0.218,-3.788,-9.237,-0.184,-3.716,-0.98,-0.07,0.63
12644.0,-9.198,-0.254,-3.654,-9.273,-0.249,-3.424,1.26,-1.33,0.77
,-9.213,-0.385,-3.604,-9.237,-0.251,-3.36,1.19,-1.33,0.77
,-9.206,-0.455,-3.525,-9.234,-0.349,-3.302,2.1,-1.47,0.98
,-9.249,-0.321,-3.467,-9.296,-0.302,-3.293,3.15,-1.26,1.12
12720.0,-9.299,-0.258,-3.252,-9.478,-0.179,-3.159,5.32,-0.14,1.82
,-9.328,-0.225,-3.135,-9.385,-0.194,-3.424,5.32,0.14,1.96
,-9.385,-0.28,-3.029,-9.122,-0.208,-3.599,4.97,0.35,2.1
,-9.459,-0.325,-3.056,-9.105,-0.328,-3.618,4.27,0.7,1.96
12796.0,-9.208,-0.347,-3.573,-9.387,-0.081,-3.288,0.42,1.33,1.19
,-9.263,-0.28,-3.503,-9.304,-0.156,-3.106,1.26,1.61,1.33
,-9.273,-0.213,-3.439,-9.34,-0.309,-3.065,1.4,1.54,1.05
,-9.328,-0.182,-3.376,-9.421,-0.426,-2.9,0.91,1.68,0.77
12871.0,-9.371,-0.263,-3.01,-9.397,-0.538,-3.08,-2.66,3.08,-0.56
,-9.227,-0.378,-3.175,-9.426,-0.376,-3.003,-3.15,3.64,-0.49
,-9.143,-0.464,-3.223,-9.347,-0.182,-2.982,-3.01,4.34,0.0
,-9.172,-0.668,-3.061,-9.373,0.024,-3.113,-1.61,5.25,0.98
12947.0,-9.368,0.031,-3.099,-9.129,-0.476,-3.309,-0.28,7.42,1.75
,-9.222,0.014,-3.405,-9.349,-0.431,-3.527,-1.89,7.7,1.4
,-9.241,-0.211,-3.542,-9.361,-0.144,-3.946,-3.5,7.49,0.77
,-9.095,-0.4,-3.53,-9.04,-0.026,-3.735,-4.41,7.42,0.7
13023.0,-9.069,0.069,-4.319,-8.997,-0.914,-3.92,-4.34,6.16,0.42
,-9.028,-0.237,-4.209,-9.131,-0.467,-3.781,-5.67,5.53,0.63
,-9.064,-0.579,-4.228,-9.21,0.079,-3.831,-5.11,5.32,1.82
,-8.938,-0.742,-4.221,-9.067,0.024,-3.46,-2.87,5.32,2.52
13099.0,-9.194,-0.278,-3.434,-9.483,-0.196,-2.352,0.63,4.06,3.64
,-9.21,-0.613,-3.226,-9.438,0.206,-2.814,0.63,4.48,4.06
,-9.28,-0.73,-2.737,-9.258,0.555,-3.393,3.15,5.67,4.69
,-9.483,-0.483,-2.675,-9.146,0.505,-3.652,5.6,7.28,4.62
13174.0,-9.112,0.175,-3.733,-9.28,-0.01,-3.79,-4.41,9.38,4.06
,-8.88,-0.483,-3.79,-9.387,0.273,-3.659,-5.25,10.5,4.2
,-8.753,-0.873,-3.412,-9.416,0.22,-3.451,-1.26,11.41,4.62
,-8.966,-0.627,-3.556,-9.246,0.038,-3.163,4.34,11.27,4.62
13250.0,-9.256,0.182,-3.613,-8.811,-0.402,-4.034,-0.84,13.02,4.34
,-9.167,0.529,-3.908,-8.758,-0.804,-3.58,-0.49,11.97,2.8
,-9.115,0.682,-4.444,-9.083,-0.519,-3.714,-1.89,11.13,1.68
,-8.873,0.352,-4.317,-9.239,-0.136,-3.872,-5.53,11.34,1.47
13325.0,-9.28,-0.038,-3.762,-9.031,-0.888,-3.372,3.15,12.67,3.71
,-9.191,-0.316,-3.544,-9.048,-0.223,-3.884,-0.49,13.79,4.34
,-9.062,-0.821,-3.233,-8.966,0.285,-4.094,-1.75,15.19,5.6
,-9.028,-1.07,-3.307,-9.04,0.555,-4.113,-0.07,16.24,6.79
13401.0,-9.052,0.479,-4.149,-9.016,1.106,-4.927,7.49,17.57,8.12
,-8.882,0.323,-4.046,-8.882,0.782,-4.762,7.84,17.99,7.91
,-8.928,0.503,-4.365,-8.677,0.019,-4.346,9.87,17.01,6.72
,-8.971,0.888,-4.745,-8.626,-0.481,-4.348,11.2,15.47,5.04
13477.0,-8.885,-0.591,-4.475,-8.612,-0.323,-4.499,3.57,15.4,2.45
,-9.27,-0.337,-4.53,-8.555,-0.328,-4.575,5.6,14.49,3.01
,-9.083,-0.16,-4.673,-8.811,0.045,-4.554,4.27,14.28,3.57
,-8.705,-0.251,-4.506,-8.902,0.416,-4.568,1.75,14.77,3.92
13553.0,-8.871,0.51,-4.099,-8.837,0.306,-4.704,3.22,15.05,3.78
,-8.746,0.536,-4.137,-8.772,0.22,-4.637,2.52,15.19,3.22
,-8.571,0.335,-4.369,-8.751,0.225,-4.614,1.89,14.63,2.31
,-8.765,0.359,-4.472,-8.674,0.29,-4.609,2.24,13.93,2.52
13628.0,-8.732,0.373,-4.623,-8.799,-0.096,-4.771,3.71,15.4,1.26
,-8.648,0.4,-4.733,-8.868,-0.132,-4.879,1.61,15.26,0.91
,-8.741,0.124,-4.695,-8.701,-0.184,-4.853,-0.84,15.12,0.7
,-8.768,0.014,-4.803,-8.538,-0.223,-4.635,-1.4,14.91,0.7
13704.0,-8.325,-0.266,-4.738,-8.799,0.794,-5.044,0.28,13.02,2.38
,-8.284,-0.318,-4.654,-8.787,0.897,-5.197,1.61,12.95,2.59
,-8.495,-0.187,-4.702,-8.684,0.61,-5.221,4.13,13.37,3.01
,-8.715,0.359,-4.877,-8.5,0.163,-5.166,5.74,13.44,2.94
13780.0,-8.488,-0.242,-5.004,-8.38,-0.538,-4.941,-2.31,11.55,1.82
,-8.433,-0.407,-4.901,-8.445,-0.163,-5.166,0.0,11.83,2.17
,-8.497,-0.51,-4.769,-8.397,0.182,-5.41,2.31,12.11,2.87
,-8.44,-0.581,-4.817,-8.421,0.45,-5.487,3.92,12.25,3.5
13856.0,-8.464,0.462,-5.444,-8.488,-0.191,-5.016,6.65,11.76,6.37
,-8.662,0.376,-5.346,-8.394,-0.23,-5.039,4.69,11.13,5.53
,-8.629,0.512,-5.398,-8.375,-0.065,-5.114,3.5,10.64,5.18
,-8.557,0.139,-5.219,-8.476,0.263,-5.138,2.38,10.85,5.39
13932.0,-8.569,0.507,-5.205,-8.768,-0.199,-5.071,7.63,10.71,6.16
,-8.449,0.603,-5.207,-8.655,-0.012,-5.126,5.46,10.92,6.23
,-8.416,0.397,-5.078,-8.356,0.203,-5.305,2.66,11.2,6.51
,-8.466,0.134,-5.106,-8.172,0.34,-5.224,1.54,11.41,6.65
14007.0,-8.241,0.495,-5.245,-8.387,1.338,-5.36,3.43,9.73,6.58
,-8.368,0.744,-5.269,-8.339,1.175,-5.389,4.69,9.45,5.32
,-8.447,0.964,-5.427,-8.303,0.692,-5.291,5.46,9.45,3.92
,-8.526,1.184,-5.398,-8.27,0.258,-5.348,4.2,9.66,3.01
14083.0,-8.165,-0.127,-5.269,-8.131,-0.672,-5.827,-2.17,8.89,1.4
,-8.198,-0.438,-5.525,-8.236,-0.191,-5.915,-0.7,9.1,2.38
,-8.466,-0.775,-5.489,-8.229,-0.144,-5.884,0.84,8.68,3.43
,-8.2,-0.675,-5.832,-8.153,-0.041,-5.827,4.27,8.68,4.69
14158.0,-8.311,0.163,-5.81,-8.291,-0.031,-5.702,6.23,6.65,6.93
,-8.301,0.179,-5.827,-8.375,-0.038,-5.432,4.62,6.02,7.28
,-8.279,0.263,-5.925,-8.26,0.392,-5.453,3.29,5.6,7.49
,-8.306,0.199,-5.855,-8.172,0.847,-5.497,3.29,5.6,7.84
14234.0,-8.251,1.242,-5.508,-8.21,0.739,-5.664,8.68,3.36,6.23
,-8.344,1.381,-5.463,-8.102,0.203,-5.468,7.84,3.71,4.62
,-8.576,1.311,-5.501,-8.047,0.026,-5.549,6.02,3.99,3.29
,-8.399,1.103,-5.587,-8.112,0.108,-5.408,4.06,4.27,2.59
14310.0,-8.248,0.254,-5.312,-8.294,0.634,-5.252,6.44,6.37,2.87
,-8.291,0.474,-5.288,-8.275,0.634,-5.257,7.14,6.44,2.38
,-8.354,0.648,-5.355,-8.287,0.768,-5.183,5.88,6.3,1.89
,-8.337,0.622,-5.324,-8.241,0.979,-5.248,4.27,6.72,1.75
14386.0,-8.21,0.943,-5.353,-8.22,0.629,-5.587,1.33,7.63,-1.61
,-8.126,0.921,-5.269,-8.32,0.634,-5.76,0.98,7.49,-2.38
,-7.992,0.763,-5.341,-8.203,0.469,-5.781,1.4,7.7,-2.87
,-8.105,0.68,-5.468,-8.026,0.266,-5.803,2.45,8.26,-3.01
14461.0,-7.923,-0.218,-5.707,-8.086,-0.182,-6.085,2.52,9.38,-2.24
,-7.985,-0.342,-5.872,-8.138,0.263,-6.03,2.87,8.33,-1.19
,-8.098,-0.493,-5.961,-8.117,0.407,-6.025,2.94,7.49,-0.28
,-8.102,-0.392,-6.054,-8.155,0.333,-5.93,3.43,6.44,0.07
14537.0,-8.174,0.103,-5.879,-8.066,0.572,-6.011,1.26,4.9,1.61
,-8.174,0.184,-5.82,-8.105,0.739,-6.042,1.75,4.41,2.03
,-8.133,0.364,-6.004,-8.074,0.72,-6.054,2.73,3.64,2.1
,-7.983,0.491,-6.047,-8.117,0.873,-5.973,3.57,3.57,1.89
14612.0,-8.069,0.876,-6.009,-8.016,-0.089,-6.085,5.11,3.57,0.49
,-8.155,0.742,-5.992,-7.995,-0.436,-6.061,3.99,3.08,0.0
,-8.217,0.538,-6.073,-7.921,-0.584,-5.973,2.38,2.66,-0.07
,-8.129,0.242,-6.123,-7.921,-0.38,-5.963,1.54,2.45,0.63
14688.0,-7.983,0.062,-5.954,-8.131,0.354,-5.815,4.69,-0.77,3.85
,-8.157,0.397,-6.023,-8.043,0.512,-5.851,4.06,-1.54,4.13
,-8.16,0.412,-6.042,-8.047,0.522,-5.92,2.03,-2.03,4.06
,-8.203,0.258,-5.927,-8.177,0.507,-5.894,1.54,-1.61,3.85
14764.0,-8.043,0.718,-5.975,-8.177,0.455,-5.762,3.15,-1.96,2.24
,-8.078,0.66,-5.91,-8.157,0.28,-5.664,2.94,-1.68,2.1
,-8.2,0.553,-5.832,-8.05,0.199,-5.619,2.8,-1.96,1.75
,-8.189,0.505,-5.717,-8.026,0.189,-5.556,2.38,-2.45,1.12
14840.0,-8.016,0.237,-5.561,-8.184,0.443,-5.75,0.49,-1.54,1.12
,-8.196,0.529,-5.693,-8.055,0.297,-5.7,0.7,-2.31,1.12
,-8.198,0.737,-5.774,-8.002,0.45,-5.788,0.0,-2.8,1.19
,-8.287,0.718,-5.757,-8.15,0.546,-5.686,-1.82,-2.59,1.12
14916.0,-8.198,0.55,-5.829,-8.133,-0.196,-5.865,0.0,-2.73,0.21
,-8.22,0.577,-5.987,-8.038,-0.345,-5.815,-1.05,-3.36,0.07
,-8.165,0.287,-6.03,-8.083,-0.11,-5.834,-2.31,-3.22,0.42
,-8.15,0.053,-5.98,-8.172,0.581,-5.966,-2.87,-2.87,0.84
14991.0,-8.241,0.991,-6.054,-8.418,0.581,-5.769,1.05,-4.9,2.24
,-8.363,1.003,-5.939,-8.289,0.538,-5.597,-0.98,-4.76,1.68
,-8.449,0.888,-5.76,-8.296,0.581,-5.549,-3.01,-4.83,1.19
,-8.433,0.627,-5.654,-8.227,0.814,-5.676,-4.34,-4.41,1.12
15067.0,-8.227,0.847,-5.623,-8.442,0.672,-5.384,2.73,-6.3,-0.63
,-8.272,0.83,-5.575,-8.488,0.651,-5.451,2.52,-6.3,-0.91
,-8.284,0.782,-5.432,-8.421,0.565,-5.473,2.17,-5.88,-1.19
,-8.308,0.713,-5.394,-8.483,0.328,-5.296,1.68,-5.46,-1.61
15143.0,-8.098,0.333,-5.508,-8.516,0.203,-5.43,0.49,-4.97,-1.05
,-7.921,0.187,-5.549,-8.509,0.287,-5.492,0.63,-4.13,-0.42
,-8.045,0.153,-5.59,-8.404,0.256,-5.432,1.33,-4.06,-0.14
,-8.337,0.141,-5.568,-8.165,0.311,-5.53,1.75,-4.34,-0.21
15219.0,-8.105,0.292,-5.623,-8.241,-0.22,-5.453,1.89,-1.82,1.54
,-8.306,0.177,-5.619,-8.191,-0.258,-5.341,2.73,-1.33,1.61
,-8.464,0.266,-5.59,-8.16,-0.12,-5.341,4.27,-2.31,1.26
,-8.32,0.139,-5.583,-8.282,0.01,-5.126,4.83,-2.73,1.47
15294.0,-8.538,0.558,-5.097,-8.466,0.51,-5.035,15.75,-3.92,2.59
,-8.461,0.979,-5.106,-8.435,0.412,-5.111,14.98,-4.48,1.96
,-8.361,0.952,-4.98,-8.399,0.672,-5.133,11.62,-4.27,1.47
,-8.38,0.778,-5.025,-8.346,0.615,-5.305,7.84,-3.92,1.05
15370.0,-8.399,0.5,-5.128,-8.236,-0.089,-5.195,4.2,-4.62,-0.42
,-8.634,0.227,-5.152,-8.066,-0.031,-5.372,4.27,-4.48,-0.35
,-8.746,0.101,-5.176,-8.334,0.108,-5.37,4.06,-4.76,-0.28
,-8.449,0.029,-5.195,-8.457,0.357,-5.31,4.27,-5.25,0.14
15445.0,-8.32,0.522,-5.3,-8.545,0.658,-5.243,7.0,-5.32,1.75
,-8.248,0.665,-5.341,-8.483,0.713,-5.2,5.88,-5.25,1.75
,-8.299,0.675,-5.339,-8.425,0.732,-5.102,4.83,-5.25,1.54
,-8.454,0.644,-5.276,-8.44,0.584,-5.066,4.27,-5.25,1.19
15521.0,-8.488,0.744,-5.133,-8.43,0.28,-5.15,2.8,-6.72,-1.54
,-8.476,0.782,-5.106,-8.485,0.117,-5.205,3.01,-7.42,-1.89
,-8.425,0.73,-5.133,-8.674,0.086,-5.219,2.8,-7.28,-1.82
,-8.471,0.503,-5.162,-8.629,0.23,-5.176,1.4,-7.42,-2.1
15597.0,-8.705,0.402,-5.284,-8.502,0.237,-5.339,6.65,-7.63,-1.54
,-8.49,0.483,-5.341,-8.375,0.127,-5.272,6.23,-7.21,-1.19
,-8.519,0.194,-5.159,-8.464,-0.01,-5.217,4.41,-7.56,-0.56
,-8.626,0.158,-5.185,-8.55,0.05,-5.039,4.41,-7.91,0.28
15673.0,-8.521,0.237,-5.042,-8.715,0.352,-4.934,6.3,-8.75,1.12
,-8.555,0.402,-4.984,-8.729,0.275,-4.848,6.79,-9.31,1.47
,-8.562,0.512,-4.987,-8.674,0.34,-4.92,5.88,-9.73,1.68
,-8.576,0.476,-4.984,-8.574,0.239,-4.628,4.48,-10.43,1.54
15748.0,-8.66,0.16,-4.487,-8.66,0.493,-4.745,7.14,-10.43,1.68
,-8.772,0.127,-4.484,-8.579,0.625,-4.745,8.26,-10.64,1.68
,-8.866,0.278,-4.549,-8.557,0.591,-4.63,8.75,-10.99,1.82
,-8.818,0.373,-4.678,-9.098,0.708,-5.408,7.98,-11.2,1.47
15824.0,-8.607,0.744,-4.623,-8.954,0.337,-4.267,6.37,-11.55,-0.49
,-8.796,0.627,-4.369,-9.091,0.452,-4.346,5.25,-11.06,-0.77
,-8.693,0.309,-4.209,-8.945,0.503,-4.599,2.31,-10.99,-1.12
,-8.827,0.299,-4.173,-8.715,0.675,-4.683,1.54,-10.57,-1.05
15900.0,-8.571,0.617,-4.69,-8.985,-0.206,-4.255,-1.33,-11.2,-3.43
,-8.732,0.383,-4.649,-8.947,-0.022,-4.374,-2.45,-11.62,-3.85
,-8.801,0.089,-4.322,-8.823,0.395,-4.566,-3.22,-11.34,-4.13
,-8.866,-0.175,-4.195,-8.686,0.409,-4.487,-2.17,-11.13,-3.99
15976.0,-8.677,0.031,-4.149,-9.136,0.065,-3.778,-4.34,-11.48,-3.22
,-8.882,-0.342,-4.006,-8.988,0.584,-3.967,-3.85,-10.99,-3.08
,-9.002,-0.452,-3.676,-8.949,0.826,-4.051,-1.82,-10.64,-2.94
,-9.17,-0.388,-3.781,-8.899,0.718,-3.9,-0.14,-10.5,-2.52
16052.0,-8.966,0.524,-3.85,-8.981,-0.148,-3.917,-3.78,-9.17,-3.29
,-9.0,0.373,-3.589,-8.902,-0.251,-4.013,-3.78,-8.4,-3.71
,-9.081,-0.06,-3.628,-8.89,-0.4,-4.058,-4.97,-8.19,-4.2
,-9.036,-0.139,-3.877,-8.954,-0.347,-3.879,-4.41,-8.33,-4.55
16127.0,-9.184,-0.156,-3.831,-8.914,0.637,-4.35,3.92,-7.0,-0.07
,-9.344,0.124,-3.891,-8.909,0.455,-4.082,4.69,-7.07,-0.28
,-9.258,0.479,-4.113,-9.012,0.144,-4.001,3.71,-7.07,-0.56
,-9.0,0.694,-4.204,-9.048,-0.012,-3.757,1.61,-7.28,-0.91
16203.0,-9.11,0.034,-4.183,-9.11,-0.117,-3.912,3.92,-6.65,-1.47
,-8.921,0.304,-4.121,-9.11,-0.436,-3.451,5.25,-7.28,-1.4
,-8.902,0.304,-4.011,-9.227,-0.376,-3.374,4.97,-7.7,-0.7
,-9.012,0.172,-4.104,-9.194,-0.282,-3.099,3.85,-7.98,-0.49
16278.0,-9.196,0.05,-3.369,-9.146,0.763,-3.932,8.96,-4.97,0.42
,-9.194,0.424,-3.491,-9.124,0.696,-3.877,7.63,-4.69,0.35
,-9.265,0.56,-3.716,-9.019,0.653,-3.872,5.18,-4.62,0.07
,-9.208,0.639,-4.046,-8.976,0.278,-3.551,3.71,-4.83,-0.28
16354.0,-9.131,0.053,-3.618,-9.351,-0.55,-3.199,3.22,-5.18,-2.59
,-9.227,-0.218,-3.453,-9.217,-0.294,-3.171,2.38,-5.18,-2.38
,-9.232,-0.476,-3.283,-9.239,0.144,-3.254,2.59,-4.48,-1.33
,-9.284,-0.62,-3.144,-9.227,0.491,-3.309,3.85,-3.36,-0.21
16430.0,-9.299,0.761,-3.86,-9.016,-0.203,-3.781,6.86,-1.54,0.14
,-9.177,0.706,-4.025,-9.148,-0.031,-3.625,4.76,-1.82,-0.7
,-9.028,0.431,-4.03,-9.294,0.28,-3.388,2.8,-1.96,-0.98
,-8.906,0.11,-3.886,-9.423,0.531,-3.458,2.8,-1.75,-0.91
16506.0,-9.304,0.476,-3.412,-9.165,0.153,-3.434,5.18,-1.54,-2.38
,-9.174,0.168,-3.338,-9.227,0.237,-3.369,2.73,-1.12,-2.73
,-9.103,0.031,-3.242,-9.232,0.179,-3.269,2.03,-0.84,-3.29
,-9.131,0.043,-3.434,-9.313,0.043,-3.238,3.01,-0.42,-3.5
16581.0,-9.373,-0.026,-3.161,-9.342,0.273,-3.874,0.56,1.19,-3.5
,-9.337,-0.172,-3.163,-9.172,0.436,-4.08,-0.42,1.82,-3.43
,-9.306,-0.093,-3.24,-8.957,0.309,-4.252,-0.63,2.31,-3.29
,-9.361,0.132,-3.434,-9.005,0.038,-4.355,-0.07,2.45,-3.22
16657.0,-9.115,-0.139,-4.216,-9.203,0.124,-4.006,0.56,0.63,-3.5
,-9.237,-0.086,-4.243,-9.222,-0.12,-3.915,2.45,0.0,-3.5
,-9.217,-0.041,-4.106,-9.208,-0.062,-3.927,3.5,-0.56,-3.64
,-9.167,0.203,-4.353,-9.273,-0.098,-3.965,4.69,-1.33,-3.92
16732.0,-9.206,-0.168,-3.85,-9.201,-0.261,-3.343,2.38,-3.15,-4.06
,-9.229,-0.081,-3.867,-9.263,-0.294,-3.125,2.8,-3.5,-3.85
,-9.143,-0.165,-3.74,-9.39,-0.199,-3.271,3.01,-3.85,-3.85
,-9.117,-0.249,-3.52,-9.409,-0.026,-3.29,3.36,-3.92,-3.64
16808.0,-9.258,-0.041,-3.288,-9.414,-0.548,-2.649,0.91,-2.52,-3.64
,-9.15,-0.244,-3.238,-9.524,-0.522,-2.568,0.07,-2.1,-3.43
,-9.134,-0.436,-3.12,-9.493,-0.404,-2.711,0.7,-1.47,-2.94
,-9.237,-0.438,-2.91,-9.359,-0.292,-2.802,2.8,-0.63,-2.24
16884.0,-9.249,-0.273,-3.063,-9.167,-0.318,-3.855,2.24,3.99,-0.49
,-9.246,-0.335,-3.19,-9.158,-0.23,-3.845,1.26,4.48,-0.28
,-9.275,-0.359,-3.575,-9.153,-0.086,-3.912,1.61,4.97,-0.14
,-9.208,-0.366,-3.687,-9.155,0.019,-3.963,2.17,5.11,0.0
16960.0,-9.246,0.089,-3.908,-9.206,-0.096,-3.774,3.92,3.29,0.21
,-9.249,0.014,-3.92,-9.122,-0.132,-3.704,3.92,3.01,0.0
,-9.258,-0.115,-3.877,-9.167,-0.201,-3.57,4.76,2.52,0.07
,-9.225,-0.136,-3.848,-9.201,-0.246,-3.352,5.88,2.03,-0.07
17036.0,-9.316,-0.251,-3.202,-9.366,-0.357,-3.08,5.46,2.1,-0.35
,-9.395,-0.225,-3.077,-9.294,-0.175,-3.18,4.69,2.59,-0.42
,-9.342,-0.242,-3.02,-9.194,-0.158,-3.319,3.57,3.08,-0.49
,-9.263,-0.335,-2.886,-9.11,-0.184,-3.467,2.03,3.71,-0.42
17111.0,-9.153,-0.177,-3.654,-9.098,-0.258,-3.991,0.49,5.39,-0.42
,-9.107,-0.227,-3.778,-9.194,-0.337,-3.879,0.63,5.32,-0.35
,-9.148,-0.153,-3.891,-9.22,-0.323,-3.857,0.7,5.11,-0.42
,-9.179,-0.215,-4.011,-9.22,-0.227,-3.699,1.12,5.04,-0.49
17187.0,-9.268,-0.199,-3.616,-9.217,-0.084,-3.774,3.08,3.92,0.35
,-9.323,-0.232,-3.577,-9.186,-0.069,-3.845,2.66,3.99,0.28
,-9.311,-0.17,-3.498,-9.15,-0.098,-3.884,2.31,3.99,0.21
,-9.265,-0.179,-3.628,-9.16,-0.163,-3.97,1.89,4.13,0.07
17263.0,-9.117,-0.261,-3.96,-9.17,-0.108,-3.735,0.63,3.15,-0.49
,-9.095,-0.235,-3.781,-9.227,-0.134,-3.845,1.19,2.87,-0.28
,-9.172,-0.211,-3.829,-9.129,-0.261,-3.766,2.1,2.66,-0.35
,-9.222,-0.211,-3.807,-9.076,-0.34,-3.704,2.52,2.38,-0.42
17339.0,-9.127,-0.199,-3.814,-9.292,-0.251,-3.594,4.2,1.82,0.0
,-9.201,-0.215,-3.776,-9.201,-0.321,-3.601,4.34,1.96,0.0
,-9.16,-0.165,-3.668,-9.165,-0.354,-3.632,4.13,1.89,0.14
,-9.225,-0.208,-3.647,-9.172,-0.297,-3.714,3.64,2.03,-0.07
17414.0,-9.105,-0.239,-3.733,-9.186,-0.208,-3.678,3.29,2.17,0.14
,-9.098,-0.235,-3.716,-9.172,-0.239,-3.754,3.43,2.1,0.07
,-9.184,-0.237,-3.709,-9.182,-0.345,-3.776,3.36,2.31,0.14
,-9.15,-0.196,-3.685,-9.131,-0.349,-3.798,3.22,2.31,0.14
17490.0,-9.127,-0.345,-3.81,-9.172,-0.397,-3.482,2.87,2.1,0.28
,-9.105,-0.354,-3.75,-9.239,-0.366,-3.558,3.15,1.96,0.28
,-9.186,-0.364,-3.692,-9.294,-0.33,-3.573,3.43,1.96,0.56
,-9.203,-0.364,-3.594,-9.289,-0.201,-3.561,3.5,2.1,0.77
17565.0,-9.294,-0.201,-3.728,-9.194,-0.273,-3.8,3.22,2.94,1.26
,-9.177,-0.184,-3.764,-9.148,-0.187,-3.874,2.73,3.01,1.19
,-9.191,-0.23,-3.771,-9.194,-0.041,-4.037,2.31,2.87,1.19
,-9.194,-0.263,-3.762,-9.139,0.005,-4.089,2.17,2.8,1.19
17641.0,-9.045,-0.091,-4.061,-9.215,-0.23,-3.585,2.45,1.54,0.56
,-9.028,-0.199,-3.979,-9.217,-0.306,-3.477,2.45,1.33,0.42
,-9.119,-0.292,-3.862,-9.16,-0.397,-3.453,3.15,1.05,0.42
,-9.215,-0.266,-3.764,-9.227,-0.354,-3.51,3.57,0.84,0.49
17717.0,-9.265,-0.302,-3.604,-9.189,-0.182,-3.597,1.26,1.75,0.42
,-9.177,-0.323,-3.556,-9.201,-0.199,-3.666,1.05,2.17,0.63
,-9.167,-0.232,-3.613,-9.208,-0.177,-3.778,1.26,2.45,0.7
,-9.155,-0.199,-3.647,-9.165,-0.141,-3.862,1.47,2.38,0.77
17793.0,-9.167,-0.179,-3.891,-9.146,-0.218,-3.843,1.61,2.45,0.49
,-9.122,-0.251,-3.872,-9.182,-0.22,-3.81,1.82,2.24,0.49
,-9.11,-0.235,-3.879,-9.179,-0.251,-3.817,2.59,2.24,0.63
,-9.139,-0.258,-3.86,-9.131,-0.196,-3.826,3.08,1.89,0.56
17868.0,-9.191,-0.215,-3.783,-9.158,-0.278,-3.652,3.15,1.47,0.56
,-9.172,-0.263,-3.754,-9.239,-0.282,-3.68,3.01,1.4,0.63
,-9.189,-0.292,-3.793,-9.237,-0.237,-3.666,2.8,1.61,0.63
,-9.162,-0.302,-3.695,-9.136,-0.189,-3.68,2.66,1.47,0.63
17944.0,-9.15,-0.182,-3.671,-9.227,-0.196,-3.752,2.31,2.1,0.77
,-9.079,-0.244,-3.592,-9.179,-0.256,-3.776,2.24,1.96,0.84
,-9.265,-0.297,-3.664,-9.153,-0.244,-3.821,2.38,2.1,0.77
,-9.249,-0.268,-3.685,-9.158,-0.244,-3.874,2.66,2.31,0.77
18020.0,-9.143,-0.235,-3.941,-9.11,-0.218,-3.857,2.1,1.82,0.42
,-9.134,-0.156,-3.965,-9.088,-0.227,-3.778,2.59,1.89,0.77
,-9.134,-0.215,-3.92,-9.172,-0.237,-3.778,3.01,1.68,0.77
,-9.1,-0.187,-3.91,-9.141,-0.34,-3.671,3.29,1.47,0.63
18096.0,-9.206,-0.311,-3.565,-9.232,-0.206,-3.697,2.59,1.54,0.56
,-9.17,-0.369,-3.553,-9.136,-0.199,-3.781,2.59,1.82,0.63
,-9.179,-0.354,-3.546,-9.155,-0.189,-3.81,2.52,1.96,0.84
,-9.258,-0.304,-3.613,-9.167,-0.182,-3.903,2.45,2.03,0.84
18172.0,-9.117,-0.194,-3.967,-9.093,-0.208,-3.967,2.24,2.1,0.49
,-9.15,-0.115,-3.941,-9.134,-0.246,-3.979,2.52,1.82,0.56
,-9.143,-0.17,-4.001,-9.15,-0.299,-3.903,2.73,1.47,0.42
,-9.124,-0.208,-3.979,-9.122,-0.354,-3.805,2.94,1.12,0.42
18247.0,-9.141,-0.354,-3.642,-9.246,-0.328,-3.446,3.64,0.49,0.56
,-9.186,-0.359,-3.518,-9.234,-0.325,-3.419,3.78,0.7,0.63
,-9.174,-0.392,-3.46,-9.229,-0.306,-3.484,3.64,0.91,0.7
,-9.227,-0.337,-3.448,-9.215,-0.246,-3.673,3.43,1.26,0.91
18323.0,-9.234,-0.189,-3.747,-9.052,-0.275,-3.97,1.82,2.52,0.91
,-9.22,-0.086,-3.934,-9.098,-0.254,-3.824,1.61,2.38,0.7
,-9.134,-0.163,-3.948,-9.198,-0.223,-3.85,1.19,2.1,0.63
,-9.088,-0.225,-3.989,-9.129,-0.244,-3.881,1.4,2.17,0.84
18398.0,-9.146,-0.369,-3.778,-9.234,-0.251,-3.683,2.52,1.4,0.77
,-9.172,-0.369,-3.687,-9.189,-0.177,-3.743,2.8,1.33,0.91
,-9.172,-0.366,-3.699,-9.167,-0.158,-3.8,3.08,1.33,0.91
,-9.215,-0.318,-3.647,-9.155,-0.124,-3.855,2.94,1.61,0.98
18474.0,-9.136,-0.182,-3.848,-9.153,-0.337,-3.735,1.61,1.54,0.63
,-9.117,-0.225,-3.845,-9.191,-0.304,-3.766,1.96,1.26,0.56
,-9.124,-0.256,-3.845,-9.177,-0.249,-3.754,2.1,1.05,0.49
,-9.124,-0.285,-3.788,-9.15,-0.206,-3.762,2.52,1.12,0.56
18550.0,-9.237,-0.235,-3.774,-9.141,-0.251,-3.838,2.87,1.33,0.63
,-9.234,-0.16,-3.826,-9.1,-0.266,-3.81,2.73,1.19,0.63
,-9.239,-0.223,-3.867,-9.16,-0.227,-3.819,2.45,1.12,0.63
,-9.208,-0.218,-3.85,-9.174,-0.244,-3.783,2.52,0.91,0.56
18626.0,-9.203,-0.266,-3.685,-9.186,-0.256,-3.745,3.01,0.91,0.56
,-9.117,-0.304,-3.628,-9.189,-0.299,-3.661,2.8,0.91,0.56
,-9.155,-0.268,-3.642,-9.203,-0.33,-3.747,2.8,1.12,0.56
,-9.208,-0.249,-3.668,-9.186,-0.263,-3.764,2.59,1.33,0.56
18701.0,-9.155,-0.184,-3.85,-9.177,-0.175,-3.757,2.59,1.54,0.63
,-9.162,-0.237,-3.848,-9.177,-0.268,-3.721,2.03,1.47,0.42
,-9.1,-0.27,-3.869,-9.172,-0.287,-3.654,2.24,1.47,0.56
,-9.091,-0.215,-3.848,-9.203,-0.318,-3.642,2.73,1.4,0.56
18777.0,-9.208,-0.256,-3.644,-9.167,-0.309,-3.781,2.94,1.54,0.63
,-9.21,-0.227,-3.637,-9.167,-0.27,-3.75,2.38,1.54,0.56
,-9.174,-0.278,-3.673,-9.189,-0.254,-3.75,2.17,1.68,0.56
,-9.146,-0.33,-3.745,-9.189,-0.251,-3.778,2.38,1.82,0.56
18853.0,-9.115,-0.242,-3.75,-9.191,-0.282,-3.821,1.89,1.82,0.49
,-9.201,-0.285,-3.795,-9.15,-0.184,-3.908,1.75,1.82,0.42
,-9.134,-0.313,-3.783,-9.127,-0.215,-3.754,1.89,1.89,0.49
,-9.155,-0.287,-3.836,-9.179,-0.325,-3.769,2.24,1.82,0.56
18929.0,-9.153,-0.287,-3.759,-9.124,-0.318,-3.762,2.24,1.61,0.63
,-9.201,-0.285,-3.786,-9.158,-0.29,-3.831,2.31,1.68,0.63
,-9.203,-0.27,-3.802,-9.153,-0.321,-3.802,2.38,1.61,0.63
,-9.16,-0.292,-3.752,-9.158,-0.275,-3.783,2.24,1.61,0.63
19004.0,-9.222,-0.215,-3.805,-9.134,-0.218,-3.888,2.66,1.68,0.56
,-9.122,-0.251,-3.838,-9.124,-0.235,-3.903,2.17,1.33,0.28
,-9.153,-0.251,-3.826,-9.093,-0.232,-3.881,2.03,1.26,0.35
,-9.122,-0.237,-3.793,-9.15,-0.206,-3.857,2.31,1.19,0.35
19080.0,-9.119,-0.201,-3.795,-9.122,-0.297,-3.678,2.38,0.56,0.07
,-9.182,-0.213,-3.745,-9.136,-0.302,-3.652,1.96,0.35,-0.14
,-9.158,-0.218,-3.731,-9.17,-0.313,-3.635,1.4,0.28,-0.28
,-9.167,-0.237,-3.704,-9.206,-0.251,-3.601,0.98,0.49,-0.28
19156.0,-9.22,-0.266,-3.587,-9.127,-0.376,-3.731,1.05,1.05,-0.21
,-9.184,-0.302,-3.664,-9.105,-0.371,-3.759,0.63,1.05,-0.14
,-9.153,-0.237,-3.709,-9.11,-0.419,-3.719,0.91,0.98,-0.28
,-9.139,-0.246,-3.783,-9.141,-0.325,-3.537,0.7,1.12,-0.28
19232.0,-9.186,-0.235,-3.417,-9.146,-0.538,-3.082,1.54,1.96,0.14
,-9.256,-0.117,-3.333,-9.165,-0.488,-3.23,0.42,2.31,-0.07
,-9.273,-0.182,-3.362,-9.115,-0.409,-3.307,-1.61,2.66,-0.35
,-9.194,-0.333,-3.23,-9.072,-0.357,-3.281,-3.15,3.29,-0.21
19308.0,-9.162,-0.304,-3.446,-9.208,-0.5,-3.034,-3.78,6.65,1.05
,-9.112,-0.414,-3.324,-9.366,-0.392,-3.302,-4.2,7.35,1.4
,-9.143,-0.447,-3.309,-9.289,-0.33,-3.343,-3.85,7.98,1.75
,-9.203,-0.447,-3.223,-9.124,-0.211,-3.431,-3.64,8.75,1.82
19383.0,-9.112,-0.323,-3.348,-9.093,0.012,-4.523,-5.04,12.04,2.94
,-9.028,-0.562,-3.161,-8.799,-0.017,-4.551,-4.9,12.95,3.5
,-9.198,-0.419,-3.496,-8.667,-0.261,-4.135,-2.94,13.51,3.85
,-9.313,-0.141,-4.209,-8.859,-0.306,-3.877,-2.45,13.02,2.94
19459.0,-9.031,-0.091,-3.786,-9.227,-0.421,-3.534,-2.59,11.9,2.31
,-9.098,0.089,-3.503,-9.174,-0.718,-3.52,-3.22,12.11,2.03
,-9.244,0.232,-3.577,-9.052,-0.608,-4.022,-6.02,12.32,2.03
,-9.27,0.029,-3.417,-8.902,-0.273,-4.417,-10.01,12.81,2.1
19534.0,-8.732,0.108,-4.767,-8.866,0.062,-4.745,-4.48,13.37,3.22
,-8.485,0.077,-4.494,-8.887,0.282,-4.958,-6.16,12.81,3.57
,-8.734,-0.053,-4.604,-8.832,0.108,-4.582,-6.16,12.39,3.78
,-8.873,-0.012,-4.738,-8.916,-0.335,-4.451,-5.53,11.55,3.08
19610.0,-8.99,-0.646,-4.245,-8.83,-0.108,-4.326,0.42,10.64,4.9
,-9.1,-0.522,-4.154,-8.744,0.084,-4.436,5.74,11.48,6.02
,-9.107,-0.237,-4.523,-8.894,0.218,-4.415,9.87,11.76,6.58
,-8.875,-0.041,-4.515,-8.942,0.558,-4.764,11.55,11.9,7.07
19686.0,-8.715,0.625,-4.86,-9.095,-1.055,-3.987,6.3,8.19,3.36
,-8.705,0.292,-4.915,-8.954,-0.541,-4.314,2.38,7.56,3.15
,-8.775,-0.4,-4.755,-8.763,0.06,-4.331,-0.77,7.77,4.2
,-8.921,-1.089,-4.305,-8.844,0.479,-4.661,0.56,8.82,5.6
19762.0,-8.784,0.237,-4.532,-8.689,0.648,-4.685,7.28,9.03,7.56
,-8.863,-0.177,-4.535,-8.792,0.768,-4.506,5.67,9.38,8.05
,-8.768,-0.069,-4.69,-8.722,0.354,-4.202,7.77,9.31,7.56
,-8.6,0.302,-4.774,-8.926,-0.084,-3.798,10.15,8.96,6.51
19837.0,-8.835,-0.091,-4.168,-8.894,-0.165,-4.424,4.2,9.38,4.41
,-8.732,-0.084,-4.317,-8.942,0.084,-4.618,5.67,9.17,4.62
,-8.823,-0.103,-4.367,-8.626,0.584,-4.905,5.74,9.17,5.04
,-8.854,-0.132,-4.544,-8.545,0.948,-4.984,5.67,9.45,5.32
19913.0,-8.614,0.96,-5.011,-8.705,0.598,-4.743,1.82,8.47,2.24
,-8.595,0.852,-4.877,-8.732,0.357,-4.628,-1.54,8.54,0.84
,-8.521,0.689,-4.719,-8.729,-0.132,-4.472,-2.31,9.03,-0.07
,-8.598,0.648,-4.752,-8.801,-0.668,-4.168,-2.03,8.82,-1.05
19988.0,-8.902,-0.806,-4.247,-8.287,-0.809,-4.748,0.07,9.52,-0.35
,-8.966,-0.574,-4.599,-8.488,-0.876,-4.669,3.08,8.96,-0.14
,-8.715,-0.371,-4.793,-8.636,-0.426,-4.779,3.01,8.19,0.42
,-8.428,-0.505,-4.891,-8.658,0.148,-4.822,0.7,8.26,1.82
20064.0,-8.626,0.572,-4.781,-8.696,0.081,-4.793,5.11,10.57,4.97
,-8.605,0.438,-4.752,-8.65,0.325,-4.8,2.03,10.99,5.53
,-8.691,0.017,-4.599,-8.478,0.715,-4.937,0.07,11.55,6.37
,-8.744,-0.06,-4.614,-8.39,0.771,-4.929,1.54,12.18,6.65
20140.0,-8.416,0.464,-4.8,-8.559,-0.237,-4.812,5.32,12.88,5.67
,-8.478,0.074,-4.855,-8.492,0.022,-4.805,3.64,12.46,5.67
,-8.5,-0.129,-4.762,-8.428,0.414,-4.91,3.29,12.18,5.88
,-8.607,-0.23,-4.843,-8.44,0.739,-4.946,3.57,12.18,6.02
20216.0,-8.531,0.823,-5.006,-8.409,0.601,-5.264,2.94,13.3,5.18
,-8.646,0.857,-5.02,-8.378,0.048,-5.26,1.47,13.37,4.83
,-8.641,1.077,-5.31,-8.478,-0.294,-5.14,0.07,12.74,3.71
,-8.514,0.914,-5.386,-8.65,-0.33,-5.3,-1.75,12.46,2.8
20292.0,-8.528,-0.215,-5.396,-8.356,-0.342,-5.693,4.06,12.67,3.85
,-8.289,-0.187,-5.317,-8.095,0.074,-5.875,3.92,12.88,4.97
,-8.351,-0.407,-5.339,-8.059,0.282,-5.767,2.8,12.53,5.81
,-8.509,-0.605,-5.47,-8.203,0.261,-5.688,2.03,11.2,6.37
20367.0,-8.356,0.335,-5.635,-8.26,0.651,-5.602,0.28,7.42,7.28
,-8.509,0.476,-5.614,-8.275,0.392,-5.453,0.14,6.23,6.58
,-8.433,0.68,-5.69,-8.38,0.579,-5.3,-0.28,5.67,6.51
,-8.325,0.72,-5.645,-8.332,1.127,-5.3,-0.35,6.09,6.86
20443.0,-8.394,1.46,-5.43,-8.294,0.632,-5.391,4.69,6.51,3.57
,-8.409,1.529,-5.449,-8.22,0.213,-5.24,2.52,6.44,1.96
,-8.375,1.333,-5.506,-8.141,-0.136,-5.205,-0.35,6.79,0.98
,-8.339,0.893,-5.358,-8.019,-0.34,-5.348,-2.66,7.28,0.56
20519.0,-8.122,-0.845,-5.286,-8.234,0.481,-5.24,-1.12,8.4,3.5
,-8.323,-1.072,-5.147,-8.308,1.158,-5.398,1.12,8.75,4.97
,-8.394,-0.737,-5.209,-8.411,1.338,-5.418,4.48,8.54,5.88
,-8.287,-0.108,-5.243,-8.349,1.196,-5.473,7.42,8.61,6.16
20595.0,-8.205,0.689,-5.224,-8.311,0.225,-5.822,-3.57,8.54,3.36
,-8.107,0.402,-5.367,-8.205,0.732,-5.829,-2.38,8.26,3.57
,-8.124,0.101,-5.59,-8.035,1.204,-5.702,0.91,8.05,3.92
,-8.229,0.024,-5.745,-8.004,1.371,-5.65,4.76,8.05,4.2
20670.0,-8.141,1.321,-5.633,-8.095,0.572,-5.884,7.07,7.84,-0.7
,-8.246,1.247,-5.561,-8.2,0.067,-5.743,4.27,7.42,-1.19
,-8.179,1.213,-5.733,-8.222,-0.194,-5.616,2.17,7.56,-1.75
,-8.117,0.926,-5.817,-8.057,-0.026,-5.745,0.63,8.33,-2.1
20746.0,-8.045,0.22,-5.714,-8.126,0.885,-5.817,6.3,8.68,-0.77
,-8.11,0.436,-5.75,-8.136,0.876,-5.817,6.86,8.89,-0.63
,-8.191,0.67,-5.805,-7.904,0.9,-5.808,6.3,8.82,-0.91
,-8.27,0.83,-5.714,-7.937,0.94,-5.776,5.18,8.61,-1.12
20821.0,-8.083,0.622,-5.882,-8.004,-0.184,-6.059,1.33,8.47,-3.92
,-8.212,0.187,-5.887,-7.99,-0.017,-6.121,1.89,7.77,-3.36
,-8.081,-0.201,-5.982,-7.971,0.139,-6.104,3.01,7.49,-2.38
,-8.074,-0.438,-5.985,-8.047,0.27,-6.181,4.48,7.28,-1.05
20897.0,-8.088,0.139,-6.102,-7.849,0.629,-6.222,4.62,5.39,0.21
,-8.004,0.084,-6.088,-8.208,0.555,-6.296,2.73,4.48,0.98
,-7.868,0.098,-6.116,-8.342,0.304,-6.159,1.61,3.5,1.12
,-7.784,0.318,-6.152,-8.16,0.026,-6.2,2.1,3.15,0.98
20973.0,-7.923,-0.23,-6.066,-7.909,-0.294,-6.011,4.41,2.03,1.54
,-7.763,-0.268,-6.145,-8.122,-0.213,-6.04,6.23,1.82,2.59
,-7.7,-0.416,-6.131,-8.1,-0.17,-5.922,7.07,1.47,3.64
,-7.734,-0.347,-6.078,-8.031,-0.165,-5.836,7.98,1.19,4.69
21049.0,-7.923,-0.096,-5.798,-8.014,0.794,-5.719,6.72,-0.84,8.54
,-7.961,0.203,-5.879,-7.918,0.928,-5.745,7.35,-1.12,8.54
,-8.122,0.285,-5.91,-8.057,1.046,-5.769,7.56,-1.19,8.75
,-8.198,0.517,-5.714,-8.224,1.022,-5.755,7.63,-1.26,8.54
21124.0,-8.232,0.84,-5.635,-7.834,0.96,-5.796,6.23,0.91,5.39
,-8.016,0.749,-5.559,-8.016,0.782,-5.824,5.81,2.1,4.34
,-8.181,0.577,-5.497,-8.308,0.491,-5.796,5.88,2.17,3.57
,-8.031,0.763,-5.631,-8.241,0.421,-5.743,6.93,1.89,2.87
21200.0,-8.167,0.586,-5.877,-7.703,0.148,-5.942,5.81,3.43,1.05
,-8.078,0.517,-5.951,-7.71,0.258,-6.025,3.99,2.87,0.7
,-7.94,0.373,-6.006,-7.985,0.572,-6.126,2.31,2.59,0.77
,-7.837,0.242,-5.956,-8.198,0.713,-6.195,1.4,2.31,1.19
21276.0,-8.208,0.761,-6.178,-7.942,0.668,-6.157,0.35,1.96,1.19
,-8.088,0.653,-6.068,-7.94,0.653,-6.243,-0.84,1.75,1.12
,-7.954,0.591,-6.001,-7.887,0.739,-6.296,-1.19,1.61,1.26
,-7.901,0.656,-6.011,-8.011,0.433,-6.238,-1.05,1.61,1.26
21352.0,-8.124,0.275,-6.171,-7.992,0.246,-6.21,-4.27,0.07,0.0
,-8.21,0.433,-6.128,-8.081,0.053,-6.073,-3.43,-0.84,-0.42
,-8.062,0.572,-6.159,-8.212,0.048,-5.954,-3.15,-1.33,-0.49
,-7.98,0.505,-6.231,-8.279,0.407,-5.872,-4.27,-1.26,-0.28
21428.0,-8.186,0.861,-5.956,-8.153,0.983,-5.896,-0.21,-2.59,-0.91
,-8.131,1.125,-6.08,-8.232,0.771,-5.76,-0.7,-3.36,-1.4
,-8.177,1.256,-6.095,-8.215,0.718,-5.709,-1.89,-3.99,-1.47
,-8.239,1.11,-5.908,-8.086,0.785,-5.839,-3.22,-4.06,-1.54
21503.0,-8.131,0.723,-6.104,-8.189,0.165,-6.236,-1.05,-4.27,-3.08
,-8.136,0.543,-6.15,-8.021,-0.093,-6.176,0.0,-4.13,-2.87
,-8.239,0.38,-6.212,-7.858,-0.462,-6.217,1.26,-3.99,-2.8
,-8.224,0.191,-6.26,-7.763,-0.505,-6.269,2.59,-4.13,-2.45
21579.0,-7.743,-0.663,-6.348,-8.267,-0.005,-6.021,0.07,-7.7,2.66
,-7.971,-0.615,-6.231,-8.267,0.237,-6.04,1.75,-8.4,3.36
,-8.105,-0.464,-6.095,-8.129,0.412,-5.896,3.71,-8.68,4.06
,-8.16,-0.268,-6.054,-8.083,0.491,-5.721,5.11,-8.54,4.83
21654.0,-8.234,0.493,-5.48,-8.198,1.184,-5.351,8.47,-7.63,5.39
,-8.368,0.56,-5.319,-8.15,1.187,-5.296,9.66,-8.33,4.55
,-8.306,0.804,-5.288,-8.129,1.149,-5.171,11.06,-8.61,3.99
,-8.332,1.039,-5.233,-8.189,1.115,-5.197,12.46,-9.03,3.71
21730.0,-8.227,1.091,-4.75,-8.265,0.687,-5.054,12.46,-6.86,-0.35
,-8.339,1.012,-4.929,-8.303,0.558,-5.044,12.04,-6.51,-1.26
,-8.334,1.027,-5.044,-8.378,0.452,-4.999,11.41,-6.09,-2.03
,-8.279,0.797,-4.984,-8.509,0.349,-5.004,9.59,-5.46,-2.59
21806.0,-8.552,0.311,-5.092,-7.999,-0.084,-5.324,5.53,-6.65,-3.99
,-8.452,0.242,-5.133,-8.016,-0.081,-5.322,4.55,-6.72,-4.34
,-8.294,0.17,-5.281,-8.129,0.038,-5.437,3.15,-6.79,-4.06
,-8.071,0.043,-5.31,-8.361,-0.012,-5.121,2.17,-6.44,-2.87
21882.0,-8.507,0.077,-5.106,-8.502,0.529,-5.099,4.27,-5.74,0.14
,-8.437,0.246,-5.166,-8.614,0.668,-5.142,5.11,-5.6,0.91
,-8.399,0.445,-5.166,-8.71,0.591,-5.439,5.46,-5.39,1.4
,-8.354,0.469,-5.142,-8.423,0.912,-5.465,5.67,-5.32,1.26
21957.0,-8.289,0.165,-5.257,-8.579,0.311,-5.449,0.63,-6.3,-0.35
,-8.179,0.077,-5.257,-8.485,0.237,-5.406,1.61,-6.58,-0.28
,-8.394,0.127,-5.398,-8.478,-0.026,-5.298,3.64,-7.14,-0.35
,-8.545,0.311,-5.418,-8.55,-0.244,-5.178,4.48,-7.84,-0.49
22033.0,-8.571,-0.213,-5.157,-8.459,0.467,-5.154,0.42,-8.96,0.07
,-8.524,-0.139,-5.118,-8.459,0.452,-4.96,1.26,-9.03,0.42
,-8.48,0.282,-5.205,-8.435,0.565,-5.099,2.24,-9.66,0.84
,-8.421,0.464,-5.233,-8.464,0.596,-5.03,1.82,-10.36,0.98
22108.0,-8.55,0.522,-4.716,-8.701,0.737,-4.738,3.64,-10.01,-0.63
,-8.595,0.857,-4.838,-8.641,0.584,-4.731,4.62,-10.01,-1.12
,-8.626,0.907,-4.649,-8.631,0.254,-4.731,3.43,-9.73,-1.61
,-8.708,0.78,-4.585,-8.586,0.175,-4.762,2.1,-9.87,-2.45
22184.0,-8.421,0.61,-5.116,-8.583,0.235,-4.774,1.68,-11.2,-4.83
,-8.502,0.648,-4.989,-8.576,0.244,-5.008,2.66,-10.36,-3.99
,-8.658,0.615,-4.841,-8.547,0.079,-5.044,1.33,-9.66,-3.78
,-8.612,0.361,-4.702,-8.54,-0.005,-5.004,-1.82,-9.73,-3.78
22260.0,-8.643,-0.098,-4.874,-8.593,0.306,-4.937,-0.56,-10.85,-3.36
,-8.751,-0.16,-4.776,-8.492,0.321,-4.692,0.35,-10.64,-2.94
,-8.882,-0.11,-4.676,-8.631,0.261,-4.491,0.35,-10.78,-2.66
,-8.808,0.146,-4.676,-8.801,0.311,-4.389,0.49,-11.13,-2.1
22336.0,-8.873,0.215,-4.228,-8.82,0.069,-4.061,1.12,-11.48,-2.45
,-8.928,0.34,-4.255,-8.763,-0.01,-4.106,0.84,-11.48,-2.59
,-8.935,0.407,-4.281,-8.67,-0.002,-3.817,-0.21,-11.34,-2.38
,-8.868,0.268,-4.168,-8.918,0.141,-3.91,-1.26,-10.71,-1.96
22412.0,-8.993,0.438,-3.989,-8.71,0.266,-3.731,1.82,-8.54,-2.24
,-9.057,0.505,-3.934,-8.861,0.246,-3.68,0.98,-8.12,-1.68
,-9.081,0.51,-3.934,-9.038,0.218,-3.604,-0.35,-7.56,-1.68
,-8.921,0.364,-3.872,-9.177,0.213,-3.656,-2.1,-6.93,-2.38
22487.0,-9.095,0.187,-3.539,-8.67,0.347,-4.41,-4.2,-3.78,-3.22
,-9.002,0.213,-3.757,-8.729,0.05,-4.252,-4.55,-3.36,-3.22
,-8.837,0.325,-4.03,-8.854,-0.136,-4.228,-5.11,-3.15,-3.85
,-8.677,0.354,-4.322,-8.938,0.057,-4.319,-5.6,-3.15,-4.2
22563.0,-9.031,0.225,-4.678,-8.882,-0.972,-4.259,-1.4,-3.36,-3.5
,-8.882,0.428,-5.006,-8.983,-0.849,-4.082,-1.61,-4.41,-3.08
,-8.815,0.103,-4.965,-9.107,-0.201,-4.669,-2.73,-4.69,-2.73
,-8.82,-0.603,-4.587,-8.875,0.376,-5.035,-2.94,-4.41,-2.1
22639.0,-8.878,0.431,-5.056,-9.072,0.467,-3.508,5.53,-6.72,1.33
,-8.894,0.335,-4.85,-9.323,0.522,-3.546,6.3,-6.72,1.19
,-8.904,0.302,-4.57,-9.287,0.512,-3.455,8.4,-6.93,0.49
,-8.839,0.476,-4.032,-9.122,0.402,-3.496,9.73,-7.28,0.21
22715.0,-8.983,0.397,-3.637,-9.177,0.409,-3.867,2.94,-5.81,-2.38
,-8.856,0.325,-3.609,-9.06,0.093,-3.652,2.8,-5.46,-2.8
,-8.985,0.438,-3.704,-9.052,-0.177,-3.573,2.8,-5.39,-3.43
,-9.064,0.488,-3.616,-9.038,-0.199,-3.848,1.33,-5.18,-4.2
22790.0,-8.993,-0.06,-3.86,-9.086,-0.136,-3.924,-0.98,-3.78,-4.62
,-9.117,-0.019,-3.982,-9.043,0.0,-3.953,-0.98,-3.64,-4.55
,-9.122,0.081,-4.228,-9.081,0.17,-3.917,-1.05,-3.36,-4.69
,-8.983,-0.084,-4.001,-9.182,0.467,-4.123,-0.77,-3.08,-4.2
22866.0,-9.182,0.402,-4.032,-9.088,0.172,-3.96,2.24,-3.5,-3.92
,-9.146,0.223,-3.862,-9.038,0.282,-4.161,1.4,-3.43,-3.85
,-9.182,0.079,-3.829,-8.964,0.273,-4.3,1.96,-3.15,-3.99
,-9.206,-0.002,-3.965,-8.993,0.246,-4.188,3.36,-3.15,-4.13
22941.0,-9.086,0.11,-4.044,-9.27,-0.031,-3.728,3.78,-4.62,-4.55
,-9.081,-0.057,-3.747,-9.024,-0.045,-3.714,3.71,-4.69,-4.48
,-9.191,-0.146,-3.632,-9.055,-0.096,-3.714,3.99,-4.48,-4.55
,-9.304,-0.182,-3.642,-9.086,-0.249,-3.553,4.48,-4.27,-4.48
23017.0,-9.213,-0.347,-3.537,-8.993,-0.112,-3.824,3.43,-2.94,-3.64
,-9.189,-0.182,-3.721,-9.088,-0.316,-3.568,3.99,-2.87,-3.99
,-9.031,-0.041,-3.877,-9.227,-0.302,-3.551,3.92,-3.08,-3.99
,-9.026,0.072,-3.92,-9.246,-0.424,-3.396,2.87,-3.01,-4.13
23093.0,-9.263,-0.438,-3.245,-9.141,-0.165,-3.479,1.12,-1.82,-3.08
,-9.277,-0.503,-3.065,-9.139,-0.203,-3.867,0.98,-1.05,-2.38
,-9.28,-0.529,-3.187,-8.993,-0.335,-3.877,1.47,-0.28,-2.03
,-9.206,-0.337,-3.321,-8.93,-0.404,-3.936,1.96,0.21,-2.1
23169.0,-9.083,-0.366,-3.927,-9.268,0.055,-3.788,2.52,0.63,-0.84
,-9.189,-0.168,-3.841,-9.146,-0.05,-3.738,4.27,0.42,-0.63
,-9.316,0.01,-3.814,-9.179,-0.05,-3.814,4.62,0.28,-0.49
,-9.349,0.103,-3.838,-9.167,0.01,-3.812,3.92,-0.07,-0.91
23244.0,-9.201,0.01,-3.74,-9.256,-0.187,-3.68,1.96,-0.84,-2.03
,-9.194,-0.112,-3.711,-9.177,-0.306,-3.625,0.91,-0.77,-2.24
,-9.124,-0.225,-3.661,-9.093,-0.309,-3.525,0.63,-0.98,-2.38
,-9.179,-0.261,-3.678,-9.141,-0.366,-3.326,0.98,-0.84,-2.24
23320.0,-9.119,-0.517,-3.118,-9.273,-0.342,-2.994,1.89,0.49,-1.12
,-9.201,-0.574,-2.977,-9.203,-0.364,-3.132,2.59,1.33,-0.7
,-9.347,-0.483,-2.943,-9.208,-0.345,-3.384,3.43,2.17,-0.28
,-9.361,-0.321,-2.989,-9.28,-0.383,-3.448,3.85,3.08,0.0
23396.0,-9.304,-0.404,-3.697,-9.098,-0.05,-3.939,2.87,6.09,0.98
,-9.158,-0.457,-3.716,-9.146,-0.079,-3.948,3.01,6.16,1.19
,-9.1,-0.33,-3.833,-9.162,-0.077,-3.96,3.71,6.3,1.54
,-9.194,-0.187,-3.936,-9.167,-0.108,-3.915,3.78,6.09,1.33
23472.0,-9.139,-0.103,-3.963,-9.024,-0.206,-3.922,3.43,5.25,1.26
,-9.086,-0.132,-3.917,-9.134,-0.258,-3.987,3.64,4.9,1.05
,-9.141,-0.093,-3.963,-9.165,-0.211,-4.013,3.85,4.62,0.98
,-9.153,-0.108,-3.951,-9.146,-0.199,-3.879,3.43,4.27,0.84
23548.0,-9.115,-0.239,-3.786,-9.189,-0.187,-3.821,3.5,3.5,0.84
,-9.15,-0.249,-3.747,-9.17,-0.098,-3.96,4.27,3.57,0.84
,-9.174,-0.235,-3.707,-9.048,-0.065,-4.08,4.34,3.71,0.98
,-9.191,-0.268,-3.699,-8.988,-0.127,-4.054,4.13,3.78,0.98
23623.0,-9.091,-0.239,-3.955,-9.189,-0.266,-3.709,3.85,2.87,0.56
,-9.158,-0.227,-3.86,-9.134,-0.333,-3.699,4.27,3.08,0.63
,-9.172,-0.275,-3.786,-9.182,-0.436,-3.723,4.06,2.94,0.63
,-9.182,-0.282,-3.673,-9.182,-0.361,-3.778,3.92,2.87,0.77
23699.0,-9.091,-0.292,-3.857,-9.0,-0.172,-4.116,2.94,3.64,0.91
,-9.122,-0.244,-3.927,-9.045,-0.194,-4.027,3.15,3.5,0.91
,-9.086,-0.148,-4.013,-9.131,-0.258,-4.039,3.15,3.29,0.77
,-9.062,-0.112,-4.116,-9.11,-0.258,-3.891,3.08,3.15,0.7
23774.0,-9.155,-0.254,-3.766,-9.179,-0.227,-3.874,2.94,2.38,0.98
,-9.239,-0.366,-3.826,-9.095,-0.189,-3.924,2.59,2.24,0.91
,-9.153,-0.304,-3.609,-9.057,-0.218,-3.972,2.8,2.45,0.98
,-9.179,-0.251,-3.743,-9.069,-0.316,-3.979,2.87,2.66,1.05
23850.0,-9.088,-0.292,-3.967,-9.048,-0.101,-4.03,3.08,2.66,0.98
,-9.127,-0.232,-3.912,-9.062,-0.163,-3.999,3.92,2.52,1.19
,-9.117,-0.16,-3.994,-9.1,-0.223,-4.015,3.99,2.31,1.05
,-9.105,-0.117,-4.003,-9.127,-0.199,-3.963,3.78,2.1,0.91
23926.0,-9.11,-0.156,-3.929,-9.215,-0.364,-3.664,3.5,1.4,0.7
,-9.139,-0.266,-3.836,-9.174,-0.254,-3.697,3.22,1.19,0.84
,-9.115,-0.431,-3.719,-9.136,-0.201,-3.716,3.36,1.47,0.91
,-9.217,-0.395,-3.704,-9.153,-0.237,-3.788,3.99,1.75,1.19
24002.0,-9.131,-0.285,-3.786,-9.069,-0.065,-4.156,2.17,2.8,1.26
,-9.124,-0.266,-3.848,-9.0,-0.151,-4.221,2.73,2.8,1.26
,-9.158,-0.191,-4.025,-9.055,-0.148,-4.202,3.29,2.87,1.12
,-9.088,-0.086,-4.063,-9.11,-0.122,-4.087,3.22,2.73,1.12
24077.0,-9.129,-0.168,-3.941,-9.146,-0.297,-3.81,3.43,1.4,0.7
,-9.117,-0.22,-3.872,-9.11,-0.227,-3.848,3.15,1.19,0.63
,-9.105,-0.333,-3.759,-9.04,-0.168,-3.908,3.22,1.12,0.56
,-9.112,-0.325,-3.769,-9.064,-0.168,-3.936,3.29,1.26,0.56
24153.0,-9.06,-0.146,-3.963,-9.124,-0.196,-3.867,3.57,1.54,0.56
,-9.122,-0.191,-3.958,-9.139,-0.168,-3.896,3.5,1.4,0.49
,-9.079,-0.29,-3.946,-9.055,-0.172,-3.929,3.57,1.33,0.56
,-9.083,-0.294,-3.884,-9.05,-0.266,-3.929,3.85,1.33,0.56
24229.0,-9.083,-0.299,-3.963,-9.146,-0.225,-3.9,3.29,1.33,0.42
,-9.06,-0.304,-3.85,-9.129,-0.318,-3.848,3.71,1.33,0.56
,-9.095,-0.218,-3.922,-9.127,-0.34,-3.917,4.13,0.98,0.49
,-9.105,-0.127,-3.946,-9.136,-0.304,-3.848,3.92,0.98,0.28
24305.0,-9.141,-0.285,-3.81,-9.17,-0.256,-3.833,3.57,1.4,0.42
,-9.095,-0.268,-3.805,-9.189,-0.203,-3.877,3.43,1.33,0.49
,-9.086,-0.306,-3.865,-9.112,-0.218,-3.888,3.71,1.54,0.56
,-9.069,-0.299,-3.707,-9.079,-0.302,-3.886,3.64,1.54,0.63
24380.0,-9.124,-0.268,-3.967,-9.16,-0.282,-3.915,2.31,1.68,0.42
,-9.103,-0.268,-4.003,-9.139,-0.246,-3.888,2.66,1.75,0.42
,-9.074,-0.266,-3.996,-9.129,-0.237,-3.853,2.8,1.75,0.63
,-9.093,-0.249,-3.915,-9.15,-0.313,-3.934,2.87,1.61,0.63
24456.0,-9.062,-0.261,-3.929,-9.105,-0.242,-3.922,2.66,1.4,0.56
,-9.098,-0.239,-3.946,-9.074,-0.242,-3.769,2.59,1.47,0.63
,-9.091,-0.29,-3.96,-9.136,-0.29,-3.831,2.52,1.4,0.56
,-9.081,-0.263,-3.975,-9.129,-0.275,-3.86,2.73,1.4,0.63
24532.0,-9.124,-0.258,-3.833,-9.081,-0.323,-3.867,3.01,1.4,0.7
,-9.153,-0.29,-3.81,-9.134,-0.225,-3.886,2.52,1.54,0.77
,-9.088,-0.299,-3.831,-9.172,-0.266,-3.848,2.38,1.61,0.7
,-9.124,-0.304,-3.886,-9.117,-0.208,-3.922,2.45,1.61,0.63
24607.0,-9.098,-0.208,-3.915,-9.062,-0.249,-3.975,2.87,1.61,0.7
,-9.069,-0.225,-3.991,-9.083,-0.215,-3.936,2.94,1.61,0.7
,-9.095,-0.27,-4.013,-9.083,-0.282,-3.898,3.01,1.47,0.63
,-9.067,-0.215,-4.034,-9.119,-0.299,-3.836,3.08,1.4,0.56
24683.0,-9.162,-0.302,-3.812,-9.107,-0.325,-3.824,2.8,1.33,0.63
,-9.167,-0.323,-3.896,-9.134,-0.246,-3.891,2.8,1.4,0.56
,-9.131,-0.361,-3.908,-9.146,-0.244,-3.8,2.66,1.33,0.63
,-9.052,-0.337,-3.853,-9.11,-0.194,-3.884,2.8,1.4,0.56
24759.0,-9.076,-0.215,-3.91,-9.095,-0.175,-3.958,2.38,1.47,0.56
,-9.069,-0.256,-3.9,-9.1,-0.168,-4.015,2.52,1.68,0.7
,-9.103,-0.28,-3.941,-9.079,-0.263,-3.999,2.73,1.61,0.77
,-9.083,-0.275,-3.967,-9.072,-0.273,-3.984,3.36,1.4,0.7
24835.0,-9.048,-0.266,-4.032,-9.119,-0.333,-3.833,3.22,0.56,0.35
,-9.067,-0.342,-4.044,-9.093,-0.223,-3.812,3.36,0.63,0.42
,-9.095,-0.33,-3.953,-9.119,-0.311,-3.776,3.36,0.7,0.56
,-9.11,-0.325,-3.857,-9.143,-0.392,-3.769,3.29,0.49,0.63
24910.0,-9.122,-0.369,-3.833,-9.117,-0.189,-3.97,2.94,0.84,0.49
,-9.105,-0.354,-3.786,-9.088,-0.227,-4.037,3.08,0.98,0.56
,-9.095,-0.282,-3.848,-9.048,-0.304,-4.037,3.15,1.19,0.7
,-9.107,-0.215,-3.91,-9.05,-0.306,-3.989,3.08,1.19,0.49
24986.0,-9.098,-0.325,-3.951,-9.091,-0.299,-3.824,3.22,0.56,0.49
,-9.119,-0.187,-3.903,-9.162,-0.4,-3.79,3.36,0.56,0.49
,-9.162,-0.184,-3.891,-9.167,-0.409,-3.757,2.8,0.56,0.42
,-9.146,-0.194,-3.838,-9.143,-0.373,-3.69,2.38,0.49,0.21
25062.0,-9.203,-0.294,-3.735,-9.117,-0.342,-3.9,1.89,1.26,0.63
,-9.184,-0.258,-3.786,-9.131,-0.29,-3.922,1.33,1.26,0.42
,-9.088,-0.304,-3.862,-9.129,-0.235,-3.872,1.12,1.33,0.42
,-9.088,-0.34,-3.831,-9.093,-0.251,-3.821,0.98,1.61,0.35
25138.0,-9.15,-0.352,-3.845,-9.095,-0.294,-3.843,1.61,1.54,0.49
,-9.158,-0.292,-3.826,-9.072,-0.313,-3.855,1.96,1.82,0.49
,-9.165,-0.275,-3.833,-9.134,-0.251,-3.814,1.96,1.75,0.49
,-9.172,-0.235,-3.841,-9.1,-0.268,-3.81,1.75,1.61,0.42
25213.0,-9.103,-0.249,-3.814,-9.112,-0.261,-3.862,1.61,2.03,0.56
,-9.105,-0.287,-3.795,-9.105,-0.292,-3.798,1.4,2.1,0.42
,-9.131,-0.323,-3.819,-9.079,-0.261,-3.836,0.98,2.17,0.42
,-9.131,-0.235,-3.857,-9.174,-0.182,-3.91,0.84,2.24,0.35
25289.0,-9.139,-0.077,-4.025,-9.038,-0.366,-4.145,-0.35,2.03,-0.35
,-9.122,-0.218,-4.092,-8.995,-0.337,-4.02,-1.47,1.89,-0.28
,-9.057,-0.342,-4.195,-9.1,-0.275,-3.936,-1.33,1.61,-0.28
,-9.002,-0.392,-4.168,-9.165,-0.249,-3.936,0.0,1.54,-0.14
25364.0,-9.115,-0.268,-3.912,-9.093,-0.206,-3.814,1.96,0.7,0.21
,-9.124,-0.333,-3.951,-9.127,-0.242,-3.676,1.82,0.56,0.21
,-9.103,-0.364,-3.927,-9.194,-0.22,-3.664,2.31,0.63,0.35
,-9.11,-0.297,-3.915,-9.172,-0.261,-3.647,3.01,0.56,0.49
25440.0,-9.153,-0.242,-3.692,-9.098,-0.239,-3.745,1.12,1.05,0.07
,-9.031,-0.287,-3.709,-9.131,-0.232,-3.635,0.98,1.12,0.07
,-9.117,-0.323,-3.841,-9.191,-0.263,-3.649,1.05,1.4,0.14
,-9.086,-0.251,-3.752,-9.165,-0.232,-3.668,1.47,1.68,0.21
25516.0,-9.136,-0.412,-3.778,-9.186,-0.034,-3.702,-1.82,2.73,-0.14
,-9.043,-0.491,-3.764,-9.115,-0.017,-3.57,-1.4,2.73,0.07
,-9.016,-0.33,-3.695,-9.148,-0.376,-3.52,-0.21,3.08,0.42
,-9.146,-0.129,-3.714,-9.153,-0.567,-3.518,0.21,3.01,0.21
25592.0,-9.167,-0.634,-3.496,-8.813,-0.565,-3.886,-1.96,4.9,0.7
,-9.158,-0.541,-3.781,-8.799,-0.68,-3.771,-0.98,5.32,1.05
,-8.99,-0.493,-3.783,-8.933,-0.639,-3.812,-0.77,5.39,1.26
,-8.897,-0.495,-3.929,-8.844,-0.737,-3.51,-0.49,5.53,1.68
25668.0,-8.959,-0.835,-3.288,-9.237,-0.172,-3.305,5.39,8.68,4.9
,-9.093,-0.861,-3.061,-9.134,-0.081,-3.692,6.79,9.66,5.32
,-9.153,-0.656,-3.061,-8.923,-0.232,-3.69,8.33,10.64,5.67
,-9.206,-0.407,-3.238,-8.885,-0.275,-3.793,8.26,11.55,5.81
25743.0,-8.981,-0.342,-3.848,-9.038,-0.153,-4.075,-0.28,14.49,6.37
,-8.997,-0.105,-4.166,-8.973,-0.266,-3.81,0.28,14.35,6.02
,-8.878,0.151,-4.305,-9.213,-0.129,-4.001,-0.14,13.93,5.81
,-8.942,0.129,-4.209,-9.268,0.208,-4.209,-1.82,13.65,5.88
25819.0,-9.093,0.328,-4.867,-9.033,-1.074,-4.532,-4.62,11.76,2.59
,-8.732,0.213,-5.245,-9.067,-0.148,-4.858,-8.68,11.13,2.8
,-8.543,-0.605,-4.791,-8.918,0.79,-5.456,-11.76,10.92,4.27
,-8.729,-1.182,-4.451,-8.636,1.084,-5.334,-9.1,10.92,5.25
25895.0,-8.65,0.656,-4.977,-8.875,0.024,-4.714,-2.87,6.02,4.69
,-8.899,-0.048,-4.714,-8.916,-0.084,-4.319,-3.43,6.02,4.83
,-8.906,-0.675,-4.233,-9.06,-0.28,-3.939,-2.73,6.02,4.55
,-8.835,-0.373,-4.453,-9.129,-0.325,-3.597,3.43,5.88,4.69
25971.0,-9.069,0.043,-3.515,-8.851,0.713,-4.238,9.59,7.77,6.79
,-8.945,0.802,-3.946,-8.842,-0.158,-3.879,9.8,7.7,5.25
,-8.787,1.213,-4.262,-8.775,-0.388,-3.817,5.67,7.14,3.22
,-8.861,1.268,-4.434,-8.705,-0.249,-4.101,-1.05,7.07,1.96
26046.0,-8.832,-0.072,-4.02,-9.014,-0.306,-4.712,1.19,10.01,1.19
,-8.897,-0.084,-4.099,-8.813,0.026,-5.039,0.7,10.57,2.03
,-8.89,-0.392,-3.903,-8.483,-0.105,-5.075,-1.54,11.2,2.66
,-8.887,-0.517,-3.996,-8.375,-0.598,-4.774,-0.49,11.76,3.71
26122.0,-8.425,-1.094,-4.223,-8.703,0.208,-4.759,0.77,12.53,6.79
,-8.691,-0.79,-4.532,-8.849,-0.062,-4.369,7.77,12.39,7.63
,-8.689,-0.199,-4.81,-9.002,-0.101,-4.298,12.18,11.55,8.12
,-8.71,0.168,-4.927,-8.88,0.148,-4.757,11.62,10.92,8.47
26197.0,-8.801,0.153,-4.74,-8.634,0.34,-4.48,4.06,11.34,8.33
,-8.564,0.244,-4.786,-8.49,0.627,-4.719,2.66,11.2,8.47
,-8.576,0.194,-4.446,-8.574,0.737,-4.915,1.89,11.83,8.4
,-8.734,0.148,-4.513,-8.71,0.751,-5.061,2.1,12.04,7.7
26273.0,-8.792,0.773,-5.185,-8.861,0.316,-4.57,3.43,11.48,5.88
,-8.583,0.775,-5.102,-8.923,0.29,-4.499,4.13,12.46,5.6
,-8.464,0.613,-4.886,-8.717,0.323,-4.616,4.13,12.95,4.83
,-8.6,0.392,-4.611,-8.512,0.268,-4.599,3.99,13.16,3.85
26349.0,-8.418,0.019,-4.604,-8.421,0.943,-5.138,2.1,14.84,3.78
,-8.378,-0.057,-4.614,-8.445,1.249,-5.293,2.87,15.19,3.85
,-8.277,0.117,-4.865,-8.595,1.089,-5.202,4.69,15.47,4.13
,-8.363,0.493,-4.96,-8.667,0.579,-5.15,6.23,15.4,4.13
26425.0,-8.557,0.05,-5.135,-8.265,-0.397,-5.587,-2.66,14.21,0.21
,-8.531,-0.299,-5.343,-8.339,-0.134,-5.468,-1.54,14.21,1.19
,-8.459,-0.481,-5.508,-8.454,0.232,-5.511,0.0,13.93,2.24
,-8.308,-0.565,-5.532,-8.26,0.821,-5.669,2.24,13.79,2.94
26500.0,-8.066,1.352,-5.882,-8.588,0.196,-5.157,5.04,10.36,3.36
,-8.112,1.333,-5.839,-8.466,0.019,-5.011,0.98,9.8,2.38
,-8.473,0.866,-5.578,-8.334,-0.117,-4.922,-2.45,9.66,0.84
,-8.693,0.546,-5.31,-8.229,-0.115,-5.025,-2.66,10.01,-0.28
26576.0,-8.306,-0.156,-5.185,-8.1,0.701,-5.528,6.3,12.18,2.59
,-8.366,0.026,-5.312,-8.038,0.541,-5.566,8.05,12.25,3.08
,-8.394,0.364,-5.401,-8.344,0.342,-5.587,9.38,12.25,3.15
,-8.318,0.648,-5.477,-8.722,0.242,-5.523,8.61,11.83,2.87
26652.0,-8.655,0.239,-5.575,-8.114,-0.316,-5.619,1.68,9.87,1.68
,-8.32,0.031,-5.633,-8.382,-0.132,-5.566,0.98,10.22,1.89
,-7.985,-0.294,-5.473,-8.473,0.395,-5.875,0.91,10.36,2.17
,-7.937,-0.127,-5.827,-8.119,0.782,-6.104,4.76,10.71,2.52
26728.0,-8.014,0.596,-6.016,-8.224,-0.005,-5.528,4.34,7.42,3.92
,-8.052,0.402,-5.961,-8.284,0.065,-5.398,1.54,6.79,3.43
,-8.059,0.235,-5.851,-8.234,0.28,-5.446,0.63,6.72,3.36
,-8.165,0.112,-5.724,-8.22,0.565,-5.504,1.4,7.14,3.5
26804.0,-8.11,0.821,-5.712,-8.045,0.306,-5.626,5.95,7.0,4.2
,-8.21,0.826,-5.566,-8.086,0.019,-5.556,4.76,6.58,3.43
,-8.133,0.67,-5.482,-8.189,-0.101,-5.633,3.5,7.0,2.87
,-8.035,0.522,-5.532,-8.105,-0.165,-5.788,3.15,7.21,2.31
26879.0,-8.16,-0.455,-5.717,-7.865,0.385,-5.977,5.39,7.84,3.57
,-8.071,-0.404,-5.8,-7.968,0.447,-6.054,6.79,7.77,4.55
,-8.069,-0.232,-5.899,-8.172,0.33,-6.023,7.28,6.72,4.9
,-7.854,-0.184,-5.791,-8.234,0.287,-5.944,6.93,5.39,4.9
26955.0,-8.136,0.062,-5.781,-8.181,0.625,-5.769,3.71,5.53,6.09
,-7.988,0.101,-5.753,-8.469,0.823,-5.772,4.27,5.53,6.23
,-7.751,0.5,-5.815,-8.39,0.95,-5.757,5.39,5.11,5.95
,-7.822,0.553,-5.832,-8.301,1.029,-5.666,5.95,5.18,5.67
27030.0,-8.241,0.998,-5.741,-7.88,0.727,-5.69,5.18,6.51,2.38
,-8.088,0.806,-5.523,-8.007,0.761,-5.827,4.69,6.79,1.33
,-7.928,0.739,-5.525,-8.155,0.845,-5.992,4.2,6.44,0.7
,-7.794,0.672,-5.621,-8.074,0.605,-5.808,4.48,6.3,0.28
27106.0,-7.858,0.462,-5.975,-7.94,-0.438,-6.016,4.48,5.88,-1.82
,-7.827,0.165,-5.975,-8.028,-0.646,-6.018,4.06,6.16,-1.68
,-7.985,-0.007,-5.91,-7.94,-0.562,-6.068,4.34,6.23,-1.33
,-8.009,-0.318,-5.841,-7.904,-0.347,-6.109,4.2,6.3,-0.56
27182.0,-7.937,-0.223,-5.997,-8.047,0.56,-6.04,7.14,5.95,4.2
,-8.014,-0.108,-5.942,-8.069,0.692,-5.982,6.65,4.83,4.55
,-7.961,0.153,-6.068,-8.004,0.723,-5.91,6.23,3.85,4.62
,-8.004,0.414,-5.98,-7.897,0.756,-5.899,5.67,3.64,4.76
27258.0,-7.856,0.847,-5.937,-8.014,0.778,-5.891,3.43,4.62,2.94
,-7.944,0.744,-5.915,-8.011,0.933,-5.954,3.22,5.39,2.87
,-8.021,0.62,-5.8,-8.05,0.66,-6.016,3.29,5.74,3.01
,-8.043,0.648,-5.872,-8.198,0.445,-6.064,3.5,5.81,2.66
27333.0,-8.114,0.237,-5.997,-7.741,-0.139,-6.226,0.56,4.76,0.42
,-7.918,0.203,-6.155,-7.921,-0.045,-6.305,0.77,4.2,0.63
,-7.81,0.031,-6.174,-8.04,0.136,-6.329,0.49,3.36,0.49
,-7.629,-0.041,-6.243,-7.999,0.129,-6.363,0.84,3.08,0.56
27409.0,-7.851,-0.01,-6.257,-8.172,0.129,-6.104,5.46,1.75,2.52
,-7.619,0.014,-6.073,-8.117,0.112,-6.033,5.67,1.82,2.87
,-7.602,0.206,-6.116,-7.801,0.211,-6.078,6.44,1.75,3.01
,-7.861,0.235,-6.157,-7.645,0.23,-6.131,6.65,1.75,3.36
27484.0,-7.813,0.302,-6.09,-7.909,0.436,-6.176,6.02,1.47,5.04
,-7.988,0.507,-6.202,-7.842,0.428,-6.147,6.3,0.63,4.83
,-8.167,0.735,-6.358,-7.81,0.503,-6.123,5.81,0.0,4.69
,-8.114,0.546,-6.243,-7.825,0.641,-6.111,3.57,-0.77,4.41
27560.0,-7.889,0.766,-6.047,-7.997,0.725,-5.942,2.45,-0.77,2.94
,-7.971,0.72,-6.04,-7.98,0.735,-5.887,1.61,-1.26,2.73
,-7.806,0.541,-6.001,-7.834,0.864,-5.87,0.91,-1.12,2.45
,-7.865,0.558,-5.906,-7.949,0.962,-5.889,1.33,-0.84,2.17
27636.0,-8.186,0.916,-5.958,-7.65,0.816,-6.164,-0.35,0.42,-1.19
,-8.229,0.847,-5.887,-7.93,0.598,-6.19,-1.26,0.0,-1.68
,-7.932,0.816,-6.033,-8.2,0.12,-6.054,-2.38,-0.63,-1.75
,-7.686,0.751,-6.028,-8.064,-0.144,-5.922,-3.57,-1.12,-1.61
27712.0,-7.803,-0.17,-5.906,-8.09,0.297,-6.375,-2.87,0.42,-1.54
,-7.787,-0.244,-5.812,-8.133,0.44,-6.36,-2.1,0.91,-0.77
,-7.834,-0.206,-5.98,-7.899,0.407,-6.281,-0.91,0.7,-0.49
,-8.052,0.06,-6.243,-7.82,0.22,-6.222,0.42,-0.14,-0.42
27788.0,-7.942,0.101,-6.059,-8.014,0.672,-6.03,-1.75,-1.33,1.19
,-8.098,0.105,-6.044,-7.887,1.098,-6.143,-0.56,-1.4,1.33
,-8.155,0.297,-6.059,-7.956,1.146,-6.111,0.63,-1.47,1.47
,-8.112,0.376,-5.913,-8.157,0.909,-5.97,1.05,-1.89,1.54
27863.0,-8.2,0.706,-5.863,-7.964,0.11,-5.913,-0.49,-3.85,-0.49
,-8.083,0.505,-5.908,-8.026,-0.069,-5.963,-0.49,-3.78,-0.63
,-8.04,0.16,-5.753,-8.09,-0.098,-6.009,0.42,-3.43,-0.35
,-7.921,0.177,-5.736,-8.107,-0.012,-6.143,2.1,-3.15,-0.21
27939.0,-8.021,0.132,-6.159,-8.071,-0.414,-6.2,4.69,-3.5,2.94
,-7.851,-0.036,-6.052,-8.212,-0.237,-6.111,3.43,-3.57,3.22
,-7.849,-0.416,-5.968,-8.066,0.213,-6.255,2.03,-3.78,4.48
,-7.956,-0.505,-6.001,-7.999,0.646,-6.162,2.31,-3.78,6.16
28015.0,-7.918,0.792,-5.992,-8.155,1.285,-5.867,4.13,-7.91,7.07
,-8.026,0.931,-5.922,-8.179,1.433,-5.69,3.22,-7.98,6.44
,-8.138,0.945,-5.906,-8.282,1.608,-5.616,2.17,-8.12,5.95
,-8.184,1.005,-5.834,-8.217,1.522,-5.458,2.03,-7.56,5.39
28091.0,-8.2,1.366,-5.449,-8.15,0.538,-5.384,5.81,-5.95,-1.75
,-8.155,1.072,-5.386,-8.248,0.412,-5.374,4.76,-6.58,-3.01
,-8.043,0.873,-5.535,-8.193,0.347,-5.477,4.69,-7.14,-3.57
,-8.057,0.732,-5.554,-8.167,0.297,-5.542,5.53,-6.93,-3.57
28166.0,-8.028,0.263,-5.695,-8.234,0.579,-5.52,5.46,-7.21,-3.43
,-8.27,0.258,-5.774,-8.212,0.613,-5.518,4.55,-7.21,-2.94
,-8.157,0.459,-5.714,-8.224,0.44,-5.453,4.13,-7.07,-3.01
,-8.334,0.445,-5.434,-8.153,0.263,-5.408,5.18,-6.44,-2.94
28242.0,-8.311,0.177,-5.377,-8.098,0.742,-5.535,4.69,-7.56,-3.15
,-8.445,0.302,-5.494,-8.011,0.505,-5.477,6.37,-7.28,-3.36
,-8.413,0.493,-5.508,-8.303,0.227,-5.439,6.93,-7.56,-3.85
,-8.272,0.637,-5.485,-8.413,0.005,-5.434,6.3,-7.77,-4.06
28317.0,-8.404,-0.017,-5.439,-8.181,0.103,-5.451,1.75,-10.08,-4.06
,-8.342,0.022,-5.504,-8.224,0.237,-5.444,2.52,-9.94,-3.57
,-8.186,-0.103,-5.461,-8.052,0.089,-5.398,3.01,-9.87,-2.8
,-8.165,-0.074,-5.511,-8.708,0.462,-5.446,4.55,-9.73,-2.17
28393.0,-8.634,0.179,-5.276,-8.344,0.053,-5.281,5.95,-9.59,0.49
,-8.524,0.28,-5.36,-8.476,0.175,-5.214,6.16,-10.36,0.14
,-8.423,0.22,-5.353,-8.454,0.383,-5.255,5.67,-10.36,0.28
,-8.313,0.211,-5.257,-8.521,0.488,-5.147,5.74,-10.29,0.77
28469.0,-8.483,0.572,-5.126,-8.746,0.345,-4.896,6.09,-12.53,0.28
,-8.512,0.357,-5.068,-8.66,0.852,-5.173,4.06,-12.81,-0.07
,-8.576,0.333,-5.042,-8.454,0.943,-5.272,4.06,-13.16,-0.91
,-8.722,0.328,-4.929,-8.409,0.806,-5.183,3.92,-13.44,-1.68
28545.0,-8.368,0.526,-5.195,-8.732,-0.031,-4.726,-1.19,-14.7,-4.83
,-8.425,0.127,-4.982,-8.205,0.342,-5.327,-1.54,-15.05,-5.32
,-8.667,-0.168,-4.807,-8.696,0.608,-4.788,-0.49,-15.05,-5.32
,-8.77,-0.086,-4.915,-8.744,0.562,-4.824,1.47,-15.19,-5.11
28620.0,-8.459,0.201,-4.733,-8.835,-0.168,-4.274,-1.96,-15.89,-5.53
,-8.382,-0.031,-4.731,-8.847,0.203,-4.223,-2.52,-15.47,-5.11
,-8.325,-0.074,-4.685,-8.897,0.45,-4.365,-0.84,-15.82,-4.97
,-8.538,-0.132,-4.57,-8.854,0.424,-4.36,0.91,-15.89,-4.83
28696.0,-8.78,0.244,-4.056,-8.799,0.404,-4.348,-0.42,-14.56,-5.04
,-8.839,0.191,-4.032,-8.815,0.258,-4.451,-0.42,-14.21,-5.04
,-8.916,0.206,-4.207,-8.827,-0.098,-4.152,-0.49,-14.35,-5.67
,-8.911,0.352,-4.322,-8.923,-0.33,-3.972,-0.35,-14.42,-6.16
28772.0,-8.772,-0.419,-3.977,-9.05,-0.404,-4.166,-0.28,-12.46,-6.58
,-8.701,-0.388,-3.879,-9.1,-0.359,-4.099,0.28,-12.6,-5.81
,-8.787,-0.33,-4.195,-9.04,-0.292,-3.912,0.63,-12.81,-5.04
,-8.909,-0.357,-4.295,-8.882,-0.156,-3.936,0.77,-13.02,-4.34
28848.0,-8.684,-0.101,-3.936,-9.16,-0.223,-3.561,4.62,-11.34,-3.36
,-8.775,-0.184,-3.81,-9.024,0.0,-3.293,4.34,-11.2,-2.87
,-8.995,-0.184,-3.838,-9.055,0.11,-3.23,4.62,-10.78,-2.31
,-9.162,-0.175,-3.585,-9.153,0.175,-3.606,5.6,-9.94,-1.54
28924.0,-9.026,0.211,-3.63,-9.11,0.287,-3.592,3.99,-6.93,-2.45
,-9.04,0.34,-3.711,-9.196,-0.06,-3.415,3.92,-6.16,-2.52
,-9.083,0.416,-3.654,-9.103,-0.299,-3.786,3.99,-5.53,-3.01
,-9.134,0.436,-3.802,-8.973,-0.428,-3.862,3.99,-5.11,-3.71
28999.0,-9.045,-0.302,-4.13,-9.052,-0.409,-3.728,2.52,-4.48,-3.64
,-9.201,-0.203,-4.008,-9.067,-0.179,-3.881,3.22,-4.34,-3.15
,-9.098,-0.294,-3.944,-9.134,0.019,-4.243,3.36,-3.99,-2.87
,-9.079,-0.421,-3.771,-9.009,0.081,-4.271,3.92,-3.85,-3.01
29075.0,-8.983,-0.017,-4.276,-9.182,-0.646,-3.309,2.24,-5.25,-3.99
,-8.971,-0.404,-4.006,-9.332,-0.361,-3.415,2.38,-4.9,-3.71
,-8.976,-0.653,-3.699,-9.428,-0.022,-3.577,3.85,-4.83,-3.08
,-8.99,-0.704,-3.57,-9.194,0.196,-3.697,5.95,-4.55,-2.45
29150.0,-9.072,0.105,-3.865,-9.292,0.124,-4.142,3.22,-3.22,-2.17
,-9.06,-0.038,-3.898,-9.165,0.022,-3.912,2.1,-3.43,-2.45
,-9.1,-0.122,-3.738,-9.079,-0.318,-3.812,2.59,-3.43,-2.87
,-9.072,-0.036,-3.81,-9.165,-0.462,-3.805,4.06,-3.43,-2.94
29226.0,-9.174,-0.55,-3.819,-9.05,-0.826,-3.403,3.64,-4.06,-2.52
,-9.107,-0.593,-3.702,-9.28,-0.67,-3.51,5.04,-3.78,-1.96
,-9.124,-0.543,-3.855,-9.299,-0.402,-3.429,5.04,-3.64,-1.47
,-9.103,-0.668,-3.692,-9.347,-0.242,-3.436,4.48,-3.64,-0.91
29302.0,-9.344,-0.007,-3.417,-9.366,-0.12,-3.491,8.75,-2.24,1.26
,-9.299,0.11,-3.506,-9.241,-0.479,-3.733,7.63,-2.1,1.19
,-9.237,0.144,-3.518,-9.129,-0.553,-3.664,6.44,-2.38,0.63
,-9.323,0.081,-3.592,-9.141,-0.534,-3.697,5.11,-2.52,0.21
29378.0,-9.162,-0.462,-3.656,-9.244,-0.23,-3.439,8.54,-2.31,0.77
,-9.139,-0.4,-3.74,-9.289,-0.246,-3.329,8.61,-2.24,0.56
,-9.028,-0.244,-3.532,-9.325,-0.191,-3.539,7.77,-2.17,0.49
,-9.131,-0.172,-3.381,-9.258,-0.084,-3.513,6.51,-1.96,0.14
29453.0,-9.225,-0.084,-3.515,-9.34,-0.438,-2.934,3.71,-1.26,-1.19
,-9.244,-0.12,-3.482,-9.442,-0.261,-3.206,3.43,-1.05,-1.4
,-9.117,-0.404,-3.202,-9.373,-0.23,-3.29,2.94,-0.7,-1.12
,-9.198,-0.5,-3.082,-9.258,-0.268,-3.451,3.29,0.14,-0.91
29529.0,-9.15,-0.421,-3.431,-9.284,-0.321,-3.489,-2.31,1.75,-2.38
,-9.167,-0.725,-3.388,-9.256,-0.302,-3.589,-2.03,2.31,-1.75
,-9.206,-0.663,-3.384,-9.222,-0.237,-3.618,-0.42,2.8,-1.4
,-9.299,-0.44,-3.479,-9.234,-0.129,-3.79,0.7,2.8,-1.4
29605.0,-9.117,-0.352,-3.733,-9.299,-0.38,-3.898,-1.75,2.38,-1.47
,-9.122,-0.577,-3.766,-9.263,-0.199,-3.865,-1.82,2.45,-1.26
,-9.162,-0.656,-3.711,-9.237,-0.237,-3.841,-0.35,2.38,-0.84
,-9.196,-0.593,-3.798,-9.22,-0.287,-3.848,1.68,2.31,-0.63
29681.0,-9.217,-0.196,-4.015,-9.215,-0.581,-3.431,1.82,0.28,-1.12
,-9.134,-0.168,-3.982,-9.258,-0.462,-3.417,2.1,-0.21,-1.05
,-9.112,-0.34,-3.829,-9.318,-0.428,-3.362,2.66,-0.56,-0.91
,-9.15,-0.498,-3.62,-9.232,-0.471,-3.477,3.92,-0.56,-0.56
29756.0,-9.072,-0.675,-3.369,-9.344,-0.574,-2.869,3.71,0.14,-0.63
,-9.105,-0.814,-3.238,-9.407,-0.493,-2.84,4.13,0.77,0.0
,-9.292,-0.835,-3.094,-9.378,-0.388,-2.922,5.53,1.47,0.63
,-9.289,-0.763,-2.941,-9.347,-0.337,-3.101,6.93,2.45,1.26
29832.0,-9.225,-0.273,-3.25,-9.323,-0.244,-3.939,3.15,5.67,1.47
,-9.167,-0.325,-3.374,-9.172,-0.191,-4.111,1.82,6.23,1.4
,-9.189,-0.349,-3.491,-9.04,-0.409,-4.286,1.33,6.51,1.12
,-9.308,-0.249,-3.702,-8.981,-0.455,-4.348,1.05,6.3,0.84
29908.0,-9.052,-0.364,-4.243,-9.294,-0.426,-3.453,1.96,3.5,0.28
,-9.165,-0.268,-4.125,-9.433,-0.424,-3.527,3.15,3.08,0.42
,-9.208,-0.323,-3.905,-9.239,-0.476,-3.475,3.36,2.73,0.49
,-9.194,-0.428,-3.644,-9.232,-0.462,-3.448,3.43,2.52,0.7
29983.0,-9.143,-0.481,-3.458,-9.117,-0.385,-3.632,2.94,3.08,0.7
,-9.225,-0.376,-3.551,-9.172,-0.469,-3.75,2.94,3.22,0.42
,-9.282,-0.256,-3.64,-9.16,-0.431,-3.786,2.1,3.36,0.21
,-9.194,-0.321,-3.58,-9.174,-0.361,-3.893,0.77,3.36,0.14
30059.0,-9.201,-0.254,-4.022,-9.189,-0.486,-3.618,2.31,2.73,-0.21
,-9.134,-0.244,-3.989,-9.21,-0.514,-3.434,2.03,2.52,-0.35
,-9.107,-0.325,-3.826,-9.251,-0.495,-3.376,1.89,2.31,-0.28
,-9.141,-0.443,-3.743,-9.277,-0.419,-3.386,2.38,2.24,-0.14
30135.0,-9.294,-0.342,-3.553,-9.11,-0.44,-3.91,1.89,3.15,0.28
,-9.311,-0.333,-3.692,-9.079,-0.426,-3.841,0.21,3.01,-0.07
,-9.206,-0.412,-3.747,-9.115,-0.383,-3.898,-1.26,2.73,-0.35
,-9.177,-0.447,-3.881,-9.174,-0.392,-3.841,-1.33,2.73,-0.56
30211.0,-9.198,-0.376,-3.821,-9.074,-0.589,-3.757,1.19,2.17,-0.14
,-9.148,-0.378,-3.8,-9.167,-0.541,-3.86,0.91,1.89,-0.21
,-9.136,-0.45,-3.812,-9.167,-0.455,-3.853,0.84,1.82,-0.21
,-9.105,-0.524,-3.872,-9.172,-0.507,-3.678,1.12,1.68,-0.21
30286.0,-9.158,-0.471,-3.735,-9.165,-0.452,-3.606,3.29,1.4,0.49
,-9.165,-0.498,-3.766,-9.155,-0.471,-3.62,3.36,1.47,0.56
,-9.141,-0.471,-3.687,-9.179,-0.5,-3.635,3.43,1.4,0.7
,-9.129,-0.392,-3.719,-9.167,-0.44,-3.582,3.5,1.4,0.63
30362.0,-9.182,-0.404,-3.716,-9.136,-0.395,-3.81,2.87,1.89,0.42
,-9.15,-0.385,-3.692,-9.119,-0.364,-3.845,2.52,1.89,0.35
,-9.129,-0.402,-3.719,-9.119,-0.354,-3.91,2.52,2.17,0.56
,-9.136,-0.388,-3.771,-9.143,-0.426,-3.872,2.38,1.89,0.56
30438.0,-9.146,-0.56,-3.872,-9.201,-0.488,-3.63,1.68,1.12,0.28
,-9.115,-0.498,-3.853,-9.244,-0.486,-3.549,2.24,0.98,0.42
,-9.146,-0.522,-3.726,-9.273,-0.45,-3.53,2.73,0.98,0.42
,-9.172,-0.495,-3.613,-9.261,-0.469,-3.532,3.15,1.12,0.77
30514.0,-9.294,-0.462,-3.58,-9.225,-0.38,-3.769,2.59,1.68,0.7
,-9.251,-0.474,-3.515,-9.206,-0.275,-3.836,1.96,1.89,0.77
,-9.191,-0.481,-3.671,-9.134,-0.292,-3.915,2.03,2.24,0.84
,-9.194,-0.44,-3.673,-9.155,-0.347,-3.891,2.38,2.24,0.77
30589.0,-9.155,-0.357,-3.958,-9.206,-0.376,-3.754,2.31,1.47,0.63
,-9.105,-0.349,-3.972,-9.201,-0.409,-3.664,2.73,1.26,0.56
,-9.11,-0.33,-3.891,-9.215,-0.493,-3.57,2.87,1.05,0.49
,-9.16,-0.373,-3.8,-9.21,-0.541,-3.51,3.01,0.84,0.49
30665.0,-9.227,-0.479,-3.594,-9.172,-0.455,-3.788,2.03,1.4,0.35
,-9.206,-0.428,-3.642,-9.095,-0.395,-3.747,1.75,1.54,0.42
,-9.229,-0.457,-3.661,-9.131,-0.414,-3.671,1.47,1.68,0.49
,-9.189,-0.483,-3.766,-9.141,-0.424,-3.805,1.61,1.82,0.56
30740.0,-9.158,-0.357,-3.831,-9.191,-0.447,-3.692,3.01,1.61,0.56
,-9.167,-0.309,-3.757,-9.146,-0.378,-3.707,2.66,1.33,0.35
,-9.17,-0.383,-3.733,-9.143,-0.512,-3.673,2.24,1.33,0.35
,-9.21,-0.443,-3.795,-9.21,-0.555,-3.553,2.31,1.05,0.21
30816.0,-9.208,-0.467,-3.518,-9.158,-0.548,-3.659,1.89,1.68,0.49
,-9.191,-0.548,-3.558,-9.107,-0.553,-3.771,1.26,1.75,0.49
,-9.182,-0.522,-3.592,-9.117,-0.555,-3.817,1.12,1.96,0.49
,-9.208,-0.546,-3.69,-9.129,-0.548,-3.869,0.91,1.75,0.49
30892.0,-9.129,-0.474,-3.915,-9.076,-0.421,-3.884,2.24,1.89,1.05
,-9.148,-0.548,-3.963,-9.158,-0.392,-3.862,2.31,1.68,1.12
,-9.146,-0.433,-3.953,-9.194,-0.476,-3.812,2.94,1.61,1.4
,-9.093,-0.467,-3.944,-9.196,-0.498,-3.668,3.22,1.33,1.4
30968.0,-9.206,-0.443,-3.867,-9.213,-0.371,-3.676,3.08,0.84,1.54
,-9.172,-0.385,-3.855,-9.275,-0.282,-3.733,2.73,0.77,1.68
,-9.17,-0.414,-3.719,-9.203,-0.249,-3.778,2.38,0.77,1.61
,-9.227,-0.424,-3.762,-9.222,-0.361,-3.719,2.38,0.84,1.47
31044.0,-9.115,-0.498,-3.609,-9.217,-0.483,-3.314,0.63,0.49,1.12
,-9.15,-0.488,-3.719,-9.244,-0.412,-3.494,1.75,0.49,1.26
,-9.177,-0.373,-3.637,-9.22,-0.44,-3.412,2.17,0.56,1.19
,-9.191,-0.395,-3.408,-9.227,-0.433,-3.369,1.47,0.7,1.26
31119.0,-9.198,-0.479,-3.391,-9.162,-0.328,-3.644,-1.47,1.96,1.12
,-9.203,-0.426,-3.415,-9.146,-0.452,-3.692,-1.33,2.38,1.19
,-9.237,-0.357,-3.501,-9.136,-0.536,-3.668,-1.96,2.45,0.98
,-9.196,-0.323,-3.585,-9.124,-0.613,-3.522,-2.8,2.59,0.98
31195.0,-9.191,-0.546,-3.659,-9.016,-0.431,-3.8,-1.68,3.78,1.89
,-9.194,-0.457,-3.81,-9.055,-0.409,-3.757,-1.33,3.71,1.82
,-9.17,-0.397,-3.819,-9.124,-0.416,-3.635,-1.68,3.71,2.1
,-9.052,-0.349,-3.848,-9.167,-0.4,-3.549,-1.4,3.78,2.24
31271.0,-9.261,-0.416,-3.522,-9.115,-0.522,-3.458,0.35,4.48,2.8
,-9.265,-0.294,-3.668,-9.206,-0.605,-3.369,0.07,4.62,2.59
,-9.131,-0.213,-3.685,-9.323,-0.522,-3.498,-0.91,4.9,2.52
,-9.098,-0.316,-3.601,-9.287,-0.349,-3.812,-2.1,5.18,2.66
31347.0,-9.091,-0.342,-3.891,-9.0,-0.486,-4.307,-4.48,6.16,2.52
,-8.978,-0.361,-4.094,-9.086,-0.503,-4.264,-5.6,5.95,2.31
,-8.976,-0.486,-4.214,-9.043,-0.608,-3.982,-6.3,5.46,2.17
,-9.005,-0.483,-4.233,-9.048,-0.419,-3.829,-5.46,4.97,2.31
31422.0,-9.258,-0.098,-3.661,-8.906,0.225,-4.245,3.57,3.57,3.36
,-9.445,0.397,-4.027,-9.002,-0.077,-4.168,4.2,3.08,2.52
,-9.265,0.677,-4.19,-9.021,-0.151,-3.924,2.1,2.66,1.75
,-9.024,0.548,-4.274,-9.139,-0.148,-3.676,-1.05,2.03,1.54
31498.0,-9.222,-0.112,-3.683,-9.174,-0.438,-3.357,3.43,1.61,1.47
,-9.141,-0.103,-3.618,-9.127,-0.61,-3.051,2.03,1.4,1.05
,-9.143,-0.196,-3.632,-9.256,-0.548,-3.216,0.77,1.54,0.98
,-9.196,-0.316,-3.525,-9.215,-0.38,-3.857,-0.91,2.03,0.98
31573.0,-9.031,-0.182,-4.068,-8.827,-1.469,-3.731,-4.13,3.08,1.19
,-9.016,-0.036,-4.494,-9.069,-1.204,-3.982,-5.11,2.87,1.89
,-8.961,-0.605,-4.554,-9.129,-0.433,-3.91,-7.35,2.87,2.94
,-8.737,-1.187,-4.128,-9.246,0.313,-4.109,-5.67,3.92,5.18
31649.0,-9.277,0.617,-3.989,-9.005,-0.079,-3.403,5.6,3.43,6.86
,-9.229,0.462,-3.979,-9.148,0.069,-3.46,2.17,3.22,6.72
,-9.136,0.239,-3.656,-9.208,0.333,-3.817,0.49,3.5,6.09
,-9.028,-0.034,-3.63,-9.146,0.637,-3.8,0.14,4.55,5.74
31725.0,-9.139,0.897,-3.955,-8.878,-0.431,-3.898,2.03,4.06,2.8
,-9.184,0.833,-3.989,-9.031,-0.95,-3.754,-1.12,3.36,1.61
,-9.177,0.629,-4.319,-9.088,-1.161,-3.326,-5.04,2.94,-0.07
,-8.866,0.148,-4.092,-9.253,-0.854,-3.202,-8.12,3.01,-0.63
31801.0,-9.263,-0.431,-3.525,-9.093,0.038,-4.099,2.94,6.58,2.38
,-9.074,-0.122,-3.58,-9.055,-0.105,-4.257,1.82,7.0,2.94
,-8.949,0.158,-3.649,-8.794,-0.402,-4.018,0.21,7.21,3.5
,-8.918,0.043,-3.982,-8.82,-0.763,-3.676,-1.05,7.42,2.73
31876.0,-8.966,-0.96,-3.532,-8.971,-0.148,-3.625,3.29,8.19,4.27
,-9.229,-1.034,-3.376,-8.775,-0.038,-3.762,4.97,8.61,5.25
,-9.301,-0.857,-3.601,-8.715,-0.129,-3.611,5.6,9.17,6.37
,-9.107,-0.426,-3.558,-8.916,-0.057,-3.8,5.39,9.94,7.28
31952.0,-9.069,0.318,-3.841,-9.072,0.94,-3.817,3.5,12.88,8.54
,-9.026,0.572,-4.037,-9.079,0.773,-3.678,3.64,13.44,8.47
,-8.916,0.754,-4.054,-9.079,0.763,-3.991,3.29,13.65,7.49
,-9.026,0.883,-3.953,-8.94,0.816,-4.396,3.5,14.14,6.09
32028.0,-8.981,0.342,-4.513,-8.827,-0.151,-4.389,-2.66,13.86,2.1
,-8.837,-0.225,-4.334,-8.667,0.213,-4.642,-6.3,14.28,2.03
,-8.748,-0.553,-4.152,-8.504,0.333,-4.637,-5.04,15.19,2.52
,-8.808,-0.443,-4.398,-8.744,0.304,-4.47,-0.56,15.61,3.15
32104.0,-9.038,0.503,-4.506,-8.751,0.692,-4.618,0.84,16.31,2.66
,-9.076,0.708,-4.255,-8.976,0.426,-4.834,1.33,16.66,1.75
,-8.856,0.902,-4.338,-9.038,0.053,-4.625,1.33,16.38,1.19
,-8.662,0.948,-4.558,-8.643,-0.05,-4.611,0.0,15.82,0.49
32180.0,-8.43,-0.302,-4.582,-8.768,0.12,-4.977,-0.7,16.52,0.42
,-8.483,-0.605,-4.513,-8.447,0.369,-5.162,0.07,16.38,0.84
,-8.708,-0.632,-4.537,-8.32,0.122,-5.118,1.33,16.1,1.54
,-8.911,-0.354,-4.633,-8.526,-0.237,-4.867,3.29,16.1,2.52
32255.0,-8.536,-0.316,-4.822,-8.473,0.014,-4.664,-0.21,14.84,4.41
,-8.543,-0.402,-4.724,-8.524,0.139,-4.692,2.38,14.7,4.9
,-8.607,-0.237,-4.786,-8.593,0.213,-4.652,5.53,14.63,5.46
,-8.509,-0.103,-4.824,-8.758,0.526,-4.666,7.7,15.05,6.37
32331.0,-8.698,1.048,-4.903,-8.433,0.584,-4.867,10.15,16.03,7.35
,-8.614,1.333,-5.104,-8.291,0.306,-4.915,7.63,15.75,6.44
,-8.722,1.165,-5.011,-8.361,-0.017,-4.98,3.99,15.82,5.39
,-8.71,0.902,-4.987,-8.528,-0.189,-4.908,1.47,16.17,3.85
32406.0,-8.581,-0.211,-4.867,-8.205,0.586,-5.377,4.76,18.76,2.94
,-8.461,-0.246,-4.716,-8.284,0.627,-5.353,4.69,19.6,3.92
,-8.368,-0.014,-4.905,-8.351,0.546,-5.413,5.53,19.81,3.92
,-8.301,0.357,-5.212,-8.279,0.412,-5.386,5.39,19.46,3.92
32482.0,-8.303,0.292,-5.298,-8.196,0.445,-5.776,-0.42,19.53,3.92
,-8.349,0.258,-5.286,-8.148,0.531,-5.851,0.98,18.97,3.85
,-8.344,0.28,-5.437,-8.055,0.577,-5.796,2.17,17.78,3.71
,-8.284,0.357,-5.712,-8.081,0.608,-5.702,2.59,16.52,3.15
32558.0,-8.045,0.699,-5.686,-8.019,0.002,-5.631,3.36,15.89,0.91
,-8.052,0.692,-5.748,-7.961,-0.361,-5.573,2.24,15.96,0.63
,-8.186,0.416,-5.587,-7.94,-0.787,-5.669,0.98,15.82,0.56
,-8.165,0.153,-5.525,-7.992,-0.847,-5.891,0.42,15.26,0.42
32634.0,-8.16,-0.974,-5.949,-7.873,0.388,-5.899,9.03,15.61,5.88
,-8.196,-0.785,-6.068,-7.889,0.598,-5.896,11.69,15.68,7.77
,-8.107,-0.373,-5.954,-8.033,0.766,-5.994,13.79,14.7,8.05
,-7.992,-0.036,-5.992,-8.251,0.778,-6.088,14.56,14.07,8.68
32709.0,-8.15,0.84,-6.083,-7.887,0.481,-6.444,6.58,9.87,5.67
,-7.949,0.995,-6.236,-8.095,-0.012,-6.138,6.93,9.52,5.18
,-7.808,0.957,-6.346,-8.045,0.0,-6.234,6.79,9.17,4.34
,-7.858,0.687,-6.387,-7.909,0.112,-6.346,7.21,8.68,3.57
32785.0,-7.885,0.007,-6.267,-8.069,1.129,-5.956,9.59,7.91,4.2
,-7.921,0.093,-6.143,-8.093,1.041,-5.994,8.75,8.4,4.27
,-7.885,0.529,-6.169,-8.169,0.802,-5.851,8.47,8.96,4.13
,-7.995,0.928,-6.159,-7.93,0.629,-5.887,7.42,9.73,3.5
32860.0,-7.66,0.304,-6.021,-7.842,0.153,-6.033,0.98,9.59,1.12
,-7.865,-0.029,-5.982,-7.743,0.495,-6.135,2.17,10.08,1.12
,-8.033,-0.014,-6.183,-7.791,0.431,-6.188,4.83,9.45,0.77
,-8.016,-0.007,-6.128,-8.045,0.366,-6.217,6.09,8.75,1.19
32936.0,-8.045,0.172,-6.126,-7.473,0.062,-6.403,1.33,7.98,0.91
,-7.875,0.158,-6.155,-7.746,0.299,-6.356,0.63,8.12,1.26
,-7.612,0.007,-6.277,-7.782,0.531,-6.418,0.42,8.05,1.89
,-7.49,-0.211,-6.231,-7.959,0.469,-6.423,0.77,7.77,3.08
33012.0,-8.035,0.55,-6.461,-7.961,0.165,-6.267,6.3,4.27,1.61
,-8.047,0.524,-6.478,-7.703,0.136,-6.315,6.37,4.55,0.84
,-7.875,0.412,-6.48,-7.542,0.129,-6.478,6.58,5.04,0.35
,-7.856,0.352,-6.559,-7.586,-0.101,-6.461,7.35,5.46,0.07
33088.0,-7.767,-0.101,-6.523,-7.667,0.201,-6.231,3.36,3.36,1.89
,-7.784,-0.026,-6.499,-7.712,0.543,-6.25,3.64,3.36,2.38
,-7.753,-0.024,-6.348,-7.858,0.847,-6.365,3.57,3.57,3.22
,-7.679,0.136,-6.222,-8.064,0.512,-6.157,3.99,3.43,3.78
33164.0,-7.928,0.302,-6.162,-7.815,0.333,-6.102,0.7,0.63,3.22
,-7.669,0.191,-6.241,-7.944,0.495,-6.195,1.96,1.26,3.36
,-7.535,0.141,-6.126,-7.741,0.428,-6.296,3.01,1.89,3.64
,-7.519,0.172,-6.111,-7.705,0.278,-6.25,3.85,2.17,3.99
33239.0,-7.782,0.208,-6.329,-7.595,0.668,-6.351,2.87,1.68,3.71
,-7.928,0.203,-6.451,-7.803,0.653,-6.315,3.15,1.82,3.57
,-7.966,0.237,-6.334,-7.901,0.433,-6.212,3.29,1.96,3.64
,-7.645,0.488,-6.312,-7.854,0.194,-6.212,3.64,1.61,3.22
33315.0,-7.669,0.045,-6.195,-8.033,1.039,-6.344,-0.35,1.26,2.59
,-7.468,-0.041,-6.085,-7.985,1.07,-6.363,0.84,1.75,3.01
,-7.471,0.285,-6.19,-7.782,0.828,-6.222,2.66,1.96,3.08
,-7.868,0.78,-6.236,-7.746,0.503,-6.064,3.5,1.19,2.73
33391.0,-7.798,0.416,-6.207,-7.641,0.704,-6.492,0.35,1.47,-0.14
,-7.921,0.419,-6.169,-7.731,0.486,-6.463,0.84,1.54,-0.21
,-7.846,0.605,-6.226,-7.76,0.436,-6.511,0.77,1.19,-0.49
,-7.626,0.785,-6.396,-7.798,0.036,-6.415,-0.14,0.21,-0.91
33467.0,-7.641,-0.127,-6.305,-7.739,0.206,-6.458,-4.34,0.42,0.49
,-7.686,-0.007,-6.394,-7.636,0.254,-6.466,-2.73,0.42,0.49
,-7.873,0.108,-6.468,-7.657,0.232,-6.518,-2.31,-0.07,0.63
,-7.851,0.074,-6.396,-7.798,0.309,-6.647,-2.24,-0.14,1.12
33542.0,-7.82,0.359,-6.604,-7.887,0.17,-6.389,-5.11,-3.01,3.78
,-7.825,0.311,-6.518,-8.055,0.529,-6.403,-5.88,-2.73,3.92
,-7.918,-0.014,-6.303,-8.129,0.885,-6.284,-6.16,-2.17,4.06
,-7.921,-0.124,-6.31,-7.99,1.11,-6.21,-4.69,-1.47,4.55
33618.0,-7.827,1.079,-6.04,-8.028,0.895,-6.097,-1.12,-5.04,0.91
,-7.705,1.039,-6.047,-8.031,1.034,-6.138,-2.8,-5.32,0.42
,-7.83,0.991,-6.068,-7.897,1.012,-6.241,-3.22,-5.39,0.35
,-7.968,0.828,-5.977,-7.849,0.876,-6.198,-2.8,-5.32,0.14
33693.0,-7.758,0.529,-6.143,-7.906,0.146,-6.14,-3.01,-8.47,-2.31
,-7.755,0.23,-6.133,-7.956,0.519,-6.135,-3.22,-8.4,-2.03
,-7.743,-0.127,-6.145,-7.925,0.704,-6.164,-2.52,-8.26,-1.19
,-7.863,-0.129,-6.123,-7.825,0.668,-6.159,-0.07,-7.84,-0.21
33769.0,-7.791,0.462,-6.135,-8.098,0.421,-6.03,0.35,-7.84,2.59
,-8.035,0.132,-6.028,-8.083,0.503,-6.066,-0.14,-8.05,2.94
,-8.083,0.101,-5.954,-7.865,0.479,-6.056,0.28,-8.75,2.66
,-8.076,0.218,-6.004,-7.901,0.352,-6.004,2.87,-8.75,2.52
33845.0,-7.813,0.299,-6.049,-8.143,0.706,-5.561,5.95,-7.63,3.22
,-7.83,0.33,-6.155,-8.258,0.718,-5.458,7.63,-7.42,3.92
,-7.913,0.352,-6.042,-8.327,0.95,-5.53,9.94,-7.14,4.13
,-8.066,0.565,-5.762,-8.133,1.086,-5.578,12.32,-6.86,3.92
33921.0,-8.043,1.031,-5.628,-7.956,1.024,-5.664,4.76,-10.64,0.42
,-8.086,0.962,-5.645,-7.947,0.974,-5.748,4.06,-10.57,0.0
,-8.227,0.9,-5.418,-8.107,0.546,-5.451,4.48,-9.87,-0.91
,-8.169,0.893,-5.528,-8.246,0.443,-5.391,6.09,-10.15,-1.68
33996.0,-8.318,0.438,-5.274,-8.083,0.455,-5.291,7.28,-7.84,-1.75
,-8.296,0.61,-5.379,-8.186,0.354,-5.229,7.63,-8.12,-1.75
,-8.179,0.747,-5.441,-8.373,0.347,-5.226,6.58,-8.4,-1.61
,-8.043,0.637,-5.363,-8.38,0.373,-5.425,4.76,-8.4,-1.54
34072.0,-8.332,0.431,-5.482,-8.323,0.139,-5.329,3.57,-9.66,-2.45
,-8.232,0.361,-5.564,-8.267,0.536,-5.602,2.24,-9.66,-2.1
,-8.129,0.146,-5.487,-8.217,0.782,-5.485,1.47,-9.24,-1.47
,-8.165,0.089,-5.386,-8.205,0.45,-5.197,2.38,-9.03,-1.05
34148.0,-8.581,0.445,-5.324,-8.217,0.414,-5.434,0.28,-10.71,-2.03
,-8.536,0.44,-5.544,-8.334,0.072,-5.394,1.12,-10.92,-2.59
,-8.507,0.553,-5.564,-8.583,-0.084,-5.319,0.49,-11.76,-3.29
,-8.313,0.555,-5.532,-8.629,-0.074,-5.41,0.07,-11.9,-3.01
34224.0,-8.483,-0.022,-5.398,-8.361,0.412,-5.274,3.15,-12.39,-1.61
,-8.358,0.127,-5.358,-8.33,0.613,-5.312,4.48,-12.67,-0.91
,-8.351,0.148,-5.293,-8.277,0.66,-5.221,3.5,-13.02,-0.35
,-8.421,0.268,-5.25,-8.313,0.498,-4.977,3.92,-13.37,-0.21
34300.0,-8.533,0.455,-4.905,-8.437,0.668,-4.803,1.75,-13.58,-1.26
,-8.636,0.505,-4.807,-8.421,0.625,-4.558,2.38,-13.65,-0.98
,-8.691,0.495,-4.637,-8.801,0.905,-5.315,2.94,-13.65,-0.63
,-8.667,0.615,-4.779,-8.476,1.003,-4.805,3.43,-13.51,-0.98
34375.0,-8.799,0.912,-4.573,-8.732,0.213,-4.281,4.97,-12.32,-3.22
,-8.71,0.677,-4.415,-8.796,0.141,-4.245,2.17,-11.9,-3.71
,-8.715,0.419,-4.142,-8.842,0.153,-4.343,-1.26,-10.99,-3.78
,-8.705,0.23,-4.176,-8.739,0.012,-4.475,-2.03,-10.43,-3.99
34451.0,-8.49,-0.084,-4.587,-8.717,0.555,-4.728,-0.56,-8.12,-2.8
,-8.447,-0.093,-4.484,-8.593,0.519,-4.774,1.33,-7.56,-2.17
,-8.619,0.024,-4.539,-8.612,0.443,-4.659,3.71,-7.63,-2.03
,-8.732,0.395,-4.659,-8.799,0.376,-4.671,5.39,-8.12,-2.52
34526.0,-8.878,0.388,-4.681,-8.708,0.055,-4.874,1.82,-8.47,-3.43
,-8.902,0.627,-4.901,-8.82,-0.321,-4.587,1.96,-8.96,-3.78
,-8.737,0.723,-5.073,-8.964,-0.388,-4.362,0.28,-9.8,-4.34
,-8.65,0.455,-5.109,-9.007,-0.074,-4.422,-1.68,-10.5,-4.34
34602.0,-8.978,0.428,-4.391,-8.887,-0.036,-4.068,4.9,-10.15,-2.8
,-8.861,0.555,-4.475,-8.94,0.105,-4.092,2.59,-10.5,-2.87
,-8.854,0.376,-4.477,-8.923,0.184,-4.003,-0.14,-10.5,-2.8
,-8.815,0.182,-4.24,-8.813,0.275,-4.116,-0.98,-10.29,-2.52
34678.0,-8.794,0.177,-3.848,-9.052,0.787,-3.879,1.33,-9.03,-2.73
,-8.969,0.053,-3.522,-8.837,0.895,-4.432,1.68,-8.4,-2.24
,-9.265,0.122,-3.513,-8.76,0.534,-4.365,3.01,-7.63,-2.73
,-9.225,0.445,-3.853,-8.839,0.055,-4.259,2.66,-7.21,-3.5
34754.0,-8.856,-0.206,-3.893,-9.014,0.165,-4.281,-1.26,-6.65,-4.48
,-9.048,-0.258,-4.015,-9.033,-0.036,-4.396,1.61,-6.86,-4.83
,-9.031,0.086,-4.192,-8.933,-0.026,-4.432,2.94,-6.86,-4.9
,-8.961,0.33,-4.228,-8.813,-0.002,-4.413,1.96,-7.07,-4.27
34829.0,-8.796,0.072,-4.379,-8.916,0.325,-4.243,4.9,-7.7,-3.15
,-8.964,0.258,-4.477,-9.0,0.251,-4.145,6.58,-8.19,-3.29
,-9.119,0.29,-4.264,-9.033,0.029,-3.944,6.79,-8.54,-3.36
,-9.083,0.392,-4.451,-9.072,-0.077,-3.656,5.88,-8.82,-3.78
34905.0,-9.15,0.053,-3.623,-9.134,0.11,-4.235,6.16,-8.4,-4.13
,-9.186,0.06,-3.429,-8.849,-0.069,-4.013,4.69,-8.12,-4.34
,-9.119,0.038,-3.568,-8.681,-0.105,-3.867,3.36,-7.84,-4.34
,-9.1,0.038,-3.515,-8.949,-0.225,-3.766,3.57,-7.49,-4.13
34981.0,-9.184,0.043,-3.683,-9.1,-0.158,-3.345,7.77,-7.28,-3.78
,-9.244,0.321,-3.62,-9.119,-0.275,-3.498,7.49,-7.21,-3.92
,-9.227,0.311,-3.451,-9.15,-0.237,-3.448,5.46,-7.0,-4.13
,-9.215,0.11,-3.496,-9.16,-0.179,-3.597,3.15,-6.51,-4.76
35057.0,-9.16,-0.287,-3.443,-9.234,0.17,-4.034,3.57,-4.34,-3.64
,-9.251,-0.213,-3.494,-9.098,0.048,-4.003,4.34,-4.06,-3.15
,-9.366,-0.182,-3.757,-9.0,-0.132,-4.003,4.97,-3.99,-3.29
,-9.344,0.067,-3.951,-9.091,-0.122,-3.999,5.04,-4.34,-3.57
35132.0,-9.148,-0.055,-3.843,-9.38,-0.467,-2.785,6.79,-5.18,-3.36
,-9.17,-0.017,-3.671,-9.34,-0.586,-2.481,7.42,-5.39,-3.29
,-9.208,-0.12,-3.34,-9.337,-0.653,-2.319,7.49,-5.25,-3.22
,-9.246,-0.337,-2.984,-9.418,-0.644,-2.343,7.28,-4.69,-2.87
35208.0,-9.359,-0.558,-2.544,-9.115,-0.467,-3.216,4.69,1.96,-1.4
,-9.32,-0.371,-2.764,-9.22,-0.617,-3.436,4.48,3.22,-1.05
,-9.289,-0.189,-2.941,-9.191,-0.617,-3.441,3.36,3.92,-1.05
,-9.122,-0.268,-3.132,-9.198,-0.29,-3.616,2.31,4.9,-0.7
35284.0,-9.208,-0.01,-3.723,-9.134,-0.242,-3.877,6.16,7.28,0.28
,-9.196,0.105,-3.8,-9.141,-0.299,-3.733,4.97,7.35,0.14
,-9.098,-0.05,-3.829,-9.273,-0.189,-3.958,3.43,7.28,-0.14
,-9.129,-0.055,-3.905,-9.143,-0.108,-3.97,3.22,7.35,-0.28
35359.0,-9.098,-0.062,-4.02,-9.119,-0.184,-3.944,2.87,6.23,-0.77
,-9.15,-0.163,-4.068,-9.201,-0.101,-4.046,1.19,5.88,-1.19
,-9.072,-0.227,-4.24,-9.177,-0.002,-4.022,0.42,5.6,-1.26
,-9.05,-0.242,-4.061,-9.127,-0.108,-4.027,0.56,5.11,-1.05
35435.0,-9.131,-0.299,-4.078,-9.143,-0.33,-4.063,0.7,2.94,-1.19
,-9.052,-0.33,-4.066,-9.174,-0.311,-3.96,1.4,2.66,-1.19
,-9.019,-0.325,-4.118,-9.165,-0.103,-3.963,2.24,2.31,-1.12
,-9.06,-0.376,-4.13,-9.122,-0.199,-3.881,2.73,2.17,-0.98
35511.0,-9.136,-0.421,-3.783,-9.208,-0.366,-3.594,4.13,0.98,-0.91
,-9.158,-0.44,-3.728,-9.158,-0.438,-3.467,5.04,0.98,-0.56
,-9.206,-0.404,-3.714,-9.191,-0.436,-3.522,5.95,1.12,-0.49
,-9.222,-0.337,-3.707,-9.112,-0.426,-3.532,6.16,1.19,-0.49
35587.0,-9.117,-0.263,-3.518,-9.105,-0.17,-3.855,3.5,2.59,0.14
,-9.201,-0.294,-3.506,-9.146,-0.225,-4.097,2.73,3.08,0.07
,-9.206,-0.179,-3.709,-9.076,-0.206,-4.183,2.31,3.22,0.0
,-9.079,-0.117,-3.81,-8.993,-0.201,-4.238,1.89,3.29,-0.14
35662.0,-9.043,-0.275,-4.156,-9.11,-0.572,-3.855,2.03,1.89,-0.56
,-9.112,-0.395,-4.018,-9.155,-0.495,-3.922,2.73,1.54,-0.49
,-9.057,-0.45,-3.896,-9.139,-0.414,-3.946,3.36,1.33,-0.35
,-9.139,-0.457,-3.905,-9.076,-0.349,-3.934,3.43,1.12,-0.28
35738.0,-9.124,-0.359,-3.893,-9.182,-0.39,-3.826,4.9,0.91,0.28
,-9.081,-0.359,-3.814,-9.167,-0.347,-3.798,5.04,0.84,0.28
,-9.122,-0.392,-3.74,-9.124,-0.306,-3.843,4.62,0.98,0.49
,-9.186,-0.359,-3.766,-9.11,-0.366,-3.934,4.83,0.98,0.49
35814.0,-9.112,-0.309,-3.948,-9.167,-0.388,-3.678,5.46,0.42,0.28
,-9.091,-0.223,-3.987,-9.225,-0.361,-3.613,5.95,0.28,0.28
,-9.095,-0.261,-3.955,-9.227,-0.335,-3.58,5.6,0.21,0.28
,-9.158,-0.278,-3.838,-9.194,-0.359,-3.609,5.53,0.07,0.28
35890.0,-9.201,-0.414,-3.613,-9.177,-0.38,-3.766,3.22,0.63,0.14
,-9.246,-0.397,-3.728,-9.136,-0.376,-3.75,3.15,0.84,0.0
,-9.143,-0.378,-3.759,-9.139,-0.337,-3.79,3.01,1.05,-0.07
,-9.15,-0.371,-3.75,-9.127,-0.27,-3.872,2.8,1.33,0.07
35965.0,-9.174,-0.256,-3.903,-9.208,-0.45,-3.719,3.57,1.33,0.21
,-9.124,-0.23,-3.927,-9.203,-0.431,-3.659,3.43,1.19,0.07
,-9.107,-0.306,-3.877,-9.165,-0.404,-3.613,3.22,1.33,0.07
,-9.11,-0.369,-3.867,-9.165,-0.443,-3.661,3.36,1.33,0.14
36041.0,-9.124,-0.464,-3.63,-9.158,-0.28,-3.857,3.08,2.03,0.42
,-9.165,-0.438,-3.731,-9.081,-0.333,-3.841,3.08,2.24,0.49
,-9.246,-0.354,-3.757,-9.074,-0.39,-3.879,2.87,2.38,0.42
,-9.261,-0.359,-3.833,-9.134,-0.467,-3.867,2.45,2.17,0.28
36116.0,-9.179,-0.428,-3.821,-9.153,-0.335,-3.812,3.64,2.1,0.84
,-9.17,-0.373,-3.831,-9.11,-0.364,-3.886,3.71,1.89,0.7
,-9.148,-0.345,-3.795,-9.131,-0.428,-3.898,3.57,2.03,0.7
,-9.21,-0.313,-3.802,-9.112,-0.474,-3.879,3.36,1.96,0.56
36192.0,-9.129,-0.433,-3.874,-9.134,-0.242,-3.898,4.06,2.03,0.77
,-9.141,-0.306,-3.874,-9.086,-0.342,-3.843,4.34,1.89,0.63
,-9.103,-0.244,-3.841,-9.103,-0.364,-3.829,3.64,1.68,0.49
,-9.153,-0.237,-3.857,-9.098,-0.369,-3.795,2.8,1.54,0.35
36268.0,-9.131,-0.392,-3.735,-9.117,-0.395,-3.824,2.45,1.33,0.42
,-9.179,-0.378,-3.745,-9.186,-0.424,-3.841,2.38,1.47,0.35
,-9.139,-0.369,-3.786,-9.134,-0.45,-3.841,2.1,1.47,0.21
,-9.105,-0.38,-3.774,-9.098,-0.397,-3.841,1.82,1.47,0.14
36344.0,-9.122,-0.436,-3.81,-9.16,-0.457,-3.805,2.1,1.75,0.42
,-9.186,-0.457,-3.695,-9.16,-0.488,-3.829,2.1,1.82,0.35
,-9.155,-0.409,-3.759,-9.1,-0.457,-3.831,2.1,1.89,0.28
,-9.15,-0.337,-3.79,-9.11,-0.409,-3.92,1.54,1.68,0.21
36420.0,-9.115,-0.33,-3.948,-9.098,-0.385,-3.908,2.24,1.47,0.42
,-9.091,-0.34,-4.051,-9.124,-0.39,-3.829,2.24,1.19,0.35
,-9.095,-0.306,-3.967,-9.196,-0.397,-3.759,2.17,1.12,0.49
,-9.069,-0.364,-3.936,-9.174,-0.39,-3.738,2.24,0.91,0.49
36495.0,-9.191,-0.424,-3.659,-9.206,-0.426,-3.642,2.17,0.91,0.56
,-9.17,-0.409,-3.644,-9.194,-0.313,-3.798,2.03,0.91,0.56
,-9.119,-0.479,-3.659,-9.146,-0.28,-3.905,2.1,1.19,0.63
,-9.167,-0.447,-3.632,-9.088,-0.275,-3.946,2.03,1.4,0.7
36571.0,-9.076,-0.39,-3.977,-9.206,-0.335,-3.63,1.61,1.33,0.56
,-9.088,-0.481,-3.922,-9.217,-0.304,-3.69,2.45,1.26,0.7
,-9.11,-0.44,-3.862,-9.141,-0.328,-3.709,3.08,1.12,0.7
,-9.139,-0.376,-3.726,-9.124,-0.392,-3.778,3.15,1.33,0.91
36647.0,-9.093,-0.486,-3.872,-9.177,-0.297,-3.886,1.19,1.68,0.56
,-9.143,-0.512,-3.845,-9.095,-0.33,-3.915,1.75,1.75,0.84
,-9.139,-0.474,-3.798,-9.112,-0.335,-4.056,2.17,1.82,0.77
,-9.115,-0.371,-3.833,-9.074,-0.436,-3.996,2.45,2.03,0.98
36723.0,-8.976,-0.455,-3.927,-9.186,-0.364,-3.687,2.31,0.91,0.7
,-9.105,-0.436,-3.872,-9.155,-0.447,-3.671,3.08,0.91,0.84
,-9.194,-0.392,-3.821,-9.148,-0.385,-3.731,3.29,0.7,0.91
,-9.182,-0.345,-3.738,-9.143,-0.438,-3.788,2.8,0.56,0.7
36798.0,-9.141,-0.4,-3.778,-9.079,-0.366,-3.857,0.91,0.98,0.49
,-9.158,-0.433,-3.788,-9.1,-0.421,-3.845,0.91,1.05,0.63
,-9.182,-0.373,-3.798,-9.117,-0.376,-3.922,0.98,1.12,0.7
,-9.129,-0.313,-3.857,-9.103,-0.474,-3.951,0.77,0.98,0.56
36874.0,-9.093,-0.476,-3.857,-9.203,-0.225,-3.886,1.68,0.49,0.63
,-9.072,-0.474,-3.757,-9.155,-0.323,-3.924,2.31,0.49,0.84
,-9.141,-0.395,-3.79,-9.095,-0.388,-4.018,3.01,0.42,0.91
,-9.201,-0.297,-3.898,-9.06,-0.428,-3.893,3.5,0.28,0.84
36949.0,-9.112,-0.361,-4.085,-9.158,-0.517,-3.589,3.29,-0.35,0.7
,-9.1,-0.347,-3.872,-9.182,-0.412,-3.534,3.64,-0.56,0.7
,-9.162,-0.424,-3.685,-9.189,-0.385,-3.434,3.36,-0.56,0.84
,-9.172,-0.538,-3.592,-9.244,-0.38,-3.47,3.85,-0.49,0.91
37025.0,-9.244,-0.39,-3.463,-9.196,-0.27,-3.443,2.52,0.63,0.98
,-9.172,-0.392,-3.364,-9.201,-0.23,-3.546,2.17,1.05,1.05
,-9.21,-0.39,-3.434,-9.131,-0.246,-3.503,2.31,1.33,1.19
,-9.182,-0.388,-3.441,-9.177,-0.311,-3.467,2.24,1.54,1.05
37101.0,-9.165,-0.333,-3.494,-9.208,-0.309,-3.611,-0.63,2.94,0.84
,-9.222,-0.462,-3.525,-9.253,-0.194,-3.678,-0.91,3.22,0.84
,-9.177,-0.577,-3.496,-9.182,-0.108,-3.781,-0.91,3.64,1.12
,-9.076,-0.421,-3.494,-9.122,-0.189,-3.941,0.21,4.06,1.47
37177.0,-9.091,-0.337,-4.116,-9.048,-0.297,-4.089,-3.29,4.13,0.7
,-9.062,-0.419,-4.159,-9.105,-0.302,-3.891,-2.87,3.78,0.56
,-9.095,-0.397,-4.125,-9.253,-0.251,-3.9,-2.17,3.29,0.56
,-9.179,-0.29,-4.221,-9.258,-0.203,-4.121,-1.75,3.08,0.7
37252.0,-9.124,-0.29,-4.255,-9.148,-0.426,-3.745,-3.71,1.05,0.14
,-8.954,-0.395,-4.082,-9.131,-0.323,-3.604,-3.99,0.84,0.49
,-8.995,-0.512,-3.893,-9.122,-0.306,-3.376,-3.57,0.7,0.7
,-9.036,-0.55,-3.778,-9.107,-0.462,-3.173,-2.45,0.84,0.77
37328.0,-9.189,-0.648,-2.883,-9.06,0.096,-4.13,-4.55,3.08,1.82
,-9.38,-0.57,-2.986,-8.899,-0.189,-3.862,-2.87,3.99,1.96
,-9.38,-0.177,-3.463,-8.916,-0.297,-3.917,-2.17,4.27,1.05
,-9.241,0.16,-3.853,-9.036,-0.354,-3.575,-3.71,4.06,0.28
37404.0,-9.308,0.041,-3.685,-9.143,-0.514,-3.798,0.42,4.34,-0.28
,-9.342,0.526,-4.003,-9.06,-1.0,-3.522,1.12,4.13,-1.47
,-8.976,0.433,-3.685,-9.143,-1.053,-3.441,-1.12,4.06,-1.19
,-9.043,0.105,-3.982,-9.148,-1.039,-2.967,-3.01,4.13,-0.84
37480.0,-9.387,-0.675,-3.149,-8.911,-0.345,-4.092,5.18,7.98,2.24
,-9.244,-0.282,-3.412,-8.873,-0.584,-4.046,2.87,7.98,1.33
,-9.119,-0.282,-3.374,-8.796,-0.835,-4.075,0.07,8.05,1.33
,-9.191,-0.182,-3.999,-8.825,-0.979,-3.687,-4.41,7.63,-0.07
37556.0,-9.052,-0.651,-3.857,-9.182,-0.115,-3.611,0.63,9.31,2.73
,-9.026,-0.27,-3.558,-9.026,-0.428,-4.003,3.29,9.66,2.87
,-9.296,0.036,-3.379,-8.88,-0.811,-4.104,3.64,10.29,3.22
,-9.445,0.187,-3.472,-8.89,-1.0,-4.451,1.54,10.85,3.29
37631.0,-8.784,-1.139,-4.558,-8.947,0.179,-4.219,0.98,11.13,5.74
,-8.689,-0.974,-4.365,-9.076,0.38,-4.152,6.09,11.13,7.14
,-8.646,-0.615,-4.441,-9.139,0.397,-3.733,10.29,11.06,7.77
,-8.815,-0.122,-4.384,-9.253,0.275,-3.867,11.83,10.64,7.56
37707.0,-9.172,0.098,-3.833,-8.82,-0.694,-3.869,-1.68,9.17,3.85
,-9.091,0.136,-3.9,-8.784,-0.914,-3.759,-2.94,9.1,2.94
,-8.969,0.172,-3.963,-8.887,-0.869,-4.011,-4.48,9.73,2.66
,-8.906,-0.27,-3.721,-8.935,-0.708,-3.86,-4.69,10.85,3.15
37782.0,-9.067,-0.526,-4.109,-8.758,0.732,-4.161,10.92,13.86,8.19
,-8.906,-0.335,-4.106,-8.94,0.974,-4.334,11.48,14.63,8.75
,-8.708,-0.168,-4.109,-9.021,1.206,-4.511,11.9,15.61,9.73
,-8.607,0.187,-3.944,-8.926,1.335,-4.688,12.95,16.24,10.01
37858.0,-8.765,1.106,-4.628,-8.811,-0.237,-4.185,2.94,16.59,3.5
,-8.763,0.751,-4.513,-8.658,-0.28,-4.252,2.03,16.52,2.38
,-8.787,0.163,-4.389,-8.607,-0.187,-4.441,2.03,16.8,1.47
,-8.935,-0.156,-4.324,-8.567,-0.263,-4.429,3.57,17.29,0.84
37934.0,-8.61,-0.325,-4.47,-8.686,0.347,-4.807,7.98,19.67,2.03
,-8.686,-0.074,-4.405,-8.626,0.053,-4.8,7.98,19.88,2.03
,-8.784,0.163,-4.704,-8.65,-0.397,-4.786,6.65,19.25,1.47
,-8.658,0.392,-4.779,-8.528,-0.881,-4.781,4.13,18.55,0.98
38010.0,-8.552,-1.022,-4.666,-8.428,-0.043,-5.212,-0.98,19.46,2.17
,-8.557,-0.871,-4.867,-8.275,-0.105,-5.166,3.15,19.6,3.01
,-8.667,-0.637,-5.023,-8.418,-0.464,-5.071,6.79,19.25,3.57
,-8.583,-0.27,-5.118,-8.543,-0.249,-5.044,8.89,18.62,4.41
38085.0,-8.461,0.177,-5.183,-8.629,0.158,-5.315,4.48,17.64,5.11
,-8.466,0.457,-5.171,-8.478,0.045,-5.276,4.55,17.64,4.97
,-8.528,0.486,-5.288,-8.323,-0.165,-5.257,2.52,16.87,4.55
,-8.571,0.4,-5.255,-8.153,-0.268,-4.951,-0.7,16.03,4.06
38161.0,-8.172,-0.172,-5.054,-8.399,0.01,-5.229,1.68,16.94,4.62
,-8.485,0.06,-5.26,-8.282,0.211,-5.437,3.5,16.03,4.34
,-8.629,0.105,-5.453,-8.196,0.12,-5.355,2.59,15.33,4.41
,-8.492,0.005,-5.329,-8.098,0.187,-5.298,1.26,15.75,4.9
38236.0,-8.124,0.369,-5.279,-8.409,1.077,-5.403,-1.47,15.19,4.06
,-8.248,0.694,-5.319,-8.425,1.048,-5.499,-0.35,15.26,3.71
,-8.325,0.739,-5.219,-8.306,0.816,-5.657,0.14,15.33,3.15
,-8.344,0.955,-5.212,-8.16,0.639,-5.717,0.49,15.19,2.24
38312.0,-8.009,0.196,-5.7,-8.019,-1.34,-6.025,-3.36,13.65,-2.1
,-7.992,-0.093,-5.92,-8.1,-1.163,-6.351,-4.48,12.88,-1.12
,-7.875,-0.806,-5.743,-8.083,-1.036,-6.128,-5.18,12.74,0.56
,-7.909,-1.153,-5.946,-8.064,-0.842,-5.958,-3.71,12.81,2.59
38388.0,-8.133,-0.369,-5.784,-8.093,0.663,-5.944,5.6,12.95,4.9
,-8.002,0.208,-6.037,-7.959,0.349,-5.887,5.25,12.74,4.34
,-8.059,0.562,-6.176,-7.985,0.194,-5.779,3.78,12.04,3.99
,-8.184,0.536,-6.056,-8.143,0.218,-5.743,1.47,11.2,4.69
38464.0,-8.064,0.23,-5.8,-7.947,0.235,-6.14,4.2,11.13,3.22
,-8.057,0.077,-5.798,-7.875,0.579,-6.083,5.32,11.48,3.71
