Timestamp,AccX,AccY,AccZ,GyroX,GyroY,GyroZ,MagnX,MagnY,MagnZ
0.0,-9.198,-1.263,-3.568,-9.194,-1.18,-3.553,2.17,1.54,0.63
,-9.158,-1.287,-3.558,-9.184,-1.199,-3.568,2.31,1.47,0.56
,-9.165,-1.304,-3.565,-9.206,-1.266,-3.63,2.8,1.61,0.56
,-9.172,-1.218,-3.542,-9.162,-1.254,-3.673,2.87,1.75,0.7
76.0,-9.148,-1.256,-3.673,-9.148,-1.256,-3.632,2.38,1.75,0.63
,-9.131,-1.194,-3.635,-9.146,-1.271,-3.606,2.45,1.61,0.56
,-9.167,-1.28,-3.628,-9.182,-1.259,-3.664,2.31,1.75,0.63
,-9.162,-1.263,-3.628,-9.146,-1.23,-3.695,2.38,1.75,0.77
152.0,-9.141,-1.268,-3.723,-9.174,-1.168,-3.812,2.17,1.33,0.63
,-9.158,-1.299,-3.728,-9.083,-1.35,-3.546,2.31,1.26,0.63
,-9.112,-1.261,-3.683,-9.165,-1.283,-3.551,2.31,1.05,0.56
,-9.141,-1.213,-3.613,-9.117,-1.256,-3.527,2.52,1.12,0.7
227.0,-9.186,-1.318,-3.551,-9.15,-1.213,-3.549,2.87,0.98,0.98
,-9.165,-1.261,-3.57,-9.15,-1.158,-3.568,3.29,1.26,1.12
,-9.146,-1.237,-3.558,-9.198,-1.201,-3.647,3.71,1.4,1.19
,-9.184,-1.17,-3.58,-9.184,-1.23,-3.64,3.36,1.47,1.05
302.0,-9.115,-1.278,-3.676,-9.148,-1.194,-3.609,1.75,1.26,0.77
,-9.088,-1.287,-3.678,-9.153,-1.251,-3.589,2.38,1.33,0.84
,-9.148,-1.228,-3.62,-9.213,-1.208,-3.58,2.66,1.26,0.84
,-9.182,-1.196,-3.613,-9.158,-1.28,-3.618,2.66,1.26,0.84
378.0,-9.146,-1.244,-3.606,-9.141,-1.242,-3.668,2.31,1.26,0.84
,-9.172,-1.24,-3.606,-9.129,-1.251,-3.659,2.45,1.4,0.98
,-9.186,-1.184,-3.609,-9.182,-1.256,-3.673,2.52,1.4,1.05
,-9.203,-1.184,-3.654,-9.15,-1.225,-3.575,2.24,1.33,0.91
454.0,-9.115,-1.211,-3.53,-9.184,-1.182,-3.644,2.52,1.12,0.91
,-9.136,-1.225,-3.51,-9.201,-1.266,-3.632,2.1,1.19,0.84
,-9.206,-1.216,-3.573,-9.119,-1.268,-3.652,1.61,1.26,0.84
,-9.215,-1.103,-3.601,-9.213,-1.242,-3.75,1.4,1.12,0.77
530.0,-9.191,-1.194,-3.74,-9.196,-1.251,-3.659,2.17,1.05,0.77
,-9.1,-1.247,-3.695,-9.146,-1.237,-3.611,2.38,1.05,0.98
,-9.122,-1.206,-3.664,-9.191,-1.247,-3.618,2.8,1.12,1.05
,-9.167,-1.204,-3.609,-9.189,-1.213,-3.582,3.08,1.05,0.98
605.0,-9.143,-1.216,-3.635,-9.179,-1.165,-3.685,3.01,0.98,0.98
,-9.225,-1.141,-3.609,-9.131,-1.196,-3.685,2.87,0.98,0.84
,-9.174,-1.17,-3.647,-9.141,-1.22,-3.606,2.45,0.77,0.77
,-9.134,-1.247,-3.604,-9.165,-1.302,-3.532,2.45,0.7,0.7
681.0,-9.15,-1.295,-3.472,-9.206,-1.168,-3.527,3.15,0.98,0.91
,-9.244,-1.249,-3.475,-9.158,-1.187,-3.601,3.36,0.98,0.84
,-9.225,-1.163,-3.482,-9.136,-1.242,-3.63,2.94,0.77,0.7
,-9.215,-1.122,-3.532,-9.167,-1.271,-3.597,2.38,0.98,0.63
757.0,-9.198,-1.223,-3.654,-9.162,-1.237,-3.604,2.73,1.26,0.84
,-9.134,-1.268,-3.635,-9.165,-1.213,-3.594,2.59,1.33,0.84
,-9.167,-1.273,-3.62,-9.162,-1.184,-3.565,2.59,1.12,0.77
,-9.179,-1.263,-3.637,-9.139,-1.204,-3.542,2.66,1.05,0.7
833.0,-9.162,-1.232,-3.527,-9.11,-1.235,-3.625,2.59,1.12,0.84
,-9.162,-1.22,-3.565,-9.148,-1.297,-3.673,2.52,1.12,0.84
,-9.174,-1.23,-3.539,-9.117,-1.263,-3.616,2.59,1.19,0.77
,-9.234,-1.187,-3.666,-9.127,-1.18,-3.594,2.52,1.05,0.7
909.0,-9.21,-1.098,-3.568,-9.177,-1.194,-3.491,2.73,1.12,0.77
,-9.141,-1.158,-3.508,-9.198,-1.228,-3.506,2.52,1.05,0.77
,-9.186,-1.151,-3.453,-9.134,-1.259,-3.503,2.17,1.12,0.63
,-9.217,-1.247,-3.429,-9.155,-1.242,-3.525,2.03,1.19,0.56
984.0,-9.165,-1.232,-3.549,-9.174,-1.204,-3.628,0.84,1.68,0.35
,-9.177,-1.177,-3.551,-9.15,-1.28,-3.606,0.7,1.54,0.21
,-9.229,-1.065,-3.589,-9.167,-1.211,-3.676,0.56,1.47,0.07
,-9.177,-1.122,-3.558,-9.17,-1.218,-3.704,0.14,1.4,0.07
1060.0,-9.119,-1.295,-3.735,-9.141,-1.189,-3.661,-1.05,0.49,-0.28
,-9.141,-1.316,-3.714,-9.186,-1.23,-3.582,-0.77,0.35,-0.21
,-9.064,-1.307,-3.802,-9.167,-1.232,-3.506,-0.14,0.14,-0.21
,-9.119,-1.259,-3.711,-9.158,-1.292,-3.446,0.63,0.07,-0.07
1135.0,-9.179,-1.359,-3.542,-9.256,-1.316,-3.479,1.26,-0.14,0.35
,-9.15,-1.225,-3.508,-9.273,-1.24,-3.563,1.54,-0.21,0.49
,-9.158,-1.388,-3.46,-9.201,-1.182,-3.661,1.4,0.0,0.7
,-9.146,-1.405,-3.388,-9.127,-1.304,-3.699,2.17,0.14,0.91
1211.0,-9.172,-1.187,-3.654,-9.335,-1.103,-3.398,2.59,0.0,1.4
,-9.165,-1.256,-3.546,-9.296,-1.134,-3.563,2.73,0.0,1.47
,-9.239,-1.251,-3.376,-9.139,-1.247,-3.714,2.52,0.21,1.54
,-9.208,-1.235,-3.202,-9.024,-1.333,-3.752,2.24,0.49,1.54
1287.0,-9.127,-1.364,-3.721,-9.122,-1.146,-3.441,0.21,-0.07,1.54
,-9.158,-1.254,-3.601,-9.158,-1.299,-3.295,1.47,0.14,1.82
,-9.28,-1.11,-3.63,-9.148,-1.345,-3.168,1.82,-0.07,1.96
,-9.186,-1.065,-3.515,-9.277,-1.268,-3.142,0.91,-0.56,1.82
1363.0,-9.27,-1.218,-3.247,-8.966,-1.436,-3.671,-1.19,0.21,2.1
,-9.251,-1.149,-3.357,-9.06,-1.378,-3.553,-1.96,0.14,2.03
,-9.213,-1.187,-3.601,-9.076,-1.211,-3.484,-2.94,0.0,2.03
,-9.117,-1.34,-3.652,-9.213,-1.079,-3.47,-2.94,0.07,2.31
1438.0,-9.112,-1.192,-3.278,-9.318,-0.869,-3.314,2.52,1.61,4.06
,-9.179,-1.192,-3.087,-9.122,-1.062,-3.436,3.29,2.24,4.41
,-9.244,-1.041,-2.836,-9.129,-1.259,-3.577,3.43,2.66,4.13
,-9.368,-0.854,-2.867,-9.086,-1.646,-3.53,2.38,2.94,3.57
1514.0,-9.206,-1.721,-3.51,-9.019,-1.251,-3.805,-2.73,4.13,4.27
,-9.225,-1.417,-3.46,-9.261,-1.374,-3.838,2.24,4.62,4.97
,-9.268,-0.96,-3.85,-9.256,-1.031,-3.632,4.76,3.57,5.18
,-8.993,-0.94,-3.948,-9.275,-0.407,-3.367,2.38,2.73,5.18
1589.0,-9.095,-0.201,-3.74,-9.27,-1.079,-3.577,4.83,2.03,1.96
,-8.933,-0.065,-3.606,-9.301,-1.936,-3.307,0.7,1.19,1.68
,-9.206,-0.086,-4.075,-8.928,-2.522,-2.563,-3.64,-0.84,0.84
,-9.048,-0.493,-3.975,-9.088,-2.221,-2.079,-7.49,-1.68,-0.07
1665.0,-9.186,-1.773,-1.953,-9.294,0.522,-3.408,9.66,7.21,3.36
,-9.306,-1.29,-1.936,-9.112,0.823,-3.759,14.56,9.38,4.2
,-9.411,-0.514,-1.986,-8.938,0.012,-3.436,17.29,11.13,4.62
,-9.485,0.041,-2.709,-9.428,-0.687,-2.793,15.12,10.85,4.2
1741.0,-9.713,-0.668,-1.945,-8.799,0.282,-3.336,-0.84,12.25,-3.78
,-9.864,0.038,-2.197,-8.981,0.072,-3.331,1.75,11.97,-5.81
,-9.474,0.51,-2.45,-8.873,-0.27,-3.68,-2.03,11.34,-7.35
,-9.311,0.581,-2.984,-8.801,-0.471,-3.965,-9.17,10.36,-7.91
1817.0,-8.722,-0.742,-4.044,-9.641,-2.828,-2.678,-16.24,14.7,-12.95
,-8.485,-1.46,-3.821,-9.354,-1.91,-3.025,-17.99,15.47,-12.18
,-8.603,-2.649,-3.384,-8.758,-0.921,-3.917,-17.85,17.43,-10.85
,-8.818,-3.276,-2.814,-8.16,-0.589,-4.618,-14.0,19.11,-9.87
1893.0,-8.423,-0.514,-4.733,-9.033,-0.768,-4.829,-10.15,15.33,-5.25
,-8.595,-0.598,-4.573,-8.557,-1.012,-4.944,-11.41,17.36,-5.32
,-9.076,-0.737,-4.314,-8.631,-1.426,-4.489,-9.87,18.97,-6.44
,-9.308,-0.809,-4.147,-8.921,-1.981,-4.044,-7.14,18.62,-7.91
1968.0,-9.036,-2.02,-3.869,-8.899,-0.146,-4.843,0.35,16.31,-5.18
,-8.825,-1.704,-4.07,-8.784,-0.366,-4.898,4.13,17.5,-4.62
,-9.036,-1.134,-4.02,-8.502,-0.854,-4.819,4.9,17.85,-4.27
,-8.954,-0.371,-4.331,-8.88,-1.271,-4.29,3.43,16.73,-4.62
2044.0,-9.038,-1.302,-4.853,-8.217,-2.69,-4.776,-9.1,11.83,-7.63
,-8.832,-1.536,-5.047,-8.409,-3.075,-4.362,-9.94,8.47,-6.72
,-8.495,-1.833,-5.032,-8.538,-2.97,-4.113,-10.43,6.44,-5.81
,-8.311,-2.182,-4.946,-8.739,-2.577,-4.104,-11.48,5.95,-5.04
2120.0,-8.976,-2.079,-3.972,-9.038,-1.168,-5.042,-0.63,10.92,3.99
,-8.378,-1.491,-4.748,-9.11,-1.077,-5.039,-2.24,9.31,4.9
,-8.267,-1.091,-4.743,-8.995,-0.73,-4.98,-3.85,10.22,4.9
,-8.603,-1.242,-4.925,-8.595,-0.383,-5.111,-4.97,11.06,4.69
2196.0,-8.39,-0.596,-5.018,-8.509,-1.735,-4.913,1.12,9.31,0.49
,-8.813,-0.555,-5.068,-8.782,-2.23,-4.793,2.24,8.75,0.07
,-9.083,-0.457,-5.396,-8.751,-2.362,-4.915,0.98,5.74,0.35
,-8.748,-1.048,-5.281,-8.641,-2.008,-4.702,-1.4,5.81,0.21
2271.0,-8.593,-1.527,-4.436,-9.119,-0.345,-4.642,8.19,6.23,4.27
,-8.43,-1.022,-4.75,-8.878,-0.78,-4.874,8.05,5.6,4.34
,-8.342,-0.601,-4.767,-8.705,-0.168,-5.516,6.23,6.02,3.64
,-8.88,-0.443,-4.731,-9.143,0.445,-5.444,4.76,6.79,2.52
2347.0,-8.78,0.426,-5.351,-8.77,-3.345,-4.02,7.56,1.54,-6.72
,-8.318,-0.163,-4.949,-8.847,-3.46,-4.032,3.15,1.89,-5.6
,-8.129,-1.582,-4.676,-9.009,-2.962,-4.257,-2.1,2.66,-3.29
,-8.191,-2.709,-4.484,-8.509,-2.163,-4.788,-3.5,4.06,-1.33
2422.0,-8.473,-1.553,-5.106,-8.799,-0.105,-5.425,9.73,4.27,4.27
,-8.459,-0.986,-5.334,-8.536,-0.459,-5.281,8.82,4.48,4.83
,-8.593,-0.553,-5.224,-8.612,-0.699,-5.054,8.4,5.04,4.97
,-8.849,-0.16,-5.293,-8.854,-0.33,-5.183,7.28,5.32,4.34
2498.0,-9.04,-0.491,-5.257,-8.672,-1.086,-5.097,9.45,3.15,0.07
,-9.095,-0.665,-4.848,-8.234,-1.029,-5.066,10.15,2.59,-0.98
,-8.835,-0.96,-4.987,-7.631,-1.895,-4.963,10.43,1.82,-1.96
,-8.758,-1.28,-5.264,-7.966,-2.764,-4.901,11.27,1.68,-2.87
2574.0,-8.636,-2.69,-4.573,-8.569,-2.694,-3.886,1.54,3.92,2.17
,-8.806,-2.441,-4.604,-8.543,-2.429,-3.872,1.4,3.64,4.13
,-8.059,-2.778,-8.727,-8.581,-1.838,-4.185,-25.62,-5.46,17.78
,-9.155,-2.271,-4.901,-8.782,-1.24,-4.633,-15.75,2.24,10.15
2650.0,-8.71,-0.646,-5.068,-8.449,-0.644,-5.298,8.54,7.14,7.98
,-8.646,-0.282,-5.319,-8.729,-0.684,-5.035,7.56,7.21,7.49
,-8.698,-0.273,-5.279,-8.622,-0.775,-5.152,5.74,7.0,6.93
,-8.497,-0.4,-5.231,-8.691,-1.05,-5.15,4.2,6.65,6.58
2726.0,-8.832,-1.261,-5.162,-8.143,-1.067,-5.207,5.67,6.16,4.13
,-8.854,-1.34,-5.099,-8.035,-1.414,-5.178,7.28,6.23,3.57
,-8.923,-1.299,-5.08,-8.133,-1.527,-5.154,8.12,5.46,3.15
,-8.409,-1.027,-5.327,-8.808,-1.292,-4.836,8.19,4.48,2.94
2801.0,-9.024,-1.012,-4.731,-8.686,-0.512,-5.274,7.42,5.67,1.68
,-8.708,-0.641,-4.972,-8.815,-0.294,-5.229,7.35,4.62,1.12
,-8.471,-0.325,-5.056,-8.598,-0.16,-5.152,5.6,4.27,0.7
,-8.476,-0.304,-5.363,-8.37,-0.187,-5.293,3.15,4.69,0.21
2877.0,-8.514,-0.572,-5.138,-8.492,-1.541,-5.207,-2.94,4.76,-3.78
,-8.648,-1.098,-4.934,-8.892,-1.318,-5.19,-3.5,5.39,-3.92
,-8.818,-1.35,-4.834,-8.973,-1.058,-5.214,-3.43,5.32,-3.57
,-8.619,-1.441,-4.96,-8.65,-0.943,-5.303,-2.45,5.04,-2.87
2953.0,-8.373,-1.01,-4.951,-8.586,-1.61,-5.145,-5.11,2.59,-2.87
,-8.39,-1.132,-5.042,-8.504,-1.577,-5.138,-8.26,1.4,-2.31
,-8.483,-1.347,-5.224,-8.404,-1.632,-5.3,-10.22,0.7,-1.82
,-8.643,-1.472,-5.233,-8.449,-1.764,-5.236,-10.22,0.98,-1.54
3029.0,-8.543,-1.74,-5.331,-8.378,-1.967,-5.329,-7.35,0.7,2.03
,-8.603,-1.929,-5.296,-8.284,-2.134,-5.37,-7.21,0.91,2.59
,-8.753,-1.986,-5.2,-8.337,-2.261,-5.446,-6.16,0.91,2.8
,-8.78,-1.876,-5.145,-8.495,-2.063,-5.487,-5.11,-0.14,3.57
3104.0,-8.648,-1.84,-5.473,-8.277,-0.782,-5.53,6.16,0.0,9.31
,-8.744,-1.484,-5.432,-8.066,-0.821,-5.748,9.59,0.49,9.59
,-8.681,-1.084,-5.492,-8.402,-0.928,-5.635,10.22,0.07,9.73
,-8.614,-0.857,-5.269,-8.734,-0.955,-5.377,7.7,-1.05,9.94
3180.0,-8.646,-1.029,-5.358,-8.157,-0.395,-5.327,6.44,-4.69,7.98
,-8.581,-1.115,-4.972,-8.488,-0.55,-5.042,7.21,-4.62,7.77
,-8.641,-0.794,-5.047,-8.768,-0.763,-4.81,8.89,-6.37,8.26
,-8.299,-0.455,-5.25,-8.734,-0.998,-4.635,8.75,-8.47,8.19
3255.0,-8.701,-1.05,-4.688,-8.287,-0.715,-5.157,8.96,-4.41,6.16
,-8.76,-1.079,-4.85,-8.638,-0.902,-4.606,13.3,-2.59,5.53
,-8.902,-0.833,-4.841,-8.37,-0.56,-4.824,17.15,-1.4,4.97
,-8.634,-0.579,-5.051,-8.303,-0.263,-5.078,17.99,-1.89,5.18
3331.0,-8.76,-0.828,-5.104,-8.263,-0.895,-5.379,6.72,-9.17,4.2
,-8.983,-0.692,-4.764,-8.382,-0.931,-5.315,3.99,-9.87,4.34
,-8.76,-0.694,-4.994,-8.622,-0.816,-5.14,4.97,-10.01,4.83
,-8.476,-0.766,-5.305,-8.801,-0.677,-4.992,6.65,-9.17,4.55
3407.0,-8.727,-0.572,-4.834,-8.765,-1.168,-4.781,12.74,-5.53,3.01
,-8.677,-0.507,-4.905,-8.756,-1.115,-4.69,10.85,-6.72,3.15
,-8.641,-0.778,-5.02,-8.715,-0.931,-4.649,7.91,-8.12,3.57
,-8.768,-0.912,-4.972,-8.861,-0.66,-4.551,6.02,-8.82,4.06
3483.0,-8.894,-0.629,-4.518,-8.617,-0.988,-4.214,7.49,-11.76,2.87
,-8.799,-0.754,-4.415,-8.693,-0.809,-4.046,5.25,-12.46,2.73
,-8.746,-0.909,-4.286,-9.007,-0.498,-4.228,4.2,-12.6,2.87
,-8.574,-1.0,-4.13,-8.837,-0.447,-4.113,4.76,-12.32,3.29
3558.0,-8.777,-0.593,-4.008,-9.05,-0.677,-3.685,6.23,-13.58,2.1
,-8.782,-0.684,-3.642,-9.0,-0.747,-3.869,5.88,-13.02,1.33
,-8.775,-0.737,-3.69,-8.794,-0.926,-3.817,5.11,-13.58,0.49
,-8.832,-0.732,-3.599,-8.756,-0.909,-3.625,3.85,-13.79,0.28
3634.0,-8.813,-0.912,-3.52,-9.098,-1.113,-3.862,2.66,-11.9,-0.98
,-8.899,-0.857,-3.884,-9.119,-1.144,-4.087,1.82,-12.88,-0.98
,-8.933,-0.713,-4.058,-8.808,-1.027,-4.427,-0.28,-13.58,-0.49
,-9.139,-0.991,-4.001,-8.839,-0.644,-4.535,-1.96,-12.74,0.14
3710.0,-8.964,-0.546,-4.635,-9.399,-1.11,-4.113,6.16,-14.14,-0.56
,-9.043,-0.61,-4.635,-9.136,-1.094,-4.513,6.09,-14.49,-1.05
,-9.225,-0.67,-4.678,-9.06,-0.916,-4.168,5.6,-15.26,-1.68
,-9.028,-0.986,-4.168,-8.825,-0.708,-4.089,4.76,-15.54,-2.17
3786.0,-8.799,-1.01,-3.896,-9.1,-0.498,-3.374,-3.78,-22.19,-3.29
,-8.942,-1.039,-3.273,-9.076,-0.72,-3.135,-0.91,-20.51,-3.85
,-9.225,-0.644,-3.29,-9.086,-0.869,-3.037,1.47,-19.95,-4.41
,-9.081,-0.436,-3.195,-9.33,-1.039,-3.075,2.17,-18.9,-4.69
3862.0,-9.301,-0.859,-2.9,-9.04,-1.807,-2.96,5.81,-14.84,-3.99
,-9.268,-0.799,-3.013,-8.861,-1.788,-2.687,3.92,-15.12,-3.99
,-9.009,-1.039,-2.869,-9.155,-1.689,-2.807,0.84,-14.14,-3.85
,-9.146,-1.362,-2.807,-9.179,-1.651,-2.886,-0.28,-12.39,-3.5
3937.0,-9.232,-1.445,-2.757,-9.507,-0.744,-3.527,12.39,-5.11,0.42
,-9.435,-1.189,-3.029,-9.249,-0.916,-3.659,14.91,-4.06,1.19
,-9.227,-1.058,-3.051,-9.249,-1.074,-3.652,16.1,-3.43,1.68
,-9.38,-0.84,-3.084,-9.227,-1.074,-3.841,17.5,-3.01,1.89
4013.0,-9.34,-1.182,-4.011,-9.148,-1.474,-2.572,6.09,-8.19,0.42
,-9.284,-1.137,-3.979,-9.576,-1.412,-2.568,4.97,-9.87,-0.07
,-9.019,-0.962,-3.587,-9.6,-1.249,-2.773,3.64,-10.78,-0.21
,-9.06,-1.053,-3.297,-9.371,-0.799,-2.967,1.33,-10.78,-0.21
4088.0,-9.241,-0.861,-2.934,-9.328,-1.388,-2.434,-4.13,-12.18,-0.28
,-9.265,-0.981,-2.814,-9.399,-1.577,-2.283,-6.16,-12.04,-0.56
,-9.167,-1.101,-2.943,-9.497,-1.39,-2.209,-7.56,-11.69,-0.77
,-9.158,-1.213,-2.632,-9.555,-1.082,-2.345,-7.14,-10.29,-0.49
4164.0,-9.653,-0.751,-2.709,-9.186,-1.687,-2.187,3.92,-4.9,1.26
,-9.43,-0.802,-3.135,-9.38,-1.388,-2.022,0.98,-5.81,0.98
,-9.086,-1.182,-3.218,-9.629,-0.9,-1.823,-1.96,-5.67,1.12
,-8.954,-1.57,-2.771,-9.722,-0.72,-1.962,-1.12,-4.13,1.61
4240.0,-9.536,-0.95,-1.831,-9.541,-0.948,-2.036,4.48,1.89,2.66
,-9.447,-1.156,-1.646,-9.732,-0.747,-2.694,3.71,3.36,2.94
,-9.373,-1.211,-1.517,-9.713,-0.663,-3.498,5.67,5.6,3.22
,-9.411,-1.182,-1.677,-9.392,-0.677,-3.996,7.84,7.49,3.36
4316.0,-9.115,-1.031,-4.338,-9.416,-1.091,-4.216,-1.47,3.85,1.96
,-9.014,-1.412,-4.372,-9.399,-0.842,-3.934,-1.96,3.36,1.96
,-9.103,-1.323,-4.439,-9.275,-1.01,-3.58,0.28,2.59,1.89
,-9.249,-1.302,-4.283,-9.222,-1.129,-3.116,2.17,1.47,1.89
4391.0,-9.292,-1.251,-2.711,-9.552,-0.759,-2.166,1.75,-0.91,1.82
,-9.519,-1.158,-2.441,-9.521,-0.723,-2.393,2.66,-0.7,1.82
,-9.531,-0.852,-2.402,-9.421,-0.739,-2.749,1.96,-1.12,1.4
,-9.526,-0.797,-2.163,-9.344,-0.933,-3.044,0.7,-0.28,1.12
4467.0,-9.263,-1.122,-3.156,-9.488,-0.443,-3.403,-1.26,2.45,0.49
,-9.28,-1.22,-3.137,-9.313,-0.584,-3.496,1.26,3.15,0.77
,-9.342,-1.07,-3.137,-9.249,-1.086,-3.343,4.55,3.99,1.12
,-9.631,-0.914,-3.262,-9.241,-1.24,-3.18,6.23,3.5,1.05
4543.0,-9.39,-1.414,-2.996,-9.548,-0.849,-2.84,0.42,0.14,0.21
,-9.447,-1.397,-2.833,-9.351,-0.852,-2.73,3.08,0.56,0.42
,-9.426,-1.158,-2.716,-9.33,-0.948,-2.828,4.76,0.77,0.42
,-9.517,-0.952,-2.682,-9.342,-1.091,-2.912,5.32,1.19,0.49
4619.0,-9.363,-1.151,-2.96,-9.27,-0.983,-2.967,3.29,2.31,0.49
,-9.371,-1.115,-3.053,-9.282,-1.06,-2.804,3.36,2.45,0.63
,-9.435,-1.146,-2.962,-9.435,-1.005,-2.754,2.94,2.17,0.63
,-9.356,-1.017,-2.946,-9.61,-0.857,-2.776,2.1,1.82,0.56
4695.0,-9.435,-0.677,-2.85,-9.399,-1.036,-2.656,-3.22,1.61,-0.35
,-9.373,-0.759,-2.778,-9.438,-1.034,-2.776,-4.9,1.96,-0.7
,-9.337,-0.983,-2.797,-9.495,-0.979,-2.893,-5.25,2.45,-0.91
,-9.347,-1.029,-2.697,-9.402,-1.079,-3.056,-3.78,3.57,-0.7
4770.0,-9.306,-1.144,-3.163,-9.244,-1.003,-3.247,-1.54,5.53,-0.42
,-9.347,-1.153,-3.206,-9.318,-0.869,-3.314,-0.07,5.67,-0.28
,-9.359,-1.17,-3.293,-9.373,-0.945,-3.211,0.63,5.74,-0.28
,-9.371,-1.134,-3.3,-9.435,-0.993,-3.034,0.28,5.25,-0.21
4846.0,-9.335,-0.957,-2.986,-9.33,-1.055,-3.47,-2.66,4.48,-0.49
,-9.442,-1.01,-3.022,-9.241,-1.132,-3.527,-2.17,4.76,-0.56
,-9.45,-1.007,-3.139,-9.17,-1.194,-3.453,-1.4,4.9,-0.63
,-9.39,-0.957,-3.324,-9.356,-1.196,-3.367,-1.05,4.83,-0.49
4921.0,-9.294,-1.137,-3.288,-9.337,-0.842,-2.989,1.05,4.55,0.21
,-9.32,-1.137,-3.058,-9.316,-0.998,-2.874,0.98,4.48,0.14
,-9.493,-1.05,-3.034,-9.33,-1.082,-2.797,1.47,3.99,0.14
,-9.483,-0.897,-3.027,-9.402,-1.151,-3.003,0.56,3.22,0.07
4997.0,-9.265,-1.316,-3.005,-9.22,-1.232,-2.742,-2.66,4.97,0.07
,-9.284,-1.295,-3.106,-9.45,-1.048,-2.757,-1.54,5.18,0.35
,-9.225,-1.24,-3.063,-9.454,-0.713,-2.871,-0.7,5.18,0.56
,-9.167,-1.201,-2.965,-9.375,-0.584,-3.23,0.07,5.81,1.05
5073.0,-9.256,-0.794,-3.34,-9.332,-1.39,-3.139,-1.61,6.44,0.63
,-9.237,-1.067,-3.259,-9.447,-0.895,-2.895,-3.01,7.0,0.77
,-9.153,-1.405,-3.12,-9.667,-0.223,-3.453,-3.01,8.05,1.19
,-9.217,-1.539,-2.922,-9.182,-0.299,-3.838,-0.42,9.31,1.96
5149.0,-9.067,-0.558,-3.69,-9.548,-0.89,-2.446,-11.13,4.34,0.0
,-8.94,-1.091,-3.223,-9.686,-0.536,-2.74,-13.44,5.81,0.07
,-8.957,-1.448,-2.589,-9.433,-0.675,-2.67,-10.92,8.68,0.42
,-9.471,-1.271,-2.431,-9.241,-0.919,-2.927,-5.88,10.57,0.56
5224.0,-9.131,-1.206,-2.678,-8.964,-0.73,-2.637,-18.48,8.19,-0.63
,-9.148,-0.969,-2.627,-9.452,-0.873,-2.91,-14.98,8.61,-0.49
,-9.014,-0.531,-2.845,-9.198,-1.232,-3.888,-12.88,8.96,-0.56
,-9.095,-0.433,-2.828,-8.926,-1.33,-4.235,-13.37,10.71,-0.56
5300.0,-8.863,-1.57,-4.901,-9.237,-0.933,-2.331,-10.78,11.13,1.89
,-8.26,-1.632,-4.826,-9.402,-0.644,-2.589,-7.84,11.41,2.8
,-8.854,-1.366,-4.156,-9.471,-0.814,-2.979,-2.52,13.93,3.43
,-9.277,-1.314,-3.357,-9.282,-1.005,-3.592,1.47,15.54,3.64
5376.0,-8.804,-1.584,-4.532,-9.201,-0.27,-3.297,-3.78,10.99,3.99
,-8.61,-1.993,-4.556,-9.33,0.529,-3.295,-1.47,12.46,5.11
,-8.564,-1.862,-4.13,-9.466,0.634,-3.427,6.79,15.89,5.67
,-8.672,-1.211,-3.707,-9.273,0.077,-3.017,15.61,19.32,5.39
5452.0,-9.201,-0.474,-3.388,-8.536,-0.034,-4.98,4.97,19.88,1.82
,-8.722,-0.57,-3.62,-8.674,-0.648,-4.427,6.86,19.11,0.77
,-9.514,0.036,-3.989,-8.679,-0.854,-4.233,9.45,16.17,-0.7
,-9.201,0.273,-5.008,-8.861,-0.995,-3.757,5.25,11.2,-1.82
5527.0,-8.792,-1.553,-3.573,-9.837,-0.826,-3.58,-2.03,17.57,-4.06
,-8.679,-2.194,-3.314,-9.22,0.124,-4.877,-2.24,20.23,-2.38
,-8.801,-2.548,-3.137,-8.713,0.4,-5.559,2.1,23.59,-0.56
,-9.495,-2.103,-2.876,-8.502,0.105,-5.554,11.2,24.64,0.0
5603.0,-8.038,-0.656,-5.236,-9.351,-1.821,-3.958,-9.1,17.15,-1.68
,-7.988,-1.168,-4.848,-9.093,-2.254,-3.853,-7.98,18.41,-2.73
,-8.658,-1.553,-4.35,-8.507,-2.213,-4.003,-4.83,18.76,-3.15
,-9.282,-1.632,-4.051,-8.275,-1.725,-4.245,-1.47,16.8,-2.03
5679.0,-8.605,-1.132,-4.884,-8.291,0.012,-5.683,10.57,17.64,2.73
,-8.949,-0.639,-5.296,-8.469,0.268,-5.317,8.26,16.87,4.2
,-8.961,-0.409,-5.607,-8.502,0.352,-5.339,4.27,16.52,5.53
,-8.459,-0.187,-5.815,-8.997,0.072,-5.083,1.82,16.38,4.97
5754.0,-9.438,-0.67,-4.597,-8.586,-1.725,-4.623,-3.29,10.64,-2.03
,-8.995,-1.388,-4.432,-8.488,-1.859,-4.74,-2.94,9.66,-2.17
,-8.794,-1.627,-4.36,-8.433,-2.094,-4.783,0.84,8.47,-2.59
,-8.559,-1.572,-4.587,-8.409,-1.95,-4.767,2.94,7.07,-2.66
5830.0,-8.346,-1.371,-4.803,-8.756,-0.914,-4.934,-1.54,7.49,2.87
,-8.308,-0.94,-4.767,-8.667,-1.249,-4.731,-1.89,7.63,3.01
,-8.569,-0.684,-4.657,-8.772,-1.216,-4.628,-3.15,8.54,3.64
,-8.856,-0.641,-4.736,-8.588,-0.845,-4.652,-6.09,8.26,4.69
5906.0,-8.533,-0.447,-5.085,-8.717,0.67,-5.8,4.2,6.58,5.18
,-8.603,-0.215,-5.384,-8.497,0.321,-5.219,4.62,6.86,4.13
,-8.648,0.33,-5.784,-8.591,-0.357,-4.712,5.25,6.51,2.24
,-8.775,0.637,-6.013,-8.995,-0.718,-4.609,4.06,6.3,0.07
5982.0,-8.772,-0.67,-5.013,-8.646,-1.445,-4.774,3.08,6.16,-5.53
,-9.076,-0.534,-4.745,-8.488,-2.041,-4.688,6.93,5.88,-6.79
,-8.902,-0.699,-4.628,-8.354,-1.661,-4.956,7.7,5.25,-7.56
,-8.928,-1.17,-4.549,-8.081,-1.412,-5.351,6.65,4.97,-7.14
6057.0,-7.935,-1.354,-5.439,-8.945,-1.79,-5.068,6.3,6.23,-2.66
,-7.935,-1.498,-5.382,-8.715,-1.505,-5.296,3.92,6.65,-0.42
,-8.44,-1.953,-5.24,-8.76,-1.015,-5.394,2.94,7.0,1.12
,-8.835,-1.905,-4.987,-8.607,-0.45,-5.554,4.13,6.16,2.24
6133.0,-8.514,-0.297,-5.757,-8.263,-0.828,-5.676,12.11,4.2,1.54
,-8.629,-0.151,-5.762,-8.291,-1.352,-5.401,11.13,3.78,0.63
,-8.698,-0.132,-5.757,-8.368,-1.766,-5.566,9.52,3.08,0.28
,-8.394,-0.421,-5.793,-8.344,-1.926,-5.707,8.33,2.1,-0.07
6209.0,-8.528,-2.022,-5.458,-8.495,-1.811,-4.681,12.6,1.05,2.94
,-8.947,-2.292,-4.666,-8.49,-1.335,-5.097,12.11,1.54,3.64
,-8.856,-2.355,-4.374,-8.303,-0.782,-5.315,11.55,1.12,4.62
,-8.473,-2.103,-4.702,-8.344,-0.282,-5.47,11.9,1.12,5.53
6285.0,-8.361,-0.017,-5.25,-8.641,-1.627,-4.499,6.86,1.4,5.81
,-8.38,-0.364,-5.159,-8.72,-1.397,-4.432,3.57,0.77,6.37
,-8.402,-0.991,-4.989,-8.847,-0.759,-4.671,1.82,0.84,6.93
,-8.705,-1.445,-4.788,-8.581,-0.534,-4.731,2.03,1.19,7.35
6360.0,-8.538,-0.586,-4.752,-8.614,-0.916,-4.898,5.11,2.8,5.67
,-8.504,-0.534,-4.815,-8.464,-1.106,-4.893,4.62,3.64,5.25
,-8.5,-0.486,-4.927,-8.37,-1.335,-4.953,4.2,4.06,4.55
,-8.646,-0.696,-5.006,-8.181,-1.419,-4.92,2.66,3.85,3.57
6436.0,-8.313,-1.278,-4.977,-8.567,-0.079,-5.731,3.85,6.02,4.48
,-8.789,-0.826,-5.262,-8.686,-0.132,-5.702,4.9,6.44,3.57
,-8.737,-0.443,-5.413,-8.71,-0.428,-5.621,4.97,5.53,2.52
,-8.404,-0.191,-5.587,-8.574,-0.72,-5.272,4.48,5.18,1.33
6511.0,-8.256,-1.082,-4.941,-8.686,-1.067,-5.355,0.77,4.97,-1.12
,-8.098,-1.084,-5.085,-8.741,-1.015,-5.461,1.12,5.11,-0.7
,-8.349,-1.05,-5.008,-8.648,-1.12,-5.197,-0.21,5.46,-0.42
,-8.725,-1.108,-5.154,-8.399,-1.295,-5.212,-2.03,5.11,-0.42
6587.0,-8.545,-1.184,-5.269,-8.677,-0.751,-5.341,-4.48,3.85,0.14
,-8.471,-0.995,-5.365,-8.638,-0.766,-5.403,-4.34,3.57,0.56
,-8.356,-0.766,-5.499,-8.492,-0.73,-5.434,-5.11,3.15,0.56
,-8.586,-0.739,-5.406,-8.457,-0.811,-5.525,-5.95,3.29,0.42
6663.0,-8.643,-0.861,-5.506,-8.385,-1.23,-5.406,-5.11,2.38,-0.28
,-8.806,-0.857,-5.609,-8.277,-1.524,-5.396,-4.13,2.45,-0.7
,-8.789,-0.94,-5.456,-8.337,-1.783,-5.394,-4.27,2.45,-0.77
,-8.693,-0.948,-5.418,-8.397,-1.821,-5.48,-4.62,1.82,-0.56
6739.0,-8.37,-1.785,-5.609,-8.081,-1.397,-5.386,-2.87,0.07,5.11
,-8.478,-1.759,-5.631,-8.028,-1.091,-5.351,-2.87,-0.56,6.16
,-8.421,-1.826,-5.458,-8.27,-0.933,-5.451,-2.1,-1.33,7.21
,-8.442,-1.699,-5.24,-8.729,-0.995,-5.432,-1.54,-2.31,8.12
6815.0,-8.88,-0.95,-5.396,-8.521,-0.479,-5.071,-0.42,-5.04,10.5
,-8.624,-1.036,-5.322,-8.435,-0.165,-5.255,1.33,-4.69,9.94
,-8.502,-1.022,-5.286,-8.44,0.103,-5.43,3.85,-3.99,9.52
,-8.461,-0.78,-5.183,-8.689,0.323,-5.425,7.42,-3.64,9.17
6890.0,-8.612,0.28,-5.231,-8.674,-0.11,-4.903,5.95,-6.72,4.34
,-8.564,0.096,-5.262,-8.906,-0.23,-4.666,4.55,-5.53,2.38
,-8.643,0.019,-5.025,-8.799,-0.112,-4.807,4.9,-4.2,0.35
,-8.591,-0.069,-4.996,-8.38,-0.091,-4.958,6.93,-3.15,-1.26
6966.0,-8.181,-0.397,-4.949,-8.514,-1.184,-4.944,4.97,-7.91,-2.45
,-8.488,-0.692,-4.822,-8.406,-1.328,-4.915,3.01,-7.7,-3.15
,-8.662,-0.799,-4.893,-8.531,-1.342,-4.886,2.24,-7.98,-3.22
,-8.658,-0.83,-4.982,-8.794,-1.082,-4.841,1.89,-7.42,-2.73
7042.0,-8.536,-1.457,-5.243,-8.464,-1.039,-5.205,1.61,-8.47,-0.98
,-8.603,-1.304,-4.676,-8.382,-1.027,-5.336,-0.07,-8.61,0.0
,-8.83,-1.333,-4.537,-8.619,-1.034,-5.221,1.68,-8.47,1.05
,-8.689,-1.153,-4.915,-8.672,-0.799,-5.243,2.8,-9.59,1.89
7118.0,-8.538,-0.617,-5.224,-8.689,-0.725,-5.106,6.37,-10.36,2.87
,-8.689,-0.517,-5.176,-9.005,-0.715,-4.757,6.65,-9.87,3.15
,-8.744,-0.436,-5.272,-8.557,-0.646,-5.042,5.88,-10.57,3.15
,-8.638,-0.486,-5.202,-8.665,-0.586,-5.054,5.46,-10.71,2.87
7193.0,-9.04,-0.711,-4.826,-8.457,-1.084,-4.733,1.61,-17.22,1.26
,-9.083,-0.646,-4.69,-8.617,-1.046,-4.714,1.4,-16.94,0.7
,-8.837,-0.682,-4.762,-8.598,-1.122,-4.57,0.7,-15.61,0.56
,-8.667,-0.907,-4.767,-8.904,-0.905,-4.477,0.63,-14.35,0.77
7269.0,-8.83,-0.665,-4.602,-8.375,-0.689,-4.03,8.19,-13.51,2.87
,-8.988,-0.62,-4.448,-8.567,-0.708,-3.273,6.23,-14.42,3.15
,-9.552,-0.83,-3.838,-8.93,-0.605,-3.52,1.12,-18.06,2.66
,-8.966,-0.596,-3.946,-9.107,-0.342,-3.604,-2.17,-24.01,2.8
7344.0,-9.215,-0.23,-3.762,-8.847,-0.373,-3.575,-2.31,-18.27,1.54
,-8.904,-0.512,-3.726,-9.206,-0.079,-3.589,-3.29,-15.26,1.33
,-9.002,-0.849,-3.408,-8.887,-0.093,-3.687,-0.21,-12.25,1.05
,-8.99,-0.871,-3.544,-8.873,-0.455,-3.824,3.15,-12.46,0.84
7420.0,-8.902,-0.859,-3.776,-9.086,-0.51,-3.85,-9.38,-15.61,-1.19
,-9.021,-0.962,-3.678,-9.1,-0.579,-3.967,-7.84,-15.12,-1.05
,-9.141,-0.859,-3.836,-9.012,-0.78,-4.403,-7.0,-15.33,-1.4
,-9.069,-0.617,-3.656,-8.823,-1.062,-4.518,-5.67,-14.56,-1.47
7496.0,-9.107,-0.955,-3.707,-9.095,-1.079,-3.053,-2.94,-14.28,-0.84
,-9.533,-0.555,-3.585,-9.189,-1.414,-2.895,-1.75,-17.36,-1.33
,-9.036,-0.294,-3.955,-9.213,-1.316,-2.426,-4.48,-19.95,-2.45
,-8.899,-0.407,-3.264,-9.538,-0.785,-2.838,-6.72,-17.99,-2.24
7572.0,-9.416,-0.223,-3.281,-9.007,-0.689,-3.563,4.2,-13.09,-0.28
,-9.016,-0.101,-3.673,-9.38,-0.596,-3.429,1.47,-13.37,-0.35
,-9.057,-0.311,-3.606,-9.545,-0.735,-3.305,0.91,-11.69,-0.07
,-9.34,-0.555,-3.723,-9.16,-0.581,-2.883,2.94,-10.85,-0.35
7648.0,-9.22,-0.67,-3.204,-9.268,-1.627,-2.295,4.13,-10.92,-0.84
,-9.313,-0.826,-3.18,-9.344,-1.33,-2.376,3.22,-10.92,-0.63
,-9.079,-1.041,-2.905,-9.584,-0.916,-2.718,1.75,-10.15,-0.07
,-9.107,-1.354,-2.754,-9.316,-0.625,-3.195,2.73,-8.61,0.42
7723.0,-9.191,-0.555,-3.02,-8.993,-0.601,-4.015,15.05,-4.13,3.08
,-9.399,-0.593,-3.321,-9.115,-1.127,-3.458,15.54,-3.71,3.01
,-9.706,-0.479,-3.695,-9.402,-1.263,-3.379,14.84,-5.25,2.31
,-9.433,-0.263,-3.946,-9.378,-1.005,-3.252,11.55,-8.05,1.61
7799.0,-9.1,-0.806,-2.687,-9.442,-0.091,-1.591,9.87,-10.01,2.03
,-9.371,-0.794,-2.264,-9.466,-0.112,-1.558,10.92,-8.33,2.03
,-9.651,-0.589,-1.936,-9.45,-0.318,-1.484,13.09,-6.79,1.82
,-9.631,-0.16,-1.79,-9.569,-0.414,-1.575,13.44,-5.67,1.54
7875.0,-9.658,-0.627,-1.957,-9.761,-0.404,-3.35,9.31,3.08,-0.07
,-9.426,-0.854,-2.24,-9.555,-0.306,-3.881,10.08,4.13,0.21
,-9.165,-0.9,-2.235,-9.127,-0.861,-3.989,12.11,5.11,0.7
,-9.82,-0.739,-2.838,-8.971,-1.261,-3.948,13.16,4.55,0.07
7951.0,-8.926,-1.505,-3.637,-9.639,-0.191,-2.915,0.84,-0.49,-1.4
,-9.127,-1.402,-3.171,-9.304,-0.294,-2.816,5.74,0.7,-0.49
,-9.526,-0.955,-2.649,-9.337,-0.694,-2.982,10.36,1.33,0.14
,-9.943,-0.471,-2.809,-9.445,-0.924,-3.297,10.85,0.35,-0.14
8026.0,-9.411,-0.924,-3.692,-9.445,-0.761,-2.367,-0.98,-2.52,-1.82
,-9.234,-1.086,-3.601,-9.557,-0.517,-2.285,-1.75,-2.45,-1.68
,-9.05,-1.357,-3.228,-9.651,-0.519,-2.371,-1.26,-2.1,-1.4
,-9.217,-1.125,-2.663,-9.519,-0.668,-2.795,0.91,-1.4,-1.12
8102.0,-9.325,-0.814,-2.733,-9.469,-0.993,-2.426,-2.73,-0.21,-0.91
,-9.282,-1.031,-2.704,-9.481,-0.986,-2.316,-1.12,1.33,-0.63
,-9.392,-1.077,-2.666,-9.727,-0.83,-2.46,2.24,2.59,-0.21
,-9.409,-1.003,-2.536,-9.581,-0.677,-2.883,4.69,3.85,0.28
8177.0,-9.335,-0.754,-3.166,-9.414,-1.182,-3.388,-0.07,3.22,-0.35
,-9.351,-1.0,-3.453,-9.509,-0.94,-3.369,-1.19,2.66,-0.28
,-9.241,-1.01,-3.659,-9.373,-0.701,-3.305,-0.35,2.31,-0.07
,-9.232,-1.149,-3.565,-9.385,-0.773,-3.271,0.98,2.52,0.21
8253.0,-9.366,-0.952,-3.151,-9.622,-0.696,-3.216,1.05,0.91,0.77
,-9.344,-1.048,-3.104,-9.541,-0.469,-3.166,1.75,1.19,0.84
,-9.311,-1.024,-3.068,-9.256,-0.486,-3.139,2.66,1.4,1.12
,-9.38,-0.969,-3.128,-9.261,-1.005,-2.848,4.41,1.75,1.26
8329.0,-9.395,-1.18,-2.556,-9.66,-0.321,-2.685,0.98,1.05,0.84
,-9.354,-1.036,-2.264,-9.426,-0.388,-2.943,4.2,2.73,1.19
,-9.509,-0.821,-2.123,-9.244,-0.615,-3.173,6.86,4.13,1.47
,-9.694,-0.553,-2.271,-9.215,-1.036,-3.226,7.98,4.55,1.33
8405.0,-9.256,-1.208,-3.223,-9.351,-0.833,-3.434,2.38,5.11,0.49
,-9.33,-1.22,-3.221,-9.263,-0.881,-3.281,5.46,5.67,0.98
,-9.44,-1.115,-3.211,-9.512,-0.972,-3.173,8.68,6.02,1.4
,-9.474,-0.864,-3.384,-9.617,-0.68,-3.19,10.71,5.95,1.47
8480.0,-9.349,-0.433,-3.455,-9.328,-0.864,-3.142,3.64,2.03,0.56
,-9.33,-0.704,-3.331,-9.351,-0.924,-3.005,0.28,1.61,0.35
,-9.328,-0.873,-3.218,-9.531,-0.955,-2.862,-0.63,1.68,0.28
,-9.407,-0.885,-3.197,-9.56,-0.73,-2.864,0.07,1.54,0.07
8556.0,-9.351,-0.579,-2.924,-9.225,-1.07,-3.307,-0.56,1.33,-0.07
,-9.306,-0.84,-2.824,-9.325,-1.034,-3.336,-1.68,1.82,-0.07
,-9.411,-0.976,-3.02,-9.407,-0.94,-3.405,-0.98,2.17,-0.07
,-9.342,-1.029,-3.24,-9.361,-0.773,-3.419,-0.14,2.45,0.14
8632.0,-9.409,-0.761,-3.439,-9.313,-1.024,-3.106,2.8,2.31,0.49
,-9.433,-0.873,-3.458,-9.368,-1.036,-2.96,2.17,1.47,0.21
,-9.354,-0.696,-3.396,-9.404,-0.986,-2.764,1.47,0.42,0.14
,-9.256,-0.78,-3.324,-9.464,-0.747,-2.718,0.42,0.14,0.0
8708.0,-9.562,-0.653,-2.828,-9.241,-1.067,-3.278,2.52,1.96,0.14
,-9.45,-0.641,-3.015,-9.289,-1.007,-3.187,1.4,1.96,0.0
,-9.359,-0.723,-3.206,-9.306,-0.95,-2.989,0.07,1.89,-0.14
,-9.275,-0.928,-3.302,-9.49,-0.873,-2.843,0.0,2.03,-0.28
8784.0,-9.519,-0.646,-2.95,-9.249,-0.852,-3.116,5.11,2.31,0.35
,-9.38,-0.718,-3.013,-9.256,-0.933,-2.984,2.52,2.1,0.14
,-9.32,-0.976,-3.044,-9.375,-1.046,-2.941,1.19,2.1,0.0
,-9.395,-0.986,-3.137,-9.44,-1.024,-2.929,1.54,1.89,0.0
8859.0,-9.371,-0.914,-2.998,-9.268,-0.735,-3.312,3.36,3.08,0.35
,-9.371,-0.96,-3.022,-9.258,-0.67,-3.269,4.2,3.64,0.56
,-9.416,-0.919,-3.108,-9.282,-0.644,-3.25,4.97,3.57,0.7
,-9.462,-0.885,-3.214,-9.428,-0.759,-3.211,4.97,3.43,0.56
8935.0,-9.402,-0.869,-3.238,-9.294,-0.895,-2.649,-2.31,1.54,-0.42
,-9.239,-0.993,-3.094,-9.318,-0.974,-2.359,-3.29,1.68,-0.35
,-9.395,-1.05,-2.917,-9.591,-0.759,-2.426,-3.15,2.03,-0.28
,-9.445,-0.955,-2.917,-9.507,-0.555,-2.848,-2.31,1.75,-0.21
9010.0,-9.337,-0.605,-3.216,-9.206,-1.228,-3.257,-0.63,4.76,-0.21
,-9.191,-0.871,-3.453,-9.275,-1.067,-2.984,-2.73,4.97,-0.21
,-9.131,-1.23,-3.424,-9.634,-0.718,-3.128,-2.03,5.6,0.07
,-9.122,-1.316,-3.34,-9.629,-0.51,-3.518,1.54,6.79,0.56
9086.0,-9.538,-0.428,-3.855,-9.43,-0.948,-3.228,6.02,4.76,0.77
,-9.284,-0.692,-3.929,-9.536,-0.665,-3.553,0.28,2.66,0.28
,-9.012,-1.017,-3.75,-9.469,-0.632,-3.766,-3.29,1.54,0.07
,-9.098,-1.108,-3.345,-9.282,-1.003,-3.879,-1.4,2.45,0.21
9162.0,-9.055,-1.393,-3.778,-9.61,-0.572,-2.752,-10.29,-1.82,-0.21
,-9.009,-1.472,-3.381,-9.32,-0.507,-2.642,-7.42,-1.05,0.42
,-9.222,-1.342,-3.082,-9.433,-0.55,-2.328,-2.03,0.7,1.12
,-9.476,-1.06,-2.766,-9.531,-0.672,-2.541,1.54,1.75,1.33
9238.0,-9.433,-0.859,-2.833,-9.569,-0.986,-3.331,-4.97,4.2,0.91
,-9.351,-1.295,-2.86,-9.344,-0.677,-3.553,-5.11,4.76,1.19
,-9.067,-1.519,-3.096,-9.241,-0.352,-3.264,-3.71,5.18,1.75
,-9.337,-1.467,-2.668,-9.086,-0.328,-2.625,1.61,6.72,2.66
9313.0,-9.349,-0.199,-1.807,-9.253,-0.495,-3.649,-5.53,4.2,-0.63
,-9.746,0.577,-1.625,-8.892,-1.39,-3.786,-4.06,5.11,-2.59
,-9.478,0.945,-2.414,-9.131,-1.335,-3.563,-11.13,3.5,-4.69
,-9.198,0.646,-2.702,-9.311,-0.969,-3.891,-20.72,3.71,-4.9
9389.0,-9.186,-0.112,-3.733,-9.107,-2.848,-2.41,-2.94,6.79,-4.34
,-9.287,-0.12,-4.357,-9.222,-2.048,-1.831,-4.97,5.11,-4.97
,-8.923,-1.335,-4.039,-9.584,-0.412,-1.467,-11.13,5.74,-4.34
,-9.028,-2.455,-3.197,-9.564,0.639,-3.099,-12.04,8.4,-2.38
9464.0,-9.103,0.644,-3.597,-8.746,-0.258,-3.695,-4.69,7.98,-2.17
,-9.095,-0.366,-3.9,-8.969,-0.771,-3.506,-16.8,9.8,-2.17
,-9.127,-1.187,-3.47,-9.093,-1.881,-3.597,-17.64,13.02,-2.52
,-9.225,-0.641,-2.996,-9.182,-3.034,-3.436,-8.05,14.56,-3.15
9540.0,-9.131,-3.02,-2.996,-9.414,-0.436,-2.261,3.36,12.88,2.73
,-8.792,-2.414,-3.039,-9.567,-0.182,-3.802,12.46,13.58,2.8
,-8.794,-1.874,-2.632,-9.366,-0.256,-4.326,17.5,16.73,3.64
,-8.854,-1.402,-2.455,-9.421,-0.586,-4.812,19.18,18.69,4.69
9616.0,-8.641,-0.593,-5.229,-9.517,-0.251,-4.001,-8.75,9.87,5.18
,-8.325,-0.615,-5.037,-9.155,-0.416,-3.965,-7.07,12.11,3.22
,-8.605,-0.952,-4.8,-9.038,-1.106,-3.649,-2.73,15.54,2.17
,-9.055,-0.62,-4.176,-9.038,-1.914,-2.97,4.48,17.01,2.45
9692.0,-8.997,-1.732,-2.749,-8.964,0.043,-4.886,6.02,21.21,2.59
,-8.911,-0.962,-2.639,-8.569,-0.067,-4.996,12.88,22.26,2.45
,-9.524,0.112,-3.388,-8.586,0.251,-4.791,14.14,18.55,2.52
,-9.416,0.361,-4.35,-8.993,0.73,-4.558,6.09,15.12,3.01
9768.0,-9.586,1.043,-4.195,-9.256,0.144,-3.903,5.67,19.32,-5.74
,-9.49,0.914,-4.147,-8.88,-0.213,-4.046,2.31,18.9,-6.79
,-9.098,0.464,-4.066,-8.851,-0.412,-4.168,-0.42,19.39,-7.77
,-9.17,0.105,-4.015,-8.583,-1.256,-4.439,-0.42,20.02,-9.17
9843.0,-8.648,-1.993,-4.444,-8.332,-2.13,-4.81,-4.48,17.08,-8.96
,-8.658,-2.367,-4.712,-8.603,-2.106,-4.614,-2.59,16.73,-6.72
,-8.729,-2.326,-4.671,-8.804,-2.221,-4.905,0.07,13.51,-5.53
,-8.287,-2.091,-4.965,-8.524,-2.044,-4.91,1.33,11.2,-5.04
9919.0,-8.466,-1.673,-4.161,-8.524,-2.584,-4.353,7.63,12.53,1.4
,-8.758,-1.613,-4.161,-8.667,-2.601,-4.197,8.12,13.58,1.4
,-8.689,-1.948,-4.307,-8.88,-2.249,-4.386,7.21,14.49,2.24
,-8.559,-2.35,-4.424,-8.933,-1.519,-4.535,8.05,16.31,4.06
9995.0,-8.275,-0.608,-5.176,-8.988,0.065,-5.248,19.53,13.23,10.5
,-7.976,-0.27,-5.482,-8.981,0.242,-5.071,15.54,12.74,10.01
,-8.732,0.01,-5.372,-8.715,0.074,-5.219,12.67,12.67,8.82
,-9.112,0.036,-5.19,-8.806,-0.428,-4.506,11.2,11.41,7.77
10071.0,-8.442,-0.68,-4.972,-8.758,-1.637,-5.212,8.75,8.89,2.1
,-8.418,-0.684,-4.867,-8.746,-0.974,-5.36,12.32,8.89,1.75
,-8.82,-0.704,-5.092,-8.83,0.385,-5.43,13.72,8.75,1.33
,-9.016,-1.194,-5.162,-8.665,1.589,-5.693,13.86,8.4,1.47
10146.0,-8.055,1.488,-6.009,-8.804,-1.216,-4.506,12.32,-1.75,-8.4
,-8.741,0.873,-5.432,-8.567,-1.831,-4.427,4.9,-0.35,-10.5
,-9.074,0.306,-5.037,-8.332,-2.398,-4.692,1.19,0.7,-10.99
,-8.94,-0.749,-4.719,-8.574,-2.9,-4.819,0.14,0.7,-11.62
10222.0,-8.265,-2.931,-5.123,-8.457,-3.075,-4.972,8.19,-0.63,-4.06
,-8.263,-2.934,-5.351,-8.492,-3.056,-4.685,9.59,-0.28,-2.87
,-8.382,-2.953,-5.157,-8.813,-2.709,-3.97,10.71,0.77,-1.89
,-8.545,-2.977,-5.128,-8.543,-2.01,-4.599,10.85,0.84,0.0
10297.0,-8.564,-1.192,-4.92,-8.665,-0.359,-5.619,13.65,0.14,7.07
,-8.775,-0.309,-5.207,-8.272,-0.818,-5.559,13.16,0.21,6.16
,-8.923,0.383,-5.654,-8.344,-1.089,-5.257,11.55,-0.42,5.11
,-8.926,0.172,-5.645,-8.576,-1.196,-4.819,8.33,-0.91,5.04
10373.0,-8.732,-1.295,-4.98,-8.524,-1.074,-4.846,9.17,-1.4,6.72
,-9.016,-1.845,-4.377,-8.854,-0.916,-4.96,6.93,-0.91,7.35
,-8.904,-1.795,-4.154,-8.717,-0.928,-5.09,6.02,-1.05,7.84
,-8.665,-1.493,-4.286,-8.327,-0.962,-5.319,5.25,-1.68,7.84
10449.0,-8.404,-1.117,-4.949,-8.583,-1.558,-4.736,-3.64,-0.98,6.44
,-8.5,-1.486,-4.712,-8.768,-1.402,-4.798,-4.2,-0.91,7.91
,-8.603,-1.943,-4.628,-9.012,-1.129,-4.886,-3.5,-1.26,9.66
,-8.5,-1.706,-4.551,-9.069,-0.895,-4.934,-1.4,-0.63,10.71
10525.0,-8.806,-0.888,-4.917,-8.808,-1.254,-4.86,1.89,-0.91,9.31
,-8.586,-1.11,-4.858,-9.005,-1.225,-4.719,1.61,-0.21,8.89
,-8.629,-0.888,-4.838,-8.873,-0.976,-4.862,3.29,0.42,8.26
,-8.662,-0.859,-4.882,-8.557,-0.648,-5.056,3.71,0.42,7.07
10601.0,-8.593,-0.536,-4.882,-9.141,0.211,-4.96,8.47,3.08,2.17
,-8.598,-0.483,-4.594,-9.201,-0.27,-4.929,6.44,2.73,2.24
,-8.327,-0.141,-4.719,-8.813,-0.653,-4.759,6.37,3.15,2.03
,-8.698,0.249,-5.073,-8.545,-0.955,-4.491,5.6,3.15,1.05
10676.0,-8.356,-0.952,-4.575,-8.636,-1.115,-4.628,-1.05,3.71,-1.05
,-8.337,-0.931,-4.724,-8.387,-1.218,-4.513,-0.42,4.48,-0.77
,-8.792,-0.763,-4.862,-8.461,-0.979,-4.594,-1.68,5.18,-0.91
,-8.971,-0.974,-4.681,-8.746,-0.565,-4.91,-2.17,4.76,-0.84
10752.0,-8.959,-0.304,-5.2,-8.571,-0.608,-4.791,-1.05,6.16,-1.54
,-9.311,-0.134,-5.02,-8.636,-0.79,-4.834,-1.26,5.67,-2.66
,-9.083,-0.282,-4.712,-8.997,-0.742,-4.81,-2.59,4.97,-3.01
,-8.71,-0.373,-4.537,-8.942,-0.766,-5.083,-4.83,4.83,-2.94
10828.0,-8.545,-1.055,-5.238,-8.275,-1.792,-4.913,-5.32,3.15,-5.18
,-8.512,-1.395,-5.078,-8.512,-1.85,-4.853,-5.67,3.36,-4.55
,-8.681,-1.776,-4.805,-8.686,-1.795,-4.841,-6.79,2.45,-3.22
,-8.452,-1.895,-4.891,-8.564,-1.838,-4.846,-7.0,1.75,-1.47
10904.0,-8.562,-2.06,-4.858,-8.689,-1.455,-5.051,-5.67,4.06,4.62
,-8.631,-2.115,-4.798,-8.435,-1.266,-5.085,-4.48,5.18,6.37
,-8.643,-1.981,-5.061,-8.394,-1.263,-5.013,-0.84,5.11,7.63
,-8.648,-1.811,-5.054,-8.638,-1.199,-4.886,1.26,4.34,8.05
10979.0,-8.906,-0.955,-5.116,-8.569,-0.57,-5.217,3.64,0.14,10.22
,-8.713,-0.706,-5.547,-8.495,-0.385,-5.109,2.73,-1.05,10.36
,-8.488,-0.78,-5.47,-8.727,-0.304,-5.092,1.33,-0.84,9.38
,-8.629,-0.646,-5.267,-8.818,-0.378,-5.154,1.75,-0.77,7.91
11055.0,-8.818,-0.512,-5.468,-8.507,-0.132,-5.063,5.32,-2.31,5.32
,-8.758,-0.625,-5.176,-8.748,-0.158,-4.929,6.58,-1.82,4.13
,-8.88,-0.452,-5.123,-8.804,-0.469,-5.03,8.4,-3.08,2.73
,-8.464,-0.194,-5.121,-8.701,-0.821,-5.013,9.17,-4.2,1.68
11130.0,-8.672,-0.895,-4.793,-8.49,-0.814,-5.035,3.99,-5.11,0.7
,-8.65,-0.682,-4.75,-8.461,-1.158,-4.929,6.65,-5.11,-0.35
,-8.892,-0.541,-4.728,-8.696,-1.381,-4.841,7.21,-7.0,-0.77
,-8.715,-0.603,-4.905,-8.741,-1.218,-4.795,4.83,-8.61,-0.42
11206.0,-8.588,-1.665,-4.094,-8.43,-1.165,-5.047,6.72,-4.55,0.49
,-8.49,-1.137,-4.709,-8.323,-1.369,-4.776,11.06,-4.13,1.05
,-8.887,-1.06,-4.829,-8.629,-1.472,-4.585,13.09,-3.64,2.17
,-9.27,-1.199,-4.64,-8.959,-1.158,-4.664,9.24,-6.93,3.15
11282.0,-8.933,-0.689,-4.862,-8.949,-0.773,-4.671,10.36,-10.92,5.67
,-8.586,-0.376,-5.018,-8.892,-0.543,-4.623,9.38,-9.87,6.09
,-8.409,-0.531,-4.987,-9.143,-0.335,-4.513,7.63,-7.35,6.02
,-8.634,-0.818,-4.716,-9.002,-0.34,-4.578,8.47,-5.95,6.02
11358.0,-8.744,-0.495,-4.554,-9.103,-0.242,-4.47,8.19,-9.1,4.41
,-8.746,-0.629,-4.53,-9.131,-0.079,-4.609,6.93,-8.75,4.9
,-8.696,-0.849,-4.602,-8.839,-0.053,-4.834,6.51,-9.03,4.69
,-8.966,-0.754,-4.494,-8.806,-0.263,-4.702,7.56,-10.71,3.99
11433.0,-8.701,-0.663,-4.475,-9.22,-0.445,-3.939,-4.83,-18.97,0.63
,-8.689,-0.677,-4.195,-8.538,-0.9,-4.207,-2.94,-17.92,-0.49
,-8.93,-0.476,-4.063,-8.617,-1.563,-3.829,-0.98,-17.71,-1.4
,-9.426,-0.357,-3.853,-8.837,-1.838,-3.676,-3.22,-19.88,-1.75
11509.0,-9.002,-1.505,-3.489,-8.765,-0.861,-3.582,1.26,-16.66,-0.07
,-9.146,-0.893,-3.903,-9.0,-0.991,-3.348,4.27,-16.73,0.63
,-9.088,-0.558,-3.845,-9.323,-0.651,-3.204,3.15,-16.38,1.19
,-8.966,-0.644,-3.91,-9.072,-0.136,-3.659,0.35,-15.82,1.19
11585.0,-9.127,-0.067,-4.078,-9.002,-1.18,-3.355,-3.15,-17.92,0.49
,-9.11,-0.768,-4.13,-9.17,-0.883,-3.501,-8.05,-17.78,0.49
,-9.115,-1.333,-3.754,-8.94,-0.833,-3.34,-7.63,-16.03,0.49
,-9.038,-1.56,-3.647,-9.16,-0.593,-2.979,-2.31,-14.14,0.56
11661.0,-9.629,-0.804,-3.372,-9.426,-0.45,-2.804,4.97,-14.0,2.03
,-9.201,-0.455,-3.175,-9.375,-0.005,-2.862,3.01,-16.52,1.61
,-8.964,-0.357,-2.871,-9.378,0.108,-3.484,1.4,-15.54,1.33
,-9.234,-0.553,-2.467,-9.275,-0.196,-3.199,2.73,-12.74,0.84
11737.0,-9.342,-0.426,-3.116,-9.253,-1.079,-4.068,-0.07,-8.68,-1.54
,-9.174,-0.735,-2.936,-8.804,-0.928,-3.513,0.63,-6.51,-2.1
,-9.189,-0.773,-3.123,-9.351,-1.089,-3.563,3.71,-4.76,-1.68
,-9.222,-1.041,-3.388,-9.172,-1.208,-3.276,6.16,-4.41,-1.19
11812.0,-9.289,-1.039,-3.331,-9.349,-0.637,-2.398,17.01,-3.85,1.05
,-9.237,-0.948,-2.769,-9.249,-0.615,-2.398,17.29,-4.06,1.4
,-9.43,-0.828,-2.618,-9.402,-0.424,-2.17,16.8,-4.34,1.47
,-9.215,-0.737,-2.292,-9.679,-0.469,-2.582,16.94,-4.13,1.61
11888.0,-9.608,-0.452,-2.972,-9.246,-1.187,-2.754,10.36,-2.59,0.42
,-9.328,-0.22,-3.384,-9.581,-0.981,-2.737,8.4,-3.01,0.07
,-9.098,-0.67,-3.305,-9.548,-0.79,-2.307,6.72,-2.73,-0.35
,-9.093,-1.077,-3.034,-9.653,-0.634,-2.46,8.12,-1.54,-0.28
11963.0,-9.368,-0.782,-2.491,-9.368,-0.797,-2.778,8.54,1.05,-0.77
,-9.258,-0.84,-2.517,-9.517,-0.433,-3.202,7.14,2.03,-1.05
,-9.275,-1.003,-2.328,-9.363,-0.541,-3.58,7.14,3.57,-1.05
,-9.445,-0.94,-2.548,-9.095,-0.828,-3.757,7.77,4.2,-1.26
12039.0,-9.086,-1.165,-3.788,-9.148,-0.905,-2.888,2.52,3.5,-1.47
,-9.213,-1.196,-3.575,-9.241,-0.986,-2.491,5.25,3.57,-1.05
,-9.447,-1.01,-3.429,-9.476,-1.029,-2.694,8.4,3.64,-0.77
,-9.509,-0.804,-3.422,-9.538,-0.878,-2.745,7.7,2.59,-0.98
12115.0,-9.517,-0.799,-2.96,-9.299,-0.83,-2.807,2.8,3.92,-1.33
,-9.304,-1.029,-3.01,-9.481,-0.718,-2.807,1.54,4.41,-1.19
,-9.256,-0.993,-3.034,-9.495,-0.672,-2.735,3.29,5.11,-0.98
,-9.215,-0.931,-2.979,-9.576,-0.617,-3.264,5.6,5.88,-0.7
12191.0,-9.292,-0.926,-3.702,-9.22,-0.931,-3.678,0.84,5.74,-1.4
,-8.957,-1.249,-3.865,-9.289,-0.816,-3.412,-0.21,5.39,-1.19
,-8.957,-1.362,-3.929,-9.383,-0.754,-3.501,1.96,5.25,-0.91
,-9.009,-1.201,-3.862,-9.349,-0.912,-3.609,4.41,5.53,-0.56
12266.0,-9.15,-1.189,-3.666,-9.208,-1.053,-3.262,-0.42,3.15,-0.77
,-9.112,-1.378,-3.714,-9.363,-0.89,-3.025,1.54,2.94,-0.28
,-9.127,-1.424,-3.707,-9.428,-0.912,-2.931,4.9,3.22,0.49
,-9.165,-1.144,-3.613,-9.469,-0.864,-2.97,7.28,3.22,0.98
12342.0,-9.375,-0.878,-3.125,-9.363,-0.916,-3.695,0.63,3.15,-0.21
,-9.263,-0.995,-3.302,-9.292,-0.878,-3.814,-0.42,3.01,-0.42
,-9.17,-1.113,-3.415,-9.215,-0.931,-3.75,-0.21,3.22,-0.14
,-9.239,-1.065,-3.405,-9.16,-1.007,-3.786,1.05,3.64,0.0
12418.0,-9.186,-1.072,-3.807,-9.112,-1.077,-3.549,2.31,1.68,0.0
,-9.27,-0.885,-3.845,-9.232,-1.125,-3.245,3.5,1.33,0.14
,-9.265,-0.938,-3.857,-9.356,-0.976,-2.967,3.36,0.63,0.14
,-9.098,-1.048,-3.795,-9.462,-0.809,-2.898,3.29,0.49,0.14
12494.0,-9.442,-0.842,-2.922,-9.265,-1.058,-3.094,1.47,0.91,-0.84
,-9.251,-1.022,-2.95,-9.273,-0.95,-3.077,0.14,1.26,-0.77
,-9.261,-1.263,-2.936,-9.33,-0.893,-3.092,0.84,2.03,-0.56
,-9.241,-1.251,-3.051,-9.359,-0.823,-3.235,3.22,2.66,-0.28
12570.0,-9.366,-0.931,-3.443,-9.122,-1.082,-3.946,2.59,3.78,-0.14
,-9.241,-1.17,-3.525,-9.1,-1.07,-3.826,0.98,3.57,-0.07
,-9.194,-1.366,-3.685,-9.234,-1.05,-3.64,2.1,3.5,0.21
,-9.177,-1.273,-3.96,-9.311,-0.84,-3.623,3.78,3.08,0.49
12645.0,-9.323,-0.763,-3.544,-9.131,-1.247,-3.613,2.8,1.33,0.35
,-9.287,-0.885,-3.522,-9.174,-1.158,-3.609,1.33,1.05,0.21
,-9.273,-1.055,-3.522,-9.189,-1.031,-3.594,0.7,0.98,0.21
,-9.253,-1.161,-3.678,-9.174,-0.955,-3.403,0.7,0.56,0.28
12721.0,-9.251,-1.003,-3.269,-9.294,-0.948,-3.197,0.56,0.35,0.49
,-9.28,-1.089,-3.111,-9.34,-0.962,-3.329,0.49,0.42,0.35
,-9.428,-1.007,-3.092,-9.292,-1.043,-3.393,0.98,0.77,0.42
,-9.378,-0.983,-3.171,-9.232,-1.144,-3.448,1.33,0.98,0.49
12796.0,-9.217,-1.067,-3.539,-9.304,-0.897,-3.661,3.43,1.47,0.77
,-9.179,-1.043,-3.649,-9.265,-0.943,-3.664,3.57,1.05,0.7
,-9.241,-0.986,-3.609,-9.275,-0.991,-3.671,3.99,1.19,0.7
,-9.222,-0.983,-3.573,-9.234,-1.139,-3.788,3.99,1.05,0.56
12872.0,-9.184,-1.158,-3.81,-9.301,-0.972,-3.147,5.39,-0.28,0.77
,-9.15,-1.089,-3.738,-9.354,-0.909,-2.991,5.88,-0.77,0.7
,-9.206,-1.05,-3.573,-9.344,-0.974,-2.855,5.6,-0.77,0.77
,-9.249,-1.029,-3.372,-9.344,-1.0,-2.912,5.32,-0.63,0.7
12948.0,-9.344,-1.005,-3.087,-9.277,-1.134,-3.642,2.38,0.35,0.28
,-9.294,-1.027,-3.209,-9.198,-1.134,-3.575,2.52,0.63,0.28
,-9.268,-1.094,-3.345,-9.213,-1.144,-3.558,2.59,0.7,0.14
,-9.275,-1.127,-3.482,-9.268,-1.304,-3.453,2.59,0.77,0.14
13024.0,-9.282,-1.139,-3.47,-9.328,-1.003,-3.293,5.46,0.63,0.91
,-9.261,-1.043,-3.429,-9.349,-0.95,-3.307,6.02,0.63,0.98
,-9.244,-1.094,-3.333,-9.306,-1.01,-3.271,5.95,0.7,1.05
,-9.337,-1.022,-3.305,-9.313,-1.082,-3.398,5.81,0.84,1.12
13099.0,-9.194,-1.05,-3.41,-9.375,-0.993,-3.47,3.5,0.56,0.84
,-9.208,-1.151,-3.443,-9.246,-0.995,-3.376,3.5,0.49,0.84
,-9.191,-1.211,-3.266,-9.227,-1.065,-3.281,4.69,0.98,1.05
,-9.256,-1.084,-3.352,-9.225,-1.024,-3.34,5.25,0.84,1.12
13175.0,-9.304,-1.117,-3.35,-9.311,-1.005,-3.195,3.43,0.49,0.98
,-9.287,-1.187,-3.307,-9.368,-0.873,-3.221,2.94,0.49,1.05
,-9.258,-1.261,-3.185,-9.34,-0.981,-3.228,3.22,0.49,1.12
,-9.232,-1.151,-3.247,-9.323,-1.048,-3.271,4.2,0.91,1.05
13251.0,-9.328,-1.086,-3.391,-9.177,-1.206,-3.475,0.98,0.77,0.7
,-9.344,-1.115,-3.486,-9.217,-1.149,-3.475,1.4,0.7,0.77
,-9.292,-1.072,-3.455,-9.265,-1.089,-3.46,1.89,0.63,0.77
,-9.179,-1.108,-3.422,-9.299,-1.027,-3.441,2.1,0.56,0.91
13327.0,-9.361,-0.998,-3.458,-9.256,-1.156,-3.099,2.24,-0.14,1.26
,-9.265,-1.091,-3.434,-9.304,-1.058,-3.053,1.26,-0.21,1.33
,-9.182,-1.082,-3.362,-9.332,-1.074,-3.01,0.42,-0.35,1.33
,-9.22,-1.129,-3.202,-9.407,-0.95,-3.113,-0.28,-0.21,1.26
13402.0,-9.371,-0.919,-3.159,-9.225,-1.019,-2.979,-0.14,0.63,1.61
,-9.256,-0.969,-3.154,-9.234,-0.914,-2.797,-0.84,0.77,1.68
,-9.258,-1.07,-3.144,-9.294,-0.895,-2.623,-1.05,1.19,1.82
,-9.15,-1.106,-3.106,-9.296,-0.857,-2.436,-0.42,1.82,1.96
13478.0,-9.351,-1.0,-2.627,-9.282,-1.017,-2.984,-0.56,5.46,2.17
,-9.27,-1.18,-2.62,-9.246,-0.988,-2.816,-0.63,6.44,2.45
,-9.222,-1.079,-2.733,-9.237,-0.835,-2.599,-0.14,6.72,2.45
,-9.265,-1.065,-2.893,-9.509,-0.737,-2.391,-0.42,7.0,2.1
13554.0,-9.71,-0.861,-2.742,-9.222,-1.022,-2.321,-7.14,9.24,0.42
,-9.426,-1.146,-2.862,-9.148,-1.139,-2.391,-11.2,7.91,-0.07
,-9.131,-1.072,-2.749,-9.409,-0.771,-2.8,-13.51,7.14,0.42
,-8.952,-0.866,-2.194,-9.076,-0.553,-3.587,-13.02,8.75,1.12
13629.0,-8.717,-0.766,-3.546,-9.61,-0.684,-3.498,-10.29,14.28,3.01
,-8.813,-1.232,-3.283,-9.351,0.132,-3.704,-10.08,17.15,4.06
,-9.107,-1.529,-2.668,-9.038,0.462,-4.362,-5.32,20.16,4.69
,-9.45,-1.173,-2.728,-8.863,0.163,-4.819,1.96,20.86,4.55
13705.0,-8.741,-0.404,-4.487,-9.05,-1.065,-3.987,-11.9,14.28,0.14
,-9.217,-0.608,-4.566,-9.127,-1.352,-3.123,-10.01,14.14,0.07
,-9.1,-0.622,-4.673,-8.705,-1.333,-3.204,-9.17,11.97,-0.98
,-9.095,-0.684,-4.539,-8.763,-1.103,-3.053,-8.96,11.9,-2.03
13781.0,-9.421,-0.713,-3.362,-8.78,-0.967,-3.879,8.96,16.66,-1.12
,-9.38,-0.529,-3.458,-9.064,-1.041,-4.408,6.02,14.98,-0.91
,-8.961,-0.378,-3.498,-9.177,-0.969,-4.494,2.45,14.56,-0.63
,-8.461,-0.639,-3.836,-9.105,-0.61,-4.408,-2.8,14.49,-1.12
13857.0,-8.851,-0.184,-4.542,-8.545,-0.744,-4.506,-1.75,14.77,-4.48
,-8.89,0.158,-4.317,-8.667,-1.374,-3.836,-2.66,14.98,-6.16
,-9.009,0.292,-4.673,-9.024,-1.436,-3.405,-5.81,13.44,-7.21
,-8.624,-0.115,-4.657,-9.371,-1.45,-3.711,-10.78,12.88,-7.28
13932.0,-9.139,-1.125,-4.152,-8.559,-1.704,-4.468,0.0,12.11,-4.27
,-8.918,-1.223,-4.422,-8.71,-1.493,-4.786,-2.45,11.9,-2.52
,-8.641,-1.699,-4.585,-8.854,-1.309,-5.075,-4.83,13.79,-1.82
,-8.569,-1.828,-4.432,-8.949,-1.062,-4.934,-2.94,15.82,-1.26
14008.0,-8.567,-0.983,-4.903,-9.191,-0.246,-4.525,2.52,14.28,-0.84
,-8.394,-1.139,-4.604,-9.438,-0.677,-4.396,1.89,15.75,-0.77
,-8.672,-0.866,-4.527,-9.0,-1.187,-4.453,4.62,15.75,-0.77
,-8.662,-0.452,-4.8,-8.868,-1.534,-4.357,5.6,14.14,-1.12
14084.0,-8.66,-1.577,-4.903,-8.524,-1.134,-4.941,-2.73,8.61,-0.14
,-8.557,-1.323,-5.214,-8.691,-1.134,-4.867,-0.56,8.05,-0.07
,-8.543,-1.141,-5.173,-8.672,-1.204,-4.606,0.84,8.61,0.49
,-8.528,-1.086,-5.097,-8.818,-1.244,-4.216,0.98,9.31,0.98
14160.0,-8.758,-1.249,-4.171,-8.629,-0.677,-5.391,3.92,10.71,2.94
,-8.696,-1.22,-4.135,-8.808,-0.407,-5.552,4.2,10.64,3.85
,-8.789,-1.196,-4.374,-8.72,0.0,-5.695,4.76,9.87,4.41
,-8.751,-1.005,-4.726,-8.617,0.148,-5.832,4.9,8.12,4.34
14235.0,-8.638,-0.019,-5.516,-8.655,-0.553,-4.702,3.78,3.29,-0.63
,-8.579,-0.232,-5.298,-8.641,-1.05,-4.7,1.12,2.59,-1.89
,-8.902,-0.543,-4.989,-8.48,-1.898,-4.264,-0.56,1.54,-2.87
,-8.964,-0.579,-4.915,-8.701,-2.474,-4.068,-0.84,-0.7,-4.2
14311.0,-9.007,-2.541,-3.991,-8.851,-1.201,-4.963,8.4,3.15,-0.63
,-8.492,-2.046,-4.386,-9.146,-1.204,-5.063,12.67,1.61,0.77
,-7.676,-1.457,-5.118,-9.165,-0.938,-4.987,14.77,1.19,1.82
,-7.88,-1.28,-5.2,-9.086,-1.228,-4.587,14.0,3.08,2.45
14386.0,-8.93,-1.206,-5.135,-8.768,-1.866,-4.712,11.27,2.31,3.08
,-8.533,-1.165,-5.255,-9.074,-1.132,-4.549,12.46,2.38,2.66
,-7.952,-1.496,-5.054,-8.696,-0.572,-4.968,12.67,3.71,3.78
,-8.035,-1.804,-5.054,-8.691,-0.311,-4.98,14.07,5.39,5.25
14462.0,-9.062,-0.043,-5.257,-8.114,-0.467,-5.444,14.35,1.33,5.81
,-9.162,-0.201,-5.207,-7.765,-1.376,-5.262,13.16,0.84,3.78
,-9.215,0.041,-5.391,-7.684,-2.103,-4.968,13.79,-0.07,1.47
,-8.801,0.091,-5.54,-8.461,-2.144,-4.759,12.95,-0.63,-0.14
14538.0,-8.921,-1.893,-4.704,-9.66,-1.864,-3.362,14.49,2.17,5.74
,-9.074,-1.864,-4.515,-8.961,-1.237,-4.295,12.74,2.66,6.86
,-9.069,-1.902,-4.384,-8.48,-0.794,-4.707,10.78,3.01,7.21
,-9.217,-1.821,-4.389,-8.445,-0.342,-5.171,9.73,4.2,7.63
14614.0,-8.244,-0.225,-5.281,-9.191,-0.617,-4.855,0.7,-1.26,7.28
,-7.83,-0.127,-5.456,-9.361,-0.213,-4.975,-0.49,-1.4,7.0
,-7.961,-0.428,-5.439,-9.095,-0.206,-4.776,-1.54,-0.07,6.93
,-8.756,-0.672,-4.884,-8.89,-0.579,-4.417,-1.26,1.19,6.93
14690.0,-8.483,-0.826,-4.527,-8.859,-1.505,-4.738,-1.89,-0.35,2.31
,-8.437,-1.098,-4.649,-8.617,-1.445,-4.788,-2.94,0.49,1.89
,-8.607,-1.359,-4.657,-8.531,-1.247,-4.963,-2.8,1.61,1.96
,-8.715,-1.563,-4.673,-8.806,-0.921,-4.934,-1.61,2.24,2.24
14765.0,-8.959,-0.79,-4.968,-8.614,-0.395,-5.054,4.97,4.9,1.96
,-8.871,-0.708,-4.903,-8.65,-0.723,-5.016,5.39,4.62,1.75
,-8.528,-0.505,-4.934,-8.717,-0.902,-4.925,5.11,4.48,1.33
,-8.71,-0.474,-4.92,-8.648,-0.821,-4.81,3.78,4.83,0.84
14841.0,-8.569,-0.603,-4.989,-8.461,-0.524,-5.14,5.25,4.9,-1.75
,-8.777,-0.337,-4.96,-8.643,-1.055,-4.941,4.83,5.18,-2.87
,-9.007,-0.196,-5.013,-8.744,-1.457,-4.724,2.87,4.13,-3.85
,-8.681,-0.302,-5.042,-8.77,-1.639,-4.733,0.7,3.36,-4.41
14917.0,-8.598,-1.524,-4.712,-8.636,-0.826,-4.98,-1.68,5.46,-2.8
,-8.502,-1.594,-4.666,-8.545,-0.751,-4.826,-2.1,5.53,-2.38
,-8.672,-1.271,-4.783,-8.677,-0.536,-5.023,-3.01,4.48,-2.03
,-8.715,-1.094,-4.958,-8.918,-0.414,-5.217,-4.13,3.43,-1.61
14993.0,-8.897,-0.419,-5.063,-8.861,-1.012,-5.059,-11.34,1.33,-1.68
,-8.61,-0.526,-5.032,-8.863,-1.328,-5.114,-11.27,1.47,-2.24
,-8.435,-0.574,-5.185,-8.837,-1.565,-5.13,-10.01,0.91,-2.73
,-8.538,-0.773,-5.135,-8.681,-1.677,-5.217,-9.38,0.63,-2.66
15068.0,-8.732,-1.768,-5.049,-8.483,-2.967,-4.836,-3.64,-0.84,-0.77
,-8.476,-1.984,-4.941,-8.576,-2.69,-5.083,-4.76,-0.91,0.56
,-8.308,-2.541,-4.697,-8.605,-2.247,-5.054,-6.3,0.49,2.66
,-8.334,-2.907,-4.731,-8.507,-1.809,-4.984,-6.3,1.68,5.32
15144.0,-8.775,-1.651,-4.52,-8.887,0.117,-5.039,4.34,1.19,14.07
,-8.545,-1.251,-4.853,-8.88,0.491,-5.298,2.87,-0.14,15.12
,-8.416,-0.771,-5.176,-8.871,0.692,-5.171,2.94,-0.49,15.26
,-8.677,-0.304,-5.176,-8.873,0.857,-5.056,3.36,-0.49,14.56
15219.0,-8.531,0.605,-4.86,-9.136,-0.201,-5.025,0.49,-3.99,6.16
,-8.469,0.285,-4.688,-8.844,-0.27,-5.078,1.26,-3.99,4.55
,-8.629,-0.012,-5.011,-8.275,-0.433,-5.157,2.45,-4.55,2.73
,-9.119,-0.136,-4.893,-8.217,-0.656,-5.018,4.55,-5.18,1.82
15295.0,-8.588,-0.725,-4.724,-9.069,0.132,-4.676,4.27,-5.95,-1.05
,-8.811,-0.302,-4.848,-8.681,-0.211,-4.774,4.83,-6.86,-1.12
,-8.815,0.22,-4.917,-8.555,-0.816,-4.669,4.97,-7.49,-2.03
,-9.028,0.297,-4.736,-8.667,-1.113,-4.75,3.01,-7.07,-3.64
15371.0,-8.792,-1.187,-4.829,-8.619,-1.622,-4.326,3.57,-5.04,-4.06
,-8.526,-1.187,-5.071,-8.775,-1.268,-4.623,6.72,-6.23,-3.92
,-8.485,-1.067,-4.975,-8.897,-1.115,-4.917,8.47,-5.74,-3.85
,-8.653,-2.075,-3.91,-8.722,-0.921,-4.994,5.25,-3.57,-3.64
15447.0,-8.729,-0.998,-4.781,-8.72,-0.771,-4.697,4.13,-7.0,0.21
,-8.966,-0.914,-4.635,-8.61,-1.199,-4.645,2.31,-8.96,0.14
,-8.854,-0.735,-4.745,-8.866,-1.512,-4.35,1.68,-10.5,0.84
,-8.827,-0.622,-4.798,-8.995,-1.211,-4.31,0.98,-10.99,1.19
15522.0,-8.732,-0.704,-4.726,-8.65,-0.615,-4.683,8.61,-13.02,1.75
,-8.737,-0.223,-4.891,-8.619,-0.871,-4.468,8.33,-14.14,1.82
,-8.88,-0.022,-5.092,-8.933,-1.012,-4.302,5.6,-14.84,1.61
,-8.849,-0.244,-4.977,-8.885,-1.048,-4.279,2.1,-14.28,0.98
15598.0,-8.892,-0.94,-4.429,-8.698,-1.067,-4.322,9.87,-8.61,0.56
,-8.878,-0.931,-4.262,-8.78,-1.015,-4.228,10.29,-7.77,1.26
,-8.887,-0.964,-4.204,-8.83,-1.036,-4.243,10.15,-7.21,1.47
,-8.78,-1.034,-4.247,-8.873,-1.151,-4.125,9.31,-8.12,1.68
15674.0,-8.93,-1.182,-3.807,-9.217,-0.414,-3.673,3.85,-10.71,3.01
,-8.882,-1.053,-3.601,-8.983,-0.524,-3.865,5.53,-10.15,3.08
,-8.911,-0.95,-3.637,-8.906,-0.491,-3.85,6.93,-9.87,2.94
,-9.217,-0.586,-3.431,-8.978,-0.56,-3.754,9.38,-9.17,2.66
15750.0,-9.005,-0.605,-3.91,-9.222,-0.826,-3.577,5.04,-12.6,1.26
,-8.885,-0.627,-3.848,-9.225,-0.852,-3.537,5.11,-12.67,0.28
,-9.095,-0.512,-3.704,-9.244,-0.771,-3.97,4.27,-12.39,0.14
,-8.976,-0.627,-3.759,-9.033,-0.761,-4.07,1.47,-12.95,0.28
15826.0,-9.095,-0.672,-4.001,-9.105,-1.582,-3.711,0.49,-14.21,-0.98
,-8.871,-0.952,-4.135,-8.851,-1.498,-3.197,-1.4,-14.63,-1.12
,-8.698,-1.417,-3.917,-9.375,-0.94,-3.082,-1.4,-14.21,-0.7
,-8.909,-1.455,-3.63,-9.366,-0.873,-3.099,3.57,-12.95,0.42
15901.0,-9.239,-0.603,-2.714,-9.344,-0.337,-2.761,11.97,-11.13,2.87
,-9.423,-0.175,-3.125,-9.485,-0.459,-3.063,9.87,-11.41,2.17
,-9.177,-0.325,-3.429,-9.447,-0.045,-3.068,4.76,-12.11,0.98
,-9.162,-0.364,-3.08,-9.397,-0.148,-3.479,3.78,-10.64,0.77
15977.0,-9.201,-0.378,-3.668,-9.189,-1.17,-3.056,-2.52,-11.41,-2.31
,-8.928,-0.895,-3.709,-9.395,-1.187,-3.159,-4.97,-11.48,-2.45
,-9.014,-1.149,-3.946,-9.316,-1.098,-3.034,-2.73,-11.13,-2.45
,-8.945,-1.314,-3.398,-9.399,-0.95,-3.47,-0.42,-10.01,-2.17
16052.0,-9.15,-1.077,-3.331,-9.105,-0.232,-3.233,1.61,-9.24,-0.98
,-9.478,-1.029,-3.29,-9.115,-0.881,-2.982,3.36,-9.03,-1.19
,-9.332,-0.931,-3.192,-9.256,-1.225,-2.673,3.78,-9.8,-1.75
,-9.481,-0.373,-3.36,-9.742,-1.168,-2.682,4.2,-10.36,-1.19
16128.0,-9.471,-0.869,-2.773,-9.483,-0.771,-2.697,7.28,-8.61,-0.77
,-9.258,-0.605,-2.481,-9.306,-0.972,-2.867,5.18,-8.33,-0.49
,-9.442,-0.811,-2.635,-9.246,-1.158,-2.86,3.64,-7.42,-0.56
,-9.356,-0.974,-2.642,-9.103,-1.12,-2.718,4.97,-6.3,-0.42
16204.0,-9.265,-0.943,-2.558,-9.249,-0.66,-2.544,13.93,-0.63,0.91
,-9.409,-0.72,-2.395,-9.337,-0.895,-2.56,16.45,0.84,0.98
,-9.734,-0.558,-2.505,-9.32,-1.017,-2.563,14.77,0.49,0.49
,-9.418,-0.352,-2.603,-9.225,-1.175,-2.312,10.64,-0.42,-0.07
16280.0,-9.464,-1.208,-2.237,-9.483,-0.744,-3.175,7.91,5.04,-0.77
,-9.407,-0.995,-2.472,-9.33,-1.022,-3.297,8.12,5.25,-0.91
,-9.402,-0.713,-2.706,-9.265,-1.094,-3.484,6.86,5.25,-1.4
,-9.442,-0.562,-2.864,-9.292,-1.134,-3.57,4.41,5.74,-1.75
16355.0,-9.304,-1.048,-3.716,-9.397,-0.96,-3.281,1.54,5.95,-1.96
,-9.22,-1.041,-3.654,-9.296,-1.012,-3.149,2.31,5.6,-1.61
,-9.265,-0.972,-3.556,-9.273,-1.122,-2.881,2.94,5.53,-1.33
,-9.421,-1.062,-3.412,-9.387,-1.129,-2.955,3.08,5.18,-1.33
16431.0,-9.402,-1.249,-3.156,-9.203,-1.192,-3.51,1.54,4.34,-0.91
,-9.33,-1.192,-3.381,-9.253,-1.232,-3.408,1.96,4.27,-0.84
,-9.234,-1.223,-3.472,-9.361,-1.089,-3.463,2.24,4.2,-0.63
,-9.174,-1.24,-3.455,-9.368,-0.945,-3.422,3.08,4.34,-0.42
16506.0,-9.395,-0.988,-3.618,-9.289,-1.034,-3.372,6.16,3.29,0.28
,-9.165,-1.11,-3.522,-9.375,-1.034,-3.154,5.39,2.94,0.49
,-9.167,-1.189,-3.465,-9.478,-1.031,-2.965,5.53,2.94,0.63
,-9.182,-1.153,-3.324,-9.442,-0.955,-3.01,7.07,3.15,0.77
16582.0,-9.306,-1.034,-3.12,-9.167,-1.106,-3.247,5.32,2.31,0.56
,-9.316,-1.039,-3.379,-9.237,-1.089,-3.106,5.11,2.24,0.63
,-9.308,-1.182,-3.422,-9.316,-0.998,-2.989,4.48,1.61,0.56
,-9.225,-1.144,-3.372,-9.459,-0.902,-3.111,4.83,1.54,0.63
16658.0,-9.392,-0.907,-3.195,-9.27,-1.213,-3.494,3.71,1.68,0.49
,-9.33,-0.96,-3.384,-9.306,-1.062,-3.367,1.96,1.4,0.35
,-9.227,-1.199,-3.431,-9.349,-1.003,-3.23,0.98,1.54,0.49
,-9.208,-1.299,-3.451,-9.335,-0.952,-3.171,2.24,1.89,0.63
16734.0,-9.335,-0.986,-3.106,-9.292,-1.182,-3.388,3.64,1.89,0.91
,-9.404,-0.981,-3.139,-9.246,-1.175,-3.379,2.45,1.75,0.63
,-9.407,-1.017,-3.238,-9.22,-1.161,-3.333,0.91,1.47,0.35
,-9.311,-1.156,-3.317,-9.289,-1.127,-3.254,-0.28,1.19,0.21
16810.0,-9.39,-1.117,-3.271,-9.253,-1.34,-3.336,3.22,1.4,1.05
,-9.335,-1.046,-3.266,-9.256,-1.29,-3.271,3.15,1.26,1.12
,-9.323,-1.086,-3.278,-9.261,-1.24,-3.195,2.31,0.98,1.19
,-9.304,-1.24,-3.264,-9.354,-1.089,-3.192,2.1,1.26,1.19
16885.0,-9.435,-1.015,-3.305,-9.215,-1.146,-3.355,4.34,1.12,1.82
,-9.296,-0.931,-3.357,-9.304,-1.094,-3.338,2.73,0.91,1.68
,-9.282,-0.842,-3.372,-9.323,-0.993,-3.199,1.4,0.84,1.54
,-9.215,-1.065,-3.424,-9.368,-0.873,-3.161,0.35,0.7,1.33
16961.0,-9.378,-0.878,-2.991,-9.261,-0.986,-3.175,1.68,1.33,1.4
,-9.442,-0.876,-2.996,-9.206,-1.082,-3.197,0.49,1.4,1.05
,-9.344,-0.931,-3.017,-9.263,-1.012,-3.156,-1.12,1.12,0.77
,-9.294,-0.912,-3.116,-9.378,-1.022,-3.262,-2.45,1.05,0.42
17037.0,-9.306,-0.897,-3.247,-9.316,-1.041,-3.278,-3.71,1.54,-0.28
,-9.328,-0.804,-3.278,-9.323,-1.235,-3.348,-4.48,1.33,-0.63
,-9.323,-0.833,-3.283,-9.275,-1.216,-3.324,-5.74,1.33,-0.98
,-9.354,-0.897,-3.297,-9.292,-1.05,-3.362,-7.0,1.19,-1.33
17113.0,-9.347,-0.969,-3.434,-9.229,-1.297,-3.374,-2.38,1.47,-0.77
,-9.34,-0.96,-3.563,-9.313,-1.314,-3.35,-2.31,1.33,-0.63
,-9.311,-1.031,-3.539,-9.323,-1.261,-3.419,-2.24,1.19,-0.35
,-9.239,-1.223,-3.47,-9.287,-1.129,-3.475,-1.47,1.33,-0.07
17188.0,-9.277,-1.101,-3.491,-9.38,-0.974,-3.202,4.48,0.7,1.12
,-9.261,-1.022,-3.393,-9.32,-0.931,-3.147,4.41,0.91,1.26
,-9.287,-0.986,-3.271,-9.277,-0.94,-3.18,4.2,0.77,1.12
,-9.34,-0.993,-3.185,-9.275,-0.943,-3.206,4.2,0.77,1.12
17264.0,-9.32,-0.962,-3.19,-9.354,-1.031,-3.125,4.34,1.19,1.12
,-9.287,-0.969,-3.154,-9.363,-0.969,-3.108,3.5,1.26,0.98
,-9.294,-1.017,-3.068,-9.32,-1.019,-3.123,2.94,1.33,0.7
,-9.313,-1.053,-3.082,-9.287,-0.983,-3.159,2.17,1.4,0.56
17339.0,-9.33,-1.034,-3.166,-9.273,-1.084,-3.534,-0.21,2.03,0.35
,-9.371,-1.003,-3.252,-9.273,-1.153,-3.482,0.42,1.82,0.28
,-9.371,-1.034,-3.434,-9.268,-1.101,-3.537,1.12,1.75,0.49
,-9.296,-1.06,-3.51,-9.27,-1.05,-3.53,1.75,1.54,0.63
17415.0,-9.366,-0.893,-3.589,-9.27,-1.091,-3.226,1.68,-0.14,0.35
,-9.292,-0.845,-3.632,-9.385,-0.928,-3.008,-0.07,-1.19,-0.14
,-9.21,-0.943,-3.632,-9.698,-0.9,-3.075,-2.38,-1.75,-0.42
,-9.227,-1.022,-3.419,-9.454,-0.737,-3.202,-3.29,-1.75,-0.56
17491.0,-9.141,-0.732,-3.206,-9.241,-1.137,-3.132,-11.34,-5.04,-1.68
,-9.048,-1.201,-3.139,-9.32,-1.086,-3.075,-11.62,-4.06,-1.68
,-9.143,-1.457,-3.08,-9.466,-0.988,-3.044,-8.75,-2.52,-1.33
,-9.239,-1.259,-3.017,-9.399,-0.663,-3.041,-4.76,-1.26,-0.98
17567.0,-9.332,-0.541,-3.044,-9.241,-1.259,-2.836,-6.86,-2.38,-1.68
,-9.316,-0.718,-2.948,-9.208,-1.345,-2.673,-9.1,-1.61,-1.89
,-9.474,-0.96,-2.836,-9.361,-1.256,-2.335,-9.8,-1.05,-2.17
,-9.387,-1.065,-2.903,-9.751,-0.792,-2.412,-9.94,-0.98,-2.17
17643.0,-9.569,-0.316,-2.797,-9.213,-0.995,-3.463,-3.36,1.12,-1.19
,-9.361,-0.359,-2.958,-9.21,-1.342,-3.647,-8.54,1.12,-1.75
,-9.232,-0.639,-2.685,-9.131,-1.441,-3.632,-13.16,1.89,-2.24
,-9.426,-0.68,-3.082,-9.112,-1.519,-3.408,-16.24,1.19,-3.29
17718.0,-9.562,-1.462,-3.032,-9.014,-2.022,-3.58,-11.55,4.41,-2.52
,-9.643,-1.041,-3.364,-8.954,-2.335,-3.644,-9.03,3.43,-2.24
,-9.356,-0.95,-3.376,-8.945,-2.848,-3.563,-8.82,2.94,-1.54
,-9.038,-1.472,-3.676,-9.119,-2.426,-3.477,-8.96,2.87,-0.21
17794.0,-9.129,-1.429,-3.206,-9.277,0.022,-3.175,34.09,10.5,8.47
,-9.529,-0.373,-2.905,-9.433,-0.017,-2.268,38.01,10.92,7.91
,-9.708,0.38,-3.139,-9.538,0.031,-2.802,35.84,10.15,7.0
,-9.38,0.55,-3.333,-9.237,-0.251,-2.941,27.79,8.89,6.16
17870.0,-9.107,-0.517,-3.46,-9.045,-2.828,-2.405,-3.01,5.18,0.56
,-9.038,-0.924,-3.333,-9.414,-1.986,-2.065,-10.01,4.34,0.56
,-8.894,-1.967,-3.271,-9.466,-0.809,-2.075,-14.14,5.39,1.4
,-8.775,-2.819,-2.97,-9.641,0.287,-2.505,-11.06,7.7,2.94
17946.0,-9.531,0.443,-3.463,-8.923,-0.455,-3.649,15.82,11.55,3.85
,-9.464,0.235,-3.879,-8.961,-0.591,-3.204,6.79,10.01,3.01
,-9.342,-0.045,-4.202,-8.859,-1.091,-2.23,0.98,9.38,2.24
,-8.935,-0.409,-4.154,-9.239,-1.378,-1.766,-1.54,10.08,0.98
18021.0,-9.502,-1.165,-1.194,-8.928,-0.866,-4.965,5.53,19.25,-1.12
,-9.856,-0.79,-2.273,-8.49,-1.039,-5.504,6.44,17.64,-1.47
,-9.684,-0.412,-2.295,-8.277,-1.024,-5.745,4.55,16.94,-1.61
,-9.77,-0.464,-3.855,-8.55,-0.833,-4.841,-1.89,14.14,-1.96
18097.0,-8.921,-0.584,-3.678,-9.153,-1.11,-3.178,6.86,16.45,-4.62
,-9.289,-0.493,-3.077,-8.638,-1.754,-3.676,5.67,14.91,-4.9
,-9.703,-0.297,-2.903,-8.473,-1.962,-3.75,1.54,12.32,-4.55
,-9.586,-0.507,-2.903,-8.784,-1.838,-3.561,-5.11,10.64,-4.27
18172.0,-8.562,-1.634,-3.599,-8.839,-0.596,-3.963,5.46,17.99,-2.38
,-9.182,-1.129,-3.51,-8.653,-1.196,-3.573,7.42,17.78,-1.54
,-9.201,-0.704,-4.197,-9.024,-1.347,-3.132,4.62,14.63,-0.84
,-9.052,-0.51,-4.226,-9.184,-0.916,-3.862,-1.33,13.02,-1.12
18248.0,-9.069,-0.73,-4.709,-8.643,-1.941,-3.944,-1.82,14.7,-2.38
,-8.851,-1.12,-4.874,-8.866,-1.103,-4.2,-4.76,15.4,-1.54
,-8.729,-1.955,-4.549,-9.33,-0.663,-4.152,-4.83,17.99,-0.91
,-8.55,-2.395,-3.972,-9.127,-0.756,-4.221,0.14,20.72,-0.77
18324.0,-8.598,-1.084,-4.149,-8.72,-0.361,-4.855,-4.48,15.4,0.91
,-8.457,-1.328,-4.011,-8.287,-0.768,-5.123,-5.88,17.15,1.47
,-9.031,-0.976,-3.936,-8.406,-1.275,-5.051,-2.45,16.52,0.35
,-9.024,-0.55,-4.393,-8.978,-1.433,-4.721,-0.42,14.49,-0.7
18400.0,-8.981,-1.206,-4.738,-8.44,-1.302,-4.795,7.07,16.45,-2.73
,-9.107,-0.469,-4.671,-9.119,-1.874,-4.357,9.03,15.4,-3.08
,-8.844,-0.273,-5.011,-9.318,-1.795,-4.415,4.97,12.25,-2.45
,-8.162,-0.562,-5.26,-8.729,-1.4,-4.838,-2.45,10.99,-1.89
18475.0,-8.502,-1.218,-4.482,-8.737,-1.259,-4.968,-4.41,5.67,0.07
,-8.263,-1.347,-4.893,-8.638,-0.771,-5.027,-7.98,3.29,0.91
,-8.356,-1.622,-4.889,-8.77,-0.629,-4.815,-7.42,4.76,1.75
,-8.72,-1.517,-4.903,-8.935,-0.273,-4.805,-3.71,7.07,2.24
18551.0,-8.856,-0.132,-4.829,-8.512,-0.093,-5.413,3.15,4.62,-0.28
,-8.988,-0.364,-4.944,-8.614,0.079,-5.379,1.4,2.24,-0.21
,-8.483,-0.4,-5.365,-8.567,-0.517,-4.874,0.77,0.98,-1.05
,-8.449,-0.364,-5.592,-8.832,-1.137,-4.243,2.59,1.47,-2.66
18627.0,-8.813,-1.926,-4.362,-8.452,-2.091,-5.748,1.12,2.1,-6.09
,-8.875,-2.915,-4.384,-8.385,-2.048,-5.461,0.21,2.87,-3.57
,-8.823,-3.216,-4.86,-8.019,-2.666,-5.111,5.32,2.38,-2.94
,-8.495,-2.651,-5.379,-8.098,-3.386,-4.499,11.41,2.24,-2.94
18703.0,-8.579,-3.534,-4.243,-8.897,-0.627,-5.147,9.31,6.93,9.38
,-8.981,-3.046,-3.955,-9.251,-0.706,-5.183,14.14,6.72,11.34
,-8.804,-2.118,-4.465,-8.961,-0.163,-5.645,17.01,5.39,11.83
,-8.452,-1.201,-4.829,-8.94,0.22,-5.7,18.34,4.9,11.55
18779.0,-8.902,0.144,-5.224,-8.634,-0.842,-4.702,17.01,1.96,5.53
,-8.681,-0.182,-5.099,-8.938,-1.242,-4.853,13.93,0.42,4.97
,-8.174,-0.512,-5.111,-8.99,-1.335,-4.582,12.81,0.28,4.9
,-8.186,-0.55,-5.102,-8.732,-1.173,-4.688,11.62,0.91,5.53
18854.0,-8.588,-1.015,-4.96,-8.308,-1.479,-4.862,5.46,1.47,5.25
,-8.801,-0.986,-4.858,-8.521,-1.673,-4.594,1.96,1.4,5.67
,-8.562,-0.983,-5.085,-8.916,-1.685,-4.532,-0.07,0.21,5.81
,-8.277,-1.448,-4.915,-9.062,-1.385,-4.453,-1.68,0.21,6.02
18930.0,-8.727,-1.005,-4.759,-8.698,-0.388,-5.322,0.63,1.33,9.38
,-8.588,-0.483,-5.183,-8.871,-0.696,-4.812,0.84,1.82,8.33
,-8.923,-0.012,-5.48,-8.734,-0.94,-4.592,0.07,1.75,6.93
,-8.832,0.074,-5.458,-8.299,-1.33,-4.652,-1.19,1.68,6.16
19005.0,-8.483,-1.196,-4.719,-8.83,-0.864,-5.291,1.54,3.57,4.34
,-8.985,-0.857,-5.056,-8.902,-1.407,-4.767,3.43,3.85,3.71
,-9.083,-0.73,-5.209,-8.215,-1.472,-4.98,4.48,3.57,2.45
,-8.933,-0.634,-5.317,-8.09,-1.34,-5.025,5.6,3.01,1.61
19081.0,-8.55,-1.127,-5.128,-8.653,-0.194,-5.262,6.37,4.13,0.84
,-8.863,-1.232,-4.972,-8.952,-0.278,-4.965,5.95,3.99,0.42
,-8.756,-1.184,-4.848,-8.933,-0.567,-4.855,7.42,3.29,-0.14
,-8.507,-0.433,-4.958,-8.758,-0.804,-4.817,8.89,3.01,-1.26
19157.0,-8.516,-0.811,-4.635,-8.744,-0.809,-4.606,4.83,3.64,-3.22
,-8.612,-0.627,-4.805,-8.416,-0.73,-4.908,5.04,3.78,-3.15
,-8.737,-0.79,-5.097,-8.284,-0.644,-5.023,3.15,4.13,-3.5
,-8.909,-0.907,-4.855,-8.617,-0.905,-4.889,1.89,4.13,-3.64
19233.0,-8.887,-1.295,-4.702,-8.653,-0.885,-5.159,-5.32,4.2,-3.64
,-8.789,-1.378,-4.64,-8.973,-0.928,-5.128,-3.5,3.85,-3.85
,-8.579,-1.007,-4.882,-8.904,-0.854,-5.221,-1.68,3.85,-4.06
,-8.39,-0.926,-5.135,-8.844,-0.83,-4.803,-2.03,3.92,-3.99
19308.0,-8.753,-0.696,-5.039,-8.746,-2.532,-5.042,-5.6,0.91,-3.92
,-8.504,-1.031,-5.331,-8.674,-2.675,-5.183,-9.31,0.49,-3.99
,-8.466,-1.668,-5.231,-8.837,-2.486,-4.81,-11.13,0.91,-3.36
,-8.61,-2.201,-4.956,-8.598,-2.187,-4.953,-10.78,0.7,-2.17
19384.0,-8.224,-2.01,-5.147,-8.811,-1.141,-5.444,-2.24,-2.87,4.62
,-8.193,-1.864,-5.269,-8.851,-0.768,-5.559,-3.5,-1.96,5.88
,-8.524,-1.73,-5.111,-8.758,-0.711,-5.468,-5.46,-1.89,7.7
,-8.581,-1.548,-5.255,-8.557,-0.79,-5.336,-5.88,-2.24,8.75
19460.0,-8.715,-0.909,-4.941,-8.976,-0.79,-4.733,-1.82,-2.87,5.46
,-8.78,-0.778,-4.822,-8.689,-0.639,-5.181,0.0,-3.99,5.11
,-8.641,-0.723,-4.963,-8.557,-0.469,-5.274,1.19,-4.9,4.27
,-8.631,-0.818,-5.066,-8.469,-0.529,-5.3,1.82,-5.6,3.85
19536.0,-8.648,-0.696,-4.97,-8.705,-0.871,-4.755,1.89,-8.82,2.38
,-8.528,-0.806,-5.056,-8.579,-0.79,-4.666,1.61,-9.38,2.24
,-8.614,-0.847,-4.944,-8.603,-0.766,-4.434,1.54,-9.59,2.24
,-8.775,-0.861,-4.721,-8.603,-0.979,-4.424,2.17,-10.85,2.17
19612.0,-8.71,-1.182,-4.367,-8.418,-2.328,-4.386,5.46,-7.0,1.89
,-9.038,-1.397,-4.128,-8.784,-2.139,-4.118,5.25,-7.63,3.08
,-8.923,-1.371,-4.424,-8.954,-1.687,-4.48,4.76,-11.06,4.34
,-8.315,-1.464,-4.575,-8.928,-0.991,-4.848,3.99,-11.76,4.97
19687.0,-8.66,-0.778,-5.059,-8.89,-0.335,-4.496,11.41,-9.52,7.21
,-8.557,-0.833,-4.616,-8.806,-0.366,-4.657,9.45,-8.12,7.35
,-8.624,-0.677,-4.405,-8.897,-0.505,-4.59,9.1,-7.42,7.42
,-8.882,-0.512,-4.367,-9.05,-0.596,-4.609,8.96,-7.84,7.63
19763.0,-9.208,-0.656,-4.48,-9.093,-0.33,-3.991,13.23,-7.21,5.81
,-8.981,-0.364,-4.494,-9.323,-0.06,-3.903,14.42,-9.59,5.46
,-8.674,-0.041,-4.525,-8.868,0.11,-4.223,13.72,-10.92,5.04
,-8.516,-0.057,-4.532,-8.758,-0.022,-4.252,10.92,-11.06,4.41
19838.0,-8.765,-0.316,-4.173,-9.172,-1.137,-3.666,-7.42,-16.73,0.42
,-8.83,-0.634,-4.044,-9.428,-1.177,-3.745,-7.49,-15.12,-0.63
,-8.82,-0.859,-3.829,-9.249,-1.039,-3.831,-4.76,-12.95,-1.26
,-8.856,-0.924,-3.709,-9.091,-0.933,-3.714,-1.19,-10.22,-1.33
19914.0,-8.643,-0.964,-3.738,-9.155,-1.036,-3.953,-2.17,-15.47,0.28
,-8.674,-1.134,-3.625,-8.921,-0.95,-4.094,-3.64,-14.84,0.49
,-8.914,-1.184,-3.503,-8.871,-0.852,-3.891,-4.34,-13.86,1.33
,-9.136,-1.036,-3.64,-8.837,-0.83,-3.685,-3.43,-12.95,2.03
19990.0,-8.782,-0.756,-3.281,-9.215,-0.849,-3.513,2.8,-6.65,0.98
,-9.356,-0.665,-2.984,-9.208,-0.919,-3.417,5.04,-5.46,1.4
,-9.407,-0.605,-3.273,-9.105,-0.919,-3.515,4.34,-8.4,1.68
,-9.067,-0.687,-3.443,-8.971,-0.727,-3.135,2.03,-9.38,2.52
20066.0,-9.208,-0.349,-3.465,-9.038,-0.952,-3.68,2.38,-4.41,1.54
,-8.988,-0.136,-3.458,-9.28,-1.01,-3.302,1.89,-4.27,1.4
,-9.088,-0.184,-3.953,-9.335,-0.579,-3.283,-0.28,-5.25,1.47
,-8.871,-0.615,-3.855,-9.292,-0.084,-3.271,-1.68,-4.34,1.82
20141.0,-9.332,0.043,-3.642,-9.055,-1.067,-3.348,6.3,-2.94,0.35
,-9.361,-0.256,-3.503,-9.098,-0.873,-3.118,0.35,-3.5,0.42
,-9.27,-0.756,-3.924,-9.206,-0.656,-2.96,-4.83,-4.76,0.07
,-9.052,-1.11,-3.75,-9.299,-0.605,-3.178,-4.69,-4.27,-0.28
20217.0,-9.237,-0.608,-3.415,-9.069,-1.034,-3.34,1.75,-2.87,0.49
,-9.213,-0.936,-3.338,-9.241,-0.67,-3.195,-0.07,-3.29,0.98
,-9.304,-1.196,-3.419,-9.462,-0.572,-3.204,1.47,-2.66,0.98
,-9.174,-1.256,-3.41,-9.414,-0.617,-2.96,5.46,-1.89,1.12
20293.0,-9.627,-0.704,-3.446,-9.088,-0.916,-4.444,-0.84,-3.57,-0.14
,-9.414,-0.735,-3.96,-9.024,-0.589,-4.267,-3.29,-4.9,-0.49
,-9.1,-0.928,-4.286,-9.33,-0.61,-4.472,-4.48,-5.39,-0.49
,-8.971,-0.964,-4.24,-9.167,-0.995,-4.491,-1.05,-4.62,0.07
20369.0,-8.969,-1.318,-3.987,-9.584,-0.455,-2.41,1.05,-8.89,0.7
,-9.093,-1.29,-3.417,-9.555,-0.428,-2.388,5.53,-7.84,1.19
,-9.383,-1.043,-3.125,-9.519,-0.57,-2.501,9.03,-7.28,1.05
,-9.426,-0.61,-2.558,-9.361,-0.78,-2.623,10.78,-6.37,0.91
20444.0,-9.361,-0.809,-2.84,-9.459,-0.514,-3.089,3.71,-4.27,0.42
,-9.196,-0.857,-3.259,-9.548,-0.328,-3.441,5.67,-3.78,0.42
,-9.076,-0.754,-3.281,-9.371,-0.16,-3.518,8.33,-3.01,0.77
,-9.074,-0.579,-2.989,-9.21,-0.534,-3.448,10.64,-1.75,1.12
20520.0,-9.167,-0.979,-3.419,-9.608,-0.156,-2.443,7.63,-2.03,0.0
,-9.105,-1.117,-3.037,-9.588,-0.156,-2.9,10.99,-0.84,0.42
,-9.304,-0.771,-2.893,-9.332,-0.313,-3.458,14.91,-0.21,0.7
,-9.414,-0.424,-2.402,-9.222,-0.62,-3.991,16.17,0.28,0.49
20596.0,-8.981,-1.149,-4.475,-9.311,-1.077,-2.888,-0.07,-3.22,-2.03
,-8.765,-1.467,-4.453,-9.543,-0.871,-2.469,2.1,-3.5,-1.4
,-8.851,-1.555,-4.006,-9.718,-0.531,-2.087,5.81,-3.08,-0.63
,-9.148,-1.376,-3.477,-9.768,-0.366,-2.45,10.01,-2.8,-0.07
20671.0,-9.488,-0.653,-2.592,-9.337,-0.943,-2.656,2.31,-1.89,-1.33
,-9.301,-0.895,-2.785,-9.514,-0.61,-2.74,0.84,-1.33,-1.26
,-9.241,-1.196,-2.883,-9.665,-0.404,-2.998,1.82,-0.42,-0.91
,-9.136,-1.228,-2.764,-9.466,-0.639,-3.63,5.74,1.05,-0.21
20747.0,-9.115,-1.003,-3.879,-9.409,-1.067,-3.281,2.73,0.07,-0.77
,-8.957,-1.22,-4.082,-9.567,-0.737,-3.288,3.64,0.0,-0.56
,-9.026,-1.419,-3.9,-9.629,-0.524,-3.482,6.65,0.35,0.0
,-9.194,-1.311,-3.563,-9.452,-0.689,-3.762,10.64,0.56,0.77
20823.0,-9.148,-0.991,-3.843,-9.392,-1.007,-2.728,1.19,-4.62,-0.35
,-9.06,-1.374,-3.69,-9.557,-0.627,-2.627,0.77,-4.55,-0.21
,-9.074,-1.613,-3.451,-9.426,-0.493,-2.544,2.94,-4.2,0.14
,-9.196,-1.431,-3.163,-9.32,-0.596,-2.302,7.07,-3.57,0.7
20899.0,-9.433,-0.782,-2.458,-9.464,-0.684,-2.496,2.1,-1.68,0.07
,-9.442,-0.854,-2.388,-9.541,-0.536,-2.651,2.45,-0.7,0.0
,-9.368,-0.828,-2.391,-9.512,-0.512,-2.991,2.94,0.7,0.21
,-9.435,-0.785,-2.359,-9.344,-0.811,-3.321,3.5,1.75,0.35
20974.0,-9.234,-1.137,-3.309,-9.481,-1.139,-3.403,-1.96,1.96,-0.77
,-9.182,-1.189,-3.29,-9.371,-1.149,-3.226,-0.07,2.52,-0.56
,-9.289,-1.149,-3.379,-9.414,-1.015,-3.266,2.24,2.87,-0.35
,-9.392,-1.077,-3.384,-9.363,-1.07,-3.271,3.92,3.01,-0.07
21050.0,-9.344,-1.058,-3.238,-9.342,-1.0,-2.867,5.18,1.54,0.35
,-9.275,-1.096,-3.113,-9.45,-0.849,-2.86,4.97,1.68,0.49
,-9.268,-1.141,-2.938,-9.462,-0.818,-3.025,5.25,2.38,0.77
,-9.378,-1.06,-2.907,-9.464,-0.893,-3.252,5.88,2.45,0.91
21126.0,-9.361,-1.017,-3.441,-9.268,-0.89,-3.486,4.2,2.38,0.98
,-9.246,-1.129,-3.405,-9.244,-0.931,-3.25,4.41,2.45,1.12
,-9.294,-1.046,-3.475,-9.423,-0.986,-3.147,5.39,2.17,1.19
,-9.273,-0.967,-3.561,-9.392,-0.962,-3.111,6.51,2.03,1.26
21202.0,-9.351,-0.948,-3.022,-9.395,-0.78,-3.235,3.85,1.33,0.91
,-9.414,-1.01,-2.938,-9.32,-0.921,-3.288,3.29,1.33,0.91
,-9.469,-0.988,-2.991,-9.304,-1.065,-3.178,2.8,1.05,0.77
,-9.373,-0.885,-3.056,-9.263,-1.096,-3.056,2.52,0.84,0.56
21277.0,-9.311,-1.029,-2.927,-9.306,-1.055,-3.144,4.76,1.75,0.77
,-9.359,-0.89,-3.084,-9.282,-1.036,-3.125,5.32,1.82,0.77
,-9.435,-0.828,-3.041,-9.363,-1.0,-3.25,4.55,1.54,0.56
,-9.442,-0.893,-3.101,-9.397,-0.945,-3.405,3.01,1.33,0.28
21353.0,-9.289,-0.878,-3.46,-9.356,-0.981,-3.135,2.73,0.7,0.21
,-9.265,-0.948,-3.384,-9.452,-0.821,-3.075,2.45,0.49,0.14
,-9.268,-1.072,-3.278,-9.459,-0.847,-3.005,2.73,0.42,0.28
,-9.323,-1.046,-3.245,-9.445,-0.873,-2.994,4.27,0.49,0.35
21428.0,-9.378,-0.909,-3.087,-9.426,-1.048,-3.075,2.31,0.28,0.0
,-9.292,-1.031,-3.072,-9.351,-0.974,-2.967,1.96,0.35,-0.14
,-9.246,-1.165,-3.106,-9.351,-0.938,-2.984,2.24,0.56,-0.07
,-9.318,-1.151,-3.053,-9.435,-0.974,-3.041,3.22,0.98,0.21
21504.0,-9.38,-0.859,-3.163,-9.32,-1.084,-3.137,1.96,1.12,-0.07
,-9.383,-1.003,-3.18,-9.323,-1.036,-3.142,1.33,1.19,-0.14
,-9.316,-1.082,-3.259,-9.454,-0.873,-3.168,1.54,1.19,0.0
,-9.294,-1.094,-3.221,-9.49,-0.83,-3.214,2.94,1.4,0.07
21580.0,-9.373,-0.912,-3.223,-9.308,-0.969,-3.032,0.7,0.42,-0.42
,-9.308,-1.072,-3.096,-9.423,-0.89,-2.936,-0.14,0.56,-0.49
,-9.258,-1.137,-3.027,-9.452,-0.857,-2.938,0.42,1.05,-0.28
,-9.323,-1.134,-3.056,-9.39,-0.948,-3.013,1.82,1.12,-0.14
21656.0,-9.418,-1.096,-3.094,-9.359,-1.139,-3.427,1.4,1.19,-0.21
,-9.337,-1.153,-3.144,-9.375,-1.144,-3.374,1.68,1.26,-0.07
,-9.299,-1.117,-3.183,-9.375,-1.029,-3.503,1.96,1.19,0.14
,-9.34,-1.101,-3.281,-9.407,-1.029,-3.465,1.68,0.91,0.07
21732.0,-9.368,-0.936,-3.398,-9.397,-1.273,-3.037,0.91,-0.98,0.14
,-9.32,-0.928,-3.216,-9.325,-1.17,-3.032,-0.7,-1.33,0.21
,-9.313,-0.995,-3.24,-9.311,-0.998,-2.881,-1.4,-1.75,0.21
,-9.359,-1.122,-3.197,-9.344,-0.885,-2.795,-1.12,-1.96,0.28
21807.0,-9.411,-0.881,-2.647,-9.328,-1.084,-2.599,-1.47,-1.96,0.49
,-9.469,-0.818,-2.503,-9.28,-1.098,-2.539,-2.59,-1.75,0.21
,-9.435,-0.802,-2.45,-9.368,-0.902,-2.582,-4.69,-2.03,-0.14
,-9.359,-0.979,-2.4,-9.428,-0.933,-2.8,-6.58,-1.54,-0.35
21883.0,-9.529,-0.885,-3.005,-9.464,-1.074,-2.515,-3.99,1.75,-0.56
,-9.328,-0.83,-3.039,-9.55,-1.125,-2.615,-4.97,1.4,-0.49
,-9.246,-0.89,-2.958,-9.402,-1.208,-2.63,-5.25,1.61,-0.42
,-9.306,-0.983,-2.666,-9.608,-1.046,-2.793,-4.2,2.31,-0.21
21959.0,-9.722,-0.78,-3.336,-9.22,-1.199,-3.664,-1.47,1.61,-0.14
,-9.342,-0.483,-3.826,-9.296,-1.283,-3.314,-5.53,-0.98,-0.7
,-9.064,-0.577,-4.006,-9.43,-1.07,-2.922,-10.01,-1.61,-0.98
,-9.038,-1.007,-3.886,-9.459,-0.998,-2.462,-11.55,-0.7,-1.05
22035.0,-9.557,-1.034,-2.087,-9.366,0.074,-2.934,-1.96,2.73,0.14
,-9.474,-1.046,-1.886,-9.225,-0.211,-3.278,-2.66,3.36,0.0
,-9.797,-0.395,-1.575,-9.005,-1.22,-3.498,-0.07,4.13,-0.63
,-9.742,-0.034,-2.615,-8.954,-1.828,-3.027,-3.43,1.96,-2.17
22110.0,-9.217,-1.869,-2.575,-9.258,-1.077,-1.948,-11.34,9.38,-1.47
,-9.438,-1.261,-2.546,-9.45,-1.084,-1.204,-3.92,9.59,-1.54
,-9.275,-0.835,-2.436,-9.768,-0.634,-2.127,-1.75,9.45,-1.82
,-9.268,-0.775,-2.218,-9.179,-0.292,-2.726,-2.38,10.22,-1.47
22186.0,-9.32,-0.146,-3.635,-8.734,-2.704,-2.898,-6.79,10.22,-1.96
,-9.088,-0.995,-4.293,-9.186,-1.646,-2.565,-15.54,8.12,-1.47
,-8.844,-2.063,-4.501,-8.966,-1.034,-2.252,-17.08,9.38,0.56
,-8.66,-2.814,-4.058,-9.892,-0.287,-2.544,-11.69,12.95,2.38
22261.0,-9.71,-0.45,-3.329,-8.516,-1.103,-3.039,15.82,18.27,3.78
,-9.524,-0.876,-3.745,-9.189,-0.658,-2.891,9.38,17.43,4.83
,-8.981,-1.601,-4.003,-9.564,-0.464,-3.403,5.95,17.99,5.53
,-8.404,-1.661,-3.41,-9.576,-0.172,-4.022,9.73,19.88,5.39
22337.0,-9.093,-0.586,-4.487,-9.753,0.194,-2.85,5.32,17.92,2.45
,-8.581,-1.024,-3.498,-9.433,0.182,-3.654,3.78,21.98,2.03
,-8.631,-0.78,-2.783,-8.708,-0.57,-3.788,8.12,25.2,1.19
,-9.148,-0.395,-2.699,-8.777,-1.242,-3.482,10.78,23.66,-0.35
22413.0,-8.574,-1.338,-3.632,-8.866,-1.096,-4.798,-6.79,23.38,-2.17
,-8.83,-1.129,-3.465,-8.854,-1.395,-4.582,-0.7,25.13,-2.38
,-9.552,-0.833,-3.819,-8.423,-1.409,-4.482,3.08,23.8,-2.38
,-9.27,-0.885,-4.578,-8.519,-1.297,-4.226,1.68,21.42,-2.24
22489.0,-9.069,-1.452,-4.515,-8.48,-1.156,-4.487,6.86,20.23,-1.61
,-9.249,-1.594,-4.501,-8.555,-0.979,-4.685,5.25,17.78,-0.42
,-8.894,-1.584,-4.48,-9.127,-0.692,-4.805,4.97,18.62,0.7
,-8.603,-1.572,-4.439,-9.167,-0.38,-4.925,5.53,20.44,1.19
22565.0,-8.923,-0.385,-4.838,-8.928,-1.144,-5.109,1.47,14.49,0.21
,-8.689,-0.737,-4.697,-9.148,-0.849,-4.972,-1.12,15.61,0.0
,-8.717,-1.01,-4.831,-8.873,-0.67,-4.812,-0.84,15.89,0.28
,-8.581,-1.271,-5.15,-8.598,-0.407,-4.838,0.84,15.05,0.35
22640.0,-8.571,-0.605,-4.692,-9.055,-1.194,-4.283,3.78,11.06,-1.26
,-9.083,-0.771,-4.441,-9.117,-1.132,-4.312,0.84,9.1,-1.19
,-8.849,-0.775,-4.75,-8.614,-1.158,-4.707,-2.31,6.86,-1.33
,-8.598,-1.027,-4.738,-8.579,-1.086,-4.633,-4.2,7.28,-1.54
22716.0,-8.804,-0.785,-5.02,-9.002,-0.105,-4.917,-1.47,5.67,-1.82
,-8.665,-0.613,-5.31,-8.533,-0.354,-4.776,-0.49,5.18,-2.59
,-8.861,-0.486,-5.044,-8.141,-0.593,-4.575,1.54,5.11,-3.64
,-9.124,-0.242,-4.85,-8.43,-1.01,-4.133,2.03,4.48,-5.11
22792.0,-8.875,-1.18,-3.946,-8.358,-0.83,-5.02,-2.38,7.49,-6.58
,-9.083,-1.077,-4.015,-8.435,-0.313,-5.463,0.28,7.14,-6.58
,-8.868,-1.194,-4.592,-8.593,-0.103,-5.451,2.73,7.56,-6.51
,-8.605,-1.125,-4.692,-8.835,-0.105,-5.379,4.62,7.7,-6.93
22868.0,-9.127,-0.457,-4.908,-8.734,-3.372,-4.506,9.24,6.44,-14.28
,-8.971,-0.948,-4.688,-8.861,-3.625,-4.795,5.39,4.2,-12.95
,-7.796,-1.627,-5.135,-8.356,-3.386,-5.02,2.73,3.78,-12.18
,-7.806,-2.783,-4.824,-7.913,-3.35,-4.917,1.89,6.16,-10.78
22943.0,-8.153,-3.312,-5.157,-8.983,-2.146,-4.379,15.12,4.97,1.89
,-8.315,-3.343,-5.181,-8.672,-1.314,-4.518,14.84,5.39,4.34
,-8.703,-3.092,-4.901,-8.311,-0.794,-4.836,15.54,6.02,5.81
,-8.971,-2.766,-4.377,-8.406,-0.414,-4.889,16.45,6.09,6.93
23019.0,-8.588,-0.153,-5.19,-8.976,-0.991,-5.202,10.36,5.67,4.48
,-8.674,0.392,-5.808,-8.99,-1.797,-4.877,10.71,4.2,2.8
,-8.806,0.488,-6.001,-8.861,-1.998,-4.573,10.08,3.36,1.19
,-8.77,-0.17,-5.702,-8.44,-2.017,-4.506,8.75,3.78,0.56
23094.0,-8.122,-1.843,-4.508,-8.837,-0.771,-5.415,12.39,3.71,3.5
,-8.011,-1.742,-4.886,-8.636,-0.926,-5.386,10.36,2.94,2.94
,-8.282,-1.5,-5.207,-8.449,-1.311,-5.205,8.54,2.66,1.96
,-8.732,-1.161,-5.3,-8.605,-1.45,-5.138,7.28,2.38,1.26
23170.0,-8.562,-1.993,-4.85,-8.418,-2.082,-4.786,-1.82,2.17,3.57
,-8.603,-2.3,-4.865,-8.44,-1.541,-5.166,-2.17,2.17,4.83
,-8.65,-2.637,-4.707,-8.717,-1.309,-5.164,-1.61,2.17,5.81
,-8.741,-2.536,-4.439,-8.61,-1.194,-5.26,1.33,2.03,6.72
23246.0,-8.569,-1.005,-5.2,-8.595,-1.529,-4.755,5.67,1.4,5.32
,-8.799,-0.668,-5.339,-8.504,-1.857,-4.678,3.78,0.98,4.62
,-8.806,-0.589,-5.162,-8.507,-1.876,-4.764,1.75,0.7,4.13
,-8.796,-1.043,-4.805,-8.638,-1.89,-4.891,-0.28,-0.07,3.85
23322.0,-8.67,-1.898,-4.817,-8.813,-0.725,-5.106,5.25,2.73,3.64
,-8.579,-1.615,-4.817,-8.67,-0.782,-5.209,7.7,3.36,3.36
,-8.641,-1.194,-4.786,-8.32,-1.137,-5.128,8.47,4.13,3.22
,-8.758,-0.854,-5.195,-8.473,-1.33,-4.925,8.05,4.06,2.45
23397.0,-8.722,-1.414,-4.805,-8.504,-1.0,-5.008,4.06,2.38,1.75
,-8.586,-1.431,-4.927,-8.744,-1.086,-4.965,3.01,2.03,2.38
,-8.406,-1.445,-5.013,-8.902,-1.316,-4.81,3.36,1.89,2.24
,-8.409,-1.362,-4.996,-8.715,-1.438,-4.982,4.27,2.31,1.61
23473.0,-8.437,-1.326,-5.114,-9.117,-0.514,-4.884,-2.45,1.61,1.96
,-8.406,-1.259,-5.288,-8.804,-0.392,-4.96,-3.57,2.03,1.68
,-8.586,-1.156,-5.166,-8.409,-0.412,-5.114,-3.85,2.45,0.98
,-8.849,-0.972,-4.98,-8.394,-0.536,-5.36,-3.36,2.52,0.28
23549.0,-8.614,-0.761,-5.229,-8.569,-1.237,-5.035,-12.11,-0.91,-0.77
,-8.801,-0.967,-5.164,-8.43,-1.656,-5.008,-11.41,-0.98,-1.47
,-8.909,-1.077,-4.898,-8.373,-2.197,-5.224,-10.43,-1.4,-2.03
,-8.741,-1.072,-5.018,-8.44,-2.484,-5.128,-9.8,-1.68,-2.52
23625.0,-8.622,-2.501,-5.059,-8.708,-2.455,-4.752,-9.66,-2.52,1.26
,-8.593,-2.316,-4.925,-8.564,-2.288,-5.042,-6.44,-3.36,2.24
,-8.476,-2.328,-4.822,-8.677,-2.144,-4.692,-5.81,-3.64,3.43
,-8.614,-2.458,-4.822,-8.684,-1.668,-5.016,-6.3,-3.43,4.9
23701.0,-8.339,-1.383,-5.059,-8.717,-0.591,-4.975,-4.2,-5.11,10.15
,-8.284,-1.206,-4.994,-8.875,-0.479,-4.836,-4.27,-4.41,10.29
,-8.536,-1.058,-4.841,-8.945,-0.483,-4.893,-5.04,-4.27,10.57
,-8.708,-0.792,-4.977,-8.588,-0.665,-4.989,-4.48,-4.34,10.43
23776.0,-8.626,-0.706,-4.764,-8.804,-0.706,-4.652,4.62,-1.82,5.25
,-8.995,-0.357,-4.683,-8.801,-0.866,-4.7,7.0,-3.08,4.48
,-8.591,-0.302,-4.716,-8.76,-0.83,-4.826,8.33,-3.85,3.36
,-8.622,-0.385,-4.568,-8.643,-0.768,-4.791,7.63,-4.2,2.8
23852.0,-8.593,-0.787,-4.815,-8.849,-0.79,-4.8,5.88,-6.09,0.42
,-8.492,-0.751,-4.956,-8.555,-0.974,-4.956,6.16,-5.04,0.0
,-8.658,-0.66,-4.724,-8.344,-1.175,-4.925,6.51,-3.43,-0.07
,-9.088,-0.699,-4.535,-8.526,-1.295,-4.637,4.48,-3.85,-0.21
23927.0,-8.751,-1.189,-4.573,-8.674,-0.897,-4.946,7.07,-7.56,-0.21
,-8.928,-0.909,-4.566,-8.614,-1.146,-5.209,8.33,-7.77,0.21
,-9.0,-0.735,-4.783,-8.528,-1.29,-4.834,7.14,-7.7,0.56
,-8.804,-0.56,-4.992,-8.404,-1.371,-4.585,4.06,-7.0,0.84
24003.0,-8.837,-1.357,-4.365,-8.88,-1.062,-4.637,4.83,-5.39,1.75
,-8.856,-1.314,-4.547,-8.89,-1.027,-4.537,5.67,-6.3,2.8
,-8.725,-1.161,-4.695,-8.756,-0.94,-4.688,6.72,-7.28,3.36
,-8.744,-1.134,-4.688,-8.813,-1.098,-4.606,7.77,-7.21,3.43
24079.0,-8.753,-1.342,-4.48,-8.945,-1.122,-4.429,4.27,-9.38,4.69
,-8.715,-1.553,-4.365,-8.909,-0.95,-4.326,5.88,-7.84,4.76
,-8.753,-1.488,-4.42,-8.77,-0.864,-4.274,9.31,-6.09,5.04
,-8.808,-1.385,-4.468,-8.626,-0.928,-4.135,12.95,-4.76,5.32
24155.0,-8.906,-0.885,-3.879,-8.949,-0.823,-4.18,11.69,-3.01,7.0
,-8.847,-0.902,-4.054,-8.997,-0.811,-4.056,10.71,-4.27,6.93
,-8.859,-0.943,-4.133,-9.122,-0.732,-4.204,8.75,-5.53,6.79
,-8.76,-0.864,-4.188,-8.911,-0.491,-4.264,7.91,-5.88,6.93
24230.0,-8.77,-0.459,-4.231,-9.347,-0.45,-3.549,7.07,-9.73,4.76
,-8.799,-0.644,-3.967,-9.246,-0.493,-3.58,5.6,-9.94,3.78
,-8.94,-0.842,-3.733,-9.086,-0.62,-3.611,5.53,-10.01,3.01
,-9.251,-0.648,-3.62,-8.849,-0.778,-3.987,6.79,-10.15,2.45
24306.0,-8.72,-1.012,-4.322,-9.009,-1.091,-3.699,-3.78,-12.46,0.63
,-8.729,-1.283,-4.18,-9.186,-0.672,-3.668,-3.08,-11.83,1.26
,-8.93,-1.486,-4.2,-9.299,-0.512,-3.836,-0.42,-11.06,1.54
,-8.837,-1.426,-3.91,-9.471,-0.565,-3.692,4.2,-10.43,1.47
24381.0,-9.306,-0.56,-3.546,-9.014,-1.163,-3.838,-3.36,-12.32,-0.63
,-9.184,-0.68,-3.613,-9.052,-1.517,-3.8,-4.83,-12.04,-1.26
,-8.861,-0.826,-3.728,-9.06,-1.409,-3.922,-5.04,-11.97,-1.68
,-8.856,-0.811,-3.664,-8.93,-1.182,-3.678,-4.83,-11.55,-1.47
24457.0,-9.127,-0.957,-3.594,-9.182,-1.211,-3.321,5.46,-10.99,0.14
,-9.088,-0.723,-3.62,-9.122,-1.374,-3.142,4.41,-11.27,-0.14
,-9.146,-0.622,-3.408,-9.148,-1.223,-2.881,2.31,-11.34,-0.14
,-9.131,-0.838,-3.36,-9.153,-0.838,-2.498,-1.19,-10.99,-0.42
24533.0,-9.316,-0.424,-2.718,-9.253,-1.017,-2.58,8.96,-6.3,-0.07
,-9.347,-0.447,-2.905,-9.411,-0.962,-2.699,4.97,-6.72,-0.42
,-9.296,-0.596,-2.68,-9.34,-0.864,-3.173,1.4,-5.81,-0.07
,-9.363,-0.876,-2.852,-9.284,-0.919,-3.558,-0.77,-4.9,-0.21
24609.0,-9.031,-1.297,-3.594,-9.354,-0.84,-3.819,-3.57,-4.13,-0.63
,-8.976,-1.603,-3.745,-9.249,-0.871,-3.623,-1.54,-3.64,-0.21
,-8.878,-1.484,-3.879,-9.294,-0.964,-3.518,3.36,-3.01,0.21
,-9.045,-1.074,-3.666,-9.249,-1.132,-3.472,8.19,-2.03,0.84
24685.0,-9.186,-1.074,-3.508,-9.402,-0.598,-3.041,6.79,-3.5,1.26
,-9.234,-0.83,-3.214,-9.49,-0.861,-3.214,8.47,-3.08,1.19
,-9.282,-0.572,-3.254,-9.32,-1.206,-3.106,7.35,-3.29,0.56
,-9.273,-0.457,-3.072,-9.316,-1.127,-3.384,4.27,-3.08,0.14
24760.0,-9.05,-1.034,-3.293,-9.153,-1.216,-3.486,-0.91,-2.52,-1.05
,-9.251,-0.821,-3.582,-9.34,-1.177,-3.795,0.0,-2.17,-0.91
,-9.232,-0.799,-3.68,-9.294,-1.067,-3.776,-1.19,-2.52,-1.05
,-9.139,-1.043,-3.637,-9.215,-1.041,-3.74,-3.01,-2.94,-0.84
24836.0,-9.182,-1.125,-3.293,-9.457,-0.608,-3.204,4.97,-2.52,0.7
,-9.356,-1.067,-3.209,-9.332,-0.766,-3.384,7.7,-2.38,0.7
,-9.366,-0.847,-2.953,-9.162,-1.091,-3.527,9.38,-2.38,0.49
,-9.476,-0.531,-3.003,-9.105,-1.271,-3.396,8.54,-2.66,0.28
24912.0,-9.167,-1.235,-3.245,-9.284,-1.019,-3.238,4.9,-2.31,-0.14
,-9.282,-1.22,-2.955,-9.15,-1.082,-3.384,6.23,-2.03,0.14
,-9.39,-1.05,-2.73,-9.1,-1.259,-3.293,6.93,-1.68,0.21
,-9.521,-1.003,-2.965,-9.057,-1.402,-2.946,6.16,-1.82,0.07
24988.0,-9.198,-1.261,-2.536,-9.428,-0.766,-1.943,7.63,0.91,1.05
,-9.466,-1.058,-2.271,-9.375,-0.797,-1.955,8.33,1.61,1.19
,-9.474,-0.876,-1.89,-9.399,-0.945,-2.209,8.12,2.8,1.26
,-9.631,-0.61,-2.058,-9.488,-0.909,-2.606,6.79,3.57,0.98
25063.0,-9.481,-0.794,-3.183,-8.997,-1.352,-4.293,1.33,7.35,-0.14
,-9.395,-0.739,-3.656,-9.091,-1.486,-3.996,-0.35,6.72,-0.28
,-9.21,-0.969,-4.087,-9.234,-1.419,-3.671,-2.1,6.23,-0.42
,-9.005,-1.225,-4.276,-9.407,-1.223,-3.551,-2.17,5.74,-0.21
25139.0,-9.399,-0.991,-3.429,-9.239,-1.065,-3.515,8.05,3.99,1.4
,-9.366,-0.914,-3.264,-9.225,-1.161,-3.417,6.3,3.64,1.19
,-9.33,-0.95,-3.283,-9.263,-1.216,-3.467,4.27,3.36,0.98
,-9.282,-0.948,-3.506,-9.194,-1.144,-3.436,3.01,2.94,0.63
25214.0,-9.201,-0.883,-3.35,-9.287,-1.053,-3.453,6.44,3.57,1.33
,-9.323,-0.828,-3.171,-9.208,-1.338,-3.429,6.72,3.64,1.05
,-9.38,-0.713,-3.388,-9.234,-1.275,-3.436,5.6,3.15,0.77
,-9.328,-0.804,-3.503,-9.366,-1.06,-3.573,3.01,2.52,0.35
25290.0,-9.325,-1.01,-3.534,-9.129,-1.065,-3.551,3.08,1.96,0.35
,-9.363,-1.0,-3.542,-9.213,-1.127,-3.498,2.1,1.54,0.35
,-9.28,-1.039,-3.637,-9.32,-1.115,-3.348,1.33,0.98,0.21
,-9.143,-1.108,-3.656,-9.342,-0.998,-3.372,2.24,1.12,0.35
25366.0,-9.27,-1.005,-3.281,-9.296,-1.074,-3.197,5.39,1.61,0.91
,-9.277,-1.034,-3.214,-9.32,-1.043,-3.408,4.83,1.82,0.84
,-9.375,-0.955,-3.202,-9.225,-1.204,-3.477,4.55,1.89,0.63
,-9.359,-1.031,-3.242,-9.194,-1.206,-3.489,3.08,1.82,0.28
25442.0,-9.143,-1.268,-3.556,-9.402,-0.914,-3.367,3.22,1.61,0.84
,-9.165,-1.278,-3.518,-9.316,-0.873,-3.326,4.97,2.03,1.26
,-9.203,-1.146,-3.424,-9.33,-0.936,-3.443,6.37,2.03,1.4
,-9.263,-0.993,-3.285,-9.246,-1.101,-3.51,7.0,2.24,1.4
25518.0,-9.189,-1.194,-3.477,-9.342,-0.835,-3.376,2.8,1.68,0.84
,-9.241,-1.129,-3.431,-9.304,-0.931,-3.424,4.34,1.96,0.91
,-9.328,-1.055,-3.422,-9.246,-1.187,-3.518,4.76,1.82,0.84
,-9.318,-0.909,-3.343,-9.165,-1.218,-3.582,4.55,1.82,0.77
25593.0,-9.139,-1.132,-3.625,-9.301,-0.964,-3.333,0.91,0.91,0.28
,-9.117,-1.127,-3.544,-9.27,-1.062,-3.285,1.96,0.91,0.49
,-9.16,-1.01,-3.489,-9.306,-1.11,-3.312,2.52,0.98,0.56
,-9.198,-0.991,-3.352,-9.287,-1.151,-3.41,2.38,1.05,0.7
25669.0,-9.215,-1.187,-3.47,-9.229,-1.232,-3.53,1.61,0.7,0.42
,-9.287,-1.122,-3.611,-9.256,-1.125,-3.525,1.54,0.42,0.35
,-9.167,-1.137,-3.673,-9.325,-0.902,-3.542,1.26,0.14,0.28
,-9.153,-1.206,-3.654,-9.277,-0.928,-3.508,1.33,0.21,0.63
25745.0,-9.217,-1.084,-3.408,-9.328,-1.06,-3.125,2.38,-0.77,0.7
,-9.215,-1.108,-3.451,-9.308,-1.012,-2.979,2.87,-0.77,0.91
,-9.232,-1.12,-3.415,-9.349,-0.857,-2.917,3.64,-0.77,0.98
,-9.21,-1.125,-3.281,-9.361,-0.802,-2.982,3.85,-0.35,0.91
25821.0,-9.273,-0.943,-3.027,-9.275,-1.103,-3.317,0.63,0.63,0.14
,-9.299,-1.058,-3.156,-9.313,-1.024,-3.329,0.07,0.84,0.07
,-9.229,-1.149,-3.187,-9.344,-1.096,-3.35,0.56,1.33,0.14
,-9.292,-1.175,-3.329,-9.294,-1.117,-3.484,1.4,1.54,0.07
25896.0,-9.261,-1.024,-3.599,-9.172,-1.201,-3.463,1.89,0.98,0.21
,-9.261,-0.983,-3.735,-9.287,-1.168,-3.345,1.82,0.84,-0.07
,-9.184,-1.086,-3.733,-9.308,-1.041,-3.209,1.33,0.49,0.0
,-9.124,-1.196,-3.652,-9.435,-0.938,-3.216,1.82,0.35,0.21
25972.0,-9.351,-0.96,-3.175,-9.289,-1.113,-3.276,2.94,0.42,0.28
,-9.33,-1.0,-3.163,-9.273,-1.098,-3.34,1.89,0.49,0.14
,-9.239,-1.067,-3.262,-9.287,-1.098,-3.501,1.33,0.63,-0.07
,-9.249,-1.139,-3.254,-9.229,-1.151,-3.676,1.61,0.98,-0.07
26047.0,-9.21,-1.175,-3.74,-9.299,-1.139,-3.314,2.59,0.21,0.63
,-9.229,-1.247,-3.778,-9.273,-1.015,-3.202,2.31,-0.14,0.56
,-9.194,-1.321,-3.714,-9.34,-0.905,-3.084,2.94,-0.42,0.63
,-9.215,-1.273,-3.503,-9.38,-0.914,-3.13,4.41,-0.35,0.98
26123.0,-9.328,-0.976,-3.151,-9.244,-1.125,-3.175,3.08,-0.28,0.7
,-9.208,-1.039,-3.252,-9.395,-1.041,-3.159,2.38,-0.28,0.63
,-9.191,-1.134,-3.204,-9.38,-1.053,-3.216,2.45,0.07,0.56
,-9.27,-1.146,-3.238,-9.301,-0.983,-3.13,3.08,0.28,0.56
26199.0,-9.328,-1.117,-3.128,-9.34,-1.048,-3.664,1.4,0.35,0.42
,-9.347,-1.309,-3.369,-9.27,-0.974,-3.793,0.98,0.28,0.35
,-9.263,-1.223,-3.463,-9.222,-1.046,-3.841,2.03,0.21,0.49
,-9.323,-1.065,-3.489,-9.129,-1.223,-3.656,2.8,0.14,0.49
26275.0,-9.184,-1.297,-3.441,-9.361,-1.0,-3.338,0.35,-1.82,0.35
,-9.208,-1.335,-3.374,-9.256,-1.12,-3.233,1.68,-1.89,0.63
,-9.325,-1.177,-3.35,-9.263,-1.225,-3.075,2.94,-2.1,0.77
,-9.335,-1.007,-3.417,-9.308,-1.187,-2.943,3.43,-2.52,0.84
26350.0,-9.33,-1.098,-2.888,-9.301,-1.0,-2.58,2.94,-1.68,0.98
,-9.311,-1.05,-2.797,-9.282,-1.031,-2.405,2.87,-1.4,0.98
,-9.363,-1.029,-2.747,-9.373,-1.027,-2.201,2.38,-0.98,1.05
,-9.301,-1.005,-2.687,-9.351,-1.031,-1.993,1.68,-0.63,0.98
26426.0,-9.368,-1.12,-1.864,-9.206,-1.065,-2.273,1.61,5.95,1.47
,-9.44,-1.184,-1.752,-9.28,-1.134,-2.237,1.96,7.21,1.61
,-9.464,-1.177,-2.041,-9.445,-1.079,-2.041,2.1,8.12,1.47
,-9.306,-1.046,-2.283,-9.457,-1.029,-2.008,1.19,9.1,1.33
26502.0,-9.584,-0.735,-2.446,-9.009,-1.524,-4.19,3.22,16.52,0.84
,-9.39,-0.524,-3.206,-8.926,-1.237,-3.9,1.82,16.03,0.42
,-9.146,-0.613,-3.807,-9.241,-0.555,-4.484,-1.96,15.26,0.21
,-9.028,-1.053,-4.216,-8.885,-0.237,-4.518,-5.39,14.7,0.21
26578.0,-9.093,0.132,-4.042,-8.849,-1.153,-3.384,-5.53,8.82,-2.59
,-9.222,-0.089,-4.044,-9.275,-0.768,-3.068,-11.41,7.42,-3.71
,-9.002,-0.737,-3.154,-9.155,-1.29,-3.802,-13.44,8.82,-4.06
,-9.426,-0.857,-3.262,-8.997,-2.187,-3.601,-10.29,9.45,-4.41
26654.0,-9.031,-2.912,-3.228,-9.22,-1.192,-4.087,-12.04,10.85,-0.84
,-9.215,-2.85,-3.527,-9.146,-1.177,-4.13,-4.9,11.27,0.49
,-9.136,-1.993,-3.149,-8.787,-1.45,-4.41,1.33,10.15,0.91
,-9.227,-1.072,-3.824,-8.655,-1.223,-3.573,-0.14,6.65,0.98
26729.0,-8.866,-1.089,-4.204,-8.985,-2.302,-3.843,0.56,5.88,3.22
,-9.028,-1.103,-4.551,-9.206,-1.249,-3.278,-1.47,2.94,3.64
,-9.584,-1.476,-4.532,-8.954,-0.347,-3.513,-4.13,2.59,5.25
,-9.27,-2.142,-4.515,-9.16,0.112,-3.3,-4.55,3.71,6.3
26805.0,-9.273,-0.01,-3.295,-8.935,-0.041,-3.506,2.1,6.79,5.46
,-9.215,-0.524,-3.223,-9.241,-0.129,-3.991,-3.5,7.28,4.9
,-9.165,-0.622,-2.704,-9.32,-0.256,-4.456,-2.52,8.75,3.64
,-8.847,-0.342,-3.185,-9.17,-0.311,-4.171,-0.21,8.05,2.1
26880.0,-8.859,-0.416,-3.594,-9.402,-1.531,-2.749,-7.91,9.03,-2.24
,-8.744,-0.586,-3.025,-8.973,-1.5,-3.343,-7.98,11.2,-3.57
,-9.033,-0.938,-2.749,-8.679,-1.153,-3.197,-8.4,12.46,-3.01
,-9.464,-1.347,-2.613,-9.002,-0.443,-3.817,-10.08,11.83,-1.68
26956.0,-8.909,-0.179,-4.243,-9.229,-0.254,-4.52,0.0,11.97,-1.75
,-9.045,0.203,-4.453,-8.739,-0.431,-4.47,-1.26,12.39,-1.96
,-8.851,0.105,-4.515,-8.818,-0.928,-3.711,-4.55,12.81,-2.94
,-9.33,-0.072,-4.405,-8.402,-1.713,-3.266,-6.51,12.11,-4.41
27032.0,-8.416,-2.407,-3.008,-8.562,-1.292,-4.716,-2.87,17.36,-3.92
,-9.067,-2.548,-3.211,-8.148,-0.952,-4.817,3.71,19.25,-1.68
,-9.579,-2.12,-3.977,-8.595,-0.639,-4.518,9.8,18.2,-0.21
,-9.263,-1.795,-4.527,-9.06,-0.412,-4.436,11.76,17.29,0.28
27108.0,-9.031,-0.172,-4.257,-9.06,-1.275,-4.374,5.53,15.96,-1.89
,-8.892,-0.134,-4.324,-8.892,-1.321,-4.556,-0.35,14.91,-2.31
,-8.717,-0.639,-4.178,-8.882,-1.228,-4.401,-5.46,15.4,-3.08
,-8.949,-1.141,-3.999,-8.897,-1.11,-4.566,-4.76,16.52,-3.08
27183.0,-8.89,-1.184,-4.898,-8.61,-0.239,-4.614,10.92,15.75,-2.66
,-8.744,-1.01,-5.104,-8.77,-0.333,-4.475,11.34,13.93,-2.94
,-8.983,-0.617,-4.97,-9.165,-0.529,-4.408,9.94,10.78,-3.5
,-8.442,-0.349,-5.066,-9.122,-0.912,-4.7,8.26,9.94,-4.76
27259.0,-8.866,-1.18,-4.891,-8.382,-1.768,-5.185,-5.11,8.26,-6.16
,-8.598,-1.606,-5.059,-9.048,-1.46,-4.762,-6.02,6.37,-4.76
,-7.999,-1.697,-5.353,-9.086,-1.431,-4.391,-3.64,5.46,-3.5
,-8.153,-1.797,-5.15,-8.748,-1.601,-3.963,0.0,4.97,-3.08
27335.0,-8.54,-1.699,-4.113,-8.363,-1.862,-5.41,13.51,11.06,-4.76
,-8.464,-1.646,-4.547,-8.083,-1.933,-5.334,15.54,11.34,-4.27
,-8.777,-1.575,-4.877,-8.09,-2.156,-5.358,17.15,10.71,-3.57
,-8.665,-1.598,-5.14,-8.519,-1.989,-5.255,17.57,10.15,-3.15
27411.0,-9.06,-1.601,-4.793,-8.794,-1.273,-5.133,22.54,11.48,1.26
,-9.16,-1.108,-4.855,-8.815,-1.572,-5.176,21.28,10.36,0.49
,-9.05,-1.117,-4.922,-8.337,-1.565,-5.494,18.06,9.73,-0.07
,-9.019,-1.33,-4.767,-7.966,-1.582,-5.645,14.56,8.19,-0.21
27487.0,-7.968,-1.689,-5.48,-9.361,-0.878,-5.166,10.64,4.27,3.43
,-8.33,-1.855,-5.181,-8.662,-0.285,-5.307,12.74,4.83,3.29
,-8.866,-1.761,-5.207,-8.674,-0.23,-4.949,15.75,4.48,2.94
,-9.332,-1.371,-5.018,-8.583,-0.263,-5.513,16.8,3.08,2.52
27562.0,-8.658,-0.986,-5.688,-8.339,-2.644,-4.752,-0.28,-4.62,0.42
,-8.586,-1.737,-5.188,-8.923,-2.386,-4.523,-2.59,-4.55,1.4
,-8.155,-2.254,-4.946,-8.708,-1.651,-4.642,-2.66,-4.2,2.8
,-8.021,-2.694,-4.891,-8.789,-1.103,-4.779,-0.21,-2.94,3.92
27638.0,-8.792,-1.17,-4.805,-8.469,-2.324,-4.2,-1.96,-4.27,6.44
,-8.677,-1.625,-4.597,-8.052,-1.768,-4.762,-6.51,-4.48,7.14
,-8.744,-2.206,-4.578,-8.174,-1.493,-5.008,-7.28,-4.06,8.12
,-8.827,-2.249,-4.391,-8.569,-0.998,-5.334,-6.37,-3.01,10.36
27713.0,-8.672,-0.677,-5.214,-9.016,-0.641,-4.74,0.63,-2.1,12.32
,-8.658,-0.773,-5.006,-8.851,-0.828,-4.587,0.91,-1.82,11.62
,-9.072,-0.665,-4.877,-8.595,-1.034,-4.549,1.33,-2.31,10.57
,-9.112,-0.555,-4.96,-8.342,-1.445,-4.374,0.91,-2.52,9.66
27789.0,-8.435,-1.661,-4.343,-8.646,-0.792,-4.815,-1.47,-0.07,8.4
,-8.775,-1.74,-4.453,-8.65,-0.306,-5.09,0.77,1.26,8.75
,-8.887,-1.663,-4.372,-9.026,-0.304,-4.989,3.29,2.03,9.03
,-8.837,-1.309,-4.578,-9.16,-0.455,-4.903,5.74,2.45,9.1
27865.0,-8.909,-0.629,-4.678,-8.327,-0.95,-4.776,6.51,1.75,2.52
,-8.722,-0.749,-4.642,-9.005,-0.311,-5.016,6.72,1.89,1.96
,-8.5,-0.986,-4.676,-9.234,-0.034,-5.252,6.86,2.17,1.4
,-8.191,-1.381,-4.58,-9.088,-0.043,-5.095,8.33,3.5,0.56
27941.0,-9.098,-0.294,-5.02,-8.306,-1.653,-4.377,7.28,2.66,-6.51
,-8.818,-0.684,-4.592,-8.428,-1.366,-4.618,6.02,2.52,-6.72
,-8.641,-1.417,-4.29,-8.904,-1.053,-4.764,4.9,3.08,-6.02
,-8.488,-1.838,-4.116,-9.012,-0.94,-4.92,5.25,4.13,-4.76
28016.0,-8.911,-1.022,-4.697,-8.715,-0.938,-4.642,2.17,4.27,-3.01
,-8.66,-1.082,-4.642,-8.837,-0.775,-5.035,0.77,4.62,-3.29
,-8.531,-1.283,-4.482,-8.825,-0.933,-5.004,-0.91,5.32,-3.29
,-8.469,-1.11,-4.501,-8.758,-1.237,-4.999,-0.98,5.67,-3.22
28092.0,-8.784,-1.57,-4.831,-8.744,-0.816,-4.92,-9.59,2.66,-2.45
,-8.708,-1.374,-4.975,-8.978,-0.704,-4.819,-7.63,2.31,-2.1
,-8.614,-1.046,-5.128,-8.839,-1.108,-4.834,-5.46,1.96,-2.24
,-8.741,-0.775,-4.958,-8.605,-1.584,-4.858,-5.11,2.24,-2.52
28168.0,-8.449,-1.833,-4.889,-8.626,-1.711,-4.853,-13.02,-0.49,-0.14
,-8.447,-2.132,-4.745,-8.483,-1.541,-5.106,-10.99,-0.07,0.56
,-8.581,-2.142,-4.697,-8.739,-1.419,-4.87,-7.63,0.42,1.19
,-8.758,-1.938,-4.704,-8.691,-1.374,-4.85,-4.13,0.56,1.61
28244.0,-8.653,-1.39,-4.891,-8.521,-1.072,-5.03,-4.27,-0.98,2.73
,-8.744,-1.328,-4.889,-8.722,-1.278,-4.893,-3.5,-1.19,3.01
,-8.715,-1.196,-4.996,-9.0,-1.316,-4.604,-2.38,-0.98,3.5
,-8.6,-1.218,-4.877,-8.851,-1.311,-4.769,-1.47,-0.91,4.2
28319.0,-8.54,-1.106,-4.834,-8.66,-0.756,-5.217,4.97,-3.29,1.61
,-8.512,-1.156,-5.08,-8.78,-0.718,-5.056,5.67,-3.92,2.24
,-8.708,-1.098,-4.841,-8.818,-0.586,-5.14,5.18,-4.27,2.24
,-8.603,-1.031,-5.025,-8.581,-0.584,-5.181,4.69,-4.55,1.96
28395.0,-8.76,-0.79,-4.855,-8.744,-1.139,-4.946,-2.24,-6.23,-1.33
,-8.792,-0.936,-4.922,-8.748,-1.381,-4.58,-1.12,-7.07,-1.4
,-8.717,-1.067,-4.901,-8.65,-1.625,-4.432,0.63,-7.28,-1.05
,-8.765,-1.117,-4.898,-8.619,-1.488,-4.487,2.87,-7.0,-0.7
28471.0,-8.476,-1.457,-4.52,-8.638,-2.02,-3.752,7.42,-4.69,0.56
,-8.885,-1.424,-4.369,-8.483,-1.481,-3.881,7.42,-4.83,0.7
,-9.112,-1.505,-4.283,-8.636,-1.122,-4.243,5.53,-6.65,0.98
,-8.806,-1.357,-4.324,-8.844,-0.96,-4.446,4.27,-7.49,1.19
28546.0,-8.746,-0.773,-4.724,-8.746,-1.244,-4.702,2.31,-8.96,3.92
,-8.88,-0.902,-4.609,-8.746,-0.988,-4.719,-0.28,-9.31,4.13
,-8.684,-1.034,-4.721,-9.21,-0.893,-4.41,-1.54,-9.52,3.99
,-8.674,-1.173,-4.673,-9.27,-0.534,-4.372,0.07,-8.54,3.78
28622.0,-8.734,-0.546,-4.707,-9.069,-0.907,-4.621,3.22,-11.69,2.66
,-8.437,-0.84,-4.917,-9.174,-0.687,-4.456,-0.28,-11.69,2.52
,-8.67,-1.22,-4.86,-8.851,-0.78,-4.604,-0.84,-10.01,2.31
,-8.882,-1.184,-4.671,-8.5,-1.074,-4.803,2.1,-8.96,1.82
28698.0,-8.521,-1.335,-4.642,-9.253,-0.924,-3.683,1.47,-7.0,1.61
,-8.871,-1.579,-4.341,-8.603,-0.715,-4.104,3.85,-6.65,1.61
,-9.088,-1.51,-3.989,-8.536,-0.924,-4.29,7.91,-7.63,1.96
,-9.241,-1.34,-3.783,-8.799,-1.309,-4.231,8.96,-9.94,2.1
28774.0,-8.918,-1.383,-4.14,-9.086,-0.627,-3.714,0.35,-14.0,3.22
,-8.784,-1.084,-3.848,-9.069,-0.641,-3.652,4.55,-12.04,2.8
,-8.894,-0.833,-3.678,-9.088,-0.658,-3.515,8.26,-9.52,1.96
,-9.005,-0.68,-3.534,-9.16,-0.715,-3.604,10.99,-6.72,1.33
28849.0,-9.076,-0.792,-3.795,-8.655,-1.06,-4.156,9.66,-2.38,1.89
,-9.024,-0.704,-3.862,-8.851,-1.345,-3.731,9.24,-2.31,1.75
,-9.005,-0.625,-4.209,-9.117,-1.555,-3.329,7.35,-3.78,1.4
,-8.765,-0.869,-4.391,-9.33,-1.302,-3.19,4.06,-5.18,1.26
28925.0,-9.428,-0.95,-3.168,-8.823,-1.295,-3.424,10.64,-4.62,0.84
,-9.354,-0.682,-2.965,-8.859,-1.354,-3.458,9.38,-4.76,1.19
,-9.325,-0.797,-3.515,-8.995,-1.115,-3.494,4.97,-6.37,0.91
,-8.997,-1.065,-3.553,-8.961,-0.727,-3.501,2.03,-6.3,1.19
29001.0,-9.208,-0.514,-3.537,-9.136,-1.608,-3.36,4.34,-5.95,1.89
,-9.189,-0.72,-3.376,-8.93,-1.742,-3.247,0.35,-6.51,1.75
,-9.395,-1.034,-3.108,-9.031,-1.721,-3.288,-1.33,-5.95,1.4
,-9.325,-1.263,-3.101,-9.064,-1.539,-3.312,-0.49,-5.32,0.77
29077.0,-9.141,-1.342,-3.384,-9.069,-0.799,-3.604,10.57,-2.94,3.01
,-9.165,-1.134,-3.147,-9.033,-0.995,-3.881,11.41,-2.03,3.01
,-9.32,-0.897,-3.587,-8.978,-1.065,-3.987,9.31,-2.66,2.24
,-9.012,-0.737,-3.537,-9.064,-1.158,-3.9,6.65,-3.15,1.68
29152.0,-9.258,-1.184,-3.731,-9.203,-1.275,-3.92,1.68,-3.78,1.05
,-9.17,-1.213,-3.589,-9.067,-1.412,-4.082,2.1,-3.5,0.91
,-9.33,-1.208,-3.467,-9.098,-1.496,-4.152,2.17,-3.43,1.12
,-9.351,-1.251,-3.649,-8.914,-1.464,-4.19,1.12,-4.2,1.26
29228.0,-8.969,-1.376,-4.006,-9.177,-0.924,-3.484,7.98,-5.04,3.5
,-9.05,-1.153,-3.484,-9.146,-1.194,-3.419,11.69,-4.55,4.27
,-9.397,-0.838,-3.527,-9.055,-1.352,-3.183,13.72,-5.25,4.41
,-9.244,-0.818,-3.565,-9.134,-1.127,-3.082,11.55,-6.3,4.41
29303.0,-9.203,-0.952,-2.651,-9.397,0.012,-3.132,13.79,-3.57,5.25
,-9.402,-0.66,-2.405,-9.215,-0.139,-3.594,13.51,-2.52,5.04
,-9.579,-0.361,-2.575,-9.081,-0.38,-3.778,12.32,-2.24,4.41
,-9.581,-0.101,-2.848,-9.009,-0.792,-3.786,8.47,-3.08,3.22
29379.0,-9.11,-1.065,-3.888,-9.129,-1.089,-3.498,-6.3,-3.71,-0.49
,-9.124,-1.491,-3.551,-9.201,-1.027,-3.446,-5.11,-3.22,-0.21
,-9.34,-1.613,-3.477,-9.196,-1.106,-3.333,-1.68,-3.08,0.28
,-9.359,-1.414,-3.719,-9.215,-1.058,-3.151,0.63,-3.92,0.56
29455.0,-9.387,-0.823,-2.958,-9.344,-1.175,-2.388,1.19,-3.01,1.05
,-9.435,-0.878,-3.192,-9.529,-1.007,-2.395,-1.68,-3.64,0.63
,-9.162,-1.029,-2.905,-9.509,-0.775,-2.639,-3.43,-3.36,0.77
,-9.177,-1.108,-2.565,-9.402,-0.524,-2.814,-3.29,-2.1,0.98
29531.0,-9.392,-0.68,-3.386,-9.284,-1.182,-2.797,-0.98,0.42,0.91
,-9.194,-0.842,-3.47,-9.612,-0.902,-2.922,-0.77,0.7,0.84
,-9.055,-0.988,-3.439,-9.619,-0.648,-3.362,-0.14,1.33,1.12
,-9.17,-1.187,-3.156,-9.383,-0.684,-4.022,2.1,2.45,1.26
29607.0,-8.995,-1.062,-4.228,-9.524,-0.766,-3.379,0.28,1.05,0.7
,-8.914,-1.395,-4.034,-9.488,-0.514,-3.19,2.24,1.68,1.26
,-9.093,-1.462,-3.754,-9.33,-0.586,-3.12,7.63,2.45,1.68
,-9.385,-1.132,-3.606,-9.148,-0.78,-3.041,12.53,2.66,2.17
29682.0,-9.136,-1.151,-2.888,-9.435,-0.792,-2.405,3.36,1.82,0.77
,-9.21,-1.28,-2.699,-9.44,-0.546,-2.596,3.64,2.59,0.77
,-9.308,-1.173,-2.568,-9.378,-0.577,-2.862,4.34,3.22,0.84
,-9.426,-1.024,-2.443,-9.225,-0.881,-3.192,4.83,4.27,0.98
29758.0,-9.083,-1.235,-3.259,-9.428,-0.668,-3.731,-2.66,6.37,0.0
,-9.064,-1.352,-3.147,-9.194,-0.72,-3.917,-0.21,7.28,0.49
,-9.337,-1.213,-3.245,-9.074,-0.986,-3.996,3.01,7.63,0.7
,-9.483,-0.905,-3.405,-9.05,-1.24,-4.054,5.11,7.42,0.63
29834.0,-9.131,-1.323,-3.994,-9.234,-0.948,-3.539,-1.12,4.83,-0.07
,-9.184,-1.347,-3.85,-9.139,-0.96,-3.391,0.63,4.9,0.35
,-9.323,-1.287,-3.664,-9.225,-1.046,-3.338,3.01,4.97,0.91
,-9.359,-1.01,-3.714,-9.251,-0.943,-3.367,4.55,4.27,1.19
29910.0,-9.294,-0.893,-3.297,-9.165,-0.876,-3.707,1.33,4.27,0.7
,-9.289,-0.885,-3.4,-9.153,-0.967,-3.642,0.56,4.2,0.63
,-9.277,-0.78,-3.539,-9.21,-1.022,-3.577,0.07,3.85,0.49
,-9.227,-0.735,-3.623,-9.313,-0.979,-3.599,-0.42,3.85,0.14
29985.0,-9.27,-0.835,-3.544,-9.17,-1.065,-3.465,-0.35,3.29,-0.63
,-9.215,-0.785,-3.561,-9.256,-1.036,-3.515,-1.47,3.22,-0.77
,-9.244,-0.948,-3.57,-9.21,-1.012,-3.609,-2.38,3.22,-0.84
,-9.203,-1.062,-3.491,-9.206,-0.986,-3.625,-1.96,3.29,-0.84
30061.0,-9.122,-0.986,-3.719,-9.194,-1.194,-3.549,0.77,3.15,-0.35
,-9.155,-0.933,-3.687,-9.249,-1.122,-3.508,0.49,3.08,-0.35
,-9.182,-1.041,-3.716,-9.277,-0.983,-3.63,-0.63,2.73,-0.42
,-9.16,-1.115,-3.678,-9.222,-0.888,-3.666,-0.98,2.59,-0.56
30136.0,-9.237,-0.916,-3.757,-9.215,-0.895,-3.81,-1.05,2.1,-0.28
,-9.165,-1.024,-3.807,-9.249,-0.723,-3.752,-1.61,2.03,-0.28
,-9.062,-1.07,-3.721,-9.167,-0.806,-3.757,-1.19,1.68,-0.28
,-9.162,-1.029,-3.702,-9.119,-0.962,-3.68,-0.56,1.61,-0.35
30212.0,-9.122,-1.134,-3.501,-9.296,-0.536,-3.233,-4.27,0.77,-1.05
,-9.162,-1.132,-3.362,-9.318,-0.749,-3.333,-2.66,1.26,-0.91
,-9.225,-1.086,-3.163,-9.184,-0.993,-3.422,-1.33,1.47,-0.77
,-9.282,-0.775,-3.046,-9.253,-1.247,-3.51,-1.05,1.54,-0.98
30288.0,-9.182,-1.366,-3.747,-9.086,-1.034,-3.975,-5.81,2.1,-1.68
,-9.141,-1.28,-3.843,-9.139,-1.067,-3.884,-3.29,2.03,-1.19
,-9.155,-1.184,-4.07,-9.124,-1.134,-3.905,-1.26,1.82,-0.56
,-9.088,-1.108,-4.087,-9.146,-1.139,-3.85,0.49,1.61,-0.35
30364.0,-9.16,-1.024,-3.735,-9.234,-0.888,-3.333,2.8,0.56,0.77
,-9.17,-1.015,-3.671,-9.349,-0.964,-3.46,3.92,0.49,0.91
,-9.203,-0.907,-3.515,-9.246,-0.957,-3.546,4.41,0.56,0.84
,-9.141,-0.866,-3.448,-9.16,-0.94,-3.707,4.34,0.7,0.98
30440.0,-9.139,-1.005,-3.733,-9.241,-0.928,-3.733,2.73,0.7,0.42
,-9.141,-1.034,-3.728,-9.258,-0.881,-3.676,3.43,0.77,0.42
,-9.22,-0.972,-3.728,-9.179,-0.912,-3.68,3.71,0.63,0.42
,-9.21,-0.912,-3.702,-9.184,-0.976,-3.625,3.64,0.42,0.21
30515.0,-9.143,-1.072,-3.482,-9.177,-1.079,-3.731,3.64,0.63,0.14
,-9.222,-0.988,-3.419,-9.11,-1.242,-3.781,5.25,0.63,0.28
,-9.294,-0.802,-3.513,-9.139,-1.218,-3.845,5.53,0.42,0.14
,-9.27,-0.912,-3.599,-9.191,-1.146,-3.807,3.71,0.35,0.0
30591.0,-9.139,-1.163,-3.594,-9.296,-0.895,-3.448,5.53,0.07,0.56
,-9.203,-1.065,-3.527,-9.201,-0.94,-3.415,6.02,-0.21,0.56
,-9.191,-1.034,-3.376,-9.232,-0.979,-3.403,5.95,0.07,0.63
,-9.28,-0.909,-3.34,-9.172,-1.003,-3.36,5.67,0.21,0.63
30667.0,-9.201,-1.003,-3.427,-9.251,-1.007,-3.656,3.15,0.56,0.0
,-9.28,-1.036,-3.369,-9.115,-1.039,-3.745,3.22,0.7,0.07
,-9.234,-1.048,-3.439,-9.136,-1.182,-3.798,3.01,0.77,0.0
,-9.296,-1.027,-3.577,-9.186,-1.204,-3.716,3.08,0.49,0.0
30743.0,-9.227,-1.072,-3.704,-9.249,-1.019,-3.491,4.34,0.21,0.49
,-9.239,-1.086,-3.623,-9.165,-1.05,-3.455,4.69,0.07,0.49
,-9.21,-1.003,-3.551,-9.217,-1.067,-3.412,4.62,0.0,0.49
,-9.261,-1.0,-3.47,-9.234,-1.089,-3.429,4.06,0.0,0.35
30818.0,-9.21,-1.058,-3.544,-9.167,-1.12,-3.57,3.5,0.0,0.14
,-9.246,-0.986,-3.549,-9.155,-1.125,-3.623,3.71,0.07,0.21
,-9.263,-1.003,-3.549,-9.182,-1.173,-3.496,3.36,-0.07,0.14
,-9.203,-1.048,-3.565,-9.284,-1.175,-3.367,2.8,0.07,0.14
30894.0,-9.282,-1.129,-3.235,-9.174,-1.053,-3.434,3.57,0.49,0.63
,-9.258,-1.082,-3.202,-9.06,-1.175,-3.477,3.64,0.56,0.7
,-9.244,-1.039,-3.262,-9.162,-1.199,-3.477,2.94,0.56,0.56
,-9.191,-1.043,-3.331,-9.237,-1.096,-3.568,2.03,0.56,0.56
30969.0,-9.241,-0.969,-3.486,-9.234,-1.055,-3.704,2.03,0.84,0.49
,-9.313,-0.991,-3.542,-9.232,-1.177,-3.764,1.05,0.84,0.49
,-9.32,-0.914,-3.649,-9.153,-1.285,-3.778,0.21,0.56,0.42
,-9.217,-0.859,-3.678,-9.117,-1.263,-3.714,-1.12,0.21,0.28
31045.0,-9.229,-1.039,-3.678,-9.112,-1.335,-3.372,0.21,-0.63,0.7
,-9.241,-0.845,-3.532,-9.11,-1.371,-3.312,-0.28,-0.77,0.63
,-9.287,-0.873,-3.532,-9.184,-1.223,-3.355,-2.17,-1.05,0.49
,-9.217,-1.041,-3.482,-9.261,-1.06,-3.415,-3.71,-1.26,0.56
31121.0,-9.22,-1.024,-3.41,-9.325,-0.838,-2.69,3.08,-0.49,1.82
,-9.265,-1.141,-3.525,-9.304,-0.586,-2.367,3.22,-0.49,2.03
,-9.196,-1.23,-3.372,-9.591,-0.493,-2.118,4.55,-0.21,2.17
,-9.301,-1.098,-3.113,-9.72,-0.5,-2.264,6.37,0.14,2.03
31197.0,-9.313,-0.826,-2.565,-9.407,-0.919,-2.821,-8.68,0.98,0.14
,-8.921,-1.28,-2.728,-9.107,-0.637,-2.972,-12.88,1.89,0.42
,-8.796,-1.709,-2.812,-9.359,-0.476,-2.927,-12.6,3.78,0.7
,-8.861,-1.565,-2.501,-9.251,-0.694,-3.252,-7.0,6.44,0.98
31272.0,-9.387,-0.725,-2.871,-8.849,-0.617,-3.202,-0.21,11.2,1.26
,-9.639,-0.828,-3.089,-9.072,-1.031,-3.01,1.4,11.48,0.7
,-9.55,-0.529,-3.352,-9.17,-1.409,-3.082,-0.56,9.24,-0.07
,-8.916,-0.459,-3.618,-8.949,-1.352,-3.518,-7.7,7.21,-0.49
31348.0,-9.026,-1.261,-3.877,-8.787,-1.278,-4.369,-12.95,8.33,0.28
,-8.957,-1.577,-4.468,-8.918,-0.842,-4.054,-11.27,8.68,1.4
,-8.839,-1.814,-4.807,-9.04,-0.263,-3.386,-5.32,9.73,3.01
,-9.1,-1.644,-4.882,-9.186,-0.017,-3.81,4.97,11.62,3.92
31424.0,-9.026,-0.471,-3.833,-9.155,0.191,-3.738,11.27,10.01,1.96
,-9.502,-1.204,-3.192,-8.78,0.007,-4.252,4.76,10.57,1.96
,-9.581,-1.405,-3.003,-8.914,-0.854,-4.444,3.15,9.45,1.54
,-9.426,-0.584,-2.345,-8.839,-1.768,-4.204,8.05,9.31,0.77
31500.0,-8.827,-1.84,-3.575,-9.213,-0.869,-3.099,-4.27,12.81,-0.35
,-9.06,-1.086,-3.13,-9.107,-1.563,-2.819,5.46,14.63,-1.47
,-8.851,-0.273,-3.23,-9.304,-1.378,-2.848,8.4,14.07,-2.66
,-9.15,-0.184,-3.206,-9.263,-0.675,-3.637,4.27,14.21,-2.45
31576.0,-8.856,-0.388,-4.24,-8.832,-1.362,-3.58,-0.7,8.26,-1.61
,-8.67,-0.943,-4.372,-9.045,-0.581,-3.309,-7.35,9.38,-1.05
,-8.512,-1.737,-4.006,-9.392,0.0,-3.776,-10.01,12.67,0.14
,-8.784,-1.948,-3.668,-9.158,-0.132,-4.307,-5.67,16.1,0.77
31651.0,-9.064,-0.45,-4.367,-8.952,0.017,-4.549,-8.33,15.26,-1.33
,-8.55,-0.763,-4.374,-9.306,-0.175,-4.338,-9.52,15.68,-1.61
,-8.392,-0.524,-4.015,-9.158,-0.56,-3.963,-6.72,16.73,-2.87
,-8.492,-0.134,-4.501,-8.918,-0.814,-3.542,-3.71,15.96,-4.27
31727.0,-8.49,-0.89,-3.451,-9.028,-1.881,-4.738,-4.9,20.65,-6.93
,-8.629,-0.859,-4.262,-8.619,-1.323,-4.829,-2.94,18.83,-6.16
,-8.854,-1.378,-4.786,-8.179,-0.852,-5.209,-4.41,17.57,-5.25
,-9.414,-1.799,-4.767,-8.177,-0.732,-5.386,-4.34,16.87,-4.2
31802.0,-8.325,-0.689,-5.382,-8.607,-2.276,-4.197,-2.24,12.32,-3.99
,-8.825,-1.117,-4.843,-8.478,-2.0,-4.417,-6.51,13.44,-3.99
,-8.961,-1.701,-4.374,-8.612,-1.675,-4.681,-7.77,15.05,-3.85
,-8.744,-2.235,-4.257,-8.756,-1.579,-4.834,-5.11,16.52,-3.5
31878.0,-8.751,-1.438,-5.068,-8.488,-0.474,-5.616,8.82,13.44,2.73
,-8.342,-1.445,-5.413,-8.66,-0.232,-5.353,8.68,12.95,3.29
,-8.457,-1.297,-5.523,-8.856,-0.146,-5.073,8.75,12.6,3.08
,-8.452,-0.983,-5.8,-9.179,-0.179,-4.965,9.03,11.9,2.24
31954.0,-9.033,-0.366,-5.114,-9.014,-1.17,-5.276,2.73,8.33,-2.66
,-8.844,-0.919,-4.831,-8.756,-0.491,-5.815,1.61,7.63,-2.59
,-8.435,-1.211,-5.123,-8.232,-0.373,-5.942,3.99,5.88,-2.38
,-8.313,-1.584,-5.243,-7.925,-0.916,-5.714,7.14,6.37,-2.52
32030.0,-8.43,-1.56,-4.951,-8.385,-2.254,-4.719,3.22,3.85,-3.78
,-8.521,-2.302,-4.386,-8.263,-1.732,-5.047,3.36,4.06,-2.87
,-8.799,-2.513,-4.319,-8.27,-1.543,-5.169,4.83,3.71,-1.89
,-8.581,-2.338,-4.803,-8.667,-1.163,-5.264,6.09,3.78,-0.56
32105.0,-8.844,-0.976,-5.396,-8.732,-1.108,-5.154,10.85,4.9,2.52
,-9.028,-0.761,-5.133,-8.478,-1.481,-5.118,10.43,4.76,2.1
,-8.827,-0.443,-5.425,-7.873,-2.158,-4.858,9.8,3.5,0.91
,-8.533,-0.651,-5.518,-8.246,-2.759,-4.707,8.26,2.73,-0.21
32181.0,-8.739,-2.338,-4.81,-8.729,-0.431,-5.212,13.16,3.85,4.13
,-8.717,-1.529,-5.269,-8.818,-0.601,-5.145,18.41,2.66,3.85
,-8.665,-1.012,-5.305,-8.67,-0.818,-5.176,19.81,2.38,3.01
,-8.875,-0.467,-5.243,-8.311,-0.835,-5.269,19.11,2.03,2.31
32256.0,-8.287,-1.113,-5.13,-8.938,-1.34,-4.929,5.53,-0.56,1.96
,-8.177,-1.381,-5.087,-8.964,-1.065,-4.575,3.71,-1.12,3.29
,-8.141,-1.548,-5.02,-8.653,-0.873,-4.661,3.08,-1.47,4.69
,-8.509,-1.606,-4.987,-8.555,-0.866,-4.929,3.64,-1.33,5.18
32332.0,-9.064,-0.945,-5.441,-8.457,-1.565,-4.879,-3.5,-3.78,3.92
,-8.658,-0.665,-5.614,-8.466,-2.132,-4.508,-1.61,-2.59,1.4
,-8.677,-0.584,-5.31,-8.373,-2.443,-4.594,-2.03,-1.54,-0.21
,-8.497,-1.01,-5.138,-8.308,-2.429,-4.554,-3.08,-1.61,-0.49
32408.0,-8.44,-2.079,-4.836,-8.492,-1.51,-4.494,2.87,2.87,4.97
,-8.622,-1.704,-5.054,-8.141,-1.321,-4.58,3.71,3.71,5.11
,-8.997,-1.613,-4.829,-8.258,-1.067,-4.903,3.43,3.71,4.97
,-9.105,-1.591,-4.324,-8.674,-0.936,-5.226,1.54,3.08,5.25
32484.0,-8.983,-0.861,-4.884,-8.526,-1.256,-4.905,2.24,4.9,5.81
,-8.868,-0.94,-4.877,-8.531,-1.247,-5.097,3.01,4.27,5.74
,-8.658,-1.043,-5.011,-8.55,-0.972,-5.288,4.41,3.92,5.32
,-8.519,-1.101,-4.913,-8.485,-0.483,-5.317,5.95,4.48,4.83
32560.0,-8.76,-0.378,-5.441,-8.629,-1.402,-5.004,6.65,5.11,1.05
,-8.552,-0.972,-5.25,-8.588,-1.598,-4.846,4.13,4.06,0.7
,-8.404,-1.223,-5.135,-8.44,-1.565,-4.913,4.48,3.92,0.21
,-8.457,-1.302,-5.229,-8.351,-1.168,-5.142,5.32,4.48,-0.07
32635.0,-8.607,-1.283,-5.073,-8.581,-0.562,-5.181,5.6,5.67,1.4
,-8.823,-1.45,-4.96,-8.689,-0.586,-4.992,4.69,5.6,1.61
,-8.452,-1.283,-4.982,-8.796,-0.313,-5.279,5.88,5.39,1.33
,-8.33,-0.79,-5.264,-8.713,-0.266,-5.48,5.53,5.53,1.05
32711.0,-8.839,-0.206,-5.36,-8.586,-0.268,-5.855,-8.4,3.22,-1.61
,-8.717,-0.404,-5.286,-8.667,-0.838,-5.528,-9.17,2.31,-2.45
,-8.519,-0.144,-5.439,-8.591,-1.644,-5.374,-9.31,1.19,-2.87
,-8.461,-0.038,-5.772,-8.674,-2.151,-5.219,-10.01,0.7,-3.01
32787.0,-8.607,-2.369,-5.14,-8.66,-2.659,-5.095,-8.75,-1.47,-2.52
,-8.526,-2.245,-5.221,-8.449,-2.778,-5.006,-5.32,-2.52,-0.63
,-8.411,-2.264,-5.322,-8.452,-2.687,-4.915,-3.92,-3.71,0.98
,-8.356,-2.443,-5.36,-8.244,-2.211,-5.15,-3.64,-3.85,2.1
32863.0,-8.007,-1.847,-5.279,-8.689,-0.536,-5.351,-1.82,-3.01,11.9
,-8.39,-1.596,-5.054,-8.729,-0.404,-5.394,-2.31,-2.24,12.6
,-8.871,-1.194,-5.025,-8.512,-0.349,-5.305,-1.54,-3.36,12.67
,-8.756,-0.754,-5.099,-8.361,-0.043,-5.487,-0.35,-4.62,12.39
32938.0,-8.624,0.038,-5.346,-8.222,-0.218,-5.307,4.76,-4.62,5.04
,-9.375,0.038,-4.482,-8.406,-0.589,-5.083,5.46,-5.53,2.73
,-9.263,0.266,-4.812,-8.667,-0.749,-4.989,5.25,-9.03,2.24
,-8.421,0.132,-5.164,-8.684,-0.948,-4.669,2.17,-10.15,2.24
33014.0,-8.533,-0.957,-4.594,-9.232,-1.108,-4.314,5.81,-8.12,-0.7
,-8.488,-0.979,-4.728,-8.375,-0.687,-4.791,5.81,-7.28,-0.07
,-8.614,-1.175,-4.673,-7.851,-0.648,-4.882,6.3,-5.53,-0.14
,-9.057,-1.23,-4.41,-8.22,-0.988,-4.731,6.65,-5.32,-0.28
33089.0,-8.725,-1.117,-4.774,-8.452,-0.421,-4.956,0.49,-8.61,1.82
,-9.086,-1.108,-4.64,-8.478,-0.591,-5.08,3.08,-8.54,1.61
,-9.16,-0.883,-4.527,-8.619,-0.766,-4.87,4.83,-8.68,1.47
,-9.127,-0.455,-4.606,-8.646,-1.058,-4.623,3.29,-10.29,1.12
33165.0,-8.796,-1.07,-4.635,-8.844,-0.555,-4.568,-1.47,-10.08,1.75
,-8.751,-1.017,-4.637,-9.079,-0.689,-4.42,0.84,-9.59,1.61
,-8.713,-0.881,-4.681,-9.048,-0.632,-4.491,3.36,-8.61,1.19
,-8.617,-0.579,-4.736,-8.581,-0.742,-4.8,5.81,-7.42,0.84
33241.0,-8.502,-1.06,-4.745,-8.926,-1.062,-4.681,-0.98,-11.06,0.49
,-8.61,-1.342,-4.379,-8.607,-0.948,-4.736,0.77,-10.08,0.07
,-8.892,-1.342,-4.365,-8.99,-1.091,-4.188,3.92,-9.52,0.35
,-8.859,-1.285,-4.652,-9.139,-1.027,-3.951,6.58,-9.17,1.26
33317.0,-8.868,-0.751,-4.188,-9.16,-1.192,-3.604,3.29,-15.47,2.94
,-8.588,-0.622,-4.283,-8.933,-0.991,-3.862,-0.14,-16.87,3.15
,-8.722,-0.711,-4.156,-8.77,-0.759,-4.097,-3.15,-16.31,3.15
,-8.926,-1.096,-3.879,-8.88,-0.534,-4.257,-3.85,-14.84,2.66
33393.0,-9.074,-0.428,-4.448,-8.595,-0.725,-3.702,3.36,-8.33,1.75
,-9.112,-0.361,-4.355,-8.808,-0.952,-3.668,3.29,-7.84,1.4
,-9.416,-0.438,-4.061,-8.971,-1.125,-3.352,-0.07,-11.69,0.49
,-8.76,-0.632,-4.032,-8.969,-1.173,-3.434,-3.85,-15.26,-0.28
33468.0,-8.906,-1.242,-3.439,-9.124,0.165,-4.494,-0.56,-9.94,0.77
,-9.32,-1.194,-3.159,-9.04,-0.172,-4.424,2.17,-9.31,1.26
,-9.237,-0.763,-3.896,-8.832,-0.586,-3.805,3.99,-10.85,0.91
,-8.966,-0.211,-4.36,-9.249,-0.873,-3.151,3.99,-11.55,0.7
33544.0,-9.332,-0.849,-2.936,-9.107,-1.244,-4.099,0.0,-4.55,-2.59
,-8.952,-0.383,-3.135,-9.043,-1.395,-3.915,0.28,-6.3,-2.1
,-9.021,-0.579,-3.542,-8.978,-1.285,-3.63,-3.57,-7.35,-1.47
,-9.129,-0.916,-3.788,-8.875,-0.998,-3.635,-6.09,-6.37,-0.98
33620.0,-8.909,-0.957,-3.233,-9.117,-1.508,-3.472,6.09,-1.12,-0.63
,-9.131,-1.055,-3.147,-9.021,-1.196,-3.448,6.3,-0.14,0.07
,-9.143,-1.192,-2.955,-9.366,-0.897,-3.324,6.72,0.98,0.77
,-9.253,-1.4,-3.166,-9.296,-0.455,-3.656,9.1,1.96,1.4
33696.0,-9.16,-0.287,-3.915,-9.036,-1.347,-3.747,19.39,0.91,2.87
,-9.11,-0.562,-4.286,-9.136,-0.857,-3.242,14.56,-0.35,2.8
,-8.99,-1.122,-4.298,-9.325,-0.541,-3.118,11.34,-0.77,2.66
,-9.074,-1.345,-4.066,-9.411,-0.672,-3.35,13.79,0.07,2.52
33771.0,-9.282,-0.749,-3.257,-8.885,-1.17,-4.185,8.33,-0.42,1.47
,-9.418,-0.888,-3.51,-9.026,-1.12,-3.836,5.95,-1.47,1.26
,-9.15,-1.046,-4.066,-9.162,-0.773,-3.565,4.2,-2.87,1.12
,-8.856,-1.065,-4.302,-9.318,-0.38,-3.147,3.57,-3.43,1.26
33847.0,-9.519,-0.268,-3.422,-8.94,-1.328,-3.8,5.25,-3.71,0.42
,-9.122,-0.541,-3.283,-9.091,-1.17,-3.575,0.7,-3.92,0.21
,-9.165,-0.847,-3.369,-9.277,-0.95,-3.592,-0.84,-3.71,-0.14
,-9.076,-1.283,-3.685,-9.201,-0.658,-3.537,-0.21,-3.71,-0.35
33922.0,-9.407,-0.474,-3.774,-9.0,-1.508,-3.544,7.84,-3.29,0.49
,-9.277,-0.727,-4.235,-9.201,-1.05,-3.147,3.36,-5.04,-0.14
,-8.942,-1.146,-4.097,-9.552,-0.438,-3.276,1.47,-5.25,0.0
,-8.952,-1.424,-3.9,-9.404,-0.376,-3.372,3.92,-4.62,0.49
33998.0,-9.318,-0.778,-3.762,-9.186,-1.017,-3.766,0.84,-6.02,-0.28
,-9.062,-1.357,-3.81,-9.198,-0.797,-3.372,-1.47,-5.95,-0.28
,-8.94,-1.529,-3.862,-9.395,-0.689,-3.242,1.54,-5.18,0.07
,-9.198,-1.29,-3.886,-9.325,-0.737,-2.991,7.21,-4.55,0.21
34074.0,-9.287,-0.651,-2.927,-9.215,-1.261,-2.749,10.43,-4.13,0.42
,-9.304,-0.694,-3.053,-9.308,-0.974,-2.757,7.28,-4.34,-0.35
,-9.115,-1.031,-3.254,-9.476,-0.639,-2.788,2.73,-4.55,-0.91
,-8.978,-1.28,-2.972,-9.524,-0.517,-3.049,1.61,-3.36,-0.7
34150.0,-9.292,-0.713,-3.185,-9.213,-1.302,-2.958,-0.98,-1.26,-1.4
,-9.143,-0.991,-3.376,-9.349,-1.01,-2.663,-1.89,-0.98,-1.26
,-8.954,-1.304,-3.424,-9.603,-0.816,-3.053,-0.28,-0.56,-0.98
,-8.976,-1.412,-3.19,-9.5,-0.663,-3.532,3.43,0.56,-0.49
34225.0,-9.131,-0.921,-3.836,-9.344,-1.153,-3.79,2.66,0.21,-0.28
,-9.055,-1.354,-4.068,-9.313,-0.95,-3.565,1.47,0.0,-0.35
,-9.012,-1.656,-4.046,-9.316,-0.864,-3.36,3.57,0.28,0.0
,-9.196,-1.467,-3.905,-9.237,-0.976,-3.204,8.05,0.56,0.49
34301.0,-9.198,-1.168,-2.991,-9.438,-0.713,-2.429,7.35,-0.42,0.63
,-9.244,-1.357,-2.608,-9.378,-0.641,-2.486,7.63,0.56,0.77
,-9.342,-1.237,-2.288,-9.33,-0.747,-2.596,9.17,1.61,1.05
,-9.462,-1.003,-2.29,-9.32,-0.823,-3.111,9.45,2.31,0.98
34377.0,-9.21,-0.94,-3.329,-9.155,-1.309,-3.841,-3.57,4.13,-1.4
,-9.213,-1.12,-3.611,-9.232,-1.259,-3.771,-4.2,4.41,-1.4
,-9.088,-1.28,-3.869,-9.32,-1.153,-3.884,-2.8,4.27,-1.05
,-9.098,-1.357,-3.853,-9.239,-1.158,-3.798,0.28,4.2,-0.49
34453.0,-9.241,-1.237,-3.609,-9.158,-1.261,-3.652,3.85,2.45,0.49
,-9.301,-1.247,-3.632,-9.229,-1.304,-3.63,3.99,1.96,0.42
,-9.273,-1.216,-3.666,-9.182,-1.225,-3.666,4.34,1.54,0.42
,-9.311,-1.146,-3.714,-9.148,-1.108,-3.637,4.13,1.12,0.42
34529.0,-9.143,-1.055,-3.53,-9.318,-1.036,-3.515,8.33,0.49,1.54
,-9.263,-0.969,-3.451,-9.122,-1.206,-3.508,8.4,0.49,1.61
,-9.316,-0.909,-3.429,-9.088,-1.228,-3.412,7.42,0.28,1.47
,-9.328,-0.9,-3.391,-9.222,-1.192,-3.451,6.02,-0.14,1.26
34604.0,-9.251,-1.022,-3.345,-9.296,-1.082,-3.08,5.18,-0.21,0.91
,-9.347,-0.948,-3.221,-9.258,-1.117,-3.132,3.92,-0.42,0.7
,-9.296,-1.086,-3.154,-9.232,-1.046,-3.233,2.66,-0.28,0.63
,-9.225,-1.103,-3.029,-9.251,-1.067,-3.278,2.45,0.07,0.63
34680.0,-9.256,-1.158,-3.262,-9.299,-1.11,-3.338,1.12,0.91,0.28
,-9.261,-1.153,-3.271,-9.225,-1.115,-3.465,1.47,1.05,0.28
,-9.299,-1.127,-3.288,-9.237,-1.141,-3.494,1.75,1.26,0.35
,-9.251,-1.141,-3.283,-9.27,-1.108,-3.599,1.4,1.19,0.35
34755.0,-9.189,-1.189,-3.656,-9.275,-1.098,-3.257,0.98,0.91,0.42
,-9.201,-1.208,-3.549,-9.351,-1.062,-3.216,1.61,0.84,0.77
,-9.249,-1.153,-3.46,-9.332,-1.031,-3.305,2.45,1.05,0.98
,-9.299,-1.177,-3.36,-9.258,-1.043,-3.391,2.87,1.26,0.91
34831.0,-9.273,-1.079,-3.601,-9.313,-1.115,-3.537,-0.49,0.21,0.28
,-9.22,-1.261,-3.652,-9.361,-1.122,-3.498,-0.28,0.28,0.42
,-9.237,-1.175,-3.685,-9.162,-1.053,-3.398,0.98,0.35,0.63
,-9.179,-1.106,-3.611,-9.263,-1.07,-3.623,2.1,0.28,0.77
34907.0,-9.203,-1.146,-3.393,-9.361,-1.041,-2.821,2.17,0.07,0.91
,-9.256,-1.129,-3.269,-9.392,-0.957,-2.907,2.52,0.21,0.98
,-9.275,-1.077,-3.123,-9.418,-0.885,-3.151,2.94,0.56,1.05
,-9.292,-1.058,-2.95,-9.316,-0.983,-3.379,2.87,1.05,0.98
34983.0,-9.191,-1.146,-3.453,-9.27,-1.189,-3.137,-1.4,0.98,0.07
,-9.146,-1.192,-3.733,-9.414,-1.036,-3.02,-1.61,0.91,0.07
,-9.155,-1.268,-3.594,-9.505,-0.881,-3.049,-0.77,1.19,0.21
,-9.158,-1.278,-3.379,-9.421,-0.905,-3.223,0.84,1.68,0.56
35058.0,-9.344,-1.027,-3.388,-9.208,-1.146,-3.723,-1.75,1.33,0.07
,-9.21,-1.302,-3.52,-9.249,-1.034,-3.604,-2.8,1.33,0.0
,-9.148,-1.407,-3.812,-9.284,-0.957,-3.501,-1.54,1.05,0.07
,-9.129,-1.328,-3.776,-9.287,-0.948,-3.46,0.56,1.33,0.42
35134.0,-9.273,-1.027,-3.424,-9.277,-1.141,-3.367,0.49,0.42,0.56
,-9.306,-1.146,-3.331,-9.239,-1.127,-3.391,0.14,0.35,0.49
,-9.308,-1.117,-3.384,-9.241,-1.062,-3.319,0.42,0.14,0.42
,-9.268,-1.134,-3.398,-9.318,-0.936,-3.405,0.42,0.0,0.42
35210.0,-9.335,-1.017,-3.369,-9.189,-1.235,-3.317,1.33,0.35,0.49
,-9.299,-1.039,-3.408,-9.275,-1.113,-3.192,1.4,0.35,0.49
,-9.268,-1.117,-3.439,-9.318,-1.062,-3.24,1.75,0.21,0.56
,-9.184,-1.228,-3.467,-9.409,-0.936,-3.273,2.45,0.14,0.7
35286.0,-9.335,-0.967,-3.297,-9.277,-1.199,-3.458,2.59,0.56,0.63
,-9.258,-1.137,-3.374,-9.299,-0.969,-3.439,1.4,0.49,0.7
,-9.201,-1.137,-3.46,-9.356,-0.881,-3.458,1.61,0.7,0.77
,-9.253,-1.232,-3.525,-9.33,-0.921,-3.451,2.8,0.91,0.77
35362.0,-9.234,-1.046,-3.489,-9.208,-1.261,-3.391,0.42,0.14,0.42
,-9.215,-1.254,-3.477,-9.263,-1.153,-3.388,-0.42,-0.07,0.21
,-9.203,-1.366,-3.577,-9.229,-1.015,-3.333,-0.28,-0.28,0.28
,-9.167,-1.385,-3.491,-9.328,-1.055,-3.379,0.91,-0.14,0.63
35437.0,-9.323,-1.115,-3.534,-9.299,-1.108,-3.288,2.31,-1.4,1.19
,-9.263,-1.268,-3.522,-9.296,-0.974,-3.199,2.45,-1.61,1.26
,-9.251,-1.232,-3.57,-9.38,-0.974,-3.324,3.57,-1.54,1.47
,-9.143,-1.189,-3.458,-9.251,-1.096,-3.324,4.41,-1.33,1.54
35513.0,-9.222,-1.165,-3.156,-9.488,-0.811,-2.441,1.89,-2.1,1.47
,-9.232,-1.194,-3.022,-9.447,-0.833,-2.206,2.66,-1.61,1.54
,-9.241,-1.077,-2.8,-9.407,-0.881,-2.051,3.43,-0.98,1.61
,-9.356,-0.962,-2.541,-9.421,-1.043,-2.041,4.06,-0.07,1.75
35588.0,-9.316,-1.094,-2.099,-9.186,-0.854,-3.173,1.61,6.16,1.12
,-9.399,-0.792,-2.288,-9.141,-1.065,-3.577,2.87,7.0,0.91
,-9.418,-0.632,-2.599,-9.095,-1.364,-3.642,2.03,7.98,0.56
,-9.38,-0.665,-3.001,-9.148,-1.455,-3.525,-1.26,7.77,0.07
35664.0,-9.335,-1.385,-3.393,-9.038,-0.804,-3.393,-3.15,7.77,0.35
,-9.383,-1.117,-2.986,-9.155,-1.05,-3.415,-1.19,8.33,0.28
,-9.61,-0.572,-2.714,-9.031,-1.333,-3.302,1.54,9.17,0.0
,-9.5,-0.598,-3.338,-9.232,-1.206,-3.257,-1.68,7.84,-0.56
35740.0,-9.184,-1.177,-3.458,-9.012,-1.177,-3.498,-0.56,9.03,0.35
,-9.172,-0.871,-3.125,-9.313,-1.139,-3.343,1.12,9.31,0.28
,-9.311,-0.56,-3.271,-9.265,-1.196,-3.565,1.26,9.24,-0.28
,-9.081,-0.981,-3.69,-9.16,-0.775,-3.12,-2.59,8.33,-0.84
35816.0,-9.229,-0.469,-3.506,-9.136,-1.412,-3.747,-3.08,7.49,-2.38
,-8.792,-0.603,-3.654,-9.316,-1.022,-4.427,-8.96,6.3,-2.31
,-9.009,-0.902,-3.647,-9.033,-0.998,-4.121,-12.11,6.93,-1.33
,-9.112,-1.519,-4.135,-9.201,-0.988,-3.721,-14.56,5.46,-1.47
35891.0,-8.935,-1.486,-3.561,-9.112,-0.737,-2.996,-7.21,8.26,-0.42
,-9.045,-1.819,-3.104,-9.363,-0.345,-3.314,-5.6,9.8,0.35
,-9.253,-1.457,-2.3,-9.268,-0.115,-4.099,-1.47,10.85,0.42
,-8.973,-1.048,-2.477,-8.966,-0.203,-4.168,0.56,10.85,-0.42
35967.0,-9.241,-0.101,-4.245,-8.739,-2.426,-3.005,-5.67,10.15,-2.17
,-9.203,-0.218,-4.391,-9.378,-2.714,-2.702,-8.05,8.12,-4.06
,-8.854,-0.713,-4.216,-9.196,-2.24,-2.984,-10.22,7.21,-4.48
,-8.78,-1.5,-3.865,-9.237,-1.608,-3.329,-11.76,8.33,-3.92
36043.0,-9.079,-1.287,-3.979,-8.614,-0.613,-3.953,5.74,7.14,1.54
,-8.93,-1.314,-4.496,-9.184,-0.235,-3.977,1.05,7.98,2.38
,-8.538,-1.474,-4.355,-9.411,0.065,-3.85,-1.47,10.22,2.8
,-8.315,-1.151,-4.3,-9.404,-0.014,-4.223,0.98,12.53,2.31
36119.0,-9.342,-0.598,-3.721,-9.074,-1.788,-3.508,-5.04,10.22,-0.77
,-8.916,-0.778,-3.817,-8.93,-1.491,-3.699,-5.95,9.1,-1.12
,-8.629,-1.316,-3.731,-8.847,-1.218,-4.231,-5.67,10.64,-1.54
,-9.155,-1.721,-3.503,-8.811,-0.794,-4.53,-3.15,12.11,-1.33
36194.0,-8.512,-0.471,-4.87,-8.859,-0.519,-4.267,6.09,12.6,0.91
,-8.808,-0.263,-4.786,-8.866,-0.976,-4.03,5.11,12.95,-0.49
,-9.287,-0.144,-4.599,-9.016,-1.397,-3.671,3.78,13.02,-2.03
,-9.117,-0.282,-4.537,-9.052,-1.551,-3.513,1.26,12.18,-3.57
36270.0,-8.918,-1.704,-3.475,-8.492,-0.416,-4.91,1.61,14.7,-2.24
,-9.033,-1.697,-3.51,-8.988,-0.227,-4.893,1.26,13.93,-1.19
,-9.067,-1.419,-3.704,-8.763,-0.05,-5.109,1.26,10.57,0.0
,-8.445,-0.857,-4.587,-8.55,-0.172,-4.884,0.63,8.05,0.21
36346.0,-8.787,-0.849,-4.401,-8.792,-2.249,-3.848,-11.48,10.99,-5.18
,-8.77,-1.539,-3.977,-8.894,-2.044,-3.915,-10.85,12.67,-4.76
,-8.626,-2.268,-3.668,-8.593,-1.771,-4.353,-6.58,14.42,-3.78
,-8.83,-2.453,-3.556,-8.442,-1.546,-5.032,0.21,14.63,-2.38
36421.0,-8.777,-1.34,-5.099,-8.545,-0.17,-5.054,8.75,11.9,3.85
,-8.801,-0.914,-5.542,-8.684,-0.287,-4.554,6.3,9.17,3.64
,-8.457,-0.629,-5.528,-8.839,-0.522,-4.061,3.99,9.24,2.24
,-8.466,-0.335,-5.205,-9.069,-0.823,-4.006,4.34,10.08,-0.21
36497.0,-8.832,-1.039,-3.91,-8.433,-0.694,-5.379,3.01,14.91,-1.4
,-8.629,-1.309,-4.192,-8.705,-0.811,-5.14,7.49,15.89,-1.75
,-8.78,-1.103,-4.556,-8.569,-0.96,-4.989,11.06,14.91,-2.38
,-8.524,-0.869,-5.02,-8.567,-1.4,-4.657,13.72,14.0,-2.24
36573.0,-8.713,-1.823,-4.386,-8.516,-2.209,-5.097,5.95,13.23,-3.22
,-8.552,-2.134,-4.432,-8.363,-1.845,-5.078,6.23,12.81,-2.73
,-8.598,-2.149,-4.582,-8.208,-1.649,-4.937,6.16,12.74,-1.4
,-8.564,-2.462,-4.896,-8.476,-1.177,-5.296,8.05,12.67,-0.84
36649.0,-8.591,-0.759,-5.776,-9.002,-1.141,-4.977,8.05,10.71,1.68
,-8.603,-0.629,-5.671,-8.772,-1.127,-5.19,4.97,10.22,1.96
,-8.758,-0.739,-5.714,-8.378,-1.11,-5.523,2.87,9.87,1.33
,-8.71,-0.907,-5.353,-7.997,-1.208,-5.535,3.29,10.36,0.14
36724.0,-8.011,-1.637,-5.422,-8.753,-0.871,-5.485,3.22,8.89,1.89
,-8.114,-2.012,-5.48,-8.631,-0.873,-5.032,4.34,9.03,1.96
,-8.617,-1.704,-5.489,-8.679,-1.213,-4.963,6.37,8.89,2.1
,-9.088,-1.189,-5.458,-8.406,-1.627,-5.449,7.7,7.49,3.08
36800.0,-8.361,-1.78,-5.508,-7.741,-1.321,-5.358,-10.01,2.45,3.5
,-8.39,-1.955,-5.58,-8.155,-0.967,-5.535,-7.35,2.73,3.71
,-8.279,-1.788,-5.53,-8.765,-0.723,-5.621,-3.43,1.82,4.76
,-7.734,-1.438,-5.774,-9.213,-0.632,-5.439,-0.77,1.61,6.23
36876.0,-9.141,-1.278,-4.996,-8.339,-1.173,-4.544,-5.25,0.84,5.88
,-8.796,-1.598,-4.544,-8.33,-0.73,-5.164,-4.97,1.33,7.63
,-8.21,-1.816,-4.472,-8.428,-0.378,-5.621,-2.59,1.47,7.84
,-8.165,-1.527,-4.518,-8.488,-0.072,-6.076,-1.33,2.59,8.19
36952.0,-8.514,0.024,-6.03,-8.672,-1.345,-5.19,2.8,2.73,4.69
,-8.641,-0.129,-6.016,-8.433,-1.484,-5.02,2.38,2.8,3.57
,-8.66,-0.704,-5.755,-8.294,-1.567,-5.03,2.31,2.59,2.94
,-8.851,-1.101,-5.396,-8.256,-1.491,-5.185,2.8,2.59,2.59
37027.0,-8.177,-1.175,-5.659,-8.772,-0.938,-5.236,5.95,2.17,1.96
,-8.5,-1.01,-5.853,-8.256,-0.986,-5.193,7.56,2.31,1.05
,-8.765,-0.871,-5.822,-8.275,-1.041,-5.212,8.89,2.03,0.35
,-8.863,-0.943,-5.599,-8.44,-1.163,-5.226,9.38,1.96,0.14
37103.0,-8.466,-1.146,-5.229,-8.311,-0.739,-5.523,9.8,2.59,-0.63
,-8.49,-1.062,-5.25,-8.397,-0.909,-5.566,9.59,2.45,-1.05
,-8.543,-1.232,-5.178,-8.619,-0.883,-5.518,9.03,2.1,-1.12
,-8.452,-0.928,-5.391,-8.878,-0.754,-5.317,9.52,1.05,-1.26
37178.0,-8.782,-0.897,-5.229,-8.37,-1.515,-5.035,9.1,1.4,-3.92
,-8.48,-1.283,-5.047,-8.686,-1.242,-5.377,7.91,0.98,-4.06
,-8.153,-1.486,-5.037,-8.648,-1.182,-5.489,7.77,1.4,-3.99
,-8.066,-1.768,-4.932,-8.466,-1.242,-5.47,8.26,2.52,-3.5
37254.0,-8.368,-1.168,-5.492,-8.82,-1.146,-5.552,5.6,0.77,-2.38
,-8.337,-0.921,-5.238,-8.813,-1.271,-5.597,4.97,0.7,-2.03
,-8.375,-0.859,-5.327,-8.772,-0.976,-5.473,2.03,0.28,-1.96
,-8.588,-1.003,-5.461,-8.363,-1.048,-5.669,-1.05,-0.14,-1.89
37330.0,-8.258,-1.697,-5.631,-8.088,-2.603,-5.183,-6.86,-4.97,-1.54
,-8.524,-1.917,-5.422,-8.323,-2.393,-5.116,-5.32,-5.25,-0.91
,-8.454,-2.041,-5.09,-8.552,-1.728,-5.25,-4.2,-6.44,1.68
,-8.198,-2.441,-5.092,-8.514,-1.256,-5.188,-3.43,-6.65,3.36
37406.0,-8.471,-1.065,-5.097,-8.658,-1.419,-4.848,3.64,-6.44,6.3
,-8.394,-1.103,-5.145,-8.447,-1.316,-5.008,0.49,-6.02,6.72
,-8.442,-1.292,-5.066,-8.409,-0.969,-5.138,-2.1,-5.95,7.56
,-8.569,-1.558,-5.042,-8.698,-0.967,-4.896,-3.36,-5.95,8.4
37482.0,-8.894,-0.739,-4.915,-8.595,-0.96,-5.2,1.96,-8.05,6.72
,-8.536,-0.778,-5.027,-8.591,-0.847,-5.195,1.47,-7.35,5.95
,-8.478,-0.986,-4.958,-8.605,-0.802,-5.095,2.31,-6.58,5.32
,-8.579,-1.029,-4.951,-8.61,-0.713,-4.874,4.34,-7.56,5.11
37557.0,-8.713,-0.639,-4.743,-8.746,-1.065,-4.621,6.79,-8.61,1.4
,-8.54,-0.589,-4.884,-8.926,-1.096,-4.666,3.99,-10.22,1.4
,-8.464,-0.727,-4.75,-8.775,-1.17,-4.633,1.61,-9.66,1.12
,-8.574,-0.974,-4.623,-8.684,-1.053,-4.625,0.84,-9.31,0.63
37633.0,-8.449,-1.163,-4.712,-8.727,-1.043,-4.683,5.32,-8.89,1.54
,-8.579,-1.11,-4.688,-8.88,-1.18,-4.434,4.97,-10.29,1.96
,-8.504,-1.108,-4.657,-8.727,-0.818,-4.499,4.06,-11.06,2.24
,-8.603,-1.091,-4.647,-8.323,-1.05,-4.324,4.2,-10.99,2.03
37709.0,-8.643,-1.031,-5.059,-8.732,-1.12,-4.465,3.99,-10.36,1.82
,-8.902,-1.175,-4.791,-8.6,-1.211,-4.7,2.94,-9.94,1.89
,-8.89,-1.129,-4.748,-8.552,-1.464,-4.573,3.22,-9.59,2.24
,-8.732,-1.091,-4.625,-8.751,-1.668,-4.475,3.36,-8.33,2.87
37785.0,-8.952,-1.531,-4.393,-8.918,-0.988,-4.41,7.63,-6.65,5.25
,-8.983,-1.323,-4.611,-8.65,-0.983,-4.566,8.4,-8.05,5.6
,-8.691,-1.192,-4.724,-8.693,-0.885,-4.561,8.4,-8.68,5.88
