Timestamp,AccX,AccY,AccZ,GyroX,GyroY,GyroZ,MagnX,MagnY,MagnZ
0.0,-9.105,-0.297,-3.977,-9.064,-0.232,-4.073,3.01,1.61,0.7
,-9.107,-0.256,-4.001,-8.995,-0.318,-4.027,3.08,1.26,0.7
,-9.112,-0.242,-4.037,-9.06,-0.309,-4.042,3.08,0.98,0.7
,-9.124,-0.251,-4.111,-9.083,-0.273,-4.001,3.29,0.91,0.7
76.0,-9.083,-0.297,-3.946,-9.107,-0.225,-3.96,3.5,1.33,0.98
,-9.134,-0.223,-3.912,-9.055,-0.249,-3.951,3.64,1.4,0.98
,-9.122,-0.225,-3.91,-9.095,-0.258,-3.908,3.43,0.98,0.84
,-9.093,-0.208,-4.003,-9.091,-0.299,-3.872,3.15,0.91,0.98
152.0,-9.127,-0.292,-3.838,-9.083,-0.28,-3.946,2.73,1.4,0.91
,-9.165,-0.287,-3.836,-9.088,-0.237,-3.96,2.66,1.26,0.91
,-9.16,-0.244,-3.888,-9.134,-0.225,-3.953,2.52,1.33,0.84
,-9.117,-0.225,-3.91,-9.076,-0.215,-3.941,2.24,1.05,0.77
227.0,-9.098,-0.254,-3.951,-9.117,-0.23,-3.936,1.68,1.61,0.77
,-9.081,-0.263,-3.934,-9.081,-0.22,-3.915,1.68,1.68,0.77
,-9.115,-0.306,-3.948,-9.16,-0.282,-3.881,1.61,1.4,0.77
,-9.081,-0.275,-3.967,-9.124,-0.297,-3.836,1.75,1.47,0.77
302.0,-9.201,-0.424,-3.912,-9.081,-0.122,-4.092,2.24,0.98,1.26
,-9.064,-0.378,-4.003,-9.06,-0.105,-4.149,2.73,0.77,1.33
,-9.083,-0.258,-3.996,-9.189,-0.249,-4.101,3.01,1.19,1.4
,-9.172,-0.136,-4.166,-8.993,-0.431,-4.111,3.01,0.56,1.26
378.0,-9.119,-0.414,-4.252,-8.861,-0.096,-4.298,3.64,-1.33,1.26
,-9.117,-0.223,-4.286,-8.949,-0.16,-4.312,4.83,-2.38,0.98
,-9.033,-0.091,-4.448,-8.973,-0.22,-4.255,5.11,-2.94,0.7
,-8.978,-0.05,-4.295,-9.036,-0.175,-4.257,4.41,-3.22,0.49
454.0,-9.045,-0.158,-4.204,-9.308,-0.206,-3.587,3.99,-4.83,-1.4
,-9.086,-0.165,-4.003,-9.069,-0.483,-3.522,3.64,-5.04,-1.61
,-9.103,-0.237,-3.944,-9.191,-0.45,-3.532,2.94,-5.39,-1.68
,-9.115,-0.275,-3.838,-9.182,-0.644,-3.343,2.31,-5.11,-1.82
530.0,-9.16,-0.852,-3.352,-9.414,-0.718,-3.269,-1.4,-6.51,-2.45
,-9.227,-0.854,-3.329,-9.435,-0.5,-3.503,-1.19,-7.0,-2.24
,-9.198,-0.859,-3.206,-9.392,-0.11,-3.896,-0.77,-7.07,-1.82
,-9.304,-0.866,-3.223,-9.191,0.136,-4.276,-0.49,-7.56,-1.33
605.0,-9.04,0.223,-4.661,-8.976,0.053,-4.508,-1.33,-11.41,-0.35
,-9.064,0.323,-4.807,-9.162,0.06,-4.252,-1.33,-9.87,-0.07
,-8.995,0.306,-4.819,-9.253,-0.026,-3.953,-0.84,-8.4,0.21
,-8.921,0.108,-4.628,-9.213,-0.213,-3.561,0.49,-7.42,0.28
681.0,-9.201,-0.45,-3.156,-9.383,-0.447,-3.144,3.64,-5.46,-0.77
,-9.392,-0.62,-2.828,-9.32,-0.414,-3.015,2.73,-5.25,-1.05
,-9.634,-0.668,-2.831,-9.277,-0.333,-2.91,1.33,-6.58,-1.68
,-9.584,-0.426,-3.027,-9.227,-0.287,-2.814,0.91,-8.19,-1.82
757.0,-9.316,-0.17,-2.668,-9.694,-0.414,-2.773,-0.28,-6.37,-0.49
,-9.462,-0.144,-2.544,-9.438,-0.579,-3.156,-1.4,-6.02,-0.49
,-9.476,-0.17,-2.481,-9.237,-0.83,-3.139,-3.08,-5.88,-0.49
,-9.634,-0.313,-2.386,-9.062,-1.01,-3.25,-5.25,-5.95,-0.49
833.0,-9.229,-1.096,-3.206,-9.421,-0.385,-3.527,-4.9,-3.5,2.24
,-9.354,-0.988,-3.288,-9.112,-0.409,-3.419,-2.8,-3.71,2.8
,-9.366,-0.876,-3.197,-9.012,-0.586,-3.463,-1.12,-4.2,3.43
,-9.557,-0.553,-3.355,-9.1,-0.876,-3.415,-0.21,-5.25,3.71
909.0,-9.316,-1.062,-3.235,-9.356,0.093,-3.362,1.96,-2.38,7.63
,-9.457,-0.995,-3.096,-9.076,0.254,-3.113,4.2,-2.38,8.68
,-9.651,-0.696,-3.226,-9.139,0.124,-2.883,6.65,-3.92,8.68
,-9.653,-0.237,-3.408,-9.366,0.182,-2.879,8.12,-6.79,8.19
984.0,-9.481,0.282,-2.804,-9.849,0.849,-3.099,2.73,-7.84,6.16
,-9.323,0.488,-2.91,-9.596,0.67,-3.778,2.87,-7.63,5.53
,-9.306,0.672,-2.84,-9.162,0.526,-3.573,1.89,-6.37,5.18
,-9.39,0.787,-2.824,-9.072,0.541,-3.609,-0.49,-3.5,6.09
1060.0,-9.239,0.328,-3.518,-9.873,-0.244,-2.845,-7.07,-10.22,-1.4
,-9.411,0.057,-3.329,-9.66,-0.144,-2.855,-7.77,-8.47,-1.4
,-9.45,-0.156,-3.025,-9.576,-0.275,-2.682,-8.26,-6.02,-0.56
,-9.646,-0.426,-2.68,-9.404,-0.302,-2.826,-8.33,-4.34,0.21
1135.0,-9.146,-0.548,-2.955,-9.574,0.093,-2.295,-3.92,-4.34,3.29
,-9.186,-0.972,-2.666,-9.407,0.225,-2.211,-3.08,-0.84,5.95
,-9.244,-1.034,-2.254,-9.811,0.194,-2.036,-0.21,0.56,7.14
,-9.658,-0.383,-2.237,-9.758,0.12,-2.187,3.29,-1.82,5.74
1211.0,-9.617,-0.416,-2.051,-9.344,-0.127,-1.864,-1.54,-2.66,3.78
,-9.493,-0.909,-2.06,-9.964,-0.098,-2.24,-0.77,-2.1,4.55
,-9.375,-1.089,-1.933,-9.457,0.048,-2.486,2.03,-1.33,5.39
,-9.086,-0.402,-2.235,-9.809,0.187,-2.627,6.44,-0.7,5.81
1287.0,-9.591,0.354,-2.867,-9.418,-0.232,-2.529,8.82,-8.33,1.33
,-9.414,0.199,-2.718,-9.306,-0.211,-2.426,7.49,-6.79,1.75
,-9.383,0.163,-2.795,-9.631,-0.543,-2.443,6.16,-5.04,1.89
,-9.399,-0.141,-2.726,-9.469,-0.526,-2.513,5.25,-3.57,1.82
1363.0,-9.799,-0.165,-2.225,-9.493,0.117,-3.029,10.92,0.42,3.22
,-9.423,0.251,-2.735,-9.529,0.105,-3.175,12.25,-3.78,1.33
,-9.691,0.177,-2.575,-9.502,-0.112,-2.984,11.83,-6.79,-1.12
,-9.665,0.323,-3.072,-9.818,-0.203,-2.869,12.18,-10.01,-3.29
1438.0,-9.627,-0.014,-2.759,-9.49,0.239,-2.654,9.17,-7.56,-4.34
,-9.648,-0.05,-2.855,-9.574,0.33,-2.539,8.05,-7.42,-4.34
,-9.136,-0.182,-2.793,-9.675,0.79,-2.615,7.35,-7.35,-3.29
,-9.445,-0.124,-2.544,-9.421,1.429,-2.814,7.21,-7.0,-3.08
1514.0,-9.567,1.156,-2.692,-9.765,-0.704,-2.01,3.99,-7.77,-7.28
,-9.478,0.72,-2.527,-9.619,-0.708,-2.13,1.75,-6.79,-7.49
,-9.605,0.182,-2.321,-9.509,-0.637,-2.245,0.21,-5.81,-7.63
,-9.629,-0.524,-2.058,-9.493,-0.9,-2.132,-0.42,-5.88,-7.84
1590.0,-9.426,-0.895,-2.034,-9.722,-0.512,-2.697,3.85,-6.86,-6.65
,-9.619,-1.017,-1.742,-9.67,-0.287,-3.049,5.04,-6.58,-6.65
,-9.507,-0.581,-2.237,-9.572,-0.711,-2.565,6.72,-8.05,-6.65
,-9.366,-0.713,-2.345,-9.761,-0.361,-2.68,7.07,-9.24,-6.23
1666.0,-9.636,-0.093,-2.407,-9.835,-0.065,-2.19,9.52,-8.47,-4.83
,-9.679,0.01,-2.364,-9.713,0.072,-2.201,9.24,-8.05,-5.46
,-9.495,0.11,-2.257,-9.646,0.861,-3.202,8.89,-7.91,-5.81
,-9.694,0.151,-2.283,-9.675,0.031,-2.218,8.54,-7.63,-6.16
1741.0,-9.773,0.012,-2.46,-9.718,-0.349,-2.491,8.47,-7.84,-8.33
,-9.952,0.653,-2.596,-9.689,-1.113,-2.321,9.03,-7.77,-7.42
,-9.797,0.361,-2.474,-9.809,-1.103,-2.484,7.14,-7.84,-7.28
,-9.787,0.359,-2.687,-9.806,-1.709,-2.242,6.86,-7.28,-7.28
1817.0,-9.753,-1.539,-2.517,-9.646,-1.295,-1.577,7.7,-6.23,-6.3
,-9.792,-1.596,-2.458,-9.39,-0.022,-2.216,9.52,-6.16,-5.74
,-9.643,-1.634,-2.455,-9.646,-3.321,0.881,11.06,-6.44,-4.69
,-9.265,-7.791,4.357,-9.622,0.081,-2.103,-1.26,-4.97,-2.8
1893.0,-8.646,1.019,-2.941,-9.667,-0.022,-1.754,16.52,-7.49,-2.38
,-10.055,0.007,-1.548,-9.758,-0.608,-1.376,13.09,-6.16,-3.08
,-9.938,0.182,-1.749,-9.586,-0.699,-1.436,12.46,-5.81,-3.5
,-9.782,-0.034,-1.548,-9.811,-1.015,-1.905,11.13,-5.88,-4.06
1968.0,-10.069,-1.074,-2.182,-9.404,-1.725,-2.324,11.55,-4.97,-3.99
,-10.232,-1.144,-2.326,-9.457,-1.661,-2.213,11.97,-6.3,-4.34
,-9.876,-1.407,-2.496,-9.555,-1.78,-1.68,12.18,-7.28,-3.78
,-9.44,-2.012,-2.056,-9.608,-1.115,-1.826,11.62,-7.49,-2.66
2044.0,-9.634,-0.747,-1.709,-9.842,0.337,-1.443,15.75,-6.3,-1.26
,-9.648,-0.486,-1.405,-9.885,0.402,-1.12,15.12,-6.44,-1.54
,-9.584,-0.208,-1.357,-9.787,0.34,-1.12,14.35,-6.79,-1.54
,-9.749,0.053,-1.345,-9.612,0.108,-1.34,14.21,-6.79,-1.82
2120.0,-9.593,-0.239,-1.22,-9.71,-0.744,-1.421,8.05,-4.9,-4.27
,-9.761,-0.603,-1.204,-9.658,-0.794,-1.445,7.84,-4.41,-4.34
,-9.938,-0.754,-1.359,-9.756,-0.799,-1.364,8.12,-4.06,-4.13
,-9.871,-0.991,-1.299,-9.756,-0.749,-1.321,8.26,-4.41,-4.27
2196.0,-9.787,-0.756,-1.299,-9.615,-0.993,-1.443,5.95,-4.9,-5.74
,-9.701,-0.871,-1.374,-9.605,-0.979,-1.474,5.95,-4.83,-5.67
,-9.672,-0.787,-1.429,-9.828,-0.895,-1.601,6.16,-4.9,-5.88
,-9.521,-0.979,-1.486,-9.902,-0.83,-1.73,6.86,-5.32,-5.88
2271.0,-9.828,-1.201,-1.668,-10.074,0.668,-3.503,10.78,-6.02,-3.92
,-9.744,-1.536,-1.553,-9.603,-1.694,-1.4,10.43,-6.23,-3.29
,-9.648,-1.625,-1.5,-9.873,-1.548,-1.381,11.48,-6.23,-2.73
,-9.811,-1.572,-1.541,-9.923,-1.259,-1.615,12.39,-6.09,-2.52
2347.0,-9.974,-0.96,-1.517,-9.797,-1.263,-1.747,11.55,-4.55,-2.03
,-10.026,-0.668,-1.632,-9.617,-1.51,-1.792,11.13,-4.48,-2.45
,-10.373,-0.637,-1.606,-9.825,-1.618,-1.79,10.08,-4.55,-2.52
,-10.05,-0.893,-1.723,-10.024,-1.474,-1.701,9.17,-4.83,-2.24
2423.0,-10.141,-1.074,-1.79,-9.73,-0.921,-1.596,12.11,-3.36,1.19
,-10.167,-0.974,-1.725,-9.746,-0.701,-1.491,11.41,-3.15,1.26
,-9.952,-0.972,-1.73,-8.488,-9.416,1.146,10.15,-2.94,1.47
,-9.887,-0.933,-1.783,-10.605,0.045,-0.878,9.38,-2.52,1.61
2499.0,-10.124,3.8,-3.503,-9.641,-0.723,-0.981,16.87,2.03,2.31
,-10.079,-0.184,-1.316,-9.727,-0.373,-1.039,4.97,2.17,1.61
,-9.686,-0.596,-0.763,-9.911,-0.337,-1.149,-0.7,2.87,1.89
,-9.521,-0.687,-1.017,-9.916,-0.658,-1.163,-0.63,3.78,1.61
2574.0,-9.859,-0.945,-1.151,-10.01,-2.46,-0.928,-4.41,6.93,1.75
,-8.751,-4.786,1.089,-9.758,-2.261,-1.668,-24.99,5.39,3.92
,-9.933,-1.462,-1.149,-9.567,-2.048,-1.713,-11.55,7.0,3.22
,-9.342,1.878,-3.309,-9.694,-1.855,-1.51,6.02,6.72,2.94
2650.0,-9.794,-1.397,-1.608,-9.916,-1.012,-1.864,-0.49,9.52,6.93
,-9.799,-1.082,-1.682,-9.919,-0.909,-1.828,-0.49,9.87,7.21
,-9.931,-0.888,-1.711,-9.835,-0.83,-1.799,-1.19,10.08,7.42
,-9.966,-0.972,-1.771,-9.742,-0.531,-1.938,-2.17,10.36,8.05
2725.0,-9.952,-0.536,-1.977,-9.883,-0.323,-1.582,-2.8,13.58,9.45
,-9.868,-0.797,-1.831,-9.921,-0.364,-1.414,-3.71,14.49,9.66
,-9.921,-0.672,-1.795,-9.954,-0.419,-1.4,-4.13,15.05,9.8
,-10.045,-0.409,-1.737,-9.742,-0.464,-1.452,-4.69,15.54,9.8
2801.0,-9.541,-0.23,-1.531,-9.799,-0.615,-1.417,-9.45,16.52,10.92
,-9.521,-0.328,-1.388,-9.732,-0.706,-1.469,-10.01,17.22,11.69
,-9.634,-0.483,-1.436,-9.591,-0.972,-1.591,-9.87,17.78,12.32
,-9.806,-0.395,-1.457,-9.538,-1.23,-1.639,-9.52,18.48,12.53
2877.0,-9.596,-1.438,-1.737,-9.543,-0.622,-2.472,-7.91,21.84,15.68
,-9.773,-0.869,-1.771,-9.543,-0.79,-2.424,-5.95,22.75,17.57
,-9.809,-0.378,-2.699,-9.598,-0.503,-2.57,-3.15,22.75,17.85
,-9.885,-0.385,-2.505,-9.672,-0.294,-2.606,-3.71,22.54,17.57
2953.0,-9.799,0.074,-2.74,-9.765,0.806,-2.419,-5.25,23.24,19.6
,-9.77,0.27,-2.551,-9.749,1.046,-2.455,-5.53,23.8,19.53
,-9.775,0.287,-2.496,-9.763,1.031,-2.391,-6.51,25.06,19.25
,-9.701,0.555,-2.374,-9.66,0.981,-2.41,-7.07,26.04,18.83
3029.0,-9.665,0.95,-2.424,-9.627,0.44,-2.754,-12.04,28.84,14.91
,-9.56,0.792,-2.563,-9.564,0.191,-2.967,-12.67,28.56,14.0
,-9.727,0.61,-2.642,-9.433,-0.151,-2.843,-13.02,28.35,13.02
,-9.684,0.682,-2.752,-9.471,0.129,-3.132,-13.51,28.49,12.39
3104.0,-9.296,-0.022,-3.185,-9.191,-0.644,-3.187,-12.81,27.65,11.13
,-9.402,-0.297,-3.13,-9.328,-0.337,-3.455,-12.6,27.02,10.57
,-9.497,-0.378,-3.061,-9.39,-0.273,-3.439,-12.11,26.46,10.08
,-9.627,0.459,-3.582,-9.284,0.01,-3.479,-9.45,26.46,9.59
3180.0,-9.366,0.081,-3.513,-9.265,-0.299,-3.618,-6.16,25.83,9.1
,-9.263,-0.06,-3.549,-9.301,-0.129,-3.58,-6.23,24.78,8.75
,-9.509,-0.294,-3.568,-8.997,-0.115,-3.52,-5.67,24.22,8.89
,-9.428,-0.376,-3.659,-9.031,0.043,-3.424,-4.69,24.08,9.31
3256.0,-10.412,-0.057,-3.331,-9.564,0.787,-3.08,1.54,22.12,10.36
,-6.932,0.821,-5.109,-9.105,0.814,-3.13,7.21,18.06,7.35
,-9.407,1.022,-3.185,-8.938,0.608,-3.173,5.39,19.18,7.07
,-9.746,1.117,-3.458,-8.815,1.182,-3.458,1.75,19.67,6.3
3332.0,-9.229,1.395,-3.482,-9.167,0.658,-3.795,0.63,18.06,2.87
,-9.404,1.307,-3.472,-8.904,0.567,-4.015,-1.26,17.92,1.89
,-9.407,0.983,-3.36,-8.973,0.713,-4.087,-4.06,16.87,0.84
,-9.244,0.749,-3.489,-9.316,0.45,-3.865,-6.09,15.26,-0.42
3407.0,-9.383,0.211,-3.786,-9.031,-0.067,-4.042,-6.72,14.21,-3.29
,-9.517,-0.156,-3.757,-9.493,0.223,-4.099,-6.58,11.69,-3.78
,-9.538,-0.101,-3.953,-9.258,0.739,-4.3,-5.67,7.77,-4.2
,-9.019,-0.034,-4.295,-9.021,0.864,-4.307,-4.34,5.04,-3.85
3483.0,-8.961,0.715,-4.192,-10.048,-0.019,-3.955,1.47,-3.01,-4.76
,-8.787,0.56,-4.027,-8.918,-0.208,-4.264,1.54,-2.45,-4.69
,-9.177,0.101,-3.649,-8.626,-0.574,-3.869,1.82,-1.4,-4.55
,-9.677,-0.134,-3.494,-8.894,-0.388,-3.754,2.87,-2.59,-5.53
3558.0,-9.203,-0.122,-3.458,-9.368,0.845,-2.886,11.27,-11.06,-5.95
,-9.469,0.242,-3.075,-8.988,0.775,-2.819,13.58,-8.68,-4.62
,-9.957,0.534,-2.58,-8.5,0.244,-2.484,13.65,-8.54,-4.27
,-9.871,0.747,-2.924,-8.835,-0.086,-2.204,12.25,-12.18,-5.67
3634.0,-9.485,-0.244,-2.254,-8.806,0.311,-4.066,7.91,-8.75,-8.96
,-9.77,-0.313,-2.201,-8.21,0.208,-3.711,8.33,-7.49,-8.4
,-9.883,-0.086,-2.391,-8.483,-0.014,-3.841,8.33,-8.89,-8.33
,-9.679,0.316,-3.458,-9.05,-0.108,-3.609,7.84,-12.39,-9.73
3710.0,-9.459,-0.206,-3.149,-9.198,0.27,-3.118,8.19,1.75,-4.69
,-9.945,0.146,-3.199,-9.083,-0.156,-3.314,9.73,2.17,-4.48
,-9.768,0.455,-3.151,-9.155,-0.61,-3.419,9.87,1.26,-3.99
,-9.344,0.589,-3.209,-9.17,-0.744,-3.429,7.84,1.4,-3.36
3786.0,-9.191,-0.529,-3.412,-9.33,-0.593,-2.888,7.07,3.08,-1.89
,-9.275,-0.416,-3.305,-9.531,-0.61,-2.711,8.19,3.22,-1.33
,-9.28,-0.282,-3.142,-9.509,-0.464,-2.702,8.19,3.15,-0.91
,-9.263,-0.428,-2.994,-9.366,-0.357,-2.838,6.79,3.43,-0.21
3861.0,-9.323,-0.404,-2.867,-9.392,0.292,-3.848,1.61,2.87,1.33
,-9.256,-0.091,-3.178,-9.43,0.211,-3.987,1.4,2.24,0.91
,-9.237,0.067,-3.357,-9.273,0.33,-4.145,0.56,1.61,0.49
,-9.17,0.141,-3.434,-9.17,0.357,-4.374,-0.7,1.26,0.42
3937.0,-9.028,0.043,-4.436,-9.603,-0.455,-3.427,-1.26,-0.91,-1.12
,-9.031,-0.397,-4.365,-9.509,0.062,-3.343,0.35,-0.7,-0.84
,-9.206,-0.749,-3.996,-9.351,0.235,-3.147,2.94,-0.63,-0.07
,-9.356,-0.759,-3.678,-9.33,0.273,-3.061,6.51,-0.84,0.91
4013.0,-9.33,0.163,-3.056,-9.435,0.034,-3.434,3.5,-3.08,1.05
,-9.332,0.074,-3.027,-9.239,-0.074,-3.3,2.38,-3.15,0.56
,-9.32,0.0,-3.094,-9.203,-0.057,-3.364,1.89,-3.08,0.35
,-9.483,0.067,-3.228,-9.323,0.065,-3.451,1.68,-3.08,0.28
4089.0,-9.294,0.239,-3.434,-9.663,-0.38,-2.697,1.4,-5.53,-0.84
,-9.234,0.189,-3.393,-9.809,-0.158,-2.809,0.49,-5.39,-0.84
,-9.17,-0.031,-3.173,-9.608,-0.007,-2.931,-0.77,-4.9,-0.49
,-9.308,-0.323,-2.828,-9.301,-0.062,-3.051,-0.91,-4.06,0.07
4165.0,-9.021,-0.302,-3.214,-9.409,-0.337,-2.821,-0.91,-8.19,0.35
,-8.961,-0.498,-3.056,-9.466,0.034,-2.888,-0.14,-7.07,0.7
,-9.213,-0.672,-2.912,-9.423,0.022,-3.116,1.19,-5.67,0.98
,-9.536,-0.598,-3.003,-9.313,-0.136,-3.072,2.31,-6.09,0.49
4240.0,-9.186,-0.459,-2.857,-9.332,-0.392,-2.493,0.7,-6.37,2.45
,-9.45,-0.689,-2.618,-9.529,-0.251,-2.139,1.33,-5.81,3.01
,-9.519,-0.469,-2.903,-10.347,0.459,-2.412,3.57,-6.79,2.73
,-9.263,-0.562,-2.709,-9.572,1.122,-3.295,5.04,-7.28,3.15
4316.0,-8.981,1.218,-3.013,-9.919,-0.553,-2.869,1.05,-9.66,1.82
,-8.837,1.208,-2.943,-9.545,-0.562,-3.005,-3.99,-7.42,1.96
,-8.952,0.895,-2.931,-9.344,-0.462,-2.654,-8.54,-4.27,1.96
,-9.32,-0.151,-2.836,-9.332,0.041,-2.67,-12.95,-1.47,1.82
4391.0,-9.328,0.045,-2.264,-9.217,0.431,-3.061,-3.57,0.77,3.57
,-10.208,0.062,-1.917,-8.746,-0.749,-2.886,-4.69,2.03,3.57
,-10.148,0.522,-2.431,-9.139,-1.788,-2.685,-4.13,-2.1,1.61
,-9.787,0.598,-2.721,-9.361,-2.491,-2.886,-3.71,-5.81,0.21
4467.0,-9.703,-2.434,-2.984,-10.376,0.022,-2.221,10.08,-4.9,5.6
,-9.552,-1.692,-3.037,-9.768,0.928,-2.79,19.11,-6.58,8.75
,-9.552,-1.074,-2.742,-9.447,1.421,-3.029,24.71,-5.25,11.9
,-9.466,-0.586,-2.312,-8.973,1.417,-3.037,26.74,-2.52,13.72
4543.0,-8.88,1.127,-2.687,-9.698,0.833,-2.67,10.36,-10.85,4.27
,-9.241,0.893,-2.261,-9.77,0.802,-2.56,7.42,-8.19,2.17
,-9.639,1.074,-2.546,-9.797,0.847,-2.276,6.65,-9.03,-0.91
,-9.541,0.981,-2.678,-9.73,0.988,-2.118,5.81,-9.94,-2.17
4619.0,-9.789,1.627,-2.608,-9.464,0.424,-2.532,4.13,-5.32,-4.69
,-9.718,0.61,-2.611,-9.675,0.323,-2.62,0.91,-6.3,-5.95
,-9.758,0.148,-2.362,-9.574,0.459,-2.759,1.05,-6.37,-5.95
,-9.485,0.672,-2.613,-9.557,0.354,-2.721,2.03,-6.72,-6.93
4694.0,-9.557,-0.089,-2.692,-9.646,-0.385,-2.63,-3.08,-4.62,-8.33
,-9.438,-0.725,-2.328,-9.622,-0.785,-2.711,-2.38,-3.78,-7.28
,-9.524,-0.644,-2.268,-9.67,-1.376,-2.644,0.21,-4.2,-7.07
,-9.337,-0.397,-2.419,-9.629,-1.582,-2.51,2.73,-5.53,-7.14
4770.0,-9.672,-1.134,-2.62,-9.143,-0.83,-2.161,7.07,-8.05,-2.17
,-9.273,-1.278,-2.627,-9.485,-0.816,-2.099,9.52,-9.17,-2.45
,-9.43,-0.761,-2.67,-9.77,-0.129,-2.199,12.11,-9.17,-2.87
,-9.418,-0.742,-2.41,-9.969,0.275,-2.237,12.6,-9.17,-2.38
4845.0,-10.002,0.572,-2.386,-9.828,0.072,-2.283,14.28,-9.8,-3.85
,-9.768,0.522,-2.29,-9.813,-0.05,-2.479,13.02,-10.29,-3.92
,-9.787,0.428,-2.233,-9.761,-0.708,-2.288,12.46,-10.78,-3.99
,-9.646,0.342,-2.321,-9.773,-1.05,-2.326,12.04,-10.92,-3.99
4921.0,-9.679,-0.907,-2.434,-9.758,-0.517,-2.443,14.56,-11.06,-3.92
,-9.643,-0.658,-2.582,-9.768,-0.069,-2.489,15.68,-11.34,-3.29
,-9.722,-0.407,-2.754,-9.751,0.026,-2.41,16.24,-11.41,-2.8
,-9.715,-0.629,-2.405,-9.517,-0.112,-2.201,15.82,-11.48,-2.52
4997.0,-9.452,-0.065,-1.945,-9.861,0.637,-1.802,14.42,-12.67,-3.85
,-9.675,0.129,-1.881,-9.746,0.579,-1.747,14.56,-11.69,-4.13
,-9.916,0.39,-1.845,-9.868,0.799,-1.752,14.56,-10.92,-4.97
,-10.017,0.658,-1.859,-9.825,0.534,-1.524,13.58,-10.71,-5.95
5073.0,-9.931,0.531,-1.613,-9.701,-0.053,-1.62,8.47,-10.08,-9.38
,-9.923,0.297,-1.677,-9.722,-0.036,-1.697,7.63,-9.94,-10.15
,-9.801,0.158,-1.682,-9.931,-0.146,-1.618,6.16,-9.87,-10.36
,-9.782,-0.002,-1.625,-9.753,0.156,-1.665,5.04,-9.31,-10.43
5149.0,-9.809,0.373,-1.785,-9.789,-0.598,-1.328,2.59,-9.38,-11.41
,-9.804,0.237,-1.563,-9.849,-0.83,-1.137,0.77,-9.38,-12.11
,-9.885,0.091,-1.402,-9.718,-1.402,-1.259,-0.98,-9.38,-12.67
,-9.689,-0.117,-1.417,-9.414,-1.419,-1.488,-2.31,-9.31,-13.02
5224.0,-9.414,-1.663,-1.467,-9.844,-2.123,-1.436,2.1,-9.45,-9.59
,-9.548,-1.996,-1.448,-9.72,-1.943,-1.567,3.64,-9.24,-8.61
,-9.682,-2.067,-1.519,-9.825,-1.862,-1.685,5.11,-9.24,-7.98
,-9.878,-2.12,-1.484,-9.737,-1.785,-1.919,7.14,-9.24,-7.35
5300.0,-9.746,-1.785,-1.85,-9.816,-1.29,-1.187,13.23,-9.8,-4.06
,-9.71,-1.876,-1.828,-9.619,-0.845,-1.082,14.77,-9.73,-3.01
,-9.761,-1.895,-1.558,-9.837,-0.337,-1.039,16.52,-9.52,-1.89
,-9.77,-1.589,-1.443,-9.902,0.096,-1.144,18.13,-9.38,-0.77
5376.0,-9.926,-0.014,-1.034,-9.954,-0.572,-1.039,16.52,-7.21,-1.19
,-9.962,-0.407,-0.89,-9.667,-0.596,-1.082,14.77,-7.14,-1.4
,-9.883,-0.581,-0.914,-9.509,-0.677,-1.101,14.14,-6.79,-1.26
,-9.969,-0.519,-1.036,-9.725,-0.723,-1.117,14.49,-5.95,-1.19
5452.0,-9.694,-0.84,-1.098,-9.943,-0.79,-1.254,12.32,-3.01,-0.49
,-9.88,-0.732,-1.271,-9.919,-0.782,-1.247,12.6,-2.8,-0.35
,-9.931,-0.581,-1.295,-9.871,-0.536,-1.22,12.04,-2.94,-0.35
,-9.876,-0.634,-1.263,-9.95,-0.603,-1.18,10.64,-2.8,-0.56
5527.0,-9.859,-0.715,-1.247,-9.966,-0.541,-1.058,6.23,0.21,-0.28
,-9.832,-1.082,-1.173,-10.189,0.194,-1.134,5.88,0.84,0.14
,-10.869,-1.22,-1.704,-10.199,0.404,-1.206,7.56,2.38,1.26
,-9.899,-1.201,-0.835,-10.0,0.235,-1.292,7.0,2.38,1.33
5603.0,-10.019,-0.103,-1.091,-10.062,-0.775,-1.441,-1.4,3.92,0.35
,-10.038,-0.345,-1.208,-9.978,-1.117,-1.433,-2.94,4.69,0.63
,-9.926,-0.505,-1.271,-9.899,-1.199,-1.426,-3.71,5.74,0.63
,-9.907,-0.68,-1.357,-9.871,-1.127,-1.397,-3.99,6.51,0.42
5678.0,-9.923,-1.261,-1.505,-9.722,-1.802,-1.742,-5.88,10.36,1.61
,-10.031,-1.371,-1.668,-9.765,-1.922,-1.766,-6.58,10.57,2.17
,-10.045,-1.541,-1.723,-9.758,-1.993,-1.718,-6.86,10.43,2.8
,-9.921,-1.749,-1.747,-9.792,-1.84,-1.752,-6.79,10.57,3.71
5754.0,-9.911,-1.539,-1.783,-9.945,-0.012,-1.35,-0.84,12.18,8.82
,-9.907,-1.07,-1.826,-10.014,0.077,-1.12,0.07,12.81,9.45
,-9.902,-0.596,-1.764,-9.921,0.361,-1.041,0.07,13.02,9.31
,-9.962,-0.191,-1.579,-9.799,0.354,-1.029,-0.63,13.58,8.82
5830.0,-9.739,0.079,-1.077,-9.952,-0.062,-1.496,-5.81,17.78,7.56
,-9.761,-0.139,-1.125,-9.686,-0.246,-1.46,-5.6,18.41,7.84
,-9.966,-0.218,-1.263,-9.773,-0.254,-1.933,-5.18,19.04,7.98
,-10.024,-0.146,-1.314,-9.804,-0.648,-1.73,-4.83,19.25,8.47
5906.0,-9.82,-0.605,-1.869,-9.514,-0.893,-2.108,-8.96,21.07,10.43
,-9.773,-0.751,-1.989,-9.715,-0.878,-2.032,-9.94,21.7,11.06
,-9.799,-0.833,-2.182,-9.844,-0.799,-3.692,-9.87,22.05,11.62
,-9.608,-0.828,-2.07,-10.045,-0.857,-2.175,-10.01,22.61,12.32
5981.0,-9.873,-0.479,-2.137,-9.612,-0.668,-2.142,-6.86,23.8,13.23
,-9.804,-0.278,-2.173,-9.612,-0.266,-2.826,-6.3,23.87,13.72
,-9.77,-0.361,-2.216,-9.713,-0.335,-2.302,-6.51,23.73,14.07
,-9.629,-0.424,-2.125,-9.646,-0.101,-2.484,-6.72,23.24,14.21
6057.0,-9.691,0.041,-2.541,-9.416,-0.5,-2.635,-4.9,23.38,13.44
,-9.706,0.01,-2.67,-9.457,-0.541,-2.718,-4.97,23.45,12.95
,-9.679,-0.101,-2.778,-9.603,-0.323,-2.716,-5.18,23.45,12.67
,-9.459,-0.349,-2.685,-9.734,-0.112,-2.778,-5.18,23.17,12.81
6133.0,-9.806,-0.258,-2.663,-9.572,-0.11,-2.903,-1.82,22.4,11.97
,-9.698,-0.048,-2.955,-9.574,-0.12,-2.895,-1.61,22.05,11.83
,-9.476,-0.22,-2.723,-9.519,-0.112,-2.991,-2.1,21.91,11.9
,-9.524,-0.079,-2.965,-9.658,0.165,-2.989,-1.26,21.7,11.97
6209.0,-9.988,1.754,-3.922,-9.313,0.416,-3.106,1.82,21.7,11.27
,-9.375,0.261,-2.687,-9.304,0.172,-3.149,-1.54,21.49,11.2
,-9.596,0.835,-3.149,-9.282,0.06,-2.994,-1.96,21.07,9.73
,-9.665,0.574,-3.077,-9.404,0.285,-3.061,-3.15,21.07,9.1
6285.0,-9.521,0.23,-3.034,-9.304,0.313,-3.116,-3.5,21.35,7.42
,-9.459,0.278,-3.159,-9.34,0.464,-3.061,-2.94,21.0,6.93
,-9.32,0.057,-2.998,-9.316,0.546,-3.056,-3.36,20.51,7.07
,-9.292,0.069,-2.994,-9.316,0.409,-3.037,-3.29,20.58,7.35
6360.0,-9.148,2.017,-5.279,-9.361,0.457,-3.245,4.41,0.56,-8.68
,-8.471,0.053,-2.52,-9.198,0.345,-3.221,-3.01,11.97,-0.63
,-9.584,0.316,-3.008,-9.253,0.103,-3.319,-4.41,17.29,2.45
,-9.287,0.156,-3.151,-9.21,0.06,-3.35,-3.43,16.45,2.03
6436.0,-9.081,-0.086,-3.266,-9.452,0.378,-3.206,-3.92,15.47,1.12
,-9.237,-0.129,-3.156,-9.426,0.459,-3.257,-3.15,15.26,0.77
,-9.258,-0.117,-2.998,-9.39,0.074,-3.183,-3.43,14.49,0.7
,-9.385,0.27,-3.235,-9.201,-0.012,-3.427,-3.22,13.93,0.49
6511.0,-9.344,0.017,-3.446,-9.227,0.529,-3.838,-4.97,10.36,-1.12
,-9.395,0.156,-3.759,-9.191,0.684,-3.824,-3.78,9.38,-1.26
,-9.213,0.266,-3.836,-9.251,0.663,-4.125,-3.15,8.96,-0.77
,-9.325,0.345,-3.853,-9.15,0.333,-4.089,-2.66,8.33,-0.42
6587.0,-9.447,-0.05,-3.92,-9.359,-0.256,-3.769,-3.92,4.06,-3.92
,-9.371,-0.39,-3.96,-9.337,-0.036,-3.896,-3.22,2.73,-3.92
,-9.21,-0.232,-3.771,-9.086,0.11,-3.798,-1.68,0.35,-4.41
,-9.229,-0.242,-3.582,-9.27,0.282,-3.606,-0.07,-0.77,-4.13
6663.0,-9.385,0.369,-3.472,-9.287,0.591,-2.905,7.14,-5.11,-4.62
,-9.332,0.349,-3.534,-9.509,0.285,-2.714,7.14,-6.93,-5.74
,-9.462,0.38,-3.226,-9.809,0.112,-2.747,7.56,-8.33,-6.65
,-9.299,0.632,-3.364,-9.543,-0.002,-3.149,8.75,-8.96,-6.79
6739.0,-9.11,0.278,-3.599,-9.39,-0.089,-2.587,4.34,-17.08,-12.39
,-8.847,0.081,-3.374,-9.61,-0.038,-2.709,3.85,-17.43,-11.97
,-9.103,-0.067,-2.891,-9.596,0.23,-3.077,3.85,-13.93,-9.94
,-9.265,0.022,-2.766,-9.124,0.17,-3.151,4.41,-11.2,-9.24
6814.0,-8.856,-0.156,-2.74,-9.474,-0.292,-2.474,1.89,-9.45,-8.61
,-8.969,-0.531,-2.615,-9.615,-0.024,-2.871,1.68,-5.04,-6.44
,-9.337,-0.646,-2.517,-9.184,-0.227,-2.953,3.22,-1.96,-5.25
,-9.418,-0.653,-2.414,-8.921,-0.345,-2.927,5.11,-0.49,-4.55
6890.0,-9.105,-0.558,-2.888,-9.756,-0.074,-3.058,3.15,3.08,-3.15
,-9.308,-0.833,-2.776,-9.478,0.225,-3.63,3.22,4.69,-2.03
,-9.502,-0.893,-2.654,-9.064,0.16,-3.714,4.34,5.39,-1.33
,-9.658,-0.62,-2.754,-8.926,-0.057,-3.666,5.39,5.04,-0.84
6965.0,-8.949,-0.254,-3.68,-9.557,0.06,-3.671,-0.49,4.27,-0.56
,-9.136,-0.562,-3.508,-9.284,0.01,-3.68,0.63,5.74,-0.07
,-9.586,-0.452,-3.525,-9.153,-0.261,-3.522,2.8,5.88,0.0
,-9.703,-0.084,-3.539,-9.237,-0.534,-3.403,4.27,4.34,-0.28
7041.0,-9.359,-0.5,-3.455,-9.22,-0.323,-3.47,1.82,2.59,-0.14
,-9.418,-0.369,-3.343,-9.143,-0.474,-3.374,2.59,1.68,-0.07
,-9.354,-0.208,-3.477,-9.332,-0.481,-3.262,2.94,0.42,-0.21
,-9.284,-0.156,-3.561,-9.619,-0.23,-3.4,2.73,-0.21,-0.28
7117.0,-9.593,0.014,-3.498,-9.206,-0.407,-3.367,5.39,-0.91,0.56
,-9.404,0.172,-3.537,-9.385,-0.479,-3.209,4.48,-2.1,0.35
,-9.232,0.072,-3.556,-9.464,-0.342,-3.247,3.36,-2.24,0.21
,-9.088,-0.196,-3.472,-9.603,-0.153,-3.156,2.45,-1.4,0.35
7193.0,-9.552,-0.084,-3.35,-9.28,-0.254,-3.477,4.06,-1.68,0.42
,-9.474,-0.091,-3.408,-9.418,-0.357,-3.443,3.15,-2.31,0.42
,-9.182,-0.067,-3.367,-9.375,-0.419,-3.173,2.17,-2.59,0.35
,-9.155,-0.151,-3.36,-9.373,-0.39,-2.922,1.82,-2.1,0.28
7269.0,-9.514,-0.342,-2.718,-9.356,-0.069,-2.737,3.22,-0.35,1.4
,-9.488,-0.292,-2.661,-9.361,-0.223,-2.807,3.01,-0.28,1.61
,-9.545,-0.182,-2.611,-9.44,-0.357,-2.91,2.59,-0.63,1.68
,-9.485,-0.048,-2.661,-9.462,-0.402,-2.982,1.82,-1.4,1.47
7344.0,-9.459,-0.572,-3.271,-9.43,-0.656,-2.907,-0.98,-3.15,0.84
,-9.289,-0.687,-3.216,-9.392,-0.72,-2.778,-0.42,-3.64,1.61
,-9.32,-0.735,-3.154,-9.392,-0.584,-2.649,0.42,-3.78,2.8
,-9.347,-0.696,-3.053,-9.519,-0.402,-2.498,1.54,-3.99,3.64
7420.0,-9.689,-0.254,-2.546,-9.354,-0.306,-2.804,1.82,-3.64,6.16
,-9.67,-0.282,-2.795,-9.507,-0.325,-3.046,0.98,-4.2,6.23
,-9.366,-0.371,-2.812,-9.383,-0.081,-3.221,0.56,-4.69,7.0
,-9.318,-0.304,-2.711,-9.203,0.249,-3.271,0.63,-4.83,7.98
7496.0,-9.17,0.416,-3.173,-9.902,0.349,-3.125,1.33,-5.32,7.21
,-9.308,0.318,-3.072,-9.703,0.835,-3.333,-0.56,-3.64,7.63
,-9.284,-0.067,-2.761,-9.265,1.201,-3.872,-2.52,-1.12,8.47
,-9.883,-0.081,-2.563,-9.016,1.127,-3.805,-3.01,-1.12,8.33
7572.0,-9.165,0.684,-3.498,-9.574,0.311,-2.429,-6.93,-9.03,4.76
,-9.174,0.201,-3.154,-9.67,0.474,-2.486,-7.07,-5.18,5.04
,-9.273,-0.043,-2.831,-9.529,0.206,-2.498,-5.53,-1.96,4.55
,-9.459,0.062,-2.623,-9.493,-0.443,-2.271,-4.2,-0.98,3.36
7647.0,-9.481,-0.912,-2.261,-9.081,0.357,-2.735,-10.01,-0.84,3.71
,-9.742,-0.914,-2.209,-9.043,0.098,-2.474,-5.39,-3.01,3.36
,-9.897,-0.29,-2.907,-9.517,-0.081,-2.233,0.35,-8.12,1.33
,-9.399,0.077,-3.075,-9.78,0.285,-2.606,3.64,-11.55,1.26
7723.0,-9.182,0.759,-2.582,-10.069,-0.309,-1.57,4.83,-2.8,1.47
,-8.897,0.749,-2.422,-10.223,-0.225,-2.288,3.22,1.68,2.45
,-9.055,0.44,-2.182,-9.981,-0.012,-2.644,0.98,7.07,3.85
,-9.526,-0.103,-1.61,-9.648,0.392,-2.802,0.0,10.57,4.9
7798.0,-9.237,0.455,-2.766,-9.351,0.493,-2.292,7.63,-10.78,-0.91
,-9.105,-0.115,-2.522,-9.672,1.228,-2.405,6.51,-8.26,-0.56
,-9.605,-0.462,-2.455,-9.301,1.326,-2.532,6.72,-4.97,0.07
,-9.521,-0.187,-2.438,-9.84,0.694,-2.388,9.03,-3.36,0.63
7874.0,-10.093,-0.187,-2.816,-9.031,-1.529,-2.814,-1.05,-6.16,-4.76
,-9.744,-0.931,-2.95,-9.43,-1.409,-2.824,-0.49,-7.21,-3.43
,-9.708,-1.247,-3.151,-9.914,-0.56,-2.611,3.36,-8.12,-1.4
,-9.206,-1.429,-3.113,-9.751,0.715,-2.639,8.61,-8.61,0.21
7950.0,-9.698,1.326,-2.814,-9.612,0.89,-2.525,23.31,-11.27,-0.91
,-9.835,1.859,-2.984,-9.61,0.902,-2.41,19.53,-11.76,-1.82
,-9.665,1.838,-2.881,-9.567,0.371,-2.257,14.0,-10.92,-2.24
,-9.612,1.251,-2.642,-9.509,0.089,-2.257,9.24,-8.61,-3.01
8026.0,-9.66,-0.084,-2.156,-9.596,0.562,-2.517,9.38,-6.02,-5.25
,-9.849,0.11,-2.123,-9.658,0.45,-2.709,11.06,-5.95,-5.6
,-9.777,0.768,-2.276,-9.624,0.191,-2.673,11.83,-6.86,-6.79
,-9.67,0.869,-2.481,-9.445,-0.536,-2.434,10.71,-7.98,-8.05
8101.0,-9.222,-1.254,-2.245,-9.66,-0.483,-2.163,3.15,-6.79,-9.31
,-9.308,-1.622,-1.993,-9.454,-0.452,-2.101,4.97,-6.72,-9.24
,-9.579,-1.24,-2.041,-9.356,-0.452,-2.082,8.12,-6.58,-9.24
,-9.782,-0.814,-2.216,-9.428,-0.452,-2.075,10.64,-7.0,-8.89
8177.0,-9.631,-0.577,-2.005,-9.658,-0.467,-2.046,12.88,-8.82,-7.91
,-9.746,-0.378,-1.919,-9.648,-0.493,-2.19,14.28,-9.45,-8.4
,-9.715,-0.115,-2.139,-9.871,-0.802,-2.034,14.84,-10.15,-8.26
,-9.761,-0.268,-2.111,-9.887,-0.648,-2.036,14.28,-10.22,-7.63
8253.0,-9.809,-0.467,-2.003,-9.88,-0.479,-2.242,16.59,-9.66,-7.35
,-9.725,-0.4,-2.082,-9.84,-0.67,-2.101,16.94,-10.01,-7.35
,-9.653,-0.546,-1.996,-9.816,-0.548,-2.216,16.31,-9.94,-7.35
,-9.799,-0.428,-2.106,-9.73,-0.354,-2.137,16.1,-9.87,-7.84
8329.0,-9.883,-0.053,-2.194,-9.71,0.017,-2.012,16.59,-10.36,-8.33
,-9.706,-0.06,-2.154,-9.957,0.091,-1.637,16.17,-10.22,-8.47
,-9.684,-0.014,-2.127,-9.933,0.237,-1.661,15.54,-10.08,-8.82
,-9.758,-0.005,-2.254,-9.84,0.361,-1.622,15.4,-9.8,-9.03
8405.0,-9.557,0.151,-1.627,-9.677,-1.206,-1.938,8.82,-8.82,-11.27
,-9.88,-0.455,-1.4,-9.641,-1.347,-2.036,7.35,-8.68,-11.27
,-9.797,-0.522,-1.804,-9.608,-1.448,-2.01,7.63,-9.45,-10.5
,-9.825,-1.01,-1.768,-9.964,-1.127,-1.96,7.84,-9.94,-10.22
8480.0,-9.943,-0.577,-2.3,-9.976,-0.766,-2.063,12.11,-9.24,-7.28
,-10.189,-0.345,-2.06,-10.067,-1.07,-1.941,10.85,-9.45,-7.77
,-10.012,-0.213,-2.242,-10.065,-1.168,-1.857,8.89,-9.87,-7.49
,-9.902,-0.529,-2.111,-9.746,-1.125,-1.759,6.93,-10.43,-7.14
8556.0,-9.718,-1.106,-1.701,-10.0,-0.555,-1.472,8.12,-11.13,-5.18
,-9.667,-1.027,-1.467,-10.16,-0.567,-1.476,8.82,-10.64,-5.18
,-9.842,-0.675,-1.632,-10.203,-0.66,-1.457,9.59,-10.29,-5.39
,-10.019,-0.452,-1.479,-9.847,-1.024,-1.417,8.68,-9.87,-5.25
8632.0,-9.71,-1.158,-1.481,-10.148,-1.519,-1.177,5.04,-9.8,-4.69
,-9.505,-1.144,-1.689,-9.971,-1.228,-1.247,6.51,-9.24,-4.41
,-9.727,-1.644,-1.271,-9.732,-0.878,-1.251,6.79,-8.12,-3.22
,-9.904,-1.625,-1.247,-9.483,-0.637,-1.309,7.7,-7.98,-3.01
8708.0,-9.533,-0.565,-1.328,-9.971,-1.426,-0.756,7.49,-7.77,-3.29
,-9.586,-0.675,-1.376,-10.062,-1.448,-0.909,7.0,-7.7,-2.8
,-9.71,-1.125,-0.962,-10.086,-1.608,-0.838,6.3,-7.84,-2.17
,-9.871,-1.309,-0.895,-9.868,-1.548,-0.909,6.58,-7.63,-1.61
8783.0,-9.866,-1.364,-0.938,-9.844,-1.354,-1.005,8.82,-6.79,-0.7
,-9.756,-1.082,-0.998,-9.715,-1.206,-0.847,9.24,-6.93,-0.56
,-9.617,-1.204,-0.948,-9.684,-1.055,-0.718,8.54,-6.51,-0.14
,-9.677,-1.488,-0.885,-9.82,-0.775,-0.646,8.19,-5.81,0.49
8859.0,-9.859,-0.553,-0.627,-9.636,-0.723,-0.641,7.42,-3.78,0.7
,-9.679,-0.558,-0.562,-9.885,-0.893,-0.531,5.74,-3.64,0.49
,-9.88,-0.701,-0.514,-9.892,-0.694,-0.684,4.48,-3.08,0.49
,-9.579,-0.826,-0.503,-10.072,-0.481,-0.885,3.71,-2.8,0.42
8934.0,-9.923,-0.799,-1.027,-9.902,-1.443,-0.852,2.17,-0.7,0.28
,-9.775,-1.065,-0.976,-10.084,-1.187,-0.974,1.96,-0.21,1.05
,-9.677,-1.311,-1.058,-9.95,-1.204,-1.161,2.24,0.35,1.75
,-9.931,-1.345,-0.94,-9.809,-1.091,-1.158,2.8,0.91,2.31
9010.0,-9.835,-0.962,-1.23,-9.828,-1.393,-1.065,1.05,1.61,1.89
,-9.957,-1.12,-1.287,-9.832,-1.211,-1.058,0.35,1.68,2.1
,-10.079,-1.263,-1.213,-9.722,-1.12,-0.986,0.14,2.03,2.52
,-9.921,-1.378,-1.17,-9.828,-0.835,-0.852,0.42,2.17,2.73
9086.0,-9.892,-0.567,-0.835,-9.873,-0.885,-0.763,1.47,5.04,2.52
,-10.067,-0.414,-0.768,-9.751,-0.739,-0.883,0.49,5.46,2.59
,-10.167,-0.565,-0.792,-9.763,-0.893,-0.993,-0.84,5.39,2.38
,-10.045,-0.888,-0.768,-9.876,-1.01,-1.027,-1.82,6.02,2.31
9162.0,-9.919,-1.122,-1.072,-9.895,-0.251,-1.06,-1.54,10.22,3.71
,-9.763,-1.117,-1.0,-10.06,-0.459,-1.141,-1.4,11.06,4.06
,-9.66,-0.962,-0.866,-9.919,-0.766,-1.302,-1.61,11.69,3.85
,-9.835,-0.656,-0.916,-9.921,-1.117,-1.405,-1.96,12.53,3.71
9238.0,-10.055,-1.385,-1.419,-9.911,-0.538,-1.493,-5.74,15.26,5.67
,-10.191,-1.39,-1.527,-10.053,-0.227,-1.632,-4.2,15.82,6.16
,-10.096,-1.184,-1.529,-10.01,-0.127,-1.46,-2.87,16.03,6.02
,-9.871,-0.972,-1.45,-9.99,0.079,-1.4,-2.38,16.52,5.95
9313.0,-10.134,0.053,-1.433,-9.89,-0.916,-1.558,-6.79,20.37,5.39
,-10.086,-0.256,-1.326,-9.763,-1.022,-1.622,-7.98,21.28,5.25
,-10.12,-0.383,-1.419,-9.718,-1.007,-1.752,-8.33,21.42,5.32
,-10.062,-0.491,-1.505,-9.813,-1.043,-1.977,-7.56,21.84,5.88
9389.0,-9.761,-1.058,-2.144,-9.548,-1.101,-2.132,-6.16,22.75,10.08
,-9.763,-1.364,-2.151,-9.624,-0.857,-2.125,-6.44,22.4,10.64
,-9.651,-1.603,-2.142,-9.811,-1.062,-2.024,-6.51,21.84,11.55
,-9.619,-1.565,-2.12,-9.993,-0.933,-1.697,-5.53,21.7,12.18
9465.0,-9.945,-1.737,-0.517,-9.727,-0.112,-2.393,-10.5,22.68,14.63
,-9.916,-0.579,-1.938,-9.476,0.347,-2.249,-8.05,22.54,14.49
,-9.816,-0.567,-1.905,-9.39,0.5,-2.194,-6.79,22.82,14.42
,-9.718,-0.309,-2.19,-9.651,0.194,-2.103,-6.3,22.82,14.42
9541.0,-9.832,-0.002,-2.087,-9.608,-0.665,-2.154,-8.75,23.8,11.62
,-9.72,0.019,-2.063,-9.698,-0.72,-2.295,-9.31,23.38,10.57
,-9.627,-0.005,-2.259,-9.739,-0.617,-2.513,-9.94,23.52,10.15
,-9.658,-0.371,-2.096,-9.725,-0.529,-2.649,-10.22,23.73,9.94
9616.0,-9.619,-0.641,-2.666,-9.418,-0.373,-3.068,-4.76,21.21,9.87
,-9.459,-0.498,-2.891,-9.615,-0.11,-3.149,-3.15,20.65,9.59
,-9.237,-0.589,-2.895,-9.756,0.141,-3.08,-2.52,20.72,9.73
,-9.258,-0.646,-2.922,-9.742,0.215,-3.125,-1.82,20.86,9.8
9692.0,-9.675,-0.261,-2.883,-9.691,-0.565,-3.307,-4.97,20.58,7.35
,-9.952,0.443,-3.577,-9.677,-0.491,-3.403,-7.56,20.58,8.26
,-9.301,-0.95,-2.998,-9.445,-0.321,-3.479,-8.05,19.67,8.96
,-9.555,-0.586,-3.278,-9.313,-0.218,-3.434,-5.18,18.97,8.61
9767.0,-9.466,0.211,-3.429,-9.373,-0.282,-3.005,-0.07,16.03,7.91
,-9.392,-0.072,-3.113,-9.33,-0.074,-2.986,-2.31,16.24,7.98
,-9.371,-0.043,-3.221,-9.153,0.275,-3.068,-2.87,16.31,7.98
,-9.244,-0.124,-3.072,-12.587,0.629,-2.584,-3.22,16.73,7.84
9843.0,-7.59,-1.067,-2.359,-9.316,0.759,-2.869,-6.09,11.69,3.08
,-9.56,0.648,-2.359,-9.179,0.395,-2.687,-3.71,14.0,2.87
,-9.615,0.778,-2.895,-9.533,0.27,-2.556,-2.94,14.07,1.89
,-9.519,0.653,-2.594,-9.304,0.194,-2.594,-4.97,13.58,1.61
9919.0,-9.201,-0.352,-2.474,-9.521,0.129,-2.723,-8.12,13.58,-1.68
,-9.428,-0.459,-2.201,-9.43,0.419,-2.838,-8.54,14.84,-1.33
,-9.397,-0.378,-2.383,-9.509,0.203,-2.907,-7.42,14.91,-1.26
,-9.49,-0.316,-2.505,-9.476,-0.067,-3.01,-6.23,13.65,-1.68
9995.0,-9.253,-0.213,-3.216,-9.371,-0.412,-3.393,-11.13,7.42,-4.62
,-9.227,-0.354,-3.252,-9.529,-0.464,-3.266,-9.73,7.42,-4.97
,-9.34,-0.366,-3.336,-9.5,-0.378,-3.565,-8.96,6.23,-5.32
,-9.263,-0.507,-3.52,-9.258,-0.302,-3.752,-6.86,5.46,-5.18
10070.0,-9.45,-0.493,-3.417,-9.782,-0.005,-3.704,-3.08,-1.75,-5.81
,-9.282,-0.62,-3.388,-9.253,0.148,-3.967,-2.73,-1.89,-4.62
,-9.445,-0.558,-3.118,-9.031,0.115,-4.109,-1.12,-1.82,-3.92
,-9.663,-0.34,-3.166,-9.241,0.488,-4.104,0.35,-3.15,-3.78
10146.0,-9.165,0.206,-3.656,-10.031,0.474,-3.379,4.27,-11.13,-6.65
,-9.366,-0.218,-3.154,-9.615,1.07,-4.034,4.48,-7.0,-5.6
,-9.485,-0.419,-2.845,-9.019,0.871,-3.821,6.3,-5.74,-5.32
,-9.744,-0.187,-2.709,-8.89,0.215,-3.178,8.26,-7.07,-6.16
10221.0,-8.959,-0.553,-2.709,-9.354,-0.572,-2.125,0.77,-8.82,-9.17
,-9.332,-1.201,-2.307,-9.378,-0.493,-2.008,2.94,-6.16,-8.89
,-9.572,-1.048,-2.534,-9.844,-0.402,-1.814,8.12,-7.7,-9.73
,-9.349,-0.711,-2.151,-9.773,-0.151,-2.376,11.83,-8.4,-8.82
10297.0,-9.435,-0.103,-2.467,-9.438,-0.665,-2.115,7.77,-3.64,-6.58
,-9.072,-0.053,-2.465,-9.44,-1.015,-1.953,6.79,-2.38,-6.44
,-9.16,-0.074,-2.374,-9.562,-0.991,-1.869,5.74,-0.35,-6.23
,-9.387,-0.261,-2.357,-9.653,-1.027,-1.809,5.74,1.96,-5.74
10373.0,-9.596,-1.067,-1.862,-9.277,-0.395,-2.812,5.81,5.04,-2.94
,-9.545,-0.955,-1.95,-9.191,-0.773,-2.69,5.67,4.76,-2.45
,-9.49,-0.526,-2.417,-9.124,-1.254,-2.462,5.18,4.06,-2.38
,-9.366,-0.412,-2.663,-9.198,-1.603,-2.067,3.78,4.06,-2.31
10449.0,-9.612,-1.481,-2.101,-9.052,0.05,-3.453,0.28,9.73,1.19
,-9.988,-0.995,-2.501,-8.906,-0.294,-3.436,2.1,8.54,1.05
,-9.954,-0.218,-2.886,-9.076,-0.742,-3.431,2.38,6.09,0.63
,-9.43,0.17,-3.362,-9.442,-0.979,-3.4,0.98,4.13,0.63
10525.0,-9.588,-0.754,-3.625,-9.442,-0.361,-3.336,2.87,7.42,1.12
,-9.538,-0.682,-3.537,-9.426,-0.275,-3.542,5.11,6.09,1.4
,-9.433,-0.632,-3.415,-9.452,-0.129,-3.786,5.95,5.18,1.89
,-9.414,-0.447,-3.393,-9.256,-0.189,-3.857,6.23,4.2,1.89
10600.0,-9.22,-0.23,-3.85,-9.536,-0.517,-3.104,3.01,2.1,0.21
,-9.15,-0.369,-3.661,-9.564,-0.395,-3.118,3.01,2.38,0.0
,-9.304,-0.464,-3.467,-9.474,-0.414,-3.106,3.64,2.87,0.0
,-9.375,-0.534,-3.262,-9.335,-0.593,-3.053,4.41,3.01,0.0
10676.0,-9.387,-0.57,-3.092,-9.323,-0.579,-3.099,4.76,1.68,-0.14
,-9.349,-0.495,-3.132,-9.368,-0.704,-2.972,5.39,1.26,-0.07
,-9.426,-0.567,-3.226,-9.512,-0.828,-2.948,5.88,1.33,0.07
,-9.392,-0.637,-3.24,-9.533,-0.799,-2.857,6.23,1.33,0.21
10752.0,-9.572,-0.593,-2.857,-9.378,-0.419,-3.192,7.56,2.31,1.54
,-9.509,-0.189,-3.096,-9.361,-0.416,-3.187,7.42,1.26,1.05
,-9.299,-0.122,-3.12,-9.387,-0.412,-3.247,5.95,0.7,0.49
,-9.318,-0.266,-3.168,-9.404,-0.369,-3.285,3.99,1.05,0.28
10828.0,-9.457,-0.359,-3.106,-9.421,-0.558,-3.156,3.78,1.96,0.0
,-9.421,-0.426,-3.104,-9.361,-0.586,-3.173,3.22,1.61,-0.21
,-9.392,-0.517,-3.032,-9.27,-0.806,-3.132,2.52,1.47,-0.14
,-9.493,-0.524,-3.075,-9.344,-0.782,-3.084,2.24,1.47,-0.21
10903.0,-9.495,-0.677,-3.168,-9.371,-0.598,-3.561,1.89,0.77,-0.28
,-9.541,-0.605,-3.273,-9.337,-0.648,-3.4,2.1,0.07,-0.35
,-9.356,-0.553,-3.348,-9.351,-0.577,-3.357,1.96,0.14,-0.07
,-9.354,-0.586,-3.408,-9.273,-0.567,-3.398,1.68,-0.21,0.0
10979.0,-9.476,-0.507,-3.297,-9.399,-0.692,-2.972,3.43,-0.49,0.42
,-9.466,-0.364,-3.25,-9.469,-0.811,-2.788,3.71,-0.91,0.35
,-9.383,-0.424,-3.195,-9.488,-0.818,-2.699,3.29,-1.19,0.42
,-9.38,-0.543,-3.192,-9.471,-0.833,-2.635,2.59,-1.12,0.56
11054.0,-9.665,-0.814,-2.548,-9.359,-0.782,-2.58,2.38,-2.52,1.54
,-9.581,-0.739,-2.601,-9.407,-0.821,-2.489,2.03,-3.43,1.89
,-9.418,-0.849,-2.613,-9.497,-0.799,-2.345,1.54,-3.36,2.24
,-9.332,-0.857,-2.589,-9.574,-0.546,-2.501,1.26,-3.78,2.38
11130.0,-9.505,-0.538,-2.661,-9.316,-1.173,-2.797,-0.49,-5.46,3.5
,-9.462,-0.768,-2.647,-9.143,-1.23,-2.596,-2.17,-4.9,4.48
,-9.483,-0.945,-2.498,-9.557,-0.938,-2.508,-3.5,-4.34,5.32
,-9.409,-1.094,-2.637,-9.562,-0.613,-2.618,-3.5,-4.27,5.74
11206.0,-9.555,-0.581,-2.491,-9.225,-0.663,-2.888,1.82,-5.74,7.7
,-9.55,-0.462,-2.771,-9.287,-0.682,-2.749,0.77,-5.6,8.61
,-9.462,-0.488,-2.893,-9.275,-0.694,-2.828,-0.56,-5.6,9.31
,-9.438,-0.658,-2.895,-9.49,-0.771,-2.73,-1.4,-5.74,9.73
11282.0,-9.44,-0.555,-2.721,-9.493,-0.447,-2.441,1.82,-5.95,10.57
,-9.459,-0.646,-2.359,-9.5,-0.108,-2.735,2.03,-5.95,11.13
,-9.586,-0.211,-2.632,-9.485,0.012,-2.505,2.52,-6.86,10.43
,-9.155,-0.402,-2.556,-9.653,0.273,-2.795,2.73,-6.02,10.57
11358.0,-9.174,0.565,-2.802,-9.868,0.079,-1.969,10.22,-0.63,11.27
,-9.277,0.56,-2.316,-9.686,-0.115,-2.242,10.08,1.05,10.99
,-9.392,0.617,-2.429,-9.686,-0.28,-2.137,8.33,2.94,9.87
,-9.387,0.318,-2.23,-9.586,0.026,-2.407,6.65,5.18,9.31
11433.0,-9.392,-0.089,-2.247,-9.67,0.416,-2.754,1.54,-1.19,6.16
,-9.746,0.168,-2.388,-9.397,0.187,-3.029,1.26,-0.56,5.95
,-9.828,0.4,-2.716,-9.32,0.024,-2.862,1.75,-1.05,5.18
,-9.646,0.586,-2.895,-9.677,0.053,-2.706,1.54,-2.38,4.55
11509.0,-9.639,0.081,-2.57,-9.579,-0.105,-2.781,0.63,-4.97,-0.63
,-9.6,0.057,-2.757,-9.591,0.419,-2.642,0.7,-5.53,-1.75
,-9.45,-0.223,-2.656,-9.306,0.761,-2.546,0.21,-6.09,-2.1
,-9.552,-0.412,-2.764,-9.258,0.591,-2.168,0.91,-6.44,-2.31
11585.0,-9.39,0.266,-2.13,-9.809,-0.33,-2.448,0.14,-0.63,0.98
,-9.605,-0.206,-1.943,-9.483,-0.404,-2.613,-1.68,-1.26,-0.63
,-9.952,-0.347,-2.187,-9.189,-0.421,-2.57,-1.89,-3.71,-3.85
,-9.897,-0.519,-2.206,-9.289,-0.469,-2.601,-0.98,-6.02,-5.46
11661.0,-9.505,-0.787,-2.589,-9.387,0.213,-3.07,5.39,-1.4,-0.49
,-9.684,-0.447,-2.8,-9.481,-0.306,-2.994,7.98,-2.52,-1.12
,-9.703,0.409,-3.163,-9.56,-1.096,-2.931,9.24,-3.85,-1.47
,-9.552,0.56,-3.254,-9.519,-1.519,-3.015,6.58,-3.85,-0.7
11736.0,-9.538,-1.512,-3.171,-9.627,-0.34,-3.082,5.74,-5.32,-1.82
,-9.6,-1.299,-3.269,-9.529,0.218,-2.917,9.31,-5.67,-1.05
,-9.658,-0.969,-3.41,-9.543,0.835,-2.898,12.18,-6.02,-0.7
,-9.72,-0.842,-3.266,-9.708,0.962,-2.726,13.65,-6.3,-0.14
11812.0,-9.938,0.926,-2.529,-9.689,0.45,-2.393,12.18,-8.54,-3.22
,-9.976,0.852,-2.352,-9.763,0.218,-2.465,9.66,-9.03,-4.13
,-9.785,0.847,-2.429,-9.746,-0.093,-2.618,7.63,-9.24,-4.69
,-9.83,0.665,-2.374,-9.88,-0.294,-2.58,5.81,-9.31,-4.97
11887.0,-9.615,-0.28,-2.582,-9.811,-0.493,-1.692,5.04,-8.75,-6.16
,-9.519,-0.546,-2.154,-9.77,-0.524,-1.778,5.46,-8.4,-6.02
,-9.598,-0.392,-2.017,-9.619,-0.242,-1.847,6.09,-7.91,-6.37
,-9.591,-0.254,-2.072,-9.641,-0.433,-1.91,6.51,-7.7,-7.14
11963.0,-9.478,-0.404,-1.981,-9.694,-0.34,-1.852,5.53,-8.61,-7.63
,-9.655,-0.555,-1.857,-9.665,-0.507,-2.072,6.37,-8.61,-7.63
,-9.706,-0.459,-1.831,-9.596,-0.89,-1.969,7.35,-8.47,-7.7
,-9.801,-0.349,-1.721,-9.572,-0.974,-2.012,8.26,-8.61,-7.84
12039.0,-9.639,-0.943,-1.977,-9.727,-0.34,-1.814,11.2,-8.19,-6.79
,-9.653,-0.823,-1.943,-9.682,-0.416,-1.646,11.76,-8.05,-6.65
,-9.739,-0.634,-1.886,-9.842,-0.366,-1.515,12.11,-7.98,-6.86
,-9.799,-0.488,-1.811,-9.751,-0.177,-1.594,11.97,-7.35,-6.93
12115.0,-9.706,-0.292,-1.4,-9.725,0.014,-1.955,8.89,-7.14,-7.14
,-9.844,-0.223,-1.637,-9.524,0.117,-2.35,8.82,-7.35,-7.21
,-9.945,-0.225,-1.649,-9.684,-0.725,-1.89,8.54,-7.49,-7.77
,-10.026,-0.084,-1.706,-9.813,-1.249,-1.835,8.4,-7.35,-7.98
12190.0,-9.923,-1.218,-2.132,-9.763,-1.117,-2.371,6.3,-5.53,-7.0
,-9.746,-1.35,-2.257,-9.665,-1.129,-2.326,7.0,-5.46,-6.58
,-9.567,-1.426,-2.292,-9.792,-1.01,-2.352,7.28,-5.67,-5.81
,-9.581,-1.271,-2.436,-10.033,-1.036,-1.989,7.91,-5.74,-5.32
12266.0,-9.859,-0.818,-2.022,-9.648,-0.723,-1.67,8.54,-6.58,-4.48
,-9.938,-0.605,-1.933,-9.797,-0.567,-1.553,8.75,-6.23,-4.27
,-9.957,-0.352,-1.972,-9.758,-0.553,-1.498,8.33,-5.88,-4.06
,-9.919,-0.591,-1.799,-10.043,-0.603,-1.383,7.84,-5.81,-3.71
12341.0,-9.935,-0.34,-1.445,-9.696,-1.216,-1.586,7.98,-5.74,-3.85
,-10.048,-0.467,-1.405,-9.61,-1.417,-1.527,6.93,-5.32,-4.2
,-9.978,-0.364,-1.548,-9.648,-1.407,-1.591,6.02,-5.18,-4.97
,-9.691,-0.608,-1.598,-9.746,-1.553,-1.706,4.97,-4.76,-5.11
12417.0,-9.715,-1.807,-1.603,-9.758,-1.381,-1.419,7.84,-4.34,-2.31
,-9.658,-1.874,-1.56,-9.629,-1.175,-1.326,8.89,-4.41,-1.82
,-9.785,-1.948,-1.364,-9.536,-1.108,-1.251,9.52,-4.48,-1.33
,-9.849,-1.783,-1.347,-9.526,-0.96,-1.156,10.85,-4.62,-0.98
12493.0,-9.753,-0.627,-1.376,-9.914,-0.68,-1.206,12.53,-3.71,-0.49
,-9.675,-0.656,-1.299,-10.1,-0.586,-1.287,12.18,-3.22,-0.07
,-9.679,-0.823,-1.184,-10.026,-0.313,-1.249,11.83,-2.59,0.42
,-9.701,-0.787,-1.137,-9.935,-0.12,-1.342,12.04,-1.68,0.7
12569.0,-9.799,-0.182,-1.436,-9.971,-1.07,-1.61,7.84,0.35,0.0
,-9.938,-0.285,-1.452,-9.945,-1.177,-1.62,5.95,1.4,-0.07
,-9.993,-0.656,-1.505,-9.978,-1.086,-1.639,4.27,2.38,0.0
,-9.976,-0.895,-1.594,-9.895,-0.677,-1.642,3.5,2.94,0.21
12645.0,-10.062,-0.261,-1.692,-10.05,-0.881,-1.675,3.15,5.74,1.05
,-10.146,-0.144,-1.811,-10.175,-0.754,-1.704,1.47,5.88,0.7
,-9.988,-0.352,-1.821,-10.055,-0.476,-1.814,-0.7,6.09,0.7
,-9.868,-0.689,-1.754,-9.947,-0.543,-1.878,-2.31,7.35,0.56
12720.0,-9.792,-0.823,-1.833,-9.981,-1.036,-1.883,-5.67,10.15,0.91
,-9.627,-1.17,-1.754,-10.194,-1.053,-2.005,-6.44,10.64,1.4
,-9.639,-1.275,-1.823,-10.201,-1.271,-1.965,-6.65,11.27,2.1
,-9.648,-1.251,-1.814,-9.959,-1.223,-2.067,-6.44,12.25,2.87
12796.0,-9.73,-1.441,-2.07,-9.959,-0.373,-2.012,-8.19,14.0,5.25
,-9.792,-1.366,-1.912,-9.792,-0.524,-1.804,-7.7,14.35,6.09
,-9.954,-1.01,-1.814,-9.773,-0.546,-1.776,-7.07,14.49,6.58
,-10.06,-0.505,-1.996,-9.88,-0.558,-1.898,-6.51,14.49,6.65
12872.0,-9.811,-0.718,-2.012,-9.61,-1.254,-2.309,-8.75,15.89,7.98
,-9.706,-1.096,-2.01,-9.739,-1.376,-2.345,-8.05,16.03,9.17
,-9.524,-1.225,-2.13,-9.816,-1.421,-2.343,-6.79,16.31,10.36
,-9.45,-1.268,-2.292,-9.746,-1.297,-2.491,-5.39,16.8,11.27
12948.0,-9.646,-1.201,-2.592,-9.691,-0.773,-2.211,-1.54,18.62,14.77
,-9.703,-1.275,-2.446,-9.813,-0.414,-2.151,-1.54,18.62,15.82
,-10.165,-0.706,-3.092,-9.631,-0.084,-2.242,-1.75,19.18,17.43
,-9.95,-1.132,-2.398,-9.655,-0.074,-2.144,-1.61,18.27,17.22
13023.0,-9.634,0.172,-2.271,-9.617,0.357,-2.106,-2.8,17.29,15.68
,-9.749,0.16,-2.108,-9.665,0.426,-2.168,-3.92,17.43,15.33
,-9.715,0.299,-2.326,-9.708,0.352,-2.3,-4.27,17.78,14.77
,-9.627,0.244,-2.063,-9.627,0.12,-2.19,-4.62,18.27,14.07
13099.0,-9.598,-0.007,-2.292,-9.433,-0.17,-2.711,-5.53,20.02,10.78
,-9.655,-0.005,-2.304,-9.407,-0.268,-2.742,-5.18,20.37,10.29
,-9.663,0.036,-2.668,-9.471,-0.392,-2.783,-4.83,20.51,9.87
,-9.493,-0.17,-2.623,-9.567,-0.383,-2.79,-4.97,20.58,9.45
13174.0,-9.533,-0.44,-2.931,-9.933,0.457,-3.704,-3.78,21.07,8.54
,-9.524,-0.522,-2.924,-9.292,-0.555,-2.891,-3.5,21.14,8.61
,-9.399,-0.469,-3.171,-9.519,-0.122,-3.101,-2.73,21.0,8.61
,-9.457,-0.503,-3.113,-9.598,0.124,-3.137,-1.68,21.07,8.68
13250.0,-9.454,0.268,-3.171,-9.351,0.361,-3.173,-2.59,19.39,7.0
,-9.282,0.261,-3.247,-9.359,0.407,-3.099,-3.36,19.39,7.0
,-9.234,0.254,-3.262,-9.442,0.294,-3.154,-3.92,19.88,6.51
,-9.33,0.251,-3.183,-9.433,-0.005,-2.986,-4.41,20.79,5.74
13326.0,-9.421,-0.141,-2.97,-9.366,0.397,-2.919,-8.26,20.65,4.97
,-9.232,-0.117,-3.142,-9.538,0.292,-3.333,-7.0,21.21,5.32
,-17.107,0.153,-5.724,-9.442,0.225,-3.087,15.05,4.69,-9.52
,-7.138,-1.45,-1.677,-9.258,0.546,-3.197,-2.73,13.79,-2.31
13402.0,-9.215,0.397,-3.271,-9.418,-0.44,-3.197,-5.39,16.73,0.21
,-9.131,0.012,-3.336,-9.363,-0.436,-3.151,-6.58,17.5,-0.42
,-9.208,-0.258,-3.106,-9.442,-0.273,-3.216,-6.86,17.78,-1.54
,-9.387,-0.507,-3.101,-9.323,-0.151,-3.36,-6.44,17.5,-1.82
13478.0,-9.139,-0.172,-3.422,-9.292,0.306,-3.453,-5.46,10.71,-1.96
,-9.249,-0.361,-3.168,-9.222,-0.041,-3.333,-5.88,10.5,-2.52
,-9.356,-0.124,-3.254,-9.17,-0.261,-3.405,-4.9,9.73,-3.22
,-9.409,0.062,-3.441,-9.249,-0.404,-3.551,-3.85,8.61,-3.78
13553.0,-9.28,-0.522,-3.278,-9.421,-0.495,-3.144,-3.71,6.02,-4.76
,-9.332,-0.342,-3.321,-9.564,-0.168,-3.092,-1.19,4.83,-4.62
,-9.38,-0.402,-3.195,-9.433,0.026,-3.364,-0.84,4.76,-3.57
,-9.6,-0.354,-3.061,-9.124,0.438,-3.735,-1.54,3.64,-3.15
13629.0,-8.885,0.44,-3.609,-9.45,-0.857,-3.431,-1.75,-4.55,-6.02
,-9.119,0.139,-3.606,-9.457,-0.546,-3.355,-3.22,-3.15,-6.58
,-9.15,-0.33,-3.644,-9.574,-0.062,-3.498,-3.43,-1.54,-6.86
,-9.234,-0.787,-3.372,-9.385,0.203,-3.687,-1.19,-0.14,-6.37
13705.0,-9.373,0.101,-3.348,-9.301,-0.266,-3.618,4.9,-4.2,-4.62
,-9.438,0.235,-3.62,-9.457,-0.292,-3.57,2.94,-5.81,-5.25
,-9.098,0.199,-3.783,-9.179,-0.364,-3.489,1.19,-7.07,-6.51
,-9.284,-0.294,-3.472,-8.952,-0.534,-3.262,0.98,-6.93,-7.14
13781.0,-9.079,-0.579,-3.056,-9.505,-0.536,-2.659,5.04,-5.81,-6.3
,-9.351,-0.572,-3.034,-9.407,-0.486,-2.517,5.6,-4.83,-6.02
,-9.466,-0.718,-2.788,-9.474,-0.424,-2.395,5.53,-5.18,-5.6
,-9.552,-0.694,-2.596,-9.241,-0.436,-2.436,5.74,-6.37,-5.53
13856.0,-9.325,-0.632,-2.362,-9.249,-0.168,-2.934,4.76,-5.04,-3.5
,-9.359,-0.38,-2.639,-8.973,-0.369,-2.967,5.39,-4.2,-3.5
,-9.404,-0.249,-2.67,-9.22,-0.412,-3.173,4.76,-4.34,-3.43
,-9.44,-0.148,-2.864,-9.265,-0.483,-3.228,4.06,-4.62,-3.64
13932.0,-9.167,-0.66,-3.259,-9.354,-0.62,-3.427,1.54,2.52,-1.26
,-9.217,-0.94,-3.168,-9.11,-0.577,-3.348,0.77,3.22,-0.91
,-9.478,-0.998,-3.111,-9.091,-0.524,-3.269,1.19,3.29,-0.42
,-9.581,-0.785,-3.288,-9.21,-0.493,-3.319,2.03,2.38,-0.28
14007.0,-9.139,-0.56,-3.185,-9.227,-0.158,-3.52,4.76,4.55,2.52
,-9.457,-0.325,-3.178,-9.155,-0.347,-3.381,5.39,4.69,2.59
,-9.552,-0.014,-3.398,-9.227,-0.534,-3.317,5.11,3.85,2.24
,-9.344,0.012,-3.427,-9.332,-0.639,-3.273,3.78,3.22,1.89
14083.0,-9.483,-0.668,-3.199,-9.148,-0.203,-3.57,1.89,3.92,1.26
,-9.485,-0.558,-3.285,-9.134,-0.206,-3.592,2.17,3.15,1.26
,-9.514,-0.383,-3.384,-9.222,-0.206,-3.649,2.38,2.03,1.05
,-9.256,-0.282,-3.563,-9.383,-0.421,-3.53,2.24,1.19,1.19
14159.0,-9.38,-0.486,-3.362,-9.287,-0.005,-3.623,2.66,1.82,1.75
,-9.471,-0.371,-3.276,-9.203,-0.019,-3.587,2.8,1.33,1.47
,-9.407,-0.244,-3.348,-9.182,-0.251,-3.597,2.59,0.84,1.05
,-9.426,-0.136,-3.441,-9.227,-0.357,-3.549,1.82,0.56,0.56
14235.0,-9.38,-0.371,-3.537,-9.423,-0.282,-3.393,1.19,1.33,0.07
,-9.277,-0.431,-3.436,-9.308,-0.287,-3.285,2.31,1.33,0.28
,-9.411,-0.388,-3.333,-9.213,-0.471,-3.235,3.01,1.54,0.63
,-9.469,-0.275,-3.343,-9.265,-0.55,-3.19,3.22,0.98,0.42
14310.0,-9.409,-0.694,-3.135,-9.239,-0.036,-3.671,3.01,1.68,0.84
,-9.564,-0.579,-3.135,-9.105,-0.098,-3.721,3.85,1.33,0.98
,-9.579,-0.235,-3.372,-9.074,-0.242,-3.642,4.48,0.07,0.77
,-9.416,-0.081,-3.484,-9.246,-0.328,-3.542,4.27,-0.84,0.56
14386.0,-9.435,-0.34,-3.415,-9.308,-0.431,-3.051,5.39,1.4,0.21
,-9.529,-0.311,-3.264,-9.328,-0.524,-2.97,5.39,1.26,0.07
,-9.454,-0.256,-3.108,-9.239,-0.613,-2.989,4.9,0.98,0.14
,-9.416,-0.316,-3.106,-9.311,-0.629,-2.927,3.99,0.77,0.07
14462.0,-9.562,-0.68,-2.8,-9.263,-0.168,-3.496,2.59,1.96,1.19
,-9.555,-0.548,-3.07,-9.217,-0.306,-3.501,3.08,1.26,1.05
,-9.414,-0.28,-3.264,-9.217,-0.373,-3.46,3.36,0.35,0.84
,-9.282,-0.156,-3.369,-9.263,-0.347,-3.448,3.01,-0.21,0.77
14538.0,-9.478,-0.194,-3.441,-9.206,-0.328,-3.333,4.55,1.19,0.56
,-9.531,-0.251,-3.264,-9.277,-0.419,-3.228,3.92,0.91,0.49
,-9.49,-0.17,-3.41,-9.311,-0.486,-3.25,3.15,-0.28,0.0
,-9.308,-0.179,-3.391,-9.497,-0.404,-3.336,2.73,-0.56,-0.21
14614.0,-9.371,-0.376,-3.24,-9.34,-0.488,-3.463,1.12,-1.12,-0.49
,-9.375,-0.428,-3.307,-9.32,-0.412,-3.565,0.28,-1.61,-0.42
,-9.34,-0.51,-3.233,-9.325,-0.251,-3.611,-0.35,-1.89,-0.28
,-9.361,-0.536,-3.314,-9.433,-0.211,-3.738,-0.42,-2.45,-0.35
14689.0,-9.361,-0.203,-3.723,-9.462,-0.548,-3.314,1.26,-2.73,-0.49
,-9.308,-0.225,-3.606,-9.409,-0.622,-3.175,1.61,-2.73,-0.28
,-9.318,-0.28,-3.498,-9.447,-0.567,-3.178,1.54,-3.08,-0.42
,-9.366,-0.349,-3.396,-9.557,-0.366,-3.271,1.68,-3.08,-0.56
14765.0,-9.438,-0.225,-3.357,-9.158,-1.17,-2.946,3.36,-6.65,-1.4
,-9.464,-0.239,-3.386,-9.373,-1.096,-2.8,2.17,-6.79,-0.77
,-9.308,-0.495,-3.46,-9.572,-0.876,-2.759,0.77,-6.79,-0.14
,-9.131,-0.854,-3.264,-9.629,-0.749,-2.589,0.28,-6.16,0.49
14840.0,-9.452,-0.696,-2.489,-9.447,-0.988,-2.18,3.57,-6.58,2.94
,-9.32,-0.735,-2.321,-9.397,-1.146,-2.118,2.38,-6.02,3.92
,-9.373,-0.794,-2.17,-9.481,-1.084,-2.017,1.19,-4.62,5.11
,-9.43,-0.914,-2.194,-9.555,-0.928,-2.096,0.35,-3.29,6.16
14916.0,-9.579,-0.823,-2.161,-9.538,-0.474,-1.692,1.47,-4.69,9.31
,-9.347,-0.675,-2.115,-10.211,0.134,-2.13,1.54,-4.55,10.85
,-9.244,-0.677,-2.0,-9.99,0.553,-2.656,0.91,-2.73,12.53
,-9.129,-0.608,-1.905,-9.284,0.811,-2.881,0.07,-0.07,14.14
14992.0,-8.82,0.902,-2.869,-9.519,-0.861,-2.424,-2.66,-11.2,6.44
,-8.705,0.584,-2.802,-10.148,-0.436,-2.381,-5.6,-6.3,7.07
,-9.222,-0.364,-2.548,-9.684,-0.048,-2.912,-8.4,-0.28,7.49
,-9.753,-0.62,-2.575,-9.304,-0.17,-2.84,-7.35,0.0,5.88
15068.0,-9.442,-0.115,-2.881,-8.885,0.203,-2.704,-0.98,-8.33,5.25
,-9.095,-0.01,-3.07,-9.186,-0.05,-2.62,0.0,-2.8,7.91
,-9.586,0.359,-2.785,-9.557,-0.266,-2.201,0.49,1.47,9.31
,-9.407,0.584,-3.065,-9.753,0.132,-2.142,0.56,2.24,8.68
15143.0,-10.12,0.304,-2.044,-9.184,-1.627,-2.852,1.33,4.69,3.85
,-9.978,0.644,-2.587,-9.265,-1.706,-3.072,1.4,0.28,2.1
,-9.775,-0.053,-2.843,-9.325,-1.436,-3.029,0.07,-2.45,1.26
,-9.433,-0.938,-2.948,-9.476,-1.206,-2.948,-0.49,-4.27,1.47
15219.0,-9.732,-0.806,-2.903,-9.407,1.989,-3.206,21.56,-7.42,7.49
,-9.409,-0.333,-3.044,-9.698,2.082,-3.104,22.96,-10.36,6.16
,-9.572,0.27,-3.096,-9.555,2.144,-3.039,22.61,-11.76,4.69
,-9.608,1.436,-3.3,-9.624,1.747,-2.95,22.12,-12.39,3.22
15295.0,-9.643,1.263,-2.905,-9.404,-0.986,-2.07,0.7,-6.23,-4.34
,-9.354,0.864,-2.718,-9.909,-0.878,-2.07,0.28,-4.48,-3.92
,-9.423,-0.007,-2.319,-9.84,-0.395,-2.383,0.7,-1.96,-3.01
,-9.517,-0.692,-2.19,-9.84,0.352,-2.702,3.36,-1.4,-2.94
15371.0,-9.433,0.548,-2.685,-9.617,0.081,-2.74,12.39,-7.07,-2.1
,-9.344,0.644,-2.661,-9.588,-0.179,-2.704,10.22,-6.93,-2.73
,-9.306,0.57,-2.735,-9.56,-0.225,-2.587,7.91,-6.65,-4.13
,-9.581,0.39,-2.704,-9.442,-0.23,-2.379,5.74,-6.86,-5.67
15446.0,-9.552,-0.28,-2.422,-9.485,-1.067,-2.245,6.02,-5.53,-7.84
,-9.892,-0.249,-2.46,-9.206,-1.149,-2.302,7.63,-5.6,-8.05
,-9.911,-0.383,-2.539,-9.442,-0.849,-2.544,8.47,-6.58,-7.91
,-9.713,-0.835,-2.395,-9.718,-0.648,-2.843,8.33,-7.35,-6.86
15522.0,-9.813,-0.512,-2.915,-9.49,-0.955,-2.611,11.2,-9.94,-5.88
,-9.584,-0.5,-2.821,-9.732,-1.122,-2.489,11.06,-9.73,-5.6
,-9.493,-0.505,-2.704,-9.804,-1.043,-2.431,10.99,-8.96,-5.25
,-9.39,-0.727,-2.556,-9.78,-1.003,-2.247,10.99,-8.19,-4.76
15598.0,-9.73,-0.785,-2.221,-9.682,-0.596,-1.957,17.99,-7.91,-2.24
,-9.751,-0.486,-2.23,-9.555,-0.304,-1.993,18.2,-8.68,-2.24
,-9.737,-0.62,-2.096,-9.526,0.105,-1.953,17.5,-9.24,-2.17
,-9.629,-0.735,-2.039,-9.378,0.584,-1.917,17.78,-9.66,-2.24
15673.0,-9.557,0.727,-1.778,-9.935,0.869,-1.462,18.27,-7.91,-4.27
,-9.634,0.66,-1.57,-9.825,0.756,-1.546,16.52,-6.86,-5.11
,-9.909,0.821,-1.529,-9.734,0.675,-1.723,15.61,-6.09,-6.58
,-10.045,0.96,-1.627,-9.739,0.292,-1.785,14.49,-5.88,-7.98
15749.0,-9.622,-0.395,-1.855,-9.505,-1.809,-2.352,5.67,-3.92,-9.52
,-9.593,-0.617,-2.331,-9.725,-1.744,-2.536,6.44,-3.71,-9.17
,-9.502,-1.228,-2.101,-9.655,-1.318,-2.515,6.23,-3.36,-8.54
,-9.447,-1.675,-2.108,-9.72,-1.56,-2.302,7.07,-2.8,-7.49
15825.0,-9.725,-1.405,-2.376,-9.871,-0.809,-1.924,9.73,-4.13,-4.48
,-9.696,-1.462,-2.211,-9.773,-0.325,-1.852,8.75,-4.27,-4.06
,-9.782,-1.448,-2.297,-9.612,-0.196,-1.606,9.1,-4.69,-3.36
,-9.775,-1.278,-2.077,-9.552,0.136,-1.524,10.78,-4.62,-2.45
15901.0,-9.916,0.148,-1.503,-9.945,-0.242,-2.06,9.38,-3.64,-2.31
,-10.062,0.139,-1.713,-9.854,-0.491,-2.099,7.77,-3.71,-2.59
,-9.916,-0.06,-1.89,-9.873,-0.785,-1.965,6.51,-3.99,-2.45
,-9.954,-0.275,-1.78,-9.682,-1.132,-1.912,5.95,-4.06,-2.24
15976.0,-9.612,-1.144,-2.046,-9.887,-1.321,-1.967,4.97,-2.8,-1.54
,-9.457,-1.527,-1.878,-9.847,-1.048,-2.044,4.69,-2.66,-0.84
,-9.529,-1.685,-1.9,-9.734,-1.115,-2.022,4.62,-2.66,-0.07
,-9.73,-1.685,-1.931,-9.756,-1.003,-1.902,4.97,-2.38,0.56
16052.0,-10.012,-0.701,-2.106,-9.694,-1.012,-1.874,6.79,-2.45,2.66
,-10.053,-0.715,-2.072,-9.806,-0.84,-1.948,7.0,-2.59,3.08
,-9.873,-0.828,-2.034,-9.734,-0.854,-1.898,7.49,-2.38,3.64
,-9.823,-1.0,-1.883,-9.933,-0.651,-1.819,7.56,-2.31,4.2
16128.0,-9.95,-0.378,-1.869,-9.931,0.294,-1.701,7.14,-1.4,4.83
,-9.852,-0.156,-1.732,-9.974,0.256,-1.625,6.09,-1.05,4.55
,-9.852,0.005,-1.811,-10.05,0.333,-1.584,4.9,-0.49,4.34
,-9.847,0.165,-1.675,-10.033,0.275,-1.606,3.5,0.42,3.99
16204.0,-10.055,0.146,-1.725,-9.964,0.014,-1.84,-2.45,5.04,2.66
,-10.177,0.158,-1.747,-10.112,0.014,-1.878,-3.5,5.53,2.38
,-9.983,0.242,-1.802,-9.952,0.177,-2.051,-4.69,6.09,2.1
,-9.799,0.105,-1.828,-9.737,-0.132,-1.965,-5.95,6.72,1.61
16279.0,-9.799,-0.526,-1.977,-9.775,-0.768,-1.998,-12.46,9.24,-0.07
,-9.962,-0.651,-1.933,-9.701,-0.782,-2.063,-12.39,9.94,0.21
,-9.861,-0.586,-1.979,-9.734,-0.988,-2.173,-11.9,10.29,0.56
,-9.864,-0.555,-2.039,-9.809,-1.046,-2.218,-11.62,10.5,0.91
16355.0,-9.928,-0.969,-2.276,-9.899,-0.579,-2.237,-9.52,12.6,1.96
,-9.933,-0.928,-2.197,-10.038,-0.235,-2.436,-9.24,12.95,1.96
,-9.935,-0.881,-2.235,-9.971,-0.218,-2.419,-9.03,13.37,2.17
,-9.899,-0.804,-2.266,-9.715,-0.495,-2.534,-8.75,13.37,2.31
16430.0,-9.696,-0.976,-2.458,-10.05,-0.227,-2.673,-8.54,14.21,4.06
,-9.689,-0.83,-2.551,-9.799,-0.577,-2.702,-6.72,14.56,5.25
,-9.878,-0.747,-2.536,-9.686,-0.845,-2.654,-5.04,14.7,5.88
,-10.019,-0.459,-2.635,-9.574,-0.629,-2.816,-3.78,14.63,6.16
16506.0,-9.734,-0.34,-2.644,-9.804,-0.333,-2.759,-5.67,14.0,9.03
,-9.418,-1.158,-2.06,-9.651,-0.608,-2.687,-7.77,13.44,10.08
,-9.71,-0.682,-2.623,-9.596,-0.787,-2.481,-6.72,13.44,9.66
,-9.825,-0.349,-2.694,-9.483,-0.56,-2.584,-6.16,13.72,9.52
16582.0,-9.531,-0.459,-2.57,-9.624,0.189,-2.618,-4.27,15.26,11.34
,-9.586,-0.701,-1.893,-9.538,0.28,-2.553,-5.46,15.47,11.69
,-9.586,-0.215,-2.474,-9.55,0.385,-2.455,-4.06,15.54,11.27
,-9.682,0.041,-2.572,-9.61,0.369,-2.455,-3.15,15.68,10.85
16658.0,-9.586,0.208,-2.503,-9.483,-0.416,-2.821,-5.81,17.57,7.35
,-9.622,0.048,-2.493,-9.423,-0.34,-2.874,-6.3,17.92,6.58
,-9.658,-0.077,-2.726,-9.399,-0.316,-2.934,-6.16,18.13,6.09
,-9.56,-0.378,-2.69,-9.332,-0.112,-3.025,-5.25,18.62,6.16
16734.0,-9.361,-0.096,-3.063,-9.775,0.974,-3.817,-1.61,18.62,7.0
,-9.332,-0.232,-3.051,-9.057,-0.481,-3.106,-2.1,18.62,6.3
,-9.328,-0.237,-3.094,-9.304,-0.067,-3.281,-2.38,18.83,5.81
,-9.447,-0.318,-2.996,-9.385,-0.187,-3.101,-2.45,19.25,5.67
16809.0,-9.273,0.01,-2.974,-9.469,0.517,-3.068,-1.96,19.25,5.11
,-9.246,0.115,-2.809,-9.351,0.507,-3.147,-2.52,19.74,4.9
,-9.337,0.206,-2.967,-9.182,0.251,-3.19,-2.8,20.02,4.48
,-9.608,0.218,-2.986,-9.203,0.199,-3.233,-3.64,20.02,3.78
16885.0,-9.275,-0.124,-3.099,-9.371,-0.005,-3.24,-9.45,21.98,3.36
,-9.28,-0.134,-3.025,-9.213,-0.258,-3.202,-9.45,22.47,3.22
,-8.741,4.365,-9.308,-9.328,-0.177,-3.154,22.54,-9.03,-21.14
,-8.43,0.562,-3.19,-9.215,-0.074,-3.242,5.11,8.82,-6.37
16961.0,-9.186,-0.249,-3.223,-9.33,-0.141,-3.161,-7.7,16.03,0.56
,-9.244,-0.318,-3.02,-9.442,-0.043,-3.08,-7.35,16.31,0.07
,-9.378,-0.263,-2.984,-9.397,0.036,-3.151,-6.79,15.96,-0.35
,-9.366,-0.036,-3.125,-9.407,0.086,-3.202,-6.58,14.98,-0.56
17037.0,-9.311,-0.038,-3.297,-9.146,-0.409,-3.429,-9.17,9.8,-2.38
,-9.225,-0.297,-3.357,-9.328,-0.184,-3.429,-8.75,9.87,-2.8
,-9.239,-0.471,-3.446,-9.471,0.191,-3.549,-7.49,9.52,-3.08
,-9.162,-0.656,-3.47,-9.342,0.584,-3.623,-5.39,9.03,-2.73
17112.0,-9.392,0.574,-3.544,-9.392,-0.12,-3.072,0.84,5.74,-3.92
,-9.074,0.471,-3.453,-9.459,-0.232,-3.034,-0.14,5.04,-4.69
,-9.098,-0.029,-3.352,-9.395,-0.474,-2.876,-0.84,3.78,-5.46
,-9.16,0.232,-3.173,-9.466,-0.421,-2.781,-0.77,2.94,-6.44
17188.0,-9.536,-0.313,-2.816,-9.306,-0.56,-3.498,3.22,0.21,-7.14
,-9.392,-0.275,-2.871,-9.232,-0.364,-3.642,4.2,-1.4,-7.28
,-9.387,-0.163,-3.118,-9.06,-0.062,-3.62,3.78,-2.24,-7.14
,-9.387,-0.165,-3.254,-9.301,-0.086,-3.453,1.75,-2.52,-6.65
17263.0,-9.366,-0.208,-3.776,-9.438,-0.742,-3.458,2.03,-6.23,-7.77
,-9.256,-0.412,-3.747,-9.44,-0.514,-3.661,2.73,-6.3,-7.7
,-9.103,-0.562,-3.503,-9.005,-0.4,-3.699,3.43,-5.6,-6.65
,-9.165,-0.613,-3.503,-9.136,-0.299,-3.599,4.34,-5.6,-5.95
17339.0,-9.201,-0.337,-3.597,-9.189,0.077,-3.178,8.96,-5.04,-3.5
,-9.217,-0.471,-3.489,-9.368,-0.17,-2.843,10.36,-3.99,-2.8
,-9.349,-0.357,-3.362,-9.474,-0.4,-2.759,12.18,-3.85,-2.73
,-9.258,-0.067,-3.314,-9.643,-0.313,-2.843,13.37,-3.99,-3.22
17415.0,-9.49,-0.433,-2.905,-9.186,-0.905,-2.422,9.8,-5.67,-5.18
,-9.347,-0.481,-2.749,-9.596,-0.871,-2.446,9.73,-6.09,-5.04
,-9.155,-0.644,-2.659,-9.675,-0.823,-2.769,9.66,-6.02,-4.69
,-9.117,-0.682,-2.582,-9.452,-0.869,-2.572,9.17,-4.62,-4.41
17491.0,-9.387,-0.821,-2.527,-9.45,-0.373,-3.211,6.09,-2.87,-1.89
,-9.323,-0.792,-2.67,-9.27,-0.278,-3.34,5.67,-2.17,-0.98
,-9.167,-0.878,-2.85,-9.153,-0.38,-3.336,5.39,-0.84,-0.14
,-9.265,-0.713,-2.979,-9.198,-0.522,-3.321,6.3,0.28,0.21
17566.0,-9.134,-0.67,-3.3,-9.445,-0.151,-3.506,9.24,4.34,3.08
,-9.313,-0.656,-3.195,-9.311,-0.177,-3.477,9.73,5.67,3.36
,-9.457,-0.553,-3.24,-9.27,-0.292,-3.683,9.94,6.23,3.15
,-9.44,-0.313,-3.374,-9.308,-0.223,-3.766,9.59,5.95,2.66
17642.0,-9.112,-0.39,-3.812,-9.512,-0.325,-3.443,4.34,3.15,1.54
,-9.093,-0.483,-3.649,-9.368,-0.06,-3.594,4.76,3.64,1.68
,-9.265,-0.55,-3.463,-9.215,-0.007,-3.625,5.32,4.62,1.75
,-9.49,-0.495,-3.434,-9.22,-0.112,-3.664,6.16,5.04,1.89
17718.0,-9.232,-0.235,-3.69,-9.375,-0.601,-3.396,3.15,4.27,0.63
,-9.249,-0.29,-3.656,-9.387,-0.706,-3.319,2.8,4.06,0.49
,-9.294,-0.407,-3.671,-9.356,-0.562,-3.405,2.45,3.78,0.28
,-9.33,-0.546,-3.467,-9.198,-0.404,-3.644,2.1,3.57,0.14
17794.0,-9.227,-0.321,-3.735,-9.404,-0.562,-3.62,1.19,1.82,-0.07
,-9.16,-0.373,-3.697,-9.359,-0.376,-3.692,0.91,1.68,0.07
,-9.196,-0.546,-3.625,-9.316,-0.275,-3.642,1.26,2.17,0.35
,-9.261,-0.639,-3.704,-9.232,-0.266,-3.652,2.31,2.31,0.7
17870.0,-9.225,-0.4,-3.644,-9.301,-0.519,-3.424,3.71,0.56,0.35
,-9.275,-0.445,-3.549,-9.335,-0.565,-3.321,3.64,0.77,0.21
,-9.335,-0.464,-3.542,-9.385,-0.467,-3.312,3.92,1.05,0.35
,-9.328,-0.467,-3.518,-9.416,-0.433,-3.305,4.2,1.26,0.56
17945.0,-9.294,-0.457,-3.317,-9.227,-0.476,-3.367,4.2,0.77,0.56
,-9.301,-0.383,-3.309,-9.308,-0.412,-3.369,3.64,1.12,0.63
,-9.383,-0.333,-3.384,-9.287,-0.476,-3.297,3.01,1.05,0.49
,-9.229,-0.388,-3.343,-9.275,-0.467,-3.331,2.52,0.98,0.35
18021.0,-9.371,-0.464,-3.273,-9.313,-0.682,-3.247,2.38,1.26,0.21
,-9.44,-0.507,-3.228,-9.452,-0.541,-3.367,2.31,1.19,0.14
,-9.397,-0.412,-3.412,-9.351,-0.455,-3.35,2.87,0.49,-0.07
,-9.198,-0.555,-3.367,-9.351,-0.45,-3.369,2.73,0.91,0.28
18096.0,-9.265,-0.474,-3.238,-9.292,-0.323,-3.41,4.69,0.98,1.19
,-9.316,-0.44,-3.319,-9.253,-0.471,-3.364,4.62,1.12,1.26
,-9.363,-0.385,-3.345,-9.296,-0.605,-3.283,4.55,1.19,1.05
,-9.344,-0.302,-3.415,-9.43,-0.589,-3.23,4.27,1.05,0.84
18172.0,-9.359,-0.586,-3.171,-9.38,-0.311,-3.238,4.27,1.68,1.12
,-9.328,-0.558,-3.101,-9.313,-0.33,-3.4,4.27,1.54,1.05
,-9.445,-0.447,-3.154,-9.249,-0.414,-3.398,3.92,1.4,1.05
,-9.421,-0.38,-3.147,-9.246,-0.5,-3.439,3.43,1.26,0.91
18248.0,-9.284,-0.536,-3.441,-9.359,-0.278,-3.386,2.31,1.26,0.77
,-9.33,-0.586,-3.357,-9.383,-0.223,-3.475,2.73,1.4,0.77
,-9.395,-0.44,-3.329,-9.299,-0.304,-3.527,2.94,1.75,0.98
,-9.414,-0.325,-3.333,-9.258,-0.457,-3.508,2.59,1.4,0.7
18324.0,-9.227,-0.483,-3.551,-9.438,-0.428,-3.283,0.21,0.35,-0.14
,-9.258,-0.483,-3.522,-9.347,-0.591,-3.08,0.77,0.63,-0.21
,-9.296,-0.481,-3.431,-9.397,-0.526,-3.161,1.12,0.84,-0.35
,-9.33,-0.421,-3.317,-9.284,-0.625,-3.235,0.77,0.63,-0.49
18399.0,-9.318,-0.701,-3.197,-9.375,-0.369,-3.475,-2.52,-1.12,-0.84
,-9.294,-0.72,-3.235,-9.292,-0.352,-3.573,-2.24,-1.26,-0.63
,-9.347,-0.656,-3.242,-9.27,-0.412,-3.525,-1.68,-1.47,-0.49
,-9.395,-0.503,-3.326,-9.253,-0.452,-3.551,-1.26,-1.75,-0.28
18475.0,-9.249,-0.503,-3.475,-9.356,-0.22,-3.434,-0.63,-1.19,0.7
,-9.325,-0.4,-3.451,-9.359,-0.254,-3.307,-0.21,-0.91,0.7
,-9.426,-0.337,-3.453,-9.306,-0.404,-3.269,-0.21,-0.91,0.56
,-9.435,-0.325,-3.453,-9.351,-0.596,-3.161,-0.63,-1.54,0.21
18550.0,-9.409,-0.651,-3.07,-9.323,-0.239,-3.489,-3.22,-1.75,0.28
,-9.435,-0.648,-3.07,-9.249,-0.191,-3.609,-2.73,-2.45,0.21
,-9.538,-0.5,-3.166,-9.208,-0.313,-3.606,-2.38,-3.99,-0.07
,-9.447,-0.337,-3.424,-9.287,-0.469,-3.484,-2.03,-5.25,-0.49
18626.0,-9.418,-0.605,-3.403,-9.598,-0.486,-3.336,-1.75,-4.9,-0.14
,-9.418,-0.637,-3.381,-9.373,-0.522,-3.582,-1.12,-5.39,-0.14
,-9.452,-0.706,-3.099,-9.294,-0.471,-3.544,-1.19,-5.95,-0.07
,-9.495,-0.589,-3.104,-9.079,-0.694,-3.348,-1.05,-6.79,-0.14
18702.0,-9.1,-1.019,-3.049,-9.426,-0.869,-2.149,0.14,-5.11,3.15
,-9.287,-1.194,-2.706,-9.533,-0.955,-2.008,1.68,-3.92,3.99
,-9.371,-1.137,-2.508,-9.608,-1.039,-2.039,3.43,-3.15,4.69
,-9.485,-1.053,-2.257,-9.466,-0.89,-2.056,4.34,-2.66,5.6
18778.0,-9.5,-0.622,-2.331,-9.27,-0.359,-2.113,1.47,-2.31,9.66
,-9.366,-0.842,-2.225,-9.541,0.132,-2.316,0.84,-3.71,8.89
,-9.292,-0.565,-2.369,-9.407,0.153,-2.422,1.47,-3.43,9.38
,-9.213,-0.481,-2.285,-9.746,0.385,-2.627,1.89,-2.24,10.15
18854.0,-9.433,0.514,-3.089,-9.442,-0.464,-2.903,-0.91,-3.71,5.95
,-9.316,0.084,-2.927,-9.265,-0.644,-2.972,-3.43,-2.45,7.0
,-9.591,-0.041,-3.068,-9.086,-0.849,-2.85,-5.04,-1.05,7.63
,-9.466,-0.333,-2.922,-9.311,-1.113,-2.706,-3.99,-1.4,7.14
18929.0,-9.753,-1.122,-2.484,-9.368,-0.476,-2.661,2.38,-1.82,5.95
,-9.976,-0.847,-2.603,-9.115,-0.608,-2.462,5.32,-4.83,4.76
,-9.643,-0.684,-2.874,-9.399,-0.876,-2.247,7.35,-7.7,4.83
,-9.373,-0.653,-2.821,-9.538,-0.902,-2.266,8.05,-7.28,6.09
19005.0,-9.555,-1.039,-2.194,-9.842,-0.278,-2.027,12.11,-4.62,8.61
,-9.713,-0.921,-2.376,-9.416,0.653,-2.52,15.54,-7.98,8.4
,-9.359,-0.538,-2.575,-9.471,0.964,-2.68,18.2,-8.96,9.17
,-9.225,-0.555,-2.245,-9.323,1.314,-2.68,18.62,-6.65,11.06
19081.0,-9.234,1.515,-2.505,-9.737,0.433,-2.178,13.3,-4.48,7.14
,-9.311,1.194,-2.091,-9.658,0.419,-2.592,9.31,-0.35,6.02
,-9.519,1.015,-1.912,-9.531,0.227,-2.62,6.44,1.33,3.78
,-9.524,0.921,-2.13,-9.555,-0.223,-2.781,4.48,0.56,1.4
19157.0,-9.488,-0.232,-2.867,-9.433,0.199,-3.652,4.69,-3.92,0.07
,-9.612,-0.048,-3.001,-9.665,0.335,-3.683,6.86,-3.99,-0.07
,-9.734,0.311,-3.34,-9.471,-0.337,-3.47,7.63,-5.53,-0.7
,-9.667,0.33,-3.69,-9.474,-0.354,-3.551,6.72,-5.95,-1.12
19232.0,-9.631,-0.471,-3.508,-9.462,-0.615,-2.915,2.8,-3.15,-0.63
,-9.574,-0.424,-3.479,-9.648,-0.45,-2.754,4.13,-3.5,-0.49
,-9.435,-0.464,-3.393,-9.842,0.005,-2.69,5.95,-3.22,0.07
,-9.639,-0.522,-3.206,-9.744,0.287,-2.831,7.91,-2.31,0.63
19308.0,-9.718,0.392,-2.697,-9.634,0.45,-2.742,10.29,-6.65,0.49
,-9.691,0.519,-2.766,-9.409,0.541,-2.848,9.03,-6.44,0.56
,-9.84,0.376,-2.613,-9.371,0.526,-2.699,7.91,-6.58,0.28
,-9.694,0.378,-2.67,-9.603,0.354,-2.644,7.21,-6.3,-0.35
19383.0,-9.608,0.096,-2.608,-9.493,0.065,-2.395,4.34,-6.02,-3.78
,-9.667,0.079,-2.592,-9.651,0.057,-2.383,4.76,-5.95,-4.27
,-9.667,0.124,-2.582,-9.763,0.146,-2.316,4.76,-6.16,-4.27
,-9.452,0.041,-2.501,-9.854,0.06,-2.249,4.41,-6.16,-3.99
19459.0,-9.749,-0.175,-2.139,-9.49,-0.364,-2.125,3.36,-4.48,-5.39
,-9.598,-0.402,-1.979,-9.603,-0.041,-2.089,3.99,-4.69,-5.46
,-9.584,-0.383,-2.017,-9.497,0.136,-2.156,5.39,-5.53,-5.81
,-9.643,-0.436,-2.058,-9.572,0.196,-2.204,6.3,-6.09,-5.88
19535.0,-9.579,-0.002,-2.154,-9.524,-0.534,-2.173,6.37,-6.16,-7.0
,-9.641,-0.201,-2.283,-9.603,-0.483,-2.048,6.02,-6.23,-7.42
,-9.696,-0.424,-2.156,-9.672,-0.335,-2.111,6.02,-6.09,-7.77
,-9.641,-0.481,-2.072,-9.581,-0.101,-2.271,6.72,-5.67,-8.26
19611.0,-9.648,-0.361,-1.972,-9.648,-0.347,-1.85,10.01,-4.9,-9.66
,-9.533,-0.699,-1.783,-9.603,-0.072,-1.945,9.66,-4.27,-10.08
,-9.605,-0.467,-1.898,-9.567,0.091,-1.9,10.5,-4.06,-10.71
,-9.588,-0.325,-2.099,-9.639,0.084,-2.036,11.83,-4.27,-10.99
19686.0,-9.663,-0.12,-1.811,-9.514,-1.615,-2.017,10.15,-3.08,-12.04
,-9.718,-0.517,-1.756,-9.572,-1.96,-2.204,9.87,-2.8,-12.32
,-9.663,-0.897,-1.821,-9.435,-2.213,-2.448,10.08,-2.87,-12.46
,-9.61,-1.35,-1.859,-9.617,-2.307,-2.661,10.85,-3.43,-11.41
19762.0,-9.605,-2.235,-2.663,-9.797,-0.447,-2.458,19.95,-4.83,-3.99
,-9.698,-1.96,-2.575,-9.892,-0.455,-2.249,20.93,-4.9,-3.64
,-9.71,-1.132,-2.491,-9.73,-0.665,-1.943,20.86,-5.18,-3.71
,-9.976,-0.574,-2.599,-9.785,-0.534,-1.941,18.9,-4.76,-3.5
19838.0,-9.856,-0.304,-2.216,-9.825,-0.189,-2.29,12.46,-2.52,-2.73
,-9.753,-0.28,-2.18,-9.77,-0.304,-2.218,12.04,-2.87,-2.45
,-9.964,-0.44,-2.192,-9.768,-0.73,-2.063,11.69,-2.94,-2.03
,-9.897,-0.16,-2.307,-9.737,-0.689,-2.063,11.97,-3.29,-1.68
19914.0,-10.065,-0.677,-2.13,-9.715,-0.782,-2.221,8.33,-2.24,-1.47
,-10.05,-0.761,-2.067,-9.56,-1.11,-2.137,7.28,-1.96,-1.68
,-10.012,-0.608,-2.314,-9.646,-1.151,-2.175,7.14,-1.82,-1.89
,-9.856,-0.782,-2.192,-9.95,-1.127,-2.142,6.09,-1.82,-1.75
19990.0,-9.919,-1.177,-1.962,-9.679,-0.57,-1.967,5.74,-2.17,-0.21
,-10.005,-1.098,-1.933,-9.648,-0.447,-1.969,5.81,-2.17,-0.07
,-9.816,-0.938,-1.929,-9.756,-0.617,-1.811,5.88,-2.03,0.07
,-9.718,-0.663,-1.974,-9.718,-0.888,-1.737,5.46,-2.59,0.07
20065.0,-9.871,-0.962,-1.85,-9.899,-0.591,-1.919,3.43,-2.03,0.42
,-9.732,-0.983,-1.821,-9.797,-0.629,-2.01,3.71,-1.82,0.28
,-9.825,-0.948,-1.948,-9.763,-1.003,-1.957,4.13,-1.4,0.42
,-9.83,-0.811,-1.998,-9.753,-1.285,-1.922,4.34,-1.33,0.7
20141.0,-9.792,-1.481,-1.929,-9.653,-0.847,-1.984,3.01,-0.35,1.96
,-9.878,-1.527,-1.898,-9.73,-0.869,-1.943,3.57,-0.28,2.45
,-9.856,-1.204,-1.91,-9.844,-0.735,-1.797,4.41,-0.56,2.66
,-9.789,-0.974,-1.981,-9.993,-0.412,-1.744,4.2,-0.98,2.66
20216.0,-10.005,-0.383,-1.673,-9.758,-0.144,-1.539,2.24,0.49,2.73
,-9.928,-0.29,-1.613,-9.804,0.067,-1.586,1.4,1.26,2.52
,-9.675,-0.304,-1.622,-9.926,-0.038,-1.618,0.7,2.1,2.31
,-9.71,-0.376,-1.488,-9.957,-0.33,-1.586,0.28,3.01,1.82
20292.0,-9.852,-0.601,-1.665,-9.67,-0.991,-1.962,-4.9,4.69,0.77
,-9.775,-0.833,-1.792,-9.639,-0.893,-1.857,-5.32,4.62,0.56
,-9.552,-1.01,-1.857,-9.78,-0.888,-1.857,-4.97,5.04,0.42
,-9.627,-1.055,-1.888,-9.804,-1.024,-1.941,-4.55,5.53,0.42
20368.0,-9.828,-1.359,-1.926,-9.885,-0.402,-2.273,-4.55,8.19,1.4
,-9.72,-1.543,-1.998,-10.057,-0.048,-2.35,-3.64,8.4,2.17
,-9.737,-1.56,-2.077,-10.1,-0.258,-2.273,-2.17,8.47,3.08
,-9.548,-1.108,-2.204,-10.278,-0.38,-2.278,-0.63,8.82,3.92
20444.0,-9.954,-0.613,-2.297,-9.923,-0.038,-2.57,-5.25,9.66,3.57
,-9.871,-0.761,-2.3,-9.909,-0.17,-2.603,-4.76,10.15,3.92
,-9.828,-0.608,-2.343,-9.933,-0.392,-2.608,-3.78,10.92,4.27
,-9.892,-0.196,-2.448,-9.82,-0.577,-2.592,-2.8,11.13,4.06
20519.0,-9.804,-0.694,-2.505,-9.718,-0.589,-2.3,-4.48,14.0,5.32
,-9.816,-0.548,-2.469,-9.828,-0.704,-2.316,-3.85,14.42,5.6
,-9.897,-0.474,-2.343,-9.797,-0.869,-2.462,-3.85,14.56,5.53
,-9.83,-0.428,-2.29,-9.842,-0.938,-2.737,-4.62,14.77,5.67
20595.0,-9.849,-1.132,-2.603,-9.277,-1.292,-2.458,-6.72,13.65,8.54
,-9.636,-0.921,-2.608,-9.474,-0.967,-2.479,-6.02,13.58,9.17
,-9.354,-0.715,-2.67,-9.636,-0.787,-2.431,-6.09,14.42,9.94
,-8.983,-2.142,-1.397,-9.631,-0.701,-2.28,-10.5,15.05,11.76
20671.0,-9.526,-0.318,-2.453,-9.545,-0.012,-2.249,-3.01,16.17,12.74
,-9.708,-0.244,-2.268,-9.447,-0.17,-2.359,-3.92,16.45,12.67
,-9.691,-0.103,-2.211,-9.483,0.002,-2.496,-4.83,16.52,12.25
,-9.603,-0.117,-2.204,-9.469,0.022,-2.522,-5.18,16.94,12.25
20747.0,-9.44,-0.127,-2.496,-9.564,-0.543,-2.644,-4.2,18.48,10.57
,-9.56,-0.246,-2.601,-9.634,-0.38,-2.9,-4.97,18.69,10.15
,-9.483,-0.424,-2.503,-9.526,-0.318,-2.984,-4.48,18.83,9.73
,-9.507,-0.543,-2.556,-9.435,-0.136,-3.044,-4.34,18.27,9.45
20822.0,-9.292,-0.29,-2.874,-9.533,0.342,-2.828,-3.5,18.06,9.17
,-9.368,-0.153,-2.821,-9.44,0.218,-2.773,-2.8,18.41,8.96
,-9.442,0.225,-2.804,-9.488,0.258,-2.814,-2.03,18.48,8.54
,-9.502,0.369,-2.816,-9.536,0.165,-2.793,-2.66,18.62,7.98
20898.0,-9.146,0.498,-3.388,-9.208,-0.208,-3.482,-6.65,19.32,6.23
,-9.423,0.153,-3.135,-9.191,-0.184,-3.53,-7.77,19.95,5.25
,-9.502,0.168,-3.398,-9.256,-0.022,-3.561,-7.28,20.3,4.2
,-9.397,-0.089,-3.472,-9.411,-0.144,-3.687,-7.35,20.44,4.27
20974.0,-9.404,-0.225,-3.711,-9.172,-0.225,-3.709,-7.56,20.51,3.43
,-9.395,-0.256,-3.726,-9.158,-0.168,-3.697,-7.91,20.58,3.29
,-9.268,-0.4,-3.759,-9.299,-0.069,-3.676,-7.63,20.37,3.64
,-9.203,-0.261,-3.798,-9.237,0.002,-3.802,-6.72,20.37,4.2
21049.0,-9.186,0.129,-3.728,-9.222,-0.316,-3.36,-4.62,20.44,5.88
,-9.552,0.438,0.56,-9.282,-0.112,-3.431,-15.12,8.75,-2.24
,-8.748,-0.278,-3.348,-9.198,-0.191,-3.441,-8.68,14.42,1.61
,-9.277,-0.01,-3.57,-9.213,-0.285,-3.412,-3.57,17.29,2.87
21125.0,-9.012,-0.084,-3.496,-9.225,0.313,-3.532,-1.33,13.72,2.73
,-9.177,-0.081,-3.475,-9.21,0.302,-3.513,-0.49,14.07,3.08
,-9.258,-0.11,-3.381,-9.045,0.194,-3.539,-0.21,14.07,2.8
,-9.256,0.029,-3.393,-9.213,0.091,-3.355,0.35,13.3,1.96
21201.0,-9.366,0.136,-3.412,-8.926,0.313,-3.79,-1.47,11.13,0.49
,-9.277,0.304,-3.542,-9.139,-0.108,-3.463,-0.56,11.62,0.21
,-9.273,0.33,-3.573,-9.383,-0.328,-3.331,0.21,10.85,-0.49
,-9.153,0.553,-3.884,-9.34,-0.445,-3.384,0.14,9.45,-1.47
21277.0,-9.282,-0.407,-3.41,-9.031,0.732,-3.97,-0.21,6.86,-2.31
,-9.308,-0.089,-3.731,-9.232,0.861,-3.946,1.33,4.76,-3.01
,-8.935,0.069,-3.944,-9.026,0.369,-4.027,2.52,3.57,-2.87
,-9.012,0.256,-3.999,-9.014,-0.179,-3.908,3.29,2.66,-2.38
21352.0,-8.935,-0.526,-3.549,-9.423,-0.103,-3.762,-2.94,2.59,-4.69
,-9.258,-0.648,-3.455,-9.294,0.244,-4.07,-1.4,2.94,-4.2
,-9.354,-0.536,-3.589,-9.225,0.414,-4.398,0.56,1.96,-3.92
,-9.275,-0.349,-3.783,-8.619,0.282,-4.417,1.61,-0.56,-4.48
21428.0,-8.772,0.182,-4.025,-9.636,0.06,-3.233,3.15,-9.17,-6.58
,-8.961,0.072,-3.793,-9.38,0.093,-3.29,3.92,-6.51,-7.14
,-9.21,-0.273,-3.331,-8.964,0.0,-3.352,4.2,-3.64,-7.0
,-9.552,-0.148,-3.293,-9.237,-0.101,-3.415,4.34,-3.36,-7.35
21504.0,-9.088,-0.22,-3.558,-9.258,-0.718,-3.154,-1.05,-10.22,-9.45
,-9.062,-0.45,-3.376,-9.225,-0.656,-3.072,0.21,-8.61,-8.82
,-9.033,-0.711,-3.319,-9.404,-0.546,-3.159,1.75,-5.74,-7.49
,-9.229,-0.742,-3.233,-9.122,-0.656,-3.065,4.06,-4.13,-6.51
21580.0,-9.256,-0.426,-3.139,-9.332,-0.608,-3.027,6.3,-4.97,-4.55
,-9.122,-0.488,-3.226,-9.246,-0.581,-3.005,6.37,-3.22,-3.5
,-9.189,-0.625,-3.123,-9.258,-0.416,-3.317,6.72,-1.75,-2.59
,-9.177,-0.78,-2.996,-9.241,-0.172,-3.355,7.42,-0.35,-1.47
21655.0,-9.15,-0.072,-3.568,-9.404,-0.175,-3.673,8.54,-1.05,-0.42
,-9.019,-0.33,-3.604,-9.203,-0.101,-3.731,7.21,0.21,0.35
,-9.131,-0.357,-3.549,-9.098,-0.156,-3.632,6.79,1.96,0.91
,-9.136,-0.392,-3.518,-9.081,-0.072,-3.728,6.79,3.22,1.05
21731.0,-8.947,-0.383,-3.623,-9.474,-0.313,-3.731,2.52,4.27,0.77
,-9.172,-0.61,-3.408,-9.21,-0.256,-3.805,1.75,5.6,1.19
,-9.344,-0.718,-3.35,-9.093,-0.249,-3.934,2.24,6.23,1.54
,-9.538,-0.505,-3.439,-9.055,-0.354,-3.972,3.01,5.04,1.26
21806.0,-8.971,-0.445,-3.814,-9.359,-0.108,-3.702,3.99,3.64,2.45
,-9.06,-0.474,-3.637,-9.39,0.019,-3.955,4.69,4.69,2.73
,-9.359,-0.352,-3.575,-8.959,-0.108,-4.197,5.11,4.76,2.52
,-9.454,-0.213,-3.544,-8.902,-0.098,-4.147,4.9,4.41,2.31
21882.0,-9.005,-0.189,-4.13,-9.454,-0.39,-3.424,3.78,1.33,1.26
,-9.043,-0.249,-3.999,-9.375,-0.44,-3.388,4.55,2.03,1.12
,-9.15,-0.309,-3.68,-9.328,-0.38,-3.496,4.9,2.52,1.12
,-9.351,-0.328,-3.513,-9.215,-0.242,-3.711,4.83,3.15,1.19
21958.0,-9.055,-0.141,-3.843,-9.258,0.101,-3.994,4.69,1.05,1.61
,-8.923,-0.232,-3.843,-9.301,0.148,-3.948,4.69,1.26,1.54
,-9.043,-0.223,-3.855,-9.273,-0.005,-3.898,4.76,1.68,1.54
,-9.179,-0.089,-3.869,-9.162,-0.223,-3.972,5.04,1.4,0.98
22034.0,-9.143,-0.361,-3.795,-9.258,-0.132,-3.58,2.59,-0.21,-0.35
,-9.072,-0.45,-3.793,-9.299,-0.153,-3.587,3.99,0.35,-0.14
,-9.21,-0.392,-3.726,-9.174,-0.285,-3.53,5.32,0.77,0.0
,-9.253,-0.275,-3.628,-9.155,-0.38,-3.477,5.88,0.56,-0.07
22110.0,-9.155,-0.464,-3.386,-9.402,-0.433,-3.345,3.36,0.56,-0.28
,-9.158,-0.637,-3.281,-9.43,-0.278,-3.546,3.64,0.77,-0.28
,-9.232,-0.629,-3.252,-9.22,-0.273,-3.611,3.92,0.77,-0.21
,-9.328,-0.517,-3.214,-9.141,-0.258,-3.788,4.13,1.26,0.21
22185.0,-9.275,-0.223,-3.922,-9.328,-0.199,-3.673,3.64,0.35,0.7
,-9.186,-0.184,-3.924,-9.306,-0.242,-3.673,4.2,0.7,0.63
,-9.052,-0.211,-3.771,-9.194,-0.318,-3.632,4.41,0.84,0.77
,-9.208,-0.213,-3.74,-9.244,-0.421,-3.589,4.62,0.98,0.56
22261.0,-9.196,-0.388,-3.664,-9.227,-0.4,-3.551,3.71,1.47,0.28
,-9.229,-0.309,-3.695,-9.328,-0.464,-3.573,4.27,1.19,0.21
,-9.146,-0.268,-3.683,-9.337,-0.232,-3.719,4.13,1.05,0.21
,-9.148,-0.273,-3.597,-9.201,-0.153,-3.687,3.64,1.4,0.35
22337.0,-9.136,-0.285,-3.678,-9.311,-0.483,-3.431,3.01,0.77,0.21
,-9.155,-0.354,-3.647,-9.273,-0.5,-3.362,2.87,1.12,0.28
,-9.249,-0.469,-3.601,-9.277,-0.452,-3.376,3.15,1.4,0.14
,-9.311,-0.438,-3.522,-9.323,-0.33,-3.453,3.64,1.54,0.42
22413.0,-9.275,-0.165,-3.601,-9.217,-0.455,-3.582,4.9,1.33,1.05
,-9.184,-0.22,-3.654,-9.316,-0.388,-3.527,4.34,1.26,1.05
,-9.112,-0.337,-3.575,-9.289,-0.34,-3.573,3.5,1.33,1.12
,-9.153,-0.443,-3.544,-9.227,-0.347,-3.527,3.01,1.68,1.12
22488.0,-9.107,-0.436,-3.381,-9.277,-0.443,-3.618,1.33,2.17,1.26
,-9.124,-0.388,-3.486,-9.184,-0.424,-3.601,1.12,2.1,1.05
,-9.16,-0.325,-3.642,-9.189,-0.44,-3.628,1.33,2.03,0.84
,-9.256,-0.404,-3.62,-9.232,-0.371,-3.632,1.33,2.31,1.26
22564.0,-9.146,-0.306,-3.601,-9.304,-0.34,-3.697,2.03,1.61,1.12
,-9.196,-0.292,-3.642,-9.213,-0.388,-3.644,2.24,1.33,1.05
,-9.131,-0.402,-3.654,-9.27,-0.357,-3.601,1.96,1.4,1.05
,-9.249,-0.428,-3.613,-9.284,-0.369,-3.676,1.61,1.61,1.19
22639.0,-9.251,-0.311,-3.668,-9.215,-0.28,-3.647,1.61,0.28,0.98
,-9.241,-0.196,-3.649,-9.234,-0.309,-3.537,1.47,0.07,0.98
,-9.189,-0.187,-3.733,-9.27,-0.309,-3.482,1.12,0.07,0.7
,-9.201,-0.22,-3.656,-9.411,-0.266,-3.506,0.49,0.0,0.7
22715.0,-9.375,-0.254,-3.522,-9.088,-0.383,-4.07,-1.75,-2.17,-0.14
,-9.311,-0.211,-3.661,-9.05,-0.392,-4.226,-2.59,-2.8,-0.42
,-9.225,-0.256,-3.783,-9.155,-0.321,-4.221,-3.57,-3.5,-0.56
,-9.194,-0.34,-3.948,-9.179,-0.206,-4.317,-3.71,-3.43,-0.49
22791.0,-9.165,-0.163,-4.336,-9.21,-0.488,-4.037,0.77,-4.27,-0.35
,-9.122,-0.235,-4.36,-9.28,-0.39,-3.903,0.98,-4.13,-0.14
,-9.127,-0.294,-4.314,-9.28,-0.373,-3.826,1.47,-3.64,0.0
,-9.119,-0.378,-4.195,-9.249,-0.304,-3.68,2.24,-3.29,0.14
22867.0,-9.265,-0.287,-3.518,-9.189,-0.354,-3.498,4.13,-3.78,1.05
,-9.359,-0.349,-3.489,-9.172,-0.388,-3.398,3.5,-3.92,0.98
,-9.311,-0.333,-3.508,-9.167,-0.605,-3.214,3.15,-3.99,0.98
,-9.225,-0.337,-3.599,-9.457,-0.579,-3.017,2.66,-3.92,0.91
22942.0,-9.452,-0.486,-2.924,-9.481,-0.591,-2.632,2.8,-3.85,2.38
,-9.407,-0.524,-2.711,-9.397,-0.639,-2.534,2.31,-4.62,2.66
,-9.514,-0.421,-2.577,-9.378,-0.641,-2.67,1.12,-5.39,2.73
,-9.497,-0.447,-2.69,-9.265,-0.737,-2.862,0.28,-5.95,2.52
23018.0,-9.165,-0.754,-2.694,-9.533,-0.589,-2.484,-1.33,-6.3,4.06
,-9.215,-0.668,-2.678,-9.538,-0.5,-2.539,-0.77,-5.88,4.76
,-9.459,-0.682,-2.534,-9.361,-0.407,-2.706,-0.77,-5.53,5.39
,-9.538,-0.675,-2.412,-9.311,-0.292,-2.778,-1.05,-5.39,5.95
23094.0,-9.395,-0.402,-2.836,-9.517,-0.392,-2.764,-3.22,-10.64,5.39
,-9.383,-0.579,-2.922,-9.739,0.062,-2.984,-2.8,-10.99,5.74
,-9.395,-0.632,-2.936,-9.543,0.354,-3.218,-1.96,-10.78,6.37
,-9.371,-0.457,-2.895,-9.222,0.335,-3.24,-0.28,-10.57,6.79
23170.0,-8.957,0.098,-3.037,-9.706,-0.287,-2.888,2.31,-10.5,6.16
,-9.127,-0.273,-2.836,-9.612,0.005,-3.12,1.96,-7.42,6.93
,-9.45,-0.347,-2.996,-9.454,0.34,-3.139,3.01,-5.88,6.86
,-9.399,-0.503,-2.807,-9.471,0.861,-3.101,4.41,-4.9,7.28
23246.0,-9.418,1.187,-3.271,-8.928,-0.56,-2.74,4.83,-6.44,7.42
,-9.177,0.976,-3.269,-9.167,-0.907,-2.326,1.33,-4.41,6.86
,-9.179,0.424,-3.223,-9.557,-1.108,-2.12,-2.17,-1.89,6.23
,-9.079,-0.081,-3.12,-9.902,-1.043,-1.699,-3.57,0.07,5.32
23321.0,-10.105,-0.751,-1.79,-9.184,0.529,-2.974,4.83,3.22,5.04
,-9.871,-0.591,-2.0,-9.292,0.268,-2.893,6.37,-2.03,4.13
,-9.947,-0.428,-2.17,-9.146,-0.089,-2.654,7.49,-6.3,3.92
,-9.404,0.132,-2.848,-9.351,-0.416,-2.458,10.15,-9.87,3.64
23397.0,-9.61,0.175,-2.577,-9.899,0.9,-2.577,10.71,-5.46,3.99
,-9.428,0.665,-2.386,-10.019,0.739,-3.061,12.18,-4.97,3.43
,-9.978,1.163,-2.577,-9.387,0.488,-3.118,11.13,-4.9,2.66
,-9.746,1.359,-2.749,-9.249,0.108,-3.415,8.47,-5.67,1.33
23472.0,-8.988,-0.39,-3.276,-9.596,-0.794,-2.73,4.69,-7.56,-1.4
,-9.292,-0.737,-3.221,-9.708,-0.23,-2.833,7.28,-5.6,0.0
,-9.39,-1.163,-2.871,-9.72,0.191,-2.757,10.01,-5.11,0.07
,-9.421,-1.036,-2.781,-9.686,0.57,-2.685,13.86,-5.53,-0.28
23548.0,-9.768,0.723,-2.577,-9.533,0.802,-1.907,14.49,-5.6,0.84
,-9.474,0.605,-2.228,-9.619,0.756,-1.799,10.92,-6.72,-0.07
,-9.474,0.773,-2.257,-9.753,0.629,-1.797,9.24,-7.63,-1.54
,-9.493,0.864,-2.125,-9.641,0.711,-2.139,8.19,-8.26,-3.22
23624.0,-9.545,0.921,-2.242,-9.734,0.964,-2.489,9.59,-8.61,-7.56
,-9.665,1.187,-2.312,-9.689,0.95,-2.663,9.24,-8.26,-8.47
,-9.531,1.058,-2.405,-9.545,0.773,-2.754,7.91,-7.7,-9.38
,-9.514,0.866,-2.391,-9.631,0.232,-2.891,6.72,-6.79,-10.43
23700.0,-9.684,-0.129,-2.903,-9.591,-1.187,-3.101,-2.1,-4.55,-14.7
,-9.691,-0.598,-2.915,-9.552,-1.297,-3.075,-1.96,-4.13,-14.49
,-9.691,-0.871,-3.096,-9.624,-1.445,-3.075,-1.61,-4.55,-14.21
,-9.689,-1.113,-3.061,-9.586,-1.756,-2.991,-0.49,-4.69,-13.65
23775.0,-9.531,-1.941,-2.776,-9.5,-1.608,-2.745,5.39,-5.53,-9.17
,-9.49,-2.015,-2.855,-9.361,-1.216,-2.745,7.77,-6.58,-8.05
,-9.564,-2.103,-2.862,-9.524,-0.854,-2.608,10.22,-7.35,-6.93
,-9.588,-1.941,-2.781,-9.753,-0.251,-2.69,12.95,-7.56,-5.67
23851.0,-9.938,0.005,-2.697,-9.694,-0.4,-2.008,17.01,-9.03,-3.5
,-9.811,0.038,-2.515,-9.859,-0.51,-1.857,15.4,-9.17,-4.06
,-9.663,-0.112,-2.233,-9.785,-0.634,-1.795,14.07,-8.96,-4.62
,-9.56,-0.328,-2.063,-9.665,-0.653,-1.716,13.44,-8.4,-5.04
23926.0,-9.579,-0.534,-1.68,-9.744,-0.268,-1.845,13.51,-7.07,-4.62
,-9.485,-0.584,-1.503,-9.718,-0.464,-1.539,13.93,-6.86,-4.97
,-9.591,-0.56,-1.546,-9.653,-0.23,-1.419,13.86,-6.16,-5.25
,-9.691,-0.22,-1.981,-9.703,0.177,-1.677,14.56,-6.65,-5.67
24002.0,-9.768,0.072,-1.479,-9.646,-0.235,-1.85,11.2,-4.83,-7.28
,-9.854,-0.108,-1.374,-9.543,-0.424,-1.85,10.29,-4.9,-7.7
,-9.95,-0.132,-1.577,-9.426,-0.701,-1.917,9.38,-5.32,-7.98
,-9.753,-0.199,-1.685,-9.682,-0.67,-2.084,8.75,-5.53,-7.77
24078.0,-9.804,-0.94,-2.412,-9.631,-1.776,-2.8,6.23,-3.85,-6.23
,-9.854,-1.24,-2.357,-9.5,-1.933,-2.446,5.39,-3.92,-6.3
,-9.876,-1.656,-2.501,-9.718,-1.699,-2.292,5.67,-4.62,-6.02
,-9.713,-1.828,-2.529,-9.794,-1.335,-2.23,5.88,-4.76,-4.48
24154.0,-9.73,-0.912,-1.991,-9.856,-0.208,-1.424,10.64,-5.95,-1.47
,-9.72,-0.498,-1.828,-9.907,-0.201,-1.462,10.36,-5.95,-1.54
,-9.78,-0.124,-1.642,-10.129,0.093,-1.665,9.1,-5.95,-1.68
,-9.809,-0.112,-1.563,-9.88,0.223,-1.776,8.19,-5.67,-2.1
24230.0,-9.667,-0.139,-1.78,-9.672,-1.402,-1.632,4.69,-4.41,-2.94
,-9.742,-0.376,-1.833,-9.689,-1.316,-1.871,3.85,-3.78,-2.59
,-9.548,-0.885,-1.759,-9.718,-1.287,-1.869,3.64,-3.36,-2.31
,-9.572,-1.263,-1.546,-9.658,-1.421,-2.008,3.78,-2.94,-2.17
24305.0,-9.605,-1.469,-2.005,-9.809,-1.457,-2.027,5.25,-2.31,-0.91
,-9.722,-1.445,-2.123,-9.988,-1.682,-2.111,5.18,-2.52,-0.21
,-9.71,-1.46,-2.161,-9.859,-1.764,-2.082,5.32,-2.87,0.35
,-9.904,-1.378,-2.175,-9.665,-1.807,-2.003,5.6,-2.87,1.12
24381.0,-9.734,-1.754,-1.974,-9.88,-0.364,-1.56,8.54,-1.68,4.41
,-9.794,-1.328,-1.833,-9.988,-0.349,-1.558,9.38,-1.26,4.9
,-9.84,-0.926,-1.732,-9.899,-0.275,-1.496,9.38,-0.98,4.76
,-9.844,-0.605,-1.613,-9.998,-0.163,-1.505,8.68,-0.56,4.34
24457.0,-10.091,-0.074,-1.639,-9.832,-0.261,-1.752,3.92,1.54,3.92
,-10.038,-0.177,-1.697,-9.926,-0.242,-1.819,3.15,1.89,4.06
,-9.83,-0.297,-1.689,-9.844,-0.416,-1.833,2.59,2.59,4.2
,-9.797,-0.357,-1.744,-9.734,-0.536,-1.74,2.1,3.36,4.27
24533.0,-9.787,-0.586,-1.735,-9.663,-0.675,-1.78,-2.45,6.93,2.03
,-10.012,-0.467,-1.721,-9.667,-0.385,-1.835,-2.8,7.63,1.96
,-9.993,-0.45,-1.838,-9.844,-0.498,-1.754,-3.43,7.91,2.03
,-9.978,-0.61,-1.752,-10.096,-0.682,-1.735,-4.34,8.4,2.52
24608.0,-10.124,-0.493,-1.732,-9.818,-0.414,-2.003,-5.39,11.48,2.59
,-9.868,-0.486,-1.833,-9.981,-0.534,-1.922,-5.88,12.04,2.59
,-9.689,-0.447,-1.831,-9.959,-0.524,-2.058,-6.65,12.67,2.94
,-9.739,-0.474,-1.845,-9.895,-0.436,-2.12,-7.49,13.16,3.08
24684.0,-9.971,-0.4,-2.197,-9.708,-0.467,-2.477,-7.21,15.82,3.29
,-9.861,-0.761,-2.166,-9.77,-0.672,-2.587,-7.56,16.17,3.43
,-9.856,-0.756,-2.223,-9.756,-0.96,-2.52,-7.21,16.52,3.78
,-9.809,-0.577,-2.309,-9.708,-1.041,-2.56,-6.58,16.8,4.27
24759.0,-9.801,-1.263,-2.529,-9.82,-1.086,-2.565,-7.07,18.06,6.79
,-9.725,-1.357,-2.541,-9.418,-1.656,-1.974,-6.44,17.78,7.7
,-9.689,-1.438,-2.529,-9.562,-0.916,-2.534,-5.88,17.5,8.54
,-9.742,-1.364,-2.563,-9.588,-0.744,-2.728,-5.39,17.43,9.38
24835.0,-9.538,-0.625,-2.608,-9.488,-0.491,-2.316,-3.99,16.52,12.25
,-9.581,-0.407,-2.491,-9.548,-0.364,-2.292,-3.99,16.87,12.32
,-9.517,-0.431,-2.335,-9.667,-0.057,-2.369,-4.76,17.22,12.46
,-9.474,-0.591,-2.18,-9.744,0.014,-2.436,-5.46,17.5,12.53
24911.0,-9.746,-0.134,-2.252,-9.545,-0.474,-2.544,-4.62,20.3,11.55
,-9.634,0.11,-2.577,-9.529,-0.495,-2.553,-3.92,20.44,11.41
,-9.517,-0.139,-2.529,-9.538,-0.275,-2.666,-4.41,20.37,11.27
,-9.588,-0.369,-2.467,-9.49,-0.27,-2.694,-4.69,20.3,10.92
24987.0,-9.454,-0.124,-2.998,-9.318,-0.342,-2.814,-2.66,20.44,9.52
,-9.476,-0.191,-3.046,-9.454,-0.309,-2.948,-2.73,20.58,9.52
,-9.44,-0.4,-2.886,-9.509,-0.048,-3.128,-2.73,20.65,9.17
,-9.459,-0.34,-2.838,-9.536,-0.282,-2.962,-2.31,20.72,9.24
25062.0,-9.861,0.323,-3.472,-9.38,0.129,-3.29,-2.24,19.46,9.24
,-9.112,-0.28,-3.312,-9.344,-0.112,-3.228,-3.15,19.39,9.03
,-9.308,-0.081,-3.154,-9.304,0.019,-3.293,-1.75,19.67,8.12
,-9.447,-0.089,-3.175,-9.263,0.144,-3.233,-1.19,19.74,7.56
25138.0,-9.385,0.077,-3.333,-9.275,-0.105,-3.307,-2.66,19.81,5.74
,-9.428,-0.093,-3.218,-9.296,-0.041,-3.333,-3.57,19.95,5.6
,-9.457,0.019,-3.36,-9.241,0.122,-3.513,-3.78,19.81,5.25
,-9.299,0.065,-3.309,-9.234,-0.005,-3.647,-4.27,19.81,5.18
25214.0,-9.253,-0.256,-3.546,-9.134,-0.208,-3.348,-5.04,18.76,5.18
,-9.024,3.862,-10.73,-9.268,0.273,-3.204,26.39,-9.73,-17.36
,-8.232,0.316,-3.666,-9.191,0.529,-3.4,10.22,6.86,-3.78
,-9.421,-0.045,-3.494,-9.337,0.431,-3.558,0.28,16.52,2.31
25290.0,-9.289,0.402,-3.475,-9.172,0.407,-3.369,-2.24,13.09,0.21
,-9.256,0.371,-3.46,-9.203,0.459,-3.513,-3.43,13.02,-0.28
,-9.265,0.4,-3.451,-9.289,0.397,-3.735,-3.71,13.93,-0.49
,-9.323,0.337,-3.374,-9.249,0.414,-3.838,-3.64,14.21,-0.98
25366.0,-9.196,0.187,-3.972,-9.067,-0.467,-3.967,-7.14,11.55,-4.27
,-9.072,-0.115,-4.022,-9.17,-0.459,-3.723,-7.49,11.27,-4.41
,-8.954,-0.44,-3.972,-9.56,-0.17,-3.793,-6.86,12.18,-3.92
,-9.215,-0.701,-3.831,-9.186,0.112,-3.774,-5.39,12.11,-3.92
25441.0,-9.213,0.002,-3.719,-9.289,-0.617,-3.372,-1.82,5.67,-3.5
,-9.292,-0.163,-3.666,-9.239,-0.471,-3.429,-3.08,4.41,-3.71
,-9.158,-0.5,-3.484,-9.021,-0.543,-3.475,-3.99,2.8,-4.13
,-9.072,-0.644,-3.367,-9.38,-0.708,-3.269,-2.8,1.96,-4.34
25517.0,-9.43,0.144,-3.585,-9.332,-0.163,-3.594,7.7,-2.73,-5.46
,-9.115,0.22,-3.836,-9.44,-0.364,-3.491,7.84,-4.97,-6.44
,-8.921,0.153,-3.884,-9.435,-0.397,-3.589,7.07,-5.18,-6.65
,-8.918,0.053,-3.719,-9.306,-0.129,-3.68,6.37,-3.29,-5.81
25592.0,-9.375,0.139,-3.86,-9.258,-0.124,-3.869,7.07,-7.98,-8.61
,-9.222,0.019,-3.905,-8.885,-0.196,-3.788,6.09,-9.1,-8.33
,-9.172,-0.022,-3.75,-8.923,-0.402,-3.482,5.04,-7.77,-7.28
,-9.416,-0.002,-3.841,-9.11,-0.555,-3.364,4.76,-7.28,-6.93
25668.0,-9.282,-0.512,-3.202,-8.847,-0.658,-3.175,6.09,-4.55,-7.77
,-9.502,-0.596,-3.034,-8.911,-0.682,-3.156,6.37,-4.76,-8.4
,-9.675,-0.452,-3.173,-9.318,-0.668,-3.25,6.23,-6.23,-8.4
,-9.237,-0.459,-3.388,-9.32,-0.79,-3.262,6.09,-8.26,-8.4
25744.0,-9.414,-0.512,-3.348,-9.208,-0.658,-3.125,9.66,-7.7,-7.07
,-9.299,-0.519,-3.336,-9.198,-0.577,-3.151,9.66,-7.56,-5.88
,-9.198,-0.531,-3.118,-9.045,-0.471,-3.185,8.12,-5.95,-4.69
,-9.186,-0.622,-3.049,-9.122,-0.579,-2.924,7.42,-3.78,-3.78
25820.0,-9.292,-0.62,-3.144,-9.043,-1.091,-2.771,7.35,1.96,-1.4
,-9.294,-0.818,-2.996,-9.136,-1.182,-2.536,6.44,2.87,-0.98
,-9.225,-0.933,-2.958,-9.502,-0.94,-2.802,5.81,3.15,-0.42
,-9.15,-0.967,-2.836,-9.569,-0.672,-3.171,5.25,3.99,0.28
25895.0,-9.359,-0.452,-3.503,-9.112,-0.814,-3.915,0.84,4.06,1.05
,-9.074,-0.562,-3.721,-9.342,-0.553,-3.85,-0.63,3.57,1.68
,-8.971,-0.699,-3.905,-9.545,-0.299,-3.874,-0.84,4.06,2.38
,-8.945,-0.866,-3.927,-9.397,-0.163,-3.939,0.42,5.32,2.87
25971.0,-9.203,-0.223,-3.874,-9.186,-0.282,-3.831,3.85,2.24,3.01
,-9.069,-0.491,-3.932,-9.189,-0.235,-3.733,3.5,2.59,3.08
,-9.064,-0.567,-3.855,-9.217,-0.242,-3.544,4.55,3.01,3.08
,-9.115,-0.479,-3.855,-9.289,-0.282,-3.472,6.16,3.29,3.08
26047.0,-9.347,-0.443,-3.443,-9.143,-0.373,-3.486,3.29,3.71,2.17
,-9.359,-0.467,-3.372,-9.115,-0.345,-3.556,2.38,3.71,2.03
,-9.349,-0.428,-3.352,-9.186,-0.347,-3.63,1.75,3.36,1.89
,-9.263,-0.38,-3.374,-9.261,-0.419,-3.616,1.26,2.94,1.82
26123.0,-9.239,-0.433,-3.635,-9.265,-0.44,-3.642,-0.56,3.08,1.05
,-9.292,-0.445,-3.611,-9.227,-0.333,-3.704,-0.35,3.08,1.12
,-9.361,-0.443,-3.589,-9.198,-0.359,-3.699,-0.07,2.8,0.91
,-9.296,-0.424,-3.542,-9.229,-0.325,-3.762,0.07,2.52,0.84
26199.0,-9.198,-0.4,-3.788,-9.301,-0.457,-3.795,1.61,2.45,1.05
,-9.22,-0.371,-3.764,-9.323,-0.357,-3.896,1.89,2.38,0.98
,-9.206,-0.378,-3.738,-9.232,-0.333,-3.853,1.82,2.31,1.12
,-9.189,-0.404,-3.721,-9.057,-0.376,-3.807,1.82,2.03,0.91
26274.0,-9.072,-0.369,-3.817,-9.296,-0.428,-3.628,2.45,1.4,0.56
,-9.277,-0.321,-3.798,-9.318,-0.45,-3.69,2.59,1.4,0.35
,-9.284,-0.369,-3.738,-9.203,-0.5,-3.69,2.66,1.26,0.28
,-9.196,-0.447,-3.623,-9.174,-0.45,-3.714,2.73,1.54,0.49
26350.0,-9.316,-0.357,-3.754,-9.127,-0.536,-3.702,3.85,0.98,0.49
,-9.21,-0.313,-3.776,-9.146,-0.464,-3.699,3.85,0.49,0.14
,-9.27,-0.292,-3.786,-9.299,-0.311,-3.695,3.92,0.0,-0.14
,-9.105,-0.412,-3.814,-9.174,-0.438,-3.539,3.71,0.49,0.07
26425.0,-9.213,-0.512,-3.381,-9.256,-0.498,-3.475,3.29,1.4,0.28
,-9.354,-0.522,-3.343,-9.27,-0.584,-3.556,3.01,0.98,0.14
,-9.308,-0.459,-3.396,-9.292,-0.558,-3.668,3.01,0.77,0.07
,-9.249,-0.428,-3.393,-9.208,-0.436,-3.774,2.66,0.7,0.14
26501.0,-9.1,-0.369,-3.735,-9.351,-0.421,-3.561,3.92,0.56,0.49
,-9.122,-0.352,-3.676,-9.342,-0.421,-3.551,3.92,0.7,0.42
,-9.203,-0.397,-3.64,-9.301,-0.361,-3.635,3.71,0.77,0.28
,-9.328,-0.457,-3.589,-9.234,-0.416,-3.699,3.85,0.84,0.14
26577.0,-9.153,-0.414,-3.69,-9.275,-0.536,-3.527,2.52,0.0,-0.14
,-9.16,-0.459,-3.776,-9.282,-0.519,-3.446,2.52,0.28,-0.28
,-9.172,-0.488,-3.69,-9.284,-0.505,-3.458,2.59,0.63,-0.21
,-9.292,-0.488,-3.628,-9.268,-0.481,-3.434,2.52,0.42,-0.28
26653.0,-9.22,-0.577,-3.424,-9.316,-0.625,-3.494,0.7,-0.42,-0.63
,-9.206,-0.567,-3.484,-9.273,-0.625,-3.609,0.56,-0.49,-0.56
,-9.22,-0.653,-3.4,-9.299,-0.462,-3.776,0.56,-0.35,-0.42
,-9.332,-0.66,-3.508,-9.246,-0.325,-3.841,0.42,-0.14,-0.21
26728.0,-9.112,-0.33,-3.941,-9.263,-0.436,-3.798,2.03,-1.75,0.14
,-9.11,-0.302,-3.967,-9.239,-0.462,-3.707,2.38,-1.89,0.0
,-9.182,-0.302,-4.034,-9.354,-0.402,-3.642,2.94,-1.75,-0.14
,-9.091,-0.388,-3.843,-9.351,-0.361,-3.64,3.08,-1.19,0.14
26804.0,-9.263,-0.359,-3.568,-9.292,-0.577,-3.498,2.94,-1.47,-0.42
,-9.253,-0.479,-3.58,-9.299,-0.512,-3.369,2.45,-1.54,-0.42
,-9.191,-0.56,-3.525,-9.409,-0.507,-3.4,2.38,-1.26,-0.42
,-9.222,-0.536,-3.467,-9.323,-0.526,-3.34,2.73,-0.91,-0.21
26880.0,-9.325,-0.526,-3.305,-9.323,-0.383,-3.58,2.38,-1.19,0.0
,-9.399,-0.474,-3.396,-9.194,-0.467,-3.482,2.52,-1.61,-0.14
,-9.217,-0.517,-3.431,-9.332,-0.555,-3.436,2.1,-1.26,0.21
,-9.363,-0.416,-3.434,-9.273,-0.637,-3.455,2.17,-2.38,-0.28
26956.0,-9.387,-0.658,-3.348,-9.213,-0.4,-3.479,2.17,-2.59,-0.28
,-9.332,-0.572,-3.295,-9.148,-0.476,-3.549,2.03,-3.01,-0.28
,-9.404,-0.486,-3.238,-9.146,-0.488,-3.687,1.33,-3.92,-0.49
,-9.356,-0.431,-3.381,-9.27,-0.443,-3.599,0.49,-4.48,-0.77
27031.0,-9.33,-0.483,-3.599,-9.206,-0.811,-3.515,-1.47,-3.29,-0.77
,-9.325,-0.541,-3.582,-9.196,-0.931,-3.412,-1.19,-3.43,-0.7
,-9.373,-0.565,-3.491,-9.227,-0.991,-3.3,-0.91,-3.99,-0.35
,-9.308,-0.601,-3.479,-9.287,-0.986,-3.199,-0.98,-4.41,-0.21
27107.0,-9.519,-0.845,-3.113,-9.447,-0.838,-2.603,1.89,-3.15,1.82
,-9.6,-0.735,-3.087,-9.526,-0.859,-2.462,2.31,-4.13,2.17
,-9.454,-0.608,-2.903,-9.567,-0.778,-2.46,1.89,-4.9,2.66
,-9.366,-0.768,-2.721,-9.411,-0.849,-2.651,0.98,-4.9,3.36
27182.0,-9.32,-0.811,-2.903,-9.648,-0.938,-2.647,-0.77,-5.95,4.9
,-9.122,-0.751,-2.934,-9.787,-0.711,-2.79,-0.42,-4.9,5.46
,-9.028,-0.806,-2.668,-9.615,-0.38,-2.907,-0.77,-2.8,6.65
,-9.287,-0.893,-2.505,-9.328,-0.278,-2.924,-1.12,-1.12,7.49
27258.0,-9.234,-0.495,-2.994,-9.701,0.115,-3.178,-3.43,-9.73,5.95
,-9.17,-0.821,-2.864,-9.543,0.232,-3.128,-3.99,-8.75,6.65
,-9.294,-0.948,-2.714,-9.426,0.321,-3.343,-3.08,-7.35,7.63
,-9.828,-0.464,-2.867,-9.196,0.127,-3.065,-0.91,-8.19,7.21
27334.0,-9.174,-0.084,-2.886,-9.543,0.124,-2.757,-3.57,-10.71,6.37
,-9.184,-0.203,-2.79,-9.277,-0.01,-2.831,-2.87,-7.49,6.37
,-9.337,-0.462,-2.67,-9.289,-0.333,-2.642,-2.45,-3.92,6.93
,-9.684,-0.225,-2.525,-9.215,-0.45,-2.553,-2.38,-3.15,6.79
27410.0,-9.43,-0.426,-2.498,-9.407,0.151,-2.398,-3.36,-0.07,7.91
,-9.71,-0.194,-2.297,-9.301,-0.182,-2.355,-1.61,2.17,8.96
,-9.686,-0.019,-2.376,-9.366,-0.491,-2.534,-0.21,2.17,8.4
,-9.641,0.101,-2.355,-9.55,-0.972,-2.28,0.35,1.26,7.42
27486.0,-9.725,-1.022,-2.587,-9.49,-1.39,-2.536,-0.77,0.77,3.99
,-9.33,-1.273,-2.812,-9.794,-0.73,-2.68,1.61,-2.17,3.43
,-9.32,-1.61,-2.747,-9.813,-0.065,-2.836,4.2,-2.73,4.97
,-9.239,-1.57,-2.793,-9.646,0.739,-3.238,7.63,-1.4,7.63
27561.0,-9.227,1.117,-3.314,-9.323,0.39,-2.474,15.33,-7.21,8.12
,-9.1,1.079,-3.283,-9.591,0.455,-2.223,11.13,-4.2,7.7
,-9.124,0.854,-3.001,-9.608,0.44,-2.302,6.86,0.14,7.77
,-9.409,0.491,-2.67,-9.816,0.165,-2.17,4.41,3.29,7.7
27637.0,-9.966,-0.029,-2.161,-9.557,0.61,-2.213,6.09,1.47,3.43
,-9.734,0.077,-2.151,-9.66,0.445,-2.137,7.07,0.0,2.87
,-9.514,0.457,-2.312,-9.756,0.727,-2.386,7.84,-1.4,2.45
,-9.488,0.62,-2.211,-9.418,0.761,-2.709,7.77,-0.84,1.75
27713.0,-9.507,0.665,-3.223,-9.562,-0.199,-3.441,0.91,-8.33,-6.51
,-9.335,0.11,-3.247,-9.643,-0.098,-3.52,-0.42,-7.07,-6.23
,-9.335,-0.357,-3.135,-9.509,0.313,-3.656,0.28,-5.25,-5.53
,-9.402,-0.4,-3.166,-9.552,0.172,-3.563,2.66,-4.83,-5.39
27789.0,-9.579,-0.017,-3.326,-9.596,-0.536,-3.302,6.86,-3.57,-4.9
,-9.483,-0.266,-3.24,-9.574,-0.938,-3.013,7.21,-3.5,-5.11
,-9.612,-0.302,-3.247,-9.552,-1.149,-2.807,7.77,-4.27,-5.6
,-9.579,-0.098,-3.508,-9.557,-1.07,-2.778,8.75,-5.46,-5.67
27864.0,-9.562,-0.936,-2.714,-9.557,-0.151,-2.67,12.81,-8.75,-3.85
,-9.634,-0.617,-2.979,-9.569,-0.424,-2.623,14.28,-9.66,-3.78
,-9.6,-0.581,-2.912,-9.727,-0.419,-2.577,15.12,-10.5,-3.57
,-9.567,-0.22,-2.706,-9.737,-0.108,-2.752,16.17,-9.94,-2.8
27940.0,-9.797,-0.067,-2.754,-9.593,-0.514,-2.546,14.0,-11.27,-4.48
,-9.677,-0.153,-2.642,-9.675,-0.385,-2.661,13.16,-11.34,-4.62
,-9.476,-0.306,-2.678,-9.794,-0.467,-2.491,12.46,-11.41,-4.48
,-9.457,-0.546,-2.544,-9.763,-0.287,-2.584,12.67,-10.99,-4.41
28015.0,-9.593,-0.383,-2.455,-9.584,-0.495,-1.914,14.56,-11.41,-5.04
,-9.526,-0.433,-2.292,-9.658,-0.184,-1.847,14.35,-11.13,-4.97
,-9.457,-0.653,-2.163,-9.715,-0.074,-1.802,14.28,-10.92,-4.9
,-9.543,-0.603,-1.933,-9.682,0.129,-1.713,14.98,-10.78,-4.97
28091.0,-9.605,0.4,-1.642,-9.574,0.457,-1.182,14.14,-9.8,-7.35
,-9.847,0.464,-1.622,-9.495,0.558,-1.091,13.09,-9.17,-8.12
,-9.77,0.601,-1.491,-9.643,0.481,-1.206,11.62,-8.89,-8.89
,-9.653,0.562,-1.352,-9.605,-0.136,-1.251,10.15,-8.4,-9.87
28167.0,-9.495,-0.639,-1.512,-9.536,-1.63,-1.907,5.6,-5.18,-12.25
,-9.454,-1.043,-1.682,-9.521,-1.488,-1.936,5.74,-5.39,-11.27
,-9.368,-1.531,-1.811,-9.541,-0.809,-2.084,5.74,-4.9,-10.08
,-9.452,-1.673,-1.843,-9.655,-0.849,-1.943,6.72,-4.69,-9.03
28243.0,-9.641,-0.567,-2.077,-9.56,-0.955,-1.783,4.62,-2.94,-7.91
,-9.665,-0.507,-1.936,-9.605,-0.936,-1.811,3.29,-2.31,-7.91
,-9.758,-0.672,-1.895,-9.548,-1.019,-1.689,2.03,-1.89,-7.84
,-9.739,-0.739,-1.828,-9.603,-1.22,-1.831,2.31,-1.4,-7.42
28319.0,-9.706,-1.307,-2.118,-10.002,-0.866,-2.907,6.93,0.77,-5.11
,-9.813,-1.414,-2.484,-10.089,-0.742,-2.553,8.12,0.56,-4.06
,-9.823,-1.35,-2.754,-9.904,-0.572,-2.826,9.8,-0.28,-3.01
,-9.943,-0.998,-2.857,-9.974,-1.022,-2.438,11.34,-1.12,-2.45
28394.0,-9.84,-1.34,-2.379,-9.775,-2.146,-2.883,6.65,-0.21,-2.17
,-9.722,-1.761,-2.405,-9.797,-1.754,-2.888,6.3,-0.21,-1.54
,-9.801,-2.118,-2.565,-9.792,-1.24,-2.836,7.28,-0.28,-0.56
,-9.866,-2.426,-2.666,-9.933,-0.921,-2.668,8.96,-0.42,1.19
28470.0,-10.01,-0.768,-2.352,-9.902,0.134,-1.85,11.76,-1.68,5.11
,-9.976,-0.613,-2.113,-10.017,0.28,-1.912,10.08,-1.33,5.11
,-9.864,-0.292,-1.926,-10.062,0.373,-1.843,8.33,-0.98,4.97
,-9.861,0.086,-1.907,-10.086,0.615,-1.941,6.65,-0.42,4.62
28546.0,-10.086,0.849,-1.831,-9.749,-0.601,-2.072,-0.21,4.2,2.24
,-10.005,0.78,-1.778,-9.622,-0.969,-2.197,-2.17,5.25,1.54
,-9.974,0.529,-1.869,-9.746,-1.335,-2.312,-4.62,6.23,1.12
,-9.904,-0.065,-1.993,-9.78,-1.565,-2.458,-6.72,7.21,0.77
28622.0,-9.825,-1.642,-2.563,-9.914,-1.419,-2.776,-7.77,9.38,2.52
,-9.818,-1.73,-2.704,-9.959,-1.309,-2.778,-7.49,9.17,3.36
,-9.825,-1.668,-2.694,-9.88,-1.249,-2.647,-7.28,9.24,4.06
,-9.883,-1.572,-2.663,-9.816,-0.991,-2.548,-7.0,9.24,4.76
28697.0,-9.686,-0.519,-2.477,-9.995,0.354,-1.936,-4.2,10.57,7.0
,-9.73,-0.33,-2.319,-9.854,0.258,-1.943,-4.13,11.06,7.0
,-9.866,-0.213,-2.101,-9.708,-0.043,-1.893,-4.34,11.55,7.07
,-9.914,0.096,-1.986,-9.593,-0.227,-1.948,-4.13,12.04,7.07
28773.0,-9.615,-0.455,-2.089,-9.596,-1.096,-2.486,-5.74,14.7,7.7
,-9.775,-0.66,-2.192,-9.548,-1.144,-2.651,-5.39,15.19,8.61
,-9.596,-0.737,-2.438,-9.502,-1.041,-2.663,-5.46,15.75,9.45
,-9.66,-1.003,-2.412,-9.526,-0.692,-3.044,-5.04,15.96,10.36
28848.0,-9.385,-1.823,-1.996,-9.509,-1.153,-2.759,-8.54,17.57,14.28
,-9.67,-1.065,-2.694,-9.675,-0.79,-2.855,-6.86,17.57,13.72
,-9.55,-1.18,-2.749,-9.703,-0.428,-2.91,-6.23,17.43,13.86
,-9.433,-1.522,-2.62,-9.753,-0.005,-3.003,-6.16,17.01,14.98
28924.0,-9.66,0.096,-2.982,-9.636,0.512,-2.455,-2.8,16.1,16.38
,-9.454,0.349,-2.994,-9.634,0.641,-2.453,-3.15,16.45,15.82
,-9.509,0.041,-2.675,-9.648,0.763,-2.434,-3.22,16.31,15.4
,-9.629,0.172,-2.486,-9.457,0.677,-2.429,-2.87,16.45,14.91
29000.0,-9.428,0.613,-2.443,-9.541,0.182,-2.704,-4.41,18.27,11.13
,-9.423,0.613,-2.436,-9.45,-0.053,-2.912,-4.55,18.55,10.36
,-9.385,0.488,-2.45,-9.39,-0.349,-2.955,-5.25,18.97,9.59
,-9.495,0.369,-2.517,-9.304,-0.404,-3.029,-5.88,19.18,8.75
29076.0,-9.371,-0.407,-3.159,-9.619,0.682,-4.013,-5.95,19.39,7.84
,-9.459,-0.227,-3.317,-9.043,-0.237,-3.412,-5.6,19.04,7.28
,-9.459,-0.258,-3.367,-9.198,0.067,-3.52,-6.02,18.83,7.07
,-9.323,-0.105,-3.601,-9.395,0.237,-3.386,-5.67,18.69,7.21
29151.0,-9.466,0.445,-3.333,-9.318,0.603,-3.51,-6.3,19.81,4.76
,-9.409,0.517,-3.412,-9.201,0.404,-3.439,-7.0,19.67,4.06
,-9.478,0.409,-3.422,-9.232,0.227,-3.494,-7.84,19.6,3.71
,-9.505,0.491,-3.398,-9.284,0.158,-3.52,-8.05,19.18,3.5
29227.0,-9.196,0.057,-3.467,-9.112,-0.117,-3.683,-10.01,19.67,2.03
,-9.256,0.05,-3.518,-9.067,-0.323,-3.601,-9.73,19.95,1.82
,-9.15,0.065,-3.573,-17.109,-1.175,-6.382,-9.38,19.67,1.82
,-9.134,0.024,-3.585,-7.03,-2.522,-2.142,-10.22,19.53,2.24
29303.0,-9.332,0.024,-3.695,-9.17,-0.263,-3.838,-7.28,15.54,0.56
,-9.189,-0.172,-3.936,-9.287,-0.462,-3.604,-3.36,15.68,0.77
,-9.234,0.036,-3.74,-9.124,0.01,-3.704,-2.87,14.7,1.26
,-9.012,0.16,-3.891,-9.22,0.122,-3.671,-2.73,13.79,1.47
29379.0,-9.143,0.297,-3.654,-9.148,0.084,-3.69,-0.35,12.18,1.68
,-9.139,0.12,-3.556,-9.17,0.524,-3.807,-0.7,12.04,1.82
,-9.237,0.127,-3.707,-9.189,0.737,-3.884,-1.12,10.85,1.33
,-9.127,0.017,-3.75,-9.234,0.696,-3.79,-0.84,10.29,1.19
29455.0,-9.091,0.426,-3.857,-9.184,-0.084,-3.69,-2.03,6.02,-1.12
,-9.107,0.05,-3.874,-9.292,0.144,-3.659,-3.43,5.81,-1.68
,-9.239,-0.33,-3.79,-9.454,0.416,-3.707,-3.85,4.97,-2.24
,-9.079,-0.318,-3.812,-9.227,0.452,-3.81,-2.1,3.99,-2.45
29530.0,-9.117,0.349,-3.905,-9.186,0.462,-4.159,-2.38,-1.75,-3.57
,-9.093,0.249,-4.042,-9.014,0.041,-4.032,-2.24,-2.52,-4.41
,-9.021,0.101,-3.941,-9.079,0.031,-3.953,-1.19,-3.57,-5.04
,-8.99,0.156,-4.049,-9.378,-0.005,-3.838,0.84,-4.2,-5.46
29606.0,-9.636,0.235,-3.979,-9.16,0.28,-3.348,0.91,-9.31,-10.64
,-9.253,0.404,-4.128,-9.263,0.048,-3.065,1.19,-13.51,-11.62
,-8.957,0.663,-4.154,-9.533,0.007,-2.816,0.84,-15.05,-11.76
,-8.945,0.407,-3.769,-9.608,0.108,-2.996,-1.61,-13.86,-10.57
29681.0,-9.651,0.189,-2.869,-9.301,-0.292,-3.104,-0.28,-11.97,-10.92
,-9.155,0.158,-3.027,-9.012,-0.282,-3.36,-0.07,-14.07,-11.34
,-9.021,0.057,-2.855,-9.131,-0.232,-3.417,0.0,-13.65,-10.92
,-9.186,-0.249,-3.049,-8.985,-0.292,-3.139,0.77,-12.04,-10.36
29757.0,-9.229,-0.479,-2.704,-9.273,-0.361,-2.898,3.78,-6.72,-9.52
,-9.428,-0.797,-2.563,-9.052,-0.663,-2.462,3.22,-5.18,-8.68
,-9.593,-0.928,-2.422,-8.995,-0.696,-2.477,4.2,-4.62,-7.84
,-9.586,-0.742,-2.46,-9.265,-0.905,-2.45,5.88,-4.48,-6.86
29833.0,-9.296,-0.924,-2.455,-9.155,-0.416,-3.032,7.14,3.5,-1.33
,-9.409,-0.584,-2.723,-9.155,-0.694,-2.912,7.98,3.57,-0.98
,-9.359,-0.383,-2.871,-9.361,-0.818,-2.958,7.77,3.22,-0.77
,-9.234,-0.28,-3.022,-9.507,-0.625,-3.19,5.88,3.57,-0.14
29909.0,-9.576,-0.093,-3.637,-8.909,-0.361,-4.295,5.18,4.27,1.05
,-9.306,0.215,-4.008,-9.088,-0.608,-3.939,4.76,2.59,0.77
,-9.021,0.191,-4.238,-9.311,-0.629,-3.69,3.01,2.24,0.84
,-8.863,0.036,-4.324,-9.471,-0.455,-3.386,1.82,3.08,1.05
29984.0,-9.519,-0.182,-3.307,-9.105,-0.555,-3.345,7.63,4.9,1.75
,-9.445,-0.177,-3.259,-9.241,-0.471,-3.429,6.72,4.13,1.82
,-9.277,-0.144,-3.36,-9.304,-0.383,-3.477,5.46,3.43,1.68
,-9.076,-0.313,-3.369,-9.359,-0.237,-3.422,4.69,3.5,1.89
30060.0,-9.395,-0.031,-3.611,-9.177,0.048,-3.979,5.88,2.31,1.96
,-9.366,0.05,-3.838,-9.15,-0.069,-4.051,5.25,1.61,1.61
,-9.244,0.163,-3.86,-9.172,-0.134,-3.85,4.62,1.26,1.33
,-9.17,0.103,-3.967,-9.198,-0.206,-3.79,4.13,1.33,1.19
30135.0,-9.328,-0.182,-3.771,-9.217,-0.23,-3.673,6.23,2.24,-0.07
,-9.385,-0.136,-3.625,-9.244,-0.273,-3.683,6.58,1.89,-0.21
,-9.22,-0.127,-3.632,-9.172,-0.388,-3.451,6.37,1.12,-0.35
,-9.112,-0.261,-3.532,-9.174,-0.44,-3.391,5.95,1.33,-0.14
30211.0,-9.299,-0.474,-3.393,-9.464,-0.23,-3.192,6.09,2.1,-0.07
,-9.28,-0.526,-3.159,-9.459,-0.16,-3.336,6.23,2.03,0.0
,-9.354,-0.469,-3.072,-9.316,-0.275,-3.417,6.51,2.1,0.0
,-9.421,-0.371,-3.082,-9.239,-0.39,-3.501,5.95,2.1,0.14
30287.0,-9.16,-0.464,-3.664,-9.447,-0.242,-3.486,4.27,1.33,0.91
,-9.17,-0.428,-3.592,-9.299,-0.232,-3.51,5.25,1.47,1.05
,-9.191,-0.407,-3.537,-9.342,-0.101,-3.508,6.02,1.61,1.26
,-9.306,-0.333,-3.417,-9.234,-0.043,-3.702,6.3,1.96,1.33
30363.0,-9.172,-0.074,-3.788,-9.323,-0.328,-3.637,4.27,0.98,0.35
,-9.107,-0.136,-3.805,-9.337,-0.304,-3.589,4.27,1.33,0.35
,-9.1,-0.177,-3.762,-9.201,-0.256,-3.544,4.34,1.75,0.35
,-9.241,-0.239,-3.664,-9.191,-0.323,-3.537,4.41,2.1,0.21
30439.0,-9.184,-0.469,-3.53,-9.277,-0.385,-3.506,3.36,2.17,-0.07
,-9.206,-0.519,-3.498,-9.404,-0.258,-3.582,3.71,2.31,0.0
,-9.342,-0.424,-3.494,-9.275,-0.278,-3.558,4.34,1.96,0.07
,-9.32,-0.383,-3.463,-9.249,-0.191,-3.666,4.69,2.1,0.35
30514.0,-9.222,-0.117,-3.673,-9.213,-0.404,-3.561,4.06,1.05,0.0
,-9.225,-0.213,-3.697,-9.304,-0.385,-3.527,3.64,1.05,-0.07
,-9.256,-0.361,-3.642,-9.227,-0.421,-3.408,3.57,1.12,0.0
,-9.246,-0.424,-3.599,-9.366,-0.323,-3.51,4.06,1.05,-0.07
30590.0,-9.328,-0.328,-3.537,-9.239,-0.507,-3.503,3.99,0.42,-0.21
,-9.22,-0.428,-3.551,-9.287,-0.45,-3.465,3.57,0.49,-0.14
,-9.17,-0.629,-3.451,-9.349,-0.325,-3.565,3.08,1.12,0.49
,-9.296,-0.589,-3.484,-9.217,-0.431,-3.424,3.57,0.77,0.49
30666.0,-9.296,-0.369,-3.465,-9.299,-0.263,-3.63,4.2,0.7,0.77
,-9.275,-0.347,-3.58,-9.165,-0.249,-3.575,4.41,0.63,0.77
,-9.294,-0.345,-3.506,-9.299,-0.278,-3.563,3.99,0.77,0.91
,-9.263,-0.34,-3.513,-9.347,-0.321,-3.539,3.99,0.35,0.7
30742.0,-9.28,-0.409,-3.41,-9.296,-0.318,-3.64,3.85,1.19,0.84
,-9.292,-0.483,-3.329,-9.191,-0.304,-3.632,3.64,1.12,0.98
,-9.323,-0.407,-3.357,-9.27,-0.273,-3.769,3.85,0.63,0.63
,-9.351,-0.345,-3.527,-9.21,-0.354,-3.604,4.13,0.07,0.42
30817.0,-9.301,-0.333,-3.508,-9.385,-0.237,-3.537,3.85,0.56,0.56
,-9.371,-0.316,-3.496,-9.186,-0.22,-3.601,4.06,0.42,0.21
,-9.294,-0.345,-3.35,-9.239,-0.294,-3.676,3.22,0.7,0.35
,-9.428,-0.302,-3.273,-9.165,-0.373,-3.714,2.73,0.28,0.14
30893.0,-9.292,-0.364,-3.673,-9.304,-0.376,-3.47,2.1,-0.14,-0.49
,-9.213,-0.397,-3.597,-9.28,-0.395,-3.463,2.8,-0.28,-0.56
,-9.251,-0.342,-3.486,-9.34,-0.323,-3.455,3.01,-0.14,-0.42
,-9.383,-0.292,-3.577,-9.375,-0.263,-3.506,3.43,-0.35,-0.49
30968.0,-9.347,-0.196,-3.597,-9.277,-0.548,-3.379,3.5,-0.84,-0.56
,-9.292,-0.27,-3.549,-9.337,-0.565,-3.369,3.29,-0.84,-0.63
,-9.225,-0.395,-3.563,-9.392,-0.474,-3.329,3.15,-0.49,-0.63
,-9.191,-0.462,-3.46,-9.318,-0.455,-3.266,3.36,-0.35,-0.7
31044.0,-9.366,-0.421,-3.29,-9.371,-0.39,-3.501,3.85,-0.21,-0.49
,-9.316,-0.436,-3.331,-9.311,-0.409,-3.463,3.78,-0.28,-0.56
,-9.328,-0.428,-3.386,-9.347,-0.464,-3.484,3.64,-0.07,-0.35
,-9.313,-0.479,-3.396,-9.182,-0.491,-3.376,3.78,-0.35,-0.35
31120.0,-9.385,-0.469,-3.431,-9.418,-0.457,-3.506,3.99,0.07,-0.28
,-9.392,-0.412,-3.408,-9.416,-0.397,-3.458,3.85,0.07,-0.28
,-9.213,-0.567,-3.281,-9.206,-0.589,-3.369,3.15,-0.07,-0.07
,-9.335,-0.491,-3.247,-9.172,-0.598,-3.345,3.22,-0.56,-0.14
31196.0,-9.294,-0.558,-3.34,-9.359,-0.385,-3.355,3.64,-0.49,0.35
,-9.344,-0.524,-3.305,-9.313,-0.395,-3.367,3.64,-0.56,0.56
,-9.387,-0.491,-3.4,-9.27,-0.412,-3.362,3.92,-0.91,0.42
,-9.404,-0.486,-3.384,-9.323,-0.447,-3.297,3.57,-1.19,0.49
31271.0,-9.359,-0.464,-3.317,-9.337,-0.548,-3.161,1.4,-2.24,0.07
,-9.39,-0.495,-3.262,-9.397,-0.57,-3.233,0.98,-2.24,0.35
,-9.32,-0.546,-3.25,-9.371,-0.55,-3.329,0.35,-2.45,0.35
,-9.347,-0.565,-3.171,-9.308,-0.546,-3.355,-0.07,-2.59,0.35
31347.0,-9.265,-0.562,-3.329,-9.447,-0.754,-2.938,-1.12,-2.8,0.98
,-9.186,-0.689,-3.34,-9.471,-0.799,-2.903,-0.98,-3.15,1.26
,-9.306,-0.792,-3.214,-9.43,-0.715,-2.84,-0.42,-3.15,1.54
,-9.363,-0.821,-3.082,-9.454,-0.684,-2.862,-0.14,-3.29,2.17
31423.0,-9.373,-0.692,-3.008,-9.351,-0.823,-3.053,-1.54,-4.76,3.57
,-9.268,-0.771,-3.01,-9.356,-0.952,-2.8,-1.61,-4.97,3.99
,-9.304,-0.773,-3.08,-9.505,-1.058,-2.565,-1.19,-5.39,4.2
,-9.299,-0.749,-3.139,-9.545,-1.055,-2.493,-0.21,-5.67,4.55
31499.0,-9.43,-1.053,-2.441,-9.363,-0.488,-2.51,2.52,-6.51,8.61
,-9.426,-1.098,-2.328,-9.263,-0.328,-2.505,2.45,-6.65,9.8
,-9.543,-0.964,-2.285,-9.225,-0.175,-2.62,2.17,-7.14,10.64
,-9.593,-0.651,-2.436,-9.201,-0.249,-2.546,2.73,-8.82,10.43
31575.0,-9.282,-0.206,-2.553,-9.691,0.175,-2.252,1.82,-5.46,11.9
,-9.476,-0.311,-2.441,-9.361,0.574,-2.391,2.03,-5.18,11.41
,-9.383,-0.304,-2.3,-9.253,0.761,-2.335,2.59,-5.46,10.78
,-9.493,-0.412,-1.895,-9.213,0.68,-2.479,2.38,-5.25,10.71
31650.0,-9.031,0.091,-2.07,-9.474,0.907,-3.214,-1.19,-0.14,8.61
,-9.514,-0.089,-2.139,-9.234,0.68,-3.264,-1.75,1.75,8.33
,-9.813,0.17,-2.398,-9.359,0.529,-3.192,-0.21,-0.07,5.95
,-9.775,0.529,-2.761,-9.526,0.51,-3.326,1.33,-3.78,3.71
31726.0,-9.567,0.481,-3.355,-9.488,-0.969,-3.273,-1.82,1.82,3.15
,-9.407,0.452,-3.307,-9.775,-1.161,-3.25,-0.84,2.66,3.08
,-9.361,0.299,-3.357,-9.608,-1.053,-3.494,0.0,3.29,2.45
,-9.344,-0.292,-3.489,-9.548,-0.931,-3.743,0.42,3.71,2.1
31801.0,-9.433,-0.938,-3.68,-9.344,-0.794,-3.29,15.05,-4.76,3.01
,-9.361,-1.189,-3.733,-9.349,-0.632,-3.19,16.45,-3.64,4.62
,-9.055,-1.433,-3.532,-9.318,-0.402,-2.883,17.92,-2.87,6.02
,-9.397,-1.132,-3.46,-9.402,-0.316,-2.481,21.42,-3.01,6.58
31877.0,-9.572,-0.101,-1.871,-9.481,0.943,-2.223,22.26,-3.01,7.49
,-9.579,0.469,-2.245,-9.529,1.302,-2.154,21.0,-6.3,5.11
,-9.679,0.517,-2.338,-9.533,1.596,-2.082,18.9,-8.96,3.29
,-9.514,0.732,-2.283,-9.715,1.788,-2.211,17.15,-11.06,2.03
31953.0,-9.605,1.709,-2.4,-9.509,0.22,-2.812,11.2,-7.14,-4.13
,-9.761,1.407,-2.474,-9.49,0.069,-2.876,9.1,-6.72,-5.81
,-9.797,1.043,-2.529,-9.368,-0.086,-2.9,7.21,-6.37,-7.35
,-9.694,0.634,-2.637,-9.474,-0.345,-2.752,6.16,-5.88,-7.63
32029.0,-9.359,-0.591,-2.809,-9.663,-0.402,-3.151,3.29,-2.31,-6.02
,-9.619,-0.462,-2.771,-9.574,-0.38,-3.211,4.2,-2.73,-7.84
,-9.883,-0.201,-2.991,-9.55,-0.711,-3.096,4.9,-3.36,-9.03
,-9.72,-0.235,-3.168,-9.624,-0.964,-2.984,4.83,-4.69,-9.38
32104.0,-9.672,-1.072,-2.778,-9.538,-0.443,-2.673,8.4,-5.53,-5.46
,-9.722,-0.835,-2.79,-9.6,-0.548,-2.678,9.94,-6.72,-5.11
,-9.543,-0.428,-2.929,-9.682,-0.531,-2.714,11.06,-7.77,-4.69
,-9.576,-0.357,-2.716,-9.636,-0.519,-2.733,10.36,-7.98,-4.55
32180.0,-9.605,-0.665,-2.816,-9.478,-0.529,-2.398,8.4,-10.85,-5.04
,-9.818,-0.931,-2.757,-9.375,-0.572,-2.19,8.19,-11.06,-5.11
,-9.801,-0.799,-2.673,-9.641,-0.62,-2.07,9.1,-10.64,-4.34
,-9.502,-0.634,-2.477,-9.574,-0.555,-1.859,9.17,-10.78,-4.13
32256.0,-9.588,-0.572,-1.699,-9.677,0.694,-2.123,8.75,-9.17,-4.41
,-9.675,-0.273,-1.634,-9.612,0.443,-1.929,9.31,-8.89,-5.04
,-9.71,0.258,-1.778,-9.593,0.357,-1.869,9.94,-9.24,-5.88
,-9.761,0.5,-1.895,-9.579,0.098,-1.9,9.1,-9.24,-6.44
32332.0,-9.825,-0.151,-1.756,-9.411,-0.529,-1.878,3.99,-6.44,-8.61
,-9.768,-0.218,-1.914,-9.361,-0.873,-1.799,3.43,-6.16,-9.31
,-9.746,-0.318,-1.993,-9.514,-0.986,-1.699,3.64,-5.67,-9.59
,-9.586,-0.239,-2.015,-9.794,-0.969,-1.716,3.71,-5.46,-9.73
32407.0,-9.742,-0.902,-1.974,-9.591,-1.395,-1.639,4.76,-4.83,-8.61
,-9.675,-0.854,-2.17,-9.428,-1.208,-1.874,5.67,-5.11,-8.33
,-9.588,-1.12,-1.91,-9.562,-1.216,-1.67,5.67,-4.97,-7.63
,-9.61,-1.421,-1.747,-9.452,-0.981,-1.675,6.16,-4.9,-7.21
32483.0,-9.483,-0.759,-1.709,-9.763,-0.773,-2.094,8.61,-5.11,-4.69
,-9.66,-0.538,-1.828,-9.739,-0.924,-1.979,7.42,-5.11,-4.48
,-9.782,-0.428,-2.034,-9.789,-0.964,-2.029,6.72,-5.04,-4.13
,-9.789,-0.73,-2.036,-9.923,-1.084,-2.008,6.3,-4.69,-3.78
32559.0,-9.907,-0.847,-2.197,-9.627,-1.137,-2.297,6.86,-3.71,-3.57
,-9.734,-0.72,-2.264,-9.6,-1.28,-2.156,6.86,-3.64,-3.36
,-9.88,-0.787,-2.391,-9.588,-1.036,-2.261,6.02,-3.71,-3.08
,-9.885,-1.125,-2.218,-9.787,-0.914,-2.357,4.97,-3.85,-2.66
32634.0,-9.837,-1.149,-2.115,-9.797,-0.897,-1.91,6.72,-2.87,-0.98
,-9.911,-1.307,-2.142,-9.871,-0.328,-1.936,6.93,-2.94,-0.77
,-9.943,-1.467,-2.032,-9.787,0.203,-1.998,7.49,-3.08,-0.42
,-9.89,-1.256,-1.943,-9.78,-0.038,-1.721,7.98,-3.15,0.0
32710.0,-9.72,-0.337,-1.637,-9.835,-0.909,-1.981,3.43,-2.1,-0.98
,-9.804,-0.493,-1.613,-9.849,-1.177,-2.065,2.66,-1.19,-1.33
,-9.742,-0.687,-1.575,-9.816,-0.969,-2.089,2.31,-0.49,-1.61
,-9.871,-0.637,-1.756,-9.832,-0.675,-2.237,2.24,-0.28,-1.54
32786.0,-10.014,-1.077,-2.268,-9.627,-1.522,-1.845,0.21,0.56,0.49
,-9.986,-1.4,-2.125,-9.751,-1.125,-1.862,-0.7,0.77,0.98
,-9.847,-1.67,-2.063,-9.828,-0.684,-1.924,-0.63,0.84,1.68
,-9.617,-1.747,-1.943,-9.928,-0.369,-1.845,0.0,1.4,2.31
32862.0,-9.844,-0.108,-1.821,-10.012,0.256,-1.644,1.12,2.66,3.15
,-9.799,0.122,-1.718,-10.043,0.084,-1.697,0.49,3.29,2.94
,-9.797,0.369,-1.658,-9.849,-0.347,-1.744,-0.28,4.06,2.24
,-9.995,0.404,-1.642,-9.732,-0.73,-1.84,-1.47,5.18,1.4
32937.0,-9.825,-0.907,-1.986,-9.835,-1.302,-2.517,-4.62,8.68,1.19
,-9.921,-0.852,-2.204,-9.933,-1.589,-2.405,-4.55,8.96,0.98
,-9.89,-0.96,-2.338,-9.957,-1.498,-2.572,-4.83,9.31,1.05
,-9.895,-1.134,-2.496,-9.904,-1.438,-2.527,-5.39,9.45,1.26
33013.0,-9.852,-1.488,-2.412,-9.737,-0.737,-2.295,-3.29,10.85,4.97
,-9.847,-1.146,-2.438,-9.806,-0.534,-2.163,-1.61,11.55,5.46
,-9.773,-0.826,-2.508,-9.981,-0.223,-2.094,-0.49,12.18,5.74
,-9.749,-0.689,-2.402,-9.978,0.266,-2.209,0.07,12.6,6.09
33089.0,-10.045,0.11,-2.096,-9.667,-0.493,-2.194,-1.12,14.91,6.65
,-10.026,0.151,-2.154,-9.804,-0.483,-2.23,-3.29,15.05,6.93
,-9.737,0.005,-2.158,-9.727,-0.402,-2.123,-5.32,15.26,6.93
,-9.545,-0.223,-2.297,-9.775,0.005,-2.434,-6.93,15.96,7.35
33165.0,-9.801,0.062,-2.493,-9.45,-1.043,-2.69,-10.15,16.94,7.42
,-9.701,-0.022,-2.692,-9.485,-1.249,-2.742,-11.97,17.08,7.49
,-9.84,-0.44,-3.9,-9.55,-1.424,-2.659,-13.16,18.2,8.19
,-9.61,-1.211,-2.527,-9.627,-1.168,-2.709,-13.51,18.48,7.98
33240.0,-9.562,-0.95,-2.85,-9.418,-0.541,-2.934,-6.02,19.39,9.73
,-9.603,-0.857,-2.989,-9.531,-0.546,-2.881,-5.67,19.18,9.94
,-9.569,-0.775,-3.18,-9.533,-0.763,-2.747,-6.09,18.83,10.29
,-9.378,-0.766,-2.891,-9.576,-0.656,-2.965,-6.09,18.34,10.64
33316.0,-9.49,-0.617,-2.871,-9.495,-0.153,-2.828,-3.29,18.97,10.43
,-9.409,-0.44,-2.893,-9.466,-0.144,-2.749,-1.96,19.25,10.57
,-9.426,-0.175,-3.118,-9.399,0.029,-2.903,-0.63,19.6,10.64
,-9.493,-0.256,-2.826,-9.368,-0.06,-2.852,0.42,19.53,10.43
33391.0,-9.435,0.048,-2.948,-9.083,-0.581,-3.072,-0.42,18.83,8.54
,-9.474,-0.115,-2.998,-9.308,-0.591,-3.084,-0.98,18.9,7.84
,-9.418,-0.117,-3.082,-9.363,-0.495,-3.175,-1.47,19.04,7.35
,-9.567,0.706,-3.47,-9.33,-0.495,-3.216,-0.28,19.74,6.86
33467.0,-9.258,-0.383,-3.264,-9.306,0.196,-3.357,0.49,18.27,6.37
,-9.368,-0.361,-3.264,-9.373,0.285,-3.405,1.26,18.48,6.3
,-9.457,-0.201,-3.247,-9.387,0.44,-3.431,1.19,18.41,5.88
,-9.308,0.026,-3.247,-9.203,0.28,-3.297,1.19,18.2,5.67
33543.0,-9.215,0.108,-3.333,-9.325,-0.254,-3.417,-3.57,19.67,4.55
,-9.258,0.151,-3.391,-5.097,1.395,-5.695,-3.43,19.95,4.13
,-9.323,0.249,-3.345,-9.026,0.057,-3.642,-4.2,19.46,3.64
,-9.22,0.029,-3.508,-9.232,-0.455,-3.716,-5.04,19.81,3.57
33619.0,-9.124,-0.476,-3.47,-9.162,-0.041,-3.824,-0.14,17.01,1.82
,-9.356,-0.024,-3.553,-9.124,-0.246,-3.843,0.91,16.1,1.33
,-9.299,0.014,-3.716,-9.055,-0.586,-3.764,0.77,14.63,0.77
,-9.244,0.029,-3.795,-9.143,-0.637,-3.647,0.0,13.3,0.35
33695.0,-9.344,-0.39,-3.644,-9.22,0.392,-3.781,2.59,11.69,0.98
,-9.265,-0.134,-3.891,-9.045,0.251,-3.532,4.41,9.94,0.84
,-9.44,0.017,-3.697,-9.263,0.22,-3.443,4.97,8.4,0.77
,-9.292,0.354,-3.664,-9.308,-0.168,-3.424,4.97,6.72,0.07
33770.0,-9.225,0.069,-3.601,-9.103,0.127,-3.391,-1.05,3.43,-5.18
,-9.33,0.258,-3.685,-9.237,0.089,-3.24,-0.63,1.47,-6.02
,-9.119,0.328,-3.699,-9.531,0.048,-3.204,-0.91,0.28,-6.37
,-8.985,0.409,-3.573,-9.435,-0.366,-3.683,-1.75,0.56,-6.79
33846.0,-9.196,-0.541,-3.69,-9.435,-0.699,-3.704,-6.02,-5.32,-11.27
,-8.966,-0.579,-3.743,-9.21,-0.608,-3.551,-5.53,-7.0,-11.41
,-8.911,-0.861,-3.664,-9.423,-0.455,-3.506,-4.83,-6.79,-10.29
,-9.409,-0.866,-3.556,-9.363,-0.431,-3.654,-2.31,-6.79,-10.29
33922.0,-8.964,-0.668,-3.563,-9.17,-0.694,-2.922,4.76,-12.95,-10.15
,-9.347,-0.514,-3.625,-9.454,-0.637,-2.843,6.16,-14.07,-10.43
,-8.997,-0.644,-3.613,-9.38,-0.625,-2.943,8.19,-14.07,-10.64
,-8.995,-0.617,-3.431,-9.89,-0.335,-2.867,9.87,-12.04,-10.08
33998.0,-9.677,-0.151,-3.247,-9.122,-0.933,-2.771,9.59,-16.66,-11.2
,-9.445,-0.096,-3.506,-9.564,-0.926,-2.986,8.47,-19.74,-12.88
,-8.686,-0.304,-3.592,-9.21,-0.543,-3.199,4.83,-18.34,-12.88
,-8.71,-0.555,-3.029,-9.337,-0.373,-3.218,2.03,-13.93,-11.34
34073.0,-9.189,-0.263,-2.967,-9.282,-1.589,-2.539,5.39,-4.62,-7.98
,-9.241,-0.529,-2.905,-9.517,-1.287,-2.496,3.71,-3.08,-7.0
,-9.241,-1.094,-2.544,-9.45,-1.094,-2.678,2.8,-0.91,-5.6
,-9.196,-1.464,-2.422,-9.215,-1.271,-2.266,3.71,0.7,-4.2
34149.0,-9.222,-1.488,-2.039,-9.519,-1.402,-1.797,9.66,3.5,0.91
,-9.296,-1.744,-1.742,-9.361,-1.316,-1.713,9.66,5.11,2.17
,-9.459,-1.761,-1.627,-9.306,-1.256,-1.735,10.22,6.02,2.87
,-9.531,-1.577,-1.606,-9.34,-1.311,-1.543,10.5,5.88,3.29
34224.0,-9.442,-1.5,-1.464,-9.17,0.254,-3.987,4.13,8.33,6.79
,-9.682,-1.247,-1.943,-8.818,0.323,-4.19,3.5,7.84,7.07
,-9.782,-0.735,-2.62,-8.827,0.115,-4.19,3.92,6.02,6.3
,-9.629,0.053,-3.601,-9.083,0.089,-4.401,3.71,3.36,5.39
34300.0,-9.198,0.029,-4.594,-9.294,-0.553,-4.257,-3.71,9.03,2.38
,-9.225,-0.103,-4.822,-9.296,-0.668,-4.034,-2.38,9.38,1.82
,-9.227,-0.163,-4.716,-9.306,-0.715,-3.955,-0.56,9.24,1.26
,-9.318,-0.34,-4.523,-9.337,-0.809,-3.824,1.4,9.17,1.26
34376.0,-9.28,-0.759,-3.836,-9.179,-0.687,-3.616,5.67,7.56,1.4
,-9.206,-0.792,-3.728,-9.182,-0.66,-3.609,5.11,6.93,1.61
,-9.177,-0.799,-3.668,-9.184,-0.66,-3.477,4.62,6.16,1.68
,-9.139,-0.747,-3.647,-9.249,-0.677,-3.34,4.83,5.6,1.68
34452.0,-9.32,-0.603,-3.319,-9.282,-0.469,-3.448,5.46,4.9,2.52
,-9.371,-0.474,-3.247,-9.263,-0.567,-3.446,5.32,4.55,2.38
,-9.277,-0.464,-3.257,-9.265,-0.553,-3.482,4.62,3.99,2.1
,-9.361,-0.443,-3.352,-9.375,-0.579,-3.664,3.71,3.57,1.68
34527.0,-9.313,-0.419,-3.826,-9.074,-0.426,-3.905,2.87,4.41,0.98
,-9.22,-0.313,-3.853,-9.21,-0.548,-3.788,2.66,3.85,0.63
,-9.117,-0.297,-3.929,-9.292,-0.648,-3.699,2.31,3.57,0.35
,-9.103,-0.345,-3.881,-9.313,-0.68,-3.563,2.03,4.06,0.35
34603.0,-9.268,-0.692,-3.496,-9.241,-0.656,-3.556,2.66,3.71,0.14
,-9.244,-0.689,-3.424,-9.32,-0.625,-3.563,2.59,3.71,0.21
,-9.234,-0.644,-3.326,-9.273,-0.632,-3.676,1.96,3.57,0.21
,-9.256,-0.641,-3.451,-9.261,-0.603,-3.668,1.54,3.29,0.07
34679.0,-9.222,-0.61,-3.778,-9.22,-0.546,-3.97,0.07,1.96,0.28
,-9.189,-0.577,-3.795,-9.213,-0.598,-3.934,0.77,1.68,0.28
,-9.162,-0.476,-3.843,-9.208,-0.668,-3.908,1.26,1.75,0.35
,-9.251,-0.433,-3.941,-9.213,-0.715,-3.941,1.61,1.47,0.14
34755.0,-9.174,-0.708,-3.948,-9.17,-0.689,-3.836,3.5,1.19,0.56
,-9.227,-0.811,-3.879,-9.136,-0.598,-3.769,3.92,1.05,0.7
,-9.162,-0.773,-3.812,-9.129,-0.641,-3.721,4.27,0.84,0.84
,-9.253,-0.747,-3.879,-9.21,-0.641,-3.644,5.04,0.63,1.05
34831.0,-9.16,-0.725,-3.431,-9.284,-0.596,-3.537,4.55,0.14,1.54
,-9.27,-0.84,-3.278,-9.265,-0.548,-3.601,3.85,0.0,1.68
,-9.421,-0.771,-3.302,-9.182,-0.581,-3.824,3.85,-0.63,1.82
,-9.359,-0.708,-3.379,-9.119,-0.749,-3.934,4.13,-1.4,1.82
34906.0,-9.177,-0.792,-3.881,-9.253,-0.409,-3.673,4.69,-2.31,2.31
,-9.229,-0.885,-3.857,-9.127,-0.447,-3.652,6.23,-2.38,2.59
,-9.38,-0.833,-3.812,-9.196,-0.546,-3.609,7.63,-2.73,2.8
,-9.402,-0.641,-3.716,-9.263,-0.656,-3.64,8.82,-3.36,2.73
34982.0,-9.371,-0.715,-3.637,-9.284,-0.369,-4.013,5.39,-4.48,2.52
,-9.414,-0.675,-3.692,-9.186,-0.328,-4.013,4.97,-4.83,2.52
,-9.368,-0.531,-3.786,-9.105,-0.328,-3.979,4.41,-5.53,2.52
,-9.28,-0.546,-3.912,-9.1,-0.402,-3.939,3.85,-5.88,2.45
35057.0,-9.234,-0.402,-3.929,-9.244,-0.648,-3.51,0.91,-6.58,1.05
,-9.306,-0.445,-3.802,-9.146,-0.72,-3.331,0.35,-7.0,0.7
,-9.311,-0.445,-3.723,-9.22,-0.873,-3.171,-0.28,-7.28,0.7
,-9.258,-0.462,-3.671,-9.28,-1.019,-2.927,-0.77,-7.7,0.56
35133.0,-9.325,-1.058,-2.726,-9.43,-0.921,-2.67,-1.75,-7.14,1.19
,-9.435,-1.0,-2.627,-9.414,-1.163,-2.417,-0.98,-7.63,1.47
,-9.555,-0.902,-2.608,-9.43,-1.474,-2.245,-0.98,-8.75,1.82
,-9.471,-0.89,-2.647,-9.514,-1.438,-2.321,-1.82,-8.96,2.66
35209.0,-9.643,-1.05,-2.4,-9.292,-0.857,-2.446,-2.59,-9.03,7.35
,-9.397,-0.615,-2.764,-9.579,-1.01,-2.489,-0.98,-11.06,7.28
,-9.162,-0.603,-2.836,-9.639,-0.842,-2.649,-1.61,-11.13,7.84
,-9.15,-0.663,-2.8,-9.366,-0.555,-2.63,-2.8,-10.22,8.47
35285.0,-9.172,-0.431,-2.211,-9.859,1.139,-3.017,2.94,-8.4,11.2
,-9.545,-0.179,-1.864,-9.198,1.68,-3.594,1.33,-6.51,12.11
,-9.866,0.12,-2.151,-8.662,1.577,-3.4,0.77,-6.86,10.78
,-10.024,0.404,-2.249,-8.674,1.058,-3.07,0.42,-9.1,8.54
35360.0,-9.083,0.409,-2.759,-10.072,-1.077,-2.017,-14.14,-0.07,7.07
,-9.392,-0.285,-2.721,-10.017,-1.132,-2.0,-14.35,2.45,5.11
,-9.471,-0.926,-2.405,-9.782,-1.28,-2.335,-13.37,5.11,4.62
,-9.792,-1.22,-2.063,-9.541,-1.443,-2.553,-11.55,6.86,5.39
35436.0,-9.428,-1.192,-3.049,-9.332,0.057,-2.615,2.45,-7.14,5.88
,-8.973,-0.905,-3.01,-9.557,-0.17,-2.28,6.65,-7.28,7.91
,-9.548,-0.517,-2.599,-9.428,-0.737,-2.032,9.66,-6.51,8.82
,-9.474,0.031,-2.816,-9.45,-1.223,-1.761,12.53,-7.7,7.84
35511.0,-9.251,-1.553,-1.747,-9.631,1.28,-2.881,9.24,1.54,9.31
,-9.696,-1.06,-1.74,-9.67,1.405,-2.929,13.3,2.52,9.52
,-9.895,0.053,-2.01,-9.533,1.34,-3.226,17.85,1.26,8.75
,-9.957,0.828,-2.364,-9.155,0.871,-3.195,19.18,-2.24,7.28
35587.0,-9.136,0.077,-3.35,-9.722,-1.855,-2.051,7.35,-9.73,0.7
,-9.131,-0.735,-2.979,-9.868,-1.271,-2.343,7.0,-6.58,1.82
,-9.196,-1.436,-2.656,-9.842,-0.936,-2.438,7.91,-4.2,3.08
,-9.474,-1.814,-2.309,-9.67,-0.407,-2.594,10.15,-3.36,2.87
35663.0,-9.548,-0.053,-2.548,-9.442,0.78,-2.704,16.66,-14.84,-0.98
,-9.579,0.158,-2.711,-9.45,0.637,-2.678,16.66,-15.19,-1.47
,-9.186,0.45,-2.828,-9.763,0.407,-2.407,16.45,-15.05,-1.82
,-9.383,0.761,-2.694,-9.77,0.44,-2.443,15.61,-13.58,-0.91
35739.0,-9.835,0.366,-2.276,-9.493,0.079,-2.532,11.06,-10.22,-1.96
,-9.828,0.577,-2.391,-9.634,-0.213,-2.352,10.57,-10.85,-3.01
,-9.641,0.514,-2.357,-9.536,-0.105,-2.333,9.52,-11.2,-4.13
,-9.538,0.177,-2.436,-9.34,-0.261,-2.139,8.33,-11.27,-5.32
35815.0,-9.483,-0.187,-1.962,-9.677,-0.316,-1.898,7.14,-10.15,-6.23
,-9.45,-0.335,-2.063,-9.658,-0.024,-1.931,7.42,-10.08,-6.72
,-9.782,-0.826,-1.682,-9.485,-0.227,-2.01,6.23,-9.94,-6.79
,-9.907,-0.57,-1.862,-9.6,-0.517,-1.919,7.7,-10.64,-7.42
35890.0,-9.574,-0.603,-2.017,-9.529,-0.993,-2.347,9.1,-10.5,-6.58
,-9.524,-0.61,-2.151,-9.684,-1.024,-2.06,9.87,-10.71,-6.65
,-9.557,-0.627,-2.175,-9.751,-0.457,-2.493,10.5,-10.71,-7.07
,-9.533,-0.72,-2.395,-9.921,-0.309,-2.154,10.78,-10.71,-7.28
35966.0,-9.854,-0.462,-2.132,-9.935,0.433,-2.285,14.42,-10.64,-7.49
,-9.794,-0.486,-2.249,-10.127,0.304,-2.235,13.65,-10.71,-7.7
,-9.634,-0.258,-2.395,-10.098,0.266,-1.919,14.56,-10.22,-7.35
,-9.849,-0.057,-2.206,-9.909,0.194,-1.953,14.7,-9.8,-7.28
36042.0,-9.926,0.019,-2.051,-10.115,-0.56,-2.161,13.37,-10.5,-9.66
,-9.962,-0.589,-1.709,-9.895,-0.701,-2.302,12.67,-9.38,-9.52
,-9.976,-0.517,-1.855,-9.612,-0.924,-2.297,13.02,-9.31,-10.08
,-9.969,-0.459,-2.003,-9.627,-1.299,-2.424,13.09,-9.73,-10.22
36118.0,-9.596,-1.943,-2.333,-9.938,-0.96,-2.034,11.41,-11.06,-4.83
,-9.713,-1.84,-2.35,-9.966,-0.67,-1.888,13.51,-11.48,-4.06
,-9.935,-1.558,-2.158,-10.041,-0.392,-1.68,14.49,-12.11,-3.78
,-9.837,-0.907,-2.584,-9.897,-0.313,-1.342,16.17,-12.53,-3.71
36193.0,-9.868,0.12,-1.237,-9.816,0.239,-0.895,11.41,-11.48,-5.6
,-9.777,0.244,-1.062,-10.086,-0.05,-0.517,10.22,-10.64,-6.09
,-9.675,0.282,-0.969,-9.933,0.077,-0.842,8.96,-9.73,-6.44
,-9.507,0.416,-0.986,-9.866,0.168,-0.969,8.47,-8.89,-6.65
36269.0,-9.971,0.433,-1.314,-9.823,-1.675,-1.881,4.76,-6.51,-8.54
,-10.132,0.105,-1.63,-9.533,-2.367,-1.819,3.43,-6.3,-8.82
,-10.16,-0.538,-1.594,-9.414,-2.915,-1.852,1.82,-6.37,-8.61
,-9.931,-1.263,-1.838,-9.737,-2.938,-1.795,1.33,-6.16,-7.14
36344.0,-10.057,-2.919,-1.799,-9.521,-1.369,-1.512,9.24,-2.45,-2.87
,-10.254,-2.58,-1.795,-9.493,-1.144,-1.426,10.43,-2.73,-2.73
,-10.445,-2.161,-1.809,-9.689,-1.07,-1.318,10.92,-2.94,-2.24
,-10.1,-1.67,-1.874,-9.811,-0.974,-1.187,10.92,-3.08,-1.47
36420.0,-10.012,-0.936,-1.113,-10.041,0.637,-1.077,10.36,-0.63,2.03
,-10.187,-0.512,-1.07,-10.041,0.421,-1.024,10.78,-0.49,1.68
,-10.079,0.053,-1.091,-9.959,0.079,-0.991,10.64,-0.07,1.54
,-9.954,0.565,-1.07,-9.952,-0.22,-1.024,9.31,0.49,1.05
36496.0,-10.091,-0.581,-1.07,-9.682,-1.113,-1.345,0.56,5.88,-1.33
,-10.086,-0.857,-1.144,-9.971,-1.098,-1.496,-0.14,6.37,-1.61
,-10.024,-1.098,-1.22,-9.969,-1.015,-1.776,-0.91,7.14,-1.47
,-9.751,-1.173,-1.273,-9.844,-1.039,-1.938,-1.26,7.7,-1.12
36572.0,-9.876,-1.407,-1.953,-10.057,-1.716,-1.869,-3.57,10.01,1.47
,-10.069,-1.486,-1.953,-9.636,-2.003,-1.941,-3.15,10.99,2.24
,-10.139,-1.486,-2.008,-9.526,-2.553,-1.795,-2.94,11.13,3.01
,-10.208,-1.658,-1.962,-9.861,-2.209,-1.675,-2.66,11.27,3.78
36647.0,-9.983,-1.438,-1.721,-9.672,-0.457,-1.259,1.05,14.7,8.4
,-10.081,-0.694,-1.833,-9.72,-0.701,-0.945,1.89,15.26,8.26
,-10.144,-0.304,-1.735,-9.67,-0.206,-1.108,0.7,15.89,8.05
,-9.943,-0.172,-1.591,-9.67,0.146,-1.139,-0.91,16.87,7.84
36723.0,-9.89,0.294,-1.462,-9.641,-1.256,-2.067,-2.94,19.04,10.57
,-9.99,-0.146,-1.572,-9.816,-1.783,-2.182,-5.46,18.97,10.43
,-10.0,-0.488,-1.709,-9.938,-1.991,-2.273,-7.21,19.11,10.22
,-9.753,-0.72,-1.792,-10.038,-1.694,-2.469,-8.82,19.25,10.71
36799.0,-10.041,-1.385,-2.74,-9.289,-1.129,-2.556,-5.88,17.78,15.96
,-9.775,-0.964,-2.912,-9.703,-0.967,-2.307,-5.46,17.92,16.8
,-9.529,-0.869,-2.647,-9.306,-0.708,-2.175,-5.74,18.62,17.22
,-9.28,-0.981,-2.714,-9.83,-0.345,-2.426,-6.16,19.46,17.64
36875.0,-9.832,-0.045,-2.261,-9.897,0.048,-2.127,-2.73,19.04,17.99
,-10.026,0.333,-2.178,-9.818,0.141,-2.063,-3.29,19.11,16.94
,-9.871,0.313,-2.211,-9.758,0.481,-2.063,-4.83,18.97,15.89
,-9.725,0.062,-2.154,-9.548,0.586,-2.144,-6.09,18.97,15.47
36951.0,-9.445,0.744,-2.149,-9.61,0.235,-1.675,-7.35,19.67,12.95
,-9.261,0.409,-1.869,-9.605,0.026,-1.862,-8.26,20.3,12.04
,-9.464,0.105,-1.493,-9.548,-0.122,-1.967,-9.45,20.79,11.2
,-9.567,0.081,-1.57,-9.509,-0.232,-2.295,-8.89,20.44,10.08
37026.0,-9.517,-0.23,-2.529,-9.464,-0.689,-2.96,-9.94,20.3,7.28
,-9.459,-0.471,-2.52,-9.541,-0.754,-2.833,-9.87,20.65,7.14
,-9.452,-0.404,-2.673,-9.787,0.103,-3.345,-8.89,20.79,7.0
,-9.435,-0.476,-2.836,-9.347,-0.495,-3.022,-7.98,20.65,7.07
37102.0,-9.55,0.034,-3.187,-9.548,0.373,-3.178,-5.11,20.65,5.74
,-9.596,0.402,-3.089,-9.665,0.297,-3.247,-5.32,20.51,5.67
,-9.457,0.838,-3.295,-9.572,0.22,-3.357,-6.09,20.3,5.6
,-9.438,0.625,-3.187,-9.318,0.12,-3.479,-8.89,20.58,5.11
37177.0,-9.311,0.045,-3.314,-9.103,-2.02,0.16,-9.87,21.0,3.5
,-9.201,0.225,-3.568,-8.993,-0.955,-3.206,-8.75,21.21,3.43
,-9.337,0.191,-3.609,-9.497,-0.388,-3.948,-8.33,21.21,3.15
,-9.275,-0.031,-3.68,-9.414,-0.644,-3.766,-8.47,20.79,3.08
37253.0,-9.28,-0.278,-3.812,-9.273,0.12,-3.197,-1.19,15.12,2.24
,-9.177,-0.306,-3.728,-9.344,0.12,-3.262,-0.7,15.05,2.59
,-9.172,-0.273,-3.647,-9.206,-0.081,-3.084,-0.14,15.47,2.38
,-9.076,-0.101,-3.424,-9.421,-0.163,-2.852,1.82,15.26,2.24
37329.0,-9.464,0.048,-2.771,-9.268,0.768,-2.599,3.78,10.99,0.56
,-9.43,0.22,-2.809,-9.397,0.012,-2.211,4.55,9.87,0.21
,-9.442,0.244,-2.601,-9.497,-0.124,-2.458,2.94,9.45,-0.49
,-9.533,0.665,-2.656,-9.5,-0.089,-2.551,2.8,8.05,-1.89
37405.0,-9.701,0.287,-2.644,-9.215,0.146,-2.821,-1.54,5.25,-4.34
,-9.435,0.378,-2.883,-9.32,-0.273,-2.699,-1.61,3.08,-5.74
,-9.296,0.366,-2.807,-9.835,-0.373,-2.661,-2.24,2.17,-6.65
,-9.251,0.517,-2.946,-9.409,-0.56,-3.376,-3.08,2.87,-6.58
37480.0,-9.045,-0.988,-2.996,-9.517,-0.543,-3.029,-5.6,-0.35,-8.61
,-9.256,-0.948,-2.982,-9.533,-0.498,-3.046,-4.06,-0.7,-7.77
,-9.588,-0.816,-3.077,-9.134,-0.33,-3.223,-2.1,-1.19,-7.21
,-9.598,-0.639,-3.075,-9.423,-0.179,-3.065,-0.63,-2.1,-7.0
37556.0,-9.49,0.129,-3.506,-9.375,-0.031,-2.965,3.85,-5.88,-7.14
,-9.045,0.141,-3.178,-9.359,-0.412,-2.881,4.2,-7.28,-7.98
,-9.237,0.086,-2.895,-9.646,-0.481,-2.941,2.87,-6.51,-7.7
,-9.308,0.168,-3.025,-9.409,-0.304,-3.309,2.45,-5.39,-7.49
37632.0,-9.428,-0.39,-3.235,-9.083,-0.768,-2.912,3.08,-2.87,-7.56
,-9.232,-0.251,-3.41,-9.634,-0.677,-2.577,2.8,-2.45,-7.35
,-9.115,-0.56,-3.178,-9.897,-0.246,-2.781,2.24,-0.42,-5.81
,-8.954,-0.761,-2.843,-9.691,0.256,-3.12,2.45,1.4,-4.55
37708.0,-9.399,0.321,-2.998,-9.067,-0.191,-3.735,0.35,-3.57,-6.93
,-9.256,0.017,-3.235,-9.249,-0.062,-3.609,-2.03,-1.61,-5.95
,-9.072,-0.213,-3.36,-9.186,0.129,-3.848,-2.87,1.82,-4.83
