Timestamp,AccX,AccY,AccZ,GyroX,GyroY,GyroZ,MagnX,MagnY,MagnZ
0.0,-9.282,-1.326,-3.348,-9.234,-1.338,-3.372,2.1,1.4,0.7
,-9.208,-1.457,-3.297,-9.246,-1.295,-3.417,1.75,1.61,0.91
,-9.241,-1.393,-3.333,-9.22,-1.352,-3.405,2.17,1.89,0.84
,-9.273,-1.35,-3.367,-9.258,-1.395,-3.338,2.94,1.96,1.05
76.0,-9.261,-1.374,-3.345,-9.265,-1.283,-3.386,2.87,1.75,0.77
,-9.294,-1.35,-3.3,-9.256,-1.318,-3.391,3.01,1.75,0.7
,-9.289,-1.295,-3.257,-9.203,-1.359,-3.369,2.8,1.61,0.7
,-9.284,-1.263,-3.338,-9.249,-1.357,-3.374,2.66,1.61,0.77
152.0,-9.273,-1.321,-3.415,-9.28,-1.314,-3.199,2.8,1.75,0.7
,-9.253,-1.244,-3.321,-9.328,-1.347,-3.185,2.59,1.89,0.77
,-9.273,-1.273,-3.35,-9.296,-1.362,-3.238,2.24,1.82,0.77
,-9.273,-1.338,-3.285,-9.284,-1.307,-3.278,2.03,1.68,0.77
228.0,-9.289,-1.295,-3.381,-9.237,-1.33,-3.369,2.8,1.26,0.7
,-9.246,-1.321,-3.396,-9.275,-1.347,-3.36,2.66,1.47,0.7
,-9.201,-1.414,-3.419,-9.299,-1.273,-3.345,2.52,1.26,0.7
,-9.225,-1.326,-3.376,-9.253,-1.283,-3.271,2.45,1.47,0.7
304.0,-9.251,-1.321,-3.3,-9.234,-1.318,-3.36,2.73,1.33,0.7
,-9.198,-1.345,-3.321,-9.253,-1.273,-3.355,3.15,1.4,0.7
,-9.222,-1.335,-3.431,-9.239,-1.254,-3.293,3.29,1.4,0.7
,-9.234,-1.299,-3.381,-9.277,-1.295,-3.336,3.22,1.54,0.63
380.0,-9.22,-1.354,-3.333,-9.323,-1.359,-3.233,2.66,1.26,0.56
,-9.253,-1.35,-3.247,-9.296,-1.381,-3.221,2.59,1.4,0.63
,-9.256,-1.376,-3.283,-9.263,-1.385,-3.226,2.59,1.33,0.56
,-9.273,-1.354,-3.226,-9.27,-1.393,-3.4,2.73,1.33,0.56
456.0,-9.342,-1.381,-3.484,-9.217,-1.366,-3.587,4.48,1.4,1.05
,-9.304,-1.385,-3.64,-9.227,-1.352,-3.496,4.62,1.4,1.19
,-9.206,-1.364,-3.656,-9.378,-1.345,-3.427,4.34,1.4,1.33
,-9.198,-1.333,-3.68,-9.361,-1.417,-3.283,4.13,1.4,1.26
532.0,-9.182,-1.51,-3.139,-9.15,-1.426,-3.317,2.31,0.56,1.26
,-9.306,-1.488,-3.187,-9.304,-1.271,-3.329,2.59,0.63,1.54
,-9.213,-1.443,-3.443,-9.177,-1.225,-3.403,3.5,0.7,1.75
,-9.275,-1.307,-3.436,-9.158,-1.034,-3.259,3.5,0.49,1.89
608.0,-9.371,-1.115,-3.168,-9.323,-1.247,-3.092,2.38,0.91,1.26
,-9.253,-1.194,-3.089,-9.265,-1.271,-3.111,2.24,0.63,1.12
,-9.318,-1.247,-3.029,-9.33,-1.321,-3.147,2.31,0.56,1.05
,-9.328,-1.213,-3.077,-9.306,-1.321,-3.173,2.52,0.84,0.84
684.0,-9.289,-1.34,-3.288,-9.227,-1.359,-3.489,3.22,1.12,0.28
,-9.232,-1.292,-3.364,-9.21,-1.352,-3.458,3.01,0.98,0.21
,-9.263,-1.347,-3.405,-9.22,-1.295,-3.419,2.8,1.12,0.28
,-9.179,-1.354,-3.498,-9.28,-1.299,-3.396,2.66,1.26,0.42
760.0,-9.263,-1.283,-3.309,-9.186,-1.46,-3.247,0.91,1.26,0.35
,-9.311,-1.318,-3.302,-9.275,-1.441,-3.238,0.77,1.33,0.35
,-9.287,-1.323,-3.247,-9.294,-1.429,-3.223,0.56,0.98,0.21
,-9.244,-1.381,-3.245,-9.27,-1.397,-3.254,0.7,1.05,0.35
836.0,-9.263,-1.378,-3.324,-9.273,-1.273,-3.242,3.5,1.33,1.26
,-9.282,-1.299,-3.333,-9.292,-1.283,-3.159,3.85,1.33,1.26
,-9.239,-1.307,-3.369,-9.337,-1.194,-3.128,3.99,1.47,1.33
,-9.256,-1.297,-3.293,-9.378,-1.17,-3.132,3.99,1.33,0.98
912.0,-9.313,-1.146,-3.192,-9.249,-1.352,-3.362,2.52,1.4,0.7
,-9.261,-1.18,-3.273,-9.304,-1.314,-3.374,2.1,1.75,0.63
,-9.225,-1.273,-3.376,-9.268,-1.34,-3.436,1.61,1.75,0.63
,-9.239,-1.307,-3.355,-9.229,-1.285,-3.329,1.26,1.75,0.56
988.0,-9.213,-1.338,-3.3,-9.316,-1.314,-3.192,1.68,1.61,0.28
,-9.217,-1.359,-3.245,-9.347,-1.335,-3.209,1.96,1.68,0.49
,-9.261,-1.397,-3.223,-9.261,-1.359,-3.305,2.17,1.89,0.56
,-9.34,-1.354,-3.159,-9.227,-1.381,-3.381,2.73,1.75,0.63
1064.0,-9.246,-1.402,-3.477,-9.222,-1.371,-3.419,3.85,1.26,0.98
,-9.198,-1.35,-3.515,-9.268,-1.357,-3.331,4.2,1.26,0.98
,-9.177,-1.381,-3.542,-9.258,-1.338,-3.23,3.99,1.19,1.05
,-9.273,-1.397,-3.482,-9.316,-1.311,-3.23,3.85,1.19,1.12
1140.0,-9.318,-1.263,-3.228,-9.237,-1.29,-3.36,2.59,0.77,1.19
,-9.253,-1.235,-3.25,-9.232,-1.268,-3.467,2.24,0.84,1.26
,-9.217,-1.223,-3.262,-9.246,-1.321,-3.47,1.61,0.63,1.05
,-9.237,-1.292,-3.321,-9.234,-1.362,-3.36,1.47,0.49,1.05
1216.0,-9.308,-1.374,-3.319,-9.323,-1.321,-3.214,0.77,0.21,0.63
,-9.275,-1.46,-3.269,-9.282,-1.295,-3.238,1.33,0.21,0.84
,-9.301,-1.4,-3.199,-9.225,-1.424,-3.199,2.03,0.0,0.91
,-9.368,-1.328,-3.209,-9.174,-1.491,-3.18,2.66,0.0,1.12
1292.0,-9.227,-1.481,-3.264,-9.273,-1.275,-3.458,4.76,-0.28,1.75
,-9.313,-1.405,-3.326,-9.256,-1.194,-3.498,5.53,-0.49,1.75
,-9.256,-1.321,-3.369,-9.206,-1.244,-3.235,5.67,-0.63,1.68
,-9.256,-1.304,-3.36,-9.318,-1.316,-3.329,4.97,-1.05,1.82
1368.0,-9.323,-1.412,-3.257,-9.359,-1.371,-3.357,3.5,-1.61,1.61
,-9.275,-1.34,-3.257,-9.265,-1.39,-3.276,4.48,-1.75,1.54
,-9.32,-1.297,-3.362,-9.332,-1.508,-3.345,4.97,-1.75,1.61
,-9.301,-1.321,-3.3,-9.206,-1.472,-3.348,4.83,-2.24,1.54
1444.0,-9.15,-1.414,-3.273,-9.426,-0.744,-3.092,6.58,-3.36,1.82
,-9.22,-1.297,-3.281,-9.655,-0.94,-2.972,6.93,-3.36,1.75
,-9.282,-1.086,-3.235,-9.514,-1.285,-2.702,6.23,-3.08,1.82
,-9.201,-1.12,-3.206,-9.206,-1.584,-2.575,4.83,-2.87,1.68
1520.0,-9.081,-1.153,-2.721,-9.387,-1.371,-3.044,2.94,-2.94,0.98
,-9.402,-1.015,-2.575,-9.347,-1.642,-3.032,1.96,-2.03,0.63
,-9.576,-1.261,-2.673,-9.064,-1.687,-3.185,0.21,-1.96,0.49
,-9.371,-1.295,-2.893,-9.383,-0.883,-3.046,0.56,-2.1,1.05
1596.0,-9.414,-1.177,-2.898,-9.397,-1.424,-2.467,0.07,-0.63,1.19
,-9.481,-1.283,-2.761,-9.311,-1.345,-2.91,-0.49,-0.35,1.12
,-9.462,-1.374,-2.548,-9.313,-1.161,-3.3,-0.42,-0.56,1.05
,-9.421,-1.455,-2.242,-9.282,-1.196,-3.472,0.14,-0.56,1.26
1672.0,-9.208,-1.295,-3.64,-9.462,-1.194,-4.068,0.35,-2.17,3.08
,-9.335,-1.362,-3.644,-9.328,-1.158,-3.908,-1.19,-1.33,3.01
,-9.584,-1.362,-3.711,-9.244,-1.132,-3.652,-1.96,-0.91,2.8
,-9.651,-1.225,-3.884,-9.196,-1.182,-3.376,-2.59,-1.82,2.45
1748.0,-9.229,-1.163,-3.309,-9.354,-1.027,-2.929,-9.87,-4.9,3.43
,-9.373,-1.072,-3.214,-9.636,-1.039,-2.788,-10.85,-4.9,3.78
,-9.476,-1.048,-3.125,-9.653,-0.852,-2.728,-12.39,-5.67,4.55
,-9.349,-1.106,-3.041,-9.651,-0.852,-2.67,-13.58,-6.23,5.53
1824.0,-9.586,-0.512,-2.733,-9.6,-0.737,-2.673,-19.81,-4.83,6.58
,-9.698,-0.22,-2.654,-9.454,-0.96,-2.666,-23.94,-4.55,7.28
,-9.603,0.002,-2.704,-9.349,-1.11,-2.685,-31.08,-4.62,8.82
,-9.615,-0.369,-2.563,-9.368,-1.56,-2.479,-37.52,-4.27,9.38
1900.0,-9.313,-1.4,-2.422,-9.246,-0.727,-1.989,-30.1,-2.94,5.32
,-9.174,-1.304,-2.254,-9.452,-0.885,-2.357,-24.64,-2.1,4.48
,-9.227,-1.046,-2.194,-9.306,-1.007,-2.338,-20.65,-1.26,3.22
,-9.196,-0.79,-2.103,-9.072,-1.137,-2.577,-17.92,-0.42,1.96
1976.0,-8.957,-1.366,-2.398,-9.067,-1.335,-2.455,-6.02,2.1,1.26
,-9.028,-1.424,-2.271,-8.849,-1.543,-2.094,-1.61,3.36,1.82
,-9.311,-1.307,-2.113,-8.842,-1.469,-1.766,2.59,4.13,1.82
,-9.359,-1.07,-2.46,-9.165,-1.505,-1.354,5.18,3.57,1.75
2052.0,-10.129,-0.826,-1.134,-8.957,-1.053,-3.884,13.02,12.81,4.27
,-10.639,0.026,-2.522,-8.646,-1.223,-3.506,11.9,8.75,3.85
,-10.191,0.129,-3.13,-8.89,-1.182,-2.814,6.79,3.08,3.64
,-9.648,-0.481,-3.683,-9.476,-0.905,-2.816,1.61,0.0,3.5
2128.0,-9.258,-0.893,-2.099,-9.67,-0.933,-3.082,1.47,11.2,7.07
,-9.488,-0.799,-1.601,-9.158,-0.555,-3.893,0.42,12.6,7.28
,-9.643,-0.981,-1.955,-8.997,0.275,-4.264,1.26,11.34,7.77
,-9.454,-1.189,-2.082,-8.971,0.67,-4.233,5.11,10.36,7.77
2204.0,-9.485,0.574,-3.874,-9.22,-0.964,-3.463,9.59,8.68,5.81
,-9.698,0.486,-3.831,-9.155,-1.05,-3.422,4.13,7.98,4.9
,-9.892,0.38,-3.355,-9.32,-0.938,-3.47,-1.68,7.28,3.71
,-9.861,-0.385,-3.719,-9.45,-1.007,-3.154,-6.86,4.13,2.66
2280.0,-9.344,-0.916,-3.419,-9.49,-0.603,-3.491,-5.11,-0.21,0.56
,-9.17,-1.022,-3.501,-9.734,-1.017,-3.501,-3.92,-3.36,-0.77
,-9.074,-0.665,-3.269,-9.356,-1.34,-3.309,-3.57,-3.29,-2.1
,-9.483,-0.531,-3.678,-9.179,-1.63,-2.857,-4.41,-2.24,-2.31
2356.0,-9.483,-1.283,-2.63,-9.196,-0.246,-2.881,-2.66,-1.61,2.03
,-9.639,-0.677,-2.814,-9.277,-0.053,-3.132,0.84,-2.38,2.1
,-9.634,-0.608,-2.668,-9.354,0.029,-3.345,2.03,-3.85,1.47
,-9.488,-0.287,-2.934,-9.45,0.11,-3.099,2.1,-5.39,1.12
2432.0,-9.686,0.242,-3.3,-9.579,-0.493,-3.058,4.2,-3.22,-0.35
,-9.483,0.335,-2.965,-9.253,-0.342,-3.211,2.52,-2.52,0.28
,-9.679,0.282,-2.752,-8.93,-0.62,-3.017,-0.14,-1.47,0.0
,-9.639,-0.278,-2.814,-8.971,-0.713,-2.654,-2.52,-2.59,-0.98
2508.0,-9.344,-0.823,-2.295,-9.024,-0.761,-2.694,-2.94,-1.96,-4.97
,-9.713,-1.307,-2.075,-9.222,-0.811,-2.426,-2.31,-1.4,-5.04
,-9.677,-1.4,-2.245,-9.433,-0.629,-2.453,-0.07,-1.96,-4.55
,-9.409,-1.067,-2.694,-9.505,-0.763,-2.163,3.64,-3.22,-3.22
2584.0,-9.526,-0.366,-2.702,-9.397,-0.591,-3.025,7.56,-2.1,-2.45
,-9.06,-0.136,-2.879,-9.641,-0.823,-2.915,7.14,-3.08,-2.31
,-9.007,0.067,-3.053,-9.612,-1.173,-2.599,6.37,-2.87,-2.38
,-9.072,-0.254,-3.087,-9.139,-1.144,-2.369,5.81,-2.38,-2.73
2660.0,-9.194,-0.895,-2.525,-9.519,-1.266,-3.175,7.7,-1.26,-3.57
,-9.392,-0.787,-2.498,-9.373,-1.761,-3.154,7.91,-1.33,-3.15
,-9.596,-0.469,-2.809,-9.119,-2.056,-3.19,5.88,-1.19,-3.08
,-9.624,-0.754,-3.027,-9.196,-1.938,-3.283,3.92,-1.33,-3.08
2736.0,-9.569,-1.986,-3.204,-9.591,-1.015,-3.264,13.72,-1.54,4.48
,-9.691,-1.878,-3.12,-9.275,-1.196,-3.18,15.05,-2.52,5.88
,-9.636,-1.67,-3.154,-9.629,-1.039,-3.053,15.26,-3.08,7.35
,-9.742,-1.371,-3.034,-9.832,-0.797,-3.463,13.23,-4.48,8.54
2812.0,-9.964,-0.254,-3.774,-9.328,0.342,-3.13,12.32,-8.19,7.28
,-9.765,-0.041,-3.711,-9.591,0.471,-3.23,11.97,-9.73,7.28
,-9.289,0.17,-3.575,-9.742,0.395,-2.912,10.78,-9.87,6.65
,-9.261,0.297,-3.293,-10.311,1.005,-2.934,10.01,-8.75,5.88
2888.0,-9.746,0.115,-3.118,-9.474,-1.07,-3.111,2.17,-9.52,0.77
,-9.84,-0.397,-3.015,-9.82,-0.9,-2.891,1.47,-9.24,0.42
,-9.742,-0.627,-3.13,-9.067,-1.06,-2.845,2.03,-9.59,0.77
,-9.596,-0.888,-3.139,-8.282,-1.579,-2.443,3.08,-9.73,0.49
2964.0,-10.086,-2.563,-0.988,-9.899,-2.288,-1.776,-10.71,-6.09,6.86
,-10.065,-2.881,-1.201,-9.045,-1.811,-2.084,-7.49,-7.56,6.09
,-9.292,-3.008,-1.474,-9.368,-1.067,-2.379,-0.77,-9.03,5.6
,-9.189,-2.749,-1.823,-9.122,-0.876,-2.41,4.62,-7.84,7.14
3040.0,-9.328,-0.828,-2.288,-10.821,0.278,-0.871,6.86,-5.39,9.66
,-9.696,-0.715,-2.082,-9.1,-0.077,-1.452,6.44,-4.06,9.59
,-9.574,-0.421,-1.79,-9.952,0.065,-1.735,8.75,-2.87,10.29
,-5.556,-2.606,-2.919,-10.136,0.172,-1.694,10.57,-0.63,13.86
3116.0,-9.646,0.285,-2.094,-9.361,0.5,-2.19,13.93,-2.52,4.9
,-9.584,0.34,-2.01,-9.794,0.242,-2.388,12.67,-2.94,4.62
,-9.409,0.512,-2.096,-9.418,-0.445,-2.4,10.57,-2.73,4.41
,-9.251,0.687,-2.371,-9.502,-0.893,-2.242,10.01,-2.03,2.94
3192.0,-9.966,-0.811,-2.469,-9.366,-0.077,-2.759,9.87,1.54,1.75
,-9.787,-0.462,-2.611,-9.665,-0.333,-2.862,11.55,0.63,1.96
,-9.541,-0.206,-2.584,-9.684,-0.852,-2.802,12.81,0.21,1.54
,-9.447,-0.191,-2.419,-10.045,-0.995,-2.527,11.97,1.12,1.19
3268.0,-9.909,-1.199,-1.555,-9.94,-0.991,-3.025,6.02,3.78,-1.05
,-9.782,-3.242,-4.829,-9.868,-1.323,-2.752,3.99,-4.34,-1.05
,-8.43,-1.328,-2.649,-9.94,-1.383,-2.632,12.53,0.77,-2.87
,-10.297,-0.859,-2.855,-9.679,-1.335,-2.548,14.91,5.67,-0.42
3344.0,-9.746,-1.194,-2.678,-9.399,-0.29,-3.082,9.73,3.43,2.03
,-9.756,-1.309,-2.673,-9.691,-0.474,-2.998,9.38,3.71,1.61
,-9.825,-1.07,-2.709,-9.95,-0.629,-2.726,9.1,4.34,0.84
,-9.399,-0.565,-3.056,-10.005,-0.723,-2.393,9.03,3.57,1.26
3420.0,-9.753,-0.768,-2.359,-9.586,-0.235,-2.522,7.56,5.74,0.56
,-9.371,-0.732,-2.486,-9.6,-0.165,-2.462,7.21,5.95,0.84
,-9.179,-0.457,-2.575,-9.56,-0.127,-2.371,6.58,6.65,0.63
,-9.351,-0.239,-2.606,-9.569,-0.17,-2.326,5.74,8.05,0.07
3496.0,-9.691,-0.254,-2.326,-9.275,-1.192,-2.347,3.78,12.53,-1.82
,-9.775,-0.503,-2.331,-9.186,-0.861,-2.529,3.36,13.65,-1.61
,-9.72,-0.924,-2.324,-9.318,-0.419,-2.807,2.38,14.42,-1.19
,-9.469,-1.182,-2.3,-9.557,-0.062,-3.053,2.52,15.33,-1.05
3572.0,-9.636,0.249,-3.156,-9.734,-0.333,-3.362,4.83,21.28,-1.82
,-9.751,0.036,-3.032,-9.512,-0.464,-3.465,3.15,22.05,-2.38
,-9.725,-0.156,-3.089,-9.435,-0.436,-3.527,2.45,22.75,-2.8
,-9.861,-0.108,-3.242,-9.423,-0.278,-3.549,3.01,23.66,-2.94
3648.0,-9.521,-0.266,-3.587,-9.239,-0.866,-3.427,3.57,24.92,-2.24
,-9.464,-0.55,-3.532,-9.249,-0.885,-3.417,3.36,25.62,-2.59
,-9.488,-0.491,-3.534,-9.531,-1.043,-3.424,4.34,26.04,-2.59
,-9.304,-0.66,-3.35,-9.574,-1.275,-3.436,4.34,26.6,-2.38
3724.0,-9.385,-1.438,-3.422,-9.438,-1.153,-3.022,11.62,28.21,0.77
,-9.273,-1.479,-3.518,-9.335,-1.208,-3.613,13.3,28.0,2.1
,-9.328,-1.352,-3.678,-9.234,-1.022,-3.652,14.84,28.07,3.01
,-9.402,-1.409,-3.599,-9.203,-1.17,-3.482,15.82,28.21,3.64
3800.0,-9.447,-1.261,-3.577,-9.5,-0.371,-3.951,13.3,27.09,1.19
,-9.32,-1.003,-3.556,-9.349,-0.203,-3.967,14.35,26.39,0.7
,-9.421,-0.821,-3.577,-9.081,-0.34,-3.802,15.19,26.18,0.56
,-9.459,-0.663,-3.723,-8.947,-0.799,-3.532,16.38,25.55,0.42
3876.0,-9.122,-0.634,-3.561,-9.06,-0.565,-3.936,13.58,21.98,-2.94
,-9.253,-0.421,-4.343,-8.799,-0.749,-3.987,12.32,21.14,-2.45
,-9.531,-0.651,-3.479,-8.827,-1.053,-4.037,10.36,20.79,-2.87
,-9.375,-0.713,-3.781,-9.083,-0.995,-4.197,11.62,18.27,-2.66
3952.0,-9.155,-0.715,-4.405,-9.081,-1.338,-4.156,13.79,14.77,-4.34
,-9.28,-0.507,-4.159,-8.995,-1.515,-4.324,12.81,13.65,-4.62
,-8.981,-0.503,-4.341,-9.119,-1.445,-4.357,10.99,13.23,-5.39
,-9.093,-0.926,-4.264,-8.993,-1.347,-4.52,9.66,13.23,-4.76
4028.0,-8.739,-0.967,-4.625,-8.928,-1.211,-4.458,14.49,8.68,-0.35
,-8.626,-1.007,-4.743,-9.208,-0.211,-2.934,12.46,8.12,-0.63
,-9.189,-0.019,-5.449,-9.112,-1.271,-5.085,10.99,9.31,-1.75
,-8.861,-1.237,-4.903,-9.117,-0.969,-4.817,9.31,7.49,-1.54
4104.0,-8.703,-1.101,-4.807,-9.057,-1.371,-4.398,5.46,0.91,-2.03
,-8.552,-1.529,-4.673,-9.057,-0.981,-4.427,3.15,0.91,-1.61
,-8.686,-1.536,-4.75,-9.002,-0.761,-4.405,3.85,1.75,-1.19
,-9.014,-1.452,-5.02,-8.768,-1.091,-4.401,1.47,0.21,-1.19
4180.0,-8.679,-1.347,-4.152,-9.186,-0.436,-4.073,1.75,-2.94,0.07
,-8.804,-1.091,-4.02,-8.978,-0.581,-4.044,1.12,-2.8,0.35
,-8.854,-1.467,-3.652,-8.753,-0.215,-3.805,-2.1,-4.27,1.68
,-8.964,-0.546,-4.066,-8.949,-0.282,-3.549,-2.73,-5.32,0.63
4256.0,-9.033,-1.106,-3.116,-9.014,-0.857,-3.427,-6.09,-8.33,-2.87
,-9.115,-1.196,-3.077,-8.988,-0.665,-3.451,-4.76,-8.19,-2.52
,-8.978,-1.022,-3.19,-9.174,-0.744,-3.309,-1.96,-8.89,-2.87
,-9.002,-1.07,-3.206,-9.019,-0.864,-3.029,-0.42,-9.24,-2.45
4332.0,-8.938,-1.232,-3.159,-8.926,-1.072,-3.898,-2.24,-8.4,-3.22
,-9.045,-1.283,-3.128,-9.014,-0.974,-3.915,-0.21,-7.56,-2.73
,-9.301,-1.321,-3.692,-9.284,-0.806,-3.75,1.26,-9.03,-2.24
,-8.988,-1.216,-3.618,-9.28,-0.806,-3.62,2.03,-10.29,-1.19
4408.0,-9.153,-0.759,-3.877,-9.129,-1.079,-4.702,2.8,-10.5,-0.77
,-8.825,-0.818,-4.085,-9.43,-1.122,-4.669,0.77,-12.04,-1.75
,-8.713,-1.039,-4.302,-9.349,-1.187,-4.061,-0.98,-12.18,-2.31
,-8.978,-1.134,-4.58,-9.292,-1.78,-3.606,-1.05,-11.62,-2.73
4484.0,-9.153,-2.168,-3.812,-9.229,-1.213,-3.774,-0.91,-14.07,-2.03
,-9.009,-2.302,-3.738,-9.368,-1.165,-3.814,3.01,-14.98,-0.77
,-9.012,-2.041,-3.891,-9.05,-1.096,-3.376,7.14,-14.84,0.35
,-9.112,-1.613,-3.879,-9.021,-1.158,-3.163,10.36,-14.84,1.05
4560.0,-9.146,-1.137,-2.783,-9.177,-0.194,-3.618,8.75,-15.68,-0.56
,-9.131,-0.864,-2.721,-9.392,-0.165,-3.429,9.94,-14.49,-0.07
,-9.131,-0.464,-3.254,-9.524,-0.902,-2.659,12.04,-14.28,-0.42
,-9.134,-0.443,-3.551,-9.507,-1.012,-2.711,10.99,-14.91,-1.19
4636.0,-9.378,-0.9,-3.092,-8.88,-0.737,-4.417,7.0,-14.56,-3.92
,-9.17,-0.668,-3.398,-8.983,-1.488,-3.795,7.56,-14.77,-3.78
,-9.263,-0.443,-4.625,-9.251,-1.96,-2.857,7.35,-15.05,-4.34
,-9.141,-0.328,-5.075,-9.471,-2.51,-1.764,4.48,-17.15,-4.9
4712.0,-9.5,-2.876,-1.251,-9.191,-0.782,-2.608,-1.19,-13.44,-5.32
,-9.332,-2.446,-0.742,-9.007,-0.936,-2.335,4.13,-12.32,-2.66
,-9.368,-2.12,-1.737,-8.988,-1.242,-1.926,9.45,-9.94,0.0
,-9.411,-1.338,-2.587,-9.351,-1.517,-1.869,13.09,-9.45,1.96
4788.0,-9.545,-1.412,-2.082,-9.337,-0.627,-1.259,3.29,-3.01,-0.49
,-9.564,-1.05,-2.326,-9.335,-0.948,-0.632,4.76,-3.78,-0.35
,-9.447,-0.474,-2.218,-9.541,-1.393,-0.036,4.2,-3.85,-0.42
,-9.459,-0.297,-1.709,-9.718,-1.618,-0.165,0.98,-3.29,-1.12
4864.0,-9.907,-1.575,-1.323,-9.184,-1.665,-3.317,-0.63,4.2,-1.33
,-9.622,-1.302,-1.943,-9.239,-2.039,-3.34,1.12,3.5,-0.56
,-9.213,-1.429,-2.623,-9.316,-1.989,-3.577,0.56,3.29,-0.56
,-9.119,-1.474,-3.168,-9.299,-1.572,-3.936,-0.7,3.92,-0.63
4940.0,-9.28,-1.218,-4.178,-9.196,-1.704,-3.843,2.59,2.38,-0.21
,-9.143,-1.003,-4.317,-9.38,-1.63,-3.439,0.98,1.26,0.28
,-9.083,-1.271,-4.269,-9.404,-1.295,-2.761,-1.68,0.98,0.14
,-9.091,-1.646,-4.054,-9.481,-1.12,-2.242,-2.73,0.91,-0.14
5016.0,-9.6,-1.429,-2.142,-9.387,-1.295,-2.548,-1.54,0.42,-0.14
,-9.536,-1.531,-2.113,-9.323,-1.307,-2.453,-0.14,0.56,0.35
,-9.45,-1.496,-2.35,-9.251,-1.304,-2.268,1.4,0.49,0.56
,-9.421,-1.424,-2.412,-9.363,-1.407,-2.268,3.29,0.7,0.98
5092.0,-9.387,-1.342,-2.328,-9.196,-0.672,-3.398,3.15,2.45,0.07
,-9.466,-1.39,-2.67,-9.256,-0.926,-3.314,3.57,2.52,0.14
,-9.454,-1.184,-3.087,-9.411,-1.23,-3.08,3.85,1.96,0.42
,-9.347,-0.967,-3.436,-9.445,-1.606,-2.819,2.87,1.4,0.49
5168.0,-9.38,-1.855,-2.723,-9.397,-1.457,-2.948,-7.07,1.75,-1.4
,-9.485,-1.907,-2.606,-9.363,-1.508,-2.972,-5.25,1.89,-1.05
,-9.488,-1.838,-2.848,-9.294,-1.244,-2.824,-3.22,1.75,-0.42
,-9.435,-1.591,-2.953,-9.139,-1.182,-2.613,-1.96,1.47,0.14
5244.0,-9.344,-1.362,-2.606,-9.301,-1.326,-2.522,-4.34,2.66,-0.49
,-9.507,-1.524,-2.637,-9.368,-1.283,-2.453,-3.43,2.94,-0.28
,-9.488,-1.529,-2.603,-9.368,-1.058,-2.245,-2.03,2.66,0.14
,-9.292,-1.488,-2.563,-9.311,-1.024,-2.056,-1.05,2.38,0.63
5320.0,-9.452,-1.039,-1.84,-9.117,-2.213,-2.929,-1.96,6.16,0.63
,-9.545,-0.84,-2.268,-8.882,-2.314,-2.972,-1.96,6.72,0.7
,-9.588,-0.802,-2.503,-9.098,-2.096,-3.092,-2.94,6.79,0.7
,-9.414,-1.383,-2.737,-9.378,-1.479,-3.348,-5.25,6.65,0.7
5396.0,-9.603,-0.845,-3.525,-9.177,-1.132,-2.814,10.01,10.78,3.22
,-9.627,-0.579,-3.68,-9.086,-1.725,-2.594,8.54,9.38,2.94
,-9.557,-0.526,-3.53,-9.115,-1.922,-2.479,5.18,8.05,2.66
,-9.373,-0.78,-3.453,-9.354,-1.948,-2.374,2.03,6.93,2.31
5472.0,-9.423,-1.436,-2.67,-9.191,-0.931,-2.63,7.77,10.43,5.11
,-9.296,-0.859,-2.577,-9.057,-1.39,-2.943,7.77,10.5,5.25
,-9.383,-0.847,-2.606,-8.914,-2.022,-2.857,5.11,11.34,4.34
,-9.323,-0.773,-2.994,-8.772,-2.546,-2.857,1.68,11.41,3.64
5548.0,-9.062,-2.175,-2.929,-8.918,-0.95,-3.357,7.56,19.04,7.21
,-9.643,-0.797,-3.089,-8.811,-1.323,-3.465,16.38,18.83,8.75
,-9.514,-0.369,-3.171,-8.935,-1.5,-3.565,16.38,16.73,9.45
,-9.337,-0.833,-2.924,-9.165,-1.266,-3.743,9.87,14.49,9.03
5624.0,-9.294,-0.794,-4.434,-9.28,-0.715,-3.453,4.34,18.76,6.37
,-9.141,-0.115,-4.645,-9.237,-1.177,-3.532,6.02,18.41,6.72
,-9.282,0.38,-4.128,-9.296,-1.438,-3.711,5.32,18.27,6.09
,-9.737,0.043,-3.704,-9.06,-1.728,-3.515,2.17,16.38,6.23
5700.0,-8.796,-2.132,-3.278,-9.438,-0.189,-4.767,-11.9,9.52,4.48
,-8.794,-1.91,-3.527,-8.923,-0.627,-4.681,-8.61,13.23,3.92
,-9.45,-1.354,-4.558,-8.782,-1.366,-4.025,-3.43,14.63,3.92
,-9.38,-1.019,-4.628,-9.208,-1.783,-4.176,0.98,13.16,5.11
5776.0,-9.043,-2.144,-4.037,-9.471,-0.019,-3.623,0.7,5.74,6.79
,-8.952,-1.565,-3.802,-9.452,-0.148,-3.463,2.1,6.93,6.44
,-9.028,-1.055,-3.872,-9.452,-0.215,-3.465,1.75,6.79,5.18
,-9.062,-0.622,-3.439,-9.383,-0.857,-3.317,0.7,7.63,3.92
5852.0,-8.837,-1.144,-2.862,-8.99,-1.302,-3.376,-5.6,4.83,3.85
,-8.875,-1.098,-2.867,-8.758,-1.57,-3.376,-2.73,6.72,4.76
,-8.983,-0.926,-3.24,-9.249,-1.374,-3.637,-0.35,7.35,5.46
,-9.103,-0.924,-3.242,-9.363,-1.285,-3.697,0.84,7.21,5.88
5928.0,-9.093,-0.835,-3.939,-9.502,-1.005,-4.692,7.35,5.88,5.32
,-8.799,-0.833,-4.164,-9.021,-0.902,-4.949,6.44,5.11,6.02
,-8.921,-0.591,-4.525,-8.409,-1.084,-4.64,5.32,6.16,5.95
,-9.347,-0.723,-4.774,-8.612,-0.878,-4.456,4.48,6.37,5.74
6004.0,-8.966,-0.641,-4.171,-9.095,0.27,-3.704,9.8,3.01,6.93
,-9.548,0.096,-4.121,-8.866,-0.404,-3.159,10.01,3.29,4.62
,-9.72,0.421,-4.161,-8.949,-0.957,-3.384,7.98,1.68,2.66
,-9.502,0.572,-3.886,-9.17,-1.151,-3.656,4.48,0.0,1.68
6080.0,-9.351,-0.529,-4.027,-9.332,-0.759,-3.496,9.66,-2.38,3.99
,-8.959,-0.364,-4.063,-9.476,-1.149,-3.424,10.92,-3.78,4.2
,-9.031,0.012,-4.085,-9.208,-1.802,-3.558,10.22,-3.43,3.36
,-9.036,-0.251,-3.97,-9.273,-2.297,-3.498,7.21,-3.5,2.52
6156.0,-9.115,-2.565,-3.338,-8.715,0.041,-4.188,7.28,-5.39,6.93
,-9.134,-2.199,-3.427,-8.445,0.127,-3.994,11.2,-5.18,8.61
,-9.091,-1.321,-3.831,-8.839,-0.086,-3.814,14.28,-5.46,9.31
,-9.103,-0.45,-4.061,-9.332,-0.5,-3.635,14.7,-6.3,9.45
6232.0,-9.72,-0.782,-3.427,-9.16,-0.613,-3.369,7.98,-5.46,6.37
,-9.45,-0.842,-3.333,-9.026,-1.103,-3.113,8.89,-6.58,8.4
,-9.292,-0.505,-3.594,-9.179,-1.472,-2.96,9.59,-8.05,9.87
,-9.086,-0.479,-3.659,-9.38,-1.718,-2.962,9.73,-9.31,10.36
6308.0,-9.074,-1.799,-3.467,-9.679,-0.555,-4.14,11.34,-10.15,16.03
,-9.105,-1.792,-2.855,-9.361,-0.251,-4.413,13.37,-9.59,16.38
,-9.177,-1.697,-3.429,-8.99,-0.067,-4.537,15.82,-7.84,15.47
,-9.631,-0.972,-3.769,-9.067,-0.201,-4.314,17.36,-7.84,14.14
6384.0,-9.323,-0.357,-4.357,-9.273,-0.17,-3.654,10.64,-8.68,7.49
,-9.27,-0.479,-4.101,-9.107,0.124,-3.57,10.29,-7.28,6.65
,-9.67,-0.581,-3.92,-9.292,0.163,-3.422,10.85,-6.93,6.58
,-9.507,-0.526,-3.731,-9.268,0.452,-3.439,11.62,-8.68,6.72
6460.0,-9.227,1.251,-3.731,-9.792,0.254,-2.883,6.23,-8.4,0.77
,-9.04,1.362,-3.726,-9.84,-0.132,-2.848,3.43,-8.4,-0.7
,-8.875,1.165,-3.463,-9.598,0.156,-3.072,0.98,-7.49,-3.08
,-9.179,0.694,-3.163,-9.22,0.275,-3.264,-0.98,-5.46,-5.46
6536.0,-9.127,0.443,-3.539,-9.785,-1.531,-3.135,1.96,-5.74,-7.21
,-9.086,0.433,-3.553,-9.631,-2.115,-3.233,0.49,-5.32,-7.7
,-9.184,0.01,-3.336,-9.619,-2.477,-3.245,-2.87,-4.13,-7.21
,-9.397,-1.072,-3.331,-9.792,-2.429,-3.25,-5.32,-2.73,-6.65
6612.0,-9.445,-2.479,-3.199,-9.277,-1.402,-3.51,6.02,-1.68,-2.45
,-9.294,-2.127,-3.281,-9.299,-1.675,-3.599,7.14,-1.33,-1.61
,-9.222,-1.941,-3.362,-9.581,-1.943,-3.477,6.93,-0.63,-0.84
,-9.261,-1.845,-3.367,-9.418,-1.957,-3.3,6.37,0.07,-0.7
6688.0,-9.445,-2.003,-3.252,-9.447,-0.677,-3.515,5.32,0.42,3.29
,-9.418,-1.9,-3.309,-9.746,-1.046,-5.126,6.37,-0.84,5.39
,-9.407,-1.718,-3.302,-8.363,-0.347,-3.821,7.0,-1.05,7.21
,-9.404,-1.199,-3.443,-9.976,-0.802,-2.979,7.56,-1.12,8.4
6764.0,-9.569,-0.905,-2.86,-9.323,-0.244,-3.319,4.34,-1.61,10.92
,-9.541,-0.885,-2.931,-9.586,0.127,-3.455,5.25,-1.75,12.04
,-9.485,-0.921,-2.979,-9.526,0.412,-3.285,6.3,-2.1,12.32
,-9.079,-0.708,-3.139,-9.335,0.455,-3.211,7.28,-2.59,12.46
6840.0,-9.196,0.505,-3.149,-9.579,-0.249,-2.8,4.34,-2.66,7.0
,-9.246,0.637,-3.338,-9.478,-0.057,-2.838,3.64,-2.24,5.74
,-9.387,0.407,-3.278,-9.265,-0.079,-2.876,2.73,-1.54,4.27
,-9.512,0.098,-3.037,-9.6,0.27,-3.041,2.24,-0.98,3.22
6916.0,-9.665,0.704,-3.218,-9.301,-0.727,-3.037,4.13,-0.07,-0.42
,-9.27,0.55,-3.175,-9.191,-1.156,-2.96,1.96,-0.14,-1.54
,-9.234,0.093,-3.089,-9.198,-1.67,-2.86,0.56,1.61,-2.24
,-9.363,-0.29,-3.068,-9.351,-1.821,-2.895,0.7,3.43,-2.66
6992.0,-9.43,-1.505,-3.084,-9.428,-1.866,-2.776,4.2,6.09,-0.56
,-9.512,-1.196,-3.417,-9.576,-1.771,-2.737,4.83,6.16,-0.42
,-9.631,-1.079,-3.539,-9.919,-1.235,-2.883,4.2,6.23,-0.49
,-9.505,-1.555,-3.178,-9.763,-0.732,-3.049,3.43,6.72,-0.42
7068.0,-9.33,-0.275,-3.29,-9.371,-0.507,-3.302,11.55,7.14,0.98
,-9.033,-0.034,-3.477,-9.452,-0.802,-3.259,9.87,7.63,1.19
,-9.076,-0.227,-3.467,-9.564,-0.957,-3.317,7.98,8.82,0.63
,-9.249,-0.302,-3.472,-9.531,-1.094,-3.264,7.35,10.08,-0.14
7144.0,-9.38,-1.067,-3.307,-9.433,-0.491,-3.384,8.61,10.71,0.63
,-9.325,-0.981,-3.331,-9.469,-0.311,-3.405,8.96,11.34,1.4
,-9.459,-0.838,-3.305,-9.474,-0.05,-3.661,8.96,12.39,1.54
,-9.493,-0.56,-3.35,-9.397,0.397,-3.888,8.96,12.81,1.54
7220.0,-9.198,0.373,-3.905,-9.117,0.081,-3.46,5.81,12.53,-1.54
,-9.17,0.45,-3.915,-9.194,0.079,-3.458,4.48,13.3,-2.45
,-9.182,0.39,-3.824,-9.332,0.292,-3.594,3.22,13.86,-3.22
,-9.155,0.172,-3.553,-9.442,0.309,-3.551,2.24,14.42,-4.2
7296.0,-9.433,0.414,-3.766,-9.196,-0.546,-3.381,2.59,13.79,-8.96
,-9.265,0.61,-3.8,-9.06,-0.804,-3.314,2.31,13.3,-10.57
,-9.119,0.273,-3.575,-9.119,-1.108,-3.278,0.84,14.21,-12.18
,-9.311,-0.297,-3.453,-9.246,-1.419,-3.35,-0.35,14.49,-13.23
7372.0,-9.39,-1.476,-3.539,-8.954,-1.412,-3.999,5.11,16.31,-14.07
,-9.265,-1.438,-3.831,-9.069,-1.412,-4.137,7.21,15.89,-13.93
,-9.249,-1.543,-3.92,-9.227,-1.421,-4.097,8.05,16.03,-14.42
,-8.978,-1.524,-3.915,-9.174,-1.522,-4.049,7.35,15.82,-14.21
7448.0,-9.131,-1.45,-4.087,-9.335,-1.689,-3.994,7.07,16.66,-12.6
,-9.012,-1.184,-4.283,-9.402,-1.563,-4.106,7.28,16.1,-11.62
,-9.012,-1.29,-4.149,-9.225,-1.687,-4.089,5.74,15.4,-11.2
,-9.088,-1.62,-4.049,-9.088,-1.926,-4.051,5.46,15.47,-11.27
7524.0,-8.99,-1.895,-3.845,-9.012,-0.797,-4.197,11.13,12.81,-8.33
,-8.681,-1.699,-3.644,-8.969,-0.675,-4.176,8.26,12.32,-6.37
,-8.715,-1.338,-3.769,-9.062,-0.749,-4.188,9.03,11.9,-7.0
,-8.954,-0.991,-3.934,-9.002,-1.098,-3.975,10.5,11.34,-7.56
7600.0,-8.906,-1.194,-3.893,-8.997,-1.263,-4.116,6.16,9.52,-8.26
,-8.859,-1.333,-3.941,-8.923,-1.182,-3.991,6.65,9.24,-7.42
,-8.892,-1.307,-3.987,-8.643,-1.354,-3.874,7.35,9.17,-7.0
,-9.024,-1.302,-4.013,-8.837,-1.381,-4.125,7.91,9.24,-6.72
7676.0,-8.813,-1.33,-4.377,-8.961,-1.998,-3.96,4.48,8.26,-6.16
,-8.935,-1.091,-4.547,-9.091,-1.78,-4.377,4.13,8.19,-6.58
,-8.945,-0.919,-4.647,-8.966,-1.551,-4.728,3.22,7.98,-7.21
,-8.933,-1.106,-4.207,-8.804,-1.668,-4.812,2.03,8.68,-8.12
7752.0,-8.655,-1.783,-4.75,-8.825,-2.106,-4.862,-2.38,4.48,-5.53
,-8.536,-1.933,-4.74,-8.007,-1.721,-5.676,-3.36,3.92,-5.53
,-8.739,-2.12,-4.8,-8.667,-2.123,-4.59,-4.2,3.71,-5.32
,-8.789,-2.254,-4.85,-8.899,-1.713,-4.597,-3.85,3.29,-4.69
7828.0,-9.055,-1.685,-4.707,-8.356,-2.601,-3.223,-0.35,3.57,-2.17
,-9.347,-1.551,-4.752,-8.375,-1.732,-4.322,-0.35,1.61,-2.17
,-9.036,-1.259,-4.872,-8.739,-1.433,-4.748,-0.91,-0.84,-1.4
,-8.595,-1.249,-4.884,-8.66,-1.395,-4.611,-2.45,-2.03,-0.84
7904.0,-8.859,-0.95,-4.463,-8.957,-1.12,-4.056,-2.24,-4.48,-2.73
,-8.78,-1.132,-3.946,-9.127,-1.206,-3.891,-4.97,-4.62,-2.87
,-8.823,-1.421,-3.841,-9.143,-1.055,-3.733,-7.0,-4.41,-3.43
,-8.808,-1.352,-3.862,-8.995,-0.986,-3.855,-6.23,-4.34,-3.36
7980.0,-8.964,-1.077,-3.85,-8.768,-1.431,-3.824,-6.23,-8.47,-2.66
,-8.997,-1.371,-3.764,-8.741,-1.199,-3.817,-6.37,-9.17,-2.38
,-9.033,-1.347,-3.561,-8.674,-1.261,-3.92,-5.88,-10.15,-1.89
,-8.916,-1.519,-3.709,-8.622,-1.328,-3.417,-5.18,-10.92,-1.4
8056.0,-8.945,-1.567,-3.771,-9.34,-1.895,-3.489,-6.3,-10.15,-2.45
,-8.792,-2.111,-3.996,-9.036,-1.797,-3.434,-5.39,-11.48,-2.1
,-8.638,-2.091,-4.092,-8.868,-1.563,-3.128,-2.59,-11.9,-0.98
,-8.957,-2.438,-4.066,-8.928,-1.835,-3.659,-0.14,-10.64,-0.07
8132.0,-8.863,-1.804,-3.295,-8.904,-1.512,-4.243,2.87,-10.85,0.35
,-9.007,-1.642,-3.594,-8.923,-1.249,-4.03,3.01,-10.71,0.63
,-8.873,-1.586,-3.869,-9.076,-1.055,-4.092,3.29,-11.06,0.77
,-8.885,-1.639,-3.884,-9.294,-1.151,-3.673,4.55,-10.64,0.56
8208.0,-9.261,-1.153,-3.348,-8.861,-1.271,-3.833,7.28,-10.71,-1.26
,-9.17,-1.23,-3.199,-9.043,-1.211,-3.977,6.86,-10.64,-1.75
,-9.201,-1.299,-3.58,-9.081,-1.534,-3.762,7.07,-11.13,-2.03
,-8.997,-1.397,-3.776,-9.127,-1.706,-3.52,6.93,-11.9,-1.89
8284.0,-9.04,-1.642,-3.714,-9.203,-1.737,-3.431,3.64,-11.13,-2.94
,-9.05,-1.472,-3.527,-9.091,-1.912,-3.331,3.01,-11.06,-2.8
,-9.095,-1.582,-3.486,-9.1,-1.888,-3.336,1.75,-11.06,-2.66
,-9.198,-1.608,-3.348,-9.031,-1.436,-3.508,0.91,-10.99,-2.59
8360.0,-9.062,-1.323,-3.872,-9.124,-2.161,-2.563,-0.42,-9.87,-1.89
,-9.153,-1.455,-3.798,-9.122,-2.087,-2.541,-3.71,-10.29,-2.52
,-9.194,-1.692,-3.381,-9.179,-1.737,-2.417,-6.72,-10.29,-3.08
,-9.105,-1.991,-2.845,-9.234,-1.493,-2.424,-7.84,-9.8,-2.94
8436.0,-9.217,-1.321,-2.513,-9.299,-1.646,-2.704,1.12,-6.02,-0.7
,-9.246,-1.278,-2.58,-9.201,-1.441,-3.046,0.0,-5.39,-0.91
,-8.938,-1.91,-1.888,-9.191,-1.314,-3.632,-5.11,-4.48,-1.12
,-9.222,-1.73,-2.158,-9.093,-1.287,-3.408,-4.83,-3.57,-0.91
8512.0,-9.055,-1.505,-3.096,-9.38,-1.926,-2.213,-8.33,-2.8,-2.24
,-9.048,-1.785,-2.584,-9.287,-1.878,-2.489,-10.15,-1.68,-2.59
,-9.213,-1.957,-2.355,-9.246,-1.807,-2.883,-9.73,-0.49,-2.38
,-9.378,-1.991,-2.206,-9.124,-1.642,-3.221,-8.12,0.28,-2.03
8588.0,-8.99,-1.661,-3.333,-9.354,-1.603,-3.041,-3.29,2.66,0.14
,-8.966,-1.622,-3.431,-9.316,-1.524,-3.29,-3.22,3.22,0.0
,-9.115,-1.598,-3.07,-9.244,-1.421,-3.195,-2.73,3.71,-0.21
,-9.234,-1.63,-2.948,-9.153,-1.464,-2.821,-1.89,3.99,-0.21
8664.0,-9.107,-1.651,-2.606,-9.452,-1.352,-3.101,-2.8,4.06,0.14
,-9.22,-1.768,-2.635,-9.28,-1.493,-3.501,-3.08,5.11,-0.21
,-9.306,-1.716,-2.766,-9.064,-1.615,-3.62,-2.38,5.46,-0.35
,-9.505,-1.479,-2.824,-9.009,-1.756,-3.927,-2.03,5.25,-0.21
8740.0,-8.99,-1.835,-4.185,-9.127,-1.362,-4.123,-2.87,4.13,0.07
,-9.002,-1.656,-4.314,-9.06,-1.548,-3.798,-1.33,3.85,0.0
,-9.088,-1.479,-4.322,-9.122,-1.687,-3.494,-0.91,3.57,0.0
,-9.167,-1.316,-4.305,-9.296,-1.84,-3.24,-1.12,3.08,-0.14
8816.0,-9.232,-1.776,-2.965,-9.182,-1.651,-3.206,-0.7,1.96,0.07
,-9.217,-1.783,-2.857,-9.127,-1.615,-3.369,0.63,2.17,0.21
,-9.253,-1.768,-2.745,-9.179,-1.594,-3.393,1.89,2.52,0.7
,-9.256,-1.646,-2.941,-9.072,-1.601,-3.477,3.15,2.8,0.98
8892.0,-9.093,-1.618,-3.379,-9.399,-1.438,-3.372,4.48,3.78,1.68
,-9.174,-1.591,-3.106,-9.225,-1.45,-3.494,4.62,3.92,1.54
,-9.237,-1.584,-3.051,-9.158,-1.572,-3.525,4.9,4.48,1.54
,-9.423,-1.496,-3.183,-9.141,-1.728,-3.611,4.97,4.55,1.75
8968.0,-9.021,-1.649,-3.647,-9.143,-1.668,-3.649,1.75,3.64,1.54
,-9.048,-1.721,-3.769,-9.141,-1.582,-3.52,1.75,3.5,1.4
,-9.062,-1.67,-3.738,-9.167,-1.591,-3.477,1.96,3.29,1.33
,-9.146,-1.663,-3.764,-9.253,-1.519,-3.482,2.03,3.08,1.47
9044.0,-9.241,-1.469,-3.553,-9.033,-1.467,-3.635,2.87,2.52,1.4
,-9.263,-1.436,-3.752,-9.076,-1.663,-3.458,2.66,2.24,1.4
,-9.222,-1.287,-3.848,-9.232,-1.804,-3.226,2.17,1.4,1.12
,-9.026,-1.347,-3.855,-9.359,-1.811,-3.051,0.84,1.12,0.77
9120.0,-9.428,-1.548,-3.008,-8.921,-1.615,-3.546,3.01,0.77,0.42
,-9.354,-1.496,-3.075,-9.024,-1.754,-3.491,4.06,0.63,0.7
,-9.112,-1.342,-3.266,-9.158,-1.778,-3.58,3.71,0.49,0.7
,-8.94,-1.378,-3.496,-9.143,-1.771,-3.525,2.52,0.84,0.63
9196.0,-9.083,-1.661,-3.594,-9.098,-1.543,-3.757,5.18,1.54,0.91
,-9.079,-1.584,-3.649,-9.153,-1.484,-3.609,6.16,1.68,1.4
,-9.095,-1.51,-3.709,-9.131,-1.464,-3.422,6.86,1.61,1.75
,-9.074,-1.519,-3.57,-9.124,-1.51,-3.257,7.0,1.68,2.1
9272.0,-9.136,-1.57,-3.128,-9.067,-1.584,-3.211,6.51,1.05,2.59
,-9.143,-1.764,-3.147,-9.162,-1.529,-3.269,6.23,1.12,2.52
,-9.014,-1.716,-3.061,-9.203,-1.553,-3.319,6.37,1.33,2.66
,-8.976,-1.601,-3.068,-9.182,-1.622,-3.218,6.37,2.1,2.66
9348.0,-9.258,-1.589,-3.338,-9.033,-1.496,-3.656,5.67,4.06,3.43
,-9.184,-1.622,-3.379,-9.057,-1.5,-3.436,6.16,3.85,3.99
,-9.11,-1.567,-3.573,-9.122,-1.555,-2.864,6.93,3.85,4.34
,-9.067,-1.646,-3.659,-9.16,-1.57,-2.254,7.49,3.57,4.34
9424.0,-9.361,-1.216,-2.565,-8.818,-1.575,-3.041,5.6,6.72,2.73
,-9.301,-1.108,-2.489,-8.94,-1.881,-2.711,4.48,6.72,2.73
,-9.162,-1.089,-2.962,-9.076,-2.28,-2.276,2.94,7.07,2.52
,-9.033,-1.263,-3.18,-9.105,-2.249,-2.623,1.19,7.0,2.31
9500.0,-9.105,-2.039,-2.434,-8.88,-1.948,-2.29,9.66,14.35,5.18
,-9.217,-1.732,-2.67,-8.928,-2.213,-2.328,11.55,15.75,5.95
,-9.21,-1.395,-2.879,-8.856,-2.29,-2.52,11.55,15.75,6.09
,-8.971,-1.4,-2.532,-8.981,-2.17,-3.707,9.45,16.38,5.88
9576.0,-8.875,-2.115,-4.513,-9.426,-0.558,-4.518,20.16,20.16,8.12
,-8.837,-1.452,-4.731,-9.533,-0.065,-5.047,22.61,18.9,7.91
,-8.689,-0.998,-4.439,-9.22,-0.084,-4.86,21.56,19.39,7.14
,-9.186,-0.634,-4.312,-9.048,-1.177,-4.635,19.46,20.79,6.3
9652.0,-8.48,-2.058,-3.798,-9.356,-1.256,-5.561,-1.89,10.5,4.62
,-8.435,-2.132,-3.812,-8.696,-0.538,-5.504,0.07,13.02,5.18
,-9.048,-2.048,-4.051,-8.72,-0.103,-5.36,4.76,15.12,4.2
,-9.529,-1.642,-4.609,-8.942,-0.352,-5.037,9.45,14.63,4.13
9728.0,-9.122,-0.818,-4.752,-8.957,-1.194,-3.783,-6.44,6.02,2.17
,-9.17,-0.761,-4.721,-8.849,-1.603,-3.295,-7.21,4.06,0.84
,-8.806,-0.488,-4.716,-8.875,-1.613,-3.333,-6.79,1.54,-2.24
,-8.949,-0.692,-4.19,-8.923,-1.436,-3.671,-9.94,2.59,-3.57
9804.0,-8.969,-1.4,-3.939,-8.842,-2.673,-3.836,-13.16,5.18,-0.28
,-8.947,-1.649,-4.128,-8.863,-2.728,-3.841,-12.18,4.34,0.56
,-8.938,-1.653,-3.975,-9.016,-2.503,-3.845,-9.45,3.57,1.12
,-9.016,-1.991,-3.927,-8.849,-1.713,-3.597,-7.56,3.15,2.1
9880.0,-8.902,-0.613,-3.716,-8.76,-1.747,-4.614,5.32,4.69,6.02
,-8.851,-0.835,-4.118,-8.813,-2.242,-4.324,-0.14,4.13,5.25
,-8.784,-0.991,-4.633,-9.05,-2.242,-4.006,-3.64,3.08,4.83
,-8.715,-1.077,-4.587,-9.332,-1.761,-3.841,-4.27,2.24,5.25
9956.0,-9.289,-1.426,-3.982,-8.126,-1.0,-4.58,13.3,3.01,9.31
,-9.129,-1.141,-4.439,-8.296,-0.902,-4.822,10.29,1.68,7.91
,-8.866,-0.847,-4.468,-8.753,-0.447,-4.807,6.02,1.61,6.02
,-8.607,-0.806,-4.633,-9.328,0.218,-4.781,2.17,1.47,4.41
10032.0,-9.603,0.27,-4.168,-9.208,-1.493,-3.721,9.59,-0.07,0.07
,-9.136,0.012,-3.8,-9.361,-1.615,-3.697,7.42,-0.7,0.14
,-8.847,-0.402,-3.561,-8.899,-1.455,-4.039,3.92,0.07,0.07
,-9.069,-0.584,-3.747,-8.531,-1.247,-4.247,0.98,0.7,-0.21
10108.0,-8.66,-1.431,-4.3,-8.629,-1.536,-3.726,6.23,-0.98,3.15
,-8.808,-1.799,-4.365,-9.028,-1.235,-3.8,7.07,-1.33,2.73
,-8.782,-1.579,-4.188,-9.088,-0.981,-3.79,8.96,-1.75,1.82
,-8.413,-1.414,-3.879,-9.196,-0.759,-4.121,9.31,-1.47,1.4
10184.0,-9.244,-0.821,-4.384,-8.784,-1.598,-4.168,5.53,-0.7,1.61
,-9.048,-1.074,-4.405,-8.878,-1.876,-4.207,5.88,-1.75,1.89
,-8.897,-1.019,-4.424,-8.804,-2.06,-4.063,7.14,-2.31,2.52
,-8.784,-1.237,-4.298,-9.04,-2.079,-4.015,7.42,-2.66,3.36
10260.0,-8.813,-2.393,-4.008,-9.079,-1.749,-4.252,9.17,-3.64,6.72
,-8.794,-2.371,-4.061,-9.16,-1.452,-4.195,10.5,-3.22,7.98
,-9.026,-1.972,-4.204,-9.091,-1.323,-4.145,12.39,-3.99,9.03
,-8.909,-1.953,-4.176,-8.961,-0.948,-4.082,12.74,-4.83,10.5
10336.0,-9.143,-0.665,-4.302,-9.012,-1.259,-3.465,13.72,-8.47,13.23
,-9.158,-0.175,-4.305,-9.174,-1.493,-3.556,13.44,-9.38,10.57
,-8.878,-0.476,-3.924,-9.368,-1.448,-3.656,11.41,-10.29,9.24
,-8.681,-1.029,-3.527,-9.139,-1.316,-3.881,10.43,-9.31,9.03
10412.0,-9.024,-1.335,-3.987,-9.194,-0.639,-3.867,11.97,-7.49,9.87
,-8.717,-1.115,-3.96,-9.383,-0.725,-3.766,11.2,-8.05,8.82
,-8.579,-0.682,-3.903,-9.447,-1.139,-3.532,10.85,-7.35,6.93
,-8.959,-0.586,-3.965,-9.356,-1.433,-3.534,8.4,-5.46,5.46
10488.0,-9.385,-1.914,-3.329,-8.899,-1.709,-3.551,7.49,-4.83,3.29
,-9.141,-2.075,-3.338,-9.079,-1.57,-3.496,10.78,-5.25,4.13
,-8.966,-2.02,-3.333,-9.182,-1.438,-3.625,13.23,-5.39,5.46
,-8.83,-1.823,-3.388,-9.244,-0.902,-3.824,14.42,-4.9,6.65
10564.0,-9.014,-1.017,-3.939,-9.646,-1.275,-3.845,8.82,-3.01,11.48
,-9.368,-1.22,-3.927,-9.409,-0.749,-3.704,6.44,-2.1,12.39
,-9.43,-1.476,-3.97,-9.095,-0.266,-3.793,6.09,-1.96,12.95
,-9.72,-1.357,-3.86,-8.89,-0.055,-4.078,7.35,-1.89,13.23
10640.0,-8.971,-0.057,-4.128,-9.277,-0.651,-4.037,5.04,-3.5,7.63
,-8.926,-0.179,-4.087,-9.263,-0.512,-4.051,3.22,-2.45,6.86
,-9.17,-0.294,-4.101,-9.146,-0.455,-3.862,1.89,-1.96,6.51
,-9.201,-0.505,-3.958,-9.028,-0.57,-3.616,1.47,-1.75,6.3
10716.0,-9.258,-1.024,-3.427,-7.873,-0.9,-3.888,0.21,-1.61,5.04
,-9.56,-1.108,-3.367,-9.383,-0.861,-3.573,0.7,-1.47,4.34
,-9.466,-1.079,-3.405,-9.033,-1.012,-3.647,1.33,-2.31,4.13
,-12.486,-2.041,-3.582,-9.091,-0.957,-3.656,0.0,-1.26,7.21
10792.0,-9.043,-1.156,-3.597,-9.493,-0.512,-3.826,0.7,1.75,3.5
,-9.172,-1.168,-3.544,-9.497,-0.79,-3.699,1.47,2.45,3.64
,-9.474,-1.237,-3.587,-9.447,-1.074,-3.666,2.17,2.38,4.27
,-9.579,-1.22,-3.58,-8.981,-1.206,-3.501,3.43,1.47,4.9
10868.0,-8.873,-1.247,-3.518,-9.263,-0.105,-3.908,2.52,1.47,5.81
,-9.143,-0.866,-3.841,-9.119,-0.333,-3.802,3.64,2.03,5.74
,-9.464,-0.491,-3.936,-9.282,-0.538,-3.833,3.78,2.31,5.32
,-9.416,-0.184,-4.066,-9.512,-0.715,-3.733,2.66,1.54,4.9
10944.0,-9.354,-0.682,-3.687,-9.036,-0.969,-3.771,0.42,0.49,3.22
,-9.182,-0.749,-3.656,-9.045,-1.048,-3.668,0.49,0.63,3.29
,-9.323,-0.952,-3.738,-9.308,-1.027,-3.625,0.35,1.19,3.5
,-9.263,-0.962,-3.762,-9.366,-0.72,-3.58,0.49,0.91,3.22
11020.0,-9.435,-0.457,-3.623,-8.981,-0.988,-3.259,3.78,1.12,1.96
,-9.457,-0.467,-3.551,-9.141,-0.89,-3.398,2.94,1.05,1.26
,-9.258,-0.629,-3.496,-9.318,-0.637,-3.556,2.03,1.05,0.77
,-8.995,-0.933,-3.326,-9.385,-0.682,-3.687,1.61,1.68,0.35
11096.0,-9.421,-0.936,-3.719,-8.969,-0.565,-3.491,0.07,3.01,0.49
,-9.438,-1.127,-3.503,-9.22,-0.258,-3.664,0.84,2.8,0.07
,-9.122,-1.268,-3.329,-9.366,-0.474,-3.618,2.66,2.94,0.0
,-9.024,-1.027,-3.314,-9.433,-0.974,-3.503,4.97,3.64,0.14
11172.0,-9.251,-1.273,-3.477,-9.081,-1.208,-3.68,5.18,5.88,-2.38
,-9.119,-1.094,-3.594,-9.234,-1.517,-3.58,7.7,6.16,-2.59
,-9.275,-1.146,-3.692,-9.179,-1.687,-3.458,8.4,6.65,-2.87
,-9.162,-1.067,-3.829,-9.253,-1.534,-3.565,8.61,6.65,-2.94
11248.0,-9.435,-1.287,-3.898,-9.21,-1.321,-3.975,9.1,9.8,-1.47
,-9.574,-1.012,-4.063,-9.174,-1.015,-4.099,8.61,9.94,-1.26
,-9.55,-1.225,-4.058,-9.026,-0.505,-4.281,7.49,10.08,-1.68
,-9.521,-1.402,-3.903,-9.076,0.017,-4.417,7.07,9.66,-1.89
11324.0,-9.27,0.127,-4.398,-9.067,-0.153,-4.25,5.88,11.27,-4.48
,-9.227,0.194,-4.389,-8.921,-0.187,-4.197,3.29,11.41,-5.32
,-9.34,0.065,-4.362,-8.875,-0.378,-4.257,0.42,11.48,-6.02
,-9.184,0.005,-4.302,-9.076,-0.73,-4.192,-1.61,11.76,-6.72
11400.0,-9.119,-0.811,-4.319,-8.911,-1.33,-3.888,-5.25,13.37,-10.99
,-9.098,-1.053,-4.235,-8.894,-1.469,-3.972,-5.04,13.51,-10.36
,-9.237,-1.228,-3.999,-9.012,-1.426,-4.133,-4.13,13.93,-10.15
,-9.086,-1.285,-3.979,-8.973,-1.323,-4.022,-2.38,13.58,-10.43
11476.0,-8.935,-1.18,-4.097,-9.165,-1.074,-4.066,1.54,14.56,-11.13
,-8.938,-1.421,-4.145,-8.928,-0.773,-4.013,1.75,14.98,-11.06
,-9.021,-1.208,-4.214,-9.112,-0.503,-4.058,2.59,15.61,-11.83
,-9.1,-1.187,-4.113,-8.899,-0.519,-4.063,2.8,15.4,-12.53
11552.0,-8.897,-0.452,-3.963,-8.954,-1.24,-4.13,0.84,11.83,-13.65
,-9.196,-0.132,-3.733,-8.811,-1.472,-4.082,4.69,11.55,-16.1
,-9.136,-0.321,-4.716,-8.646,-1.711,-4.135,3.01,11.48,-14.56
,-9.103,-0.73,-4.317,-8.725,-1.804,-4.233,0.14,10.22,-13.86
11628.0,-8.696,-1.804,-4.133,-8.801,-1.718,-4.276,3.78,9.45,-9.87
,-8.911,-1.728,-4.046,-8.772,-1.902,-4.3,4.2,9.94,-9.73
,-8.983,-1.596,-4.02,-8.863,-1.993,-4.429,3.99,8.89,-9.03
,-8.66,-1.541,-4.221,-8.851,-1.977,-4.558,3.15,8.26,-8.05
11704.0,-8.674,-1.895,-4.59,-8.801,-1.728,-4.645,2.17,6.79,-4.9
,-8.641,-1.941,-4.537,-8.804,-1.345,-4.817,2.38,6.86,-4.48
,-8.622,-2.034,-4.46,-8.844,-1.125,-4.688,2.1,6.86,-3.57
,-8.792,-2.067,-4.441,-8.562,-1.955,-4.822,2.66,6.72,-2.66
11780.0,-8.66,-1.419,-5.066,-8.751,-1.072,-5.016,1.68,4.2,-1.33
,-8.686,-1.33,-5.092,-8.586,-0.921,-5.066,0.91,3.99,-1.26
,-8.902,-1.259,-4.999,-8.641,-0.991,-5.068,-0.84,3.71,-1.26
,-8.863,-1.206,-4.989,-8.729,-1.074,-4.884,-1.82,2.66,-1.54
11856.0,-8.705,-1.211,-4.949,-8.667,-1.261,-6.033,-7.56,0.14,-1.82
,-8.614,-1.29,-4.92,-8.471,-1.146,-5.657,-7.98,-0.7,-2.1
,-8.729,-1.259,-4.874,-8.727,-0.936,-5.506,-7.63,-1.61,-2.87
,-8.964,-0.325,-3.707,-8.763,-1.575,-5.205,-7.98,-3.43,-3.43
11932.0,-8.495,-1.586,-4.824,-8.753,-1.608,-4.331,-15.4,-6.44,-4.27
,-8.562,-1.675,-4.573,-8.701,-1.515,-4.216,-15.96,-5.53,-4.06
,-8.71,-1.883,-4.432,-8.622,-1.816,-4.212,-15.54,-5.39,-4.2
,-8.923,-1.646,-4.398,-8.672,-1.57,-4.173,-14.0,-6.44,-3.78
12008.0,-8.746,-1.314,-4.417,-8.696,-1.309,-3.917,-9.03,-9.87,-1.19
,-8.849,-1.328,-4.348,-8.815,-1.261,-3.659,-8.12,-10.92,-1.12
,-8.89,-0.94,-4.338,-8.916,-1.362,-3.606,-7.84,-12.39,-1.4
,-8.811,-1.031,-4.212,-8.918,-1.56,-3.553,-9.66,-13.58,-1.68
12084.0,-9.284,-1.445,-3.762,-8.732,-1.57,-4.568,-9.1,-12.25,-1.26
,-9.038,-1.481,-3.609,-8.595,-1.34,-4.489,-8.4,-13.44,-0.56
,-8.698,-1.517,-3.81,-8.772,-1.022,-4.465,-8.47,-14.7,-0.35
,-8.744,-1.661,-4.075,-8.926,-1.127,-4.403,-6.44,-15.47,0.07
12160.0,-8.921,-1.223,-3.982,-9.129,-1.182,-3.786,-0.84,-17.15,0.56
,-9.05,-1.106,-4.03,-8.866,-1.795,-3.62,-0.91,-17.64,0.28
,-8.959,-1.053,-3.764,-8.784,-1.933,-3.116,-1.54,-17.85,0.28
,-9.122,-0.893,-3.869,-9.115,-1.627,-3.355,-2.87,-16.94,0.35
12236.0,-9.232,-1.524,-3.561,-8.923,-0.749,-4.116,1.89,-14.56,1.96
,-9.179,-1.149,-3.381,-8.957,-0.763,-3.781,3.36,-14.7,2.66
,-9.239,-0.883,-3.836,-9.136,-0.845,-3.484,3.85,-15.61,2.31
,-9.122,-0.696,-4.099,-9.177,-1.216,-3.297,3.01,-16.73,1.54
12312.0,-9.335,-1.117,-3.084,-9.026,-2.18,-2.864,-7.28,-15.61,-3.71
,-9.416,-1.261,-3.888,-9.263,-2.111,-2.517,-7.28,-17.57,-4.13
,-9.115,-1.575,-3.501,-9.361,-1.785,-3.173,-8.68,-19.18,-3.71
,-8.818,-2.022,-3.017,-9.349,-0.479,-3.941,-9.59,-17.92,-2.87
12388.0,-9.313,-0.45,-4.219,-9.16,-1.484,-2.761,-0.14,-17.43,-2.52
,-9.136,-0.61,-4.355,-9.402,-1.472,-2.534,-5.32,-17.99,-3.43
,-8.875,-1.034,-3.795,-9.474,-1.527,-2.907,-9.45,-17.71,-4.34
,-8.765,-1.338,-2.936,-9.311,-1.644,-2.651,-10.99,-15.82,-5.11
12464.0,-9.237,-1.637,-2.024,-9.663,-0.919,-2.685,-5.04,-11.48,-1.82
,-9.356,-1.51,-1.579,-9.562,-0.957,-3.405,-3.99,-8.89,-1.33
,-9.536,-1.292,-1.417,-9.366,-0.983,-3.044,-2.31,-6.93,-0.91
,-9.641,-1.11,-1.826,-9.103,-1.18,-2.467,-0.98,-6.51,-0.91
12540.0,-8.954,-1.417,-1.953,-9.404,-1.333,-2.592,-7.28,-6.44,-1.4
,-9.234,-1.608,-1.902,-9.296,-1.297,-2.338,-5.88,-4.55,-1.26
,-9.564,-1.651,-2.331,-9.122,-1.342,-1.912,-3.29,-3.78,-0.84
,-9.541,-1.484,-2.572,-9.045,-1.618,-1.558,-1.82,-4.27,-0.07
12616.0,-9.289,-1.773,-1.371,-9.538,-0.842,-2.532,-0.49,2.59,-1.12
,-9.679,-1.759,-1.548,-9.282,-0.938,-2.781,2.87,4.27,-0.77
,-9.744,-1.304,-1.476,-9.083,-1.161,-3.015,5.39,4.62,-0.07
,-9.67,-0.948,-1.929,-9.194,-1.405,-3.278,6.23,4.41,0.56
12692.0,-9.409,-1.493,-3.86,-8.882,-1.429,-4.267,4.34,5.67,0.28
,-9.416,-1.328,-4.542,-8.981,-1.548,-3.96,6.16,4.27,0.84
,-9.15,-1.254,-4.647,-9.277,-1.675,-3.575,6.16,2.66,1.33
,-8.918,-1.307,-4.535,-9.488,-1.747,-3.233,5.25,2.31,1.19
12768.0,-9.407,-1.56,-3.005,-9.328,-1.199,-2.752,6.51,1.19,0.42
,-9.366,-1.433,-3.01,-9.33,-1.249,-2.46,5.81,0.84,0.56
,-9.311,-1.235,-2.972,-9.356,-1.445,-2.216,4.27,0.56,0.28
,-9.323,-1.251,-2.948,-9.49,-1.51,-2.254,2.45,0.91,-0.21
12844.0,-9.55,-1.424,-2.426,-9.172,-1.543,-3.233,2.94,2.59,0.14
,-9.438,-1.371,-2.747,-9.287,-1.644,-3.211,4.27,2.31,0.84
,-9.311,-1.383,-3.089,-9.316,-1.706,-3.216,4.83,2.03,1.12
,-9.191,-1.472,-3.214,-9.304,-1.551,-3.034,5.25,2.17,1.33
12920.0,-9.177,-1.51,-3.156,-9.17,-1.266,-3.561,9.73,2.94,1.89
,-9.332,-1.452,-3.319,-9.237,-1.28,-3.372,10.29,3.08,2.24
,-9.335,-1.467,-3.546,-9.385,-1.201,-3.221,10.64,2.94,2.38
,-9.239,-1.29,-3.601,-9.435,-1.07,-3.123,10.08,2.59,2.1
12996.0,-9.38,-1.144,-2.919,-9.253,-1.395,-2.996,1.75,1.89,0.07
,-9.378,-1.28,-3.001,-9.284,-1.393,-3.063,0.98,1.82,0.07
,-9.366,-1.328,-3.015,-9.349,-1.369,-3.108,0.56,1.68,0.07
,-9.335,-1.371,-3.063,-9.349,-1.395,-3.07,0.42,1.96,0.07
13072.0,-9.318,-1.397,-2.862,-9.234,-1.634,-2.891,1.05,2.1,0.0
,-9.359,-1.51,-2.814,-9.308,-1.441,-2.905,1.05,2.45,0.14
,-9.438,-1.716,-2.833,-9.416,-1.345,-2.886,2.03,2.31,0.42
,-9.296,-1.756,-2.819,-9.411,-1.283,-2.888,4.06,2.45,0.84
13148.0,-9.373,-1.254,-3.008,-9.081,-1.194,-3.235,6.86,3.29,1.61
,-9.347,-1.266,-3.151,-9.134,-1.362,-2.958,6.37,3.22,1.61
,-9.308,-1.28,-3.467,-9.284,-1.531,-2.919,5.74,2.73,1.47
,-9.203,-1.232,-3.372,-9.414,-1.481,-2.876,4.69,2.45,1.33
13224.0,-9.454,-1.378,-2.718,-9.323,-1.304,-2.764,2.38,4.2,0.0
,-9.399,-1.307,-2.723,-9.332,-1.431,-2.821,2.1,4.13,0.14
,-9.337,-1.302,-2.714,-9.294,-1.46,-2.838,1.89,4.2,0.14
,-9.304,-1.295,-2.615,-9.215,-1.484,-3.025,1.61,4.55,0.21
13300.0,-9.246,-1.419,-3.151,-9.306,-1.51,-2.359,3.29,5.53,0.77
,-9.227,-1.558,-3.08,-9.569,-1.359,-2.491,3.36,5.46,0.91
,-9.095,-1.663,-2.812,-9.6,-1.266,-2.857,3.85,6.16,0.98
,-9.162,-1.646,-2.496,-9.347,-1.213,-3.195,5.18,7.35,0.91
13376.0,-9.134,-1.445,-3.419,-9.356,-2.103,-3.848,8.12,6.37,3.78
,-9.024,-1.67,-3.479,-9.27,-1.646,-3.944,7.84,6.58,4.2
,-8.949,-1.977,-3.319,-9.069,-1.278,-4.233,8.4,7.56,4.55
,-9.115,-2.156,-3.352,-8.966,-1.041,-4.212,10.36,8.54,4.69
13452.0,-8.923,-1.077,-4.058,-9.428,-1.476,-3.408,4.55,4.34,2.94
,-8.995,-1.441,-3.843,-9.43,-1.182,-3.364,-0.42,4.83,1.54
,-9.107,-1.759,-3.563,-9.308,-0.897,-3.367,-2.38,5.32,0.98
,-9.313,-1.694,-3.637,-9.258,-0.95,-3.321,-1.26,5.11,1.12
13528.0,-9.196,-1.0,-3.139,-9.354,-1.402,-2.637,-2.17,3.29,1.75
,-9.072,-1.558,-2.879,-9.402,-0.881,-2.623,-3.99,3.92,1.68
,-9.036,-1.914,-2.446,-9.442,-0.586,-2.627,-3.36,5.18,2.03
,-9.287,-1.835,-2.723,-9.39,-0.634,-2.496,1.05,6.44,2.59
13604.0,-9.34,-0.689,-2.357,-9.519,-0.629,-3.74,1.82,9.8,2.38
,-9.49,-0.613,-2.417,-9.115,-0.814,-3.829,0.14,10.5,1.75
,-9.485,-0.692,-2.46,-8.739,-0.938,-3.472,-1.05,10.71,1.54
,-9.512,-0.555,-2.881,-8.863,-1.254,-3.154,-1.05,10.71,1.61
13680.0,-9.069,-1.675,-3.005,-9.162,-1.031,-1.814,-10.99,10.08,0.98
,-9.167,-1.677,-3.051,-9.438,-1.333,-1.874,-8.12,10.36,1.33
,-9.134,-1.417,-2.965,-9.519,-1.232,-2.745,-6.09,9.87,0.91
,-8.988,-1.079,-2.493,-9.385,-0.986,-4.958,-7.35,10.85,0.14
13756.0,-8.725,-0.998,-5.738,-8.801,-2.922,-3.075,-3.08,12.04,1.68
,-7.961,-0.787,-5.678,-9.483,-2.077,-2.893,-3.43,10.01,2.24
,-8.287,-1.622,-4.972,-9.828,-1.421,-2.371,-6.02,10.78,1.96
,-8.461,-2.97,-4.006,-9.852,-0.869,-2.462,-4.83,11.55,3.01
13832.0,-9.584,-0.988,-3.171,-8.509,-1.517,-4.231,3.01,15.75,0.21
,-8.882,-1.067,-3.556,-8.832,-1.575,-3.958,2.1,15.82,0.91
,-8.492,-1.357,-4.477,-8.99,-1.412,-3.032,3.01,15.47,2.73
,-8.253,-1.615,-4.736,-9.631,-1.043,-4.202,6.09,14.7,5.04
13908.0,-9.11,-0.919,-4.374,-9.519,-0.821,-4.03,15.82,13.09,5.32
,-8.868,-0.44,-4.42,-8.99,-1.374,-4.405,12.6,11.76,4.48
,-8.918,-0.593,-4.262,-8.346,-1.115,-4.223,6.72,12.88,2.66
,-9.091,-0.912,-3.673,-8.464,-0.955,-4.3,3.01,14.84,0.56
13984.0,-8.665,-1.287,-4.022,-8.66,-0.529,-4.621,8.12,13.65,0.49
,-9.301,-1.201,-4.015,-8.524,-1.153,-4.518,9.8,16.03,-1.26
,-9.543,-0.481,-4.204,-8.976,-1.677,-4.348,12.25,14.56,-1.96
,-8.997,-0.505,-4.491,-9.129,-1.785,-3.999,12.88,11.27,-0.49
14060.0,-9.107,-1.78,-3.857,-8.727,-1.503,-4.422,10.08,11.48,0.35
,-8.844,-1.68,-4.245,-8.78,-1.323,-4.245,12.18,9.1,1.26
,-8.624,-1.452,-4.434,-8.588,-1.347,-4.463,12.46,7.21,1.75
,-8.631,-1.369,-4.348,-8.531,-1.838,-4.183,10.01,7.84,1.4
14136.0,-8.885,-1.998,-4.247,-8.502,-0.354,-4.334,10.29,10.85,3.22
,-9.0,-2.075,-4.398,-8.39,-0.165,-4.295,12.88,9.52,3.85
,-9.174,-1.572,-4.523,-8.581,-0.598,-4.185,16.17,9.45,3.36
,-9.057,-0.873,-4.518,-8.949,-0.888,-4.013,18.2,9.31,2.59
14212.0,-9.22,-0.995,-4.092,-8.583,-1.95,-4.018,8.19,8.89,0.49
,-9.016,-1.452,-4.142,-8.806,-1.898,-4.183,8.96,7.35,0.77
,-8.638,-1.85,-4.034,-8.911,-1.419,-4.405,10.92,6.79,1.68
,-8.445,-1.977,-3.836,-8.708,-1.05,-4.468,13.65,7.07,2.94
14288.0,-8.772,-0.38,-4.676,-8.82,-1.031,-4.324,16.94,5.46,2.38
,-8.665,0.065,-4.905,-8.897,-1.462,-4.269,13.02,4.97,1.05
,-8.574,-0.211,-4.87,-8.904,-1.634,-4.563,7.49,4.13,-0.07
,-8.653,-0.61,-4.688,-9.019,-1.857,-4.853,3.78,3.64,-0.98
14364.0,-8.99,-2.029,-4.915,-8.583,-1.826,-5.209,11.55,-1.12,1.4
,-8.737,-1.912,-5.138,-8.801,-1.869,-5.164,12.6,-3.15,2.94
,-8.617,-1.828,-5.267,-9.268,-1.823,-4.877,12.53,-4.55,3.57
,-8.607,-1.742,-5.315,-8.909,-2.166,-4.822,12.04,-5.11,3.64
14440.0,-8.906,-2.326,-4.841,-8.559,-1.464,-4.685,7.49,-8.19,5.74
,-8.863,-2.12,-5.083,-8.748,-1.749,-4.243,9.38,-8.54,6.37
,-8.825,-1.752,-5.092,-8.976,-2.45,-4.011,11.34,-8.82,6.86
,-8.617,-1.649,-4.836,-8.976,-2.73,-3.848,12.81,-8.26,7.21
14516.0,-8.978,-2.804,-3.829,-8.825,-2.077,-4.152,12.95,-6.79,13.02
,-8.88,-2.247,-4.109,-8.684,-2.347,-3.999,15.19,-5.88,13.44
,-8.77,-1.816,-4.288,-9.002,-1.821,-4.147,14.98,-5.25,13.3
,-8.748,-1.893,-4.2,-8.947,-1.381,-4.223,12.6,-3.92,12.46
14592.0,-9.064,-0.928,-4.106,-9.019,-0.553,-4.2,12.04,-2.59,13.72
,-9.196,-0.581,-4.085,-8.823,-0.665,-4.221,11.13,-2.94,12.6
,-9.268,-0.536,-4.154,-8.686,-0.842,-4.386,9.87,-3.5,11.62
,-9.263,-0.62,-4.149,-8.76,-0.871,-4.439,9.1,-3.43,10.99
14668.0,-8.684,-0.517,-4.654,-9.067,-1.285,-3.912,8.26,-3.22,6.58
,-8.875,-0.486,-4.685,-8.938,-1.271,-3.752,6.93,-3.08,5.74
,-9.069,-0.933,-4.396,-9.136,-1.204,-3.75,5.32,-3.01,5.53
,-9.253,-1.072,-4.214,-9.005,-1.158,-3.917,5.18,-3.15,5.39
14744.0,-8.916,-1.295,-4.039,-10.797,-1.139,-3.604,3.22,-2.17,3.85
,-9.098,-1.524,-4.018,-7.923,0.177,-4.647,1.75,-1.75,4.06
,-8.959,-1.594,-3.97,-9.033,-0.146,-4.037,1.4,-1.54,4.27
,-8.93,-1.338,-3.881,-9.162,-0.964,-3.611,1.68,-1.4,4.55
14820.0,-9.16,-1.62,-3.273,-8.811,0.538,-4.46,-8.33,1.61,3.99
,-8.871,-2.108,-3.343,-9.021,0.924,-4.621,-6.23,1.82,3.99
,-8.842,-2.075,-3.412,-9.1,0.335,-4.786,-2.31,2.87,3.78
,-8.77,-1.089,-3.836,-9.237,-0.392,-4.448,2.52,3.64,3.29
14896.0,-9.127,-1.235,-3.929,-8.942,-2.383,-4.113,-7.91,6.65,-1.82
,-8.985,-2.024,-3.628,-9.105,-2.168,-4.439,-5.39,6.3,-0.49
,-8.94,-2.491,-3.597,-8.997,-2.302,-4.587,-2.38,6.3,1.19
,-9.273,-2.881,-3.609,-8.847,-2.008,-4.831,0.14,6.37,2.59
14972.0,-9.153,-1.907,-5.001,-8.792,-1.551,-3.9,2.1,4.13,8.82
,-9.325,-1.977,-4.807,-8.849,-1.321,-3.833,3.01,3.43,9.59
,-9.217,-1.972,-4.429,-9.11,-1.261,-3.96,4.48,2.45,9.45
,-8.866,-1.96,-4.063,-9.21,-1.041,-4.185,6.44,2.17,9.31
15048.0,-8.976,-0.263,-4.647,-9.098,0.127,-4.161,9.03,1.12,9.24
,-8.952,0.845,-4.848,-8.851,-0.517,-3.955,9.45,0.7,8.47
,-9.052,1.036,-4.645,-8.875,-0.916,-3.872,6.72,0.63,6.65
,-9.136,0.732,-4.427,-9.048,-1.11,-3.783,3.36,0.77,5.11
15124.0,-9.074,-1.137,-3.929,-9.196,-1.393,-4.25,1.12,1.33,2.1
,-9.038,-1.161,-4.073,-9.284,-1.33,-4.259,1.26,1.12,1.61
,-8.923,-1.412,-4.092,-9.232,-1.381,-4.176,1.19,1.82,1.26
,-9.021,-1.515,-4.209,-9.115,-1.575,-3.975,1.96,2.03,1.12
15200.0,-8.966,-1.211,-3.989,-9.253,-0.261,-4.46,5.74,1.33,0.7
,-8.71,-0.845,-4.032,-9.284,-0.632,-4.235,6.93,1.26,-0.07
,-8.708,-0.474,-4.178,-9.105,-0.684,-4.262,7.49,0.98,-0.7
,-8.909,-0.05,-4.489,-8.993,-0.708,-4.401,7.0,1.19,-1.19
15276.0,-8.94,-1.019,-4.365,-8.751,-1.898,-4.223,6.65,0.7,-4.76
,-9.016,-1.388,-4.405,-8.792,-2.307,-4.106,6.37,1.4,-5.32
,-9.172,-1.553,-4.465,-8.787,-2.419,-4.094,6.58,1.75,-5.53
,-8.904,-1.811,-4.288,-8.782,-2.077,-4.133,7.56,1.75,-5.53
15352.0,-8.993,-1.677,-4.156,-9.56,-0.78,-4.257,16.94,6.09,-4.55
,-9.201,-1.302,-4.212,-9.349,-0.715,-4.36,16.45,6.44,-3.99
,-9.22,-0.924,-4.171,-9.028,-0.754,-4.446,15.33,6.79,-3.36
,-9.469,-0.89,-4.113,-9.012,-0.706,-4.523,13.09,6.79,-3.08
15428.0,-8.945,-0.79,-4.561,-8.969,-1.608,-4.767,7.07,6.65,-4.83
,-8.93,-1.046,-4.554,-8.887,-1.546,-4.896,6.3,6.65,-5.46
,-8.959,-1.333,-4.549,-9.005,-1.572,-4.779,6.02,6.51,-6.09
,-9.005,-1.378,-4.704,-9.014,-1.378,-4.453,6.37,6.23,-6.65
15504.0,-8.763,-1.041,-4.228,-9.024,-0.869,-4.128,7.28,8.19,-8.96
,-8.581,-0.591,-4.14,-9.062,-1.216,-4.173,5.25,8.19,-9.24
,-8.528,-0.656,-4.125,-8.945,-1.713,-4.319,1.68,9.17,-9.59
,-8.885,-0.766,-4.078,-8.909,-1.814,-4.448,-1.75,10.5,-10.22
15580.0,-8.957,-2.113,-4.446,-8.641,-0.878,-4.245,1.54,11.48,-11.76
,-8.6,-2.3,-4.398,-8.784,-0.141,-4.377,5.11,12.04,-12.18
,-8.691,-2.24,-4.432,-9.033,-0.077,-4.563,8.33,13.16,-12.04
,-8.526,-1.986,-4.353,-8.849,-0.44,-4.369,11.06,13.65,-12.32
15656.0,-8.741,-0.584,-4.319,-9.318,-1.342,-4.96,-2.8,10.85,-16.03
,-8.787,-0.826,-4.271,-9.0,-2.166,-4.001,-6.02,11.13,-16.59
,-8.861,-0.948,-4.109,-8.804,-2.103,-4.331,-6.72,10.85,-16.66
,-9.057,-0.78,-4.391,-8.294,-2.245,-4.558,-5.88,9.66,-16.38
15732.0,-7.961,-2.307,-4.712,-8.758,-2.797,-4.568,-2.1,4.9,-13.72
,-8.248,-2.57,-4.625,-8.557,-2.898,-4.48,-1.75,6.3,-12.81
,-8.775,-2.486,-4.547,-8.342,-2.919,-4.346,-1.61,6.37,-12.46
,-8.921,-2.57,-4.508,-8.196,-3.094,-4.365,-2.52,5.32,-11.27
15808.0,-8.306,-3.123,-4.491,-8.655,-2.072,-4.865,-2.03,6.79,-3.43
,-8.619,-2.977,-4.726,-8.631,-1.922,-4.86,0.63,7.28,-2.24
,-8.815,-2.718,-4.865,-8.574,-1.721,-4.86,2.8,6.79,-1.33
,-8.792,-2.369,-4.87,-8.713,-1.508,-4.829,4.41,6.37,-0.63
15884.0,-8.686,-1.35,-5.047,-8.418,-2.321,-4.807,2.73,6.23,2.87
,-8.524,-1.283,-5.116,-8.445,-2.075,-4.893,0.7,5.39,2.87
,-8.461,-1.601,-4.958,-8.567,-1.804,-5.006,-1.33,4.55,2.52
,-8.605,-2.044,-4.704,-8.502,-1.579,-5.138,-8.12,4.2,2.73
15960.0,-8.504,-1.445,-5.269,-8.547,-1.553,-5.09,-1.26,1.33,1.19
,-8.83,-0.593,-4.515,-8.5,-1.649,-4.968,-2.52,0.42,0.91
,-8.478,-1.381,-5.343,-8.469,-1.792,-5.133,-4.13,0.21,1.05
,-8.55,-1.496,-5.126,-8.514,-1.713,-5.319,-6.02,-0.77,0.56
16036.0,-8.622,-1.23,-5.492,-8.435,-1.826,-4.401,-6.65,-4.55,-1.47
,-8.971,-1.161,-7.94,-8.531,-1.534,-4.52,-5.53,-6.72,-2.24
,-8.607,-0.302,-5.726,-8.631,-1.677,-4.714,-3.01,-7.0,-2.31
,-8.514,-1.043,-5.013,-8.655,-1.725,-4.645,-8.61,-7.14,-3.43
16112.0,-8.504,-1.622,-4.563,-8.705,-1.809,-3.616,-13.44,-10.5,-4.9
,-8.48,-1.721,-4.331,-8.854,-1.969,-3.467,-13.3,-10.29,-4.62
,-8.504,-1.826,-4.176,-8.887,-2.218,-3.448,-12.88,-10.43,-4.69
,-8.555,-1.706,-3.867,-8.603,-2.326,-3.86,-12.53,-10.64,-4.55
16188.0,-8.512,-2.032,-3.975,-8.844,-1.682,-4.212,-7.42,-10.71,0.07
,-8.552,-1.79,-4.034,-8.693,-1.852,-4.011,-5.74,-10.08,1.26
,-8.619,-1.723,-4.092,-8.717,-2.127,-3.8,-5.11,-10.08,1.26
,-8.804,-1.598,-4.18,-8.83,-1.859,-3.826,-4.83,-10.43,1.12
16264.0,-8.777,-1.85,-4.233,-8.78,-1.436,-4.972,0.14,-10.78,1.89
,-8.629,-1.412,-4.874,-8.765,-2.022,-4.554,1.4,-12.53,2.1
,-8.583,-1.371,-5.171,-8.677,-2.245,-4.365,-0.49,-14.91,2.1
,-8.701,-1.125,-4.893,-8.811,-1.919,-4.044,-2.66,-15.68,2.03
16340.0,-8.964,-1.663,-3.453,-8.729,-0.926,-4.374,0.0,-16.38,1.82
,-9.258,-1.113,-3.384,-8.5,-1.098,-4.202,2.24,-15.82,1.61
,-9.351,-0.895,-3.881,-8.705,-1.591,-4.145,3.43,-16.94,0.98
,-9.105,-0.684,-4.228,-8.873,-1.945,-3.498,2.38,-19.39,0.84
16416.0,-9.313,-1.922,-4.003,-8.842,-1.905,-2.58,-1.26,-17.29,-1.96
,-9.117,-1.876,-4.042,-9.237,-2.063,-2.309,0.14,-19.04,-1.26
,-8.789,-1.596,-3.774,-9.375,-1.922,-2.391,0.21,-19.18,-0.42
,-8.696,-1.685,-3.245,-9.184,-1.632,-2.4,-1.26,-17.43,-0.77
16492.0,-9.263,-1.216,-2.345,-9.072,-0.914,-3.233,3.71,-9.17,-0.14
,-9.347,-1.01,-2.508,-9.045,-1.015,-3.719,3.5,-8.4,-0.28
,-9.179,-0.998,-2.508,-9.005,-1.225,-3.408,2.38,-7.7,-0.77
,-9.088,-0.869,-3.015,-9.019,-1.424,-3.321,1.54,-6.93,-1.61
16568.0,-8.997,-1.601,-3.096,-9.115,-2.115,-2.704,-6.58,-4.41,-3.92
,-9.098,-1.797,-3.029,-9.139,-2.235,-2.948,-7.14,-3.64,-3.99
,-9.167,-1.89,-3.008,-9.093,-2.362,-3.544,-7.21,-3.22,-3.85
,-9.122,-1.998,-2.965,-8.942,-2.099,-3.644,-7.56,-2.73,-3.71
16644.0,-8.909,-1.883,-3.771,-9.344,-1.45,-2.759,-2.66,0.84,-0.56
,-8.835,-1.871,-3.609,-9.493,-1.457,-2.943,-1.82,2.03,0.21
,-9.005,-1.802,-3.463,-9.497,-1.318,-4.128,0.07,3.08,0.84
,-9.182,-1.687,-3.101,-9.239,-1.213,-4.676,2.52,3.78,1.19
16720.0,-8.686,-1.426,-4.769,-9.38,-2.168,-2.197,1.05,-0.98,2.1
,-8.358,-2.065,-4.279,-9.701,-1.481,-2.19,-1.96,-0.63,1.33
,-8.399,-2.589,-3.575,-9.67,-1.036,-2.388,-1.68,1.12,0.7
,-8.851,-2.642,-2.568,-9.354,-0.943,-2.974,2.17,3.08,0.56
16796.0,-9.074,-1.01,-3.4,-9.112,-1.651,-3.556,6.37,4.13,2.38
,-8.851,-1.419,-3.793,-9.34,-1.376,-3.723,4.34,4.55,1.89
,-8.76,-1.689,-3.869,-9.335,-1.18,-3.879,3.64,5.32,1.33
,-8.906,-1.67,-3.788,-9.076,-1.165,-3.855,4.34,5.95,0.77
16872.0,-8.94,-1.431,-3.958,-9.124,-1.888,-4.092,0.21,4.06,-0.84
,-8.866,-1.792,-3.944,-9.153,-1.606,-4.156,-0.98,4.13,-1.26
,-8.882,-2.115,-3.831,-9.107,-1.474,-4.185,-0.07,4.41,-1.19
,-8.981,-2.199,-3.833,-8.873,-1.551,-4.001,2.38,4.76,-0.84
16948.0,-8.882,-1.73,-3.941,-8.973,-1.895,-3.623,0.98,3.01,-0.63
,-9.002,-1.905,-3.932,-9.007,-1.742,-3.587,1.19,3.01,-0.63
,-8.957,-2.194,-3.786,-9.048,-1.606,-3.486,1.54,2.59,-0.21
,-8.935,-2.125,-3.613,-9.024,-1.484,-3.319,2.94,2.52,0.49
17024.0,-9.234,-1.39,-3.46,-8.997,-1.735,-3.867,3.08,3.92,0.21
,-9.167,-1.479,-3.515,-8.933,-1.802,-4.011,2.24,3.57,0.0
,-9.129,-1.565,-3.57,-8.94,-1.802,-4.075,1.33,3.5,0.0
,-9.05,-1.689,-3.721,-9.007,-1.78,-4.097,1.05,3.71,0.07
17100.0,-8.966,-1.78,-4.128,-9.112,-1.711,-3.915,1.12,2.45,0.0
,-8.909,-1.857,-4.039,-9.055,-1.656,-3.857,0.63,2.1,-0.07
,-8.878,-1.984,-3.848,-8.885,-1.653,-3.704,0.84,2.52,-0.07
,-8.957,-1.955,-3.867,-8.976,-1.653,-3.654,2.24,2.59,0.14
17176.0,-9.148,-1.653,-3.692,-8.873,-1.642,-3.877,3.15,2.45,0.49
,-9.127,-1.634,-3.81,-8.851,-1.709,-3.862,2.66,2.03,0.35
,-9.057,-1.606,-3.936,-8.921,-1.761,-3.79,2.03,1.89,0.42
,-9.012,-1.689,-3.96,-8.988,-1.725,-3.743,1.33,1.61,0.42
17252.0,-9.072,-1.682,-3.733,-8.911,-1.572,-3.867,3.85,2.1,0.63
,-9.105,-1.653,-3.79,-8.971,-1.768,-3.817,4.41,2.24,0.7
,-9.074,-1.541,-3.9,-8.983,-1.744,-3.766,4.48,1.89,0.7
,-8.995,-1.484,-3.965,-9.081,-1.692,-3.699,3.99,1.96,0.63
17328.0,-9.112,-1.601,-3.764,-8.914,-1.752,-3.963,3.78,2.1,0.07
,-9.093,-1.474,-3.826,-8.873,-1.893,-3.814,3.22,1.82,0.0
,-9.055,-1.441,-3.917,-8.93,-1.929,-3.764,2.1,1.4,-0.21
,-9.007,-1.512,-3.948,-9.012,-1.878,-3.745,1.12,1.33,-0.35
17404.0,-9.043,-1.761,-3.611,-9.069,-1.792,-3.577,3.08,1.12,-0.21
,-9.048,-1.634,-3.565,-8.983,-1.73,-3.577,2.94,1.12,-0.14
,-9.088,-1.627,-3.542,-9.0,-1.814,-3.707,2.66,1.19,-0.28
,-9.107,-1.697,-3.58,-8.976,-1.718,-3.838,2.45,1.19,-0.28
17480.0,-8.966,-1.627,-3.929,-9.0,-1.711,-3.884,4.27,1.4,0.42
,-8.981,-1.577,-3.955,-8.971,-1.718,-3.843,3.78,1.19,0.14
,-8.988,-1.646,-3.948,-8.978,-1.744,-3.824,3.15,1.12,0.07
,-9.019,-1.742,-3.908,-8.918,-1.831,-3.743,3.08,0.91,0.0
17556.0,-8.926,-1.859,-3.644,-9.05,-1.723,-3.702,3.43,0.91,0.21
,-8.988,-1.866,-3.661,-8.973,-1.656,-3.659,4.13,0.98,0.21
,-9.081,-1.766,-3.616,-8.954,-1.701,-3.613,4.69,0.98,0.21
,-9.074,-1.759,-3.568,-8.94,-1.728,-3.486,4.83,0.98,0.28
17632.0,-8.952,-1.89,-3.388,-9.165,-1.591,-3.546,3.99,1.19,-0.28
,-9.012,-1.888,-3.343,-9.107,-1.479,-3.692,4.62,1.68,-0.21
,-9.162,-1.744,-3.293,-8.928,-1.464,-3.671,5.46,1.68,-0.14
,-9.155,-1.687,-3.422,-8.832,-1.486,-3.403,5.88,1.75,-0.07
17708.0,-8.717,-1.673,-2.967,-9.098,-2.156,-3.549,-5.53,0.14,-3.5
,-8.827,-2.19,-2.723,-8.926,-2.283,-4.078,-6.72,1.4,-4.62
,-9.091,-2.371,-2.895,-8.717,-2.625,-4.391,-4.83,2.45,-5.04
,-9.265,-2.268,-3.218,-8.588,-2.754,-4.384,-2.17,2.73,-4.27
17784.0,-8.612,-2.544,-4.312,-9.028,-0.96,-4.202,10.5,4.83,3.99
,-8.854,-2.027,-4.25,-8.871,-1.12,-3.955,13.86,5.67,4.48
,-9.294,-1.582,-4.2,-9.019,-1.388,-3.652,14.84,5.6,4.48
,-9.287,-1.091,-4.357,-9.031,-1.464,-3.288,13.86,4.41,4.2
17860.0,-9.172,-1.417,-2.848,-9.275,-0.974,-3.233,4.06,4.69,0.84
,-9.304,-1.223,-2.946,-9.072,-1.196,-3.166,4.76,5.25,0.56
,-9.435,-1.029,-2.704,-9.026,-1.46,-3.498,4.48,5.67,0.98
,-9.438,-0.962,-3.034,-8.923,-2.022,-3.877,3.36,5.46,1.26
17936.0,-8.715,-2.522,-4.446,-8.871,-2.422,-2.694,-4.41,2.94,2.17
,-8.497,-2.592,-4.331,-9.397,-1.665,-2.994,-2.45,2.66,2.87
,-8.521,-2.551,-4.068,-9.591,-1.235,-3.824,-0.84,3.57,2.94
,-8.591,-2.627,-3.51,-9.127,-1.058,-4.128,-0.07,5.11,2.87
18012.0,-8.763,-1.476,-4.623,-9.165,-2.302,-3.702,-5.74,3.29,2.66
,-8.394,-2.386,-4.587,-9.184,-1.541,-3.175,-8.54,2.87,4.06
,-8.179,-3.056,-4.161,-9.016,-0.916,-3.537,-5.6,4.48,5.6
,-8.619,-2.826,-3.991,-9.174,-0.718,-3.34,1.96,5.88,6.37
18088.0,-9.418,-0.804,-3.963,-8.5,-2.036,-3.575,3.78,8.05,4.06
,-9.014,-0.972,-4.305,-8.995,-2.017,-3.874,2.45,6.09,3.99
,-8.5,-1.321,-4.135,-9.167,-1.603,-3.671,1.26,5.11,3.85
,-8.248,-1.732,-4.106,-9.167,-1.077,-3.594,0.63,6.44,3.64
18164.0,-9.076,-0.96,-3.441,-8.543,-1.859,-3.877,8.82,12.6,3.01
,-8.964,-0.797,-3.173,-8.658,-1.919,-3.64,6.51,13.23,2.03
,-9.134,-0.933,-3.601,-8.894,-2.242,-3.156,4.62,12.81,0.98
,-8.928,-1.586,-3.862,-8.954,-2.199,-3.075,3.08,10.92,0.84
18240.0,-9.057,-2.264,-2.996,-8.528,-1.663,-4.362,3.64,15.12,1.61
,-9.079,-2.142,-3.666,-8.263,-1.737,-4.135,5.46,13.79,2.87
,-8.792,-1.737,-4.145,-8.629,-1.082,-4.276,7.91,11.69,3.71
,-8.624,-1.412,-4.547,-9.15,-0.538,-4.786,7.77,11.2,3.78
18316.0,-9.165,-0.419,-5.001,-8.619,-1.744,-3.733,8.54,8.47,0.63
,-8.993,-0.45,-4.721,-8.488,-2.632,-4.166,3.43,7.28,-1.47
,-8.926,-0.57,-4.329,-8.789,-2.761,-4.195,-2.03,8.4,-3.5
,-8.859,-0.845,-3.924,-9.208,-2.235,-4.35,-6.44,9.94,-5.11
18392.0,-8.847,-1.881,-4.46,-8.691,-1.273,-4.946,5.95,9.1,-0.14
,-8.588,-1.469,-4.42,-8.792,-1.266,-4.757,7.7,8.96,0.35
,-8.442,-1.438,-4.949,-8.655,-1.452,-4.566,7.77,7.35,0.07
,-8.425,-1.486,-5.13,-8.792,-1.61,-4.547,7.42,5.39,-0.7
18468.0,-8.815,-1.778,-4.824,-8.653,-1.546,-4.994,5.39,7.35,-3.71
,-8.904,-1.907,-4.791,-8.72,-1.196,-5.284,7.42,6.51,-2.8
,-8.935,-1.991,-4.695,-8.457,-1.031,-5.434,9.1,6.02,-1.89
,-8.555,-2.034,-4.635,-8.423,-1.309,-5.286,10.36,5.53,-1.12
18544.0,-8.394,-1.871,-4.915,-8.808,-2.697,-4.178,6.16,-0.7,-3.15
,-8.459,-2.584,-4.513,-8.964,-2.094,-4.436,5.11,0.77,-2.45
,-8.536,-2.955,-4.221,-8.703,-1.785,-4.57,7.42,1.33,-1.82
,-8.612,-3.104,-4.202,-8.555,-1.321,-4.688,10.92,0.42,-1.05
18620.0,-8.449,-1.196,-5.025,-8.6,-1.194,-4.264,11.41,-2.87,-0.42
,-8.547,-0.912,-5.188,-8.926,-1.838,-3.936,9.52,-4.2,-1.05
,-8.636,-0.828,-5.118,-9.304,-2.17,-3.967,7.35,-4.13,-1.68
,-8.579,-0.981,-4.633,-9.182,-2.615,-3.924,5.11,-3.36,-2.87
18696.0,-8.799,-2.931,-3.929,-8.72,-2.797,-4.329,7.21,-3.64,0.42
,-8.466,-3.321,-3.908,-9.031,-2.644,-4.357,8.82,-2.52,2.03
,-8.567,-3.271,-3.896,-8.686,-2.864,-4.312,11.06,-1.54,3.29
,-8.636,-3.008,-4.056,-8.404,-3.573,-4.054,13.65,-1.4,4.97
18772.0,-8.488,-3.987,-3.786,-8.559,-1.711,-4.099,12.67,-0.28,14.28
,-8.457,-3.798,-3.697,-8.868,-1.469,-4.118,17.15,0.0,15.19
,-8.334,-3.422,-3.704,-8.916,-1.323,-4.212,21.91,0.63,16.38
,-8.559,-2.481,-3.836,-8.899,-1.127,-4.408,24.36,1.47,17.15
18848.0,-8.995,-0.838,-4.554,-9.014,-0.809,-4.19,14.84,1.19,14.91
,-8.629,-0.814,-4.731,-9.167,-0.773,-4.078,14.0,0.0,13.23
,-8.521,-0.794,-4.489,-8.837,-0.936,-4.073,13.16,0.28,12.04
,-8.586,-0.967,-4.293,-8.679,-0.893,-4.152,12.32,1.47,11.48
18924.0,-8.662,-0.96,-4.288,-9.062,-1.632,-4.276,10.5,2.8,5.04
,-8.727,-0.629,-4.501,-9.091,-2.288,-4.154,9.94,2.45,3.85
,-8.686,-0.548,-4.554,-9.036,-3.003,-4.027,8.68,2.8,2.59
,-8.897,-1.05,-4.451,-8.959,-3.209,-3.972,6.72,3.29,1.89
19000.0,-8.571,-3.185,-4.147,-8.705,-2.769,-4.2,13.44,3.71,3.64
,-8.526,-2.965,-4.312,-8.887,-2.855,-4.257,14.63,4.34,4.27
,-8.402,-2.769,-4.429,-8.72,-2.015,-4.688,13.86,4.48,5.32
,-8.43,-2.697,-4.367,-8.605,-1.237,-4.939,12.04,5.11,6.37
19076.0,-8.784,-0.979,-4.956,-8.612,-1.424,-4.446,6.65,6.02,7.14
,-8.995,-1.287,-4.793,-8.847,-1.429,-4.264,3.78,5.74,6.65
,-9.146,-1.493,-4.645,-9.282,-1.579,-3.807,3.36,4.9,6.51
,-8.952,-1.34,-4.53,-8.174,-2.891,-4.125,4.48,3.78,6.51
19152.0,-8.746,-1.474,-4.123,-9.225,-0.759,-4.812,8.12,1.89,3.36
,-8.557,-0.799,-4.874,-9.064,-1.323,-4.673,8.75,1.75,2.52
,-8.696,-0.16,-5.25,-8.882,-1.637,-4.415,7.14,1.89,1.89
,-8.938,-0.302,-5.099,-8.799,-2.039,-4.288,2.17,2.52,0.63
19228.0,-8.926,-2.091,-4.302,-8.681,-2.496,-4.829,-0.63,1.61,-1.33
,-8.89,-2.154,-4.616,-8.976,-2.639,-4.611,0.63,1.47,-0.77
,-8.861,-2.292,-4.783,-9.005,-2.895,-4.532,0.77,0.84,-0.14
,-8.603,-2.486,-4.769,-8.787,-3.159,-4.415,0.91,0.56,0.7
19304.0,-8.873,-3.034,-4.319,-8.988,-1.505,-4.637,1.54,0.49,6.02
,-8.82,-2.804,-4.319,-9.019,-1.153,-4.688,2.73,0.28,6.86
,-8.837,-2.273,-4.35,-8.969,-0.873,-4.75,3.5,-0.07,6.93
,-8.875,-1.888,-4.472,-8.964,-0.907,-4.673,2.94,-0.28,7.0
19380.0,-8.794,-0.759,-4.556,-8.911,-1.043,-4.554,2.94,-2.31,5.25
,-8.631,-0.644,-4.444,-8.873,-1.426,-4.448,2.59,-2.38,4.48
,-8.78,-0.651,-4.417,-8.859,-1.756,-4.235,1.61,-1.96,3.64
,-8.842,-0.749,-4.547,-8.751,-1.917,-4.178,0.7,-2.1,3.22
19456.0,-8.77,-1.866,-4.003,-8.959,-2.072,-3.987,2.03,-1.47,2.8
,-8.727,-2.029,-3.905,-8.839,-1.902,-4.022,1.4,-1.19,3.01
,-8.77,-2.115,-3.965,-8.918,-1.723,-4.123,1.96,-1.26,3.01
,-8.89,-2.113,-4.001,-8.794,-1.551,-4.168,2.52,-1.19,2.59
19532.0,-8.648,-1.201,-4.137,-8.806,-0.969,-4.231,5.39,-0.21,2.31
,-8.734,-1.12,-4.245,-8.792,-1.089,-4.314,4.97,0.28,1.82
,-9.05,-1.134,-4.161,-8.961,-1.524,-4.185,4.48,0.42,0.98
,-8.923,-1.125,-4.101,-8.916,-1.943,-4.087,4.62,0.56,0.28
19608.0,-9.038,-2.158,-4.123,-8.684,-2.572,-3.898,5.32,1.68,0.56
,-9.174,-2.113,-4.365,-8.758,-2.434,-3.877,6.65,1.75,0.98
,-8.971,-2.072,-4.393,-8.83,-2.134,-4.056,6.65,1.54,0.84
,-8.634,-2.297,-4.092,-8.99,-2.036,-4.18,5.74,2.03,0.77
19684.0,-9.033,-1.962,-4.302,-9.153,-2.134,-4.25,7.14,4.2,1.54
,-8.947,-1.883,-4.269,-9.127,-2.268,-4.171,7.63,4.2,1.89
,-8.787,-1.771,-4.216,-8.997,-2.331,-4.257,8.19,4.62,2.24
,-8.787,-1.922,-4.247,-8.849,-2.233,-4.386,8.54,5.67,2.52
19760.0,-8.782,-2.022,-4.228,-8.835,-0.895,-4.748,11.06,7.35,3.01
,-8.591,-1.799,-4.367,-8.827,-0.653,-4.724,10.01,7.56,3.15
,-8.823,-1.634,-4.549,-8.832,-0.44,-4.736,9.03,7.98,2.73
,-8.859,-1.256,-4.614,-9.016,-0.179,-4.786,7.84,8.26,1.54
19836.0,-8.983,0.045,-4.86,-8.753,-0.668,-4.901,0.84,8.12,-6.86
,-8.827,0.172,-4.946,-8.67,-0.979,-4.891,-1.05,7.28,-8.68
,-8.777,-0.136,-4.891,-8.784,-1.45,-4.748,-3.92,7.49,-10.43
,-8.839,-0.479,-4.877,-8.751,-1.922,-4.503,-6.09,7.98,-11.9
19912.0,-8.591,-2.359,-4.429,-8.665,-2.68,-4.637,-8.19,7.98,-15.75
,-8.562,-2.613,-4.508,-8.899,-2.551,-4.678,-7.63,8.54,-14.84
,-8.536,-2.67,-4.661,-8.672,-2.364,-4.707,-7.07,8.68,-14.07
,-8.576,-2.596,-4.714,-8.5,-2.254,-4.587,-6.65,9.1,-13.23
19988.0,-8.449,-2.34,-4.436,-8.918,-1.563,-4.939,-7.42,10.08,-12.11
,-8.55,-2.254,-4.575,-8.837,-1.244,-4.987,-5.53,10.15,-11.83
,-8.638,-1.931,-4.764,-8.739,-1.211,-4.874,-4.06,9.8,-11.34
,-8.827,-1.63,-4.822,-8.614,-1.493,-4.829,-3.01,9.66,-11.62
20064.0,-8.531,-1.653,-4.755,-8.55,-1.931,-4.922,-6.58,6.37,-11.62
,-8.519,-2.01,-4.621,-8.514,-2.087,-4.697,-7.42,5.81,-11.48
,-8.509,-2.405,-4.427,-8.433,-2.259,-4.432,-7.28,5.25,-11.2
,-8.839,-1.933,-4.511,-8.509,-2.266,-4.475,-1.4,5.95,-12.6
20140.0,-8.6,-2.166,-4.384,-8.583,-2.501,-4.692,-3.22,6.16,-6.44
,-8.394,-2.388,-4.499,-8.631,-2.194,-4.75,-3.43,4.9,-4.55
,-8.124,-2.467,-4.551,-8.509,-2.127,-4.779,-3.29,5.11,-3.36
,-8.294,-2.615,-4.558,-8.5,-2.027,-4.882,-2.1,6.23,-2.94
20216.0,-8.411,-2.115,-4.817,-8.536,-2.051,-5.142,-1.96,5.74,-0.98
,-8.234,-2.18,-4.941,-8.469,-1.874,-5.2,-2.38,5.04,-0.7
,-8.21,-2.161,-5.09,-8.327,-1.902,-5.209,-2.1,4.55,-0.63
,-8.33,-2.005,-5.116,-8.217,-2.032,-5.269,-1.47,4.27,-0.77
20292.0,-8.433,-1.328,-5.776,-8.402,-2.029,-4.984,-5.53,1.47,-1.96
,-8.169,-2.235,-5.03,-8.595,-1.78,-5.226,-6.86,1.96,-1.12
,-8.454,-2.321,-5.068,-8.562,-1.9,-5.2,-6.86,1.12,-0.49
,-8.457,-2.144,-5.08,-8.464,-2.125,-5.061,-5.88,0.77,-0.14
20368.0,-8.363,-2.158,-5.118,-8.418,-1.735,-5.03,-6.86,-0.35,0.84
,-8.272,-2.13,-5.128,-8.356,-1.721,-5.066,-6.44,-1.05,0.98
,-8.251,-1.998,-5.142,-8.713,-1.658,-5.822,-6.09,-1.61,0.56
,-8.265,-1.912,-5.054,-7.99,-1.713,-5.654,-5.74,-1.68,-0.14
20444.0,-8.315,-1.302,-5.446,-8.586,-2.12,-4.599,-4.48,-5.32,0.42
,-8.533,-1.78,-5.217,-8.478,-1.979,-4.994,-7.42,-5.74,-1.05
,-8.528,-2.271,-4.606,-8.299,-1.799,-4.925,-9.31,-6.02,-0.28
,-8.521,-2.127,-4.532,-8.256,-1.771,-4.575,-8.54,-6.51,0.42
20520.0,-8.466,-1.907,-4.408,-8.677,-1.34,-4.621,-8.05,-7.84,-0.28
,-8.555,-1.764,-4.499,-8.696,-1.237,-4.769,-6.51,-7.28,-0.63
,-8.672,-1.409,-4.372,-8.787,-1.766,-4.774,-5.04,-7.91,-0.49
,-8.727,-1.321,-4.451,-8.648,-1.639,-4.712,-4.55,-9.24,-0.21
20596.0,-8.512,-1.529,-4.283,-8.77,-1.685,-4.625,-3.08,-13.23,-0.14
,-8.459,-1.285,-3.932,-8.681,-1.68,-4.738,-6.86,-12.39,-0.98
,-8.492,-1.721,-4.027,-8.256,-1.826,-4.372,-9.73,-12.53,-2.17
,-8.658,-1.802,-4.159,-8.337,-2.012,-3.888,-9.73,-13.44,-2.38
20672.0,-8.665,-2.371,-3.592,-8.806,-2.204,-3.613,-7.49,-12.67,-2.59
,-8.899,-2.443,-3.36,-8.94,-2.324,-3.802,-4.41,-12.95,-1.75
,-8.873,-2.247,-3.697,-8.756,-2.295,-4.073,-1.82,-14.35,-0.49
,-8.739,-2.046,-3.62,-8.48,-2.089,-4.317,-1.54,-14.56,0.84
20748.0,-8.538,-1.862,-4.561,-9.107,-1.347,-3.786,4.76,-14.98,3.5
,-8.65,-1.725,-4.2,-9.141,-1.058,-3.771,5.11,-14.42,3.57
,-8.66,-1.857,-3.92,-9.086,-0.878,-3.544,4.76,-13.65,3.29
,-8.772,-1.649,-3.486,-9.062,-0.763,-4.013,5.46,-12.18,3.15
20824.0,-8.844,-1.012,-4.113,-8.713,-1.788,-3.348,1.82,-13.58,-0.56
,-8.945,-1.34,-4.02,-8.969,-1.986,-3.027,-1.19,-13.44,-1.54
,-8.732,-1.709,-4.204,-9.282,-2.015,-3.111,-2.66,-13.3,-2.73
,-8.677,-1.697,-3.752,-9.313,-1.902,-3.685,-3.36,-12.25,-3.36
20900.0,-9.129,-1.584,-4.168,-8.758,-2.204,-4.606,-1.05,-8.82,-1.33
,-8.945,-1.749,-4.326,-8.921,-1.785,-4.86,-2.38,-9.31,-1.33
,-8.593,-2.012,-4.068,-8.897,-1.347,-4.444,-3.85,-8.96,-1.4
,-8.55,-2.173,-4.369,-8.957,-1.053,-3.888,-2.59,-7.63,-1.4
20976.0,-9.201,-1.218,-3.498,-9.05,-2.29,-2.982,0.7,-9.94,-3.22
,-9.167,-1.646,-3.046,-9.04,-2.276,-2.718,-2.31,-9.66,-3.57
,-9.036,-1.972,-2.979,-9.074,-2.163,-3.063,-3.92,-9.17,-3.5
,-9.012,-2.211,-2.958,-9.083,-1.981,-3.242,-3.99,-8.33,-3.08
21052.0,-8.997,-1.771,-3.362,-9.016,-1.56,-4.147,5.25,-2.94,0.7
,-9.019,-1.5,-3.419,-8.871,-1.565,-4.161,5.74,-2.45,0.63
,-9.122,-1.486,-3.403,-8.808,-1.639,-4.125,5.25,-2.17,0.49
,-9.167,-1.553,-3.778,-8.914,-1.677,-3.965,4.9,-2.1,0.49
21128.0,-8.997,-1.766,-3.649,-9.115,-1.945,-2.539,1.61,-3.71,-1.26
,-9.088,-1.933,-3.245,-9.122,-1.91,-2.438,1.05,-3.64,-1.33
,-9.103,-2.058,-2.962,-9.232,-1.866,-2.759,0.63,-3.15,-1.33
,-9.069,-2.017,-2.742,-9.206,-1.622,-3.362,1.47,-2.17,-0.98
21204.0,-9.002,-1.737,-3.63,-9.119,-1.955,-3.003,6.86,1.26,0.35
,-8.871,-1.771,-3.652,-9.232,-1.79,-3.204,6.3,1.61,0.21
,-8.914,-1.84,-3.656,-9.344,-1.692,-3.881,4.69,2.66,0.07
,-8.966,-2.008,-3.451,-9.131,-1.675,-4.113,3.92,3.43,-0.28
21280.0,-8.667,-1.778,-4.384,-9.174,-1.85,-3.001,2.66,1.61,0.56
,-8.54,-1.922,-4.355,-9.371,-1.902,-2.493,1.54,1.68,-0.07
,-8.614,-1.936,-3.994,-9.27,-1.936,-2.257,1.26,2.1,-0.98
,-8.792,-1.871,-3.472,-9.213,-1.974,-2.35,0.91,2.52,-1.75
21356.0,-9.289,-1.878,-2.819,-8.751,-2.106,-4.594,3.22,5.81,-0.49
,-9.158,-1.984,-3.419,-8.811,-2.146,-4.8,3.64,5.74,-0.07
,-8.878,-2.051,-3.905,-8.851,-1.989,-4.853,3.36,5.46,0.0
,-8.689,-2.075,-4.286,-8.921,-1.96,-4.939,3.15,5.74,0.0
21432.0,-8.897,-1.85,-4.901,-8.899,-1.969,-3.944,3.71,2.03,0.49
,-8.863,-1.764,-4.807,-9.036,-1.948,-3.501,3.5,0.98,0.56
,-8.835,-1.895,-4.539,-9.148,-2.0,-3.149,3.15,0.28,0.56
,-8.832,-1.981,-4.207,-9.139,-1.981,-2.941,3.08,0.14,0.49
21508.0,-9.186,-1.888,-2.922,-8.859,-1.864,-3.661,1.4,0.21,-0.14
,-9.067,-1.977,-2.986,-8.806,-1.878,-3.676,1.26,0.7,0.0
,-9.052,-1.926,-3.295,-8.961,-1.866,-3.912,1.33,0.91,0.21
,-8.981,-1.95,-3.439,-9.033,-1.948,-3.977,1.68,0.98,0.28
21584.0,-9.028,-1.843,-3.941,-8.902,-1.91,-3.874,2.8,1.4,0.7
,-8.971,-1.701,-4.022,-8.882,-2.091,-3.778,2.45,1.05,0.77
,-8.945,-1.838,-4.073,-8.993,-2.134,-3.635,1.68,0.84,0.56
,-8.926,-1.819,-4.037,-9.048,-2.032,-3.589,1.19,0.49,0.49
21660.0,-9.115,-1.989,-3.549,-8.894,-1.788,-3.944,2.66,0.63,0.42
,-9.122,-1.85,-3.721,-8.897,-1.957,-3.831,2.73,0.35,0.56
,-9.019,-1.718,-3.841,-8.93,-2.106,-3.821,1.82,-0.07,0.49
,-8.957,-1.639,-3.934,-8.957,-2.051,-3.743,-0.07,-0.42,0.49
21736.0,-9.028,-2.065,-3.652,-9.04,-1.756,-3.46,-0.35,0.21,-0.21
,-9.052,-1.941,-3.69,-9.019,-1.838,-3.491,0.28,0.28,-0.14
,-9.014,-1.869,-3.589,-9.048,-1.943,-3.374,0.63,0.21,-0.14
,-9.05,-1.847,-3.503,-9.026,-2.022,-3.336,0.7,0.07,-0.14
21812.0,-9.062,-2.146,-3.245,-9.048,-2.029,-3.518,1.89,0.77,0.28
,-9.005,-2.099,-3.381,-8.978,-1.943,-3.498,3.43,1.05,0.63
,-9.007,-2.06,-3.376,-8.985,-1.898,-3.53,4.9,1.47,0.98
,-9.019,-2.053,-3.463,-9.014,-1.866,-3.582,5.74,1.82,1.05
21888.0,-9.086,-1.682,-3.709,-8.942,-1.807,-3.702,6.86,2.52,1.26
,-9.134,-1.649,-3.795,-8.976,-1.795,-3.683,5.88,2.38,1.26
,-9.072,-1.644,-3.862,-8.993,-1.855,-3.714,4.55,2.03,1.05
,-8.947,-1.771,-3.795,-9.072,-2.005,-3.707,3.36,1.75,0.98
21964.0,-9.076,-2.146,-3.697,-9.016,-1.917,-3.678,1.82,1.33,0.07
,-8.981,-2.02,-3.702,-9.067,-1.974,-3.642,1.96,1.12,0.14
,-8.916,-1.924,-3.683,-9.062,-2.041,-3.542,1.68,1.12,0.0
,-8.981,-1.912,-3.733,-9.021,-2.089,-3.417,1.47,1.33,-0.14
22040.0,-9.072,-2.077,-3.412,-8.897,-1.912,-3.436,2.45,1.33,1.54
,-9.043,-1.965,-3.403,-8.981,-1.922,-3.417,3.99,1.33,1.96
,-8.978,-1.989,-3.537,-9.124,-1.95,-3.498,4.97,1.47,2.24
,-8.926,-1.864,-3.551,-9.129,-1.965,-3.668,5.25,1.54,2.38
22116.0,-9.043,-1.816,-3.764,-8.923,-2.486,-3.781,5.32,3.01,2.66
,-8.892,-2.044,-3.881,-8.861,-2.352,-3.769,5.25,2.94,3.22
,-8.887,-2.18,-3.86,-8.825,-2.178,-3.664,5.6,3.01,3.92
,-8.926,-2.364,-3.85,-9.031,-2.036,-3.594,6.79,3.15,4.48
22192.0,-9.048,-1.936,-3.654,-9.057,-1.295,-3.63,12.39,3.92,6.02
,-9.139,-1.728,-3.556,-9.081,-1.29,-3.733,12.04,3.71,6.23
,-9.153,-1.548,-3.518,-9.088,-1.206,-3.494,11.34,3.43,5.88
,-9.05,-1.395,-3.329,-9.024,-1.299,-3.223,9.59,3.29,5.25
22268.0,-8.976,-1.555,-2.769,-8.935,-1.747,-3.061,-1.75,4.27,1.26
,-9.141,-1.689,-2.434,-8.586,-2.228,-2.929,-1.96,5.67,0.7
,-9.351,-1.85,-2.8,-8.538,-2.819,-2.661,-0.56,5.95,0.28
,-9.21,-1.721,-2.95,-8.698,-2.996,-2.345,0.63,4.9,0.77
22344.0,-8.935,-2.623,-2.297,-9.146,-0.857,-3.527,8.75,12.88,4.69
,-9.225,-1.687,-2.678,-8.94,-1.484,-3.542,13.44,14.42,4.69
,-9.354,-1.027,-2.867,-8.461,-2.41,-3.451,13.44,14.7,4.27
,-9.296,-0.761,-3.089,-8.332,-2.654,-3.85,10.08,15.12,3.99
22420.0,-8.569,-2.737,-4.039,-8.72,-1.173,-3.999,5.81,17.22,5.53
,-8.916,-2.292,-4.185,-9.019,-1.12,-3.884,11.69,16.8,5.74
,-8.997,-1.847,-4.554,-9.184,-0.969,-4.389,14.7,15.12,5.74
,-8.737,-1.436,-4.231,-9.275,-0.627,-4.64,13.86,14.21,5.95
22496.0,-9.007,-0.981,-4.759,-8.794,-2.003,-4.64,-0.49,13.02,-0.35
,-8.586,-1.429,-4.496,-8.744,-1.405,-5.207,-5.32,11.69,-0.35
,-8.464,-1.309,-4.161,-8.636,-1.168,-5.063,-7.63,11.97,-0.56
,-8.784,-1.658,-4.513,-8.727,-1.661,-4.518,-8.75,11.55,-1.33
22572.0,-8.993,-2.003,-4.168,-8.315,-2.986,-3.283,-6.3,8.19,-4.48
,-8.875,-2.316,-3.798,-8.54,-2.266,-3.525,-4.83,7.77,-4.62
,-8.701,-2.874,-3.46,-8.942,-1.716,-4.377,-3.08,8.05,-3.78
,-8.66,-3.111,-3.537,-8.866,-1.168,-4.391,0.21,8.82,-2.1
22648.0,-8.739,-0.725,-4.377,-8.741,-1.467,-4.731,9.1,12.32,2.52
,-8.739,-0.809,-4.279,-8.583,-1.644,-4.52,4.48,10.71,0.91
,-8.689,-1.096,-4.314,-8.528,-2.245,-4.025,1.61,9.87,-0.35
,-8.772,-1.362,-4.633,-8.646,-2.405,-3.745,2.66,10.08,-0.56
22724.0,-8.923,-2.434,-4.03,-8.246,-1.062,-5.176,9.66,13.16,-0.42
,-8.969,-2.091,-4.24,-7.983,-1.199,-5.377,12.74,13.02,-0.84
,-8.849,-1.508,-4.654,-8.141,-1.455,-5.183,13.65,12.04,-0.56
,-8.538,-1.297,-5.039,-8.667,-1.51,-4.908,10.92,11.2,-0.35
22800.0,-9.232,-1.323,-4.494,-8.409,-3.111,-3.771,12.39,9.87,-2.52
,-8.973,-1.378,-4.386,-8.629,-3.434,-4.13,12.53,7.35,-2.17
,-8.646,-2.139,-3.898,-8.543,-3.25,-4.707,9.87,7.42,-1.61
,-8.318,-2.737,-3.606,-8.662,-2.388,-5.53,8.4,8.68,-1.47
22876.0,-8.512,-1.675,-5.901,-8.772,-1.725,-5.087,18.41,9.17,0.35
,-8.325,-1.201,-5.973,-8.715,-1.627,-4.987,17.08,8.19,-0.14
,-8.27,-1.295,-5.719,-8.77,-2.28,-4.757,14.77,7.84,-0.35
,-8.564,-1.414,-5.446,-8.667,-2.735,-4.707,13.09,6.65,-0.7
22952.0,-8.524,-2.584,-4.838,-8.48,-2.271,-5.324,13.16,0.49,3.15
,-8.382,-2.572,-4.996,-8.275,-2.379,-5.011,13.09,-0.91,2.87
,-8.543,-2.371,-5.26,-8.315,-2.216,-4.934,11.62,-1.19,1.89
,-8.67,-2.266,-5.508,-8.777,-2.041,-4.927,10.01,-1.19,1.05
23028.0,-8.744,-1.945,-4.724,-8.811,-2.199,-4.202,7.35,-4.48,3.57
,-8.421,-2.168,-4.432,-8.976,-1.421,-4.511,5.81,-4.9,3.99
,-8.332,-2.46,-4.176,-8.827,-0.83,-4.64,4.76,-3.5,4.27
,-8.543,-2.532,-4.097,-8.61,-0.818,-4.652,6.09,-2.52,4.62
23104.0,-8.758,-1.39,-4.52,-8.313,-2.838,-3.786,3.78,-3.85,4.13
,-8.978,-1.981,-4.326,-8.155,-3.108,-3.64,3.78,-3.71,3.64
,-8.703,-2.307,-4.207,-8.387,-2.812,-3.951,6.44,-4.69,3.92
,-8.507,-2.637,-4.075,-8.382,-2.737,-4.145,9.24,-4.97,5.39
23180.0,-8.488,-2.955,-4.08,-8.813,-2.218,-4.432,12.39,-3.64,11.34
,-8.758,-2.931,-3.941,-8.796,-1.943,-4.527,11.27,-2.94,11.62
,-8.878,-3.015,-4.089,-8.859,-1.84,-4.815,11.48,-2.38,11.9
,-8.827,-2.682,-4.24,-8.696,-1.89,-4.884,12.25,-2.45,11.97
23256.0,-8.528,-2.233,-4.798,-9.107,-2.491,-4.293,7.21,-2.73,10.85
,-8.066,-2.608,-4.69,-9.174,-2.199,-4.369,7.0,-1.47,12.88
,-8.215,-2.802,-4.372,-9.21,-2.012,-4.305,8.54,0.07,14.49
,-8.547,-2.852,-4.336,-9.088,-1.807,-4.161,11.41,1.26,16.03
23332.0,-8.748,-1.742,-4.276,-8.136,-1.17,-4.346,11.48,-0.98,15.68
,-8.959,-1.491,-4.494,-8.198,-1.34,-4.085,10.92,-0.63,14.84
,-9.225,-1.201,-4.685,-8.626,-1.254,-4.214,10.36,-1.26,13.09
,-8.775,-1.022,-4.685,-9.105,-1.113,-4.252,9.03,-2.38,11.48
23408.0,-9.165,-1.127,-4.264,-8.789,-1.362,-4.436,7.42,0.42,8.61
,-8.985,-0.964,-4.314,-8.904,-1.05,-4.578,6.58,-0.28,7.77
,-8.746,-0.811,-4.53,-8.686,-0.79,-4.63,4.62,-0.49,7.07
,-8.725,-1.007,-4.458,-8.325,-0.936,-4.434,2.38,-0.21,6.09
23484.0,-8.684,-1.261,-4.288,-9.028,-1.067,-3.855,-3.71,1.26,2.1
,-9.014,-1.563,-4.128,-7.992,-1.062,-4.53,-4.48,1.4,2.31
,-9.115,-1.541,-3.92,-8.871,-0.273,-4.599,-4.62,0.91,3.01
,-8.949,-1.527,-3.896,-9.146,-0.749,-4.621,-4.76,0.49,3.57
23560.0,-9.227,-1.263,-4.685,-8.756,-1.823,-4.393,-7.28,1.26,-2.59
,-8.811,-1.742,-4.508,-8.854,-1.706,-4.558,-6.09,0.91,-3.85
,-8.483,-2.175,-4.422,-8.909,-1.768,-4.379,-2.87,1.4,-4.48
,-8.909,-2.06,-4.329,-8.497,-1.96,-4.396,0.84,2.24,-4.69
23636.0,-8.655,-2.486,-4.188,-9.072,-2.804,-4.298,-3.36,1.75,-2.59
,-8.708,-2.766,-4.262,-8.923,-2.548,-4.221,-2.94,2.17,-0.77
,-8.928,-2.694,-4.41,-8.808,-2.362,-4.338,-1.68,1.47,1.05
,-9.131,-2.807,-4.389,-8.77,-2.17,-4.556,-0.7,1.89,2.17
23712.0,-8.655,-2.178,-4.544,-8.981,-1.089,-4.721,1.82,1.26,4.97
,-8.725,-2.139,-4.475,-8.952,-1.323,-4.566,2.17,1.54,5.18
,-8.806,-1.845,-4.527,-9.007,-1.512,-4.326,2.94,1.75,5.6
,-8.904,-1.318,-4.731,-8.926,-1.512,-4.322,3.36,1.47,5.74
23788.0,-8.768,-1.462,-4.372,-8.748,-0.574,-4.539,3.22,0.0,3.57
,-8.818,-1.448,-4.214,-8.928,-0.933,-4.506,3.78,0.28,3.36
,-8.832,-1.457,-4.027,-9.067,-1.565,-4.331,3.43,0.56,3.43
,-8.801,-0.964,-4.283,-9.143,-1.991,-4.063,3.85,-0.07,3.57
23864.0,-8.717,-2.065,-3.977,-8.985,-1.452,-4.135,2.66,0.07,0.28
,-8.504,-1.948,-3.936,-8.918,-1.493,-4.295,4.62,0.91,0.14
,-8.564,-1.62,-3.982,-8.808,-1.431,-4.439,5.46,1.61,-0.77
,-8.863,-1.529,-3.977,-8.844,-1.424,-4.465,4.9,1.82,-1.54
23940.0,-9.105,-1.689,-4.386,-8.725,-1.809,-4.221,2.52,2.03,-2.66
,-9.016,-1.821,-4.219,-8.686,-1.651,-4.403,3.43,2.45,-2.45
,-8.921,-1.864,-4.099,-8.777,-1.46,-4.42,4.06,2.45,-2.1
,-8.703,-1.881,-4.161,-8.966,-1.711,-4.453,4.62,2.45,-1.82
24016.0,-8.839,-1.567,-4.405,-8.844,-2.185,-4.657,5.53,2.87,-3.15
,-8.82,-1.651,-4.35,-8.619,-2.57,-4.221,4.2,2.87,-3.43
,-8.796,-1.95,-4.427,-8.672,-2.802,-3.987,3.22,3.36,-3.36
,-8.863,-2.094,-4.623,-9.076,-2.871,-3.893,3.57,3.85,-3.43
24092.0,-8.971,-2.702,-4.018,-8.705,-1.989,-4.501,9.24,5.88,-0.14
,-8.921,-2.216,-4.381,-8.641,-1.809,-4.46,10.29,5.67,0.21
,-8.885,-2.082,-4.697,-8.674,-1.244,-4.724,9.8,5.81,0.0
,-8.875,-2.079,-4.647,-8.763,-0.83,-5.027,9.1,6.51,-0.84
24168.0,-8.93,-0.948,-5.027,-8.866,-0.979,-4.855,5.25,7.35,-5.25
,-8.815,-1.053,-4.862,-9.062,-1.177,-4.798,1.89,7.49,-6.65
,-8.89,-1.101,-4.757,-9.043,-1.438,-4.824,0.28,7.91,-7.56
,-8.837,-0.998,-4.707,-8.854,-1.577,-4.623,-1.05,7.77,-8.05
24244.0,-8.275,-1.692,-4.57,-8.768,-2.343,-4.515,-4.83,7.35,-10.85
,-8.239,-1.876,-4.544,-8.789,-2.434,-4.518,-5.11,7.84,-11.27
,-8.466,-2.036,-4.491,-8.586,-2.491,-4.523,-4.55,8.19,-11.48
,-8.591,-2.142,-4.458,-8.576,-2.257,-4.503,-4.76,8.19,-11.2
24320.0,-8.452,-2.29,-4.506,-8.832,-1.917,-4.815,-4.2,8.33,-8.33
,-8.703,-2.039,-4.348,-8.82,-2.087,-4.867,-2.73,8.96,-8.75
,-8.811,-1.9,-4.59,-8.871,-2.328,-4.937,-3.71,9.31,-8.4
,-8.832,-1.888,-4.681,-8.502,-2.288,-5.061,-4.2,9.17,-7.84
24396.0,-8.129,-2.101,-5.059,-8.897,-2.039,-4.951,-0.28,7.28,-7.49
,-8.169,-2.216,-5.016,-8.832,-2.084,-4.606,-0.21,7.7,-6.79
,-8.43,-2.273,-4.984,-8.614,-2.072,-4.547,-0.28,8.05,-6.23
,-8.799,-2.099,-4.812,-8.086,-2.156,-4.551,0.21,7.91,-5.67
24472.0,-7.978,-2.278,-4.676,-8.684,-1.85,-4.889,-4.41,3.99,-2.03
,-8.349,-2.374,-4.755,-8.497,-1.859,-4.965,-2.45,4.83,-2.24
,-8.689,-2.252,-4.783,-8.409,-2.008,-4.817,-0.14,4.55,-2.45
,-8.758,-1.936,-4.819,-8.612,-2.063,-4.681,1.68,3.71,-2.24
24548.0,-8.457,-2.096,-4.609,-8.473,-1.594,-4.623,-1.33,4.13,1.33
,-8.32,-1.955,-4.575,-8.583,-1.67,-4.611,-1.19,2.94,0.91
,-8.241,-1.692,-4.554,-8.538,-1.922,-4.762,-1.05,2.24,-0.21
,-8.303,-1.634,-4.635,-8.512,-2.29,-4.673,-2.1,2.17,-1.26
24624.0,-8.416,-2.663,-4.346,-8.722,-1.649,-4.896,-6.3,3.5,-1.05
,-8.157,-3.19,-4.259,-8.849,-1.551,-4.764,-8.19,3.01,0.77
,-8.093,-2.776,-4.561,-8.6,-1.594,-4.795,-2.87,2.59,1.61
,-8.258,-2.146,-4.889,-8.495,-1.61,-4.913,1.61,2.73,1.54
24700.0,-8.378,-1.649,-4.982,-8.373,-1.22,-5.363,-7.28,0.84,0.28
,-8.33,-1.603,-5.207,-8.435,-1.551,-5.111,-7.56,0.42,-0.21
,-8.299,-1.153,-5.506,-7.657,-2.142,-5.324,-6.79,-0.42,-1.12
,-8.208,-1.089,-5.623,-8.576,-1.661,-4.898,-7.07,-0.56,-1.33
24776.0,-8.686,-1.905,-4.956,-8.344,-2.154,-5.032,-3.71,-2.94,-2.38
,-8.519,-1.598,-4.817,-8.296,-1.852,-5.068,-3.43,-3.99,-1.68
,-8.579,-1.606,-4.996,-8.406,-1.701,-5.238,-5.74,-5.32,-1.61
,-8.512,-2.06,-4.975,-8.564,-1.835,-4.767,-8.82,-6.09,-1.96
24852.0,-8.536,-1.811,-4.549,-8.423,-2.517,-4.582,-10.78,-9.73,-4.48
,-8.356,-2.111,-4.535,-8.61,-2.17,-4.752,-11.27,-10.43,-4.41
,-8.256,-2.434,-4.379,-8.66,-1.957,-4.908,-10.29,-9.8,-3.64
,-8.382,-2.649,-4.592,-8.88,-1.799,-4.379,-7.91,-8.26,-2.38
24928.0,-9.002,-1.788,-4.525,-8.392,-1.888,-4.202,-1.05,-8.4,1.33
,-8.636,-2.017,-4.142,-8.469,-1.957,-4.221,-1.68,-10.57,1.4
,-8.595,-1.809,-4.302,-8.693,-1.596,-4.302,-2.8,-13.79,0.35
,-8.313,-1.728,-4.137,-8.911,-1.457,-4.793,-3.57,-15.05,-0.49
25004.0,-8.614,-1.522,-4.355,-8.6,-1.285,-4.999,2.59,-11.41,0.91
,-8.631,-1.493,-4.3,-8.406,-1.299,-4.889,3.15,-11.06,2.03
,-8.849,-1.579,-4.74,-8.459,-1.565,-4.774,3.85,-12.74,2.45
,-8.784,-1.517,-4.884,-8.626,-1.665,-4.018,3.92,-14.63,2.38
25080.0,-8.978,-1.826,-3.728,-8.495,-2.17,-3.821,-3.36,-11.34,-2.59
,-9.162,-1.969,-3.419,-8.605,-2.108,-4.178,-3.29,-11.2,-2.59
,-9.043,-2.029,-3.642,-8.768,-1.797,-4.429,-1.75,-11.9,-1.89
,-8.765,-2.252,-3.991,-8.748,-1.754,-4.556,-0.77,-12.88,-0.77
25156.0,-8.626,-1.697,-4.092,-9.182,-1.57,-3.518,6.58,-12.18,0.14
,-8.562,-1.586,-3.367,-9.036,-1.488,-3.711,4.97,-10.64,-0.35
,-8.899,-1.788,-3.096,-8.885,-1.649,-3.408,4.41,-8.75,-1.05
,-9.062,-1.795,-3.211,-8.787,-1.876,-3.125,5.25,-8.68,-1.68
25232.0,-8.88,-2.247,-3.013,-8.938,-1.895,-3.941,-1.05,-4.97,-2.45
,-9.019,-2.51,-2.9,-8.758,-1.713,-4.223,0.42,-3.64,-1.47
,-9.179,-2.436,-3.295,-8.586,-1.862,-4.001,3.43,-3.5,-0.35
,-9.167,-1.914,-3.654,-8.665,-1.704,-4.2,6.09,-3.99,0.63
25308.0,-8.914,-1.692,-4.013,-9.201,-1.522,-3.58,3.85,-1.47,-1.82
,-8.935,-1.579,-3.582,-9.196,-1.326,-4.499,2.73,-1.89,-2.59
,-8.973,-1.699,-3.171,-8.935,-1.216,-4.922,1.05,-1.68,-2.94
,-9.155,-1.677,-2.97,-8.617,-1.625,-5.006,0.21,-0.91,-3.01
25384.0,-8.433,-1.957,-4.748,-9.112,-2.436,-3.273,-10.15,-4.41,-4.34
,-8.67,-2.3,-4.18,-9.229,-1.917,-3.979,-10.08,-3.78,-4.55
,-8.926,-2.584,-3.594,-8.887,-1.754,-4.288,-7.63,-3.57,-4.27
,-9.098,-2.702,-3.465,-8.492,-2.015,-4.106,-3.99,-3.57,-3.22
25460.0,-8.43,-2.369,-3.924,-9.217,-1.771,-2.345,-2.1,-3.71,-1.82
,-8.753,-2.441,-3.479,-9.127,-1.445,-2.12,-0.56,-2.17,-1.96
,-9.122,-2.414,-2.855,-8.993,-1.467,-2.082,2.31,-1.54,-1.61
,-9.222,-2.151,-2.455,-9.057,-1.493,-2.082,5.53,-1.05,-0.77
25536.0,-9.206,-1.747,-2.474,-8.77,-1.902,-4.398,3.92,6.02,-0.63
,-9.182,-1.977,-2.778,-8.557,-1.989,-4.872,3.15,6.93,-0.77
,-9.16,-1.969,-3.273,-8.547,-2.123,-4.932,3.29,7.28,-0.63
,-8.981,-1.948,-3.872,-8.533,-2.321,-4.855,3.08,7.0,-0.56
25612.0,-8.636,-2.434,-4.575,-8.796,-2.079,-4.192,0.63,5.25,-1.54
,-8.815,-2.398,-4.487,-8.804,-2.063,-4.188,2.59,4.97,-1.05
,-8.897,-2.257,-4.374,-8.897,-2.039,-4.25,4.34,4.34,-0.42
,-8.799,-2.156,-4.233,-8.839,-2.115,-4.087,4.97,3.99,0.0
25688.0,-8.777,-2.206,-3.819,-9.05,-1.876,-3.687,1.12,3.15,0.07
,-8.777,-2.292,-3.542,-8.985,-1.709,-4.116,1.4,3.71,0.07
,-8.806,-2.204,-3.343,-8.916,-1.656,-4.666,2.24,4.62,0.07
,-8.969,-2.056,-3.422,-8.777,-1.835,-4.795,3.01,5.11,0.21
25764.0,-8.653,-2.106,-4.714,-8.978,-2.268,-3.855,-2.24,1.96,0.14
,-8.638,-2.309,-4.609,-8.995,-1.993,-3.652,-1.33,1.96,0.21
,-8.691,-2.438,-4.314,-8.911,-1.91,-3.556,0.7,2.17,0.49
,-8.804,-2.436,-4.039,-8.983,-1.874,-3.527,3.22,2.31,1.05
25840.0,-8.954,-1.804,-3.68,-8.741,-1.91,-3.977,6.3,2.94,2.17
,-8.916,-1.816,-3.826,-8.835,-1.931,-3.946,5.39,2.73,1.89
,-8.856,-1.914,-4.042,-8.928,-1.912,-4.051,4.2,2.52,1.54
,-8.801,-1.814,-4.087,-8.938,-1.919,-4.066,3.01,2.52,1.19
25916.0,-8.947,-1.948,-3.936,-8.765,-2.101,-4.166,1.75,1.89,0.77
,-8.923,-2.044,-4.195,-8.923,-1.998,-4.058,1.47,1.47,0.91
,-8.837,-2.056,-4.204,-8.897,-1.977,-3.934,1.4,1.19,0.98
,-8.681,-2.084,-4.176,-8.856,-1.902,-3.728,1.12,1.33,0.84
25992.0,-8.926,-1.869,-3.644,-8.763,-2.137,-3.896,2.17,1.61,1.12
,-8.961,-1.974,-3.709,-8.794,-2.039,-3.91,2.59,1.61,1.4
,-8.94,-2.072,-3.774,-8.847,-1.979,-3.838,3.43,1.54,1.75
,-8.859,-2.111,-3.869,-8.93,-1.924,-3.628,4.34,1.47,2.03
26068.0,-8.938,-1.912,-3.546,-8.997,-1.912,-4.08,3.71,1.82,1.68
,-8.964,-2.041,-3.498,-8.904,-2.132,-4.3,3.64,1.68,2.03
,-8.973,-2.027,-3.683,-8.882,-2.242,-4.29,4.41,1.75,2.38
,-9.038,-1.924,-3.862,-8.854,-2.35,-4.125,5.11,1.26,2.94
26144.0,-8.894,-2.343,-3.999,-8.713,-1.833,-4.238,9.31,-0.49,4.69
,-8.873,-2.225,-3.924,-8.677,-1.756,-4.274,10.92,-0.7,4.76
,-8.789,-2.106,-3.955,-8.607,-2.015,-4.168,11.9,-0.91,4.83
,-8.701,-2.01,-4.063,-8.614,-1.938,-4.097,12.11,-1.47,4.83
26220.0,-8.77,-1.697,-4.116,-8.928,-1.546,-4.348,1.89,-0.49,1.68
,-8.93,-1.414,-4.19,-8.813,-1.957,-4.377,-0.63,-0.49,0.77
,-9.088,-1.263,-4.269,-8.65,-2.23,-4.121,-4.48,-0.91,0.07
,-9.014,-1.297,-4.357,-8.763,-2.333,-3.869,-8.61,-1.68,-0.56
26296.0,-8.854,-2.709,-3.484,-8.799,-2.307,-3.604,-8.12,-1.33,0.84
,-8.93,-2.781,-3.683,-8.756,-2.237,-3.532,-4.41,-1.19,2.03
,-8.902,-2.515,-3.79,-8.744,-2.34,-3.197,-0.98,-1.75,3.08
,-8.811,-2.386,-3.853,-8.763,-2.197,-2.864,0.35,-1.75,3.71
26372.0,-9.081,-1.816,-3.427,-8.93,-1.397,-3.96,4.69,3.92,6.16
,-9.177,-1.584,-3.92,-9.04,-1.816,-3.501,5.39,3.36,6.02
,-9.076,-1.455,-4.118,-8.904,-2.527,-3.774,4.97,2.31,6.44
,-8.94,-1.278,-4.223,-8.612,-2.627,-3.448,3.71,1.54,6.65
26448.0,-8.631,-2.12,-4.247,-9.117,-1.165,-3.534,3.08,3.29,7.35
,-8.741,-1.89,-4.279,-9.069,-1.163,-3.419,4.41,3.29,7.42
,-8.799,-1.589,-4.14,-9.016,-1.141,-3.52,4.27,3.85,7.7
,-9.117,-1.244,-3.568,-8.897,-1.182,-3.491,3.57,4.06,7.77
26524.0,-9.072,-1.273,-3.697,-8.679,-1.773,-3.477,-3.85,2.87,3.64
,-8.897,-1.922,-3.716,-9.421,-0.921,-2.958,-5.46,4.06,3.5
,-8.727,-2.283,-3.333,-9.497,-0.615,-3.075,-3.99,6.37,4.34
,-8.471,-2.297,-3.848,-9.206,-0.462,-2.711,0.77,9.1,4.97
26600.0,-9.414,-0.665,-3.094,-8.435,-2.187,-3.391,7.28,7.21,3.71
,-9.052,-1.374,-3.582,-9.112,-1.548,-2.934,4.41,5.67,2.73
,-8.593,-1.902,-3.936,-9.452,-1.007,-3.57,3.01,6.09,2.87
,-8.318,-2.333,-3.697,-9.337,-0.675,-4.35,2.94,8.75,2.87
26676.0,-9.007,-0.715,-4.69,-8.579,-2.649,-4.491,5.88,7.14,2.17
,-8.713,-1.003,-4.927,-8.624,-2.563,-4.398,0.77,6.72,2.03
,-8.471,-1.933,-4.602,-8.837,-2.065,-3.879,-2.66,7.63,1.82
,-8.528,-2.393,-4.403,-8.82,-1.857,-3.644,-1.33,9.17,1.82
26752.0,-8.576,-2.051,-3.116,-8.784,-1.563,-4.898,10.08,11.76,4.27
,-8.768,-2.137,-3.518,-8.725,-1.505,-4.788,9.59,13.37,4.62
,-8.916,-2.249,-4.152,-8.5,-1.67,-4.372,11.41,12.95,4.83
,-8.839,-2.053,-4.724,-8.567,-1.46,-4.046,13.44,11.13,5.6
26828.0,-8.813,-1.259,-4.183,-8.875,-1.299,-4.35,16.17,9.87,5.6
,-8.942,-1.318,-4.283,-8.595,-1.634,-4.499,14.56,7.0,6.02
,-8.988,-1.139,-4.267,-8.684,-1.73,-4.815,12.25,6.02,5.74
,-9.213,-1.017,-4.362,-8.746,-1.321,-5.078,9.8,6.23,4.62
26904.0,-8.524,-0.687,-4.865,-8.837,-1.039,-5.027,9.59,2.03,-0.07
,-8.428,-0.672,-4.721,-8.629,-1.328,-4.783,7.35,3.29,-1.61
,-8.595,-1.151,-4.697,-8.603,-1.972,-4.197,5.46,4.55,-3.36
,-8.878,-1.079,-4.879,-8.658,-2.661,-3.625,6.3,4.76,-3.99
26980.0,-8.878,-2.893,-3.747,-8.356,-2.13,-3.934,5.53,5.6,0.14
,-8.89,-2.828,-4.099,-8.16,-2.307,-3.869,10.71,3.71,1.75
,-8.88,-2.312,-4.422,-8.282,-2.608,-3.994,14.14,2.8,2.66
,-8.804,-2.175,-4.257,-8.595,-2.601,-4.068,13.65,3.15,3.22
27056.0,-8.732,-2.391,-3.936,-8.413,-1.445,-4.862,11.97,7.98,6.86
,-9.005,-2.091,-4.161,-8.346,-1.402,-4.659,12.88,7.91,7.56
,-9.124,-1.864,-4.513,-8.452,-1.579,-4.386,13.02,6.58,8.26
,-8.784,-1.675,-4.733,-8.693,-1.79,-4.283,13.02,5.53,9.31
27132.0,-9.387,-1.584,-4.209,-8.71,-0.692,-5.307,9.73,6.37,11.06
,-9.253,-1.598,-4.255,-8.626,-0.471,-5.47,9.8,4.69,11.9
,-8.808,-0.952,-4.408,-8.531,-0.505,-5.303,11.06,3.01,12.74
,-8.547,-0.957,-4.953,-8.698,-0.546,-4.984,11.41,2.73,12.39
27208.0,-8.899,-0.608,-4.817,-8.559,-2.558,-4.066,7.35,1.26,3.15
,-8.89,-0.634,-4.795,-8.547,-3.443,-3.857,6.93,0.28,2.38
,-8.655,-0.986,-4.568,-8.524,-3.63,-3.984,5.81,-1.12,2.59
,-8.626,-1.749,-4.252,-8.536,-3.23,-4.513,4.13,-0.42,3.29
27284.0,-8.552,-2.663,-4.98,-8.926,-2.209,-4.482,8.26,1.82,6.3
,-8.571,-2.063,-5.087,-8.997,-1.998,-4.532,7.07,1.89,6.16
,-8.674,-1.835,-4.8,-8.593,-1.989,-4.494,4.13,2.24,6.16
,-8.741,-1.953,-4.544,-8.77,-1.883,-4.362,0.56,3.29,7.14
27360.0,-9.107,-1.582,-4.494,-8.44,-0.246,-5.432,5.95,5.39,8.89
,-9.033,-1.161,-4.836,-8.531,-0.658,-5.236,7.42,3.99,8.75
,-8.799,-0.675,-5.154,-8.603,-1.034,-4.98,8.4,2.94,7.42
,-8.533,-0.115,-5.494,-8.526,-1.39,-4.733,7.56,1.61,5.6
27436.0,-8.799,-1.589,-4.269,-8.753,-1.773,-4.209,-0.91,3.92,1.26
,-9.337,-1.728,-4.02,-8.961,-1.517,-4.678,-0.84,2.73,1.54
,-8.526,-2.369,-4.008,-8.964,-1.184,-5.018,0.91,2.59,0.42
,-8.957,-1.866,-3.948,-9.026,-1.318,-5.178,4.27,3.71,-0.14
27512.0,-8.825,-1.553,-5.035,-8.536,-1.646,-4.585,2.94,2.87,0.63
,-8.559,-1.725,-5.111,-8.909,-1.519,-4.659,2.94,2.66,0.07
,-8.49,-2.022,-4.891,-8.969,-1.493,-4.704,3.15,3.29,-0.21
,-8.346,-1.907,-4.616,-8.911,-1.575,-4.805,4.2,4.27,0.14
27588.0,-8.698,-1.814,-5.025,-8.923,-1.534,-4.728,0.42,3.15,0.91
,-8.636,-1.996,-4.922,-8.847,-1.12,-4.707,0.49,3.43,0.91
,-8.507,-2.283,-4.8,-8.705,-1.007,-4.87,2.03,3.99,1.26
,-8.971,-2.06,-4.661,-8.595,-1.146,-4.812,5.46,3.71,0.98
27664.0,-8.591,-1.512,-4.719,-8.897,-1.448,-4.762,1.47,3.08,-0.35
,-8.739,-1.761,-4.647,-8.698,-1.397,-4.783,1.61,3.43,-0.49
,-8.808,-1.776,-4.652,-8.66,-1.445,-4.712,2.31,3.15,-0.49
,-8.801,-1.685,-4.731,-8.528,-1.67,-4.642,3.29,3.01,-0.35
27740.0,-8.658,-2.008,-4.549,-8.842,-1.46,-4.664,0.14,2.24,-0.91
,-8.804,-2.19,-4.527,-8.753,-1.086,-4.716,1.33,2.31,-0.14
,-8.942,-2.173,-4.42,-8.421,-0.773,-4.805,3.64,2.24,0.35
,-8.832,-1.742,-4.556,-8.476,-0.921,-4.949,5.95,1.75,0.35
27816.0,-8.658,-1.374,-4.836,-8.77,-2.137,-4.532,0.35,2.03,-3.15
,-8.763,-1.694,-4.678,-8.885,-2.125,-4.614,0.63,2.03,-3.57
,-8.631,-1.878,-4.489,-8.648,-1.96,-4.669,1.61,1.96,-3.36
,-8.636,-1.96,-4.374,-8.665,-1.967,-4.707,2.87,2.1,-2.8
27892.0,-8.399,-2.175,-4.561,-8.629,-1.716,-4.755,4.48,2.94,-2.38
,-8.55,-2.213,-4.523,-8.684,-1.362,-4.896,4.83,3.5,-1.96
,-8.784,-2.295,-4.623,-8.598,-1.223,-4.872,5.18,3.5,-1.82
,-8.882,-2.012,-4.704,-8.557,-1.35,-4.877,5.88,3.43,-1.68
27968.0,-8.765,-1.429,-4.874,-8.643,-1.371,-5.09,1.33,5.18,-3.99
,-8.849,-1.534,-4.965,-8.722,-1.397,-5.197,1.89,5.18,-4.41
,-8.957,-1.601,-4.941,-8.832,-1.441,-5.035,2.94,4.48,-5.04
,-8.66,-1.464,-5.049,-8.693,-1.61,-4.862,4.2,3.92,-5.32
28044.0,-8.49,-1.615,-4.685,-8.76,-1.146,-4.762,-0.21,3.08,-7.28
,-8.246,-1.618,-4.692,-8.698,-1.323,-4.642,-0.14,3.08,-7.56
,-8.366,-1.266,-4.92,-8.679,-1.572,-4.561,0.98,3.57,-8.33
,-8.581,-1.034,-4.941,-8.715,-1.955,-4.575,0.98,3.5,-9.45
28120.0,-8.693,-2.017,-4.585,-8.536,-2.824,-4.511,0.07,3.85,-10.99
,-8.514,-2.35,-4.611,-8.349,-2.793,-4.247,0.28,3.71,-10.22
,-8.492,-2.558,-4.573,-8.325,-2.761,-4.183,0.21,3.99,-9.38
,-8.504,-2.685,-4.535,-8.559,-2.647,-4.372,0.7,4.27,-8.89
28196.0,-8.614,-2.41,-4.542,-8.459,-1.433,-4.652,3.15,7.21,-3.08
,-8.605,-2.07,-4.738,-8.66,-1.232,-5.085,2.94,7.07,-2.8
,-8.55,-1.948,-4.74,-8.753,-1.168,-4.707,2.73,6.72,-2.87
,-8.43,-1.723,-4.7,-8.624,-1.201,-4.678,2.87,6.65,-2.73
28272.0,-8.464,-1.333,-4.865,-8.33,-1.79,-4.602,0.0,4.27,-3.71
,-8.519,-1.314,-4.984,-8.294,-2.046,-4.599,0.42,3.78,-4.76
,-8.552,-1.321,-4.956,-8.378,-2.012,-4.764,0.84,3.08,-6.02
,-8.433,-1.431,-4.738,-8.524,-1.876,-4.98,0.7,3.15,-6.65
28348.0,-8.555,-1.809,-5.059,-8.404,-2.455,-4.807,0.42,3.36,-6.65
,-8.495,-1.886,-5.056,-8.516,-2.68,-4.788,-1.05,3.64,-6.65
,-8.416,-2.067,-4.944,-8.607,-2.8,-5.006,-2.94,3.85,-6.3
,-8.483,-2.158,-4.915,-8.392,-2.546,-5.293,-3.99,3.99,-6.02
28424.0,-7.985,-2.237,-5.394,-8.681,-1.96,-5.152,-1.54,0.42,-3.15
,-7.698,-2.185,-5.272,-8.631,-2.304,-4.872,-0.77,0.84,-2.73
,-8.064,-2.233,-5.169,-8.332,-2.642,-4.917,-2.45,0.98,-3.08
,-8.516,-1.926,-5.322,-8.167,-2.479,-4.925,-1.4,1.89,-3.5
28500.0,-8.239,-2.271,-4.977,-8.595,-1.986,-5.568,-2.03,1.75,-2.03
,-8.253,-1.855,-4.97,-8.485,-2.273,-5.396,-0.63,1.47,-1.68
,-8.303,-1.39,-5.564,-8.325,-2.364,-4.958,-0.49,1.47,-2.45
,-8.48,-1.539,-5.544,-8.263,-2.479,-4.831,-2.8,1.89,-3.36
28576.0,-8.189,-2.503,-4.788,-8.368,-2.333,-4.365,-2.73,-3.22,-2.66
,-8.349,-2.513,-4.853,-8.662,-2.458,-4.178,-2.45,-4.2,-2.59
,-8.2,-2.245,-4.781,-8.732,-2.268,-4.161,-3.43,-4.34,-2.1
,-8.15,-2.127,-4.59,-8.679,-2.149,-4.243,-4.41,-3.5,-1.89
28652.0,-8.375,-1.998,-4.362,-8.485,-1.256,-4.286,0.14,-0.35,1.54
,-8.428,-1.876,-4.353,-8.796,-1.414,-4.295,0.28,-1.19,1.33
,-8.332,-1.608,-4.413,-8.672,-1.663,-4.159,0.07,-2.73,0.77
,-8.291,-1.338,-4.288,-8.533,-1.905,-3.951,-0.91,-3.5,0.0
28728.0,-8.681,-2.067,-4.195,-8.071,-1.795,-4.989,-4.69,-0.77,-3.15
,-8.677,-2.051,-4.525,-8.301,-1.809,-5.016,-3.08,-1.4,-2.94
,-8.502,-1.957,-4.625,-8.385,-1.912,-4.944,-1.96,-2.17,-2.24
,-8.239,-1.802,-4.879,-8.437,-2.302,-4.314,-1.12,-2.59,-1.61
28804.0,-8.536,-2.376,-4.295,-8.33,-2.161,-4.168,-3.64,-2.8,-2.38
,-8.708,-2.285,-4.214,-8.205,-2.173,-4.47,-2.45,-3.36,-2.52
,-8.693,-2.508,-4.078,-8.282,-2.242,-4.664,-1.33,-4.2,-2.8
,-8.689,-2.091,-4.075,-8.37,-2.079,-4.432,-2.59,-4.69,-1.61
28880.0,-8.567,-1.845,-4.616,-8.48,-1.788,-4.381,3.5,-3.08,-0.07
,-8.624,-1.802,-4.568,-8.461,-1.876,-4.042,4.2,-2.8,0.35
,-8.629,-1.565,-4.434,-8.658,-1.85,-4.228,3.78,-2.52,0.56
,-8.6,-1.694,-4.415,-8.614,-1.864,-4.506,2.24,-2.31,0.0
28956.0,-8.497,-1.747,-4.343,-8.55,-1.943,-4.448,0.91,-0.98,-1.4
,-8.382,-1.79,-4.183,-8.622,-1.989,-4.932,-0.28,-0.56,-1.89
,-8.495,-1.919,-4.307,-8.461,-2.178,-5.09,-0.35,0.0,-2.31
,-8.586,-2.017,-4.439,-8.267,-2.355,-4.893,0.0,-0.21,-2.52
29032.0,-8.241,-2.532,-4.606,-8.332,-2.024,-5.011,-1.82,0.07,-1.96
,-8.392,-2.673,-4.515,-8.205,-2.331,-4.592,0.0,0.63,-1.82
,-8.622,-2.283,-4.817,-8.454,-2.649,-4.427,2.73,0.56,-1.61
,-8.696,-2.003,-5.422,-8.82,-2.608,-4.59,3.08,-1.54,-1.26
29108.0,-8.796,-2.134,-4.841,-8.579,-2.268,-4.695,6.3,-1.33,0.7
,-8.665,-1.905,-5.523,-8.521,-2.326,-4.453,6.16,-2.24,0.91
,-8.334,-1.91,-5.056,-8.607,-2.118,-4.578,3.71,-2.66,0.91
,-8.37,-2.027,-5.116,-8.67,-2.012,-4.764,2.38,-2.03,0.42
29184.0,-8.519,-2.005,-4.681,-8.801,-1.962,-4.843,2.59,-4.34,-0.7
,-8.356,-1.922,-4.547,-8.729,-2.06,-4.882,0.77,-3.85,-1.33
,-8.445,-1.9,-4.518,-8.54,-2.312,-4.829,-0.28,-3.22,-1.96
,-8.655,-1.962,-4.468,-8.473,-2.424,-4.733,-0.98,-2.94,-2.17
29259.0,-8.512,-1.945,-4.917,-8.44,-2.003,-4.503,1.75,-4.83,-0.91
,-8.691,-1.596,-5.106,-8.402,-2.099,-4.08,1.33,-5.6,-1.54
,-8.715,-1.429,-5.011,-8.588,-2.036,-3.922,-2.17,-6.86,-2.59
,-8.6,-1.62,-4.855,-8.923,-1.924,-4.178,-6.65,-7.63,-3.43
29334.0,-8.954,-1.941,-4.109,-8.555,-2.352,-3.735,-8.33,-7.07,-3.43
,-8.753,-2.149,-4.097,-8.713,-2.448,-3.522,-9.45,-6.86,-2.38
,-8.564,-2.496,-4.118,-8.768,-2.424,-3.616,-9.1,-6.44,-1.96
,-8.514,-2.498,-3.877,-8.72,-2.182,-4.058,-7.7,-5.53,-1.68
29409.0,-8.528,-2.022,-4.185,-8.464,-2.338,-3.539,-0.42,-2.59,0.14
,-8.447,-2.056,-4.444,-8.643,-2.201,-3.278,-0.35,-1.89,0.21
,-8.528,-2.197,-4.535,-8.878,-1.991,-3.096,0.07,-1.68,-0.07
,-8.536,-2.285,-4.113,-8.916,-1.819,-3.431,0.28,-1.54,-0.21
29484.0,-8.899,-1.866,-3.64,-8.624,-2.115,-4.018,2.87,3.08,-0.14
,-8.586,-2.082,-3.819,-8.765,-1.974,-4.319,1.75,3.36,-0.35
,-8.447,-2.252,-3.879,-8.622,-1.835,-4.346,1.61,4.34,-0.28
,-8.524,-2.273,-4.027,-8.579,-2.029,-4.458,2.59,5.18,-0.14
29559.0,-8.66,-2.223,-4.587,-8.437,-2.106,-4.97,1.4,5.81,-1.05
,-8.667,-2.182,-4.645,-8.236,-2.319,-4.977,2.03,5.67,-0.91
,-8.681,-2.008,-4.697,-8.349,-2.347,-5.162,2.73,5.32,-0.84
,-8.579,-1.953,-4.917,-8.428,-2.391,-5.138,2.52,5.04,-0.7
29634.0,-8.373,-2.441,-4.87,-8.746,-1.902,-4.75,3.22,2.52,0.14
,-8.476,-2.541,-4.673,-8.564,-1.857,-4.764,3.71,2.45,0.35
,-8.713,-2.434,-4.669,-8.473,-2.072,-4.649,5.04,2.59,0.63
,-8.753,-2.161,-4.654,-8.526,-2.292,-4.661,5.67,1.96,0.91
29709.0,-8.564,-2.302,-4.578,-8.574,-2.087,-4.63,3.71,0.7,1.26
,-8.547,-2.185,-4.625,-8.528,-2.211,-4.578,4.76,0.28,1.26
,-8.571,-2.13,-4.494,-8.413,-2.302,-4.424,5.32,0.07,1.26
,-8.54,-2.07,-4.578,-8.449,-2.35,-4.302,5.32,0.14,1.33
29784.0,-8.648,-2.247,-4.439,-8.638,-1.984,-4.324,7.63,0.14,2.17
,-8.763,-2.082,-4.441,-8.722,-1.989,-4.314,7.98,-0.07,2.17
,-8.643,-1.977,-4.35,-8.715,-2.034,-4.298,7.07,-0.28,1.96
,-8.562,-1.955,-4.381,-8.681,-2.111,-4.243,5.6,-0.14,1.61
29859.0,-8.643,-2.168,-4.149,-8.576,-1.845,-4.647,3.5,0.21,1.33
,-8.698,-2.125,-4.293,-8.528,-2.13,-4.518,4.41,0.49,1.4
,-8.741,-2.139,-4.367,-8.782,-2.125,-4.525,6.23,0.28,1.4
,-8.655,-1.936,-4.568,-8.593,-2.388,-4.527,6.86,-0.14,1.19
29934.0,-8.543,-2.393,-4.549,-8.626,-2.182,-4.393,3.15,-1.05,1.26
,-8.583,-2.242,-4.556,-8.674,-2.266,-4.365,4.48,-0.84,1.82
,-8.571,-2.111,-4.384,-8.6,-2.197,-4.422,4.13,-0.98,2.24
,-8.536,-2.242,-4.355,-8.533,-2.17,-4.436,3.36,-0.63,2.45
30009.0,-8.591,-2.307,-4.346,-8.732,-1.85,-4.305,4.97,-0.91,2.66
,-8.571,-2.182,-4.235,-8.617,-1.986,-4.197,5.6,-0.56,2.87
,-8.662,-2.137,-4.209,-8.631,-2.106,-4.14,6.58,-0.21,2.94
,-8.732,-1.984,-4.31,-8.66,-2.163,-4.159,7.49,-0.21,2.94
30084.0,-8.746,-2.146,-4.133,-8.71,-2.036,-4.551,4.62,0.56,3.5
,-8.792,-2.17,-4.137,-8.619,-1.998,-4.499,5.18,0.7,3.43
,-8.825,-2.065,-4.269,-8.557,-2.067,-4.484,5.53,0.77,3.36
,-8.792,-1.967,-4.42,-8.646,-1.986,-4.424,4.69,0.35,3.01
30159.0,-8.646,-2.118,-4.331,-8.744,-1.881,-4.501,1.33,-0.07,2.87
,-8.686,-2.225,-4.295,-8.641,-1.917,-4.535,0.84,-0.14,3.22
,-8.732,-2.194,-4.384,-8.626,-2.036,-4.496,1.68,-0.14,3.29
,-8.777,-1.996,-4.429,-8.605,-1.967,-4.487,2.45,-0.07,3.22
30234.0,-8.768,-1.888,-4.554,-8.789,-2.02,-4.664,-2.59,-0.91,2.73
,-8.823,-1.912,-4.599,-8.689,-2.046,-4.63,-3.64,-1.47,2.8
,-8.758,-2.029,-4.523,-8.586,-1.993,-4.666,-3.99,-2.03,2.66
,-8.777,-2.039,-4.537,-8.569,-2.044,-4.573,-4.2,-2.31,2.87
30309.0,-8.672,-1.953,-4.484,-8.784,-1.828,-4.396,-5.46,-4.06,4.48
,-8.825,-2.17,-4.226,-8.725,-1.744,-4.372,-6.23,-4.2,4.69
,-8.775,-2.02,-4.219,-8.725,-1.694,-4.365,-5.95,-4.27,5.11
,-8.801,-1.819,-4.314,-8.744,-1.63,-4.245,-5.95,-4.13,5.32
30384.0,-8.78,-1.653,-4.14,-8.804,-1.788,-3.807,-10.78,-4.76,4.2
,-8.839,-1.634,-4.02,-8.756,-1.831,-3.893,-12.53,-4.97,3.85
,-9.079,-1.701,-3.939,-8.823,-1.823,-4.03,-14.49,-4.69,3.71
,-8.88,-1.713,-3.805,-8.832,-1.596,-4.08,-16.31,-4.9,3.78
30459.0,-8.878,-1.443,-4.116,-8.734,-1.984,-3.735,-20.37,-2.03,3.92
,-9.021,-1.529,-4.003,-8.557,-2.642,-3.668,-23.03,-1.96,4.27
,-8.93,-1.747,-4.015,-8.83,-1.931,-3.704,-24.57,-1.96,4.34
,-8.859,-2.008,-3.893,-8.82,-2.13,-3.446,-23.87,-1.96,3.78
30534.0,-8.411,-2.266,-3.206,-8.966,-1.737,-3.719,-0.14,0.21,2.17
,-8.464,-2.24,-2.974,-8.832,-1.517,-3.936,4.97,2.24,3.29
,-8.844,-2.391,-3.01,-8.696,-1.342,-4.154,10.43,4.2,4.48
,-8.983,-2.283,-3.276,-8.612,-1.261,-4.159,16.03,5.39,5.11
30609.0,-8.753,-1.259,-4.35,-8.99,-1.091,-3.972,14.42,7.77,2.66
,-8.681,-1.098,-4.298,-9.038,-1.211,-4.178,12.88,7.21,1.47
,-8.658,-1.041,-4.106,-8.911,-1.831,-3.927,10.43,6.37,-0.21
,-8.918,-1.094,-4.113,-8.445,-2.158,-3.678,6.44,6.23,-1.89
30684.0,-8.313,-2.295,-3.525,-8.861,-1.524,-2.737,-14.84,8.12,-1.75
,-8.516,-2.314,-3.101,-9.062,-1.472,-3.364,-14.63,10.5,-0.84
,-8.78,-2.201,-2.735,-8.993,-1.235,-3.597,-13.65,12.67,0.49
,-8.949,-1.857,-2.8,-8.859,-1.194,-4.286,-12.67,14.14,1.33
30759.0,-8.409,-1.685,-4.178,-8.667,-1.539,-4.815,-19.67,16.59,6.58
,-7.952,-1.603,-4.137,-8.796,-1.177,-4.602,-19.11,17.57,6.72
,-8.153,-1.307,-4.365,-8.918,-0.981,-3.817,-15.26,19.53,5.88
,-8.492,-1.393,-4.523,-8.993,-0.727,-4.154,-12.53,21.28,4.9
30834.0,-8.99,-0.677,-4.659,-8.198,-0.95,-5.24,-15.12,23.87,8.26
,-8.844,-0.541,-5.095,-8.342,-1.082,-5.585,-14.84,21.98,7.21
,-8.598,-0.577,-5.42,-8.466,-1.017,-5.695,-15.61,20.09,5.25
,-8.294,-0.828,-5.322,-8.433,-0.895,-6.111,-17.15,19.25,4.55
30909.0,-8.069,-0.823,-6.229,-8.375,-0.605,-5.973,-15.26,12.74,1.75
,-8.229,-0.912,-6.312,-8.038,-1.058,-5.642,-18.13,11.9,-0.42
,-8.679,-0.682,-6.334,-8.165,-1.653,-5.298,-19.95,11.83,-2.8
,-8.662,-0.546,-6.111,-8.528,-2.209,-5.133,-21.91,11.48,-4.41
30984.0,-8.552,-2.288,-4.889,-8.239,-1.833,-5.248,-20.3,13.58,-0.28
,-8.598,-2.02,-4.724,-8.062,-1.742,-5.513,-13.65,13.44,2.45
,-8.545,-1.634,-4.972,-7.937,-1.584,-5.791,-8.47,12.39,4.48
,-8.179,-1.584,-5.284,-8.289,-1.333,-5.793,-5.46,10.5,5.53
31059.0,-8.442,-1.177,-5.839,-7.968,-0.421,-5.178,7.35,7.0,8.61
,-8.588,-1.077,-5.712,-7.968,-1.101,-5.178,6.44,6.09,7.91
,-8.674,-0.948,-5.532,-8.334,-1.077,-5.566,3.85,5.67,7.0
,-8.186,-1.613,-4.862,-8.562,-0.782,-5.614,1.68,6.02,6.37
31134.0,-8.526,-0.725,-5.432,-8.629,-0.646,-4.925,9.03,5.32,3.22
,-8.143,-0.933,-4.989,-8.77,-0.462,-5.319,9.38,6.79,3.92
,-8.248,-1.304,-4.47,-8.241,-0.323,-5.564,10.78,9.1,4.97
,-8.311,-0.804,-4.53,-7.887,-0.373,-5.408,11.55,7.91,6.51
31209.0,-7.942,-0.5,-5.444,-8.569,-0.572,-5.123,7.91,4.41,4.83
,-8.184,-0.689,-5.114,-8.313,-1.015,-5.147,8.68,4.97,3.71
,-8.617,-0.546,-4.937,-8.074,-1.287,-5.209,9.17,5.18,2.52
,-8.713,-0.62,-4.996,-7.992,-1.594,-5.226,8.89,4.55,1.26
31284.0,-8.098,-1.713,-5.039,-8.344,-1.266,-5.236,12.46,2.17,2.45
,-8.423,-1.651,-5.09,-8.253,-1.089,-5.327,14.28,2.59,2.87
,-8.488,-1.539,-5.269,-8.138,-1.106,-5.367,14.98,2.1,3.01
,-8.358,-1.548,-5.252,-8.485,-0.675,-5.425,14.56,1.75,3.5
31359.0,-8.528,-0.431,-5.441,-8.299,-1.359,-5.312,8.05,0.77,2.59
,-8.323,-0.529,-5.078,-8.514,-1.397,-5.114,4.97,0.98,2.24
,-8.143,-0.704,-4.98,-8.54,-0.67,-5.528,2.94,1.54,2.03
,-8.081,-1.089,-5.071,-8.224,-0.196,-5.942,1.89,1.89,2.24
31434.0,-7.999,-0.38,-5.987,-8.603,-1.831,-5.645,6.37,-2.1,2.52
,-8.114,-0.452,-5.956,-8.483,-1.998,-5.374,6.37,-2.52,1.12
,-8.191,-0.78,-5.92,-8.349,-2.041,-5.499,5.53,-2.59,0.0
,-8.136,-1.45,-5.829,-8.076,-1.852,-5.607,4.69,-2.59,-1.05
31509.0,-8.141,-1.488,-5.669,-8.476,-1.421,-5.554,8.61,-5.04,3.01
,-7.988,-1.23,-5.7,-8.533,-1.173,-5.53,9.45,-5.04,2.73
,-8.217,-1.206,-5.633,-8.442,-1.302,-5.492,8.54,-5.32,2.66
,-8.251,-1.316,-5.671,-8.26,-1.055,-5.504,7.56,-5.32,3.15
31584.0,-8.155,-1.369,-5.322,-8.165,-1.838,-5.365,9.1,-7.28,4.76
,-8.16,-1.429,-5.269,-8.449,-1.503,-5.528,8.89,-6.3,4.2
,-8.679,-1.426,-5.128,-8.473,-1.18,-5.621,9.24,-6.3,4.41
,-8.502,-1.498,-5.401,-8.478,-0.897,-5.566,9.87,-7.84,5.04
31659.0,-8.454,-0.328,-5.559,-8.648,-1.089,-5.095,12.25,-9.73,4.27
,-8.449,-0.299,-5.41,-8.701,-1.512,-4.958,10.78,-10.29,3.29
,-8.691,-0.469,-5.14,-8.605,-1.541,-4.977,9.1,-10.29,2.66
,-8.689,-0.732,-4.941,-8.21,-1.606,-5.181,7.56,-10.71,3.57
31734.0,-8.241,-1.397,-5.226,-8.856,-0.627,-4.901,14.7,-10.43,5.74
,-8.871,-0.895,-5.305,-8.655,-0.522,-4.733,13.16,-8.54,5.39
,-8.43,-1.216,-5.092,-8.748,-0.443,-4.582,12.32,-9.45,4.83
,-8.591,-1.012,-4.85,-8.581,-0.364,-4.544,13.72,-9.1,3.92
31809.0,-8.504,-0.519,-4.635,-8.667,-1.436,-4.695,7.49,-5.74,-1.19
,-8.6,-0.555,-4.678,-8.672,-1.474,-4.767,7.21,-5.11,-1.75
,-8.591,-0.644,-4.7,-8.588,-1.35,-4.834,7.91,-5.04,-1.54
,-8.485,-0.983,-4.781,-8.617,-1.5,-4.81,8.12,-5.6,-0.42
31884.0,-8.76,-1.448,-4.759,-8.54,-1.929,-4.702,9.52,-4.55,0.21
,-8.504,-1.565,-4.582,-8.617,-1.701,-4.575,7.63,-5.11,0.56
,-8.385,-1.737,-4.599,-8.617,-1.622,-4.604,6.16,-5.11,0.91
,-8.351,-1.938,-4.781,-8.94,-1.393,-4.585,5.6,-4.13,1.68
31959.0,-9.026,-1.251,-4.568,-8.512,-0.787,-4.879,7.63,-1.82,2.73
,-8.787,-1.263,-4.58,-8.658,-0.83,-4.941,7.63,-1.96,3.29
,-8.55,-1.237,-4.635,-8.899,-0.766,-4.946,7.98,-1.89,3.57
,-8.488,-1.199,-4.652,-8.863,-0.991,-4.788,7.49,-1.4,3.64
32034.0,-8.737,-1.113,-4.7,-8.567,-1.785,-4.518,5.53,-0.35,0.56
,-8.586,-1.407,-4.664,-8.509,-1.598,-4.618,4.62,-0.28,0.56
,-8.545,-1.711,-4.623,-8.641,-1.223,-4.712,3.92,0.0,0.84
,-8.562,-1.886,-4.551,-8.734,-1.225,-4.704,3.92,0.42,1.26
32109.0,-8.727,-1.213,-4.587,-8.859,-0.438,-4.743,3.64,0.98,2.38
,-8.614,-1.036,-4.602,-8.825,-0.706,-4.568,3.99,0.77,2.45
,-8.543,-0.639,-4.685,-8.538,-0.993,-4.444,4.69,0.42,2.31
,-8.643,-0.395,-4.841,-8.521,-0.964,-4.415,4.55,0.63,1.61
32184.0,-8.732,-1.029,-4.532,-8.361,-1.967,-4.518,1.05,3.08,-1.26
,-8.863,-1.419,-4.549,-8.528,-1.689,-4.561,0.07,3.22,-1.4
,-8.813,-1.788,-4.635,-8.725,-1.182,-4.683,-0.14,3.08,-0.98
,-8.485,-1.993,-4.573,-8.823,-0.89,-4.704,0.84,3.15,-0.21
32259.0,-8.725,-0.577,-4.786,-8.83,-1.622,-4.702,0.91,5.39,-0.35
,-8.574,-0.567,-4.874,-8.626,-1.376,-4.721,-1.19,5.74,-0.7
,-8.598,-0.905,-4.886,-8.495,-1.254,-4.905,-2.66,6.16,-1.33
,-8.756,-1.405,-4.724,-8.425,-1.321,-4.841,-2.87,7.0,-1.54
32334.0,-8.349,-1.527,-4.681,-8.603,-1.625,-4.822,-0.35,8.75,-1.96
,-8.454,-1.857,-4.63,-8.483,-1.469,-4.939,-1.26,10.08,-1.26
,-8.717,-1.89,-4.731,-8.509,-1.187,-5.013,-1.26,10.92,-1.05
,-8.806,-1.816,-4.781,-8.605,-0.732,-5.095,-1.05,11.06,-0.91
32409.0,-8.665,-0.869,-4.87,-8.536,-0.749,-4.922,-3.15,11.62,0.49
,-8.734,-0.976,-4.865,-8.54,-0.799,-5.207,-3.71,11.76,-0.14
,-8.667,-0.955,-4.767,-8.636,-0.627,-5.389,-3.64,11.55,-0.63
,-8.521,-0.723,-4.889,-8.691,-0.704,-5.477,-3.5,11.34,-0.91
32484.0,-8.641,-0.794,-5.497,-8.378,-1.247,-5.243,-6.09,11.41,-3.85
,-8.593,-1.084,-5.305,-8.624,-1.129,-5.279,-7.14,11.27,-4.41
,-8.368,-1.357,-5.111,-8.643,-1.034,-5.358,-7.49,11.06,-4.48
,-8.191,-1.419,-5.152,-8.576,-1.031,-5.389,-6.86,11.2,-4.06
32559.0,-8.452,-1.036,-5.358,-8.614,-1.967,-5.358,-6.44,11.2,-5.39
,-8.294,-1.33,-5.272,-8.531,-1.79,-5.494,-7.49,11.55,-5.18
,-8.323,-1.639,-5.286,-8.483,-1.859,-5.53,-7.0,11.9,-4.62
,-8.327,-1.893,-5.355,-8.421,-1.855,-5.54,-5.95,12.04,-3.85
32634.0,-8.55,-1.957,-5.516,-8.102,-1.709,-5.504,0.21,9.94,-0.7
,-8.428,-2.058,-5.444,-8.234,-1.424,-5.528,0.49,9.31,0.35
,-8.236,-1.974,-5.597,-8.402,-1.407,-5.537,1.68,8.89,0.7
,-8.05,-1.914,-5.489,-8.392,-1.125,-5.585,2.24,8.82,0.77
32709.0,-8.361,-0.893,-5.592,-8.212,-0.641,-5.262,6.58,8.68,1.47
,-8.404,-0.804,-5.554,-8.141,-0.771,-5.245,6.65,8.61,1.47
,-8.476,-0.876,-5.377,-8.404,-0.794,-5.238,7.35,8.4,0.98
,-8.421,-0.73,-5.413,-8.61,-0.907,-5.382,9.03,6.16,0.07
32784.0,-8.471,-0.438,-5.583,-8.189,-0.885,-5.485,9.17,4.34,-2.94
,-8.265,-1.041,-5.626,-8.296,-1.027,-5.245,11.97,3.85,-2.59
,-8.265,-0.883,-5.726,-8.428,-0.878,-5.044,13.16,3.85,-3.22
,-8.186,-0.873,-5.683,-8.483,-1.017,-5.157,12.18,3.85,-3.64
32859.0,-8.729,-1.333,-5.214,-7.916,-1.771,-5.272,6.37,4.48,-2.94
,-8.476,-1.455,-5.164,-7.988,-1.73,-5.26,7.49,3.08,-3.22
,-8.131,-1.33,-5.293,-8.222,-1.783,-5.281,8.47,1.54,-3.5
,-7.916,-1.546,-5.358,-8.124,-1.802,-5.401,8.4,1.19,-3.57
32934.0,-8.114,-1.735,-5.327,-8.332,-0.866,-5.255,8.12,1.82,-1.89
,-8.083,-1.577,-5.382,-8.284,-0.78,-5.401,8.4,1.96,-1.61
,-8.263,-1.283,-5.334,-8.241,-0.972,-5.231,9.45,1.75,-2.17
,-8.315,-0.981,-5.188,-8.332,-1.28,-5.059,9.17,1.19,-2.45
33009.0,-8.208,-1.922,-5.097,-7.983,-2.087,-5.607,-1.82,-1.89,-3.5
,-8.349,-2.194,-5.171,-8.019,-2.058,-5.47,1.68,-2.24,-3.64
,-8.275,-2.151,-5.343,-8.236,-1.862,-5.645,5.11,-3.15,-3.5
,-8.098,-2.022,-5.477,-8.332,-1.761,-5.666,8.05,-3.85,-3.29
33084.0,-8.227,-1.749,-5.743,-8.421,-1.835,-5.236,10.85,-5.74,-1.61
,-7.935,-1.443,-5.803,-8.655,-1.962,-5.274,11.13,-6.72,-1.19
,-7.729,-1.24,-5.676,-8.464,-1.945,-5.334,9.87,-6.58,-1.47
,-8.059,-1.486,-5.374,-8.366,-1.864,-5.336,7.28,-5.46,-2.17
33159.0,-8.323,-1.907,-5.42,-8.409,-0.878,-5.315,11.2,-6.23,0.0
,-8.1,-1.476,-5.58,-8.421,-0.782,-5.607,11.83,-6.93,0.21
,-8.064,-1.163,-5.786,-8.334,-0.921,-5.499,10.57,-7.35,-0.07
,-7.873,-1.424,-4.774,-8.495,-1.11,-5.257,8.68,-7.84,-0.49
33234.0,-8.366,-1.445,-4.999,-8.047,-1.412,-5.257,-3.64,-6.93,-3.29
,-8.495,-1.642,-5.001,-8.162,-1.261,-5.236,-3.29,-6.51,-3.15
,-8.504,-1.632,-5.071,-8.418,-1.469,-5.272,-2.87,-6.72,-2.66
,-8.433,-1.62,-5.138,-8.421,-1.756,-5.257,-2.66,-8.26,-2.73
33309.0,-8.559,-2.017,-5.104,-8.303,-2.204,-4.736,-4.69,-7.07,-4.69
,-8.579,-2.422,-4.901,-8.356,-2.142,-4.721,-2.59,-6.93,-4.2
,-8.406,-2.391,-4.925,-8.241,-2.199,-4.575,0.63,-7.42,-3.15
,-8.354,-2.333,-4.913,-8.189,-2.036,-4.527,2.31,-8.19,-1.75
33384.0,-8.279,-1.857,-4.53,-8.342,-1.474,-5.207,0.28,-7.56,1.47
,-8.653,-1.924,-4.704,-8.545,-1.455,-5.207,0.84,-8.47,0.77
,-8.528,-1.795,-4.953,-8.435,-1.503,-5.24,2.1,-10.01,0.49
,-8.332,-1.649,-5.14,-8.528,-1.395,-5.066,3.43,-10.29,0.84
33459.0,-8.65,-1.254,-5.217,-8.528,-1.797,-4.48,8.89,-9.31,2.59
,-8.524,-1.347,-5.451,-8.622,-1.996,-4.664,8.54,-11.69,2.52
,-8.27,-1.441,-5.494,-8.603,-2.096,-4.642,7.35,-12.67,2.87
,-8.413,-1.598,-5.08,-8.531,-1.941,-4.707,5.25,-11.83,3.08
33534.0,-8.607,-1.421,-4.929,-8.947,-1.125,-3.527,7.07,-12.25,4.69
,-8.433,-1.359,-4.714,-9.081,-0.962,-3.589,5.74,-13.23,4.2
,-8.483,-1.378,-4.195,-8.89,-1.084,-4.154,4.34,-13.23,3.43
,-8.768,-1.338,-3.807,-8.626,-0.979,-4.049,3.92,-12.67,2.8
33609.0,-8.555,-0.89,-4.154,-8.976,-1.871,-3.128,1.26,-15.47,-1.12
,-8.729,-1.074,-3.898,-8.83,-1.778,-3.195,0.0,-14.77,-2.45
,-8.873,-1.237,-3.609,-8.916,-2.012,-3.063,-1.82,-13.65,-3.36
,-8.985,-1.709,-3.369,-8.933,-1.95,-2.807,-2.59,-12.39,-3.5
33684.0,-8.945,-2.17,-2.984,-8.655,-1.764,-4.343,2.1,-7.14,-0.77
,-8.837,-2.072,-3.056,-8.569,-1.972,-4.724,3.5,-6.02,-0.91
,-8.823,-1.606,-3.477,-8.586,-2.089,-4.898,4.55,-4.83,-0.98
,-8.794,-1.508,-4.085,-8.629,-2.079,-4.917,4.27,-4.34,-1.26
33759.0,-8.734,-2.058,-4.886,-9.15,-1.606,-3.276,9.24,-4.55,0.63
,-8.727,-1.895,-4.357,-9.122,-1.333,-3.503,10.01,-4.97,0.7
,-8.882,-1.754,-3.745,-9.007,-1.101,-4.688,9.8,-4.48,0.7
,-9.064,-1.701,-3.173,-8.71,-1.108,-5.42,8.82,-3.64,0.56
33834.0,-8.382,-1.429,-5.221,-9.119,-2.424,-2.754,-1.68,-5.81,-2.1
,-8.413,-1.74,-4.874,-9.148,-2.166,-2.462,-4.69,-5.18,-2.66
,-8.744,-2.053,-4.295,-9.277,-1.895,-2.723,-5.81,-4.55,-3.08
,-9.002,-2.343,-3.451,-9.206,-1.467,-2.828,-4.76,-4.62,-2.94
33909.0,-9.007,-1.474,-2.831,-8.961,-2.096,-3.991,3.08,-0.14,0.77
,-8.801,-1.881,-3.151,-9.038,-1.814,-4.664,1.54,1.47,0.7
,-8.717,-2.154,-3.104,-8.82,-1.699,-5.013,1.96,2.8,0.7
,-8.866,-2.283,-3.183,-8.447,-1.565,-5.016,4.2,4.2,1.19
33984.0,-8.406,-1.57,-4.776,-9.064,-1.582,-3.731,7.42,1.05,0.63
,-8.591,-1.606,-4.692,-9.028,-1.558,-3.735,6.51,1.12,-0.14
,-8.847,-1.596,-4.338,-8.94,-1.565,-4.008,5.6,1.33,-0.56
,-9.026,-1.658,-3.955,-8.911,-1.663,-3.975,4.27,0.91,-0.77
34059.0,-8.878,-1.941,-3.836,-8.945,-1.687,-3.831,-3.85,1.33,-1.54
,-8.899,-2.039,-3.63,-8.981,-1.651,-4.219,-5.04,1.75,-1.75
,-8.918,-1.922,-3.484,-8.866,-1.675,-4.724,-5.46,2.1,-1.82
,-8.964,-1.888,-3.522,-8.684,-1.828,-4.817,-5.32,2.59,-1.54
34134.0,-8.552,-2.101,-4.867,-8.938,-1.859,-3.898,-3.64,0.49,-0.07
,-8.636,-2.18,-4.86,-8.935,-1.773,-3.446,-1.89,0.35,0.21
,-8.689,-2.099,-4.625,-8.894,-1.862,-3.166,0.28,-0.21,0.49
,-8.813,-1.922,-4.235,-8.971,-1.955,-3.214,1.82,-0.49,0.7
34209.0,-8.935,-2.01,-3.429,-8.827,-1.613,-4.212,4.83,1.89,1.33
,-8.882,-1.869,-3.776,-8.894,-1.543,-4.137,6.16,2.24,1.68
,-8.842,-1.776,-3.977,-8.918,-1.582,-4.257,6.44,2.59,1.89
,-8.813,-1.742,-4.101,-8.969,-1.577,-4.482,5.95,2.66,1.89
34284.0,-8.863,-1.598,-4.578,-8.756,-1.807,-4.379,1.19,1.33,0.77
,-8.794,-1.697,-4.635,-8.878,-1.847,-3.936,0.56,0.84,0.7
,-8.696,-1.79,-4.707,-8.969,-1.807,-3.62,0.28,0.7,0.63
,-8.643,-1.831,-4.666,-9.043,-1.778,-3.283,0.35,0.56,0.63
34359.0,-9.067,-1.74,-3.348,-8.775,-1.852,-4.006,1.05,1.19,0.35
,-8.959,-1.596,-3.446,-8.799,-1.804,-4.125,1.19,1.75,0.49
,-8.935,-1.62,-3.702,-8.818,-1.706,-4.056,0.77,1.96,0.63
,-8.847,-1.711,-3.891,-8.985,-1.627,-4.104,0.42,2.45,0.63
34434.0,-9.093,-1.503,-4.216,-8.741,-1.948,-4.401,0.84,2.87,0.35
,-8.945,-1.548,-4.36,-8.763,-1.998,-4.192,-0.14,1.96,-0.07
,-8.717,-1.632,-4.374,-8.835,-1.859,-4.121,-0.98,1.61,-0.35
,-8.698,-1.835,-4.391,-8.902,-1.788,-3.929,-1.05,1.61,-0.28
34509.0,-8.954,-1.747,-3.917,-8.928,-1.723,-3.951,3.78,1.61,0.91
,-8.923,-1.819,-3.843,-8.93,-1.706,-3.91,3.43,1.75,0.98
,-8.859,-1.792,-3.814,-8.969,-1.656,-4.018,3.57,2.17,1.05
,-8.823,-1.788,-3.929,-8.892,-1.663,-4.061,3.5,2.66,1.05
34584.0,-8.77,-1.744,-4.027,-8.82,-1.843,-4.039,2.24,2.8,0.91
,-8.746,-1.826,-4.142,-8.83,-1.761,-4.068,2.17,3.08,0.91
,-8.823,-1.845,-4.183,-8.844,-1.74,-3.948,2.52,3.29,1.05
,-8.868,-1.874,-4.104,-8.878,-1.73,-3.932,2.94,3.29,1.19
34659.0,-8.801,-1.792,-3.948,-8.88,-1.855,-3.984,3.08,2.94,0.77
,-8.787,-1.685,-4.082,-8.873,-1.79,-4.092,2.66,2.94,0.35
,-8.808,-1.709,-3.977,-8.854,-1.735,-4.14,1.68,3.15,-0.07
,-8.83,-1.821,-3.939,-8.851,-1.67,-4.118,0.77,3.71,-0.28
34734.0,-8.806,-1.917,-4.121,-8.622,-2.625,-4.008,0.07,3.78,-0.35
,-8.674,-2.443,-4.109,-8.76,-2.084,-3.896,0.49,4.06,0.42
,-8.662,-2.682,-4.121,-8.842,-1.364,-3.843,2.8,4.41,1.61
,-8.626,-2.886,-4.025,-9.012,-0.751,-3.946,6.65,4.83,3.22
34809.0,-9.208,-0.574,-4.001,-8.784,-1.096,-4.35,11.62,6.51,3.85
,-9.237,-0.677,-4.113,-8.765,-1.141,-4.448,6.86,5.88,2.66
,-9.072,-0.799,-4.223,-8.705,-1.45,-4.298,3.08,4.69,1.26
,-8.93,-1.0,-4.197,-8.636,-1.788,-4.247,0.56,3.57,-0.35
34884.0,-8.626,-2.091,-4.255,-8.679,-1.902,-4.42,-2.1,2.38,-2.03
,-8.681,-2.242,-4.152,-8.686,-1.828,-4.637,-1.12,2.8,-1.96
,-8.751,-2.197,-4.245,-8.708,-1.857,-4.681,0.07,3.01,-1.82
,-8.713,-2.067,-4.336,-8.725,-2.005,-4.793,0.77,2.8,-1.68
34959.0,-8.674,-2.02,-4.558,-8.935,-1.919,-3.68,-2.24,1.33,-0.91
,-8.693,-2.005,-4.192,-8.815,-1.811,-3.604,-2.8,1.33,-0.84
,-8.815,-1.902,-4.078,-8.751,-2.185,-4.197,-2.73,2.03,-0.42
,-8.964,-1.893,-3.821,-8.622,-2.405,-4.697,-2.87,2.24,-0.21
35034.0,-8.423,-2.343,-4.838,-9.198,-1.117,-3.668,-1.4,1.54,2.17
,-8.416,-2.108,-4.884,-9.117,-0.9,-3.082,0.63,1.19,2.87
,-8.545,-1.845,-4.386,-9.194,-1.046,-3.326,1.61,1.75,3.22
,-8.911,-1.381,-3.953,-9.012,-1.508,-3.278,0.91,2.24,2.45
35109.0,-8.727,-1.977,-3.273,-8.61,-2.355,-4.491,-13.02,2.73,-0.84
,-8.488,-2.599,-3.632,-8.576,-1.524,-4.511,-11.69,4.55,0.63
,-8.643,-3.096,-4.092,-8.734,-0.916,-4.463,-6.72,6.58,1.96
,-8.849,-2.982,-4.413,-8.978,-0.584,-4.508,0.63,6.93,3.57
35184.0,-9.076,-0.773,-4.29,-8.942,-1.943,-4.42,0.49,7.56,2.52
,-8.65,-1.61,-3.898,-8.866,-1.555,-4.532,-5.6,7.91,2.52
,-8.385,-1.948,-3.352,-8.753,-1.223,-4.939,-7.49,9.66,3.36
,-8.667,-1.862,-3.879,-8.622,-1.027,-4.917,-4.83,11.69,3.64
35259.0,-8.775,-1.043,-4.925,-8.866,-1.606,-3.606,3.22,7.0,4.76
,-8.722,-1.505,-4.616,-8.772,-1.402,-3.185,0.7,7.28,4.62
,-8.514,-1.656,-4.207,-8.856,-0.68,-3.321,-1.05,8.54,4.9
,-8.569,-1.642,-3.685,-8.926,-0.215,-3.984,-1.47,11.97,4.97
35334.0,-8.801,-0.392,-3.855,-8.851,-1.491,-4.468,-5.46,15.05,2.1
,-8.701,-0.651,-3.97,-8.949,-1.297,-4.63,-9.1,14.77,1.33
,-8.514,-1.015,-3.805,-8.811,-0.866,-4.733,-12.04,16.03,1.19
,-8.775,-1.278,-4.336,-8.698,-0.957,-4.539,-11.76,17.08,1.19
35409.0,-8.507,-1.469,-4.331,-8.136,-2.568,-4.946,-11.06,13.86,-3.57
,-8.265,-1.943,-4.149,-8.315,-2.596,-4.769,-12.46,15.4,-2.8
,-8.263,-2.225,-4.417,-8.459,-2.312,-4.7,-11.41,15.89,-1.47
,-8.212,-2.558,-4.762,-8.624,-2.077,-5.035,-9.31,15.47,0.35
35484.0,-8.588,-1.957,-5.566,-8.267,-2.228,-5.059,1.82,14.98,6.23
,-8.394,-2.158,-5.867,-7.849,-2.221,-4.862,2.73,12.67,7.35
,-8.437,-2.345,-5.741,-7.889,-2.314,-4.858,2.45,11.97,8.19
,-8.567,-2.357,-5.477,-8.191,-2.206,-4.905,2.38,12.11,8.12
35559.0,-8.521,-1.744,-4.996,-8.253,0.144,-5.958,6.44,15.12,13.79
,-8.617,-1.4,-5.255,-8.581,0.498,-5.956,7.91,14.77,14.14
,-8.55,-0.907,-5.372,-8.425,0.581,-5.635,9.66,14.28,13.65
,-8.318,-0.323,-5.812,-8.433,0.627,-4.922,11.34,12.39,12.6
35634.0,-8.179,0.371,-4.618,-8.502,-1.23,-4.917,-3.71,11.34,2.66
,-8.078,-0.215,-4.901,-8.346,-1.575,-5.049,-6.79,12.11,0.63
,-8.533,-0.553,-5.195,-8.299,-2.17,-5.374,-6.44,12.25,-0.63
,-8.504,-0.957,-5.193,-8.459,-2.142,-5.669,-3.78,11.34,-1.19
35709.0,-8.26,-1.596,-5.937,-8.37,-2.436,-5.439,9.59,5.81,3.64
,-7.81,-1.388,-5.966,-8.351,-2.288,-5.58,8.33,5.67,3.92
,-7.904,-1.474,-5.674,-8.038,-1.931,-5.705,4.55,7.14,3.29
,-8.062,-2.017,-5.465,-7.851,-1.943,-5.745,0.63,7.84,2.87
35784.0,-7.952,-1.991,-5.585,-8.167,-1.218,-5.664,5.88,7.42,7.56
,-8.205,-1.764,-5.724,-7.913,-0.933,-5.549,8.47,6.79,8.82
,-8.323,-1.584,-5.729,-7.806,-0.72,-5.559,9.52,5.95,10.15
,-8.399,-1.405,-5.688,-8.04,-0.567,-5.374,9.59,5.04,10.92
35859.0,-8.612,-0.261,-5.087,-8.244,0.392,-5.214,6.79,5.25,7.98
,-8.813,0.084,-5.138,-7.925,0.175,-5.056,5.6,4.55,6.37
,-8.928,0.182,-5.138,-8.165,0.28,-4.939,4.06,3.36,4.83
,-8.684,0.23,-5.13,-8.516,0.323,-5.085,2.66,1.47,3.22
35934.0,-8.717,0.122,-5.341,-8.339,-1.752,-5.552,1.54,1.4,-3.85
,-8.473,-0.096,-5.489,-8.385,-2.276,-5.516,0.77,-0.21,-4.27
,-8.05,-0.641,-5.559,-8.002,-2.919,-5.482,-0.21,-1.05,-3.92
,-7.971,-1.326,-5.566,-7.667,-3.46,-5.279,-0.56,0.84,-3.71
36009.0,-7.521,-3.774,-5.365,-8.354,-2.008,-6.224,4.34,2.38,4.06
,-8.016,-3.877,-5.595,-7.904,-1.101,-6.384,6.16,3.36,6.86
,-8.327,-3.604,-5.81,-7.566,-0.9,-6.19,8.96,2.94,8.47
,-8.562,-2.9,-5.975,-8.004,-0.84,-5.934,11.62,2.31,10.15
36084.0,-8.464,-0.723,-5.755,-8.2,-1.098,-5.647,7.07,0.07,9.59
,-8.593,-0.991,-5.489,-8.538,-0.96,-5.547,6.09,-1.19,9.31
,-8.239,-1.149,-5.377,-8.588,-0.907,-5.382,7.07,-2.24,9.94
,-7.997,-1.304,-5.497,-8.765,-1.177,-5.336,8.26,-1.89,11.69
36159.0,-7.83,-0.294,-5.604,-8.44,-0.512,-5.788,16.03,-5.53,6.79
,-8.246,-0.112,-5.731,-8.782,-0.433,-5.595,14.56,-4.27,5.25
,-8.138,-0.459,-5.709,-8.275,-0.577,-5.358,11.69,-3.43,4.48
,-8.588,-0.56,-5.575,-8.143,-0.964,-5.173,10.92,-2.31,3.85
36234.0,-8.22,-1.005,-5.181,-8.153,-1.184,-5.09,13.51,-1.89,1.82
,-8.291,-1.019,-5.068,-7.942,-1.285,-5.066,14.56,-1.68,1.26
,-8.385,-1.213,-5.111,-8.26,-0.84,-5.351,13.72,-1.4,1.47
,-8.564,-0.95,-5.092,-8.626,-0.45,-5.453,12.25,-1.4,1.05
36309.0,-8.564,-0.916,-5.389,-8.789,-1.926,-5.152,4.48,-0.77,0.42
,-8.514,-1.247,-5.075,-8.373,-1.948,-5.178,3.92,-0.49,0.07
,-8.385,-1.445,-5.164,-8.267,-1.852,-5.178,4.9,-0.84,0.35
,-8.536,-1.692,-5.291,-8.088,-1.318,-5.458,6.23,-0.35,0.7
36384.0,-8.038,-0.95,-5.824,-8.591,-1.539,-5.537,9.03,-1.82,1.96
,-8.131,-1.125,-5.839,-8.461,-1.797,-5.25,5.53,-1.47,1.19
,-8.301,-1.299,-5.86,-8.382,-1.74,-5.099,4.34,-1.4,1.26
,-8.583,-1.326,-5.741,-8.086,-1.816,-5.097,4.48,-1.54,2.03
36459.0,-8.208,-1.697,-5.054,-8.638,-0.744,-5.312,5.46,-2.17,6.16
,-8.315,-1.484,-5.066,-8.507,-1.0,-5.123,5.46,-1.54,6.65
,-8.323,-1.237,-5.044,-8.373,-1.137,-5.152,5.11,-1.47,7.28
,-8.402,-0.969,-5.305,-8.368,-1.354,-4.96,4.34,-1.19,7.63
36534.0,-8.296,-1.232,-4.925,-8.614,-0.811,-5.319,5.74,-0.14,4.13
,-8.402,-1.058,-5.066,-8.567,-1.151,-5.106,6.3,0.21,3.92
,-8.586,-0.634,-5.217,-8.287,-1.33,-5.114,5.95,0.7,3.22
,-8.66,-0.555,-5.305,-8.363,-1.395,-5.202,4.27,0.84,2.66
36609.0,-8.672,-1.24,-5.245,-8.196,-1.295,-5.257,5.88,1.68,2.73
,-8.497,-0.945,-5.252,-8.454,-1.323,-5.183,6.23,1.26,2.66
,-8.303,-0.754,-5.336,-8.504,-1.251,-5.3,4.9,0.77,2.31
,-8.129,-0.921,-5.25,-8.514,-1.046,-5.317,2.73,0.77,2.03
36684.0,-8.265,-1.0,-5.212,-8.636,-1.05,-5.205,2.73,1.12,0.21
,-8.129,-0.938,-5.195,-8.411,-1.098,-5.245,2.52,1.54,0.14
,-8.358,-0.794,-5.298,-8.402,-1.019,-5.298,1.96,2.52,-0.21
,-8.607,-0.914,-5.312,-8.361,-0.931,-5.351,1.19,2.73,-0.63
36759.0,-8.358,-0.869,-5.406,-8.327,-1.699,-5.324,3.08,2.03,-1.68
,-8.449,-1.031,-5.396,-8.313,-1.924,-5.322,2.52,2.45,-2.24
,-8.564,-1.273,-5.296,-8.449,-1.984,-5.224,1.47,2.52,-2.59
,-8.442,-1.551,-5.257,-8.337,-1.649,-5.281,1.47,2.38,-2.45
36834.0,-8.236,-1.189,-5.355,-8.65,-1.015,-5.145,6.44,2.87,-1.12
,-8.277,-0.969,-5.468,-8.449,-1.043,-5.02,5.67,3.36,-1.75
,-8.509,-0.871,-5.394,-8.306,-1.091,-5.123,4.83,4.27,-2.59
,-8.595,-0.928,-5.25,-8.5,-1.285,-5.315,4.27,4.83,-3.22
36909.0,-8.588,-1.345,-5.401,-8.308,-1.481,-5.231,1.33,4.83,-3.15
,-8.409,-1.307,-5.482,-8.466,-1.57,-5.212,2.59,3.85,-2.87
,-8.282,-1.503,-5.336,-8.315,-1.653,-5.173,2.87,3.71,-2.31
,-8.131,-1.505,-5.169,-8.32,-1.642,-5.243,3.36,4.34,-1.89
36984.0,-8.397,-1.553,-5.343,-8.325,-0.902,-5.178,0.84,6.3,-2.66
,-8.332,-1.374,-5.377,-8.334,-0.589,-5.209,1.05,6.37,-2.38
,-8.296,-1.321,-5.339,-8.308,-0.627,-5.331,1.33,6.16,-2.31
,-8.308,-1.161,-5.274,-8.375,-0.637,-5.458,2.1,5.95,-2.45
37059.0,-8.351,-0.479,-5.568,-8.21,-1.792,-5.221,-0.77,5.18,-4.76
,-8.471,-0.574,-5.58,-8.205,-2.027,-5.245,-1.89,5.18,-5.6
,-8.37,-0.869,-5.54,-8.366,-2.06,-5.229,-3.36,5.04,-6.51
,-8.263,-1.352,-5.348,-8.413,-1.953,-5.329,-4.55,5.46,-6.72
37134.0,-8.253,-1.752,-5.549,-7.992,-1.876,-5.518,0.56,4.62,-3.92
,-8.229,-1.773,-5.681,-8.1,-2.058,-5.441,0.28,4.48,-2.94
,-8.349,-1.843,-5.705,-8.267,-2.0,-5.449,-0.28,4.69,-2.8
,-8.179,-1.74,-5.566,-8.224,-1.855,-5.475,-0.28,4.62,-2.45
37209.0,-8.256,-1.713,-5.544,-8.33,-1.381,-5.547,1.96,4.69,0.42
,-8.275,-1.46,-5.497,-8.37,-0.964,-5.54,2.24,4.76,0.28
,-8.488,-1.261,-5.686,-8.291,-0.737,-5.611,2.52,4.83,-0.56
,-8.361,-1.479,-5.487,-8.296,-0.62,-5.52,2.94,4.76,-0.21
37284.0,-8.49,-0.412,-5.578,-8.184,-1.117,-5.487,6.37,2.59,-2.94
,-8.351,-0.22,-5.64,-8.363,-1.196,-5.458,6.37,1.75,-4.2
,-8.315,-0.354,-5.513,-8.397,-0.95,-5.607,4.97,1.61,-5.04
,-8.131,-0.648,-5.511,-8.385,-0.727,-5.597,3.64,1.82,-5.53
37359.0,-8.217,-0.849,-5.427,-8.32,-1.503,-5.159,4.55,-0.77,-6.93
,-8.078,-1.177,-5.138,-8.373,-1.34,-5.398,-2.8,-0.14,-6.93
,-8.418,-1.467,-4.891,-8.313,-1.424,-5.501,-3.29,0.91,-7.56
,-8.38,-1.594,-4.98,-8.272,-1.704,-5.537,-0.63,1.12,-7.56
37434.0,-8.459,-2.039,-5.583,-7.865,-2.548,-5.439,3.71,-0.91,-6.23
,-8.047,-2.094,-5.626,-8.205,-2.178,-5.401,4.06,-4.34,-6.09
,-7.377,-2.458,-5.547,-8.229,-1.843,-5.331,4.62,-5.32,-5.32
,-7.401,-2.589,-5.473,-8.294,-1.742,-5.353,5.25,-4.06,-5.04
37509.0,-8.334,-1.85,-5.312,-8.124,-2.292,-5.566,2.17,-1.33,-2.03
,-8.294,-1.835,-5.465,-7.964,-1.668,-5.592,2.1,-0.77,-0.98
,-8.38,-1.902,-5.549,-7.784,-2.266,-5.425,3.22,0.0,0.07
,-8.571,-2.17,-5.513,-8.057,-2.173,-5.499,4.06,-0.49,0.63
37584.0,-8.155,-1.967,-5.513,-8.464,-0.888,-5.171,8.61,-4.34,3.22
,-7.98,-1.773,-5.571,-8.327,-0.952,-5.013,9.1,-3.71,3.92
,-7.911,-1.448,-5.463,-8.457,-1.053,-5.047,10.36,-2.03,3.92
,-8.232,-1.06,-5.087,-8.394,-1.115,-5.181,10.64,-1.33,3.29
37659.0,-8.54,-1.07,-5.363,-8.019,-0.866,-5.494,5.81,-1.05,0.42
,-8.693,-0.739,-5.623,-8.263,-1.429,-5.109,5.39,-3.71,-1.47
,-8.612,-0.328,-5.492,-8.861,-1.974,-2.883,1.82,-6.72,-2.8
,-7.808,-0.756,-5.642,-8.354,-1.85,-4.429,-1.4,-7.77,-3.5
37734.0,-8.519,-1.847,-4.783,-8.145,-1.78,-5.185,-0.21,-7.21,-6.79
,-8.282,-1.821,-4.891,-8.256,-1.747,-4.996,1.33,-8.05,-6.37
,-8.227,-1.51,-5.449,-8.32,-1.785,-4.937,0.91,-8.96,-5.67
