Timestamp,AccX,AccY,AccZ,GyroX,GyroY,GyroZ,MagnX,MagnY,MagnZ
0.0,-9.069,-0.933,-4.006,-9.072,-0.955,-4.118,1.05,2.24,0.49
,-9.007,-1.0,-4.027,-9.024,-0.936,-4.082,0.7,2.1,0.42
,-8.978,-1.031,-4.099,-9.045,-0.938,-4.08,0.98,2.03,0.49
,-8.985,-1.012,-4.104,-9.048,-0.979,-3.967,1.47,2.03,0.56
76.0,-9.057,-0.967,-3.982,-9.024,-0.943,-3.989,1.96,1.19,0.56
,-9.043,-0.974,-3.982,-9.033,-0.969,-3.972,2.38,1.26,0.63
,-9.028,-0.969,-3.984,-9.0,-0.972,-3.903,2.59,1.26,0.63
,-9.052,-1.003,-3.999,-9.028,-0.983,-3.845,2.8,1.26,0.7
152.0,-9.055,-0.993,-3.869,-9.062,-0.995,-3.862,2.45,1.26,0.7
,-9.074,-0.957,-3.865,-9.014,-1.031,-3.819,2.52,1.4,0.7
,-9.083,-0.928,-3.865,-9.086,-0.96,-3.872,2.24,1.4,0.63
,-9.069,-0.924,-3.874,-9.069,-0.962,-3.896,2.03,1.68,0.63
228.0,-9.038,-0.928,-3.884,-9.014,-0.938,-4.116,2.17,2.1,0.63
,-9.036,-0.878,-3.989,-9.019,-0.983,-4.03,1.96,2.03,0.49
,-9.038,-0.952,-3.991,-9.0,-0.983,-4.032,1.82,1.96,0.49
,-9.048,-0.902,-3.994,-9.045,-1.019,-3.96,1.89,1.89,0.49
304.0,-9.024,-1.012,-3.963,-9.026,-0.952,-3.927,1.96,1.82,0.49
,-9.045,-0.933,-4.025,-9.048,-0.986,-3.936,2.24,1.61,0.49
,-9.115,-0.955,-3.975,-9.021,-0.952,-3.948,2.17,1.75,0.56
,-9.043,-0.907,-3.917,-9.045,-0.938,-3.924,1.89,1.82,0.56
380.0,-8.997,-0.964,-3.936,-9.069,-0.993,-3.941,1.75,1.75,0.49
,-9.031,-1.065,-3.929,-9.036,-0.936,-3.936,1.89,1.75,0.49
,-9.052,-1.024,-3.965,-9.048,-0.962,-3.977,2.45,1.96,0.77
,-9.033,-0.993,-3.955,-9.072,-0.962,-4.013,2.73,1.89,0.77
456.0,-9.033,-0.952,-4.02,-9.019,-0.878,-4.015,2.66,1.89,0.7
,-9.012,-0.912,-4.022,-8.99,-0.964,-3.984,2.59,2.1,0.63
,-9.04,-0.909,-4.008,-8.988,-1.005,-4.003,2.45,1.82,0.56
,-9.04,-0.936,-4.046,-9.021,-0.998,-4.008,2.38,1.89,0.56
532.0,-9.016,-0.983,-3.953,-9.033,-0.928,-3.972,2.31,1.89,0.49
,-9.0,-0.993,-3.991,-9.012,-0.909,-4.011,2.1,1.89,0.42
,-9.031,-1.012,-3.967,-9.005,-0.948,-3.951,2.24,1.82,0.56
,-9.05,-0.936,-3.955,-9.057,-0.897,-4.097,2.38,1.89,0.7
608.0,-9.0,-0.94,-3.951,-9.062,-0.974,-3.948,2.87,1.89,0.49
,-9.04,-0.967,-3.977,-9.043,-0.907,-3.967,2.45,1.89,0.49
,-9.002,-1.165,-3.941,-9.036,-0.921,-4.006,2.17,1.89,0.56
,-9.045,-1.053,-3.927,-9.043,-0.924,-4.068,2.87,1.96,0.7
684.0,-9.026,-0.974,-3.977,-9.045,-0.924,-3.948,2.38,1.75,0.56
,-9.033,-0.991,-4.006,-8.995,-0.972,-3.96,2.59,1.82,0.63
,-9.055,-1.003,-3.991,-9.026,-0.957,-3.996,2.94,1.89,0.7
,-9.043,-0.964,-3.975,-9.045,-0.955,-3.96,3.08,1.75,0.77
760.0,-9.031,-1.012,-3.977,-9.014,-0.979,-4.027,2.31,1.68,0.42
,-9.012,-0.986,-3.955,-9.026,-1.019,-4.027,2.45,1.96,0.49
,-9.055,-0.981,-3.977,-9.038,-0.969,-4.049,2.59,1.89,0.63
,-9.031,-0.972,-4.092,-8.995,-0.998,-4.025,2.59,1.54,0.49
836.0,-9.007,-0.993,-3.944,-9.024,-1.0,-3.896,3.01,1.75,0.84
,-9.052,-1.039,-3.934,-9.055,-0.974,-3.929,3.29,1.68,0.91
,-9.055,-1.017,-3.939,-9.007,-0.983,-3.953,3.36,1.75,0.91
,-9.038,-1.031,-3.879,-9.033,-0.983,-3.987,3.15,1.89,0.98
912.0,-9.036,-1.034,-4.027,-9.005,-0.981,-3.991,2.87,1.89,1.05
,-8.988,-0.986,-4.03,-9.04,-0.988,-3.963,3.08,1.68,1.05
,-9.038,-0.955,-4.03,-9.067,-0.943,-3.941,2.94,1.75,1.05
,-8.959,-0.998,-3.96,-9.043,-1.024,-4.015,2.87,1.61,1.12
988.0,-8.928,-0.952,-3.979,-8.973,-1.072,-4.061,2.1,1.33,0.91
,-8.995,-1.022,-4.013,-9.026,-1.06,-4.08,2.52,1.54,0.98
,-8.988,-0.835,-4.022,-8.99,-1.027,-4.094,2.31,1.12,0.84
,-8.985,-0.972,-4.092,-9.052,-1.003,-4.068,1.47,0.98,0.77
1064.0,-9.014,-0.945,-4.073,-9.124,-0.979,-3.86,1.96,0.14,1.05
,-8.99,-1.06,-4.099,-9.019,-1.053,-4.03,1.61,-0.07,1.05
,-9.05,-0.928,-3.965,-8.949,-1.034,-4.14,1.96,-0.07,1.12
,-9.028,-0.938,-3.884,-8.935,-1.125,-4.393,1.68,-0.28,0.91
1140.0,-8.926,-1.11,-4.41,-8.981,-1.019,-4.183,1.89,-1.82,1.19
,-8.894,-0.943,-4.274,-9.048,-1.07,-4.164,2.52,-2.31,1.19
,-9.0,-0.94,-4.535,-9.014,-1.005,-4.149,2.1,-3.15,0.98
,-8.971,-0.986,-4.322,-9.067,-0.924,-4.051,1.89,-3.57,1.12
1216.0,-9.124,-0.919,-4.135,-9.124,-1.036,-3.757,2.24,-5.32,1.47
,-9.024,-1.07,-4.049,-9.115,-0.94,-3.506,1.89,-5.53,1.61
,-9.009,-1.067,-3.955,-9.162,-0.845,-3.46,2.17,-5.67,1.82
,-9.06,-1.094,-3.879,-9.091,-0.842,-3.257,2.73,-5.6,1.96
1292.0,-9.134,-0.897,-3.216,-9.141,-0.924,-3.046,0.07,-3.64,2.45
,-9.148,-1.039,-3.077,-9.189,-0.759,-3.211,-1.26,-2.94,2.24
,-9.158,-1.017,-3.005,-9.186,-0.78,-3.58,-1.96,-2.31,2.31
,-9.148,-1.017,-3.01,-9.045,-1.019,-3.64,-2.66,-1.12,2.45
1368.0,-8.949,-1.144,-3.654,-9.052,-0.919,-3.884,-7.21,1.05,2.24
,-9.076,-1.216,-3.714,-9.012,-0.94,-3.829,-5.11,1.4,2.66
,-9.093,-1.094,-3.697,-9.081,-1.022,-3.585,-2.73,1.68,3.22
,-9.15,-0.893,-3.908,-9.253,-0.983,-3.604,-1.33,1.68,3.78
1444.0,-9.253,-0.888,-3.788,-9.177,-0.993,-3.573,0.98,1.89,4.69
,-9.074,-0.84,-4.092,-9.273,-0.775,-3.695,-0.35,1.26,4.27
,-8.911,-1.048,-3.972,-9.019,-0.62,-3.317,-2.1,1.4,4.69
,-8.938,-1.165,-3.62,-9.131,-0.627,-3.149,-1.47,1.82,5.25
1520.0,-9.208,-0.78,-2.912,-9.143,-0.646,-4.106,-4.62,3.22,5.74
,-9.284,-0.83,-2.915,-8.763,-1.043,-4.027,-4.76,4.13,5.81
,-9.318,-0.737,-3.156,-8.78,-1.421,-3.707,-5.11,3.92,5.46
,-9.27,-0.517,-3.623,-9.146,-1.271,-3.051,-4.97,3.36,4.97
1596.0,-9.55,-0.555,-3.185,-9.005,-0.651,-2.565,0.42,4.62,6.44
,-9.462,-0.287,-3.331,-9.32,-0.392,-3.108,-2.1,3.15,5.74
,-9.21,-0.227,-3.106,-9.141,-0.144,-3.431,-6.65,2.59,5.81
,-9.076,-0.409,-3.072,-9.098,-0.074,-4.063,-9.87,3.08,6.44
1672.0,-8.861,-0.512,-4.353,-9.342,0.206,-2.883,-9.52,5.11,4.34
,-9.098,-0.852,-4.116,-9.141,0.514,-3.118,-10.15,5.53,4.62
,-9.316,-0.948,-3.635,-9.081,0.514,-3.384,-8.75,5.74,4.62
,-9.179,-0.488,-2.915,-9.062,0.311,-3.786,-4.62,6.02,4.83
1748.0,-8.938,0.278,-3.963,-8.957,-1.137,-3.388,-8.4,11.41,1.54
,-8.88,0.007,-4.068,-9.05,-1.094,-3.111,-8.61,11.55,1.82
,-8.727,-0.438,-3.857,-8.978,-0.732,-3.199,-8.4,12.53,1.12
,-8.983,-0.869,-3.685,-9.028,-0.05,-3.19,-6.58,13.58,0.91
1824.0,-9.067,0.249,-3.518,-9.019,0.974,-4.288,6.23,20.23,3.22
,-9.139,0.627,-3.936,-8.875,0.438,-4.338,4.27,19.53,2.8
,-8.885,0.675,-4.424,-8.799,-0.519,-3.874,1.05,18.69,1.75
,-8.739,1.017,-4.29,-8.636,-1.563,-3.776,0.28,19.32,0.28
1900.0,-8.729,-2.015,-3.427,-8.571,-0.519,-5.006,-1.12,24.08,-3.22
,-8.964,-1.888,-3.484,-8.399,-0.225,-4.886,6.02,25.2,-1.12
,-8.897,-1.385,-3.991,-8.557,0.103,-4.523,12.04,24.29,0.49
,-8.82,-0.952,-4.575,-8.531,0.103,-4.592,15.89,23.52,1.89
1976.0,-8.887,0.067,-4.295,-8.78,-0.79,-4.764,8.96,23.52,-2.31
,-8.777,-0.184,-4.554,-8.557,-0.933,-5.291,6.58,22.96,-3.85
,-8.741,-0.471,-4.798,-8.557,-0.914,-5.386,5.74,22.82,-4.76
,-8.66,-0.735,-4.939,-8.598,-0.799,-5.767,5.53,22.54,-4.97
2052.0,-8.662,-0.718,-6.123,-8.327,-1.338,-5.87,16.1,13.79,-3.85
,-8.509,-0.672,-6.241,-8.543,-1.548,-5.662,15.54,12.18,-4.69
,-8.471,-0.881,-6.095,-8.488,-1.713,-5.839,14.07,11.97,-5.32
,-8.32,-1.184,-5.968,-8.593,-1.491,-5.817,13.3,11.83,-5.53
2128.0,-8.555,-0.928,-5.774,-8.844,-0.936,-5.118,16.17,7.42,0.49
,-8.33,-0.653,-5.686,-8.794,-1.005,-5.049,15.61,6.86,0.84
,-8.6,-0.718,-5.296,-8.574,-1.163,-4.858,14.07,6.16,0.98
,-8.758,-0.9,-5.296,-8.394,-0.871,-5.138,12.18,5.25,1.89
2204.0,-8.696,-0.543,-5.085,-8.61,-0.581,-4.893,15.05,1.05,2.38
,-8.509,-0.333,-5.13,-8.502,-0.519,-5.116,14.49,-0.07,1.05
,-8.665,-0.407,-4.879,-8.416,-0.689,-5.262,13.3,-0.07,0.28
,-8.705,-0.689,-4.642,-8.708,-0.782,-5.049,11.9,0.42,0.28
2280.0,-8.727,-0.895,-5.03,-8.538,-1.041,-4.882,13.93,1.82,0.28
,-8.799,-1.254,-4.949,-8.433,-0.828,-4.795,14.35,2.45,0.49
,-8.746,-1.357,-4.704,-8.667,-0.474,-4.922,16.1,3.15,2.03
,-8.653,-1.271,-4.69,-8.686,-0.749,-4.752,17.43,2.45,2.73
2356.0,-8.753,-0.553,-4.949,-8.488,-0.665,-5.494,18.9,1.33,0.28
,-8.454,-0.694,-4.853,-8.375,-0.926,-5.171,18.55,2.03,0.98
,-8.638,-0.79,-4.984,-8.346,-1.034,-5.298,17.85,2.17,0.7
,-8.701,-0.735,-5.15,-8.662,-1.208,-5.154,17.36,1.89,0.84
2432.0,-8.662,-1.199,-5.473,-8.485,-1.63,-5.054,14.07,0.56,1.12
,-8.643,-1.364,-5.252,-8.512,-1.752,-4.901,11.62,0.28,2.59
,-8.66,-1.634,-5.209,-8.459,-1.675,-4.822,11.41,-0.28,3.85
,-8.447,-1.421,-5.24,-8.476,-1.869,-4.762,12.25,-1.05,3.99
2508.0,-8.471,-1.531,-4.982,-8.655,-0.955,-4.932,11.97,-0.63,7.91
,-8.576,-1.287,-4.934,-8.909,-0.756,-4.944,13.37,-0.49,8.68
,-8.667,-1.077,-4.98,-8.626,-0.385,-5.162,14.0,-0.07,8.54
,-8.598,-0.816,-5.109,-8.574,-0.112,-4.987,14.7,0.42,8.26
2584.0,-8.784,0.005,-4.996,-8.705,-0.39,-5.087,14.21,-2.03,3.5
,-8.437,-0.223,-4.989,-8.696,-0.617,-4.927,11.34,-2.52,3.08
,-8.55,-0.261,-5.2,-8.662,-0.983,-4.724,9.52,-2.52,2.66
,-8.696,-0.199,-5.166,-8.593,-1.206,-4.786,8.47,-2.66,1.68
2660.0,-8.516,-1.63,-4.614,-8.394,-1.73,-4.695,5.46,1.05,0.56
,-8.555,-1.917,-4.611,-8.65,-1.869,-4.539,6.23,1.96,1.54
,-8.737,-1.969,-4.47,-8.617,-1.91,-4.47,7.21,1.19,2.59
,-8.509,-1.802,-4.707,-8.442,-1.735,-4.513,7.98,-0.07,3.29
2736.0,-8.557,-1.357,-4.623,-8.705,-0.179,-4.86,6.65,1.68,5.46
,-8.581,-1.273,-4.602,-8.564,-0.239,-4.915,6.79,2.38,5.04
,-8.569,-0.972,-4.74,-8.55,-0.45,-4.791,7.84,2.73,3.71
,-8.681,-0.529,-4.867,-8.808,-0.589,-4.843,8.75,2.94,2.59
2812.0,-8.806,-0.663,-4.939,-8.629,-1.22,-4.893,3.43,5.04,-0.07
,-8.528,-0.814,-4.994,-8.603,-1.007,-5.004,2.8,4.76,-0.14
,-8.516,-1.055,-5.001,-8.684,-0.957,-5.063,1.26,4.9,-0.42
,-8.622,-1.089,-4.996,-8.705,-1.039,-5.018,0.21,4.9,-0.49
2888.0,-8.576,-1.103,-5.083,-8.693,-0.895,-5.599,-3.22,6.02,-0.35
,-8.483,-1.101,-5.185,-8.605,-1.058,-5.731,-4.9,6.44,0.49
,-8.571,-1.173,-5.288,-8.837,-1.316,-5.568,-6.02,6.86,1.12
,-8.641,-1.017,-5.465,-8.882,-1.481,-5.42,-6.02,6.23,1.33
2964.0,-8.555,-1.606,-5.377,-8.655,-1.098,-5.552,-13.16,0.49,4.13
,-8.437,-1.618,-5.3,-8.617,-0.931,-5.511,-13.23,0.56,5.04
,-8.536,-1.467,-5.329,-8.71,-0.9,-5.377,-12.95,0.14,6.16
,-8.701,-1.204,-5.377,-8.641,-0.998,-5.288,-12.81,-0.63,7.21
3040.0,-8.636,-0.926,-5.312,-8.674,-0.414,-5.564,-14.0,-2.24,12.32
,-8.591,-0.713,-5.523,-8.727,-0.146,-5.497,-13.58,-2.94,13.3
,-8.622,-0.572,-5.398,-8.677,0.053,-5.583,-13.93,-2.94,13.44
,-8.641,-0.531,-5.432,-8.478,0.108,-5.642,-14.21,-2.31,13.3
3116.0,-8.545,0.139,-5.571,-8.648,0.357,-5.611,-17.29,-6.09,9.38
,-8.748,0.158,-5.532,-8.966,-0.347,-5.054,-17.43,-5.95,8.33
,-8.696,0.237,-5.559,-8.717,0.12,-5.14,-18.34,-5.81,7.98
,-8.983,0.254,-5.65,-8.433,-0.165,-5.561,-17.01,-7.98,6.86
3192.0,-8.703,-1.481,-4.472,-8.454,-0.806,-5.193,-19.18,-14.42,-0.42
,-8.978,-1.766,-4.511,-8.449,-1.175,-4.932,-13.3,-15.12,-0.84
,-8.595,-0.577,-5.171,-8.65,-1.591,-4.939,-5.6,-16.52,-2.52
,-8.732,-0.608,-5.197,-8.6,-1.204,-4.676,-0.98,-16.31,-2.24
3268.0,-8.646,-0.933,-4.549,-8.844,-0.261,-4.487,5.53,-13.3,5.46
,-8.77,-0.555,-4.41,-8.782,-0.704,-4.312,5.67,-14.28,5.53
,-8.796,-0.404,-4.444,-8.665,-0.469,-4.396,4.83,-14.91,5.74
,-8.763,-0.33,-4.489,-8.693,-0.644,-4.408,3.36,-15.19,5.04
3344.0,-8.605,-0.713,-4.329,-8.854,-0.715,-3.798,2.24,-17.36,1.75
,-8.794,-0.704,-4.154,-8.88,-0.668,-3.649,4.76,-16.94,1.12
,-9.715,-0.38,-4.094,-8.866,-0.672,-3.671,6.16,-16.31,0.98
,-8.394,-0.773,-4.13,-8.777,-0.66,-3.644,5.74,-15.75,1.19
3420.0,-9.072,-0.352,-3.506,-9.198,0.383,-2.941,4.97,-16.52,2.03
,-8.995,-0.208,-3.455,-8.823,0.605,-2.895,5.39,-16.73,1.47
,-9.256,-0.072,-3.101,-9.574,0.711,-3.003,4.9,-16.87,0.35
,-8.5,0.347,-4.133,-9.323,0.395,-3.372,6.93,-17.29,0.14
3496.0,-8.983,0.177,-3.403,-9.332,-0.23,-3.089,-3.71,-15.12,-9.66
,-8.93,-0.048,-3.096,-9.395,0.141,-3.369,-3.99,-13.09,-9.17
,-8.902,-0.321,-2.994,-9.014,0.053,-3.51,-2.94,-11.27,-10.15
,-9.174,-0.438,-2.907,-8.861,-0.459,-3.659,-2.17,-9.59,-11.83
3572.0,-9.225,-0.983,-3.331,-9.043,-1.079,-3.202,-10.57,-8.4,-12.25
,-9.397,-1.261,-3.532,-9.395,-0.878,-3.305,-8.75,-7.63,-10.71
,-9.105,-1.295,-3.716,-9.407,-0.608,-3.113,-6.3,-8.33,-10.71
,-9.064,-1.208,-3.41,-9.404,-0.096,-3.661,-3.43,-7.07,-8.96
3648.0,-9.201,-0.158,-3.86,-9.222,-0.907,-2.967,-4.13,-9.17,-8.47
,-8.906,-0.436,-3.676,-9.612,-0.57,-3.522,-5.74,-7.91,-7.63
,-8.952,-0.852,-3.561,-9.308,-0.416,-3.702,-5.04,-6.44,-7.35
,-9.146,-1.039,-3.36,-9.177,-0.196,-3.326,-2.1,-6.09,-7.28
3724.0,-9.258,-0.33,-3.817,-9.103,-1.036,-3.144,-0.21,-7.35,-6.58
,-9.153,-0.445,-3.508,-9.268,-1.314,-3.187,-1.75,-7.49,-7.7
,-9.191,-0.543,-3.405,-9.284,-1.249,-2.809,-3.78,-7.28,-7.56
,-9.143,-0.821,-3.585,-9.39,-1.17,-2.895,-5.95,-8.33,-7.77
3800.0,-9.349,-1.058,-2.795,-9.383,-0.555,-2.735,3.92,-5.6,-2.94
,-9.251,-0.883,-2.615,-9.45,-0.622,-3.116,5.88,-4.83,-2.1
,-9.32,-0.677,-2.527,-9.186,-0.591,-3.053,7.07,-3.99,-1.96
,-9.387,-0.591,-2.706,-9.323,-0.522,-3.142,6.16,-3.64,-2.24
3876.0,-9.483,-0.419,-3.606,-9.241,-0.972,-3.063,5.81,-2.73,-3.43
,-9.186,-0.218,-3.539,-9.545,-0.979,-3.156,4.2,-3.36,-3.85
,-9.064,-0.361,-3.211,-9.514,-0.658,-3.264,2.24,-2.73,-3.85
,-9.184,-0.818,-3.314,-9.375,-0.598,-3.948,0.35,-2.45,-4.41
3952.0,-9.04,-0.601,-3.831,-9.552,-0.514,-3.379,2.59,-3.43,-3.99
,-9.081,-0.56,-3.912,-9.49,-0.72,-3.623,3.22,-3.36,-4.13
,-9.162,-0.787,-3.518,-9.024,-1.022,-3.376,4.27,-3.01,-4.13
,-9.407,-0.598,-3.424,-8.981,-1.503,-3.216,6.3,-3.08,-3.57
4028.0,-9.179,-1.809,-3.008,-9.777,-0.737,-2.661,6.37,-3.22,-2.52
,-9.366,-1.543,-2.635,-9.296,-0.785,-2.714,10.08,-2.59,-1.26
,-9.521,-1.07,-2.273,-9.05,-0.998,-2.558,11.41,-1.61,-0.42
,-9.72,-0.782,-2.295,-9.244,-1.077,-2.565,9.8,-1.12,-0.84
4104.0,-9.428,-0.866,-2.228,-9.349,-1.041,-2.828,7.07,2.73,-0.49
,-9.524,-0.603,-2.103,-9.203,-1.407,-3.029,6.02,3.85,-0.42
,-9.517,-0.677,-2.039,-9.203,-1.491,-3.317,2.45,4.41,-0.84
,-9.531,-0.78,-2.381,-9.239,-1.228,-3.649,-0.42,5.04,-1.4
4180.0,-9.213,-1.122,-3.74,-9.172,-1.0,-3.62,1.75,6.58,0.21
,-9.27,-1.012,-3.817,-9.261,-1.017,-3.422,1.89,6.09,0.28
,-9.284,-0.948,-3.924,-9.402,-0.878,-3.252,2.1,5.32,0.28
,-9.184,-0.933,-3.862,-9.541,-0.804,-3.331,2.52,4.62,0.42
4256.0,-9.383,-0.878,-3.491,-9.189,-0.991,-3.539,4.27,3.01,1.05
,-9.155,-0.905,-3.644,-9.301,-1.017,-3.283,3.71,2.59,0.98
,-9.15,-0.96,-3.745,-9.316,-1.149,-3.171,3.78,2.24,0.56
,-9.17,-0.936,-3.707,-9.366,-0.993,-3.211,4.06,2.03,0.42
4332.0,-9.328,-0.969,-3.238,-9.371,-1.019,-3.151,4.97,1.26,0.98
,-9.263,-0.969,-3.29,-9.332,-1.034,-2.986,4.41,1.33,0.77
,-9.241,-0.95,-3.273,-9.351,-1.012,-3.07,3.71,1.47,0.63
,-9.268,-0.881,-3.132,-9.368,-0.871,-3.159,2.94,1.4,0.63
4408.0,-9.335,-0.864,-3.271,-9.263,-1.211,-3.29,0.91,1.75,0.49
,-9.237,-0.871,-3.336,-9.306,-1.189,-3.283,-0.14,1.68,0.28
,-9.256,-0.993,-3.405,-9.318,-1.077,-3.348,-0.63,1.61,0.07
,-9.22,-1.146,-3.362,-9.363,-0.952,-3.396,-0.35,1.75,0.21
4484.0,-9.347,-0.885,-3.501,-9.225,-1.182,-3.259,2.94,1.54,1.26
,-9.277,-0.94,-3.53,-9.378,-1.082,-3.355,2.38,1.19,1.19
,-9.225,-0.948,-3.484,-9.356,-0.931,-3.348,2.38,0.84,1.19
,-9.227,-1.039,-3.422,-9.308,-0.826,-3.35,2.52,0.7,1.33
4560.0,-9.351,-0.763,-3.357,-9.284,-0.895,-3.415,4.41,0.56,1.82
,-9.311,-0.864,-3.386,-9.27,-0.902,-3.345,3.57,0.35,1.4
,-9.239,-0.864,-3.384,-9.227,-1.158,-3.077,3.43,0.35,1.26
,-9.332,-0.945,-3.501,-9.265,-1.22,-3.149,3.43,0.14,1.12
4636.0,-9.383,-1.046,-3.197,-9.32,-0.806,-3.209,5.95,0.28,1.89
,-9.368,-0.936,-3.168,-9.445,-0.794,-3.355,5.88,0.35,1.82
,-9.32,-0.871,-3.013,-9.33,-0.732,-3.288,4.9,0.56,1.75
,-9.337,-0.821,-3.221,-9.308,-0.823,-3.381,4.06,0.56,1.47
4712.0,-9.311,-0.893,-3.503,-9.263,-0.806,-3.305,2.73,0.63,0.84
,-9.337,-0.854,-3.539,-9.301,-0.881,-3.175,3.57,0.35,0.84
,-9.349,-0.818,-3.501,-9.323,-1.046,-3.013,3.92,-0.14,0.7
,-9.308,-0.794,-3.391,-9.354,-1.041,-2.965,3.57,-0.35,0.63
4788.0,-9.464,-0.878,-3.029,-9.284,-1.031,-3.032,4.83,0.35,0.98
,-9.445,-0.797,-3.01,-9.287,-1.192,-2.979,4.41,0.28,0.77
,-9.402,-0.694,-3.032,-9.265,-1.168,-2.924,3.43,0.14,0.56
,-9.402,-0.818,-2.941,-9.335,-1.151,-3.046,1.61,0.42,0.07
4864.0,-9.313,-1.103,-3.017,-9.38,-0.967,-3.123,2.1,1.47,0.56
,-9.34,-1.017,-2.974,-9.313,-1.029,-3.149,2.52,1.75,0.84
,-9.399,-0.957,-2.972,-9.241,-1.036,-3.252,2.31,1.82,0.77
,-9.373,-1.003,-3.003,-9.241,-1.053,-3.118,1.96,2.1,0.98
4940.0,-9.294,-1.031,-3.01,-9.344,-0.957,-3.168,2.38,2.73,1.61
,-9.366,-0.883,-3.116,-9.277,-1.163,-3.317,2.59,2.8,1.61
,-9.344,-0.761,-3.099,-9.229,-1.077,-3.309,1.61,2.87,1.4
,-9.359,-0.754,-3.061,-9.323,-0.969,-3.297,0.0,2.73,1.19
5016.0,-9.34,-0.797,-3.343,-9.402,-0.986,-3.324,0.91,2.8,1.54
,-9.361,-0.701,-3.398,-9.158,-1.06,-3.128,0.63,2.24,1.33
,-9.258,-0.68,-3.226,-9.222,-1.07,-3.015,-0.14,1.75,1.33
,-9.485,-0.775,-3.333,-9.234,-1.065,-2.752,-0.98,1.82,0.91
5092.0,-9.308,-1.098,-2.51,-9.418,-1.031,-2.242,0.77,3.5,2.59
,-9.414,-0.995,-2.166,-9.301,-1.117,-2.702,1.26,4.55,2.94
,-9.478,-0.871,-1.948,-9.172,-0.972,-2.673,0.77,5.81,3.43
,-9.552,-0.885,-2.075,-9.206,-0.785,-2.513,-0.7,6.86,3.5
5168.0,-9.368,-0.785,-2.517,-9.301,0.115,-4.049,-0.56,13.23,4.48
,-9.593,-0.462,-2.448,-9.189,-0.261,-4.487,0.98,14.0,4.9
,-9.631,-0.213,-3.029,-8.902,-0.933,-4.403,-0.84,12.6,3.92
,-9.397,0.101,-3.503,-8.734,-1.563,-3.754,-5.67,10.22,2.17
5244.0,-9.0,-2.044,-3.649,-9.773,0.148,-3.072,-12.46,8.82,0.98
,-9.217,-1.957,-2.613,-9.507,-0.369,-4.137,-5.88,8.89,1.61
,-9.615,-1.036,-2.869,-9.076,-0.845,-4.35,-0.63,6.86,1.47
,-9.282,-0.426,-2.402,-8.854,-1.498,-4.511,-0.7,5.32,0.98
5320.0,-8.614,-2.213,-4.637,-9.244,-0.838,-2.941,-13.3,4.97,3.71
,-8.653,-2.027,-3.685,-9.079,-0.553,-2.048,0.28,8.4,6.44
,-9.184,-1.491,-3.848,-9.359,-0.043,-1.711,11.62,8.4,7.0
,-9.244,-1.17,-3.326,-9.61,0.23,-1.527,17.71,9.24,7.77
5396.0,-9.715,0.211,-2.096,-9.038,-0.285,-3.285,18.06,15.68,7.49
,-9.323,-0.041,-2.642,-9.103,-0.452,-3.25,12.74,15.47,7.07
,-9.019,-0.084,-2.67,-9.057,-0.905,-3.142,9.73,16.94,7.14
,-9.045,-0.101,-3.381,-8.985,-0.876,-2.812,6.16,17.15,5.81
5472.0,-8.789,-0.95,-2.742,-9.222,-0.73,-4.216,-4.2,21.28,0.28
,-8.952,-0.967,-2.783,-8.921,-0.912,-4.302,-3.43,22.82,0.35
,-9.002,-0.876,-3.192,-8.837,-1.249,-4.319,-1.96,22.82,0.91
,-9.234,-0.727,-3.551,-8.854,-1.357,-4.396,-0.35,22.61,1.19
5548.0,-8.808,-0.897,-4.853,-9.072,-0.359,-4.276,10.99,21.63,4.27
,-8.708,-0.668,-4.767,-9.454,-0.191,-4.893,12.88,20.86,3.92
,-8.634,-0.507,-4.628,-8.789,-0.055,-4.92,12.32,20.72,2.73
,-8.77,-0.538,-4.513,-9.043,-0.053,-4.972,10.43,20.65,1.05
5624.0,-8.665,-0.141,-5.15,-8.847,-1.182,-4.611,7.21,17.36,-1.26
,-8.543,-0.33,-5.123,-8.799,-1.438,-4.427,6.72,17.85,-1.47
,-8.607,-0.486,-4.893,-8.784,-1.529,-4.3,6.79,17.85,-1.96
,-8.904,-0.67,-4.647,-8.847,-1.328,-4.604,6.51,17.43,-2.59
5700.0,-8.777,-1.18,-5.039,-8.636,-1.496,-4.884,12.32,13.93,-0.56
,-8.662,-1.225,-5.164,-8.868,-1.383,-4.604,11.55,13.86,0.0
,-8.502,-1.409,-5.19,-8.938,-1.271,-4.681,10.22,14.42,0.42
,-8.516,-1.438,-4.903,-8.768,-1.103,-4.771,9.8,15.19,1.19
5776.0,-8.825,-0.553,-4.846,-8.796,0.055,-4.889,18.69,11.76,2.73
,-8.808,-0.093,-4.965,-8.964,-0.017,-4.602,20.02,10.43,2.59
,-8.722,0.17,-5.14,-8.882,-0.459,-4.563,19.67,9.66,1.33
,-8.839,0.199,-4.999,-8.653,-0.938,-4.623,17.29,8.54,-0.49
5852.0,-8.693,-0.732,-4.776,-9.021,-0.053,-4.441,9.94,5.46,-6.65
,-8.681,-0.495,-4.7,-8.782,-0.201,-4.63,12.46,5.53,-7.49
,-8.856,-0.168,-4.508,-8.528,-0.395,-4.793,13.37,5.67,-8.26
,-8.827,0.091,-4.444,-8.603,-0.682,-4.752,12.53,5.32,-9.66
5928.0,-8.607,-1.098,-4.683,-8.61,-1.675,-5.049,6.58,6.02,-10.64
,-8.399,-1.218,-4.949,-8.318,-2.233,-4.779,9.24,6.65,-9.17
,-8.775,-1.644,-4.745,-8.536,-2.41,-4.86,11.83,6.02,-8.05
,-8.708,-1.62,-5.001,-8.579,-2.826,-4.805,14.07,5.11,-7.07
6004.0,-8.547,-2.953,-5.013,-8.519,-2.235,-4.934,17.22,6.58,-0.14
,-8.32,-2.773,-5.018,-8.83,-2.003,-4.664,19.46,6.65,1.19
,-8.483,-2.721,-4.949,-8.524,-1.366,-4.953,19.04,7.14,3.99
,-8.356,-2.666,-4.798,-8.552,-0.845,-4.855,20.09,7.35,6.65
6080.0,-8.44,-0.615,-4.987,-8.765,0.184,-5.391,23.38,3.99,5.46
,-8.748,-0.388,-4.731,-8.454,-0.069,-5.441,22.75,3.43,3.57
,-9.019,-0.237,-4.745,-8.646,-0.093,-5.64,22.54,3.15,3.15
,-8.885,-0.022,-5.075,-8.906,-0.426,-5.642,21.63,2.31,2.52
6156.0,-8.741,-1.098,-5.162,-8.148,-2.977,-4.681,14.14,1.05,-0.84
,-8.421,-1.735,-5.15,-8.423,-2.9,-4.652,12.81,0.56,-0.49
,-8.361,-2.094,-5.181,-8.705,-2.513,-4.671,13.23,0.14,0.91
,-8.342,-2.57,-4.848,-8.495,-2.178,-4.642,12.39,0.56,3.22
6232.0,-8.567,-1.95,-4.724,-8.631,-1.24,-4.853,16.38,2.8,6.93
,-8.562,-1.768,-4.614,-8.631,-1.053,-4.96,15.47,3.36,7.0
,-8.701,-1.677,-4.803,-8.567,-1.058,-4.98,14.35,4.48,7.56
,-8.684,-1.493,-4.925,-8.555,-1.12,-4.762,15.12,4.55,8.05
6308.0,-8.547,-1.201,-4.812,-8.71,-0.818,-4.834,11.69,4.13,7.49
,-8.571,-0.845,-5.02,-8.662,-1.137,-4.733,11.62,3.92,6.65
,-8.787,-0.517,-4.972,-8.512,-1.381,-4.702,10.78,3.15,5.25
,-8.832,-0.474,-4.92,-8.536,-1.493,-4.791,8.96,2.87,4.13
6384.0,-8.583,-1.563,-4.858,-8.591,-1.374,-4.968,2.38,3.64,2.38
,-8.66,-1.615,-4.884,-8.583,-1.232,-4.901,2.03,2.94,2.1
,-8.555,-1.45,-4.836,-8.495,-0.9,-5.238,2.24,2.24,2.03
,-8.66,-1.378,-4.905,-8.653,-0.878,-5.293,1.68,1.96,1.96
6460.0,-8.65,-0.943,-5.221,-8.536,-1.007,-4.975,-1.33,2.31,-0.28
,-8.547,-0.845,-5.157,-8.677,-0.943,-4.843,-0.77,2.73,-0.91
,-8.603,-0.802,-5.092,-8.6,-1.034,-4.915,-0.42,3.64,-1.47
,-8.614,-0.842,-5.061,-8.588,-1.419,-4.704,-0.84,4.69,-2.03
6536.0,-8.533,-1.653,-4.872,-8.375,-1.91,-4.862,-8.89,3.78,-3.5
,-8.646,-1.79,-4.812,-8.413,-1.658,-4.934,-9.94,3.71,-2.94
,-8.569,-1.986,-4.807,-8.662,-1.452,-4.992,-10.57,4.13,-2.1
,-8.406,-2.02,-4.798,-8.71,-1.309,-5.073,-10.36,4.48,-1.33
6612.0,-8.686,-1.249,-5.102,-8.641,-1.168,-5.159,-13.16,5.53,0.14
,-8.734,-1.074,-4.951,-8.507,-1.402,-5.164,-13.93,5.67,-0.14
,-8.65,-1.065,-4.874,-8.471,-1.472,-5.049,-15.61,5.67,0.42
,-8.715,-1.0,-5.044,-8.658,-1.433,-5.14,-17.64,4.69,1.33
6688.0,-8.705,-1.335,-5.396,-8.571,-1.216,-5.372,-18.97,1.61,5.95
,-8.765,-1.07,-5.43,-8.547,-1.091,-5.571,-18.2,0.84,6.16
,-8.543,-0.981,-5.374,-8.519,-1.108,-5.585,-19.18,0.98,6.09
,-8.514,-1.086,-5.386,-8.492,-0.979,-5.666,-21.14,1.05,6.37
6764.0,-8.464,-0.976,-5.698,-8.512,-0.888,-5.621,-21.7,-2.38,7.14
,-8.72,-0.979,-5.532,-8.394,-0.964,-5.662,-20.79,-3.5,6.65
,-8.71,-0.778,-5.599,-8.387,-0.995,-5.564,-19.88,-4.13,5.88
,-8.581,-0.706,-5.592,-8.626,-1.354,-5.513,-20.09,-3.85,6.09
6840.0,-8.945,-1.431,-5.233,-8.595,-0.663,-5.063,-21.0,-6.79,8.4
,-8.483,-1.077,-5.669,-8.622,-0.761,-5.121,-19.95,-9.66,8.4
,-8.433,-1.0,-5.401,-8.693,-0.833,-4.953,-17.5,-10.22,7.56
,-8.358,-0.854,-5.303,-8.758,-0.955,-4.889,-14.21,-10.22,7.07
6916.0,-8.677,-0.79,-5.138,-8.758,-0.457,-4.609,-8.89,-11.13,7.35
,-8.552,-0.754,-5.013,-8.629,-0.366,-4.618,-7.28,-10.85,7.98
,-8.442,-0.816,-4.764,-8.71,-0.208,-4.771,-4.97,-10.64,7.07
,-8.818,-0.562,-4.587,-8.332,-0.246,-4.795,-2.17,-11.9,6.86
6992.0,-8.361,-0.591,-4.554,-8.928,0.045,-4.233,-8.19,-16.1,2.73
,-8.866,-0.56,-4.197,-8.693,-0.12,-4.319,-6.37,-15.54,1.47
,-8.624,-0.299,-4.477,-8.624,-0.4,-4.274,-3.99,-16.31,-0.63
,-8.827,-0.098,-4.441,-8.995,-0.529,-4.209,-1.68,-16.03,-2.38
7068.0,-9.028,-0.598,-4.178,-8.643,-0.069,-4.448,-5.46,-10.43,0.21
,-8.811,-0.438,-4.365,-8.792,0.148,-4.523,-3.36,-11.83,0.0
,-9.05,-0.156,-4.496,-8.847,-0.007,-4.259,-0.42,-11.76,-0.35
,-8.528,-0.203,-4.535,-8.811,-0.244,-4.118,-0.14,-11.48,-0.7
7144.0,-8.894,-0.474,-3.8,-8.988,-0.622,-3.86,-3.29,-6.93,-2.38
,-8.995,-0.486,-3.745,-8.897,-0.615,-4.058,-2.66,-6.51,-2.03
,-8.878,-0.479,-3.831,-8.753,-0.689,-3.881,-2.73,-7.84,-2.73
,-8.82,-0.577,-4.054,-8.866,-0.589,-3.896,-2.66,-8.26,-2.8
7220.0,-9.229,-0.634,-4.044,-8.978,-0.634,-3.75,1.12,-7.56,-2.87
,-9.062,-0.625,-4.089,-9.196,-0.503,-3.946,1.4,-7.84,-2.17
,-8.993,-0.584,-3.86,-9.191,-0.213,-4.094,1.61,-7.7,-1.47
,-8.777,-0.711,-3.807,-8.911,-0.199,-4.166,1.47,-7.91,-1.96
7296.0,-8.839,-0.385,-4.216,-9.239,-0.251,-3.869,2.38,-9.73,-2.03
,-8.813,-0.512,-3.877,-9.141,0.01,-4.314,3.08,-8.82,-1.68
,-9.04,-0.572,-3.656,-8.775,-0.06,-4.08,4.83,-8.05,-1.68
,-9.294,-0.555,-3.738,-8.847,-0.12,-3.678,6.37,-8.26,-2.03
7372.0,-9.129,-0.445,-3.695,-8.978,-0.163,-4.207,1.68,-9.87,-4.13
,-9.16,-0.562,-3.455,-9.131,-0.297,-4.324,2.66,-9.31,-4.76
,-9.296,-0.467,-3.941,-9.105,-0.357,-4.149,3.36,-10.08,-4.9
,-9.036,-0.471,-4.379,-9.057,-0.352,-3.814,4.06,-11.41,-5.04
7448.0,-9.091,-0.675,-3.575,-9.148,-0.711,-2.998,2.73,-12.32,-5.81
,-9.095,-0.696,-3.02,-9.143,-0.991,-2.998,2.59,-11.69,-5.95
,-9.287,-0.629,-3.393,-9.194,-1.027,-2.704,3.36,-11.76,-6.3
,-9.337,-0.732,-3.195,-9.308,-0.787,-3.072,1.89,-12.67,-7.0
7524.0,-9.45,-0.455,-3.465,-9.179,-0.67,-3.161,7.35,-10.71,-5.04
,-9.351,-0.175,-4.063,-9.44,-0.452,-3.013,6.86,-12.04,-5.74
,-8.954,-0.357,-3.944,-9.61,-0.079,-3.475,4.41,-11.9,-5.6
,-8.801,-0.519,-3.309,-9.335,0.086,-3.58,5.46,-10.08,-4.06
7600.0,-9.024,-0.23,-3.051,-9.093,-0.842,-3.999,1.12,-9.31,-6.44
,-9.208,-0.665,-3.422,-8.99,-0.873,-3.75,-1.26,-8.61,-6.37
,-9.342,-1.18,-3.312,-9.107,-0.864,-3.532,-0.7,-8.47,-6.93
,-9.332,-1.103,-3.821,-9.244,-0.873,-3.214,1.26,-8.96,-6.79
7676.0,-9.294,-0.84,-2.761,-9.074,-0.921,-2.659,9.1,-7.14,-2.87
,-9.541,-0.742,-2.704,-9.196,-1.11,-2.491,9.66,-6.79,-2.73
,-9.677,-0.782,-3.113,-9.28,-1.342,-2.032,8.89,-7.7,-3.5
,-9.282,-0.828,-2.998,-9.373,-1.328,-1.878,8.12,-7.56,-3.36
7752.0,-9.648,-1.204,-2.034,-9.292,-0.797,-2.379,10.36,-1.33,-0.84
,-9.584,-1.11,-1.893,-9.275,-0.811,-2.335,9.66,-0.07,-0.7
,-9.466,-0.883,-2.158,-9.409,-0.749,-2.639,9.73,1.12,-0.28
,-9.397,-0.835,-2.257,-9.483,-0.675,-2.74,9.03,2.17,-0.14
7828.0,-9.409,-0.613,-2.855,-9.361,-0.78,-3.307,9.24,6.86,0.35
,-9.445,-0.62,-3.233,-9.328,-0.878,-3.467,7.7,6.51,-0.35
,-9.172,-0.744,-3.221,-9.249,-0.876,-3.364,6.37,6.51,-0.49
,-9.139,-0.79,-3.321,-9.246,-0.931,-3.223,5.88,7.0,-0.49
7904.0,-9.411,-0.845,-3.475,-9.165,-0.983,-4.08,3.22,6.3,-0.91
,-9.361,-0.857,-3.69,-9.184,-0.983,-4.171,3.01,5.81,-0.98
,-9.198,-0.818,-3.857,-9.213,-0.972,-4.202,2.17,5.18,-0.98
,-9.179,-0.94,-4.075,-9.22,-0.928,-4.078,1.12,4.41,-1.33
7980.0,-9.256,-0.988,-4.061,-9.237,-1.182,-3.436,-1.4,-0.42,-2.45
,-9.131,-0.986,-3.857,-9.153,-1.304,-3.324,-1.89,-1.26,-2.45
,-9.263,-0.967,-3.549,-9.182,-1.493,-3.151,-1.47,-1.4,-2.03
,-9.392,-1.062,-3.599,-9.158,-1.481,-2.962,-1.68,-2.1,-2.17
8056.0,-9.299,-1.381,-2.84,-9.239,-1.01,-3.068,4.48,-0.28,0.91
,-9.44,-1.168,-2.962,-9.239,-1.041,-3.187,5.88,0.0,1.26
,-9.395,-1.01,-3.017,-9.244,-1.151,-3.187,5.74,0.07,1.4
,-9.263,-0.993,-3.065,-9.289,-1.031,-3.238,4.9,0.35,1.54
8132.0,-9.368,-0.943,-3.314,-9.227,-0.905,-3.661,6.58,1.4,2.03
,-9.385,-0.835,-3.501,-9.174,-1.015,-3.647,7.0,1.05,2.03
,-9.289,-0.742,-3.601,-9.196,-0.945,-3.46,6.65,0.77,2.03
,-9.189,-0.828,-3.623,-9.244,-1.017,-3.101,6.16,0.63,2.03
8208.0,-9.39,-0.988,-3.008,-9.253,-1.036,-2.85,8.19,0.07,2.1
,-9.507,-0.897,-3.003,-9.34,-1.053,-2.886,7.49,-0.07,1.75
,-9.383,-0.773,-2.95,-9.416,-1.012,-2.927,5.95,-0.14,1.61
,-9.296,-0.943,-2.946,-9.457,-0.859,-3.034,4.13,0.21,1.19
8284.0,-9.423,-0.809,-3.185,-9.174,-1.168,-3.41,2.24,1.61,0.91
,-9.299,-0.79,-3.297,-9.268,-1.117,-3.441,1.26,1.47,0.77
,-9.258,-0.955,-3.36,-9.308,-0.995,-3.374,0.7,1.4,0.63
,-9.213,-1.113,-3.412,-9.39,-0.888,-3.396,0.98,1.61,0.63
8360.0,-9.332,-0.818,-3.393,-9.316,-1.022,-3.204,3.99,1.05,1.47
,-9.258,-0.859,-3.367,-9.347,-1.079,-3.041,3.71,1.05,1.4
,-9.277,-0.948,-3.36,-9.351,-0.967,-2.977,3.36,0.98,1.26
,-9.308,-1.007,-3.317,-9.421,-0.792,-2.984,3.64,0.84,1.19
8436.0,-9.392,-0.811,-3.02,-9.296,-1.146,-3.068,3.43,1.4,1.33
,-9.356,-0.797,-3.082,-9.38,-1.027,-3.149,2.31,1.68,1.12
,-9.323,-1.022,-3.077,-9.399,-0.814,-3.151,1.19,1.61,0.91
,-9.282,-1.11,-3.053,-9.354,-0.711,-3.233,1.61,2.1,1.19
8512.0,-9.294,-0.761,-3.273,-9.426,-0.818,-3.295,1.68,2.52,0.98
,-9.273,-0.945,-3.185,-9.378,-0.653,-3.257,0.49,2.87,0.91
,-9.249,-1.156,-3.13,-9.296,-0.732,-3.252,0.77,3.15,1.05
,-9.38,-1.031,-3.228,-9.301,-0.842,-3.293,2.52,3.29,1.19
8588.0,-9.284,-1.005,-3.285,-9.268,-0.919,-3.479,0.42,3.08,0.49
,-9.294,-0.986,-3.259,-9.296,-0.919,-3.463,1.61,3.01,0.56
,-9.38,-0.976,-3.453,-9.325,-0.955,-3.403,2.24,2.87,0.49
,-9.304,-0.95,-3.417,-9.253,-0.983,-3.424,2.52,2.52,0.56
8664.0,-9.253,-1.0,-3.506,-9.287,-1.015,-2.752,2.31,1.54,0.77
,-9.213,-0.972,-3.439,-9.316,-1.015,-2.534,1.82,1.05,0.7
,-9.217,-0.94,-3.269,-9.371,-1.11,-2.56,1.12,1.12,0.84
,-9.232,-0.995,-3.082,-9.342,-1.161,-2.527,0.7,1.4,1.05
8740.0,-9.387,-1.117,-2.479,-9.397,-0.641,-2.429,-2.87,5.18,1.89
,-9.414,-0.981,-2.467,-9.517,-0.593,-3.01,-3.78,5.67,1.75
,-9.375,-0.799,-2.467,-9.407,-0.601,-3.345,-4.55,6.44,1.96
,-9.34,-0.656,-2.429,-9.081,-0.648,-3.288,-5.46,7.42,2.31
8816.0,-9.007,-0.948,-3.276,-9.229,-1.0,-3.319,-13.86,9.03,1.33
,-9.048,-1.364,-2.776,-9.112,-0.857,-3.632,-13.72,9.87,1.75
,-9.404,-1.165,-3.034,-8.933,-1.06,-3.544,-10.29,9.8,2.52
,-9.593,-1.216,-3.568,-9.167,-1.01,-3.635,-10.85,7.7,1.54
8892.0,-9.146,-0.979,-3.771,-9.064,-0.888,-3.211,-10.36,7.63,2.66
,-9.189,-0.572,-3.503,-9.06,-1.007,-2.374,-6.65,8.47,3.29
,-9.256,-0.378,-3.709,-9.651,-0.72,-2.814,-6.09,8.47,3.29
,-9.172,-0.672,-3.575,-9.55,-0.471,-3.223,-6.58,8.4,3.5
8968.0,-9.335,-0.445,-3.632,-9.261,-0.541,-2.821,-0.63,8.4,4.41
,-9.103,-0.572,-3.955,-9.335,-0.108,-3.154,-6.51,7.28,3.92
,-8.825,-0.814,-3.776,-9.261,0.026,-3.142,-10.01,8.12,4.27
,-8.777,-0.881,-3.108,-9.306,-0.278,-3.376,-9.1,10.01,4.13
9044.0,-8.949,-0.847,-3.037,-9.11,-1.098,-3.857,-9.45,14.21,3.57
,-9.148,-1.433,-2.927,-8.854,-1.307,-3.826,-5.88,16.03,4.83
,-8.959,-1.634,-2.477,-9.091,-1.536,-4.025,1.61,17.08,5.81
,-9.335,-1.101,-3.051,-8.885,-1.328,-3.944,9.45,16.31,6.44
9120.0,-9.179,-0.498,-4.264,-8.705,-0.359,-3.922,12.46,12.74,8.54
,-9.131,0.17,-4.788,-8.832,-0.514,-2.74,12.95,10.22,7.07
,-8.82,0.409,-4.788,-9.088,-0.352,-2.733,9.38,10.71,6.51
,-8.933,0.086,-4.41,-9.686,0.079,-3.312,3.64,13.23,5.88
9196.0,-9.624,-0.067,-4.879,-8.796,-0.849,-4.121,6.44,12.53,1.82
,-8.83,-0.577,-5.528,-9.095,-0.565,-4.188,3.43,11.13,3.15
,-8.449,-1.046,-5.475,-9.342,0.014,-4.121,4.27,12.32,5.39
,-8.215,-1.139,-4.635,-8.916,0.416,-4.362,6.65,13.72,5.81
9272.0,-8.961,0.218,-4.135,-9.203,-0.603,-4.898,0.56,12.32,1.33
,-8.825,-0.4,-4.18,-8.902,-0.203,-5.056,-3.08,13.58,1.47
,-8.827,-0.943,-3.948,-8.701,-0.333,-4.575,-2.87,15.4,1.54
,-9.273,-0.895,-4.463,-8.528,-0.723,-4.326,2.38,14.56,1.82
9348.0,-8.794,-1.175,-4.223,-8.737,-1.431,-3.795,6.3,9.59,-0.91
,-9.0,-1.546,-4.324,-8.882,-1.196,-3.877,6.37,8.26,-0.56
,-9.007,-1.584,-4.068,-9.067,-0.94,-4.145,8.05,8.54,0.14
,-8.746,-1.486,-4.001,-8.976,-0.495,-4.496,9.03,9.87,0.84
9424.0,-8.603,-0.464,-4.721,-8.902,-0.328,-4.434,10.99,10.57,3.78
,-8.619,-0.347,-4.496,-8.921,-0.756,-4.472,10.08,11.27,3.01
,-8.763,-0.232,-4.525,-8.725,-1.096,-4.381,10.43,11.2,2.17
,-8.875,-0.141,-4.365,-8.713,-1.797,-4.372,10.71,11.13,0.91
9500.0,-8.71,-1.677,-4.168,-8.945,0.78,-4.171,13.86,13.09,4.34
,-8.753,-1.268,-4.207,-8.988,1.091,-4.355,18.69,12.67,3.57
,-8.689,-0.567,-4.422,-9.16,1.484,-4.472,22.82,11.62,2.45
,-8.71,0.139,-4.42,-9.189,1.594,-4.491,24.57,12.11,0.77
9576.0,-9.098,1.644,-4.611,-8.784,-0.364,-4.692,9.94,9.8,-10.85
,-8.957,1.295,-4.645,-8.619,-0.955,-4.678,7.07,10.01,-12.95
,-9.028,0.952,-4.654,-8.77,-0.866,-4.939,5.11,9.1,-14.21
,-8.815,0.266,-4.618,-8.55,-0.613,-5.535,4.2,8.96,-15.26
9652.0,-8.679,-0.464,-5.056,-8.464,-2.592,-4.748,11.27,5.46,-17.36
,-8.476,-1.089,-4.915,-8.382,-2.714,-5.123,7.77,6.16,-17.36
,-8.488,-1.448,-4.941,-8.538,-2.833,-5.231,5.88,7.49,-15.61
,-8.83,-2.125,-4.594,-8.267,-2.728,-5.25,4.27,7.91,-13.16
9728.0,-8.318,-2.843,-5.54,-8.691,-2.972,-5.03,12.88,7.35,-3.5
,-8.284,-2.565,-5.611,-8.437,-2.972,-4.97,17.36,7.0,-1.12
,-8.689,-2.556,-5.422,-8.466,-2.309,-5.085,17.57,6.09,1.61
,-8.562,-2.824,-4.999,-8.33,-1.811,-5.236,17.08,5.46,4.48
9804.0,-8.705,-1.22,-5.243,-8.921,0.725,-5.748,23.94,0.84,8.05
,-8.16,-0.778,-5.286,-9.0,0.668,-5.523,23.87,-0.07,6.65
,-8.818,0.191,-5.336,-8.878,0.182,-5.485,24.08,-0.49,5.39
,-8.222,0.524,-5.686,-8.902,-0.218,-5.31,20.65,0.28,4.55
9880.0,-8.811,-0.83,-5.291,-8.689,-1.685,-5.384,6.79,-3.08,0.56
,-8.691,-1.208,-5.212,-8.746,-1.531,-5.111,7.84,-4.76,-0.49
,-8.583,-1.74,-4.987,-8.519,-1.766,-5.671,8.68,-5.32,-0.28
,-8.519,-1.898,-5.011,-8.356,-2.132,-5.418,10.85,-5.81,-0.35
9956.0,-8.435,-2.589,-5.08,-8.744,-1.577,-4.343,5.46,-9.45,6.79
,-8.471,-2.458,-4.838,-8.751,-1.285,-4.216,7.56,-9.17,7.63
,-8.55,-2.596,-4.29,-8.808,-1.029,-4.219,7.77,-8.54,8.26
,-8.607,-2.125,-4.432,-8.856,-0.919,-4.408,11.06,-8.05,8.4
10032.0,-8.916,-0.62,-4.36,-8.646,-1.225,-3.915,8.61,-7.49,9.24
,-8.655,-0.78,-4.549,-8.763,-1.206,-3.805,7.14,-8.4,8.89
,-8.581,-0.933,-4.362,-9.052,-0.909,-3.635,5.81,-6.93,8.96
,-8.543,-1.134,-4.137,-8.983,-0.931,-3.575,5.95,-5.39,8.89
10108.0,-8.715,-0.646,-3.855,-8.741,-0.754,-4.494,7.42,-2.17,6.72
,-8.815,-0.447,-4.025,-8.873,-0.821,-4.781,6.23,-1.54,5.74
,-8.954,-0.424,-4.176,-8.713,-0.94,-4.867,4.69,-0.21,4.69
,-8.693,-0.665,-4.35,-8.844,-0.95,-4.712,3.43,1.68,3.85
10184.0,-8.94,-0.933,-4.929,-8.576,-1.383,-4.58,1.26,3.43,1.82
,-8.72,-1.022,-4.776,-8.693,-1.405,-4.566,-0.14,1.4,0.84
,-8.677,-1.041,-4.688,-8.794,-1.218,-4.575,-1.12,1.19,0.0
,-8.696,-1.28,-4.532,-8.868,-0.852,-4.793,-2.1,1.96,-0.84
10260.0,-9.012,-0.637,-4.731,-8.734,-1.084,-4.57,-2.1,4.27,-2.38
,-8.765,-0.759,-4.776,-8.768,-1.206,-4.403,-4.83,3.22,-2.52
,-8.701,-0.744,-4.795,-8.868,-1.22,-4.463,-6.51,3.36,-2.66
,-8.698,-0.852,-4.707,-8.808,-1.321,-4.465,-7.77,3.99,-2.45
10336.0,-8.717,-1.462,-4.405,-8.634,-1.378,-4.625,-11.48,6.3,-0.77
,-8.751,-1.728,-4.554,-8.82,-1.378,-4.463,-11.9,5.81,-0.35
,-8.758,-1.706,-4.657,-8.882,-1.055,-4.537,-11.9,5.39,0.14
,-8.674,-1.491,-4.652,-8.873,-0.938,-4.618,-11.27,5.6,0.7
10412.0,-8.804,-0.797,-4.616,-8.933,-0.048,-4.748,-14.07,6.37,3.85
,-8.813,-0.617,-4.604,-8.911,0.067,-4.874,-15.12,6.23,4.06
,-8.768,-0.581,-4.63,-8.842,-0.089,-4.688,-16.38,6.72,4.97
,-8.906,-0.479,-4.518,-8.574,-0.493,-4.829,-16.31,7.0,5.6
10488.0,-8.598,-1.17,-4.484,-8.478,-1.218,-5.035,-22.82,6.93,5.67
,-8.758,-1.285,-4.645,-8.334,-1.369,-5.059,-21.7,7.35,6.58
,-9.009,-1.278,-4.523,-8.543,-1.519,-4.901,-19.81,6.37,6.79
,-8.813,-1.414,-4.81,-8.681,-1.295,-4.927,-17.78,5.53,7.21
10564.0,-8.689,-1.039,-4.958,-8.677,-0.574,-5.288,-12.46,5.67,10.15
,-8.868,-0.905,-4.822,-8.598,-0.237,-5.382,-12.67,4.9,9.87
,-8.741,-0.945,-5.004,-8.528,-0.179,-5.212,-12.81,4.27,9.8
,-8.772,-0.931,-5.078,-8.631,-0.105,-5.001,-12.11,4.27,10.08
10640.0,-9.095,-1.658,-4.046,-8.356,-0.464,-5.197,-10.78,3.5,9.59
,-9.024,-0.014,-5.164,-8.5,-0.412,-5.104,-6.72,2.03,7.77
,-8.827,-0.507,-4.968,-8.794,-0.29,-4.8,-7.77,1.26,7.7
,-8.629,-0.57,-5.217,-8.703,0.057,-5.085,-7.21,0.77,7.56
10716.0,-8.739,0.002,-5.054,-8.55,-0.402,-4.893,-3.99,-3.43,4.2
,-8.612,-0.057,-4.946,-8.892,-0.505,-4.972,-5.81,-3.29,3.71
,-8.739,-0.187,-4.757,-8.784,-0.507,-4.867,-7.63,-3.22,3.78
,-8.591,-0.273,-4.917,-8.904,-0.486,-4.836,-7.42,-3.57,2.45
10792.0,-8.911,-0.548,-4.733,-8.77,-0.029,-5.001,0.98,-0.49,5.32
,-8.78,-0.782,-4.704,-8.653,0.0,-4.98,3.99,-2.8,4.76
,-8.464,-0.273,-4.903,-8.366,-0.136,-4.958,4.48,-4.27,3.78
,-8.926,-0.182,-4.829,-8.634,-0.081,-4.853,5.25,-6.37,2.94
10868.0,-8.734,-0.091,-4.963,-8.789,-0.677,-4.74,-0.35,-6.58,-0.28
,-8.811,-0.148,-4.774,-8.966,-0.658,-4.649,0.7,-5.74,-0.35
,-8.741,0.036,-4.908,-9.201,-0.586,-4.625,1.61,-4.97,0.35
,-8.681,-0.342,-4.898,-8.935,-0.184,-4.889,1.54,-3.36,1.4
10944.0,-8.6,-0.122,-4.865,-8.512,-0.459,-4.578,4.76,-9.17,1.19
,-8.48,-0.086,-4.721,-8.603,-0.431,-4.386,4.27,-9.17,0.0
,-8.897,-0.017,-4.649,-8.887,-0.38,-4.255,2.73,-8.89,-0.49
,-8.792,-0.17,-4.944,-8.952,-0.208,-4.36,2.03,-8.61,-0.49
11020.0,-9.016,0.096,-4.508,-8.765,-0.373,-4.322,9.52,-4.97,0.56
,-8.93,0.28,-4.472,-9.143,-0.586,-4.204,8.47,-4.97,1.82
,-8.914,0.364,-4.357,-8.949,-0.61,-4.123,6.65,-4.76,1.4
,-8.591,-0.005,-4.257,-8.667,-0.581,-3.972,4.34,-4.62,0.0
11096.0,-8.818,-0.402,-4.042,-8.686,0.309,-4.762,1.12,-8.4,-3.92
,-9.141,-0.163,-4.228,-8.751,0.077,-4.587,1.89,-8.68,-4.13
,-8.868,0.0,-4.515,-8.677,-0.297,-4.226,1.26,-10.15,-4.83
,-8.906,0.249,-4.762,-8.976,-0.692,-3.642,0.56,-10.29,-4.2
11172.0,-9.024,-0.916,-3.781,-8.804,-0.66,-3.829,1.05,-6.02,-6.79
,-9.107,-0.725,-3.877,-8.957,-0.562,-3.743,2.52,-6.65,-6.02
,-9.055,-0.641,-4.027,-9.131,-0.517,-3.874,3.36,-7.07,-4.48
,-9.0,-0.536,-3.958,-8.93,-0.282,-3.833,3.57,-6.72,-3.57
11248.0,-8.959,-0.103,-3.896,-8.854,-0.682,-4.384,4.48,-6.93,-3.78
,-9.016,-0.376,-3.953,-8.964,-0.232,-4.212,3.22,-6.86,-3.71
,-8.957,-0.605,-3.802,-9.057,-0.124,-4.448,4.2,-6.72,-3.5
,-9.043,-0.744,-4.283,-9.06,-0.019,-4.264,6.09,-7.21,-3.85
11324.0,-9.05,-0.022,-4.147,-9.067,-0.392,-3.685,7.42,-9.1,-4.06
,-9.021,0.017,-3.628,-9.167,-0.383,-3.924,6.51,-8.96,-4.27
,-9.165,-0.05,-3.606,-9.074,-0.663,-4.173,4.9,-9.52,-5.88
,-9.174,-0.23,-3.762,-8.954,-0.804,-3.984,3.01,-10.29,-7.42
11400.0,-8.854,-0.816,-3.546,-9.332,-0.424,-3.396,2.17,-10.92,-5.95
,-9.007,-0.914,-3.223,-9.088,-0.414,-3.771,3.5,-9.73,-5.74
,-9.287,-0.809,-2.962,-9.055,-0.505,-4.173,5.81,-8.89,-5.25
,-9.378,-0.663,-3.147,-8.973,-0.555,-4.472,5.88,-9.24,-5.32
11476.0,-8.703,-0.653,-4.24,-9.407,-0.766,-3.075,2.59,-9.45,-5.53
,-8.88,-0.67,-3.886,-9.332,-0.668,-2.938,5.67,-8.33,-4.2
,-9.086,-0.766,-3.434,-9.311,-0.787,-3.075,7.7,-7.42,-3.64
,-9.375,-0.73,-3.18,-9.129,-1.0,-2.678,9.66,-6.58,-2.94
11552.0,-9.115,-1.039,-2.472,-9.476,-0.842,-2.259,7.28,-2.87,-1.26
,-9.203,-1.101,-2.151,-9.452,-0.529,-2.948,8.26,-0.7,-0.42
,-9.33,-1.235,-1.957,-9.323,-0.378,-3.551,8.68,1.12,0.07
,-9.459,-0.974,-2.233,-9.091,-0.364,-4.116,8.54,1.96,0.07
11628.0,-8.909,-0.62,-4.391,-9.261,-1.113,-3.714,-8.05,0.56,-4.2
,-8.722,-0.761,-4.527,-9.304,-0.96,-3.216,-7.42,0.84,-3.85
,-8.794,-0.993,-4.348,-9.32,-0.79,-2.996,-4.48,1.61,-3.29
,-9.055,-1.077,-4.164,-9.308,-0.725,-2.603,0.14,2.1,-1.96
11704.0,-9.356,-0.747,-2.539,-9.34,-1.022,-2.259,6.3,3.85,-0.28
,-9.323,-0.924,-2.508,-9.493,-0.835,-2.702,4.2,4.62,-0.35
,-9.203,-1.12,-2.249,-9.454,-0.584,-3.561,3.36,6.3,-0.07
,-9.179,-1.082,-2.127,-9.086,-0.629,-3.888,4.69,8.33,0.7
11780.0,-8.873,-0.809,-4.195,-8.952,-0.629,-4.793,0.84,9.45,-0.35
,-8.938,-0.914,-4.52,-8.978,-0.861,-4.707,1.82,9.31,-0.28
,-9.002,-0.749,-4.74,-8.985,-0.955,-4.391,3.15,8.68,-0.21
,-8.966,-0.67,-4.776,-9.107,-0.864,-4.302,2.94,7.77,-0.35
11856.0,-9.215,-0.89,-4.257,-9.036,-0.955,-3.838,3.64,4.2,0.14
,-9.115,-0.847,-4.176,-9.033,-1.019,-3.666,3.01,3.36,0.14
,-9.007,-0.914,-4.082,-9.122,-1.125,-3.455,2.31,2.87,0.14
,-9.048,-1.0,-3.984,-9.277,-1.034,-3.522,2.31,2.87,0.42
11932.0,-9.258,-0.823,-3.553,-9.021,-0.57,-4.058,4.62,3.64,1.75
,-9.206,-0.641,-3.699,-9.036,-0.83,-4.001,4.2,3.64,1.54
,-9.153,-0.57,-3.848,-9.048,-0.94,-3.924,2.59,3.43,1.26
,-9.057,-0.555,-3.953,-9.112,-0.905,-3.905,1.05,3.08,0.7
12008.0,-9.103,-0.747,-3.676,-9.112,-0.974,-3.515,2.24,3.01,0.56
,-9.155,-0.704,-3.577,-9.198,-0.916,-3.597,2.45,3.15,0.49
,-9.139,-0.756,-3.508,-9.131,-0.811,-3.666,1.75,3.22,0.28
,-9.127,-0.84,-3.465,-9.072,-0.854,-3.714,1.26,3.71,0.35
12084.0,-9.158,-0.823,-3.771,-9.031,-0.907,-4.195,3.43,5.18,0.77
,-9.225,-0.706,-4.049,-8.997,-0.914,-4.245,3.71,4.9,0.63
,-9.15,-0.665,-4.118,-9.014,-0.732,-4.243,2.94,4.48,0.35
,-8.928,-0.732,-4.111,-8.993,-0.828,-4.116,1.82,4.13,0.28
12160.0,-8.993,-1.003,-3.936,-9.086,-0.78,-3.723,1.89,3.5,0.63
,-9.05,-1.079,-3.829,-9.095,-0.675,-3.695,2.52,3.57,0.91
,-9.079,-0.916,-3.845,-9.146,-0.701,-3.719,3.36,3.57,1.05
,-9.119,-0.742,-3.798,-9.122,-0.663,-3.917,3.22,3.36,0.91
12236.0,-9.107,-0.67,-3.932,-9.048,-0.799,-4.214,1.47,3.5,0.35
,-9.043,-0.821,-3.912,-8.978,-0.816,-4.2,1.26,3.71,0.35
,-9.038,-0.871,-4.03,-9.019,-0.885,-4.252,1.19,3.57,0.21
,-9.031,-0.881,-4.183,-9.009,-0.826,-4.18,1.54,3.22,0.21
12312.0,-9.064,-0.818,-4.243,-9.045,-0.771,-3.984,2.17,2.03,0.14
,-9.021,-0.792,-4.125,-9.038,-0.782,-3.929,2.73,1.68,0.35
,-9.057,-0.747,-4.142,-9.045,-0.794,-3.841,2.94,1.26,0.35
,-9.021,-0.823,-4.034,-8.995,-0.948,-3.656,3.01,1.26,0.35
12388.0,-9.079,-0.928,-3.687,-9.11,-0.787,-3.927,2.8,1.68,0.21
,-9.122,-0.859,-3.685,-9.045,-0.859,-4.046,3.01,1.82,0.28
,-9.129,-0.768,-3.759,-9.024,-0.921,-4.087,2.66,1.96,0.28
,-9.081,-0.694,-3.781,-8.99,-1.041,-4.137,2.17,1.96,0.14
12464.0,-8.971,-1.065,-3.888,-9.057,-0.644,-4.034,2.17,2.24,0.35
,-9.15,-0.945,-3.987,-8.942,-0.811,-4.051,3.64,2.17,0.49
,-9.136,-0.701,-3.953,-8.988,-0.924,-4.046,4.27,1.75,0.49
,-9.148,-0.56,-4.066,-9.036,-0.94,-3.982,3.15,1.47,0.28
12540.0,-9.007,-0.852,-3.999,-9.072,-0.78,-3.867,2.66,1.89,0.42
,-9.06,-0.964,-3.659,-9.062,-0.718,-4.089,2.8,2.24,0.63
,-9.148,-0.878,-3.74,-8.985,-0.821,-4.14,2.8,1.96,0.35
,-9.155,-0.768,-3.898,-8.954,-0.907,-4.149,2.52,1.89,0.21
12616.0,-8.949,-0.952,-4.015,-9.033,-0.756,-3.991,2.45,1.75,0.21
,-9.024,-0.869,-4.089,-9.002,-0.811,-4.025,4.41,1.68,0.35
,-9.103,-0.818,-4.025,-9.064,-0.881,-3.977,4.48,1.54,0.35
,-9.055,-0.744,-4.011,-9.036,-0.869,-3.821,3.99,1.19,0.28
12692.0,-9.136,-0.89,-3.726,-9.033,-0.988,-3.86,4.55,1.47,0.28
,-9.184,-0.809,-3.757,-9.026,-1.027,-3.999,5.18,1.75,0.42
,-9.155,-0.754,-3.802,-8.99,-0.974,-3.967,5.11,1.68,0.28
,-9.079,-0.823,-3.862,-9.057,-0.962,-4.051,4.27,1.68,0.35
12768.0,-8.99,-0.945,-3.996,-9.103,-0.842,-3.929,4.62,1.68,0.63
,-9.028,-0.857,-3.984,-9.105,-0.833,-4.013,5.18,1.61,0.7
,-9.036,-0.806,-3.853,-8.99,-0.981,-3.881,4.62,1.47,0.7
,-9.107,-0.878,-3.831,-9.024,-1.0,-3.965,4.13,1.33,0.7
12844.0,-8.988,-1.019,-3.869,-9.012,-0.914,-3.999,4.13,1.05,0.98
,-9.081,-0.993,-3.975,-8.995,-0.876,-4.027,4.55,1.12,0.91
,-9.1,-0.871,-4.082,-8.988,-0.9,-4.022,4.76,0.91,0.98
,-9.103,-0.873,-4.02,-9.0,-0.95,-3.898,4.06,0.7,0.91
12920.0,-9.05,-1.0,-3.958,-9.091,-0.744,-3.482,2.03,0.28,1.26
,-8.997,-0.94,-3.805,-9.198,-0.648,-3.549,1.75,0.21,1.4
,-9.055,-0.909,-3.795,-9.1,-0.629,-3.64,1.54,0.49,1.54
,-9.11,-0.897,-3.668,-9.019,-0.833,-3.659,0.98,0.91,1.75
12996.0,-8.973,-0.986,-3.628,-8.906,-0.735,-3.9,-4.41,2.59,1.26
,-9.04,-0.948,-3.845,-9.024,-0.732,-3.836,-3.01,2.73,1.4
,-9.129,-0.902,-3.955,-9.294,-0.625,-3.975,-2.03,2.73,1.26
,-8.988,-0.739,-3.951,-9.347,-0.572,-4.231,-1.75,2.73,1.4
13072.0,-9.036,-0.438,-4.281,-8.909,-1.12,-4.195,-7.28,-0.28,-1.4
,-9.036,-0.447,-4.599,-9.375,-1.333,-3.841,-9.45,-1.33,-1.89
,-8.916,-0.589,-4.611,-9.249,-1.079,-3.242,-11.48,-2.52,-2.1
,-8.698,-0.818,-4.487,-9.454,-0.419,-3.352,-12.6,-2.94,-1.82
13148.0,-9.213,-0.278,-3.659,-9.275,-1.369,-2.709,-15.12,-8.96,-2.87
,-8.842,-0.57,-3.52,-9.445,-0.962,-3.333,-18.97,-7.49,-2.38
,-8.808,-1.228,-3.273,-9.404,-0.572,-3.853,-19.88,-4.55,-1.26
,-8.892,-1.665,-2.924,-8.89,-0.529,-4.197,-16.31,-1.89,-0.21
13224.0,-8.588,-0.912,-4.109,-9.225,-0.759,-3.307,-4.55,-0.28,3.64
,-8.705,-1.144,-3.656,-9.177,-0.522,-3.151,-1.54,2.03,4.69
,-8.935,-1.043,-3.288,-9.217,-0.656,-3.293,4.69,4.62,5.46
,-9.213,-0.89,-3.441,-9.22,-0.558,-3.046,9.38,5.46,5.46
13300.0,-9.249,-0.452,-3.728,-8.696,-0.756,-3.702,8.4,5.11,5.04
,-9.086,-0.438,-3.503,-8.784,-0.727,-3.398,7.49,5.39,5.25
,-9.201,-0.354,-3.766,-8.906,-0.723,-3.427,5.46,5.25,4.83
,-8.892,-0.727,-4.001,-8.973,-0.751,-3.398,1.96,5.53,4.13
13376.0,-9.105,-0.806,-3.202,-9.105,-0.067,-3.455,1.82,9.8,2.73
,-9.141,-0.986,-3.364,-9.471,-0.038,-4.097,2.24,10.64,3.5
,-9.182,-0.756,-2.962,-9.069,-0.57,-4.925,5.11,11.9,5.04
,-9.308,-0.342,-3.513,-8.902,-0.926,-5.073,7.7,10.57,5.04
13452.0,-8.72,-1.086,-5.468,-8.928,-0.486,-4.135,0.7,6.86,3.15
,-8.681,-1.07,-5.489,-8.708,-0.38,-3.893,5.04,7.14,3.71
,-8.595,-0.969,-4.946,-9.196,-0.268,-3.508,9.17,8.05,3.78
,-8.918,-0.692,-4.582,-8.873,0.129,-3.439,11.48,7.7,2.59
13528.0,-8.99,0.103,-3.367,-9.04,-0.773,-5.389,3.99,10.01,-0.35
,-8.969,-0.278,-3.362,-8.344,-0.735,-5.205,1.61,10.92,0.0
,-9.737,-0.562,-3.874,-8.205,-1.213,-4.86,1.75,9.17,0.28
,-9.495,-0.926,-4.992,-8.677,-1.929,-4.245,2.03,5.74,0.21
13604.0,-9.129,-2.345,-4.156,-8.756,-1.342,-3.845,6.23,5.95,2.52
,-8.947,-2.376,-4.312,-9.115,-0.957,-4.027,9.1,4.27,3.5
,-8.856,-1.996,-4.085,-9.16,-0.369,-4.377,12.46,4.97,4.9
,-8.701,-1.567,-3.967,-9.055,0.194,-4.611,14.56,5.81,6.16
13680.0,-8.839,0.514,-4.575,-9.198,-0.246,-4.166,14.35,6.58,7.0
,-8.887,0.768,-4.48,-8.966,-0.62,-4.061,12.32,7.42,5.18
,-8.703,0.529,-4.501,-9.076,-0.873,-3.63,8.61,8.54,3.71
,-9.11,-0.098,-3.991,-8.942,-0.888,-3.738,5.04,8.4,2.24
13756.0,-8.892,-0.67,-3.738,-8.952,0.443,-4.271,8.33,6.72,0.49
,-9.028,-0.024,-4.008,-8.88,0.239,-4.204,11.69,5.95,0.42
,-9.052,0.431,-4.334,-8.782,0.017,-4.31,12.88,5.11,-1.26
,-8.954,0.66,-4.47,-8.88,-0.17,-4.482,11.97,5.25,-3.29
13832.0,-8.988,-0.347,-4.487,-8.945,-1.211,-4.573,5.32,9.66,-9.45
,-8.988,-0.689,-4.389,-8.813,-1.45,-4.7,5.46,10.43,-8.89
,-8.942,-0.955,-4.424,-8.863,-1.244,-4.599,6.16,9.1,-8.47
,-8.844,-1.101,-4.549,-8.861,-1.168,-4.578,7.28,6.86,-8.96
13908.0,-8.815,-1.01,-4.31,-8.741,-1.225,-4.377,12.25,4.27,-8.33
,-8.952,-0.974,-4.331,-8.457,-1.847,-4.223,10.99,3.99,-8.75
,-8.887,-0.816,-4.477,-8.794,-1.881,-4.03,10.15,2.52,-9.1
,-8.844,-0.969,-4.446,-8.768,-1.711,-4.53,8.26,1.75,-9.38
13984.0,-9.115,-1.328,-4.331,-8.476,-0.213,-4.929,13.3,5.88,-3.22
,-9.074,-0.828,-4.487,-8.595,-0.488,-4.745,15.19,5.74,-4.55
,-8.775,-0.213,-4.91,-8.837,-0.775,-4.618,15.33,5.18,-5.46
,-8.672,-0.086,-4.86,-8.837,-1.24,-4.59,12.88,5.95,-6.44
14060.0,-8.921,-1.776,-4.429,-8.871,-1.517,-4.547,3.99,8.05,-3.64
,-8.842,-1.84,-4.341,-8.478,-1.955,-4.422,7.49,8.33,-3.29
,-8.782,-2.326,-4.353,-8.605,-1.756,-4.487,9.17,8.47,-2.38
,-8.861,-2.223,-4.293,-8.581,-1.254,-4.905,10.78,8.12,-1.33
14136.0,-8.562,-1.261,-4.709,-8.871,-1.735,-4.499,16.66,8.54,2.31
,-8.607,-1.326,-4.843,-8.665,-1.531,-4.628,16.1,8.82,3.15
,-8.705,-1.67,-4.558,-8.571,-1.285,-4.736,15.47,7.91,3.36
,-8.782,-1.598,-4.499,-8.485,-1.12,-4.922,14.84,7.77,3.5
14212.0,-8.825,-0.964,-4.953,-8.306,-1.149,-5.063,20.3,7.77,4.69
,-8.973,-0.895,-5.059,-8.442,-1.24,-5.051,20.79,6.44,4.41
,-8.827,-0.763,-5.154,-8.787,-1.5,-5.032,19.95,4.27,3.57
,-8.701,-0.914,-5.106,-8.842,-1.546,-4.635,16.38,3.43,3.78
14288.0,-8.866,-1.732,-4.64,-8.655,-1.137,-4.972,14.07,2.24,4.69
,-8.72,-1.61,-4.826,-8.614,-1.058,-4.996,14.35,1.33,5.32
,-8.679,-1.364,-4.982,-8.681,-0.84,-5.051,14.49,0.91,5.18
,-8.686,-1.168,-5.097,-8.808,-0.541,-4.999,14.28,1.05,4.48
14364.0,-8.768,-0.445,-4.953,-8.636,-1.912,-4.759,8.68,0.91,1.26
,-8.748,-0.593,-5.068,-8.504,-2.056,-4.819,6.72,0.63,0.77
,-8.768,-0.962,-4.846,-8.447,-2.278,-4.949,4.55,0.56,0.21
,-8.612,-1.431,-4.836,-8.44,-2.053,-5.116,3.36,0.98,0.14
14440.0,-8.677,-1.608,-5.13,-8.746,-1.718,-4.633,6.44,2.66,2.38
,-8.737,-1.481,-5.13,-8.483,-1.709,-4.738,6.3,2.31,2.17
,-8.677,-1.448,-4.999,-8.598,-1.488,-4.575,5.53,2.31,1.96
,-8.794,-1.577,-4.762,-8.624,-0.849,-4.838,4.13,2.24,2.24
14516.0,-8.636,-0.462,-4.953,-8.842,-0.203,-4.755,1.68,-0.77,1.61
,-8.89,-0.136,-5.02,-8.93,-0.83,-4.487,0.35,-0.84,0.49
,-8.954,0.206,-4.908,-8.782,-1.027,-4.523,-1.4,-0.63,-0.56
,-8.863,0.294,-4.941,-8.619,-1.082,-4.74,-4.76,-0.35,-1.4
14592.0,-8.595,-1.247,-4.8,-8.634,-1.881,-4.994,-15.26,0.77,-0.42
,-8.693,-1.347,-4.953,-8.526,-2.154,-5.104,-16.24,-0.21,-0.21
,-8.839,-1.582,-4.968,-8.619,-2.245,-5.042,-17.15,-0.91,0.14
,-8.701,-1.802,-5.044,-8.629,-1.941,-5.19,-17.92,-1.12,0.56
14668.0,-8.825,-1.347,-5.049,-8.763,-1.122,-4.886,-11.27,0.56,5.88
,-8.923,-0.933,-5.078,-8.775,-1.316,-4.977,-11.69,-1.05,5.25
,-8.717,-0.696,-5.087,-8.801,-1.216,-5.104,-13.72,-1.89,4.97
,-8.725,-0.909,-4.898,-8.626,-1.196,-5.054,-16.52,-2.38,4.97
14744.0,-8.593,-1.05,-4.968,-8.871,-1.464,-4.958,-15.26,-3.99,8.33
,-8.564,-1.122,-5.006,-8.863,-1.335,-4.793,-14.49,-3.08,8.54
,-8.722,-1.256,-4.848,-8.88,-1.173,-4.602,-13.23,-1.96,9.59
,-8.892,-1.433,-4.69,-8.512,-0.601,-4.877,-12.32,-2.17,11.06
14820.0,-8.863,-0.627,-4.8,-8.768,-0.239,-4.97,-8.54,-8.12,8.47
,-8.804,-0.507,-4.807,-8.842,-0.512,-4.692,-9.24,-8.54,8.12
,-8.897,-0.44,-4.771,-8.782,-0.414,-4.867,-9.66,-9.1,7.91
,-8.648,-0.505,-5.346,-8.662,-0.443,-4.803,-5.67,-10.08,7.77
14896.0,-8.827,-0.452,-4.649,-8.698,-0.893,-3.991,-5.67,-10.22,4.55
,-9.021,-0.471,-4.563,-8.811,-1.161,-4.07,-5.25,-10.22,3.92
,-8.837,-0.412,-4.515,-8.949,-1.35,-4.123,-3.85,-11.06,2.94
,-8.693,-0.565,-4.527,-8.859,-1.096,-4.209,-2.94,-10.29,2.94
14972.0,-8.942,-0.928,-4.262,-8.854,-0.706,-3.814,5.81,-6.79,5.74
,-9.203,-0.586,-4.092,-8.926,-0.474,-3.821,4.48,-8.47,6.09
,-8.784,-1.003,-4.006,-8.878,-0.302,-3.927,3.5,-10.36,5.39
,-8.861,-0.687,-3.786,-8.835,-0.206,-3.776,1.54,-10.22,5.81
15048.0,-8.906,-0.211,-3.798,-9.0,-0.177,-3.85,1.26,-8.82,0.21
,-8.981,-0.213,-3.747,-8.792,-0.402,-3.819,0.35,-7.91,0.28
,-9.093,-0.156,-4.039,-9.28,-0.438,-3.771,1.05,-6.65,1.54
,-8.993,-0.165,-3.872,-9.014,-0.548,-3.903,2.52,-5.6,1.12
15124.0,-8.916,-0.514,-3.702,-8.882,-0.438,-4.137,1.82,-5.53,-0.63
,-9.1,-0.364,-3.819,-8.849,-0.452,-4.219,1.89,-5.11,-1.12
,-9.105,-0.581,-4.003,-8.839,-0.546,-4.066,1.61,-5.32,-1.26
,-9.045,-0.491,-4.116,-9.067,-0.493,-3.92,1.4,-5.25,-1.61
15200.0,-9.105,-0.414,-3.838,-9.098,-0.462,-4.106,3.5,-1.33,-1.82
,-9.208,-0.491,-3.903,-8.835,-0.627,-3.953,4.06,-1.19,-2.52
,-8.818,-0.61,-4.046,-9.067,-0.708,-3.817,3.64,-1.54,-2.38
,-9.162,-0.404,-4.049,-9.148,-0.665,-4.008,4.34,-1.89,-2.24
15276.0,-9.06,-0.562,-4.034,-9.201,-0.727,-3.398,2.03,-4.76,-4.83
,-8.99,-0.62,-3.881,-9.095,-0.727,-3.503,0.63,-5.25,-4.55
,-8.933,-0.651,-3.807,-9.119,-0.622,-3.616,-0.91,-5.32,-5.32
,-9.093,-0.759,-3.589,-9.081,-0.574,-3.565,-1.12,-4.62,-4.9
15352.0,-9.067,-0.651,-3.604,-9.062,-0.615,-3.393,0.07,-4.62,-5.04
,-9.06,-0.771,-3.417,-9.134,-0.62,-3.515,0.49,-3.71,-5.18
,-9.206,-0.802,-3.542,-9.148,-0.648,-3.553,0.84,-3.08,-5.39
,-9.136,-0.828,-3.4,-9.237,-0.656,-3.733,1.82,-2.8,-4.97
15428.0,-9.201,-0.651,-3.745,-9.294,-0.883,-3.513,-0.42,-3.64,-6.23
,-9.038,-0.816,-3.714,-9.237,-0.735,-3.451,-1.75,-3.08,-5.95
,-8.88,-1.017,-3.247,-9.167,-0.83,-3.472,0.07,-1.54,-4.34
,-9.194,-0.936,-3.417,-9.115,-1.137,-3.235,1.89,-0.91,-4.06
15504.0,-9.024,-1.304,-3.582,-9.206,-0.708,-3.307,0.91,-1.12,-3.92
,-8.99,-1.275,-3.613,-9.296,-0.713,-3.771,3.08,-0.84,-3.43
,-9.112,-1.094,-3.637,-9.234,-0.761,-3.991,5.81,-0.49,-2.38
,-9.16,-0.967,-3.553,-9.093,-0.687,-3.915,7.7,0.07,-1.12
15580.0,-8.949,-0.96,-3.915,-9.275,-0.328,-3.472,4.06,-1.05,-1.61
,-8.842,-0.962,-3.577,-9.158,-0.512,-3.618,6.58,-0.14,-1.12
,-9.119,-0.79,-3.477,-9.088,-0.725,-3.635,9.1,0.77,-0.7
,-9.311,-0.692,-3.506,-9.153,-0.845,-3.558,8.68,0.35,-1.47
15656.0,-9.139,-1.031,-3.723,-9.007,-0.881,-4.068,-0.35,-0.07,-3.36
,-9.062,-0.888,-3.434,-8.947,-0.952,-3.908,-0.14,0.14,-2.87
,-9.206,-0.926,-3.807,-9.072,-0.928,-3.91,0.0,0.14,-2.94
,-9.127,-0.979,-3.855,-9.083,-0.902,-3.819,0.14,-0.42,-3.22
15732.0,-9.15,-0.821,-3.81,-9.062,-0.905,-3.597,3.92,0.56,-1.33
,-9.129,-0.706,-3.778,-9.098,-0.995,-3.376,4.06,0.49,-1.33
,-9.208,-0.759,-3.807,-9.167,-0.974,-3.099,3.85,0.56,-1.26
,-9.091,-0.926,-3.532,-9.189,-0.905,-2.776,3.57,0.56,-1.19
15808.0,-9.323,-0.936,-2.804,-9.261,-1.12,-2.941,4.34,4.34,-0.35
,-9.304,-1.034,-2.666,-9.22,-0.983,-3.35,3.15,5.18,-0.28
,-9.275,-1.036,-2.639,-9.127,-0.861,-3.642,2.17,6.09,0.0
,-9.282,-1.199,-2.673,-8.976,-0.912,-3.836,1.4,7.28,-0.14
15884.0,-9.007,-1.031,-3.853,-9.0,-0.873,-4.145,2.66,9.59,0.49
,-9.067,-0.976,-4.135,-8.983,-1.094,-4.305,3.85,9.59,0.63
,-9.036,-0.849,-3.955,-8.995,-1.091,-4.518,4.55,9.31,0.7
,-9.105,-0.751,-4.274,-9.091,-1.055,-4.611,3.5,8.54,0.07
15960.0,-9.036,-0.991,-4.69,-8.954,-0.861,-4.233,3.99,5.25,-0.07
,-8.947,-0.916,-4.745,-8.957,-0.952,-3.936,4.41,4.55,0.0
,-8.835,-0.924,-4.561,-9.105,-1.053,-3.788,5.04,4.13,0.28
,-8.923,-0.955,-4.468,-9.179,-1.079,-3.79,5.88,3.78,0.28
16036.0,-9.177,-1.129,-3.75,-9.294,-0.914,-3.51,4.41,2.8,0.49
,-8.978,-1.268,-3.539,-9.182,-0.763,-3.652,4.62,3.36,0.77
,-9.036,-1.254,-3.36,-9.052,-0.739,-3.948,4.76,3.85,0.98
,-9.081,-1.146,-3.321,-8.969,-0.955,-4.013,5.74,4.62,1.4
16112.0,-9.007,-1.12,-4.19,-8.971,-0.962,-4.314,3.92,5.11,1.26
,-9.031,-1.067,-4.446,-8.957,-0.928,-4.154,5.6,4.83,1.47
,-8.964,-0.931,-4.463,-9.028,-0.866,-4.18,6.58,4.2,1.47
,-8.904,-0.902,-4.465,-9.067,-0.94,-4.056,6.79,4.13,1.68
16188.0,-9.038,-0.945,-4.07,-9.016,-1.079,-3.853,5.04,2.24,0.84
,-8.957,-1.079,-4.003,-9.014,-1.012,-3.821,4.27,1.89,0.77
,-8.957,-1.165,-3.92,-9.055,-0.995,-3.833,4.69,2.03,1.05
,-9.06,-1.146,-3.896,-9.081,-0.945,-3.757,5.39,2.38,1.19
16264.0,-9.074,-0.847,-3.845,-8.892,-1.211,-4.07,2.45,2.59,0.77
,-9.095,-0.816,-3.929,-8.942,-1.271,-3.967,1.19,2.73,0.63
,-8.981,-0.857,-4.006,-9.095,-1.115,-3.922,-0.35,2.31,0.21
,-8.899,-1.0,-4.111,-9.095,-0.974,-3.896,-1.12,2.59,0.0
16340.0,-9.069,-0.964,-3.9,-9.0,-1.043,-4.008,1.89,2.66,0.56
,-9.019,-1.05,-3.857,-8.976,-1.074,-4.056,1.61,3.22,0.63
,-9.033,-1.067,-3.958,-8.971,-1.017,-4.066,2.03,3.22,0.84
,-9.045,-1.07,-3.963,-9.012,-0.924,-4.051,2.94,3.29,0.91
16416.0,-9.019,-0.885,-4.142,-8.928,-1.046,-4.159,5.04,2.94,0.91
,-9.009,-0.852,-4.212,-8.94,-1.005,-4.099,4.13,2.73,0.7
,-8.983,-0.866,-4.24,-8.947,-1.007,-4.011,3.01,2.17,0.49
,-8.952,-0.952,-4.264,-9.031,-0.895,-3.934,2.52,2.1,0.28
16492.0,-9.033,-0.914,-3.881,-9.045,-1.039,-3.91,2.31,1.96,0.35
,-9.031,-1.003,-3.912,-9.028,-0.94,-3.927,1.12,1.82,0.07
,-8.949,-1.067,-3.853,-9.064,-0.962,-3.958,0.63,1.96,0.21
,-9.002,-1.084,-3.896,-8.981,-0.931,-3.999,1.05,2.1,0.28
16568.0,-9.009,-1.017,-4.051,-8.957,-1.094,-4.121,1.75,2.24,0.28
,-8.971,-1.048,-4.176,-8.988,-1.022,-4.125,1.82,2.03,0.14
,-8.947,-1.082,-4.147,-9.012,-1.015,-4.178,2.03,2.03,0.28
,-9.007,-1.106,-4.197,-9.06,-0.924,-4.145,2.66,2.1,0.49
16644.0,-8.985,-0.931,-4.214,-8.993,-1.039,-4.185,2.87,1.33,0.35
,-8.961,-1.036,-4.24,-8.961,-1.0,-4.073,2.45,1.05,0.42
,-8.983,-1.086,-4.209,-8.988,-0.979,-4.049,2.8,1.12,0.49
,-8.966,-1.067,-4.18,-9.014,-0.967,-3.958,3.71,0.98,0.84
16720.0,-8.983,-0.914,-3.867,-8.978,-1.079,-3.86,3.99,0.77,0.63
,-9.04,-0.986,-3.881,-9.005,-1.012,-3.881,3.15,0.91,0.42
,-9.062,-0.991,-3.905,-9.024,-1.019,-3.972,3.01,1.05,0.42
,-9.057,-1.017,-3.855,-9.005,-0.991,-3.922,2.66,1.05,0.28
16796.0,-9.012,-1.036,-3.946,-9.005,-1.034,-4.147,3.08,1.68,0.28
,-9.045,-1.029,-3.97,-8.928,-1.103,-4.18,3.36,2.03,0.28
,-9.06,-0.969,-4.042,-8.957,-1.036,-4.197,3.64,1.89,0.14
,-9.019,-1.022,-4.123,-9.002,-0.979,-4.2,3.43,1.82,0.07
16872.0,-8.938,-0.983,-4.109,-9.012,-0.979,-3.939,3.43,0.98,0.07
,-8.995,-1.082,-4.025,-9.024,-0.993,-3.948,3.22,1.19,0.07
,-9.002,-1.108,-3.958,-8.988,-1.05,-3.989,3.5,1.19,0.07
,-9.045,-1.031,-3.934,-9.002,-1.079,-4.008,3.5,1.33,0.14
16948.0,-9.019,-1.096,-4.015,-9.033,-1.007,-3.984,2.38,1.54,0.0
,-8.978,-1.065,-3.996,-9.005,-1.077,-3.967,3.43,1.47,0.21
,-9.045,-1.079,-4.018,-8.993,-1.031,-3.987,3.08,1.54,0.07
,-9.05,-1.103,-3.884,-9.055,-1.108,-3.967,3.01,1.75,0.14
17024.0,-8.935,-1.065,-3.972,-8.973,-1.055,-4.113,3.22,1.89,0.21
,-8.988,-1.074,-3.972,-9.002,-1.096,-4.061,3.43,1.89,0.07
,-9.014,-1.039,-3.982,-9.009,-1.048,-4.113,3.36,1.82,0.0
,-8.976,-1.053,-4.046,-8.995,-1.06,-4.109,3.08,1.68,-0.14
17100.0,-8.99,-1.117,-4.063,-9.038,-1.072,-3.951,2.59,1.19,-0.14
,-8.959,-1.106,-4.08,-8.976,-1.139,-3.994,2.73,1.12,-0.14
,-8.988,-1.144,-4.097,-9.014,-1.086,-4.037,2.73,1.19,0.0
,-8.969,-1.122,-3.898,-9.0,-1.113,-4.018,2.73,1.4,0.07
17176.0,-8.978,-1.175,-3.987,-9.028,-1.046,-4.054,2.59,1.33,0.28
,-8.935,-1.129,-4.015,-8.961,-1.115,-3.975,3.01,1.19,0.28
,-9.026,-1.113,-4.056,-8.964,-1.115,-3.788,3.43,1.26,0.42
,-9.038,-1.055,-4.063,-9.06,-1.117,-3.865,3.78,1.4,0.49
17252.0,-9.036,-1.113,-3.991,-8.993,-1.199,-4.133,2.45,1.05,0.14
,-9.0,-1.127,-4.109,-9.026,-1.086,-4.128,2.17,1.05,0.28
,-8.923,-1.132,-4.073,-9.055,-1.029,-4.176,2.17,1.05,0.35
,-8.94,-1.113,-4.089,-8.954,-1.079,-4.14,2.45,1.05,0.35
17328.0,-9.005,-1.041,-4.286,-8.988,-1.084,-4.013,2.17,0.49,0.35
,-8.942,-1.098,-4.08,-9.009,-1.242,-4.197,2.66,0.42,0.49
,-8.997,-1.127,-4.121,-8.997,-1.12,-4.221,2.38,-0.07,0.14
,-8.978,-1.079,-4.178,-9.007,-1.18,-3.958,2.24,-0.28,0.21
17404.0,-9.005,-1.184,-4.03,-9.021,-1.223,-4.058,2.1,-0.91,0.56
,-8.993,-1.098,-3.888,-9.019,-1.137,-4.145,2.17,-0.77,0.84
,-9.021,-1.204,-3.927,-9.002,-1.091,-4.104,2.03,-0.91,0.98
,-9.019,-1.161,-3.86,-8.954,-1.189,-4.099,2.31,-0.84,1.19
17480.0,-8.971,-1.153,-4.331,-9.072,-0.9,-3.862,3.22,-1.4,1.75
,-8.887,-1.146,-4.078,-9.028,-0.964,-3.668,4.06,-1.68,1.82
,-8.945,-1.122,-4.049,-9.045,-1.039,-3.575,4.13,-2.03,1.82
,-9.045,-1.01,-4.015,-9.062,-1.015,-3.429,4.9,-1.96,1.96
17556.0,-9.17,-1.168,-3.522,-9.062,-1.065,-3.766,3.78,-0.84,1.82
,-9.105,-1.015,-3.623,-9.06,-0.974,-3.927,3.85,-0.91,1.54
,-9.095,-1.103,-3.812,-9.06,-0.988,-3.865,2.31,-0.7,1.33
,-9.026,-1.034,-3.676,-9.112,-0.972,-3.929,2.1,-0.42,1.54
17632.0,-9.105,-1.01,-3.989,-9.021,-1.05,-4.039,0.84,-0.56,1.05
,-9.1,-0.936,-4.011,-9.469,-1.259,-3.91,0.98,-0.91,1.05
,-9.091,-0.871,-4.152,-9.174,-0.938,-3.917,0.63,-1.4,0.91
,-8.985,-0.945,-4.099,-9.574,-0.845,-3.592,-0.28,-1.68,0.63
17708.0,-9.184,-0.505,-3.443,-9.007,-1.479,-2.795,-17.5,-10.85,-4.13
,-8.792,-0.491,-3.142,-9.201,-1.146,-2.778,-24.15,-12.18,-4.41
,-8.777,-1.101,-2.948,-9.038,-0.962,-2.855,-27.65,-10.01,-5.18
,-9.093,-1.347,-2.982,-9.064,-0.995,-2.757,-26.74,-7.49,-5.39
17784.0,-9.119,-1.156,-2.86,-8.789,-1.134,-3.515,-16.87,3.71,0.14
,-9.215,-1.019,-3.132,-9.038,-1.029,-3.824,-13.86,4.69,0.91
,-8.978,-1.031,-3.412,-9.141,-0.945,-3.695,-11.9,5.46,1.05
,-8.894,-1.067,-3.592,-9.115,-0.713,-3.336,-10.08,6.51,1.54
17860.0,-9.033,-0.706,-3.47,-9.028,-1.11,-4.264,-5.18,9.73,2.24
,-9.024,-0.838,-3.441,-9.198,-1.048,-4.657,-6.51,9.8,1.82
,-9.064,-1.0,-3.833,-8.973,-0.964,-4.963,-7.63,8.61,1.61
,-8.961,-1.165,-3.975,-8.605,-1.153,-4.807,-8.05,7.35,2.17
17936.0,-8.526,-1.488,-4.566,-9.282,-0.914,-3.661,-6.65,6.44,3.5
,-8.71,-1.448,-4.257,-9.232,-1.053,-3.594,-2.03,7.0,4.41
,-8.914,-1.213,-3.877,-9.074,-1.4,-3.793,3.15,7.42,5.46
,-9.249,-0.864,-3.652,-8.914,-1.589,-3.443,6.72,7.42,5.95
18012.0,-8.916,-1.709,-3.81,-8.993,0.467,-3.723,8.26,7.56,7.63
,-8.794,-1.385,-3.597,-9.155,0.806,-3.989,13.51,8.12,8.75
,-9.184,-0.625,-3.843,-8.94,0.663,-3.97,18.76,7.77,9.94
,-9.069,-0.014,-4.161,-9.194,0.189,-3.685,19.6,7.49,9.73
18088.0,-8.995,-0.531,-3.714,-8.866,-1.594,-4.2,-3.43,8.61,1.54
,-9.033,-1.015,-3.484,-8.725,-1.417,-4.566,-3.5,9.59,1.19
,-9.11,-1.259,-3.623,-8.751,-0.962,-4.424,-1.89,9.24,0.84
,-8.966,-1.491,-3.963,-8.787,-0.5,-4.434,0.56,9.17,1.33
18164.0,-8.887,-0.189,-4.24,-9.095,-0.799,-3.826,9.31,10.15,3.43
,-8.959,0.029,-4.214,-9.112,-0.701,-4.087,6.58,9.52,2.24
,-8.969,-0.101,-4.178,-9.019,-1.027,-4.616,2.31,9.87,1.26
,-8.583,-0.45,-4.051,-8.871,-1.505,-4.635,-0.42,10.78,1.05
18240.0,-8.693,-1.989,-4.63,-8.71,-0.469,-5.358,9.24,10.71,4.27
,-8.713,-1.926,-4.566,-8.54,-0.553,-5.08,13.79,10.57,5.53
,-8.954,-1.211,-4.815,-8.612,-0.488,-4.838,19.46,8.61,5.81
,-8.935,-0.608,-5.205,-8.875,-0.467,-4.413,21.42,5.18,4.55
18316.0,-9.016,-0.316,-4.054,-8.804,-0.778,-4.441,9.94,7.35,0.7
,-9.093,-0.385,-3.941,-8.648,-0.864,-4.46,8.54,6.51,-0.14
,-8.976,-0.565,-4.322,-8.746,-0.991,-4.089,7.63,5.81,0.35
,-8.863,-0.713,-4.499,-8.921,-0.842,-4.183,7.63,6.09,1.19
18392.0,-9.131,-0.668,-4.324,-8.658,-1.163,-4.099,14.77,7.91,-0.7
,-9.093,-0.519,-4.391,-8.954,-1.551,-4.025,13.72,6.02,-1.82
,-8.746,-0.347,-4.58,-9.05,-1.709,-4.011,11.06,5.88,-2.73
,-8.547,-0.648,-4.386,-8.768,-1.711,-4.319,8.89,6.93,-3.5
18468.0,-8.538,-1.852,-4.247,-8.882,-0.261,-4.515,12.81,7.14,-0.07
,-8.646,-1.984,-3.898,-8.823,0.333,-4.712,15.19,8.75,0.7
,-8.815,-1.709,-3.951,-9.091,1.029,-5.039,19.18,9.87,2.17
,-8.741,-1.098,-4.207,-8.923,1.254,-5.296,23.45,10.29,3.29
18544.0,-8.935,1.199,-5.188,-8.686,-1.314,-4.654,18.55,4.76,-7.84
,-8.871,0.919,-4.882,-8.732,-2.252,-4.14,14.7,5.04,-10.22
,-8.799,0.436,-4.757,-8.696,-3.312,-4.319,10.85,6.02,-12.18
,-8.741,-0.323,-4.824,-8.569,-3.891,-4.298,8.96,6.79,-12.67
18620.0,-8.772,-3.544,-4.671,-8.655,-1.871,-5.037,17.36,4.97,-1.12
,-8.469,-3.147,-5.03,-8.708,-1.572,-4.977,22.33,3.71,0.0
,-8.361,-2.429,-5.004,-8.557,-1.376,-4.994,24.08,4.55,1.19
,-8.538,-2.024,-5.047,-8.734,-1.144,-4.582,23.52,4.97,1.75
18696.0,-8.902,-0.945,-4.506,-8.76,0.065,-5.135,16.94,6.44,5.25
,-8.813,-0.756,-4.611,-8.854,-0.053,-4.917,17.85,4.69,4.69
,-8.772,-0.385,-4.776,-8.746,-0.304,-4.669,18.41,4.06,3.29
,-8.696,-0.086,-5.092,-8.875,-0.512,-4.822,19.18,3.71,1.61
18772.0,-8.99,-0.629,-4.946,-8.538,-1.735,-4.748,15.19,2.59,-3.92
,-8.543,-0.938,-4.697,-8.801,-2.036,-4.556,14.49,2.52,-3.64
,-8.476,-1.508,-4.391,-8.574,-1.898,-4.731,13.09,3.29,-2.87
,-8.509,-1.788,-4.331,-8.66,-1.814,-4.803,12.53,4.06,-1.54
18848.0,-8.516,-1.776,-5.011,-8.624,-2.836,-4.475,13.3,0.7,-0.7
,-8.519,-1.871,-5.032,-8.437,-2.525,-4.606,12.46,1.05,-0.14
,-8.452,-2.419,-4.91,-8.387,-2.07,-4.69,10.29,2.1,1.68
,-8.646,-2.702,-4.759,-8.727,-1.749,-4.877,10.01,2.73,3.64
18924.0,-8.741,-1.632,-4.563,-8.603,-1.18,-5.059,15.89,1.89,6.72
,-8.772,-1.402,-4.805,-8.581,-1.371,-5.027,16.59,1.54,6.72
,-8.796,-1.127,-4.989,-8.579,-1.594,-4.807,15.68,1.82,6.79
,-8.753,-0.945,-5.219,-8.904,-1.709,-4.695,13.23,1.54,6.65
19000.0,-9.05,-1.685,-4.515,-8.65,-0.94,-4.882,10.43,-0.42,6.72
,-8.746,-1.584,-4.606,-8.784,-1.086,-4.87,10.64,-1.89,6.51
,-8.519,-1.388,-4.676,-8.782,-1.18,-4.903,10.36,-1.54,5.81
,-8.624,-1.065,-4.826,-8.708,-1.318,-4.934,9.17,-1.68,4.76
19076.0,-8.557,-1.486,-4.855,-8.808,-1.362,-4.75,2.38,-0.56,3.15
,-8.562,-1.682,-4.795,-8.672,-1.199,-4.92,2.8,0.28,3.64
,-8.693,-1.5,-4.807,-8.641,-1.211,-4.951,3.99,0.0,3.57
,-8.83,-1.232,-4.815,-8.751,-1.223,-4.822,4.06,-0.14,3.29
19152.0,-8.722,-1.127,-4.767,-8.753,-1.531,-4.563,0.14,-0.42,1.75
,-8.638,-1.101,-4.836,-8.679,-1.402,-4.539,-1.26,-1.12,0.91
,-8.655,-1.163,-4.8,-8.765,-1.163,-4.508,-2.59,-0.56,0.42
,-8.739,-1.405,-4.654,-8.753,-0.962,-4.563,-3.78,0.21,0.42
19228.0,-8.744,-0.995,-4.511,-8.648,-0.969,-4.647,-6.51,0.91,-1.05
,-8.703,-1.151,-4.535,-8.835,-1.144,-4.568,-8.61,2.17,-0.63
,-8.756,-1.213,-4.496,-8.866,-1.335,-4.58,-10.29,2.66,0.14
,-8.713,-1.034,-4.704,-8.71,-1.661,-4.463,-11.55,2.45,0.56
19304.0,-8.708,-1.807,-4.377,-8.856,-1.28,-4.81,-19.74,3.01,2.87
,-8.753,-1.766,-4.594,-8.808,-0.972,-4.858,-18.83,2.8,3.92
,-8.772,-1.68,-4.748,-8.868,-0.921,-4.666,-18.06,2.31,4.41
,-8.904,-1.441,-4.75,-8.914,-0.936,-4.501,-16.24,1.68,4.48
19380.0,-8.674,-0.72,-4.724,-8.679,-1.333,-4.96,-18.2,-0.77,3.85
,-8.665,-0.857,-4.884,-8.679,-1.326,-4.843,-20.16,-0.49,4.2
,-8.751,-1.043,-4.788,-8.691,-1.275,-4.901,-21.56,-0.56,4.55
,-8.818,-1.163,-4.779,-8.65,-1.383,-5.018,-20.93,-1.4,5.18
19456.0,-8.667,-1.699,-4.972,-8.488,-1.055,-4.951,-18.06,-3.08,6.93
,-8.77,-1.649,-4.915,-8.748,-1.113,-4.736,-17.08,-2.73,7.49
,-8.696,-1.615,-4.97,-8.88,-0.771,-4.769,-15.05,-3.36,7.98
,-8.545,-1.295,-4.941,-8.935,-1.366,-4.503,-12.11,-2.24,8.33
19532.0,-8.691,-0.474,-4.812,-8.928,-0.4,-4.456,-11.48,-5.18,9.17
,-8.691,-0.555,-4.762,-8.949,-0.275,-4.439,-11.27,-4.9,8.05
,-8.713,-0.826,-4.535,-8.923,-0.285,-4.475,-9.38,-4.41,7.49
,-8.787,-0.541,-4.269,-9.021,-0.491,-4.214,-8.12,-4.55,6.86
19608.0,-8.739,-0.438,-4.642,-8.935,-0.79,-4.367,-8.61,-8.47,2.8
,-8.677,-0.627,-4.616,-8.887,-0.869,-4.202,-9.17,-8.47,1.82
,-8.662,-0.759,-4.946,-8.765,-0.876,-4.293,-6.93,-7.7,-1.68
,-9.086,-0.747,-4.314,-8.801,-0.804,-4.484,-7.21,-7.49,0.07
19684.0,-8.701,-0.605,-4.472,-8.76,-0.359,-4.214,-3.92,-6.44,2.45
,-8.851,-0.912,-4.685,-9.263,-0.474,-4.018,-2.03,-6.58,2.03
,-8.875,-0.486,-4.262,-9.028,-0.491,-4.022,-2.87,-6.23,2.1
,-8.794,-0.474,-4.3,-8.914,-0.584,-4.324,-3.08,-6.02,2.38
19760.0,-8.744,-0.835,-4.369,-8.837,-0.601,-4.554,-4.76,-7.21,0.77
,-9.095,-0.902,-4.393,-8.844,-0.526,-4.357,-3.01,-7.0,1.68
,-8.928,-0.847,-4.41,-8.703,-0.648,-4.243,-1.05,-6.65,2.38
,-8.835,-0.687,-4.544,-9.11,-0.67,-4.2,1.47,-6.44,1.61
19836.0,-9.222,-0.517,-4.331,-9.069,-0.122,-4.003,2.66,-7.14,1.96
,-8.942,-0.361,-4.448,-9.227,0.0,-4.027,3.5,-7.84,2.1
,-8.804,-0.196,-4.329,-9.191,-0.055,-4.166,3.64,-7.21,1.68
,-8.902,-0.206,-3.819,-8.899,-0.036,-4.362,3.15,-6.16,0.91
19912.0,-8.942,-0.045,-4.302,-8.981,-0.567,-3.747,-1.54,-6.09,-1.47
,-9.043,-0.017,-4.03,-8.99,-0.909,-3.793,-1.82,-6.16,-3.01
,-8.887,-0.189,-3.728,-8.997,-1.108,-3.9,-3.36,-7.07,-5.53
,-9.088,-0.172,-3.721,-8.942,-1.098,-3.9,-4.13,-7.56,-6.72
19988.0,-9.002,-0.852,-3.735,-8.938,-0.345,-4.188,3.08,-2.94,-2.73
,-9.048,-0.625,-3.697,-8.878,-0.414,-4.252,4.55,-2.45,-3.29
,-9.148,-0.514,-3.912,-8.715,-0.749,-3.908,4.34,-2.24,-3.01
,-9.016,-0.416,-4.18,-9.067,-0.747,-3.747,3.5,-1.96,-2.1
20064.0,-9.033,-0.754,-3.704,-8.969,-0.988,-4.02,3.36,-1.19,-3.85
,-9.304,-0.768,-3.85,-8.954,-1.041,-3.881,2.8,-2.1,-3.64
,-9.258,-0.876,-3.963,-9.098,-0.79,-3.652,0.42,-3.78,-3.71
,-9.014,-0.897,-4.025,-9.213,-0.656,-3.81,-0.35,-4.41,-2.94
20140.0,-9.196,-0.524,-3.922,-9.095,-0.873,-3.714,6.37,-4.06,-2.52
,-9.167,-0.397,-3.805,-9.024,-0.957,-3.486,5.81,-4.41,-2.03
,-9.028,-0.613,-3.872,-9.117,-0.907,-3.63,4.27,-4.9,-2.59
,-9.026,-0.735,-3.771,-9.117,-0.972,-3.46,4.34,-4.69,-2.66
20216.0,-9.332,-0.873,-3.745,-9.095,-0.225,-3.463,10.01,-4.2,-0.77
,-9.162,-0.881,-3.678,-9.072,-0.127,-3.092,10.57,-4.9,-0.63
,-9.052,-0.648,-3.427,-9.237,-0.218,-2.984,12.81,-4.48,0.07
,-9.105,-0.467,-3.601,-9.387,-0.457,-3.128,12.6,-4.62,-0.42
20292.0,-9.316,-0.605,-3.18,-9.122,-1.103,-3.226,0.42,-4.62,-4.83
,-9.182,-0.888,-3.467,-9.359,-0.991,-3.321,-1.68,-4.41,-5.32
,-9.019,-1.18,-3.465,-9.268,-0.821,-3.592,-2.66,-4.34,-5.04
,-8.949,-1.187,-3.216,-9.086,-0.84,-3.446,-0.77,-3.57,-3.64
20368.0,-9.057,-0.751,-3.439,-9.261,-0.254,-3.644,4.06,-0.77,-2.31
,-9.241,-0.725,-3.764,-9.308,-0.404,-3.814,5.11,-0.56,-2.8
,-9.196,-0.591,-3.565,-9.363,-0.479,-4.558,6.3,-0.42,-2.59
,-9.139,-0.27,-3.498,-8.995,-0.603,-4.343,5.46,-0.07,-2.66
20444.0,-8.942,-0.653,-4.554,-9.062,-1.275,-3.503,-0.84,-2.59,-5.11
,-8.954,-0.967,-4.42,-9.335,-1.271,-3.321,-0.91,-2.87,-5.32
,-8.947,-1.031,-4.319,-9.349,-1.295,-3.477,-0.07,-3.08,-4.83
,-8.947,-1.22,-3.829,-9.215,-1.132,-3.211,0.07,-3.01,-4.13
20520.0,-9.17,-1.015,-3.317,-9.313,-1.173,-2.503,1.61,-2.59,-2.24
,-9.127,-1.022,-3.259,-9.581,-0.962,-2.529,2.31,-1.75,-1.96
,-9.136,-1.017,-3.046,-9.476,-0.768,-2.711,3.01,-0.77,-1.19
,-9.098,-1.177,-2.678,-9.215,-0.888,-2.675,4.27,0.77,-0.21
20596.0,-9.062,-1.074,-2.74,-9.529,-0.646,-3.257,3.64,5.32,0.42
,-8.99,-1.318,-2.745,-9.399,-0.553,-3.577,4.62,6.72,0.91
,-9.141,-1.345,-2.749,-9.05,-0.648,-3.735,7.14,8.26,1.61
,-9.395,-1.017,-2.919,-8.981,-0.826,-4.042,9.17,8.96,1.89
20672.0,-9.005,-0.988,-4.173,-9.119,-0.818,-3.948,5.04,8.33,0.21
,-8.954,-1.022,-4.214,-9.117,-0.799,-3.86,5.95,8.05,0.35
,-9.043,-0.893,-4.147,-9.177,-0.854,-3.884,6.58,7.84,0.49
,-9.191,-0.866,-4.066,-9.091,-0.943,-3.86,6.37,7.42,0.35
20748.0,-9.064,-0.995,-3.874,-9.21,-0.768,-4.039,3.29,6.16,0.0
,-9.0,-1.029,-3.841,-9.072,-0.811,-4.121,3.29,6.02,-0.07
,-9.088,-1.041,-3.831,-8.964,-0.873,-4.29,3.01,6.23,0.0
,-9.21,-0.943,-3.905,-8.966,-0.981,-4.384,2.87,6.16,0.0
20824.0,-8.93,-1.072,-4.269,-9.198,-0.869,-3.802,0.7,3.78,-0.56
,-8.966,-1.096,-4.133,-9.016,-0.983,-3.716,2.24,3.64,-0.28
,-9.05,-1.031,-3.946,-8.997,-1.149,-3.594,3.5,3.43,-0.07
,-9.21,-0.871,-3.879,-9.112,-1.196,-3.539,3.57,2.94,-0.28
20900.0,-9.162,-1.158,-3.58,-9.103,-1.053,-3.613,2.87,3.36,-0.28
,-9.119,-1.149,-3.587,-9.033,-0.981,-3.616,3.01,3.85,0.07
,-9.06,-1.165,-3.398,-9.146,-0.945,-3.733,2.66,4.13,0.14
,-9.122,-1.098,-3.556,-9.122,-0.928,-3.872,2.87,4.41,0.07
20976.0,-9.076,-0.902,-3.869,-9.016,-1.003,-4.314,2.03,5.25,0.0
,-9.076,-0.857,-3.989,-9.04,-0.995,-4.444,1.61,4.97,0.0
,-9.069,-1.01,-4.133,-8.997,-0.983,-4.42,1.33,4.69,0.0
,-9.048,-1.065,-4.171,-8.935,-0.945,-4.41,1.89,4.48,0.0
21052.0,-8.899,-1.048,-4.204,-9.095,-1.053,-3.9,3.5,2.59,0.28
,-8.969,-1.074,-4.19,-9.143,-0.995,-3.946,4.06,2.17,0.49
,-8.99,-1.012,-4.085,-9.052,-1.036,-3.989,4.48,2.1,0.63
,-9.06,-1.039,-3.891,-8.99,-1.043,-4.135,4.34,2.03,0.7
21128.0,-8.942,-1.041,-4.063,-9.129,-1.06,-3.532,3.57,1.4,0.63
,-8.959,-1.194,-3.829,-9.072,-0.95,-3.783,4.06,1.54,0.91
,-9.11,-1.027,-3.872,-9.158,-0.976,-4.073,4.34,1.68,1.12
,-9.158,-0.974,-3.778,-8.978,-1.106,-4.159,4.55,1.82,1.19
21204.0,-8.856,-1.141,-4.097,-9.184,-0.909,-3.81,2.66,1.19,0.7
,-8.904,-1.194,-4.156,-9.162,-0.979,-3.869,3.71,1.19,0.77
,-9.06,-1.106,-3.903,-8.988,-1.058,-3.905,4.62,1.26,1.05
,-9.172,-0.969,-3.831,-8.928,-1.106,-3.932,4.83,1.19,1.12
21280.0,-8.945,-1.268,-3.869,-9.11,-0.914,-3.716,2.45,1.4,0.98
,-9.038,-1.204,-3.716,-9.048,-0.94,-3.848,3.29,1.4,1.19
,-9.167,-1.043,-3.757,-8.993,-0.993,-3.948,3.99,1.47,1.33
,-9.16,-0.945,-3.723,-8.99,-1.082,-3.967,3.36,1.54,1.12
21356.0,-9.0,-1.127,-3.984,-9.112,-0.883,-3.862,1.19,1.89,0.84
,-9.019,-1.11,-3.915,-9.083,-0.873,-3.948,1.96,1.89,1.12
,-9.057,-1.058,-3.85,-9.024,-0.993,-3.963,2.31,1.96,1.26
,-9.074,-0.938,-3.788,-8.964,-1.158,-3.884,2.66,2.1,1.12
21432.0,-9.055,-1.139,-3.946,-9.167,-0.835,-3.79,2.24,2.1,0.84
,-9.033,-1.201,-3.788,-9.098,-0.782,-3.836,2.59,2.1,0.91
,-8.993,-1.218,-3.68,-9.043,-0.83,-3.798,2.59,2.52,1.05
,-9.069,-1.067,-3.731,-9.021,-0.983,-3.721,2.8,2.52,0.77
21508.0,-9.079,-0.952,-3.666,-9.079,-0.909,-4.195,0.42,3.43,0.42
,-9.16,-0.89,-3.745,-9.007,-0.967,-4.269,1.33,3.64,0.63
,-9.103,-0.84,-3.831,-8.935,-1.144,-4.367,1.61,3.64,0.56
,-9.105,-0.818,-3.991,-8.892,-1.199,-4.348,1.4,3.36,0.28
21584.0,-8.935,-1.091,-4.41,-9.079,-0.897,-4.058,4.27,2.1,0.28
,-9.06,-1.003,-4.312,-9.036,-0.916,-4.089,5.11,2.03,0.42
,-8.988,-0.914,-4.133,-9.002,-0.976,-4.082,5.04,1.68,0.63
,-9.069,-0.845,-4.085,-8.997,-1.043,-4.018,4.62,1.33,0.7
21660.0,-8.933,-1.079,-3.963,-9.072,-1.108,-3.719,4.2,0.77,0.49
,-9.014,-1.039,-4.013,-9.048,-1.041,-3.795,4.34,0.56,0.42
,-9.081,-0.952,-4.006,-9.072,-1.034,-3.853,4.83,0.7,0.35
,-9.052,-1.058,-3.795,-9.069,-1.003,-3.944,3.29,0.84,0.28
21736.0,-9.016,-1.012,-3.965,-9.124,-0.964,-3.999,1.54,1.12,-0.07
,-8.909,-1.089,-3.972,-9.05,-0.926,-4.037,1.82,1.19,0.14
,-9.045,-1.094,-3.972,-8.961,-1.031,-4.135,2.94,1.33,0.28
,-9.098,-1.007,-3.987,-8.935,-1.079,-4.149,4.13,1.33,0.49
21812.0,-9.007,-1.161,-4.104,-9.043,-0.945,-3.888,3.78,0.63,0.35
,-9.026,-1.141,-4.051,-9.026,-1.007,-3.769,4.69,0.56,0.42
,-9.055,-1.113,-3.747,-9.038,-1.127,-3.429,4.48,0.56,0.56
,-9.095,-1.027,-3.879,-9.124,-1.079,-3.826,4.55,0.42,0.42
21888.0,-9.083,-1.091,-3.79,-8.973,-1.17,-4.037,2.17,0.84,0.07
,-9.115,-1.031,-3.769,-8.942,-1.225,-3.999,1.96,0.91,0.14
,-9.04,-1.058,-3.884,-9.009,-1.175,-3.977,1.96,0.91,0.07
,-9.038,-1.074,-3.982,-9.045,-1.07,-4.001,1.75,0.84,0.0
21964.0,-9.079,-1.01,-3.874,-9.079,-1.098,-3.848,3.43,0.63,0.49
,-9.043,-1.039,-3.838,-9.005,-1.125,-3.872,2.66,0.7,0.42
,-9.036,-1.065,-3.848,-9.048,-1.12,-3.972,2.45,0.63,0.42
,-9.062,-1.101,-3.848,-9.079,-1.132,-3.953,2.87,0.63,0.42
22040.0,-9.036,-1.103,-3.939,-9.007,-1.266,-4.027,3.71,0.42,0.63
,-9.057,-1.05,-3.979,-9.038,-1.149,-3.989,3.64,0.28,0.77
,-9.007,-1.132,-4.068,-9.045,-1.084,-3.879,3.08,0.28,0.84
,-8.935,-1.146,-4.034,-9.038,-1.11,-3.807,3.01,0.0,0.84
22116.0,-9.043,-1.019,-3.738,-9.127,-1.18,-3.549,3.5,-0.07,1.61
,-9.093,-1.019,-3.695,-9.083,-1.115,-3.537,3.22,0.14,1.54
,-9.129,-1.115,-3.704,-9.021,-1.196,-3.527,2.8,0.28,1.4
,-9.04,-1.003,-3.568,-9.06,-1.216,-3.575,2.8,0.49,1.47
22192.0,-9.081,-1.216,-3.544,-9.064,-1.182,-3.3,2.8,2.1,1.89
,-9.024,-1.242,-3.448,-9.11,-1.127,-3.271,3.01,2.45,2.31
,-9.05,-1.216,-3.424,-9.074,-1.141,-3.161,3.43,3.01,2.8
,-9.093,-1.194,-3.412,-9.194,-1.072,-3.343,3.85,3.64,3.01
22268.0,-9.115,-1.153,-3.642,-8.926,-1.06,-4.35,3.43,6.09,4.55
,-8.995,-1.161,-3.817,-8.921,-0.986,-4.535,2.8,6.09,4.55
,-8.933,-1.077,-4.037,-8.978,-0.914,-4.539,2.87,6.09,4.9
,-8.918,-1.089,-4.267,-9.002,-0.845,-4.525,3.08,5.67,4.83
22344.0,-9.024,-0.885,-4.551,-9.141,-0.821,-4.295,0.98,2.59,4.13
,-9.088,-0.878,-4.398,-8.942,-0.79,-4.286,-0.21,1.75,3.57
,-9.115,-0.854,-4.245,-8.813,-0.73,-4.2,-1.61,0.7,3.15
,-9.17,-0.785,-4.223,-8.837,-0.751,-3.951,-3.22,-0.28,2.59
22420.0,-8.983,-0.79,-3.479,-8.926,-0.83,-3.733,-7.56,-0.98,1.4
,-9.299,-0.644,-3.647,-9.016,-1.007,-3.446,-7.35,-0.91,1.05
,-9.287,-0.495,-3.821,-9.21,-0.78,-3.594,-8.4,-1.4,0.49
,-9.117,-0.483,-3.936,-9.275,-0.517,-4.011,-10.78,-1.68,0.21
22496.0,-9.033,-0.431,-4.125,-9.289,-1.213,-3.396,-13.09,-3.15,-1.4
,-8.894,-0.584,-4.164,-9.49,-0.869,-3.826,-15.82,-2.66,-1.26
,-8.794,-0.993,-3.936,-9.407,-0.62,-4.08,-16.87,-1.26,-0.49
,-8.859,-1.318,-3.453,-9.009,-0.747,-3.936,-13.93,0.77,0.84
22572.0,-8.643,-1.094,-3.609,-9.392,-0.663,-3.412,-6.02,-2.1,1.54
,-8.744,-1.443,-3.235,-9.363,-0.416,-3.944,-2.31,1.12,3.57
,-8.914,-1.455,-2.551,-9.107,-0.67,-4.305,5.67,5.25,5.88
,-9.385,-1.11,-3.051,-8.911,-0.845,-4.195,12.67,5.67,5.67
22648.0,-8.61,-0.809,-4.056,-9.033,-0.866,-3.455,5.74,2.59,5.04
,-8.897,-0.735,-3.63,-9.122,-1.074,-3.156,7.42,3.5,4.2
,-8.995,-0.546,-3.568,-9.464,-1.106,-3.582,8.19,3.71,2.66
,-9.088,-0.608,-3.544,-9.361,-1.177,-4.073,6.86,4.34,1.68
22724.0,-9.057,-1.204,-4.446,-9.335,-0.952,-3.819,4.06,3.43,4.2
,-8.531,-1.335,-4.484,-9.493,-0.246,-4.48,4.48,4.76,5.11
,-8.452,-1.596,-3.946,-9.328,0.189,-4.834,6.37,7.07,6.58
,-8.947,-1.455,-3.451,-8.914,-0.002,-4.702,11.13,7.91,7.49
22800.0,-8.741,-0.206,-4.123,-9.098,-0.928,-3.927,1.33,3.15,3.78
,-8.959,-0.438,-3.668,-8.878,-1.304,-3.869,1.4,4.41,3.08
,-9.206,-0.459,-3.853,-8.973,-1.292,-3.774,2.8,3.78,1.75
,-9.191,-0.526,-3.819,-9.179,-0.861,-3.893,3.36,2.8,0.77
22876.0,-9.636,-0.421,-4.137,-8.942,-0.601,-3.955,10.15,2.59,3.22
,-9.131,-0.019,-4.544,-9.026,-0.766,-3.774,9.24,1.19,2.03
,-8.909,-0.036,-4.453,-9.064,-0.986,-3.934,5.95,0.77,0.7
,-8.911,-0.278,-4.142,-8.923,-1.223,-3.905,2.45,1.54,-0.21
22952.0,-8.949,-1.364,-3.618,-9.1,0.115,-3.905,2.59,3.15,-1.4
,-8.933,-1.433,-3.642,-8.839,0.345,-3.967,4.9,4.76,-0.35
,-8.949,-1.165,-3.475,-8.787,0.211,-3.594,8.12,5.53,0.63
,-9.268,-0.436,-3.575,-8.713,-0.39,-3.128,11.34,4.41,0.77
23028.0,-9.024,-0.945,-2.864,-8.701,-0.763,-4.377,0.21,12.46,-2.45
,-9.445,-1.077,-3.19,-8.471,-1.103,-4.231,3.85,11.69,-2.03
,-9.567,-0.945,-3.8,-8.99,-1.173,-4.13,8.33,9.59,-2.17
,-9.277,-0.792,-4.13,-9.194,-0.909,-4.468,10.85,8.89,-2.24
23104.0,-8.947,-0.601,-4.532,-8.947,-1.211,-4.243,12.81,6.3,-3.5
,-8.835,-0.732,-4.322,-8.978,-1.328,-4.281,9.31,7.35,-4.2
,-8.806,-1.031,-4.027,-8.995,-1.256,-4.389,5.95,8.75,-3.85
,-8.899,-1.139,-3.999,-8.976,-1.321,-4.336,5.6,9.45,-3.36
23180.0,-8.882,-0.995,-4.561,-8.935,-0.38,-4.719,16.59,8.19,-2.24
,-8.909,-0.799,-4.463,-9.069,-0.189,-4.685,18.48,7.42,-2.45
,-8.88,-0.579,-4.391,-9.093,-0.144,-4.64,18.06,6.72,-3.43
,-8.988,-0.404,-4.563,-9.337,-0.246,-4.166,17.78,6.51,-4.06
23256.0,-9.019,-0.065,-4.408,-9.072,-0.711,-4.298,11.41,1.75,-8.89
,-8.842,-0.168,-4.427,-8.827,-0.95,-4.432,9.52,1.54,-9.87
,-8.99,-0.302,-4.2,-8.619,-1.11,-4.525,8.05,1.75,-10.71
,-9.005,-0.558,-4.274,-8.693,-1.33,-4.518,7.63,0.7,-11.76
23332.0,-8.882,-1.795,-4.336,-8.808,-2.958,-4.099,6.44,2.66,-9.94
,-8.861,-1.969,-4.819,-8.961,-3.008,-4.068,8.4,-0.63,-9.03
,-8.533,-2.163,-4.611,-8.837,-2.603,-4.171,8.19,0.63,-8.05
,-8.622,-2.436,-4.472,-8.935,-2.288,-4.094,8.75,2.59,-6.23
23408.0,-8.914,-1.816,-4.326,-8.851,-1.385,-4.721,17.64,3.92,-0.28
,-8.784,-1.575,-4.415,-8.847,-1.732,-4.64,17.01,3.01,-0.63
,-8.887,-1.359,-4.64,-8.823,-2.005,-4.53,16.45,0.84,-1.47
,-8.823,-1.177,-4.795,-8.737,-1.907,-4.621,14.84,-1.19,-2.38
23484.0,-8.827,-1.558,-4.63,-8.866,-1.46,-4.133,16.17,1.54,2.87
,-8.906,-1.56,-4.341,-8.715,-1.61,-4.35,18.27,2.03,2.03
,-9.072,-1.05,-4.226,-8.641,-1.776,-4.575,18.69,0.63,0.7
,-9.294,-1.393,-4.183,-8.65,-1.977,-4.41,16.24,0.35,0.21
23560.0,-8.595,-2.285,-4.2,-8.885,-1.314,-4.279,14.0,-1.05,5.53
,-8.488,-2.216,-4.286,-8.811,-1.39,-4.166,16.03,0.0,6.02
,-8.827,-1.888,-4.257,-8.787,-1.295,-4.35,18.27,0.63,6.09
,-9.064,-1.63,-4.154,-8.827,-1.5,-4.279,18.97,0.21,5.39
23636.0,-9.005,-1.788,-4.154,-8.782,-1.902,-4.262,11.97,-1.33,6.3
,-8.777,-1.759,-4.343,-8.871,-1.563,-4.269,11.83,-2.03,6.65
,-8.591,-1.984,-4.19,-8.854,-1.539,-4.274,11.2,-1.12,7.07
,-8.851,-2.096,-4.233,-8.957,-1.618,-4.176,12.32,-0.28,7.63
23712.0,-9.009,-1.665,-3.972,-8.981,-1.68,-3.676,11.13,0.56,9.59
,-8.94,-1.515,-3.912,-8.854,-1.5,-3.754,10.01,0.7,9.59
,-8.813,-1.567,-3.915,-8.921,-1.311,-3.843,8.47,0.91,9.8
,-8.909,-1.553,-3.932,-8.871,-0.912,-3.979,7.28,1.89,9.94
23788.0,-8.875,-0.558,-4.049,-8.952,-0.598,-3.817,7.56,1.12,8.61
,-9.026,-0.184,-4.147,-8.971,-1.041,-3.874,7.14,1.4,7.28
,-9.129,-0.002,-4.025,-8.993,-1.106,-4.135,5.32,2.1,6.02
,-9.136,-0.203,-3.738,-8.94,-1.015,-4.269,2.87,3.01,5.04
23864.0,-8.909,-0.593,-4.58,-8.777,-1.766,-4.276,0.0,3.01,0.91
,-8.933,-0.45,-4.566,-8.684,-1.907,-4.317,-2.1,2.66,-0.63
,-8.997,-0.79,-4.475,-8.808,-1.811,-4.472,-5.32,3.01,-1.19
,-8.959,-1.395,-4.219,-8.863,-1.713,-4.597,-7.63,3.36,-0.56
23940.0,-8.966,-1.567,-4.465,-8.949,-0.821,-4.41,-9.73,3.78,2.17
,-8.909,-1.414,-4.389,-8.835,-0.79,-4.434,-9.45,4.13,2.31
,-8.945,-1.149,-4.149,-8.89,-0.928,-4.384,-9.8,4.2,2.24
,-9.064,-1.034,-4.207,-8.94,-0.955,-4.444,-11.27,2.94,2.52
24016.0,-9.045,-1.046,-4.398,-8.725,-0.955,-4.556,-16.66,4.48,2.03
,-9.189,-0.833,-4.515,-8.727,-1.493,-4.298,-15.75,4.06,1.68
,-9.189,-0.704,-4.575,-8.847,-1.488,-4.362,-15.82,3.15,1.47
,-9.026,-0.675,-4.649,-8.909,-1.163,-4.621,-17.57,2.52,0.77
24092.0,-8.978,-1.062,-4.585,-9.141,-0.9,-4.231,-17.85,3.78,3.29
,-8.918,-0.897,-4.357,-9.036,-0.89,-4.365,-17.78,4.2,2.87
,-9.048,-0.986,-4.2,-8.813,-0.706,-4.487,-18.76,3.5,2.66
,-8.961,-0.998,-4.183,-8.839,-0.519,-4.547,-20.09,2.87,2.8
24168.0,-8.691,-0.766,-4.401,-8.926,-0.857,-4.269,-17.64,1.96,4.2
,-8.815,-1.05,-4.14,-8.933,-0.919,-4.396,-19.04,3.15,4.48
,-8.961,-1.28,-4.231,-8.777,-0.601,-4.317,-18.13,2.94,4.76
,-8.916,-1.216,-4.255,-8.916,-1.429,-4.097,-14.42,1.96,5.6
24244.0,-8.964,-1.431,-4.087,-8.703,-1.833,-4.377,-14.7,4.34,7.0
,-9.103,-1.869,-4.056,-9.012,-1.366,-4.523,-14.63,3.85,8.4
,-8.844,-1.881,-4.384,-8.966,-0.995,-4.503,-13.65,3.08,8.68
,-8.634,-1.984,-4.286,-8.89,-0.581,-4.527,-10.71,3.29,9.1
24320.0,-8.777,-0.646,-4.372,-8.837,-0.079,-4.585,-1.12,1.54,9.8
,-8.801,-0.708,-4.314,-8.945,0.337,-4.532,-1.89,1.47,9.94
,-8.957,-0.579,-4.386,-9.05,0.68,-4.609,-1.82,1.47,10.43
,-9.079,-0.359,-4.396,-8.839,0.282,-4.369,-0.7,0.91,10.29
24396.0,-8.894,0.06,-4.451,-8.899,-0.802,-4.214,-3.71,0.7,4.06
,-8.988,-0.323,-4.281,-8.722,-0.651,-4.204,-4.9,1.75,3.92
,-9.146,-0.723,-4.235,-8.976,-0.565,-4.293,-5.74,0.28,3.29
,-8.871,-0.522,-4.683,-8.808,-0.361,-4.41,-3.57,-0.84,2.31
24472.0,-8.646,-0.328,-4.391,-8.77,-0.766,-4.496,-1.82,-1.47,0.14
,-8.825,-0.213,-4.53,-9.014,-0.479,-4.594,-2.52,-0.84,0.56
,-8.952,-0.402,-4.429,-8.914,-0.366,-4.597,-3.36,-0.07,1.54
,-8.871,-0.617,-4.599,-8.708,-0.325,-4.523,-3.43,0.49,1.61
24548.0,-8.849,-0.244,-4.515,-8.784,-0.577,-4.463,3.01,0.7,2.38
,-9.074,-0.402,-4.563,-8.942,-0.5,-4.338,1.47,-0.49,1.54
,-9.062,-0.665,-4.702,-8.847,-0.519,-4.302,-0.35,-1.82,1.12
,-8.938,-0.562,-4.515,-9.021,-0.467,-4.31,-0.77,-2.94,1.05
24624.0,-7.849,-0.847,-4.963,-9.112,0.244,-4.542,-1.4,-7.84,0.35
,-9.22,-0.395,-4.307,-8.971,0.034,-4.482,0.84,-4.97,0.84
,-8.78,-0.112,-4.604,-8.909,-0.22,-4.14,2.73,-4.48,0.0
,-8.65,0.199,-4.422,-8.89,-0.529,-3.965,2.03,-3.99,-2.24
24700.0,-8.871,-0.759,-4.082,-8.914,-0.431,-3.941,-3.29,-5.18,-5.46
,-9.213,-0.761,-4.168,-8.827,-0.495,-3.836,-0.63,-5.39,-5.25
,-9.229,-0.562,-4.434,-9.306,-0.371,-3.857,1.05,-6.3,-5.18
,-8.854,-0.471,-4.197,-9.139,-0.677,-4.121,1.33,-6.79,-4.69
24776.0,-8.851,-1.122,-4.202,-9.196,-0.615,-3.644,-4.41,-7.28,-6.16
,-8.739,-1.543,-4.168,-9.208,-0.199,-3.817,-3.5,-6.86,-4.9
,-8.794,-1.622,-3.975,-9.028,-0.158,-3.872,0.35,-6.65,-4.06
,-8.973,-1.273,-3.575,-8.851,-0.407,-3.805,5.67,-6.44,-3.5
24852.0,-8.945,-0.766,-3.817,-9.395,-0.522,-2.955,0.63,-6.72,-2.03
,-8.89,-0.916,-3.293,-9.361,-0.459,-3.218,4.06,-5.32,-1.68
,-9.217,-0.873,-3.082,-9.129,-0.342,-3.046,7.35,-4.27,-1.19
,-9.189,-0.912,-2.836,-9.033,-0.414,-3.175,9.1,-4.41,-1.61
24928.0,-9.095,-0.529,-3.384,-9.162,-0.282,-3.908,6.93,-2.66,-1.61
,-9.11,-0.459,-3.374,-8.863,-0.713,-3.726,6.86,-2.8,-2.66
,-9.174,-0.151,-3.355,-9.0,-0.912,-3.81,7.0,-2.59,-3.01
,-9.268,-0.203,-3.522,-8.988,-1.17,-3.522,4.62,-2.52,-3.85
25004.0,-9.208,-0.957,-3.458,-8.945,-0.9,-3.927,4.06,-0.14,-2.94
,-9.337,-0.754,-3.687,-8.894,-0.991,-3.836,5.11,-0.42,-3.15
,-9.251,-0.593,-3.848,-8.997,-0.73,-3.489,3.43,-1.19,-3.08
,-9.016,-0.684,-4.08,-9.304,-0.419,-3.467,0.56,-1.47,-2.94
25080.0,-9.521,-0.069,-3.606,-8.713,-0.684,-4.53,5.53,-0.07,-3.15
,-9.442,-0.007,-4.123,-8.827,-0.517,-4.401,1.54,-1.75,-4.69
,-9.072,-0.074,-4.08,-9.124,-0.412,-4.401,-2.24,-2.59,-5.67
,-8.969,-0.349,-4.683,-9.294,-0.392,-4.451,-3.99,-2.94,-6.37
25156.0,-9.031,-0.66,-4.109,-9.273,-1.168,-3.199,-2.1,-3.99,-6.3
,-8.971,-1.017,-3.721,-9.356,-0.936,-3.321,-2.17,-3.29,-5.53
,-9.028,-1.204,-3.503,-9.246,-1.01,-3.546,-0.63,-2.87,-5.18
,-9.076,-1.335,-3.209,-9.081,-1.206,-3.702,1.96,-2.03,-4.55
25232.0,-8.957,-1.199,-3.695,-9.349,-1.098,-3.171,2.45,-1.47,-3.01
,-8.954,-1.268,-3.542,-9.284,-0.876,-3.223,4.27,-0.7,-2.38
,-8.988,-1.249,-3.137,-9.229,-0.912,-3.185,6.16,0.49,-1.33
,-9.237,-1.18,-3.087,-9.088,-1.094,-3.156,7.35,0.98,-0.77
25308.0,-9.038,-0.976,-3.149,-9.119,-0.797,-3.565,10.29,3.99,0.91
,-9.203,-0.83,-3.35,-9.124,-0.952,-3.711,10.64,4.13,0.28
,-9.203,-0.613,-3.329,-9.036,-0.991,-3.721,9.73,4.27,0.0
,-9.244,-0.546,-3.534,-9.086,-1.003,-3.687,7.14,4.69,-0.21
25384.0,-9.112,-0.986,-3.573,-9.028,-0.94,-3.908,6.93,6.02,0.63
,-9.22,-1.01,-3.757,-9.014,-1.003,-3.836,7.7,5.46,0.49
,-9.184,-0.814,-3.944,-9.119,-1.034,-3.845,8.54,4.9,0.63
,-9.115,-0.845,-4.082,-9.127,-0.914,-3.814,8.47,4.76,0.63
25460.0,-9.122,-0.706,-4.006,-8.995,-0.988,-3.905,9.87,3.99,0.42
,-9.148,-0.852,-3.987,-9.014,-0.981,-3.884,8.33,3.85,0.21
,-9.069,-0.919,-3.884,-9.093,-0.916,-3.752,7.84,3.57,0.21
,-9.043,-0.938,-3.932,-9.127,-0.936,-3.613,7.84,3.43,0.07
25536.0,-9.189,-0.933,-3.776,-8.933,-1.043,-3.963,6.51,3.57,-0.28
,-9.124,-0.802,-3.714,-8.954,-1.134,-3.972,5.39,3.71,-0.28
,-9.1,-0.928,-3.786,-9.103,-1.079,-4.109,3.92,3.85,-0.63
,-9.131,-0.96,-3.987,-9.04,-1.041,-4.056,3.01,3.5,-1.05
25612.0,-9.014,-1.065,-3.946,-9.045,-0.993,-3.953,4.2,3.36,-0.14
,-9.107,-1.067,-3.912,-9.064,-1.127,-3.987,4.41,2.94,-0.21
,-9.124,-1.01,-4.008,-8.976,-1.173,-3.989,4.55,2.66,-0.28
,-9.086,-0.933,-3.963,-8.935,-1.199,-3.778,4.06,2.38,-0.49
25688.0,-9.131,-1.091,-3.802,-9.091,-0.981,-3.841,4.48,2.52,0.21
,-9.158,-0.979,-3.733,-8.995,-1.06,-3.855,4.48,2.59,0.07
,-9.139,-0.866,-3.676,-8.969,-1.106,-3.735,3.85,2.66,0.14
,-9.093,-0.905,-3.728,-9.122,-1.06,-3.829,2.24,2.59,-0.21
25764.0,-9.153,-0.991,-3.824,-8.921,-1.292,-4.231,2.17,3.15,0.07
,-9.179,-0.857,-3.975,-9.036,-1.18,-4.288,1.4,2.8,-0.28
,-9.04,-0.974,-4.046,-9.05,-0.928,-4.319,0.07,2.45,-0.49
,-8.93,-1.204,-4.231,-8.938,-0.981,-4.073,-0.07,2.24,-0.28
25840.0,-8.964,-1.043,-3.9,-9.098,-1.072,-3.905,3.15,1.33,0.56
,-9.088,-1.089,-3.982,-8.973,-1.129,-3.836,3.36,1.33,0.63
,-9.182,-1.074,-3.908,-8.988,-1.113,-3.752,4.06,1.12,0.7
,-9.043,-0.969,-3.857,-9.107,-1.089,-3.881,3.71,1.05,0.7
25916.0,-9.012,-1.137,-3.628,-9.012,-1.062,-3.683,3.01,1.89,1.19
,-9.136,-1.07,-3.647,-9.038,-1.149,-3.793,2.94,1.82,1.12
,-9.134,-1.036,-3.716,-9.083,-1.139,-3.86,2.87,1.89,1.05
,-9.076,-0.983,-3.68,-9.139,-1.067,-3.912,2.31,1.96,1.12
25992.0,-9.1,-1.007,-3.979,-9.005,-1.094,-4.128,3.08,2.45,1.26
,-9.052,-0.943,-4.135,-9.055,-1.129,-4.08,2.87,2.17,1.12
,-8.981,-1.005,-4.161,-9.002,-1.036,-3.984,2.52,1.75,0.98
,-9.033,-1.007,-4.168,-9.012,-1.019,-3.924,2.45,1.54,0.91
26068.0,-9.055,-1.012,-3.841,-9.014,-1.079,-3.821,4.27,1.12,1.4
,-9.067,-1.012,-3.757,-9.069,-1.043,-3.872,4.2,1.26,1.47
,-9.129,-1.024,-3.786,-9.016,-1.098,-3.826,3.92,1.26,1.33
,-9.127,-1.027,-3.862,-9.069,-1.065,-3.814,3.36,1.33,1.33
26144.0,-9.091,-0.993,-3.771,-9.019,-0.993,-3.999,4.27,1.75,1.47
,-9.115,-0.972,-3.857,-8.973,-1.029,-4.015,3.92,1.82,1.19
,-9.083,-0.828,-4.161,-9.036,-1.003,-3.994,3.64,1.68,1.05
,-9.009,-0.9,-4.054,-9.064,-0.945,-3.905,2.94,1.54,0.98
26220.0,-9.1,-0.933,-3.884,-9.062,-1.086,-3.824,3.15,1.33,0.56
,-9.079,-0.94,-3.91,-9.115,-1.017,-3.831,2.8,1.19,0.42
,-9.019,-0.967,-3.884,-9.088,-0.983,-3.802,2.31,1.26,0.28
,-8.997,-1.074,-3.853,-9.045,-1.029,-3.735,2.1,1.54,0.35
26296.0,-9.04,-1.096,-3.769,-8.983,-1.046,-4.008,1.4,2.1,0.35
,-9.067,-1.103,-3.793,-8.997,-1.046,-4.013,1.89,2.03,0.28
,-9.081,-1.034,-3.824,-9.021,-1.046,-4.061,2.1,2.03,0.35
,-9.067,-0.983,-3.929,-9.021,-1.036,-4.046,1.89,1.96,0.14
26372.0,-9.036,-1.029,-4.015,-9.086,-1.05,-3.838,2.52,1.61,0.35
,-9.048,-1.0,-3.948,-9.076,-1.015,-3.766,2.66,1.61,0.28
,-9.026,-1.084,-3.874,-9.026,-0.998,-3.738,2.52,1.68,0.28
,-9.043,-1.129,-3.788,-9.086,-1.067,-3.79,2.87,1.68,0.42
26448.0,-9.167,-1.041,-3.9,-9.043,-1.096,-3.908,2.38,1.82,0.21
,-9.057,-1.017,-3.9,-9.069,-1.027,-3.965,2.38,2.03,0.21
,-8.995,-0.998,-3.915,-9.093,-1.031,-3.977,2.03,2.03,0.14
,-9.064,-1.06,-3.991,-9.005,-0.976,-4.037,1.75,2.03,0.14
26524.0,-9.0,-1.019,-4.046,-9.103,-1.089,-3.958,2.03,1.4,-0.07
,-8.99,-1.067,-4.066,-9.038,-1.067,-3.893,1.96,1.4,0.0
,-9.012,-1.137,-4.078,-9.031,-1.074,-3.888,2.38,1.33,0.14
,-9.014,-1.094,-4.003,-9.028,-1.089,-3.874,3.01,1.26,0.21
26600.0,-9.048,-1.039,-3.877,-9.038,-1.058,-3.824,3.15,1.19,0.35
,-9.072,-1.089,-3.86,-9.007,-1.077,-3.829,3.08,1.47,0.42
,-9.088,-1.072,-3.805,-9.052,-1.084,-3.819,2.94,1.4,0.35
,-9.028,-1.041,-3.831,-9.043,-1.077,-3.841,2.8,1.47,0.42
26676.0,-9.088,-1.098,-3.884,-9.088,-1.106,-4.039,2.38,1.96,0.35
,-9.031,-1.034,-3.965,-9.019,-1.036,-4.034,2.52,1.89,0.35
,-9.016,-1.094,-3.936,-9.007,-1.041,-3.982,2.73,1.68,0.35
,-9.002,-1.098,-4.006,-9.005,-1.091,-3.984,2.8,1.75,0.35
26752.0,-9.024,-1.103,-3.841,-9.052,-1.01,-3.893,3.01,1.12,0.35
,-9.067,-1.086,-3.735,-9.052,-1.125,-3.743,3.29,1.33,0.49
,-9.095,-1.108,-3.848,-9.012,-1.175,-3.812,3.43,1.47,0.42
,-9.107,-1.048,-3.867,-9.005,-1.072,-3.788,3.22,1.4,0.35
26828.0,-9.11,-1.165,-3.903,-9.043,-1.18,-3.857,2.66,1.61,0.35
,-9.067,-0.991,-3.917,-9.067,-1.127,-3.886,2.73,1.61,0.42
,-9.043,-1.017,-3.951,-9.007,-1.106,-3.568,2.17,1.68,0.42
,-8.997,-1.024,-3.855,-9.016,-1.149,-3.905,1.75,1.54,0.35
26904.0,-9.026,-1.007,-3.747,-9.021,-1.048,-3.592,2.17,2.24,0.7
,-9.072,-1.027,-3.549,-9.069,-1.23,-3.654,2.03,2.24,0.63
,-9.172,-0.993,-3.726,-9.055,-1.218,-3.855,1.4,2.45,0.42
,-9.088,-0.943,-3.661,-8.99,-1.134,-3.869,0.42,2.52,0.42
26980.0,-9.031,-1.106,-3.97,-9.0,-1.256,-4.209,-1.05,3.08,0.49
,-9.016,-1.115,-4.073,-8.993,-1.173,-4.183,-1.33,2.87,0.56
,-8.964,-1.18,-4.085,-9.028,-1.082,-4.362,-1.68,2.52,0.84
,-8.964,-1.235,-4.133,-9.038,-1.122,-4.209,-1.26,2.38,1.26
27056.0,-9.146,-1.094,-4.31,-8.882,-1.168,-4.152,-0.49,-0.49,1.61
,-9.055,-1.053,-4.281,-8.988,-1.4,-3.912,-1.05,-1.54,1.33
,-8.99,-0.96,-4.293,-9.139,-1.359,-3.556,-1.61,-2.31,1.54
,-8.899,-1.017,-4.245,-9.15,-1.103,-3.089,-2.59,-2.73,1.89
27132.0,-9.124,-0.83,-2.915,-8.921,-0.936,-3.465,-5.39,-4.27,2.31
,-9.273,-0.66,-2.737,-8.792,-1.24,-3.599,-7.63,-3.57,2.1
,-9.351,-0.66,-3.068,-8.729,-1.369,-3.439,-11.55,-3.78,0.98
,-9.136,-0.782,-3.348,-8.83,-1.364,-3.429,-14.28,-3.15,0.77
27208.0,-8.921,-1.304,-3.223,-8.995,-0.869,-3.532,-3.5,4.83,5.32
,-9.129,-1.07,-2.919,-8.77,-1.101,-3.427,0.91,7.35,7.42
,-9.526,-0.833,-3.142,-8.88,-1.287,-3.142,3.08,7.91,8.19
,-9.28,-0.78,-3.46,-9.299,-1.07,-3.553,2.66,7.35,7.91
27284.0,-9.115,-1.015,-3.996,-8.854,-0.771,-4.424,2.73,8.75,7.98
,-9.005,-0.672,-4.508,-8.88,-0.558,-3.855,3.01,7.84,7.42
,-8.636,-0.663,-4.824,-9.548,0.069,-4.111,1.33,7.28,7.0
,-8.538,-0.766,-4.453,-9.495,0.433,-4.501,1.89,8.47,8.05
27360.0,-9.38,0.596,-4.74,-8.966,-1.438,-2.816,8.75,4.62,2.59
,-8.837,-0.038,-4.848,-9.325,-1.036,-3.436,3.08,4.06,1.47
,-8.524,-0.931,-3.929,-9.328,-0.718,-4.003,0.14,6.02,1.75
,-8.6,-1.421,-3.352,-9.189,-0.713,-4.235,3.08,8.26,3.01
27436.0,-8.859,-0.613,-4.061,-8.971,-0.503,-4.922,2.24,7.0,2.66
,-8.904,-0.337,-4.147,-8.792,-1.196,-4.628,2.17,7.7,2.94
,-8.878,-0.081,-4.336,-8.555,-1.618,-4.137,2.03,6.3,1.47
,-9.131,-0.074,-4.542,-8.871,-1.668,-3.238,0.35,4.62,-0.28
27512.0,-9.282,-1.546,-3.766,-8.792,-0.749,-4.381,7.84,6.3,0.21
,-9.165,-1.474,-3.96,-9.069,-0.196,-4.324,10.15,5.74,1.19
,-8.973,-1.472,-4.283,-9.191,0.108,-4.748,10.92,6.09,3.57
,-8.717,-1.263,-4.484,-8.94,0.029,-4.886,12.95,6.65,5.6
27588.0,-8.753,-0.337,-4.537,-9.347,-0.847,-3.671,4.76,3.08,1.75
,-8.562,-0.826,-4.2,-9.275,-0.811,-3.865,1.19,4.83,1.12
,-8.725,-1.129,-3.788,-8.904,-0.897,-3.865,0.98,6.44,0.84
,-8.906,-1.01,-3.74,-8.715,-1.022,-3.912,4.55,6.51,0.49
27664.0,-8.818,-1.05,-3.826,-8.782,-0.4,-4.247,7.07,7.91,2.31
,-8.976,-0.811,-4.137,-8.782,-0.646,-4.08,9.94,5.95,1.89
,-8.923,-0.438,-4.319,-8.875,-0.936,-3.857,10.85,5.39,0.28
,-8.914,-0.251,-4.398,-8.892,-1.067,-3.764,10.01,5.74,-0.91
27740.0,-8.911,-1.271,-3.831,-8.634,-1.579,-4.262,6.93,11.06,-0.63
,-8.933,-1.563,-3.831,-8.677,-1.455,-4.235,7.84,11.27,0.35
,-8.993,-1.615,-3.982,-8.784,-1.251,-4.348,9.45,11.27,1.54
,-8.847,-1.692,-4.133,-8.713,-1.046,-4.556,10.92,11.27,2.45
27816.0,-8.744,-0.945,-4.518,-8.902,-0.27,-4.511,20.65,10.92,3.57
,-8.911,-0.663,-4.46,-9.028,-0.179,-4.475,20.79,10.22,2.8
,-8.808,-0.45,-4.654,-9.045,-0.072,-4.377,20.09,9.45,1.47
,-8.71,-0.323,-4.659,-9.107,-0.278,-4.2,19.6,9.66,0.42
27892.0,-8.928,-0.436,-4.417,-8.804,-0.117,-4.748,16.45,10.5,-2.1
,-8.777,-0.481,-4.587,-8.813,-0.084,-4.726,17.71,9.73,-3.43
,-8.969,-0.452,-4.556,-8.655,-0.084,-4.941,18.41,8.89,-4.69
,-9.105,-0.22,-4.671,-8.703,-0.266,-5.054,19.25,7.63,-5.39
27968.0,-8.847,-0.613,-4.968,-8.555,-1.024,-5.394,12.39,5.11,-10.5
,-8.744,-1.055,-4.987,-8.603,-0.945,-5.485,11.9,3.99,-10.22
,-8.713,-1.194,-4.927,-8.607,-1.278,-5.336,12.46,5.04,-9.73
,-8.772,-1.187,-5.023,-8.43,-1.948,-5.14,13.09,4.76,-9.31
28044.0,-8.641,-2.611,-4.932,-8.49,-2.864,-4.882,7.91,3.22,-5.11
,-8.622,-3.408,-4.719,-8.782,-2.314,-5.152,8.33,3.29,-3.01
,-8.428,-3.427,-4.793,-8.827,-1.74,-4.817,12.74,2.87,-0.91
,-8.782,-3.391,-4.647,-8.595,-1.321,-5.03,15.68,3.08,0.7
28120.0,-8.512,-1.321,-4.867,-8.813,-2.123,-4.334,19.6,-1.26,1.54
,-8.49,-1.304,-4.807,-9.052,-2.173,-4.142,17.64,-0.56,2.52
,-8.579,-1.5,-4.858,-8.777,-2.168,-4.468,16.24,-0.56,3.29
,-8.705,-1.852,-4.515,-8.784,-2.199,-4.288,14.0,0.0,5.46
28196.0,-8.76,-1.864,-4.372,-8.509,-1.012,-4.566,22.96,-2.94,6.86
,-8.547,-1.347,-4.86,-8.861,-0.883,-4.355,24.78,-3.57,6.23
,-8.6,-0.972,-5.025,-8.88,-0.893,-4.307,24.85,-3.29,6.02
,-8.677,-0.924,-4.893,-8.655,-0.89,-4.156,23.17,-2.73,6.79
28272.0,-8.741,-0.866,-4.135,-8.942,-0.531,-4.81,13.16,-2.24,3.99
,-8.911,-1.158,-3.896,-8.945,-0.905,-4.503,10.99,-0.98,3.92
,-8.926,-1.11,-4.07,-8.66,-1.318,-4.53,12.04,-0.28,3.22
,-8.873,-0.771,-4.53,-8.547,-1.665,-4.7,13.79,-0.14,2.52
28348.0,-8.763,-1.874,-4.748,-8.765,-2.355,-4.298,8.26,0.21,2.94
,-8.806,-2.178,-4.389,-8.813,-1.833,-4.48,6.86,0.14,3.36
,-8.595,-2.324,-4.202,-8.89,-1.476,-4.59,6.44,0.49,4.34
,-8.581,-2.544,-4.262,-9.016,-1.467,-4.338,6.65,1.89,4.9
28424.0,-8.794,-1.697,-4.149,-8.77,-0.455,-4.781,6.58,2.73,4.48
,-8.533,-1.811,-4.018,-9.033,-0.364,-4.872,5.67,2.73,4.9
,-8.612,-1.491,-4.279,-9.083,-0.373,-4.824,5.04,1.96,4.41
,-8.746,-0.957,-4.532,-8.921,-0.653,-4.52,4.55,1.68,3.43
28500.0,-8.763,-0.869,-4.377,-8.839,-1.826,-4.066,-1.82,3.71,-1.47
,-8.772,-0.948,-4.499,-8.65,-1.534,-4.336,-3.43,3.92,-2.03
,-8.808,-1.194,-4.518,-8.677,-1.395,-4.355,-5.25,3.85,-2.59
,-8.842,-1.505,-4.212,-8.849,-1.132,-4.47,-6.58,4.34,-2.52
28576.0,-8.899,-1.058,-4.487,-8.583,-1.644,-4.709,-9.94,3.29,-3.5
,-8.813,-1.297,-4.444,-8.77,-1.632,-4.733,-11.34,4.27,-3.22
,-8.746,-1.63,-4.293,-8.882,-1.709,-4.733,-11.97,4.83,-2.52
,-8.543,-1.606,-4.53,-8.875,-1.622,-4.649,-11.62,5.46,-1.96
28652.0,-8.753,-1.728,-4.484,-8.799,-1.756,-4.618,-13.65,5.04,0.91
,-8.727,-1.929,-4.3,-8.804,-1.646,-4.482,-15.26,5.53,0.98
,-8.681,-2.027,-4.482,-8.794,-1.586,-4.558,-16.73,5.74,2.45
,-8.787,-1.766,-4.702,-8.82,-1.558,-4.554,-16.24,4.41,3.5
28728.0,-8.796,-1.388,-4.786,-8.897,-0.89,-4.91,-16.52,3.85,5.67
,-8.763,-1.184,-4.989,-8.758,-0.957,-4.781,-16.24,3.01,6.16
,-8.634,-1.117,-5.138,-8.808,-0.988,-4.716,-16.38,3.15,6.86
,-8.739,-1.043,-5.109,-8.77,-1.067,-4.903,-16.17,3.29,7.28
28804.0,-8.641,-1.156,-5.011,-8.806,-1.455,-4.872,-19.32,1.19,8.26
,-8.698,-1.314,-5.121,-8.746,-1.338,-4.817,-19.74,1.19,8.47
,-8.725,-1.433,-5.051,-8.5,-0.806,-4.85,-18.9,0.77,8.68
,-8.82,-1.443,-4.822,-8.808,-0.495,-4.882,-17.85,-0.07,8.82
28880.0,-8.887,-0.208,-4.714,-8.808,-0.017,-4.578,-12.18,-2.1,5.53
,-8.832,-0.017,-4.695,-8.813,-0.333,-4.642,-13.23,-1.75,5.04
,-8.835,0.199,-4.654,-8.818,-0.625,-4.8,-15.47,-1.68,4.83
,-8.662,0.306,-4.824,-8.823,-0.967,-4.513,-17.85,-1.12,4.62
28956.0,-8.859,-1.366,-4.609,-8.665,-1.134,-4.46,-17.92,-4.41,-0.98
,-8.631,-1.299,-4.654,-8.622,-1.342,-4.391,-13.93,-5.88,-3.85
,-8.562,-1.22,-4.963,-8.949,-1.374,-4.31,-10.01,-6.02,-5.67
,-8.763,-1.17,-4.487,-8.825,-1.412,-3.955,-8.47,-5.04,-3.99
29032.0,-8.658,-1.421,-4.164,-8.902,-1.4,-4.393,-8.47,-3.71,2.1
,-8.531,-1.519,-4.066,-8.469,-1.369,-4.527,-8.05,-3.29,2.8
,-9.04,-1.45,-4.252,-8.622,-1.187,-4.463,-7.49,-1.96,4.9
,-9.026,-1.764,-4.424,-8.961,-0.828,-4.759,-3.92,-2.38,5.32
29108.0,-8.526,-0.665,-4.836,-9.134,-0.424,-4.346,7.0,-3.15,5.53
,-8.564,-0.469,-4.728,-8.971,-0.445,-4.482,6.16,-2.73,5.32
,-8.988,-0.28,-4.535,-8.538,-0.5,-4.815,4.97,-1.89,6.58
,-9.081,-0.388,-4.64,-8.911,-0.481,-4.575,3.85,-1.89,8.05
29184.0,-8.942,-0.402,-4.496,-8.878,0.002,-4.637,1.47,-5.81,4.2
,-8.873,-0.124,-4.436,-8.76,-0.132,-4.578,3.08,-6.44,2.1
,-8.954,0.11,-4.417,-8.71,-0.412,-4.484,0.91,-6.02,2.31
,-8.823,0.034,-4.463,-8.725,-0.715,-4.365,-1.33,-5.6,2.24
29260.0,-8.827,-0.715,-4.343,-8.976,-0.316,-4.369,-0.63,-0.98,0.98
,-9.261,-0.462,-4.472,-8.655,-0.572,-4.173,2.31,-1.19,1.05
,-9.007,-0.23,-4.444,-8.859,-0.629,-3.826,3.01,-2.59,-0.07
,-8.837,-0.031,-4.384,-9.033,-0.735,-4.185,1.68,-3.5,-1.89
29336.0,-9.112,-0.538,-4.226,-9.222,-0.392,-4.087,-1.05,-4.55,-3.5
,-9.129,-0.455,-3.948,-8.928,-0.175,-4.075,-1.12,-4.06,-3.92
,-8.926,-0.567,-4.056,-8.938,-0.151,-4.087,-1.96,-3.85,-4.41
,-8.911,-0.617,-3.994,-8.906,-0.246,-4.188,-1.19,-3.43,-4.34
29411.0,-8.873,-0.598,-3.965,-9.062,-1.036,-4.006,-4.27,-4.9,-7.91
,-8.954,-0.859,-3.798,-8.868,-0.952,-3.888,-4.2,-4.27,-7.14
,-9.016,-1.022,-3.833,-8.753,-1.031,-3.692,-3.5,-4.34,-7.14
,-9.0,-1.046,-3.735,-8.827,-1.077,-3.62,-2.24,-4.48,-7.07
29486.0,-9.074,-0.983,-3.482,-8.878,-0.438,-4.097,2.17,-2.66,-4.06
,-9.258,-0.73,-3.802,-8.973,-0.591,-3.955,2.52,-3.36,-3.71
,-9.141,-0.598,-4.185,-9.05,-0.493,-3.735,1.26,-4.48,-3.99
,-8.926,-0.522,-4.037,-9.04,-0.357,-3.769,1.4,-4.55,-4.06
29562.0,-8.993,-0.187,-3.819,-9.158,-0.893,-4.35,0.21,-3.71,-5.88
,-8.988,-0.481,-3.967,-8.902,-0.895,-4.302,-2.1,-3.36,-6.3
,-9.103,-0.883,-4.204,-8.751,-0.926,-3.944,-3.01,-3.78,-6.58
,-9.139,-0.912,-4.013,-8.973,-1.039,-4.104,-0.35,-3.64,-5.32
29637.0,-9.005,-1.05,-3.896,-8.899,-0.794,-3.754,2.52,-4.2,-4.69
,-9.117,-0.986,-3.821,-8.985,-0.859,-3.522,3.57,-3.71,-3.57
,-9.11,-1.022,-3.867,-9.143,-0.766,-3.364,3.22,-4.34,-3.99
,-8.993,-0.797,-3.936,-9.363,-0.57,-3.747,4.13,-4.55,-3.85
29712.0,-9.127,-0.529,-3.843,-9.093,-0.897,-3.494,7.49,-4.13,-3.29
,-8.93,-0.665,-3.563,-9.005,-0.761,-3.53,6.09,-3.57,-3.01
,-9.012,-0.878,-3.508,-9.005,-0.998,-3.673,5.88,-2.52,-3.15
,-9.105,-0.926,-3.475,-9.069,-1.23,-3.295,6.86,-1.96,-3.43
29787.0,-9.1,-1.204,-3.175,-8.885,-0.814,-3.96,4.97,0.77,-2.45
,-9.225,-1.103,-3.451,-8.911,-0.976,-3.814,5.88,1.19,-2.59
,-9.062,-0.704,-3.702,-9.129,-1.036,-3.702,6.44,1.19,-2.45
,-9.107,-0.694,-3.963,-9.167,-0.948,-3.676,4.55,0.98,-2.94
29862.0,-9.213,-0.84,-3.585,-9.119,-0.881,-3.711,7.56,3.29,-1.47
,-9.06,-0.936,-3.4,-8.885,-0.859,-3.714,7.63,3.92,-1.19
,-9.095,-0.948,-3.266,-8.957,-1.05,-3.853,8.33,4.55,-0.98
,-9.237,-1.005,-3.419,-8.89,-1.271,-3.807,8.19,4.9,-1.4
29937.0,-8.94,-1.402,-3.836,-9.007,-1.24,-3.972,2.03,5.88,-2.1
,-9.074,-1.345,-3.941,-9.043,-1.127,-4.171,3.01,5.74,-1.82
,-9.009,-1.137,-3.924,-9.081,-0.976,-4.413,3.08,5.53,-1.75
,-9.036,-1.101,-3.977,-8.942,-0.928,-4.64,2.24,5.81,-1.54
30012.0,-8.777,-1.029,-4.673,-9.062,-0.974,-4.52,-1.12,3.57,-1.68
,-8.787,-1.106,-4.587,-9.016,-1.146,-4.233,-0.28,3.5,-1.4
,-8.906,-1.153,-4.637,-8.902,-1.275,-3.977,1.19,2.87,-1.19
,-8.923,-1.034,-4.525,-8.993,-1.464,-3.707,2.59,2.17,-0.84
30087.0,-9.11,-1.45,-3.618,-8.909,-1.199,-3.762,6.3,1.75,0.84
,-9.16,-1.199,-3.64,-8.952,-1.235,-3.874,7.49,1.82,1.12
,-9.153,-1.053,-3.79,-8.993,-1.082,-3.886,6.79,1.54,0.91
,-8.978,-1.06,-3.865,-9.024,-1.024,-3.81,5.74,1.75,0.98
30162.0,-9.062,-1.015,-3.845,-8.923,-1.125,-4.259,6.86,3.01,1.75
,-9.107,-0.945,-3.91,-9.007,-1.249,-4.348,6.02,2.66,1.47
,-9.002,-0.912,-4.075,-8.957,-1.096,-4.535,4.34,2.24,1.05
,-8.894,-0.96,-4.145,-8.861,-1.036,-4.434,2.8,2.24,0.77
30237.0,-8.885,-1.094,-4.369,-9.079,-1.024,-4.08,3.01,0.35,0.7
,-8.971,-1.149,-4.274,-8.957,-1.17,-3.963,2.8,0.07,0.77
,-8.978,-1.053,-4.094,-8.93,-1.173,-3.915,3.01,-0.21,0.98
,-9.095,-1.005,-4.133,-8.952,-1.328,-3.783,2.66,-0.63,0.77
30312.0,-9.043,-1.225,-3.597,-9.036,-1.043,-3.848,3.15,-0.21,1.05
,-9.141,-1.156,-3.568,-9.002,-1.113,-3.946,3.64,0.21,1.26
,-9.141,-1.146,-3.611,-8.942,-1.146,-4.094,3.78,0.63,1.4
,-9.146,-1.086,-3.738,-8.904,-1.094,-4.089,3.5,0.7,1.54
30387.0,-8.971,-1.012,-4.19,-9.076,-1.084,-3.987,3.64,1.12,1.75
,-9.012,-1.015,-4.195,-9.05,-0.962,-4.011,3.36,0.84,1.61
,-8.964,-1.005,-4.128,-8.993,-1.003,-3.979,3.22,0.91,1.89
,-8.988,-0.969,-4.061,-9.012,-1.058,-3.953,3.57,0.91,1.89
30462.0,-9.038,-1.065,-3.984,-9.043,-1.108,-3.79,3.57,0.42,1.54
,-8.993,-1.058,-3.917,-9.083,-1.117,-3.733,3.78,0.56,1.54
,-9.016,-1.029,-3.8,-9.119,-1.108,-3.776,3.78,0.42,1.47
,-9.05,-1.041,-3.812,-9.103,-1.039,-3.891,3.71,0.63,1.4
30537.0,-9.021,-1.041,-4.003,-9.1,-0.967,-4.011,3.85,1.47,1.47
,-8.976,-1.089,-4.022,-9.045,-0.895,-3.905,3.43,1.4,1.47
,-8.942,-1.101,-3.975,-8.99,-0.945,-3.85,3.64,1.47,1.4
,-9.028,-1.06,-3.972,-9.028,-1.039,-3.833,4.2,1.61,1.54
30612.0,-9.045,-0.948,-3.996,-9.031,-1.134,-3.92,3.01,1.82,1.26
,-9.057,-0.888,-4.013,-9.117,-1.127,-3.991,3.01,1.68,1.12
,-8.959,-0.998,-3.951,-9.062,-1.067,-3.953,1.75,1.75,0.98
,-9.038,-1.211,-3.924,-8.909,-1.125,-3.948,1.47,1.89,0.84
30687.0,-8.993,-1.117,-3.934,-9.031,-1.077,-4.049,1.05,1.75,0.84
,-9.04,-1.101,-3.958,-8.99,-1.103,-4.051,2.17,1.89,0.91
,-9.048,-0.964,-4.032,-8.983,-1.098,-4.066,2.31,1.68,0.98
,-9.057,-0.979,-3.967,-8.966,-1.07,-4.113,1.54,1.75,0.77
30762.0,-9.076,-1.091,-4.118,-9.043,-1.192,-3.979,2.1,0.91,0.63
,-9.062,-1.019,-4.106,-9.002,-1.072,-4.018,2.45,0.91,0.77
,-9.007,-1.019,-4.068,-9.083,-1.05,-3.903,2.45,0.77,0.84
,-9.005,-1.089,-4.039,-9.043,-1.015,-3.92,2.38,0.77,0.84
30837.0,-9.038,-1.039,-3.9,-9.036,-1.086,-3.869,3.01,0.77,1.19
,-9.055,-1.027,-3.855,-8.969,-1.084,-3.843,2.66,0.84,1.19
,-9.04,-1.041,-3.841,-8.976,-1.127,-3.92,2.52,0.98,1.19
,-9.1,-1.046,-3.903,-9.026,-1.079,-3.975,2.38,0.91,1.05
30912.0,-9.069,-0.976,-3.874,-9.014,-1.031,-4.113,2.87,1.4,1.12
,-9.057,-0.988,-3.989,-8.973,-1.189,-3.927,2.45,1.33,0.91
,-9.016,-1.065,-4.006,-8.961,-1.117,-3.798,2.31,1.47,0.98
,-8.973,-1.036,-4.111,-9.107,-1.043,-3.79,2.66,1.33,1.12
30987.0,-9.15,-0.967,-3.644,-8.99,-1.094,-3.793,4.27,1.96,1.47
,-9.112,-1.003,-3.692,-9.019,-1.127,-3.795,2.73,1.96,1.26
,-9.11,-1.06,-3.774,-9.055,-1.012,-3.893,1.54,1.89,0.84
,-9.069,-1.163,-3.75,-9.069,-0.94,-3.948,0.98,2.31,0.91
31062.0,-8.988,-1.0,-3.92,-9.002,-1.036,-4.066,1.26,2.38,0.77
,-9.079,-1.017,-4.001,-9.016,-1.041,-3.977,1.19,2.66,0.84
,-9.012,-1.027,-4.068,-9.038,-1.084,-3.927,0.84,2.45,0.7
,-8.983,-1.05,-4.087,-9.06,-0.993,-3.932,0.98,2.45,0.77
31137.0,-9.038,-1.031,-3.903,-8.988,-1.05,-3.912,1.12,2.17,0.49
,-8.983,-1.046,-3.977,-9.019,-1.082,-3.869,0.84,2.1,0.28
,-9.028,-1.072,-3.958,-9.115,-1.06,-3.872,0.91,2.17,0.35
,-9.028,-1.07,-3.984,-9.036,-1.024,-3.788,1.26,2.17,0.49
31212.0,-9.048,-1.091,-3.776,-9.024,-1.017,-3.81,0.07,2.66,0.7
,-9.012,-1.098,-3.721,-9.016,-0.964,-3.841,-0.14,2.66,0.7
,-9.028,-1.077,-3.798,-9.016,-1.005,-3.838,0.0,2.8,0.77
,-9.131,-1.012,-3.821,-8.961,-1.06,-3.881,0.07,3.15,0.91
31287.0,-8.981,-1.153,-3.888,-8.887,-1.158,-4.283,-1.47,3.29,0.84
,-9.04,-1.07,-4.032,-8.988,-1.077,-4.439,-1.05,3.15,0.7
,-9.069,-1.096,-4.13,-8.978,-0.931,-4.58,-1.26,3.08,0.7
,-8.899,-1.149,-4.216,-8.933,-0.936,-4.594,-1.47,3.15,1.12
31362.0,-8.844,-0.976,-4.527,-8.873,-1.024,-4.501,-1.61,0.63,1.89
,-8.966,-1.043,-4.487,-8.921,-0.988,-4.472,-1.05,0.28,2.24
,-9.036,-1.029,-4.58,-8.94,-1.046,-4.324,-0.49,-0.42,2.31
,-8.904,-1.067,-4.59,-9.002,-1.029,-4.252,-0.07,-1.26,2.45
31437.0,-9.0,-1.058,-4.202,-9.031,-1.036,-3.733,-0.07,-3.57,3.15
,-9.076,-0.988,-4.145,-9.057,-0.95,-3.405,0.0,-4.2,2.66
,-9.048,-0.981,-4.051,-9.055,-0.854,-3.005,-0.28,-4.62,2.45
,-9.072,-1.022,-3.936,-9.177,-0.708,-2.905,-0.91,-4.9,2.17
31512.0,-9.17,-0.849,-2.91,-8.77,-1.819,-3.396,-3.22,-2.52,3.57
,-9.139,-1.089,-3.032,-8.904,-1.488,-2.927,-4.83,-1.26,4.13
,-8.973,-1.424,-3.3,-9.43,-0.876,-3.166,-4.55,0.14,4.76
,-8.737,-1.721,-3.333,-9.411,-0.354,-3.233,-2.17,2.03,6.23
31587.0,-9.416,0.034,-3.62,-8.938,-1.326,-3.132,11.2,5.32,9.1
,-9.091,-0.254,-3.778,-9.129,-1.213,-3.278,3.57,4.2,7.63
,-8.83,-0.787,-3.609,-9.05,-0.833,-3.319,-1.68,4.13,7.07
,-8.77,-1.223,-3.525,-9.251,-0.424,-4.011,-2.8,4.76,6.51
31662.0,-9.122,-0.505,-4.939,-9.009,-0.022,-4.247,3.71,3.36,6.86
,-8.796,-0.572,-4.893,-9.146,0.019,-3.841,2.94,3.92,7.42
,-8.792,-0.534,-4.958,-9.095,-0.029,-3.451,5.04,4.9,8.19
,-8.82,-0.392,-4.635,-9.079,-0.151,-3.082,9.17,6.37,8.19
31737.0,-9.428,-0.165,-2.924,-8.65,-0.778,-4.008,1.96,7.77,2.45
,-9.32,-0.285,-3.599,-8.799,-0.873,-3.903,-1.47,6.02,0.56
,-9.229,-0.443,-3.386,-8.837,-0.995,-4.176,-4.2,5.53,0.35
,-9.189,-0.445,-3.924,-8.813,-1.06,-4.118,-7.07,3.99,0.0
31812.0,-8.744,-1.201,-4.046,-9.351,0.16,-4.185,-3.43,7.35,-0.56
,-8.969,-1.144,-3.735,-9.115,0.057,-4.695,-0.35,9.1,0.77
,-9.067,-0.828,-3.704,-8.827,-0.328,-4.846,3.43,9.73,1.47
,-9.421,-0.261,-3.673,-8.485,-0.536,-4.896,5.53,9.03,0.84
31887.0,-8.528,-0.924,-4.436,-8.93,-1.723,-3.886,-3.92,6.09,-1.05
,-8.882,-0.96,-4.281,-8.973,-1.512,-3.96,-2.66,6.79,-1.89
,-9.115,-1.192,-3.869,-8.947,-1.005,-4.142,-1.26,6.79,-2.31
,-9.04,-1.479,-3.867,-9.007,-0.658,-4.413,-1.33,6.65,-1.54
31962.0,-9.007,-0.67,-4.52,-8.789,-1.139,-4.044,8.82,6.02,3.15
,-8.77,-0.926,-4.614,-9.024,-0.981,-3.955,7.63,5.39,3.29
,-8.155,-1.342,-4.58,-9.083,-0.866,-4.104,6.79,6.51,4.06
,-8.559,-1.493,-4.125,-9.002,-0.723,-4.113,8.19,8.68,4.48
32037.0,-8.904,-0.72,-4.135,-8.787,0.101,-4.597,11.62,9.38,4.48
,-8.916,-0.519,-4.295,-8.76,-0.266,-4.24,12.53,9.73,5.25
,-8.887,-0.108,-4.558,-8.897,-0.34,-4.054,14.63,8.68,4.76
,-8.964,0.101,-4.683,-9.016,-0.354,-4.36,14.7,7.07,2.66
32112.0,-9.055,-0.436,-4.676,-9.038,-1.103,-4.08,10.29,8.05,-2.59
,-8.729,-0.648,-4.86,-9.167,-0.723,-4.226,9.45,7.42,-3.85
,-8.44,-0.952,-4.724,-9.04,-0.409,-4.537,7.91,8.61,-4.9
,-8.557,-1.271,-4.324,-8.696,-0.586,-4.535,8.61,10.71,-5.25
32187.0,-8.61,-1.065,-4.448,-9.04,-0.522,-4.848,7.07,10.36,-4.2
,-8.741,-1.039,-4.432,-8.938,-0.486,-4.731,9.03,10.85,-3.36
,-8.784,-0.737,-4.709,-9.167,-0.605,-4.439,13.51,9.94,-3.5
,-8.866,-0.514,-4.834,-9.036,-0.572,-4.599,15.82,9.45,-4.48
32262.0,-8.648,-0.84,-4.633,-8.741,-1.567,-4.513,11.27,1.33,-7.07
,-8.567,-0.967,-4.609,-8.775,-1.443,-4.558,11.97,2.31,-7.35
,-8.708,-1.144,-4.594,-8.801,-1.117,-4.714,11.69,3.64,-6.65
,-8.672,-1.443,-4.513,-9.005,-0.653,-4.767,11.2,5.11,-5.32
32337.0,-8.832,-0.4,-4.953,-8.703,-1.914,-4.338,17.92,0.35,-4.76
,-8.483,-0.455,-5.068,-8.957,-2.082,-4.238,14.63,0.21,-4.41
,-8.686,-0.866,-4.738,-8.906,-2.257,-4.269,10.43,1.33,-3.15
,-8.83,-1.211,-4.302,-8.667,-2.17,-4.477,7.84,2.1,-2.03
32412.0,-8.461,-1.981,-4.692,-8.842,-0.89,-4.929,18.27,2.1,2.66
,-8.863,-1.235,-4.805,-9.024,-0.802,-4.958,21.63,1.05,1.54
,-8.753,-1.034,-5.068,-8.672,-1.084,-4.731,20.58,0.07,0.7
,-8.607,-0.948,-4.951,-8.792,-1.448,-4.707,20.23,0.07,-0.07
32487.0,-8.557,-1.907,-4.432,-9.107,-1.273,-4.415,12.39,0.91,2.73
,-8.815,-1.711,-4.695,-8.775,-1.012,-4.436,13.72,1.96,3.78
,-8.961,-1.5,-4.728,-8.567,-0.859,-4.688,17.15,2.59,5.18
,-9.031,-1.539,-4.64,-8.346,-0.861,-4.984,19.39,1.82,4.06
32562.0,-8.643,-1.374,-4.503,-8.827,-1.409,-4.145,14.21,-2.1,2.31
,-8.514,-1.737,-4.444,-8.851,-1.307,-4.257,13.51,-1.82,2.17
,-8.607,-1.929,-4.147,-8.775,-1.467,-4.111,14.07,-0.77,2.59
,-8.799,-1.642,-4.092,-8.844,-1.448,-4.281,15.75,0.0,2.94
32637.0,-8.617,-1.354,-4.614,-8.638,-1.972,-4.585,15.82,0.0,2.94
,-8.763,-1.144,-4.764,-8.72,-2.115,-4.381,16.03,-0.77,2.38
,-8.775,-1.342,-4.815,-8.598,-1.938,-4.317,14.28,-0.84,2.38
,-8.799,-1.768,-4.738,-8.734,-1.462,-4.609,13.16,0.28,3.57
32712.0,-8.741,-1.4,-4.704,-8.77,-1.486,-4.635,13.44,2.17,6.86
,-8.863,-1.091,-4.867,-8.672,-1.986,-4.401,12.95,2.03,6.72
,-8.902,-1.23,-4.862,-8.617,-2.235,-4.391,11.27,2.52,6.65
,-8.842,-1.278,-4.721,-8.717,-2.075,-4.398,10.43,2.87,6.51
32787.0,-8.83,-1.613,-4.544,-8.739,-0.357,-4.975,8.75,1.61,8.12
,-8.789,-1.213,-4.731,-8.744,-0.814,-4.927,8.75,1.26,7.35
,-8.902,-1.017,-4.759,-8.789,-1.027,-4.793,7.21,0.42,6.65
,-8.784,-0.689,-4.968,-8.665,-0.936,-4.683,6.09,-0.63,5.67
32862.0,-8.583,-0.861,-4.544,-9.014,-0.689,-4.515,0.07,0.7,0.56
,-8.722,-0.981,-4.494,-8.739,-0.761,-4.544,-0.56,1.75,-0.63
,-8.99,-0.847,-4.472,-8.605,-0.888,-4.743,-0.49,2.24,-1.33
,-9.213,-0.759,-4.494,-8.758,-0.907,-4.795,-0.91,2.1,-1.61
32937.0,-9.024,-0.864,-4.774,-8.634,-1.307,-4.518,-9.94,1.82,-3.71
,-8.93,-1.036,-4.652,-8.89,-1.388,-4.508,-12.25,1.89,-3.43
,-8.698,-1.366,-4.503,-9.105,-1.431,-4.649,-14.07,2.73,-2.8
,-8.66,-1.505,-4.369,-8.897,-1.318,-4.712,-14.42,3.78,-2.45
33012.0,-8.698,-1.481,-4.535,-8.842,-2.022,-4.812,-19.25,2.38,-0.98
,-8.631,-1.914,-4.329,-8.758,-1.783,-4.692,-21.21,3.71,0.35
,-8.782,-2.213,-4.346,-8.732,-1.579,-4.858,-21.84,3.64,1.96
,-8.957,-2.252,-4.551,-8.725,-1.45,-4.752,-20.09,3.15,3.43
33087.0,-8.861,-1.558,-4.621,-8.756,-0.864,-4.781,-15.05,2.24,8.26
,-8.89,-1.455,-4.645,-8.576,-0.885,-4.798,-14.49,2.1,9.94
,-8.849,-1.204,-4.776,-8.787,-0.967,-4.688,-13.37,1.96,11.69
,-8.744,-1.125,-4.743,-9.107,-1.055,-4.592,-13.37,1.61,12.11
33162.0,-9.076,-0.955,-4.798,-8.995,-0.718,-4.822,-13.79,-0.28,11.83
,-8.612,-0.936,-4.829,-8.904,-0.273,-4.994,-13.72,0.0,12.18
,-8.423,-0.964,-4.621,-8.784,0.11,-5.13,-14.21,1.4,12.46
,-8.612,-1.036,-4.673,-8.583,-0.191,-5.209,-13.79,1.26,11.76
33237.0,-8.806,-0.297,-4.561,-9.014,-0.11,-4.429,-14.42,-1.05,8.26
,-8.78,-0.34,-4.578,-8.863,0.053,-4.556,-14.35,-2.03,6.44
,-8.899,-0.727,-4.049,-8.83,-0.072,-4.669,-14.0,-1.75,5.39
,-8.88,-0.464,-4.338,-8.787,-0.376,-4.334,-10.43,-3.15,4.55
33312.0,-9.031,-0.505,-4.444,-8.899,-0.428,-4.367,-10.36,-6.72,-1.26
,-8.72,-0.493,-4.444,-9.019,-0.002,-4.625,-9.94,-6.86,-0.63
,-8.72,-0.534,-4.276,-8.744,-0.431,-4.436,-8.47,-6.44,-0.21
,-8.71,-0.639,-4.456,-8.502,-0.474,-4.463,-7.77,-6.58,-1.12
33387.0,-8.614,-1.201,-4.075,-8.923,-1.441,-4.346,-8.26,-3.85,-2.87
,-8.985,-1.299,-4.113,-8.99,-1.481,-4.257,-5.32,-3.99,-2.38
,-8.969,-1.419,-4.116,-8.729,-1.28,-4.338,-2.45,-4.9,-1.54
,-8.954,-1.39,-4.238,-8.854,-0.979,-4.379,-0.63,-5.74,-0.91
33462.0,-8.861,-0.596,-4.561,-8.794,-0.074,-4.346,1.05,-9.03,1.05
,-8.713,-0.488,-4.484,-8.983,0.014,-4.116,-0.84,-9.59,0.35
,-8.808,-0.455,-4.537,-9.222,-0.079,-4.109,-3.22,-9.59,-0.49
,-8.959,-0.235,-4.403,-9.28,-0.096,-4.31,-3.36,-9.1,-0.42
33537.0,-8.978,-0.436,-4.247,-9.426,-0.134,-3.752,-3.85,-8.96,-1.75
,-8.861,-0.457,-4.149,-8.727,-0.048,-4.233,-2.73,-8.4,-2.17
,-8.763,-0.345,-3.955,-8.765,-0.371,-4.142,-1.12,-8.05,-3.64
,-9.031,0.079,-4.039,-8.839,-0.586,-4.348,1.96,-6.51,-3.5
33612.0,-8.88,-0.718,-4.31,-8.985,-1.17,-3.798,-4.76,-5.6,-3.85
,-8.942,-0.672,-4.142,-9.045,-1.247,-3.685,-2.45,-4.2,-5.04
,-8.93,-0.787,-3.97,-9.258,-1.158,-3.51,-1.19,-3.08,-4.62
,-8.949,-1.005,-3.69,-9.22,-0.806,-3.357,-0.56,-2.38,-3.78
33687.0,-8.978,-0.44,-3.295,-9.005,-0.364,-3.692,5.11,-2.8,-1.33
,-9.043,-0.16,-3.348,-8.89,-0.79,-3.778,4.83,-2.38,-2.24
,-9.172,-0.072,-3.34,-8.89,-1.156,-3.625,3.22,-1.68,-2.45
,-9.048,-0.189,-3.726,-9.117,-1.161,-3.379,0.63,-1.89,-3.01
33762.0,-9.208,-0.806,-3.412,-9.057,-0.337,-4.003,8.68,2.8,-1.82
,-9.325,-0.397,-3.637,-9.057,-0.488,-3.838,9.59,2.17,-1.68
,-9.103,-0.225,-3.759,-9.028,-0.639,-3.527,7.07,1.61,-1.61
,-9.112,-0.263,-3.996,-9.115,-0.694,-3.317,4.69,1.4,-2.03
33837.0,-9.172,-0.651,-3.477,-9.016,-1.505,-3.886,2.8,1.61,-4.55
,-9.182,-0.72,-3.723,-9.117,-1.354,-3.74,1.75,0.77,-4.41
,-8.949,-0.955,-3.75,-9.237,-0.802,-3.948,0.56,0.98,-3.5
,-8.811,-1.242,-3.585,-9.217,-0.447,-4.221,2.1,2.66,-1.89
33912.0,-8.899,-0.352,-4.116,-9.177,-0.644,-3.69,7.91,-0.42,-1.96
,-8.928,-0.373,-4.288,-9.27,-0.541,-4.082,5.46,-0.21,-2.59
,-8.832,-0.625,-3.896,-9.062,-0.66,-3.917,4.06,0.21,-3.22
,-9.016,-0.771,-3.853,-9.045,-0.78,-3.936,4.27,-0.21,-3.78
33987.0,-8.985,-0.983,-3.982,-9.033,-0.737,-3.963,2.59,-1.33,-3.78
,-8.947,-0.995,-3.936,-9.036,-0.794,-3.953,4.48,-1.4,-3.99
,-9.103,-0.706,-4.063,-9.036,-0.952,-3.891,6.65,-1.47,-3.5
,-9.06,-0.727,-4.068,-9.1,-0.96,-3.821,5.95,-2.31,-3.92
34062.0,-9.124,-0.687,-3.905,-9.014,-1.041,-3.611,6.3,-2.24,-3.5
,-9.088,-0.677,-3.934,-9.093,-1.24,-3.379,5.18,-2.59,-3.92
,-9.05,-0.885,-4.118,-9.263,-1.058,-3.415,3.36,-2.87,-4.06
,-8.93,-0.914,-3.704,-9.158,-1.0,-3.431,3.78,-2.31,-3.36
34137.0,-9.1,-1.003,-3.285,-9.007,-0.864,-3.807,6.65,-0.42,-2.38
,-9.191,-0.988,-3.477,-9.067,-0.907,-3.798,6.79,0.14,-2.24
,-9.253,-0.96,-3.719,-9.103,-0.976,-3.836,7.0,-0.07,-2.38
,-9.06,-0.785,-3.632,-9.141,-0.96,-3.709,6.65,-0.14,-2.31
34212.0,-9.162,-0.826,-3.711,-9.067,-1.237,-3.683,5.25,0.77,-2.8
,-9.167,-0.768,-3.683,-9.021,-1.297,-3.534,4.55,0.84,-2.87
,-9.107,-0.916,-3.558,-9.033,-1.232,-3.417,2.73,0.98,-3.08
,-9.064,-1.139,-3.52,-9.191,-1.242,-3.422,1.75,1.54,-3.08
34287.0,-9.083,-1.211,-3.178,-9.026,-1.165,-3.568,2.87,3.64,-1.61
,-9.076,-1.187,-3.187,-9.052,-1.184,-3.654,2.38,4.34,-1.33
,-9.191,-1.18,-3.297,-9.031,-1.127,-3.819,1.96,4.97,-1.19
,-9.196,-1.161,-3.405,-9.033,-1.034,-4.101,1.68,5.32,-0.98
34362.0,-8.978,-1.058,-4.178,-9.057,-1.034,-4.513,2.66,5.88,0.0
,-9.007,-1.029,-4.302,-9.007,-1.086,-4.542,3.15,5.81,0.42
,-9.045,-1.058,-4.403,-8.916,-1.211,-4.602,3.71,5.32,0.21
,-9.024,-1.027,-4.334,-8.823,-1.35,-4.463,4.2,4.97,0.35
34437.0,-8.832,-1.295,-4.286,-8.964,-1.151,-3.955,7.21,1.68,1.05
,-9.136,-1.206,-4.372,-8.976,-1.192,-3.68,8.12,1.12,0.84
,-9.105,-1.027,-4.288,-9.119,-1.134,-3.51,7.77,0.28,0.63
,-8.894,-0.96,-4.085,-9.141,-1.156,-3.455,6.37,0.07,0.7
34512.0,-9.143,-1.168,-3.35,-9.05,-0.998,-3.912,4.27,1.05,1.12
,-9.165,-1.249,-3.283,-8.969,-1.06,-4.078,3.78,1.54,1.19
,-9.174,-1.168,-3.408,-8.993,-1.168,-4.085,3.78,2.03,1.19
,-9.179,-1.029,-3.716,-8.978,-1.192,-3.991,3.64,2.1,0.98
34587.0,-9.028,-1.125,-3.905,-9.055,-1.034,-3.807,5.88,2.31,1.4
,-9.119,-1.053,-3.893,-9.06,-1.086,-3.869,6.23,2.1,1.12
,-9.119,-1.034,-3.781,-9.098,-1.151,-3.929,6.02,1.89,1.19
,-9.021,-0.96,-3.867,-9.026,-1.094,-3.845,5.46,1.96,1.05
34662.0,-9.05,-1.074,-3.994,-9.028,-1.058,-4.154,5.25,1.89,0.7
,-9.067,-1.065,-4.099,-9.009,-0.998,-4.145,5.25,1.68,0.7
,-9.028,-0.983,-4.168,-9.021,-0.986,-4.063,4.69,1.4,0.56
,-8.964,-1.024,-4.161,-9.016,-1.05,-3.967,4.2,1.19,0.56
34737.0,-9.019,-1.153,-3.833,-9.048,-1.149,-3.683,2.38,0.63,0.35
,-9.124,-1.153,-3.74,-9.107,-1.223,-3.647,2.73,0.7,0.42
,-9.045,-1.091,-3.623,-9.11,-1.225,-3.769,3.36,1.05,0.63
,-9.081,-1.067,-3.666,-9.024,-1.285,-3.69,2.94,1.05,0.49
34812.0,-8.993,-1.335,-3.618,-9.155,-1.144,-3.857,2.73,2.1,0.7
,-9.021,-1.29,-3.671,-9.086,-1.098,-4.003,3.43,2.38,0.91
,-8.997,-1.237,-3.589,-8.933,-1.237,-4.063,4.2,2.66,1.26
,-9.148,-1.199,-3.587,-8.94,-1.297,-4.178,4.13,3.08,1.26
34887.0,-9.005,-1.235,-4.298,-9.05,-1.007,-4.061,2.73,1.96,1.19
,-8.995,-1.158,-4.283,-9.055,-0.993,-4.008,3.57,1.61,1.47
,-8.971,-1.18,-3.996,-9.081,-1.077,-3.965,3.71,1.47,1.82
,-9.031,-1.077,-4.123,-9.007,-1.144,-3.951,4.2,0.98,1.61
34962.0,-8.99,-1.199,-3.939,-9.028,-1.098,-3.798,3.71,0.56,1.4
,-9.057,-1.151,-3.774,-9.06,-1.11,-3.865,4.27,0.56,1.47
,-9.105,-1.091,-3.888,-9.038,-1.103,-3.845,4.34,0.56,1.47
,-9.079,-1.072,-3.75,-9.057,-1.086,-3.81,3.99,0.35,1.4
35037.0,-9.093,-1.153,-3.778,-9.045,-1.058,-3.845,3.71,0.63,1.19
,-9.055,-1.082,-3.788,-9.021,-1.108,-3.86,3.78,0.7,1.12
,-9.098,-1.024,-3.771,-9.036,-1.115,-3.932,3.57,0.77,1.05
,-9.083,-1.019,-3.824,-9.043,-1.065,-3.939,3.08,0.7,0.77
35112.0,-9.036,-1.091,-3.927,-9.064,-0.955,-3.848,2.24,0.98,0.49
,-9.028,-1.05,-3.857,-9.033,-1.036,-3.886,2.24,0.84,0.42
,-9.1,-1.039,-3.872,-9.024,-1.108,-3.879,2.38,0.84,0.28
,-9.098,-0.981,-3.853,-8.995,-1.175,-3.821,2.31,0.98,0.28
35187.0,-8.971,-1.23,-3.786,-9.072,-1.17,-3.709,1.82,0.98,0.21
,-8.997,-1.235,-3.687,-9.074,-1.199,-3.783,1.96,1.54,0.28
,-9.136,-1.196,-3.745,-9.103,-1.153,-3.886,1.82,1.47,0.35
,-9.088,-1.156,-3.683,-9.069,-1.091,-3.982,1.61,1.47,0.28
35262.0,-9.005,-1.146,-3.963,-9.052,-1.096,-3.963,1.89,1.75,0.63
,-8.993,-1.237,-3.979,-9.04,-1.144,-3.869,2.03,1.68,0.7
,-9.038,-1.153,-3.946,-9.062,-1.156,-3.879,2.73,1.54,0.84
,-9.052,-1.117,-3.982,-9.028,-1.18,-3.891,3.01,1.33,0.91
35337.0,-9.033,-1.096,-3.879,-9.014,-1.053,-3.893,2.73,1.05,0.98
,-9.093,-1.12,-3.932,-9.072,-1.06,-3.905,2.73,0.98,1.05
,-9.072,-1.094,-3.9,-9.074,-1.05,-3.924,2.87,0.77,0.98
,-9.04,-1.098,-3.92,-9.079,-1.089,-3.86,2.94,0.77,1.05
35412.0,-9.036,-1.065,-3.9,-9.088,-1.117,-3.723,2.73,0.7,0.98
,-9.062,-1.062,-3.903,-9.079,-1.072,-3.759,2.8,0.77,0.84
,-9.021,-1.055,-3.865,-9.136,-1.05,-3.857,2.52,0.7,0.84
,-9.052,-1.103,-3.793,-9.031,-1.106,-3.841,2.38,0.77,0.84
35487.0,-9.012,-1.175,-3.786,-9.103,-1.046,-3.747,2.1,1.12,0.84
,-8.99,-1.151,-3.948,-9.1,-1.12,-3.853,2.31,0.98,0.56
,-8.99,-1.187,-3.848,-9.045,-1.062,-3.85,2.38,0.91,0.63
,-9.107,-1.177,-3.778,-9.026,-1.074,-3.872,2.59,1.12,0.84
35562.0,-9.057,-1.132,-3.738,-9.131,-1.106,-3.793,2.94,1.33,0.7
,-9.091,-1.096,-3.967,-9.083,-1.027,-3.833,2.73,1.26,0.56
,-9.012,-1.043,-3.786,-9.136,-1.024,-3.886,2.17,1.19,0.63
,-9.036,-1.163,-3.778,-9.043,-1.067,-3.979,2.1,1.4,0.56
35637.0,-9.0,-1.182,-3.951,-9.129,-1.067,-3.786,1.4,0.84,0.21
,-8.99,-1.165,-3.881,-9.098,-1.031,-3.812,2.1,1.12,0.42
,-9.057,-1.139,-3.91,-9.067,-1.125,-3.824,2.45,0.98,0.49
,-9.062,-1.101,-3.817,-9.06,-1.177,-3.802,2.8,0.98,0.63
35712.0,-9.019,-1.146,-3.798,-9.081,-1.101,-3.805,2.45,1.12,0.56
,-9.079,-1.096,-3.771,-9.05,-1.161,-3.812,2.73,1.26,0.56
,-9.136,-1.127,-3.757,-9.052,-1.216,-3.74,2.66,1.33,0.49
,-9.095,-1.079,-3.798,-9.05,-1.146,-3.774,2.45,1.33,0.42
35787.0,-9.091,-1.084,-3.831,-9.016,-1.161,-3.896,3.15,1.75,0.49
,-9.134,-1.125,-3.81,-9.067,-1.235,-3.886,3.15,1.75,0.49
,-9.076,-1.07,-3.886,-9.069,-1.137,-3.833,2.87,1.61,0.42
,-9.005,-1.101,-3.92,-9.045,-1.144,-3.798,2.66,1.33,0.21
35862.0,-9.021,-1.173,-3.699,-8.978,-1.129,-3.783,3.08,1.54,0.56
,-9.119,-1.101,-3.817,-9.04,-1.223,-3.673,3.29,1.68,0.49
,-9.148,-0.986,-3.781,-9.119,-1.232,-3.869,3.15,1.89,0.7
,-9.069,-1.05,-3.743,-9.036,-1.218,-3.709,2.17,1.75,0.42
35937.0,-9.064,-1.192,-3.85,-9.026,-1.211,-3.927,2.1,2.17,0.49
,-9.055,-1.168,-3.872,-8.976,-1.316,-3.908,2.03,2.1,0.42
,-9.031,-1.137,-3.903,-9.028,-1.307,-3.91,1.96,2.17,0.56
,-9.045,-1.151,-3.977,-9.05,-1.199,-3.922,2.03,2.03,0.63
36012.0,-9.083,-1.125,-3.891,-9.057,-1.161,-3.764,3.5,1.54,1.19
,-9.098,-1.058,-3.781,-9.081,-1.168,-3.86,3.08,1.61,1.33
,-9.069,-1.117,-3.831,-9.043,-1.146,-3.841,2.52,1.47,1.12
,-9.016,-1.113,-3.79,-9.052,-1.165,-3.788,2.17,1.61,1.12
36087.0,-9.014,-1.113,-3.778,-9.105,-1.074,-3.881,1.96,1.82,1.26
,-9.079,-1.23,-3.848,-9.014,-1.127,-3.934,1.68,1.96,1.33
,-9.036,-1.125,-3.695,-9.043,-1.062,-3.872,2.1,1.82,1.47
,-9.131,-1.18,-3.836,-9.009,-1.192,-3.927,2.1,1.89,1.4
36162.0,-9.005,-1.106,-3.874,-9.091,-1.072,-3.845,2.1,1.61,1.89
,-9.04,-1.11,-3.891,-9.057,-1.163,-3.783,2.17,1.4,1.82
,-9.067,-1.003,-3.829,-9.146,-1.089,-3.762,2.24,1.19,1.68
,-9.074,-1.082,-3.819,-9.136,-1.125,-3.604,1.19,1.33,1.68
36237.0,-9.208,-1.034,-3.738,-9.031,-1.194,-4.118,-1.26,0.35,0.91
,-9.17,-1.055,-3.726,-9.091,-1.206,-4.252,-2.59,0.07,1.05
,-9.04,-1.017,-3.879,-9.067,-1.096,-4.377,-3.64,-0.07,1.26
,-8.904,-1.18,-3.941,-8.909,-1.101,-4.527,-4.34,-0.07,1.26
36312.0,-8.859,-1.163,-4.458,-9.021,-0.847,-4.424,-2.38,-1.54,2.59
,-8.923,-1.201,-4.475,-9.06,-0.842,-4.238,-1.54,-2.03,2.73
,-9.005,-1.108,-4.499,-9.103,-0.893,-4.128,-0.42,-2.73,2.66
,-9.06,-0.967,-4.381,-9.083,-0.976,-3.929,-0.14,-3.36,2.66
36387.0,-9.086,-0.955,-3.585,-9.103,-1.263,-2.529,-8.68,-7.77,0.98
,-9.095,-0.945,-3.149,-9.249,-1.225,-2.479,-10.29,-7.7,0.98
,-9.167,-1.039,-2.994,-9.342,-1.089,-2.558,-11.9,-7.35,0.84
,-9.129,-1.156,-2.742,-9.265,-0.809,-2.699,-12.6,-6.16,0.84
36462.0,-9.139,-0.665,-2.706,-9.256,-1.027,-2.642,-11.83,0.77,2.52
,-9.088,-0.747,-2.874,-9.399,-0.895,-3.228,-13.65,2.24,2.38
,-8.914,-1.031,-2.558,-9.105,-1.058,-3.314,-14.14,4.34,3.01
,-9.134,-1.058,-2.649,-8.995,-1.156,-3.211,-12.46,6.02,3.78
36537.0,-9.131,-1.261,-3.08,-8.827,-0.409,-5.525,-2.59,11.13,6.58
,-9.474,-1.017,-3.384,-8.557,-0.641,-5.195,2.38,11.06,6.79
,-9.399,-0.672,-4.176,-8.739,-0.919,-4.992,4.9,9.24,5.74
,-9.119,-0.462,-4.846,-8.847,-0.991,-4.063,4.55,7.0,4.97
36612.0,-9.421,-0.514,-3.575,-8.569,-1.79,-3.525,10.15,6.86,5.95
,-9.476,-0.036,-3.896,-8.847,-1.835,-2.601,8.89,3.92,3.64
,-9.33,-0.189,-4.049,-9.457,-1.022,-2.84,1.33,1.89,2.31
,-8.928,-0.849,-4.075,-9.462,-0.39,-3.812,-6.51,1.68,2.45
36687.0,-9.234,-0.019,-4.25,-9.203,-0.483,-3.218,6.79,2.31,3.36
,-8.71,-0.244,-4.523,-9.34,-0.244,-3.013,1.19,2.66,3.78
,-8.583,-0.711,-4.051,-9.241,-0.189,-2.733,-0.07,5.53,4.55
,-8.751,-0.747,-3.364,-9.036,-0.345,-2.769,3.85,8.47,4.34
36762.0,-9.081,-0.62,-2.831,-8.746,-1.098,-4.403,1.75,11.62,1.68
,-9.282,-0.986,-3.257,-8.658,-0.948,-4.429,0.56,11.2,1.4
,-9.306,-1.249,-3.594,-8.868,-0.852,-4.728,0.56,10.78,1.75
,-9.229,-1.309,-4.104,-8.887,-0.926,-4.898,0.63,9.52,1.82
36837.0,-8.918,-0.948,-5.044,-9.244,-0.617,-4.348,4.2,7.7,1.05
,-8.67,-0.928,-4.934,-9.1,-0.637,-4.475,3.64,8.05,0.56
,-8.713,-0.708,-4.597,-8.916,-0.804,-4.288,4.62,8.82,0.7
,-8.94,-0.593,-4.592,-8.507,-1.036,-4.259,5.18,8.26,0.56
36912.0,-8.799,-1.244,-3.896,-9.196,-0.725,-4.003,2.1,8.75,2.31
,-8.94,-1.129,-3.644,-8.825,-0.78,-4.07,4.76,9.8,2.73
,-9.241,-0.859,-3.513,-8.509,-1.184,-4.156,7.7,9.94,3.15
,-9.445,-0.651,-3.874,-8.72,-1.34,-3.967,8.54,7.84,3.22
36987.0,-8.978,-1.175,-3.951,-8.681,0.242,-4.654,12.04,7.0,3.78
,-9.031,-0.907,-4.255,-9.002,0.354,-4.561,14.7,6.51,2.66
,-8.938,-0.517,-4.422,-9.086,0.366,-4.664,15.82,6.58,1.96
,-8.796,-0.01,-4.671,-9.098,0.081,-4.566,15.82,7.07,1.82
37062.0,-9.081,-0.179,-4.41,-8.851,-1.122,-4.29,4.41,5.18,-3.36
,-8.933,-0.574,-4.082,-8.746,-1.254,-4.336,2.31,5.95,-3.85
,-8.942,-0.732,-4.022,-8.77,-1.062,-4.355,2.24,6.65,-4.48
,-8.902,-0.857,-4.212,-8.763,-0.677,-4.448,3.78,7.07,-4.62
37137.0,-8.957,-0.347,-4.396,-8.737,-0.531,-4.441,17.99,8.54,-4.13
,-9.222,-0.06,-4.235,-8.83,-0.79,-4.456,18.13,6.93,-5.6
,-9.122,0.127,-4.334,-8.868,-1.297,-4.346,16.8,5.46,-6.93
,-8.935,-0.089,-4.3,-8.77,-1.63,-4.415,13.16,5.6,-7.91
37212.0,-8.856,-1.469,-4.513,-8.684,-1.309,-4.709,12.67,7.63,-7.56
,-8.875,-1.323,-4.666,-9.038,-1.426,-4.551,16.1,6.93,-7.21
,-8.954,-1.163,-4.695,-8.471,-1.295,-5.116,17.57,6.16,-6.72
,-8.949,-1.163,-4.669,-8.701,-1.46,-4.745,17.08,4.76,-6.16
37287.0,-8.684,-1.704,-4.637,-8.696,-1.95,-4.795,15.75,4.27,-4.06
,-8.737,-2.003,-4.357,-8.701,-1.548,-5.095,15.89,5.25,-3.08
,-8.808,-1.95,-4.369,-8.502,-1.335,-5.346,16.87,4.76,-1.96
,-8.763,-1.816,-4.53,-8.567,-1.682,-4.917,18.9,4.13,-0.98
37362.0,-8.653,-2.156,-4.549,-8.839,-2.319,-4.322,17.71,2.38,3.5
,-8.636,-2.3,-4.293,-8.48,-1.811,-4.542,17.92,3.15,3.78
,-8.847,-2.525,-4.329,-8.674,-1.405,-4.685,17.92,4.13,6.09
,-8.753,-2.491,-4.235,-9.139,-0.806,-4.616,19.6,4.48,7.98
37437.0,-9.184,-0.27,-5.08,-8.378,-0.861,-4.683,25.06,1.89,5.39
,-9.007,-0.172,-5.147,-8.521,-0.433,-4.709,22.4,0.84,4.2
,-8.923,-0.383,-4.815,-9.072,-0.184,-4.697,17.99,1.12,5.53
,-8.6,-0.955,-4.544,-9.143,-0.053,-4.377,16.73,0.35,5.39
37512.0,-8.792,-0.297,-4.288,-8.832,-1.723,-4.128,13.93,-2.03,-0.77
,-8.904,-0.639,-4.305,-8.686,-1.922,-4.209,11.62,-1.05,-1.47
,-9.005,-0.739,-4.293,-8.787,-1.67,-4.659,10.01,-0.49,-1.82
,-8.653,-1.218,-4.116,-8.782,-1.048,-4.805,8.33,0.98,-1.82
37587.0,-8.82,-0.938,-4.953,-8.859,-1.46,-4.587,13.23,1.26,-1.33
,-8.911,-1.17,-4.681,-8.593,-1.984,-4.566,10.92,1.26,-1.26
,-8.818,-1.369,-4.645,-8.607,-2.491,-4.415,9.94,0.56,-1.12
,-8.873,-1.474,-4.585,-8.617,-2.804,-4.235,8.54,-0.77,-1.19
37662.0,-8.641,-2.79,-4.212,-8.756,-1.543,-4.176,9.31,1.05,3.85
,-8.885,-2.34,-4.29,-8.914,-1.785,-3.994,11.76,0.21,4.62
,-8.782,-1.979,-4.228,-8.813,-1.981,-4.135,12.32,-0.91,5.11
,-8.698,-1.663,-4.305,-8.741,-1.95,-3.886,11.69,-1.19,5.74
37737.0,-8.729,-1.448,-4.104,-9.016,-0.603,-4.233,7.98,0.28,7.49
,-8.763,-1.457,-4.015,-8.973,-0.519,-4.477,7.91,0.98,7.84
,-8.861,-1.342,-4.015,-8.89,-0.605,-4.549,8.33,1.26,7.35
,-8.93,-0.773,-4.166,-8.811,-1.039,-4.556,9.31,1.26,6.58
37812.0,-8.717,-1.397,-4.379,-8.705,-1.589,-4.544,1.54,1.75,4.41
,-8.801,-1.555,-4.484,-8.811,-1.68,-4.401,1.89,2.31,4.41
,-8.875,-1.531,-4.523,-8.808,-1.725,-4.434,1.75,2.52,4.06
,-8.756,-1.582,-4.561,-9.009,-1.498,-4.53,1.54,2.73,3.22
37887.0,-8.897,-1.228,-4.755,-8.837,-1.158,-4.422,0.84,3.29,2.59
,-8.799,-1.017,-4.877,-8.808,-0.967,-4.448,0.0,3.08,1.89
,-8.856,-0.964,-4.74,-8.88,-0.596,-4.733,-1.12,3.15,0.98
,-8.844,-1.091,-4.59,-8.993,-0.529,-4.853,-2.73,2.52,0.21
37962.0,-8.966,-0.629,-4.838,-8.928,-1.938,-4.214,-9.52,1.33,-1.82
,-8.746,-0.988,-4.817,-8.727,-1.809,-4.307,-11.48,2.17,-1.33
