Timestamp,AccX,AccY,AccZ,GyroX,GyroY,GyroZ,MagnX,MagnY,MagnZ
0.0,-9.471,-0.261,-2.962,-9.45,-0.256,-3.084,2.66,1.4,0.63
,-9.447,-0.196,-3.01,-9.428,-0.275,-3.075,2.38,1.47,0.77
,-9.414,-0.218,-3.022,-9.476,-0.246,-3.013,2.1,1.47,0.7
,-9.433,-0.254,-3.07,-9.471,-0.282,-3.013,2.1,1.33,0.7
76.0,-9.459,-0.213,-3.003,-9.416,-0.206,-3.077,2.8,1.12,0.77
,-9.45,-0.23,-2.991,-9.459,-0.218,-3.051,2.66,1.19,0.77
,-9.488,-0.239,-3.065,-9.426,-0.239,-3.041,2.45,1.19,0.77
,-9.43,-0.213,-3.104,-9.493,-0.261,-3.034,2.38,1.12,0.63
152.0,-9.418,-0.28,-3.027,-9.45,-0.223,-2.97,2.45,1.12,0.77
,-9.409,-0.268,-2.984,-9.44,-0.285,-2.986,2.8,1.12,0.7
,-9.452,-0.249,-2.984,-9.466,-0.321,-2.982,3.01,1.05,0.77
,-9.426,-0.201,-2.962,-9.442,-0.249,-2.948,2.73,0.98,0.77
227.0,-9.478,-0.189,-2.946,-9.454,-0.254,-2.934,2.87,1.33,0.77
,-9.438,-0.256,-2.982,-9.438,-0.297,-2.917,2.52,1.19,0.7
,-9.428,-0.28,-2.95,-9.457,-0.239,-2.919,2.45,1.33,0.7
,-9.438,-0.263,-2.972,-9.438,-0.22,-2.979,2.66,1.4,0.77
302.0,-9.49,-0.239,-3.027,-9.435,-0.244,-3.051,2.31,1.75,0.77
,-9.464,-0.237,-3.075,-9.43,-0.29,-3.037,2.24,1.47,0.63
,-9.474,-0.22,-3.075,-9.462,-0.261,-2.979,2.31,1.68,0.77
,-9.44,-0.189,-3.077,-9.478,-0.249,-2.97,2.24,1.4,0.7
378.0,-9.476,-0.23,-2.962,-9.447,-0.227,-3.005,2.45,1.54,0.77
,-9.416,-0.244,-2.936,-9.43,-0.263,-2.996,2.31,1.82,0.77
,-9.454,-0.275,-2.948,-9.481,-0.278,-3.046,2.17,1.68,0.84
,-9.442,-0.27,-2.998,-9.454,-0.278,-2.986,2.24,1.61,0.77
454.0,-9.433,-0.239,-3.025,-9.474,-0.22,-3.027,2.66,1.54,0.84
,-9.452,-0.206,-2.953,-9.445,-0.201,-2.994,2.73,1.68,0.84
,-9.423,-0.249,-2.989,-9.438,-0.215,-3.032,2.73,1.68,0.77
,-9.462,-0.242,-2.96,-9.447,-0.287,-3.032,2.59,1.82,0.77
530.0,-9.459,-0.232,-3.034,-9.423,-0.256,-2.982,2.73,1.68,0.7
,-9.457,-0.242,-3.027,-9.447,-0.239,-3.032,2.73,1.68,0.63
,-9.471,-0.187,-3.037,-9.423,-0.258,-3.001,2.66,1.54,0.7
,-9.471,-0.263,-3.039,-9.442,-0.223,-3.02,2.45,1.54,0.7
605.0,-9.462,-0.218,-2.998,-9.481,-0.239,-3.063,2.59,1.54,0.7
,-9.433,-0.273,-3.017,-9.438,-0.268,-3.058,2.59,1.61,0.77
,-9.411,-0.227,-2.998,-9.426,-0.251,-3.063,2.52,1.61,0.77
,-9.45,-0.23,-3.013,-9.459,-0.254,-2.986,2.45,1.4,0.77
681.0,-9.416,-0.215,-2.965,-9.414,-0.268,-3.02,2.94,1.4,0.84
,-9.454,-0.232,-2.972,-9.44,-0.263,-3.056,2.73,1.26,0.77
,-9.483,-0.201,-2.984,-9.474,-0.261,-3.017,2.24,1.05,0.56
,-9.454,-0.235,-2.996,-9.485,-0.249,-3.003,2.1,1.33,0.7
757.0,-9.45,-0.232,-3.051,-9.459,-0.237,-2.989,2.38,1.19,0.77
,-9.466,-0.282,-3.02,-9.445,-0.249,-2.946,2.17,1.19,0.84
,-9.43,-0.29,-3.041,-9.457,-0.249,-3.137,2.38,1.19,0.84
,-9.43,-0.22,-3.013,-9.459,-0.22,-2.967,2.66,1.12,0.84
833.0,-9.464,-0.325,-2.946,-9.457,-0.309,-3.108,1.75,1.12,1.05
,-9.555,-0.333,-3.096,-9.399,-0.328,-3.025,2.24,1.12,1.05
,-9.478,-0.196,-3.163,-9.428,-0.325,-3.039,2.8,0.98,0.98
,-9.452,-0.256,-3.096,-9.517,-0.246,-3.061,2.31,0.84,0.98
909.0,-9.471,-0.235,-3.013,-9.421,-0.23,-3.037,2.59,0.7,1.26
,-9.474,-0.242,-3.029,-9.466,-0.249,-3.005,2.52,0.7,1.4
,-9.435,-0.244,-3.041,-9.478,-0.199,-2.934,2.38,0.42,1.33
,-9.426,-0.237,-3.065,-9.457,-0.175,-2.848,2.59,0.35,1.26
984.0,-9.452,-0.17,-2.809,-9.421,-0.313,-2.903,2.73,0.7,1.33
,-9.457,-0.153,-2.826,-9.43,-0.282,-2.905,2.31,0.91,1.19
,-9.445,-0.165,-2.85,-9.454,-0.215,-2.922,1.75,0.77,1.05
,-9.462,-0.225,-2.895,-9.457,-0.227,-2.948,1.4,1.19,1.05
1060.0,-9.454,-0.199,-3.001,-9.502,-0.177,-2.943,1.26,1.47,1.05
,-9.416,-0.194,-2.994,-9.435,-0.179,-2.986,1.4,1.4,0.98
,-9.428,-0.189,-2.919,-9.471,-0.239,-2.891,1.47,1.54,0.98
,-9.474,-0.153,-2.95,-9.466,-0.318,-2.852,1.47,1.68,1.05
1135.0,-9.462,-0.246,-2.943,-9.466,-0.196,-3.032,1.47,1.82,1.05
,-9.454,-0.179,-2.96,-9.447,-0.218,-2.994,1.4,1.75,1.05
,-9.471,-0.232,-2.986,-9.454,-0.244,-3.005,1.12,1.82,1.12
,-9.438,-0.232,-3.015,-9.497,-0.232,-3.008,1.26,1.68,1.05
1211.0,-9.454,-0.175,-3.029,-9.435,-0.187,-3.001,2.24,1.47,1.12
,-9.454,-0.191,-3.039,-9.404,-0.203,-2.994,2.17,1.4,0.98
,-9.471,-0.175,-3.025,-9.462,-0.187,-2.984,2.1,1.47,0.98
,-9.474,-0.187,-2.96,-9.497,-0.196,-2.986,2.24,1.33,0.98
1287.0,-9.299,-0.182,-2.673,-9.426,-0.316,-3.044,2.17,1.75,0.84
,-9.512,-0.182,-3.041,-9.457,-0.12,-3.099,2.1,1.26,0.7
,-9.466,-0.208,-2.994,-9.39,-0.122,-3.044,1.19,1.19,0.77
,-9.442,-0.251,-3.039,-9.474,-0.211,-3.13,0.77,1.26,0.84
1363.0,-9.464,-0.223,-2.965,-9.5,-0.239,-2.998,1.4,0.84,0.84
,-9.45,-0.304,-2.716,-9.478,-0.146,-3.053,1.89,1.19,0.98
,-9.433,-0.23,-2.876,-9.409,-0.194,-2.831,2.1,0.91,0.91
,-9.387,-0.22,-2.795,-9.5,-0.275,-2.922,1.4,0.98,0.7
1438.0,-9.509,-0.182,-3.171,-9.497,-0.01,-3.123,-0.56,0.42,0.49
,-9.402,-0.179,-2.855,-9.361,-0.093,-2.814,0.77,0.91,0.63
,-9.514,-0.199,-3.259,-9.543,-0.282,-3.082,0.49,0.35,0.56
,-9.418,-0.11,-2.905,-9.246,-0.371,-2.773,1.61,0.63,0.63
1514.0,-9.507,-0.459,-3.123,-9.474,0.022,-2.905,-0.21,-0.63,0.56
,-9.325,-0.285,-2.946,-9.418,-0.084,-2.809,-0.07,-0.91,0.49
,-9.457,-0.194,-3.051,-9.459,-0.12,-2.783,0.07,-1.26,0.35
,-9.442,-0.081,-3.041,-9.481,-0.184,-2.833,-0.56,-1.33,0.35
1590.0,-9.44,-0.239,-2.833,-9.474,-0.359,-2.668,-3.71,-1.26,0.14
,-9.454,-0.306,-2.785,-9.447,-0.361,-2.587,-3.43,-1.05,0.42
,-9.471,-0.395,-2.819,-9.445,-0.191,-2.548,-2.66,-1.19,0.56
,-9.442,-0.409,-2.663,-9.404,-0.328,-2.51,-1.19,-0.77,0.91
1666.0,-9.368,-0.505,-2.386,-9.564,-0.471,-1.663,-1.61,1.75,2.31
,-9.313,-0.706,-2.149,-9.598,-0.16,-1.962,-0.14,3.08,3.08
,-9.299,-0.864,-1.677,-9.45,-0.16,-2.3,2.94,4.97,3.99
,-9.493,-0.756,-1.534,-9.222,-0.479,-2.233,7.56,6.86,4.83
1741.0,-9.15,-0.67,-2.118,-9.359,0.225,-2.718,6.72,13.51,8.19
,-9.404,-0.534,-2.295,-9.239,0.06,-2.46,10.22,14.42,8.47
,-9.366,-0.148,-2.312,-9.256,-0.019,-2.158,11.76,14.84,8.19
,-9.438,0.115,-2.438,-9.462,0.148,-2.491,11.62,15.4,8.12
1817.0,-9.6,0.431,-3.221,-9.146,-0.199,-2.845,3.43,17.43,7.14
,-9.306,0.603,-3.549,-9.457,0.306,-3.027,-2.52,16.24,6.09
,-9.05,0.23,-3.451,-9.459,0.816,-3.613,-6.51,16.8,5.95
,-9.072,-0.199,-3.092,-9.304,0.814,-3.788,-5.25,18.13,6.16
1893.0,-9.074,0.235,-3.53,-9.44,0.306,-4.219,-12.67,16.24,3.64
,-9.112,-0.493,-3.427,-9.414,0.371,-4.168,-11.9,16.24,4.06
,-9.435,-0.498,-3.489,-9.234,-0.187,-3.955,-6.3,15.05,3.5
,-9.584,-0.048,-4.018,-9.256,-0.067,-3.716,-2.59,12.39,2.59
1968.0,-9.459,0.179,-3.582,-9.21,0.268,-4.223,4.2,11.13,4.48
,-9.428,0.572,-3.714,-9.198,-0.034,-3.944,5.6,10.22,4.06
,-9.306,0.56,-3.999,-9.093,0.067,-3.039,2.94,9.03,3.71
,-9.213,0.467,-4.101,-9.536,0.608,-2.821,0.63,8.54,3.36
2044.0,-9.387,1.177,-3.13,-9.15,-0.809,-2.974,3.5,3.57,0.98
,-9.397,1.173,-3.257,-9.201,-0.718,-3.293,-4.41,3.78,1.05
,-9.349,0.603,-3.477,-9.143,-0.402,-3.396,-13.16,4.69,1.75
,-8.961,-0.273,-3.139,-9.076,-0.136,-3.642,-15.96,7.14,2.17
2120.0,-9.031,0.077,-3.558,-9.225,0.278,-3.106,5.6,11.48,3.85
,-9.036,0.486,-3.838,-9.287,0.031,-3.537,6.72,11.2,3.71
,-9.1,0.601,-3.616,-9.208,-0.424,-3.609,6.16,11.48,3.36
,-9.04,0.56,-3.128,-9.256,-0.995,-3.664,4.41,12.18,2.94
2196.0,-8.985,-1.192,-3.642,-8.88,1.452,-4.338,3.43,15.26,8.68
,-9.112,-1.079,-3.676,-8.914,1.859,-4.168,9.66,15.68,9.45
,-9.086,-0.364,-3.896,-9.069,1.864,-4.341,16.31,14.84,9.87
,-9.064,0.534,-3.984,-9.177,1.553,-4.137,18.83,13.86,10.01
2271.0,-9.215,1.235,-4.453,-9.124,-0.522,-3.472,-7.42,13.02,4.41
,-8.93,0.615,-4.482,-9.131,-0.443,-3.403,-9.31,13.16,3.71
,-8.976,-0.017,-4.161,-9.301,0.048,-3.637,-6.93,13.65,3.08
,-9.005,-0.426,-3.594,-9.127,0.428,-3.936,-2.1,14.14,2.8
2347.0,-9.052,0.835,-4.113,-8.949,0.723,-4.434,6.16,12.11,4.9
,-8.844,1.196,-4.386,-8.827,0.055,-4.448,3.08,12.04,4.2
,-8.878,1.29,-4.207,-8.827,-0.62,-4.183,-0.77,12.6,3.15
,-8.964,1.161,-4.305,-8.993,-0.718,-3.927,-4.62,12.74,2.66
2423.0,-9.031,-0.246,-4.068,-8.784,0.397,-4.456,5.46,13.93,3.85
,-9.15,0.514,-4.133,-8.631,0.256,-4.719,10.57,13.51,3.43
,-9.179,0.854,-4.389,-8.868,0.278,-4.7,10.22,12.25,3.71
,-9.045,0.78,-4.551,-8.746,0.455,-4.815,5.88,11.55,4.34
2499.0,-9.036,0.316,-4.185,-8.849,1.012,-4.424,-3.01,11.76,4.9
,-8.614,0.144,-4.319,-8.866,1.548,-4.798,-4.69,12.25,5.6
,-8.756,0.136,-4.168,-8.923,1.646,-4.965,-5.25,12.53,6.51
,-8.741,0.33,-4.379,-8.693,1.201,-4.884,-3.78,12.6,6.65
2574.0,-8.897,0.648,-4.647,-8.942,0.325,-4.654,-3.85,11.27,1.89
,-9.064,0.318,-4.602,-8.672,0.132,-4.731,-0.84,12.11,0.91
,-9.105,0.278,-4.523,-8.842,-0.273,-4.788,3.71,11.83,-0.07
,-9.308,0.294,-4.496,-8.902,-0.747,-4.602,8.26,10.43,-1.26
2650.0,-8.643,-0.701,-4.776,-8.662,-0.316,-5.269,9.1,8.54,2.66
,-9.021,-0.471,-4.829,-8.658,-0.376,-5.312,10.22,7.98,2.38
,-9.196,-0.407,-4.927,-8.425,-0.371,-5.489,10.36,7.14,2.87
,-8.796,-0.548,-4.867,-8.76,-0.263,-5.303,8.47,6.93,4.69
2725.0,-8.83,-0.476,-4.848,-8.811,0.838,-5.018,10.36,7.28,10.01
,-8.859,-0.134,-4.752,-8.775,0.713,-4.838,12.11,6.44,10.92
,-8.973,0.096,-4.676,-8.459,0.754,-4.649,13.72,5.04,11.48
,-8.966,0.373,-4.848,-8.308,1.031,-4.597,14.56,3.01,11.76
2801.0,-8.519,1.481,-4.558,-8.452,1.316,-4.712,10.22,3.78,8.61
,-8.727,1.943,-4.958,-8.753,1.022,-4.46,9.03,3.71,7.07
,-8.844,2.063,-5.027,-8.909,0.457,-4.058,5.88,3.01,6.16
,-8.727,1.778,-5.109,-8.796,0.625,-4.453,4.76,2.94,5.74
2877.0,-8.71,0.445,-4.654,-8.813,0.359,-4.681,4.9,2.8,2.59
,-8.667,0.258,-4.661,-8.677,0.84,-5.047,5.04,3.01,2.94
,-8.617,-0.031,-4.719,-8.466,1.225,-5.197,5.74,3.15,3.57
,-8.679,0.038,-4.661,-8.528,1.586,-5.238,8.33,3.57,3.92
2953.0,-8.622,1.412,-5.183,-8.418,0.725,-5.276,4.97,3.85,3.29
,-8.756,1.07,-5.001,-8.519,1.113,-5.355,4.2,3.85,2.52
,-8.849,0.828,-5.08,-8.859,1.424,-5.217,4.2,3.85,2.17
,-8.614,0.689,-5.097,-8.775,1.18,-5.152,5.11,3.78,1.96
3029.0,-8.674,0.739,-5.281,-9.05,0.878,-5.178,-0.35,2.03,0.77
,-8.691,0.163,-5.111,-8.851,1.01,-5.166,-2.38,2.1,1.05
,-8.67,0.139,-5.114,-8.65,0.828,-4.958,-0.63,1.61,1.05
,-8.772,0.553,-5.348,-8.571,0.797,-4.86,2.87,1.19,0.28
3104.0,-8.76,0.964,-4.728,-8.693,0.864,-5.138,0.77,-2.1,-1.47
,-8.765,1.17,-4.771,-8.701,0.565,-5.233,0.7,-2.87,-2.45
,-8.782,1.173,-4.831,-8.799,0.215,-5.044,-0.14,-3.43,-3.29
,-8.746,1.192,-4.939,-8.918,-0.115,-5.044,-2.73,-3.92,-3.71
3180.0,-8.854,-0.4,-5.157,-8.926,-0.383,-5.322,-6.93,-6.51,-2.59
,-8.923,-0.723,-5.047,-8.832,0.002,-5.245,-5.32,-7.49,-1.19
,-8.782,-0.792,-5.049,-8.703,0.474,-5.341,-3.71,-8.96,0.56
,-8.701,-0.625,-5.307,-8.748,0.787,-5.396,-0.91,-9.52,1.54
3256.0,-8.782,0.962,-5.413,-9.127,0.983,-4.812,2.31,-11.41,3.15
,-8.887,1.065,-5.126,-8.99,1.027,-5.011,1.96,-11.27,1.68
,-8.945,1.192,-5.114,-8.744,0.916,-5.19,1.68,-12.11,-0.21
,-8.995,1.237,-5.126,-8.985,0.682,-4.994,2.17,-13.09,-1.96
3332.0,-9.031,0.749,-5.123,-8.839,0.168,-4.736,4.27,-22.05,-7.0
,-8.93,0.677,-5.054,-8.89,0.098,-4.53,4.06,-23.52,-7.0
,-8.741,0.426,-5.102,-8.804,0.424,-4.8,2.59,-23.8,-6.44
,-8.782,0.278,-4.886,-8.918,-0.223,-3.948,1.47,-23.8,-5.81
3407.0,-8.878,-0.057,-3.819,-8.904,0.112,-3.776,4.48,-22.05,-3.92
,-8.938,0.263,-4.2,-9.191,0.653,-3.644,7.07,-22.12,-2.31
,-8.947,0.318,-4.008,-9.076,0.668,-3.707,7.35,-22.61,-1.26
,-8.916,0.591,-4.135,-8.947,0.914,-3.57,8.19,-23.17,-1.05
3483.0,-9.019,0.948,-3.484,-9.139,0.361,-3.104,6.09,-22.96,-1.61
,-8.933,0.957,-3.496,-9.127,0.512,-2.974,8.47,-22.12,-2.17
,-8.959,0.962,-3.518,-9.141,0.584,-2.915,6.3,-21.14,-1.96
,-8.971,0.565,-3.178,-9.366,0.79,-2.927,3.5,-20.3,-1.4
3558.0,-9.268,0.845,-2.958,-9.119,0.785,-3.056,6.02,-22.19,-3.22
,-8.863,0.62,-2.788,-9.277,0.445,-2.953,2.38,-21.63,-3.43
,-9.196,1.036,-2.867,-9.464,0.292,-3.017,4.2,-21.0,-3.99
,-9.282,1.24,-3.192,-9.217,0.323,-3.238,2.31,-21.63,-5.32
3634.0,-9.222,0.091,-2.704,-9.562,-0.057,-2.412,-1.75,-20.16,-7.07
,-9.184,-0.304,-2.146,-9.495,0.074,-2.723,-2.66,-18.9,-7.0
,-9.244,-0.187,-2.087,-9.249,-0.077,-2.534,-1.19,-17.99,-6.51
,-9.478,0.062,-2.3,-9.325,-0.366,-2.34,0.84,-17.57,-5.81
3710.0,-9.411,-0.105,-2.632,-9.481,0.28,-2.986,-0.63,-16.17,-3.08
,-9.385,0.057,-2.659,-9.502,0.227,-3.063,0.7,-16.38,-3.15
,-9.445,0.16,-2.893,-9.474,0.002,-2.603,-1.26,-16.73,-3.15
,-9.421,0.323,-2.836,-9.536,0.11,-2.603,-3.29,-16.66,-3.36
3786.0,-9.598,0.371,-3.101,-9.249,-0.165,-2.797,1.54,-16.8,-2.8
,-9.569,0.297,-3.037,-9.483,-0.474,-1.979,-0.28,-17.29,-3.08
,-9.548,0.165,-3.168,-9.627,-0.242,-2.623,-0.91,-17.64,-2.87
,-9.445,-0.072,-3.084,-9.569,0.261,-2.718,-2.87,-17.71,-2.73
3861.0,-9.347,0.273,-1.742,-9.521,1.223,-1.828,12.6,-15.68,-0.49
,-9.529,0.218,-1.732,-9.397,0.852,-1.754,16.17,-14.84,-0.14
,-9.543,0.637,-1.273,-9.399,0.266,-1.318,18.06,-14.21,-1.26
,-9.737,1.144,-1.764,-9.73,0.11,-1.577,17.01,-13.93,-2.03
3937.0,-9.694,0.785,-1.902,-9.593,-0.062,-1.216,11.83,-10.08,-4.48
,-9.605,1.098,-1.926,-9.832,0.132,-1.771,7.84,-9.66,-5.25
,-9.433,0.699,-1.613,-9.639,0.349,-1.716,3.08,-8.26,-5.39
,-9.483,0.079,-1.594,-9.615,0.182,-2.106,1.68,-6.86,-5.39
4013.0,-9.574,-0.165,-2.012,-9.689,-0.321,-2.024,-4.83,-3.99,-5.53
,-9.706,-0.483,-2.228,-9.753,-0.196,-1.977,-3.43,-3.78,-5.18
,-9.524,-0.577,-2.125,-9.672,-0.194,-1.749,-1.12,-3.29,-4.62
,-9.605,-0.543,-1.984,-9.686,-0.33,-1.718,2.38,-2.8,-3.85
4089.0,-9.713,-0.17,-1.876,-9.598,0.144,-1.833,8.82,-1.68,-1.68
,-9.689,-0.112,-1.833,-9.6,0.17,-1.831,9.1,-1.4,-1.75
,-9.667,0.005,-1.876,-9.617,0.132,-1.79,9.38,-1.19,-1.54
,-9.624,0.16,-2.012,-9.636,0.01,-1.622,7.56,-1.33,-1.54
4165.0,-9.665,-0.031,-1.553,-9.753,-0.112,-1.517,1.12,1.19,-1.26
,-9.684,-0.215,-1.491,-9.715,0.026,-1.606,0.98,2.03,-1.05
,-9.641,-0.246,-1.383,-9.651,0.101,-1.764,1.33,3.08,-0.7
,-9.627,-0.244,-1.275,-9.564,-0.026,-1.85,2.31,4.2,-0.21
4240.0,-9.675,-0.081,-2.111,-9.682,-0.146,-2.379,-2.73,6.37,0.14
,-9.727,-0.014,-2.319,-9.785,0.086,-2.668,-3.15,6.23,0.14
,-9.641,-0.117,-2.426,-9.67,0.168,-2.706,-3.64,5.81,0.28
,-9.572,-0.187,-2.34,-9.636,0.002,-2.831,-2.24,5.88,0.49
4316.0,-9.691,-0.191,-2.982,-9.615,-0.333,-2.302,-1.26,2.24,0.84
,-9.665,-0.285,-2.864,-9.763,-0.206,-2.3,0.07,1.54,1.05
,-9.615,-0.182,-2.838,-9.768,-0.005,-2.204,2.03,0.63,1.26
,-9.605,-0.22,-2.656,-9.706,0.108,-2.216,2.87,0.14,1.47
4391.0,-9.639,0.077,-2.24,-9.742,0.029,-1.907,3.78,-1.4,2.17
,-9.557,-0.103,-2.108,-9.698,0.249,-1.773,3.43,-1.26,2.38
,-9.603,-0.254,-1.974,-9.746,0.397,-1.957,4.9,-1.05,2.59
,-9.715,-0.218,-1.967,-9.684,0.299,-2.048,6.79,-0.91,2.73
4467.0,-9.593,0.165,-2.053,-9.722,0.165,-2.077,1.33,-0.28,2.03
,-9.631,0.022,-2.01,-9.67,0.132,-2.07,1.89,-0.07,1.96
,-9.675,0.019,-2.051,-9.605,0.017,-2.101,3.29,-0.07,1.82
,-9.677,0.067,-1.936,-9.636,-0.026,-2.139,4.55,0.07,1.82
4543.0,-9.627,-0.223,-1.993,-9.608,0.261,-0.964,3.78,0.21,1.96
,-9.686,-0.141,-1.809,-9.603,0.371,-0.684,4.69,0.63,2.17
,-9.686,0.067,-1.61,-9.696,0.491,-0.644,5.18,1.05,2.03
,-9.655,0.129,-1.304,-9.701,0.498,-0.68,4.27,1.89,1.96
4619.0,-9.619,0.321,-0.797,-9.574,-0.464,-0.562,-11.62,9.1,1.96
,-9.526,-0.196,-0.957,-9.734,0.227,-0.974,-14.21,10.92,2.45
,-9.411,-0.797,-0.835,-9.474,0.246,-0.196,-14.7,12.81,3.15
,-9.256,-1.019,-0.395,-9.476,0.337,-0.648,-9.45,15.19,3.85
4694.0,-9.306,-0.23,-0.804,-9.397,0.036,-2.154,-17.71,22.54,5.18
,-9.088,-0.873,0.287,-8.863,-0.187,-2.886,-14.49,26.46,6.72
,-9.998,-0.639,-0.285,-8.748,-0.878,-2.458,-6.65,27.09,7.98
,-9.823,-0.115,-1.589,-8.921,-0.854,-2.077,-8.4,23.17,7.77
4770.0,-9.347,0.101,-2.075,-8.988,1.429,-1.685,12.81,35.42,10.22
,-9.17,1.259,-2.395,-9.44,0.995,-1.354,16.8,33.6,7.35
,-9.06,1.984,-2.242,-9.684,0.749,-2.24,12.6,34.51,5.32
,-9.009,1.898,-2.419,-9.689,0.823,-2.764,3.71,37.31,4.97
4845.0,-9.402,0.727,-3.893,-9.165,1.082,-4.508,-11.13,37.17,4.62
,-8.993,0.83,-3.908,-9.438,1.113,-5.236,-9.1,37.59,4.9
,-8.952,0.804,-4.458,-9.387,0.828,-5.432,-3.71,35.42,3.71
,-8.576,1.106,-4.31,-9.158,0.261,-5.391,1.54,35.49,1.89
4921.0,-9.028,-0.232,-4.575,-9.064,0.203,-4.53,-0.07,31.5,-1.05
,-9.184,-0.778,-4.24,-9.083,0.237,-4.604,3.99,30.03,-1.75
,-9.363,-0.443,-4.252,-8.973,0.158,-4.178,9.45,28.21,-1.96
,-9.359,-0.057,-5.071,-9.423,0.285,-4.432,10.85,25.55,-0.98
4997.0,-9.347,0.517,-4.736,-9.093,-0.443,-3.912,0.91,20.16,0.63
,-9.055,0.486,-4.829,-9.555,-0.194,-4.317,-2.59,19.53,2.03
,-8.591,0.33,-4.628,-9.447,0.084,-4.657,-4.34,20.02,3.01
,-8.818,-0.261,-3.9,-9.088,0.218,-4.755,-3.71,21.07,3.57
5073.0,-8.576,0.022,-4.48,-9.258,0.692,-4.357,9.45,16.94,4.69
,-8.624,-0.074,-3.953,-9.21,0.718,-4.46,11.41,18.13,4.34
,-9.038,-0.091,-3.632,-8.988,0.457,-4.415,12.46,18.06,4.41
,-9.423,0.266,-4.087,-8.792,-0.136,-4.008,11.69,16.31,4.69
5149.0,-8.672,-0.668,-3.829,-8.93,1.364,-4.209,-3.15,17.29,6.86
,-8.938,-0.531,-3.867,-8.825,1.479,-4.334,0.42,17.29,7.91
,-9.1,0.077,-4.044,-8.849,1.651,-4.446,6.86,16.8,7.7
,-8.878,0.89,-4.159,-8.918,1.357,-4.692,11.55,16.73,5.88
5224.0,-8.818,1.015,-4.726,-8.923,0.821,-5.142,-1.75,17.15,3.01
,-8.969,0.785,-4.606,-8.878,0.838,-5.334,-1.26,16.59,2.24
,-8.887,0.596,-4.728,-8.713,0.799,-5.106,0.91,15.61,1.33
,-9.007,0.799,-4.681,-8.751,0.89,-5.027,2.73,14.42,0.42
5300.0,-8.717,0.89,-5.188,-8.423,0.675,-5.418,-0.42,11.76,-0.91
,-8.885,0.574,-4.977,-8.638,0.223,-5.109,-0.98,11.2,-1.47
,-9.103,0.433,-4.944,-8.77,0.024,-5.138,-1.82,10.71,-1.82
,-8.744,0.55,-5.142,-9.093,0.014,-5.221,-1.26,9.8,-1.75
5376.0,-8.966,-0.115,-5.231,-8.737,-0.653,-5.386,-1.26,7.0,-1.89
,-8.748,-0.268,-5.274,-8.794,-0.689,-5.339,0.28,6.16,-2.59
,-8.911,-0.33,-5.252,-8.78,-0.893,-4.939,1.61,5.25,-2.59
,-8.952,-0.464,-5.327,-8.871,-0.869,-4.87,1.75,4.13,-2.03
5452.0,-8.93,-0.902,-4.757,-8.607,0.732,-4.855,2.17,1.05,4.83
,-8.851,-0.426,-4.987,-8.6,0.998,-5.248,3.71,0.84,5.95
,-8.763,-0.177,-4.719,-8.681,0.9,-5.135,3.99,0.42,6.3
,-8.648,0.445,-5.025,-8.593,0.682,-4.621,6.02,-0.07,6.72
5527.0,-8.65,0.555,-4.381,-8.619,-0.481,-3.927,5.53,0.14,6.3
,-8.804,0.62,-4.525,-8.526,-0.383,-4.377,6.16,0.35,5.67
,-8.99,0.067,-4.006,-8.684,-0.514,-4.135,3.71,0.91,5.67
,-8.964,-0.172,-3.944,-8.689,0.014,-4.061,3.01,1.19,6.09
5603.0,-8.71,0.45,-4.367,-8.756,1.067,-4.597,12.95,3.85,9.87
,-8.641,0.639,-4.245,-8.61,1.223,-4.659,10.57,3.5,10.01
,-8.643,0.864,-4.52,-8.583,1.34,-4.618,9.59,3.57,10.15
,-8.765,0.976,-4.635,-8.588,1.622,-5.09,9.17,3.78,10.15
5678.0,-8.559,1.486,-5.004,-8.631,1.464,-5.41,6.93,4.83,5.53
,-8.67,1.589,-4.882,-8.514,1.007,-5.461,6.65,5.25,3.57
,-8.827,1.725,-5.047,-8.547,0.589,-5.434,5.95,4.97,1.89
,-8.756,1.651,-5.212,-8.705,0.38,-5.188,4.2,4.62,0.98
5754.0,-8.705,0.232,-5.083,-8.672,0.309,-5.358,-1.61,3.71,0.21
,-8.684,0.364,-5.217,-8.571,0.337,-5.279,-1.61,2.8,0.77
,-8.775,0.357,-5.394,-8.588,0.648,-5.236,-3.01,2.31,1.4
,-8.739,0.342,-5.408,-8.725,1.137,-5.147,-3.92,1.82,2.38
5830.0,-8.844,1.295,-5.367,-8.784,0.749,-5.011,-4.62,0.0,2.31
,-8.914,1.058,-5.217,-8.799,0.943,-5.023,-6.86,-0.91,2.38
,-8.722,0.821,-4.994,-8.83,1.091,-4.968,-8.33,-1.47,2.24
,-8.698,0.658,-5.018,-8.813,0.995,-4.85,-8.12,-1.82,1.61
5906.0,-8.753,0.639,-4.731,-8.859,0.376,-4.724,-9.03,-5.11,0.63
,-8.701,0.416,-4.702,-8.777,0.29,-4.491,-9.94,-5.04,0.77
,-8.72,0.325,-4.858,-8.717,0.211,-4.752,-8.89,-4.76,0.49
,-8.842,0.203,-4.695,-8.861,0.148,-4.803,-6.72,-4.97,-0.42
5981.0,-8.928,-0.132,-4.838,-8.681,0.522,-4.843,-2.87,-7.07,1.82
,-8.839,-0.232,-4.57,-8.782,0.598,-4.824,-1.89,-7.42,2.38
,-8.737,-0.132,-4.549,-8.851,0.601,-4.91,0.35,-7.7,2.73
,-8.775,0.323,-4.834,-8.914,0.431,-4.812,2.31,-7.91,2.66
6057.0,-8.892,0.069,-4.633,-8.93,0.694,-4.812,-6.51,-8.33,2.66
,-8.997,0.0,-4.346,-8.928,0.909,-4.791,-4.41,-8.68,3.08
,-8.875,0.261,-4.561,-8.882,1.089,-4.795,-1.19,-10.01,3.57
,-8.756,0.498,-4.74,-8.772,1.204,-4.826,1.54,-10.64,3.78
6133.0,-8.631,1.275,-4.872,-9.122,1.395,-4.64,5.39,-12.88,1.82
,-8.799,1.249,-4.484,-8.784,1.486,-4.695,5.46,-12.25,0.77
,-9.002,1.376,-4.657,-8.847,1.323,-4.618,6.16,-12.25,-0.35
,-9.186,1.426,-4.726,-8.909,0.964,-4.343,6.93,-12.32,-1.89
6209.0,-9.081,0.926,-4.365,-9.05,0.672,-4.369,1.68,-15.26,-5.46
,-9.074,0.648,-4.393,-8.904,0.651,-4.295,1.89,-18.06,-3.43
,-8.839,0.773,-4.535,-8.849,0.785,-4.403,1.96,-18.9,-2.59
,-9.016,0.833,-4.403,-8.851,0.768,-4.757,1.33,-19.11,-3.01
6285.0,-8.875,0.615,-4.267,-9.009,0.306,-4.135,5.32,-14.7,-6.02
,-9.1,0.727,-4.422,-9.186,0.239,-3.927,7.07,-12.81,-5.32
,-8.885,0.333,-4.011,-9.112,0.388,-3.853,8.26,-12.11,-4.69
,-8.89,0.438,-4.396,-9.093,0.732,-4.003,12.74,-12.25,-4.27
6360.0,-9.0,0.881,-3.628,-9.184,1.06,-3.348,16.24,-15.19,-0.28
,-8.938,1.187,-3.594,-9.16,0.747,-3.123,14.14,-15.54,-0.21
,-8.959,1.292,-3.405,-9.15,0.651,-3.19,10.78,-15.05,-0.28
,-9.131,1.158,-3.257,-9.603,0.495,-3.391,6.51,-14.63,-0.21
6436.0,-9.308,0.699,-3.046,-9.127,0.347,-2.903,7.14,-16.1,-1.26
,-9.383,0.704,-3.233,-9.557,0.505,-2.934,7.35,-16.52,-1.19
,-9.024,0.416,-3.408,-9.543,0.938,-3.398,5.39,-16.17,-0.98
,-8.99,0.562,-3.57,-9.33,1.187,-3.678,6.72,-15.26,-1.05
6511.0,-9.21,0.766,-3.632,-9.519,0.727,-3.317,0.07,-17.5,-2.59
,-8.959,0.503,-3.656,-9.485,0.794,-3.317,-0.98,-16.8,-2.94
,-9.124,0.321,-3.415,-9.318,0.773,-3.427,1.54,-15.54,-2.87
,-9.34,0.112,-2.946,-9.39,0.469,-3.35,3.85,-15.75,-2.87
6587.0,-9.237,0.165,-3.005,-9.217,0.208,-2.709,0.7,-17.99,-2.24
,-9.265,0.261,-2.946,-9.349,0.045,-2.618,1.05,-17.85,-2.31
,-9.452,0.392,-3.135,-9.399,0.153,-2.556,1.26,-18.55,-2.59
,-9.299,0.369,-2.848,-9.471,0.27,-2.103,-0.42,-18.76,-2.94
6663.0,-9.584,0.366,-2.934,-9.478,0.512,-2.654,5.46,-17.43,-1.68
,-9.332,0.761,-3.02,-9.481,0.802,-2.424,4.41,-17.85,-1.82
,-9.457,0.495,-2.919,-9.631,0.988,-2.228,4.83,-17.29,-1.19
,-9.356,0.388,-2.781,-9.497,1.151,-2.503,5.95,-16.87,-1.33
6739.0,-9.471,1.18,-2.534,-9.375,0.22,-2.51,-1.26,-16.52,-4.55
,-9.483,0.704,-2.709,-9.493,0.275,-2.264,-3.99,-16.52,-4.83
,-9.402,0.479,-2.505,-9.517,0.23,-2.046,-4.41,-16.31,-5.18
,-9.552,0.278,-2.871,-9.457,0.443,-1.316,-1.89,-16.45,-5.04
6814.0,-9.646,0.402,-1.709,-9.67,0.278,-1.981,5.18,-13.51,-4.76
,-9.548,0.483,-1.589,-9.495,0.443,-2.163,2.1,-12.88,-4.76
,-9.6,0.268,-1.766,-9.462,0.529,-1.862,0.56,-11.83,-4.27
,-9.483,0.136,-1.704,-9.596,0.419,-1.759,1.05,-10.99,-4.06
6890.0,-9.768,0.438,-1.689,-9.605,0.017,-1.682,4.34,-7.49,-4.9
,-9.739,0.416,-1.931,-9.548,0.01,-1.371,2.31,-7.49,-4.9
,-9.529,0.239,-1.764,-9.598,0.055,-1.287,0.49,-6.86,-4.9
,-9.524,0.005,-1.579,-9.629,0.089,-1.161,2.38,-5.74,-4.55
6965.0,-9.794,0.34,-1.338,-9.603,-0.268,-2.113,7.28,-0.84,-3.5
,-9.732,0.464,-1.735,-9.634,-0.263,-2.235,4.2,-0.56,-3.57
,-9.612,0.223,-1.797,-9.509,-0.091,-2.008,0.7,0.49,-3.29
,-9.481,-0.031,-1.912,-9.617,0.065,-2.058,0.63,1.4,-2.87
7041.0,-9.667,0.146,-1.948,-9.596,0.029,-2.479,8.12,2.38,-1.47
,-9.756,0.153,-2.024,-9.569,-0.213,-2.398,7.49,2.31,-1.26
,-9.71,0.22,-2.19,-9.586,-0.184,-2.201,5.46,2.17,-1.47
,-9.739,0.182,-2.338,-9.67,0.024,-2.19,3.99,2.17,-1.4
7117.0,-9.744,0.208,-2.12,-9.636,-0.007,-2.058,9.66,1.96,0.0
,-9.684,0.275,-1.998,-9.627,-0.096,-2.115,8.4,1.75,-0.14
,-9.72,0.304,-2.17,-9.619,-0.079,-1.996,6.65,1.82,-0.07
,-9.6,0.16,-2.125,-9.686,0.057,-1.929,4.76,1.96,-0.07
7193.0,-9.722,0.16,-1.953,-9.651,0.139,-1.996,5.74,2.87,0.35
,-9.696,0.203,-1.922,-9.675,0.06,-2.051,3.99,3.29,0.28
,-9.679,0.359,-1.989,-9.66,0.136,-2.178,2.17,3.5,0.0
,-9.636,0.246,-1.967,-9.689,0.256,-2.249,0.42,3.78,-0.21
7269.0,-9.615,0.306,-2.379,-9.675,0.129,-2.62,0.91,4.27,-0.42
,-9.569,0.208,-2.458,-9.596,0.077,-2.498,0.91,4.27,-0.35
,-9.624,0.179,-2.525,-9.629,-0.045,-2.443,1.4,4.06,-0.35
,-9.682,0.177,-2.639,-9.744,0.026,-2.412,1.82,3.43,-0.56
7344.0,-9.622,0.179,-2.386,-9.655,-0.007,-2.266,3.99,1.61,-0.56
,-9.617,0.184,-2.362,-9.586,-0.05,-2.048,3.22,1.61,-0.49
,-9.603,0.065,-2.29,-9.672,0.041,-2.041,2.73,1.82,-0.35
,-9.694,-0.036,-2.185,-9.684,0.136,-2.185,3.57,1.89,-0.28
7420.0,-9.643,0.196,-2.123,-9.665,-0.074,-2.18,2.52,2.45,-0.14
,-9.608,0.045,-2.103,-9.665,-0.067,-2.295,1.4,2.8,-0.07
,-9.615,-0.148,-2.07,-9.627,-0.029,-2.182,1.68,3.15,-0.07
,-9.641,-0.122,-2.185,-9.667,0.086,-2.429,2.87,3.43,0.14
7496.0,-9.715,0.246,-2.594,-9.584,-0.117,-2.57,3.29,2.52,0.35
,-9.67,0.191,-2.651,-9.612,-0.134,-2.422,1.82,2.31,0.42
,-9.591,0.072,-2.678,-9.648,-0.081,-2.276,1.4,1.96,0.49
,-9.6,-0.089,-2.627,-9.753,0.053,-2.23,2.45,1.68,0.56
7572.0,-9.655,0.16,-2.197,-9.622,-0.101,-2.178,5.39,0.7,1.12
,-9.631,0.129,-2.154,-9.605,-0.005,-2.206,3.85,0.84,1.12
,-9.586,0.031,-2.225,-9.691,0.115,-2.199,2.45,0.91,1.12
,-9.627,-0.093,-2.204,-9.706,0.335,-2.393,1.89,1.05,0.98
7647.0,-9.651,0.347,-2.414,-9.641,-0.077,-2.295,1.68,0.7,1.12
,-9.646,0.158,-2.544,-9.627,0.012,-2.154,0.56,0.7,0.98
,-9.6,0.043,-2.46,-9.648,0.091,-2.046,1.12,0.63,1.05
,-9.641,-0.103,-2.407,-9.684,0.244,-2.003,1.89,0.63,1.19
7723.0,-9.706,0.268,-2.02,-9.615,0.038,-2.249,2.52,0.91,0.98
,-9.653,0.285,-2.233,-9.622,0.096,-2.314,1.19,1.05,0.91
,-9.591,0.136,-2.233,-9.6,0.163,-2.206,-0.35,1.12,0.7
,-9.658,-0.019,-2.273,-9.574,0.175,-2.173,0.07,1.19,0.63
7799.0,-9.713,0.16,-2.266,-9.634,0.065,-2.383,2.1,1.33,0.56
,-9.706,0.211,-2.221,-9.643,-0.019,-2.426,1.26,1.47,0.42
,-9.636,0.158,-2.29,-9.648,0.062,-2.364,-0.28,1.4,0.28
,-9.675,-0.024,-2.412,-9.646,0.141,-2.204,-0.49,1.33,0.28
7875.0,-9.665,0.144,-2.211,-9.691,0.062,-1.747,2.24,0.91,0.56
,-9.641,0.151,-2.113,-9.636,0.203,-1.732,2.1,1.05,0.49
,-9.598,0.074,-1.919,-9.617,0.144,-1.811,2.17,1.47,0.63
,-9.617,0.108,-1.828,-9.634,0.06,-1.876,2.24,1.82,0.63
7950.0,-9.61,-0.22,-1.917,-9.6,0.151,-2.151,-1.54,4.69,1.54
,-9.533,-0.357,-2.041,-9.529,0.065,-2.015,-0.63,4.76,1.89
,-9.651,-0.323,-1.823,-9.576,-0.045,-1.833,1.12,5.39,2.17
,-9.696,-0.199,-1.926,-9.686,-0.189,-1.759,2.03,5.32,2.45
8026.0,-9.758,-0.139,-1.9,-9.689,0.199,-0.835,-0.21,6.51,3.5
,-9.56,-0.002,-1.766,-9.928,0.763,-1.268,-2.03,6.79,3.57
,-9.426,0.352,-1.816,-9.718,1.11,-1.467,-0.42,8.12,3.71
,-9.562,-0.002,-1.182,-9.584,0.943,-1.898,-2.31,9.38,3.85
8101.0,-9.253,-0.105,-2.376,-9.655,-0.412,-1.45,-26.39,8.05,4.48
,-8.933,-1.22,-2.02,-9.524,0.505,-1.895,-22.26,12.18,6.37
,-9.079,-1.615,-1.251,-9.493,0.972,-1.907,-8.82,18.06,8.12
,-9.608,-1.22,-1.508,-9.588,1.299,-2.345,5.18,20.23,8.89
8177.0,-9.304,1.462,-2.347,-9.122,0.457,-2.673,-4.55,19.6,8.26
,-9.622,1.397,-2.726,-8.885,-0.206,-1.876,-9.24,18.83,7.35
,-9.507,1.295,-3.4,-9.119,-0.304,-1.074,-14.84,17.5,6.02
,-9.239,1.055,-3.13,-9.512,-0.069,-0.974,-17.22,18.34,5.04
8253.0,-9.976,0.658,-1.62,-9.05,0.428,-3.35,11.48,24.92,1.4
,-9.718,1.201,-2.546,-9.143,0.637,-3.269,7.35,24.22,1.96
,-9.1,1.017,-2.95,-9.469,0.72,-3.19,1.54,26.18,3.5
,-9.031,0.632,-2.974,-8.959,0.632,-3.53,0.63,28.98,4.55
8329.0,-8.708,0.452,-2.639,-9.433,0.876,-4.831,1.33,30.94,1.05
,-9.206,0.665,-2.883,-8.78,0.194,-4.757,2.38,30.87,0.77
,-9.517,0.72,-3.352,-8.897,-0.373,-4.123,1.12,28.56,-0.98
,-9.856,0.955,-3.896,-9.696,-0.287,-4.556,-3.43,26.25,-1.75
8405.0,-9.679,0.117,-5.54,-9.136,-0.589,-3.963,0.84,18.69,-0.14
,-9.502,0.17,-5.518,-9.514,-0.625,-3.893,2.1,18.41,-0.49
,-8.947,-0.194,-5.123,-9.483,-0.589,-3.728,1.68,19.04,0.42
,-8.696,-0.421,-4.188,-9.15,-0.498,-3.836,4.34,19.74,1.4
8480.0,-8.906,-0.349,-3.762,-9.342,1.579,-4.458,8.26,16.38,6.3
,-9.021,0.045,-3.283,-9.112,1.388,-4.408,10.36,16.87,7.0
,-9.083,0.543,-3.747,-9.086,0.849,-4.116,10.57,15.96,6.93
,-9.239,1.328,-4.063,-9.026,0.215,-4.142,10.08,15.61,6.58
8556.0,-9.27,-0.29,-3.747,-9.155,0.187,-4.085,-2.03,14.84,5.11
,-9.366,-0.601,-3.798,-9.131,0.854,-4.238,3.5,13.44,5.67
,-9.119,-0.732,-3.845,-9.024,1.445,-4.494,7.63,13.58,6.3
,-9.174,-0.402,-3.721,-8.82,1.668,-4.515,13.23,13.51,6.86
8632.0,-8.887,1.551,-4.415,-9.074,-0.402,-3.721,0.14,11.27,6.72
,-8.993,1.122,-4.257,-8.906,-0.419,-3.647,-7.21,11.2,6.23
,-9.129,0.438,-4.08,-8.873,0.098,-3.74,-10.78,11.06,5.81
,-9.088,-0.132,-3.912,-9.038,1.043,-3.91,-10.5,11.34,5.53
8708.0,-9.005,2.053,-4.233,-9.028,1.876,-4.267,12.53,11.9,5.6
,-8.82,2.56,-4.357,-9.069,1.33,-4.101,9.87,11.62,3.57
,-8.866,2.546,-4.128,-8.873,0.938,-4.307,4.13,12.11,1.75
,-9.083,2.395,-3.91,-8.959,0.768,-4.223,-1.61,12.39,0.21
8783.0,-9.174,0.232,-3.905,-8.961,-1.165,-4.774,3.5,13.23,-8.33
,-9.117,-0.072,-4.238,-8.926,-1.074,-5.016,4.69,11.9,-7.28
,-8.813,-0.481,-4.731,-8.586,-0.646,-5.035,5.67,11.55,-4.41
,-8.729,-1.003,-4.752,-8.993,-0.469,-5.061,6.79,12.67,-1.82
8859.0,-8.667,-0.775,-4.86,-8.942,-0.093,-4.623,6.37,10.99,4.62
,-8.899,-0.823,-4.922,-8.909,0.333,-4.647,4.34,10.78,7.35
,-8.76,-0.897,-4.805,-8.93,0.522,-4.681,3.43,10.22,9.1
,-8.856,-0.677,-4.561,-8.928,0.696,-4.807,4.62,9.66,10.22
8934.0,-8.957,0.881,-4.681,-8.792,1.474,-4.594,8.26,8.05,10.78
,-8.849,0.948,-4.695,-8.804,1.632,-4.709,9.87,7.42,9.52
,-8.856,1.127,-4.736,-8.71,1.673,-5.042,10.5,7.56,8.54
,-8.746,1.292,-4.558,-8.665,1.062,-4.886,10.85,7.21,7.7
9010.0,-8.715,0.648,-4.745,-8.72,0.168,-4.611,4.06,4.55,3.01
,-8.77,0.206,-4.661,-8.765,0.129,-4.673,4.62,4.62,2.31
,-8.753,0.067,-4.707,-8.775,-0.022,-4.697,5.74,4.83,2.66
,-8.681,0.122,-4.58,-8.775,-0.031,-4.681,8.47,4.97,3.57
9086.0,-8.701,0.026,-4.599,-8.775,0.802,-4.635,8.33,5.32,7.42
,-8.768,0.201,-4.63,-8.662,0.983,-4.659,8.19,5.53,8.54
,-8.71,0.407,-4.759,-8.677,1.165,-4.831,8.12,5.39,9.31
,-8.804,0.534,-4.788,-8.756,1.354,-5.004,8.4,5.39,9.59
9162.0,-8.708,1.584,-4.972,-8.708,1.622,-4.953,6.65,3.99,7.21
,-8.617,1.709,-5.104,-8.533,1.244,-4.929,5.39,3.5,5.95
,-8.593,1.704,-5.025,-8.576,1.082,-4.889,4.48,3.71,4.2
,-8.77,1.685,-4.98,-8.844,1.115,-4.728,3.43,3.78,2.31
9237.0,-8.734,1.271,-4.855,-8.928,0.732,-4.937,0.91,2.8,-1.75
,-8.466,1.366,-5.071,-8.727,0.675,-4.764,-0.28,2.45,-2.45
,-8.559,1.244,-5.25,-8.626,0.574,-4.925,-2.1,2.66,-3.29
,-8.935,1.043,-5.068,-8.681,0.493,-5.102,-3.64,2.52,-3.92
9313.0,-8.815,0.223,-5.085,-8.782,0.122,-4.893,-6.51,-0.14,-2.24
,-8.847,-0.002,-4.925,-8.83,0.479,-5.03,-5.81,-0.28,-1.19
,-8.772,-0.117,-4.992,-8.854,0.838,-4.92,-4.62,-0.91,-0.28
,-8.746,-0.153,-4.951,-8.892,0.955,-4.884,-3.78,-1.26,0.49
9389.0,-8.751,0.952,-4.884,-8.878,0.948,-4.824,-5.53,-3.71,0.91
,-8.71,0.699,-4.91,-8.859,0.687,-4.719,-6.58,-3.92,0.49
,-8.827,0.759,-4.793,-8.854,0.603,-4.623,-5.25,-3.78,-0.49
,-8.89,0.873,-4.822,-8.665,0.378,-4.786,-3.01,-4.55,-1.82
9465.0,-8.65,0.237,-4.75,-8.82,0.096,-5.073,-2.31,-6.58,-1.19
,-8.794,0.05,-4.769,-8.873,-0.017,-4.917,-1.68,-6.51,-0.98
,-8.902,-0.045,-4.826,-8.744,-0.01,-4.896,-0.91,-6.51,-0.56
,-8.871,-0.048,-4.882,-8.796,0.232,-4.829,-0.14,-6.72,0.56
9541.0,-8.873,0.309,-4.683,-8.89,1.251,-4.987,3.64,-7.0,1.68
,-8.976,0.467,-4.456,-8.947,1.108,-4.872,4.83,-7.28,1.33
,-8.856,0.89,-4.736,-8.88,1.144,-4.951,5.32,-8.12,1.75
,-8.823,1.283,-5.02,-8.787,1.027,-4.69,3.08,-8.47,1.89
9616.0,-8.808,1.218,-4.815,-8.792,1.117,-4.731,3.15,-8.61,-2.94
,-9.081,1.354,-4.618,-8.885,0.897,-4.817,4.55,-9.87,-3.5
,-9.005,1.51,-4.676,-8.993,0.572,-4.7,4.34,-11.69,-3.64
,-8.808,1.476,-4.748,-8.959,0.29,-4.618,3.64,-12.53,-4.06
9692.0,-9.043,0.146,-4.614,-8.993,0.749,-4.355,8.05,-14.0,-3.99
,-8.969,0.158,-4.623,-9.067,1.072,-4.532,10.22,-14.0,-3.57
,-8.861,0.376,-4.594,-8.964,0.756,-4.209,11.27,-13.65,-3.15
,-8.859,0.51,-4.307,-8.978,0.625,-4.116,11.55,-13.37,-2.52
9767.0,-9.007,0.541,-4.13,-9.031,0.517,-3.589,0.49,-15.4,0.56
,-8.959,0.227,-4.087,-9.055,0.811,-3.654,-0.14,-16.03,-0.56
,-9.019,0.392,-3.908,-9.009,0.972,-3.676,4.13,-15.89,-0.49
,-9.177,0.256,-3.788,-9.002,0.787,-3.561,7.7,-16.31,1.12
9843.0,-9.005,0.567,-3.532,-9.105,0.751,-3.276,3.78,-17.29,1.12
,-9.15,0.462,-3.534,-9.028,0.78,-3.259,4.2,-16.87,1.19
,-9.177,0.414,-3.233,-9.019,0.744,-3.163,4.48,-16.8,1.19
,-9.141,0.591,-3.257,-9.115,0.617,-3.084,4.76,-17.15,1.4
9919.0,-9.253,0.62,-3.082,-9.184,1.053,-3.419,2.17,-15.05,-0.14
,-9.459,0.761,-3.501,-9.117,0.737,-3.422,2.1,-14.77,-0.63
,-9.308,0.976,-3.022,-9.194,0.4,-3.47,3.08,-14.98,-0.98
,-9.507,1.187,-3.094,-9.174,0.194,-3.372,2.45,-15.26,-1.33
9995.0,-9.232,0.433,-3.355,-9.186,0.383,-2.785,0.84,-14.77,-2.45
,-9.201,0.768,-3.312,-9.371,0.215,-2.692,2.59,-14.28,-3.36
,-9.263,0.823,-3.125,-9.476,0.211,-2.572,0.7,-14.21,-3.85
,-9.182,0.73,-3.037,-9.423,0.438,-3.137,-3.08,-14.21,-3.78
10070.0,-9.292,0.457,-3.317,-9.447,0.933,-3.393,-0.98,-13.58,-1.68
,-9.182,0.062,-2.773,-9.273,0.933,-3.853,0.42,-12.6,-1.19
,-9.507,0.026,-2.907,-9.225,0.227,-3.312,3.85,-12.46,-1.47
,-9.56,0.522,-2.845,-9.304,0.163,-3.195,5.11,-13.37,-2.17
10146.0,-9.591,0.249,-3.025,-9.531,0.354,-2.927,1.82,-14.7,-2.24
,-9.545,0.72,-3.34,-9.667,0.785,-3.161,2.87,-15.61,-2.24
,-9.22,0.792,-3.242,-9.471,0.62,-2.979,0.91,-15.33,-1.33
,-9.318,0.249,-2.685,-9.172,0.675,-3.3,1.75,-14.35,-0.49
10221.0,-9.244,0.124,-2.472,-9.605,0.258,-1.85,3.15,-15.61,-1.75
,-9.509,0.036,-2.381,-9.6,0.51,-2.065,6.86,-15.12,-2.17
,-9.536,0.263,-2.146,-9.533,0.912,-1.965,8.61,-14.91,-2.17
,-9.524,0.462,-2.048,-9.416,1.101,-2.146,8.4,-14.35,-1.47
10297.0,-9.383,1.113,-2.084,-9.586,0.651,-2.24,1.68,-11.34,-3.08
,-9.483,0.84,-1.833,-9.541,0.5,-2.12,1.26,-10.08,-3.22
,-9.593,0.711,-1.933,-9.392,0.261,-2.044,1.12,-9.73,-3.57
,-9.631,0.692,-1.986,-9.533,0.065,-1.905,0.56,-9.66,-3.92
10373.0,-9.617,0.191,-1.857,-9.787,0.321,-2.118,0.28,-6.51,-3.99
,-9.608,0.323,-1.852,-9.631,0.45,-2.295,0.56,-6.16,-3.85
,-9.514,0.402,-1.613,-9.531,0.306,-2.568,0.7,-5.18,-3.57
,-9.493,0.33,-1.369,-9.426,0.134,-2.589,1.05,-3.92,-3.22
10449.0,-9.641,0.249,-2.467,-9.636,0.139,-1.886,3.92,-2.94,-2.94
,-9.622,0.443,-2.312,-9.675,0.179,-1.84,5.46,-3.08,-3.01
,-9.619,0.476,-2.053,-9.686,0.285,-2.077,5.46,-3.08,-2.87
,-9.596,0.325,-2.065,-9.596,0.311,-1.85,4.83,-2.87,-2.8
10525.0,-9.591,0.23,-1.922,-9.641,0.371,-1.039,9.66,-0.21,-1.4
,-9.557,0.146,-1.637,-9.646,0.51,-1.113,10.08,0.77,-1.33
,-9.636,0.165,-1.345,-9.768,0.596,-1.452,11.2,2.31,-1.26
,-9.624,0.246,-1.323,-9.579,0.503,-1.529,11.13,3.01,-1.47
10600.0,-9.502,0.313,-1.747,-9.631,0.187,-2.568,0.63,8.61,-1.68
,-9.533,0.074,-2.072,-9.6,0.213,-2.596,0.7,9.03,-1.75
,-9.641,0.139,-2.194,-9.622,0.266,-2.804,1.33,9.38,-1.68
,-9.533,0.079,-2.252,-9.643,0.263,-3.149,1.75,9.66,-1.47
10676.0,-9.615,0.101,-3.247,-9.612,0.012,-2.931,-1.61,6.79,-1.26
,-9.572,0.048,-3.417,-9.648,0.153,-2.721,0.21,5.74,-0.91
,-9.569,-0.077,-3.333,-9.543,0.266,-2.314,2.24,4.97,-0.56
,-9.581,-0.105,-3.068,-9.634,0.369,-2.477,4.62,4.27,-0.14
10752.0,-9.67,0.431,-2.479,-9.665,0.065,-2.194,5.46,2.03,0.21
,-9.552,0.323,-2.491,-9.691,0.373,-2.254,4.27,1.82,0.07
,-9.454,0.038,-2.501,-9.584,0.45,-2.268,3.99,1.96,0.21
,-9.536,-0.057,-2.173,-9.698,0.395,-2.52,5.74,2.17,0.49
10828.0,-9.6,0.249,-2.735,-9.643,0.287,-2.735,-0.63,1.96,-0.21
,-9.49,-0.026,-2.714,-9.596,0.335,-2.67,-0.98,1.82,0.14
,-9.588,-0.146,-2.903,-9.586,0.124,-2.534,1.96,1.47,0.28
,-9.612,0.062,-2.869,-9.658,-0.031,-2.517,5.18,0.84,0.28
10903.0,-9.596,-0.031,-2.386,-9.624,0.459,-2.175,4.97,-0.56,0.42
,-9.605,0.079,-2.345,-9.593,0.546,-2.182,5.81,-0.56,0.49
,-9.6,0.12,-2.271,-9.598,0.352,-2.235,6.3,-0.14,0.63
,-9.643,0.285,-2.108,-9.533,-0.019,-2.206,6.79,0.21,0.7
10979.0,-9.624,-0.132,-2.216,-9.629,0.275,-2.742,1.82,1.4,0.49
,-9.624,0.067,-2.28,-9.56,0.098,-2.752,3.71,1.75,0.42
,-9.648,0.311,-2.491,-9.605,0.055,-2.804,4.2,1.61,0.56
,-9.622,0.371,-2.546,-9.552,0.12,-2.769,2.03,1.33,0.56
11054.0,-9.617,0.182,-2.62,-9.617,0.318,-2.225,5.04,0.28,1.05
,-9.593,0.242,-2.412,-9.581,0.201,-2.326,5.81,0.28,1.05
,-9.651,0.306,-2.292,-9.581,0.014,-2.374,5.88,0.14,0.98
,-9.667,0.321,-2.237,-9.627,0.074,-2.383,4.69,0.21,0.84
11130.0,-9.581,0.146,-2.331,-9.591,0.191,-2.606,3.08,0.7,0.77
,-9.588,0.232,-2.376,-9.615,0.165,-2.58,3.08,0.7,0.77
,-9.624,0.325,-2.515,-9.627,0.191,-2.558,2.45,0.42,0.7
,-9.574,0.23,-2.469,-9.567,0.189,-2.474,1.54,0.56,0.77
11206.0,-9.641,0.129,-2.46,-9.665,0.146,-2.443,1.82,-0.07,0.7
,-9.557,0.182,-2.429,-9.617,0.053,-2.268,2.31,-0.07,0.84
,-9.627,0.16,-2.467,-9.521,0.055,-2.187,2.1,-0.28,0.91
,-9.655,0.225,-2.374,-9.615,0.105,-2.154,1.82,-0.14,0.91
11282.0,-9.612,0.246,-2.07,-9.521,0.163,-2.534,2.31,0.63,0.91
,-9.703,0.45,-2.257,-9.574,0.019,-2.362,1.54,0.63,0.91
,-9.646,0.409,-2.28,-9.555,0.144,-2.369,-0.42,0.7,0.77
,-9.622,0.246,-2.395,-9.624,0.146,-2.271,-1.47,0.7,0.77
11357.0,-9.684,0.421,-2.278,-9.605,0.151,-2.656,2.1,0.7,0.63
,-9.701,0.383,-2.371,-9.6,0.091,-2.419,0.42,0.77,0.56
,-9.629,0.349,-2.345,-9.655,0.244,-2.532,-1.12,0.77,0.42
,-9.588,0.28,-2.3,-9.588,0.122,-2.34,-1.47,0.91,0.21
11433.0,-9.615,0.282,-2.237,-9.61,0.153,-2.326,1.68,0.91,0.49
,-9.615,0.369,-2.264,-9.593,0.062,-2.424,0.84,0.98,0.28
,-9.586,0.385,-2.278,-9.629,0.065,-2.534,-0.56,0.98,0.07
,-9.636,0.323,-2.34,-9.596,0.012,-2.484,-1.68,0.98,0.07
11509.0,-9.593,0.069,-2.469,-9.593,0.132,-1.878,2.94,0.56,0.77
,-9.617,0.115,-2.4,-9.648,0.285,-2.127,4.2,0.49,0.98
,-9.588,0.184,-2.268,-9.627,0.318,-2.163,5.67,0.84,1.12
,-9.651,0.206,-2.266,-9.629,0.302,-2.044,6.51,0.91,1.12
11585.0,-9.703,0.359,-2.422,-9.555,0.022,-2.084,4.97,1.47,1.26
,-9.584,0.273,-2.513,-9.502,0.017,-1.565,2.94,1.4,1.33
,-9.521,0.187,-2.414,-9.622,0.282,-1.168,3.08,1.75,1.54
,-9.457,-0.036,-2.151,-9.811,0.675,-1.251,3.99,2.24,1.75
11661.0,-9.825,0.876,-1.613,-9.557,-0.524,-0.804,3.85,5.53,1.33
,-9.608,0.756,-1.91,-9.809,0.091,-1.0,-4.41,6.51,1.12
,-9.397,0.036,-1.496,-9.777,0.84,-1.175,-11.62,8.12,1.75
,-9.39,-0.419,-1.414,-9.598,1.134,-1.632,-10.43,9.94,2.1
11736.0,-9.469,0.524,-1.886,-9.048,-0.392,-2.417,-21.21,11.48,2.1
,-9.416,-0.179,-2.022,-9.215,0.105,-2.158,-23.38,13.02,2.94
,-9.67,-0.73,-2.649,-9.541,0.682,-2.673,-20.3,13.51,4.2
,-9.323,-0.689,-2.807,-9.509,1.318,-2.726,-11.48,14.21,4.97
11812.0,-9.706,1.208,-3.18,-9.208,-0.644,-1.73,-6.23,15.54,2.94
,-9.593,0.756,-3.34,-9.701,-0.299,-1.989,-17.22,13.72,3.29
,-9.354,-0.122,-3.039,-9.655,0.261,-2.862,-22.4,13.72,4.06
,-9.351,-0.632,-2.426,-9.536,0.459,-3.072,-19.53,14.21,5.46
11887.0,-9.105,0.213,-2.912,-9.631,0.804,-3.807,-3.85,18.9,7.42
,-9.239,-0.129,-2.888,-9.064,0.62,-3.661,-0.07,20.02,8.12
,-9.292,0.002,-2.816,-8.961,0.177,-3.108,8.19,20.23,7.63
,-9.871,0.455,-3.214,-9.184,0.144,-2.154,14.91,18.27,6.86
11963.0,-9.828,0.469,-2.132,-8.804,0.797,-3.654,19.32,17.99,3.64
,-9.72,1.536,-2.795,-8.916,0.122,-3.173,17.99,15.33,2.73
,-9.627,1.816,-3.386,-9.043,0.187,-2.74,8.68,13.93,3.22
,-9.397,1.397,-3.877,-9.636,0.431,-3.075,-2.73,13.51,4.2
12039.0,-9.562,0.416,-3.408,-9.182,0.849,-3.173,2.17,14.0,2.52
,-9.49,0.268,-3.4,-9.11,1.323,-3.24,-0.14,14.77,2.52
,-9.249,0.313,-3.453,-9.536,1.663,-3.238,0.84,16.1,2.8
,-9.088,0.464,-3.032,-9.198,1.974,-4.037,4.55,17.22,2.73
12115.0,-8.863,2.056,-3.934,-9.471,0.55,-3.573,-1.4,17.5,-2.52
,-9.076,1.797,-3.477,-9.299,-0.098,-3.609,-3.99,19.39,-4.34
,-9.115,1.634,-3.489,-9.361,-0.696,-3.695,-5.18,19.67,-6.23
,-9.325,1.266,-3.044,-9.304,-1.048,-3.987,-5.67,20.37,-7.07
12190.0,-9.378,-1.261,-3.958,-8.77,0.467,-4.24,5.32,16.8,-1.33
,-9.313,-1.192,-4.054,-8.921,0.603,-4.111,10.64,15.82,-0.91
,-9.182,-0.744,-4.092,-9.347,0.33,-3.802,14.63,15.19,0.0
,-8.854,-0.115,-4.396,-9.387,0.031,-3.965,16.1,14.91,1.19
12266.0,-9.241,-0.34,-3.912,-9.141,-0.29,-3.862,-6.86,12.32,6.72
,-9.139,-0.68,-3.829,-9.174,0.491,-3.944,-5.04,12.25,8.05
,-8.978,-0.924,-3.877,-9.002,1.268,-3.908,-0.35,12.39,8.89
,-9.072,-0.828,-3.886,-8.983,1.881,-3.731,6.16,12.32,8.89
12341.0,-9.112,2.173,-3.664,-9.045,0.861,-3.963,12.18,13.3,5.46
,-9.112,2.173,-3.704,-9.021,0.706,-3.912,5.25,13.16,4.83
,-9.129,1.79,-3.881,-8.887,0.854,-4.08,-1.26,12.95,4.55
,-9.088,1.299,-3.932,-8.921,1.074,-4.238,-4.13,13.37,4.2
12417.0,-8.995,0.857,-4.03,-8.933,0.885,-4.295,4.48,13.44,-0.56
,-9.172,0.902,-3.958,-8.775,0.491,-4.362,4.06,13.58,-1.33
,-9.213,0.955,-4.034,-8.725,0.359,-4.329,4.41,13.09,-1.4
,-9.148,0.916,-4.298,-8.894,0.242,-4.164,3.01,12.39,-1.96
12493.0,-8.882,0.369,-4.346,-9.005,0.493,-4.489,0.77,13.65,-2.94
,-8.981,0.524,-4.31,-8.768,0.081,-4.456,2.94,13.65,-2.94
,-8.949,0.914,-4.566,-8.811,-0.347,-4.307,3.71,12.6,-2.87
,-9.115,0.905,-4.618,-8.839,-0.574,-3.936,2.17,11.69,-2.59
12569.0,-8.686,-0.397,-4.046,-9.136,0.438,-4.223,3.78,14.84,1.19
,-8.76,0.089,-4.133,-9.081,0.244,-4.496,6.58,15.54,1.05
,-8.842,0.366,-4.18,-8.815,0.029,-4.384,8.19,15.75,0.7
,-8.729,0.4,-4.298,-8.78,0.108,-4.592,7.07,14.84,0.28
12645.0,-8.636,0.251,-4.575,-8.674,0.67,-4.838,5.95,14.28,0.56
,-8.696,0.467,-4.515,-8.591,0.39,-5.025,7.07,14.7,0.07
,-8.916,0.641,-4.625,-8.748,0.175,-4.915,7.91,14.35,0.07
,-8.832,0.782,-4.757,-8.892,-0.218,-4.87,5.95,14.07,0.14
12720.0,-8.995,-0.431,-4.721,-8.703,0.605,-5.197,7.42,12.04,-0.98
,-8.827,0.12,-5.159,-8.684,0.414,-5.264,12.88,10.43,-1.05
,-8.579,0.419,-5.157,-8.674,0.201,-5.207,14.91,9.8,-1.54
,-8.667,0.526,-5.054,-8.768,-0.122,-5.023,13.3,9.8,-1.54
12796.0,-8.619,-0.062,-5.025,-8.827,0.909,-5.504,6.09,8.4,1.75
,-8.447,0.194,-5.145,-8.921,0.735,-5.525,7.21,8.19,1.96
,-8.504,0.428,-5.056,-8.894,0.378,-5.274,6.86,8.26,2.1
,-8.617,0.852,-5.453,-8.861,0.191,-5.353,6.44,7.28,1.75
12872.0,-8.679,-0.014,-5.154,-8.514,0.287,-5.24,8.89,3.01,1.89
,-8.667,-0.014,-5.272,-8.528,0.558,-5.511,9.31,3.08,1.89
,-8.753,0.041,-5.075,-8.378,0.27,-3.979,9.31,2.45,2.1
,-8.61,0.177,-5.152,-8.775,0.244,-5.346,8.33,2.17,2.73
12948.0,-8.739,0.218,-5.334,-8.717,0.562,-5.231,2.24,0.14,5.74
,-8.725,0.443,-5.37,-8.77,0.579,-5.133,3.78,-0.42,5.53
,-8.67,0.787,-5.389,-8.614,0.357,-5.008,4.62,-0.7,4.9
,-8.591,0.687,-5.303,-8.5,0.249,-4.903,3.01,-1.05,4.62
13023.0,-8.595,0.596,-5.004,-8.54,0.771,-4.86,1.54,-1.96,4.41
,-8.6,0.974,-5.171,-8.646,0.78,-4.882,1.12,-2.24,4.2
,-8.746,0.924,-5.049,-8.739,0.632,-4.456,-1.05,-2.52,3.85
,-8.681,0.838,-4.965,-8.631,0.498,-4.609,-2.8,-2.66,3.78
13099.0,-8.595,0.455,-4.834,-8.792,0.148,-4.666,-3.78,-2.24,3.22
,-8.818,0.302,-4.798,-8.789,0.359,-4.781,-4.76,-1.82,3.64
,-8.775,0.043,-4.846,-8.744,0.467,-4.925,-4.55,-1.82,3.99
,-8.689,0.098,-4.771,-8.801,0.469,-4.925,-2.24,-1.75,4.2
13174.0,-8.863,0.806,-5.016,-8.643,1.129,-4.74,1.47,-2.38,3.43
,-8.897,0.548,-4.654,-8.741,0.955,-4.755,0.7,-2.94,3.08
,-8.717,0.787,-4.513,-8.775,0.72,-4.882,1.75,-3.01,2.59
,-8.672,1.213,-4.721,-8.672,0.304,-4.819,2.73,-3.29,2.17
13250.0,-8.71,0.045,-4.755,-8.758,0.014,-4.434,-4.62,-2.66,0.63
,-8.866,0.139,-4.666,-8.914,-0.139,-4.719,-1.61,-2.52,0.0
,-8.837,0.299,-4.826,-8.71,-0.471,-4.817,-0.35,-2.59,-0.07
,-8.782,0.318,-4.91,-8.658,-0.656,-4.704,-1.26,-2.87,0.42
13326.0,-8.847,-0.56,-4.681,-8.914,0.555,-4.97,0.35,-5.74,5.46
,-8.88,-0.361,-4.925,-8.827,1.06,-5.126,2.17,-6.23,6.51
,-8.799,-0.148,-5.066,-8.741,1.173,-5.121,2.8,-6.65,7.42
,-8.83,0.177,-5.044,-8.871,1.321,-5.071,3.43,-6.65,8.19
13402.0,-8.868,1.22,-5.023,-8.971,0.586,-4.937,-1.96,-9.94,5.81
,-8.77,0.871,-5.056,-9.031,0.809,-4.949,-0.28,-10.08,4.62
,-8.801,0.682,-4.86,-9.031,1.335,-4.803,1.19,-10.15,3.71
,-8.966,0.584,-4.939,-8.804,1.519,-4.886,3.57,-10.85,2.73
13477.0,-8.538,1.67,-4.537,-8.897,1.094,-4.477,6.16,-14.91,-2.52
,-8.947,1.376,-4.121,-8.815,0.797,-4.535,3.22,-14.98,-2.17
,-9.033,1.543,-4.386,-8.772,0.565,-4.525,1.82,-16.45,-1.89
,-8.959,1.438,-4.585,-8.89,0.34,-4.451,-0.14,-17.29,-1.96
13553.0,-9.112,0.469,-4.614,-8.844,0.491,-3.936,5.74,-15.47,-4.27
,-9.05,-0.337,-4.288,-8.971,0.737,-3.905,6.37,-14.91,-5.11
,-8.973,0.297,-4.353,-9.091,0.979,-3.972,9.94,-13.86,-4.48
,-8.983,0.462,-4.489,-9.174,0.916,-4.137,12.6,-13.65,-3.57
13629.0,-9.04,0.828,-4.18,-9.162,0.534,-3.781,6.09,-16.73,-1.4
,-8.911,0.701,-3.96,-9.105,0.28,-3.905,5.46,-16.87,-1.75
,-8.973,0.668,-3.881,-9.002,-0.012,-3.879,5.67,-17.29,-2.24
,-8.993,0.72,-3.771,-9.088,-0.136,-3.491,4.34,-18.13,-2.31
13705.0,-9.129,0.141,-3.367,-9.225,0.9,-3.522,8.75,-20.02,-1.12
,-9.294,0.455,-3.324,-9.064,0.835,-3.467,10.57,-21.0,-1.54
,-9.136,0.895,-3.676,-9.203,0.828,-3.429,8.89,-21.63,-1.75
,-9.282,1.117,-3.766,-9.306,0.816,-3.513,6.23,-21.42,-0.84
13781.0,-9.052,0.718,-3.51,-9.27,0.44,-2.465,-1.54,-24.43,-4.27
,-9.083,0.476,-3.264,-9.378,0.589,-2.582,-1.61,-23.52,-4.62
,-9.194,0.383,-3.013,-9.301,0.658,-2.888,1.61,-22.12,-4.48
,-9.378,0.201,-2.513,-9.363,0.68,-3.206,3.22,-21.28,-4.34
13856.0,-9.34,0.397,-3.259,-9.253,0.235,-2.515,-5.18,-22.68,-3.85
,-9.215,0.273,-3.34,-9.392,0.043,-2.175,-3.64,-22.19,-3.85
,-9.198,0.261,-3.34,-9.545,-0.055,-2.252,-2.66,-22.12,-4.2
,-9.141,0.402,-3.02,-9.612,0.072,-3.113,-2.03,-21.63,-5.04
13932.0,-9.366,-0.168,-2.986,-9.789,0.653,-2.053,-4.2,-21.35,-2.1
,-9.256,-0.467,-2.546,-9.696,1.189,-2.587,1.33,-19.11,-0.98
,-9.356,-0.56,-2.355,-9.409,1.084,-2.429,7.49,-18.27,-0.84
,-9.519,-0.019,-1.764,-9.337,0.897,-2.486,13.23,-17.36,-1.12
14007.0,-9.378,0.491,-2.288,-9.706,0.579,-1.996,-0.77,-17.08,-3.01
,-9.435,0.68,-2.247,-9.768,0.481,-2.139,1.61,-16.73,-4.34
,-9.404,0.895,-1.955,-9.562,0.469,-2.319,2.66,-15.89,-5.04
,-9.488,0.699,-2.113,-9.373,0.412,-1.981,0.7,-16.17,-5.25
14083.0,-9.33,0.357,-1.697,-9.675,0.12,-1.572,4.83,-13.02,-4.9
,-9.639,0.383,-1.685,-9.608,0.235,-1.692,5.32,-12.46,-5.11
,-9.694,0.335,-1.594,-9.627,0.428,-1.883,3.22,-11.83,-5.25
,-9.596,0.182,-1.376,-9.555,0.493,-2.056,2.45,-10.99,-4.83
14159.0,-9.641,0.524,-2.319,-9.689,0.062,-1.883,3.99,-8.96,-4.83
,-9.533,0.493,-2.35,-9.648,0.134,-1.843,3.08,-9.03,-4.97
,-9.562,0.16,-1.874,-9.627,0.043,-1.548,5.11,-8.12,-4.62
,-9.679,0.038,-2.041,-9.66,-0.031,-1.651,7.7,-7.98,-4.62
14235.0,-9.538,-0.146,-1.369,-9.82,0.179,-1.261,11.2,-6.09,-3.43
,-9.524,-0.395,-1.046,-9.718,0.165,-1.596,11.69,-4.62,-2.94
,-9.596,-0.529,-0.596,-9.495,-0.208,-1.567,13.65,-3.08,-2.38
,-9.825,-0.081,-1.101,-9.586,-0.512,-1.618,13.79,-2.38,-2.17
14310.0,-9.603,-0.524,-1.56,-9.753,0.397,-1.481,4.27,1.54,-0.77
,-9.655,-0.412,-1.5,-9.715,0.373,-1.498,7.07,2.38,-0.28
,-9.677,-0.041,-1.316,-9.675,0.239,-1.675,8.61,3.22,0.0
,-9.763,0.27,-1.347,-9.694,0.0,-1.89,7.7,3.78,-0.07
14386.0,-9.667,-0.093,-1.957,-9.667,0.282,-2.137,0.35,5.81,-0.21
,-9.677,-0.11,-2.036,-9.696,0.256,-2.139,2.45,6.23,0.14
,-9.732,-0.019,-2.18,-9.73,0.141,-2.259,4.76,6.09,0.28
,-9.725,0.156,-2.134,-9.67,0.069,-2.237,5.67,5.95,0.21
14462.0,-9.677,0.036,-2.163,-9.732,0.187,-2.383,3.85,5.46,0.14
,-9.639,0.041,-2.271,-9.691,0.093,-2.556,3.92,4.9,-0.21
,-9.677,0.158,-2.185,-9.679,-0.05,-2.58,3.43,4.9,-0.28
,-9.701,0.244,-2.29,-9.651,-0.091,-2.632,2.87,4.76,-0.28
14538.0,-9.663,-0.036,-2.577,-9.608,0.031,-1.886,3.36,2.1,-0.21
,-9.648,0.156,-2.455,-9.78,0.146,-1.981,4.27,1.82,-0.07
,-9.679,0.182,-2.309,-9.761,0.144,-2.137,4.06,1.68,-0.07
,-9.679,0.084,-2.094,-9.562,0.034,-2.084,3.15,1.96,-0.14
14613.0,-9.586,-0.127,-2.091,-9.672,0.002,-2.149,0.0,1.68,-0.35
,-9.694,-0.172,-2.154,-9.703,-0.045,-2.187,1.4,1.68,-0.28
,-9.737,-0.079,-2.12,-9.643,-0.05,-2.185,2.8,1.75,-0.21
,-9.756,0.081,-2.144,-9.636,-0.103,-2.067,3.15,1.61,-0.07
14689.0,-9.744,-0.055,-2.044,-9.689,0.189,-2.089,4.83,1.82,0.21
,-9.713,0.024,-1.955,-9.694,0.129,-2.223,5.32,1.82,0.07
,-9.763,0.134,-1.996,-9.686,0.014,-2.357,5.18,1.89,0.0
,-9.672,0.206,-2.084,-9.71,-0.079,-2.4,4.06,1.89,0.0
14765.0,-9.636,-0.156,-2.328,-9.746,0.089,-1.969,2.73,1.47,-0.07
,-9.596,-0.208,-2.225,-9.694,0.201,-1.96,3.78,1.54,0.28
,-9.615,-0.215,-2.027,-9.744,0.144,-2.065,4.97,1.75,0.56
,-9.734,-0.081,-2.034,-9.691,0.043,-2.185,5.88,1.68,0.63
14840.0,-9.658,-0.112,-2.144,-9.703,0.055,-2.216,0.98,1.89,0.14
,-9.586,-0.168,-2.249,-9.639,0.11,-2.158,1.96,1.75,0.35
,-9.627,-0.232,-2.067,-9.663,0.029,-2.223,3.08,2.03,0.63
,-9.744,-0.158,-2.168,-9.624,-0.136,-2.175,4.62,1.89,0.7
14916.0,-9.701,-0.261,-2.067,-9.691,0.136,-2.221,1.89,1.75,0.77
,-9.701,-0.086,-2.113,-9.682,0.074,-2.333,3.71,1.68,0.98
,-9.706,-0.002,-2.065,-9.655,0.01,-2.402,4.06,1.68,0.91
,-9.71,0.117,-2.163,-9.67,-0.086,-2.424,3.57,1.33,0.84
14992.0,-9.706,-0.11,-2.419,-9.734,0.141,-1.938,1.96,0.49,1.05
,-9.66,-0.168,-2.271,-9.763,0.278,-2.015,3.01,0.42,1.19
,-9.641,-0.175,-2.118,-9.703,0.215,-2.084,4.27,0.49,1.47
,-9.67,-0.041,-2.015,-9.629,0.0,-2.103,5.32,0.49,1.47
15068.0,-9.66,-0.156,-2.144,-9.722,0.134,-2.01,0.42,0.35,1.05
,-9.706,-0.199,-2.173,-9.696,0.17,-2.18,2.17,0.35,1.12
,-9.627,-0.098,-2.134,-9.718,0.067,-2.13,4.06,0.63,1.26
,-9.682,0.034,-2.168,-9.691,-0.067,-2.218,5.11,0.42,1.33
15143.0,-9.653,-0.101,-2.206,-9.696,-0.038,-1.816,2.87,0.14,1.12
,-9.696,-0.014,-2.173,-9.722,0.024,-1.85,4.34,0.14,1.12
,-9.672,0.038,-2.024,-9.689,0.177,-1.802,4.97,0.49,1.33
,-9.667,-0.041,-2.01,-9.694,0.187,-1.799,4.83,0.42,1.26
15219.0,-9.653,0.213,-1.855,-9.675,0.031,-1.771,3.29,1.82,0.77
,-9.696,0.005,-2.017,-9.682,0.043,-1.749,2.59,2.03,0.77
,-9.631,0.065,-1.84,-9.648,0.12,-1.919,2.94,2.45,0.91
,-9.665,-0.007,-1.771,-9.631,-0.055,-1.874,2.17,2.66,0.7
15295.0,-9.691,-0.055,-1.9,-9.581,-0.096,-1.914,0.07,3.99,0.42
,-9.684,-0.019,-2.087,-9.691,0.007,-1.811,0.14,3.99,0.35
,-9.643,0.038,-2.149,-9.746,0.148,-1.823,-0.35,4.27,0.56
,-9.586,-0.079,-1.974,-9.727,0.206,-1.893,-0.35,4.48,0.56
15371.0,-9.703,0.165,-2.082,-9.627,0.077,-1.268,-1.75,6.09,0.91
,-9.572,-0.024,-1.998,-9.751,0.282,-1.225,-3.64,6.79,1.26
,-9.538,-0.139,-1.771,-9.818,0.428,-1.512,-3.01,7.63,1.61
,-9.548,-0.146,-1.426,-9.787,0.325,-2.094,-1.05,8.75,1.96
15446.0,-9.572,-0.014,-2.338,-9.675,0.053,-1.307,-17.5,10.99,2.03
,-9.423,-0.625,-2.154,-10.057,0.467,-1.941,-17.92,11.83,2.59
,-9.495,-0.964,-1.665,-9.859,0.833,-2.546,-11.9,12.88,3.29
,-9.567,-0.639,-1.474,-9.478,0.163,-2.225,-4.48,13.23,3.57
15522.0,-9.043,-0.488,-2.053,-9.885,1.512,-2.632,-23.38,8.89,4.55
,-9.124,-1.01,-1.553,-9.517,1.874,-3.226,-15.96,11.62,5.25
,-9.141,-0.613,-0.699,-9.162,1.082,-3.695,-1.89,16.52,5.6
,-10.225,0.364,-1.503,-8.99,-0.249,-3.364,6.23,15.54,4.97
15597.0,-9.32,-1.153,-2.462,-9.387,0.639,-2.216,-24.43,16.38,5.95
,-9.658,-1.18,-2.302,-9.541,1.0,-1.732,-11.97,16.38,5.74
,-9.512,-0.617,-2.067,-9.55,1.295,-2.434,-1.33,16.1,5.25
,-9.603,0.211,-2.12,-9.799,1.646,-2.642,5.81,17.01,5.39
15673.0,-9.868,1.33,-3.807,-9.454,-0.175,-2.266,-12.88,16.52,4.62
,-9.251,0.873,-3.9,-9.385,0.06,-2.249,-19.6,17.01,4.2
,-9.043,0.022,-3.489,-9.301,0.304,-2.211,-19.53,18.27,3.92
,-9.208,-0.546,-2.321,-9.155,0.168,-2.132,-12.6,19.18,3.22
15749.0,-9.308,0.017,-2.067,-9.351,0.739,-3.692,0.77,22.61,3.71
,-9.371,0.235,-2.036,-9.04,-0.045,-3.443,3.01,24.08,3.64
,-9.541,0.598,-2.345,-8.691,-0.452,-3.273,5.32,23.59,3.85
,-9.562,0.926,-3.376,-8.997,-0.593,-2.582,3.57,21.49,4.13
15825.0,-9.222,-0.491,-2.367,-9.363,1.101,-4.092,10.36,26.18,3.85
,-9.466,0.048,-2.453,-8.847,1.055,-4.551,15.68,26.6,4.27
,-9.758,0.696,-3.221,-8.78,0.864,-4.518,15.89,25.48,4.69
,-9.672,1.0,-3.929,-9.012,0.342,-4.202,11.2,24.43,4.69
15901.0,-9.174,0.06,-4.192,-9.464,0.11,-3.317,3.64,23.94,3.78
,-9.119,-0.213,-3.79,-9.574,0.388,-3.733,6.44,25.34,3.36
,-9.134,-0.153,-3.434,-9.514,0.191,-4.453,9.24,26.46,3.43
,-9.165,-0.045,-3.039,-9.198,0.196,-4.633,12.6,27.16,4.27
15976.0,-8.973,0.29,-4.532,-9.229,0.577,-3.647,11.13,19.11,5.95
,-8.856,0.66,-4.547,-9.399,0.225,-3.618,12.88,18.69,4.97
,-8.734,0.723,-4.422,-9.316,0.184,-3.618,11.76,19.25,4.41
,-8.844,0.72,-4.156,-9.172,0.134,-3.982,8.47,19.6,4.76
16052.0,-8.928,0.402,-4.195,-8.966,1.074,-4.427,3.36,17.99,8.33
,-8.981,0.73,-4.343,-9.203,0.885,-3.896,6.23,17.85,7.7
,-8.878,1.0,-4.48,-9.028,0.67,-3.934,6.65,17.85,6.65
,-9.012,1.161,-4.46,-8.961,0.51,-3.778,5.18,17.92,6.09
16128.0,-9.033,0.333,-3.855,-8.825,1.292,-4.81,-0.7,16.66,5.46
,-8.981,0.273,-4.125,-8.722,1.938,-4.951,0.77,16.52,5.88
,-9.1,0.354,-4.214,-8.804,2.185,-4.688,2.87,16.03,6.44
,-8.93,0.603,-4.508,-8.804,2.266,-4.568,5.25,14.7,5.81
16204.0,-9.045,1.996,-4.322,-8.997,-0.11,-4.441,-2.59,14.14,-2.8
,-8.973,1.519,-4.496,-8.981,-0.388,-4.661,-6.58,14.21,-2.8
,-8.909,1.048,-4.597,-8.808,-0.641,-4.901,-6.86,13.86,-3.5
,-8.746,0.45,-4.563,-8.748,-0.639,-4.898,-4.48,13.51,-4.41
16279.0,-8.818,-0.792,-4.676,-8.847,-1.431,-4.542,9.66,13.86,1.19
,-8.607,-0.991,-4.681,-8.787,-1.237,-4.298,8.26,13.16,3.22
,-9.17,-0.993,-4.515,-8.586,-0.775,-4.573,6.44,13.79,4.83
,-9.007,-1.24,-4.566,-8.557,0.182,-4.712,5.46,13.37,6.79
16355.0,-8.516,0.926,-4.879,-8.885,1.687,-5.231,11.97,12.74,11.97
,-8.67,1.472,-4.901,-8.737,1.668,-5.298,8.96,12.81,11.13
,-8.923,1.591,-4.932,-8.748,1.448,-5.2,6.02,12.53,10.15
,-8.882,1.649,-5.083,-8.612,1.06,-4.793,4.34,11.83,9.17
16430.0,-8.646,0.622,-4.872,-8.854,0.873,-5.039,4.27,9.24,3.36
,-8.648,0.27,-4.697,-8.804,1.192,-5.087,5.88,9.31,3.43
,-8.658,0.132,-4.815,-8.488,1.256,-5.193,9.66,8.96,3.5
,-8.677,0.467,-4.891,-8.528,0.916,-5.145,12.81,8.12,2.94
16506.0,-8.538,0.452,-5.049,-8.557,-0.203,-5.03,0.21,5.53,0.28
,-8.684,0.096,-5.073,-8.557,0.16,-5.126,-0.14,5.74,0.07
,-8.866,-0.045,-5.056,-8.734,0.66,-5.276,0.98,5.53,0.49
,-8.71,-0.302,-4.972,-8.837,0.737,-5.279,2.87,5.11,1.33
16582.0,-8.684,0.397,-5.068,-8.459,0.83,-4.81,5.67,1.89,2.87
,-8.619,0.337,-4.874,-8.648,1.017,-4.817,6.79,1.75,2.94
,-8.591,0.517,-4.908,-8.686,1.307,-4.97,7.07,1.89,3.5
,-8.435,0.524,-4.905,-8.552,1.541,-5.209,6.37,2.38,3.78
16658.0,-8.583,1.474,-5.245,-8.658,1.108,-5.473,3.08,1.68,2.31
,-8.547,1.352,-5.173,-8.741,0.902,-5.449,1.75,1.61,1.61
,-8.605,1.283,-5.25,-8.658,0.486,-5.525,0.35,1.61,1.12
,-8.603,1.139,-5.303,-8.622,0.148,-5.351,-0.56,1.61,0.42
16733.0,-8.495,0.019,-5.248,-8.777,0.775,-5.288,-0.49,-0.91,0.21
,-8.48,0.251,-5.193,-8.605,0.464,-5.123,1.12,-1.26,0.21
,-8.65,0.639,-5.446,-8.466,0.151,-4.958,1.89,-2.03,-0.14
,-8.77,0.847,-5.363,-8.61,-0.108,-4.848,0.63,-2.8,-0.14
16809.0,-8.796,-0.127,-4.879,-8.638,1.01,-5.171,-1.82,-2.87,2.1
,-8.873,0.287,-4.963,-8.717,1.034,-5.013,0.7,-3.15,2.1
,-8.899,0.546,-4.987,-8.789,0.751,-4.81,2.17,-3.78,2.03
,-8.772,0.861,-4.97,-8.839,0.828,-4.793,2.52,-4.69,1.75
16885.0,-8.734,1.036,-4.898,-8.973,0.581,-4.755,-3.01,-6.23,0.49
,-8.629,1.019,-4.905,-8.976,0.297,-4.748,-2.66,-6.37,-0.28
,-8.626,0.928,-4.934,-8.847,-0.007,-4.63,-3.64,-6.51,-0.77
,-8.739,0.838,-4.795,-8.662,-0.12,-4.537,-3.85,-6.72,-1.12
16961.0,-8.519,0.038,-4.642,-8.882,0.983,-5.004,0.21,-7.84,1.19
,-8.753,0.474,-4.652,-8.794,0.689,-4.91,2.17,-8.19,1.26
,-8.823,0.974,-4.788,-8.873,0.347,-4.463,2.24,-8.75,0.98
,-8.89,1.062,-4.826,-8.868,0.5,-4.779,-0.63,-9.03,1.05
17037.0,-8.784,0.768,-5.128,-8.887,0.325,-4.862,-5.32,-10.92,0.7
,-8.837,0.778,-5.013,-8.835,0.206,-4.831,-4.34,-11.41,-0.35
,-8.928,0.62,-4.74,-8.856,0.321,-4.714,-4.34,-11.76,-1.33
,-8.839,0.589,-4.937,-9.079,0.632,-4.625,-4.83,-11.48,-1.68
17112.0,-8.861,0.902,-4.841,-8.794,0.864,-5.03,9.87,-13.23,-2.38
,-8.856,1.007,-4.671,-8.866,0.555,-4.745,9.73,-13.3,-2.8
,-9.012,0.945,-4.46,-8.827,0.531,-4.762,8.33,-13.79,-3.36
,-9.048,0.902,-4.661,-8.88,0.648,-4.743,6.86,-14.49,-3.29
17188.0,-8.789,0.787,-4.685,-9.0,0.543,-4.456,14.21,-15.54,-3.36
,-8.866,0.782,-4.628,-9.072,0.44,-4.41,15.33,-15.12,-3.43
,-8.815,0.749,-4.52,-8.93,0.586,-4.336,15.89,-14.77,-3.29
,-8.985,0.627,-4.401,-8.861,0.165,-4.106,14.91,-14.56,-2.94
17263.0,-9.019,0.522,-4.085,-8.995,0.364,-3.769,13.51,-17.22,-0.7
,-9.105,0.232,-3.972,-9.083,0.692,-3.726,12.88,-17.36,1.19
,-9.009,0.122,-3.977,-9.15,0.909,-3.802,12.67,-17.78,2.03
,-8.981,0.175,-3.762,-9.148,0.885,-3.752,13.93,-17.92,2.59
17339.0,-9.103,0.773,-3.659,-9.299,1.354,-3.104,10.36,-20.37,2.52
,-8.971,0.694,-3.436,-9.222,1.543,-2.95,9.87,-20.09,1.89
,-8.995,0.742,-3.187,-9.232,1.496,-3.049,11.34,-19.32,0.98
,-9.258,1.017,-2.989,-9.148,1.139,-3.003,12.46,-20.02,-0.14
17415.0,-8.851,0.546,-2.702,-9.284,0.682,-3.156,-6.72,-20.79,-2.73
,-9.277,0.421,-2.85,-9.368,0.782,-3.374,-1.33,-20.93,-3.36
,-9.201,0.61,-3.238,-9.383,0.704,-3.431,0.63,-21.0,-4.34
,-9.043,0.536,-2.831,-9.34,0.45,-3.273,1.47,-19.95,-5.32
17491.0,-9.275,0.342,-3.269,-9.277,0.237,-2.876,-5.81,-21.84,-8.26
,-9.284,0.309,-3.35,-9.533,0.242,-3.206,-5.32,-21.84,-9.1
,-9.407,0.345,-3.288,-9.296,0.249,-3.242,-6.09,-21.35,-9.1
,-9.296,0.304,-3.013,-9.294,-0.258,-3.001,-5.67,-20.79,-8.4
17566.0,-9.292,-0.412,-2.948,-9.435,0.354,-2.517,-3.85,-21.84,-5.39
,-9.354,-0.553,-2.639,-9.543,0.402,-2.548,1.89,-20.93,-4.48
,-9.471,-0.347,-2.568,-9.469,0.486,-2.532,6.3,-20.65,-4.06
,-9.543,0.019,-2.462,-9.414,0.55,-2.52,9.73,-21.07,-3.64
17642.0,-9.459,0.55,-2.204,-9.517,0.33,-1.876,3.43,-19.74,-3.5
,-9.505,0.627,-2.247,-9.557,0.153,-1.852,4.06,-19.88,-4.34
,-9.474,0.648,-2.245,-9.586,-0.043,-1.388,3.36,-19.46,-4.83
,-9.476,0.306,-1.833,-9.725,0.179,-1.747,2.38,-18.48,-4.83
17717.0,-9.627,0.347,-1.84,-9.564,-0.029,-1.948,7.63,-15.4,-4.55
,-9.603,0.459,-2.249,-9.677,0.112,-2.056,4.41,-15.54,-4.97
,-9.442,0.242,-1.962,-9.572,0.206,-1.902,1.26,-14.49,-5.11
,-9.5,-0.055,-2.101,-9.67,0.23,-1.685,0.28,-13.86,-5.04
17793.0,-9.713,0.141,-1.893,-9.576,0.007,-1.24,4.06,-11.55,-4.55
,-9.71,0.134,-2.044,-9.56,0.074,-0.814,3.5,-11.9,-4.9
,-9.5,0.177,-1.74,-9.756,0.156,-1.156,3.92,-11.27,-4.97
,-9.488,0.115,-1.321,-9.856,0.33,-1.874,6.23,-9.66,-4.34
17869.0,-9.785,0.328,-2.175,-9.684,-0.007,-1.493,-1.33,-7.91,-4.83
,-9.564,0.089,-1.969,-9.775,0.29,-1.651,-3.36,-6.93,-4.41
,-9.526,-0.246,-1.993,-9.864,0.333,-1.744,-0.42,-5.81,-3.92
,-9.495,-0.177,-1.57,-9.892,0.199,-1.989,5.39,-5.04,-3.78
17945.0,-9.734,-0.081,-2.012,-9.667,-0.16,-1.472,1.96,-4.83,-4.55
,-9.658,-0.235,-1.945,-9.801,-0.11,-1.4,3.43,-4.83,-4.13
,-9.514,-0.4,-1.721,-9.78,0.079,-1.448,7.07,-3.99,-3.57
,-9.584,-0.33,-1.582,-9.806,-0.069,-1.211,11.34,-3.57,-3.5
18021.0,-9.742,-0.086,-1.266,-9.708,-0.081,-1.539,8.19,-0.7,-2.73
,-9.653,-0.112,-1.259,-9.813,-0.146,-1.57,7.42,0.28,-2.52
,-9.682,-0.11,-1.261,-9.852,-0.06,-1.895,7.07,1.19,-2.17
,-9.667,-0.002,-1.34,-9.73,0.062,-2.084,6.65,1.82,-2.17
18096.0,-9.677,-0.112,-2.024,-9.73,-0.103,-2.084,1.05,2.87,-2.03
,-9.655,-0.258,-1.819,-9.761,-0.266,-2.099,2.73,3.08,-1.75
,-9.715,-0.151,-2.056,-9.775,-0.33,-2.213,3.99,2.38,-1.96
,-9.761,-0.093,-2.041,-9.667,-0.323,-2.115,4.2,2.1,-2.03
18172.0,-9.61,-0.297,-1.919,-9.696,-0.16,-1.448,6.23,1.19,-0.63
,-9.718,-0.325,-1.764,-9.813,-0.177,-1.524,7.14,1.05,-0.49
,-9.667,-0.213,-1.627,-9.706,-0.144,-1.572,7.21,1.05,-0.7
,-9.734,-0.144,-1.62,-9.667,-0.179,-1.546,6.72,1.47,-0.56
18248.0,-9.665,-0.282,-1.589,-9.773,-0.132,-1.663,2.87,3.22,-0.21
,-9.658,-0.4,-1.512,-9.725,-0.105,-1.78,4.2,3.85,0.07
,-9.789,-0.34,-1.548,-9.689,-0.031,-1.869,5.53,4.27,0.21
,-9.777,-0.263,-1.61,-9.799,0.031,-2.158,6.37,4.55,0.35
18324.0,-9.751,-0.055,-2.237,-9.753,-0.39,-2.077,1.96,4.13,0.0
,-9.665,-0.158,-2.331,-9.799,-0.086,-2.166,1.26,4.06,0.0
,-9.686,-0.357,-2.283,-9.775,0.093,-2.242,2.31,4.13,0.28
,-9.67,-0.459,-2.187,-9.725,0.069,-2.199,3.78,3.64,0.28
18399.0,-9.667,-0.112,-2.156,-9.761,-0.213,-2.027,0.98,1.4,0.0
,-9.682,-0.302,-2.19,-9.727,-0.093,-1.855,0.84,1.19,0.0
,-9.694,-0.38,-2.213,-9.751,0.007,-1.864,2.31,0.91,0.0
,-9.739,-0.302,-2.111,-9.742,-0.048,-1.74,3.78,0.84,0.21
18475.0,-9.696,-0.156,-1.749,-9.691,-0.242,-1.876,1.26,0.98,0.21
,-9.689,-0.306,-1.73,-9.691,-0.306,-1.783,1.33,1.19,0.28
,-9.806,-0.306,-1.809,-9.675,-0.29,-1.744,2.1,1.12,0.21
,-9.72,-0.208,-1.871,-9.753,-0.144,-1.711,2.59,1.05,0.28
18550.0,-9.758,-0.081,-1.713,-9.722,-0.28,-1.874,3.71,2.45,0.63
,-9.746,-0.122,-1.656,-9.722,-0.251,-1.893,2.31,2.87,0.7
,-9.739,-0.177,-1.73,-9.646,-0.266,-1.893,1.68,2.94,0.56
,-9.73,-0.227,-1.811,-9.698,-0.23,-1.859,1.4,3.01,0.35
18626.0,-9.763,-0.156,-1.78,-9.703,-0.261,-2.079,3.92,3.92,0.77
,-9.816,-0.036,-1.809,-9.691,-0.287,-2.101,3.36,3.92,0.63
,-9.761,-0.029,-1.929,-9.713,-0.251,-2.075,1.47,3.71,0.35
,-9.725,-0.148,-2.053,-9.734,-0.179,-2.075,-0.21,3.78,0.35
18702.0,-9.777,-0.098,-2.213,-9.684,-0.347,-2.118,2.52,3.5,0.7
,-9.78,-0.034,-2.213,-9.715,-0.249,-2.252,1.54,2.94,0.49
,-9.713,-0.06,-2.245,-9.773,-0.187,-2.228,0.56,2.45,0.49
,-9.686,-0.098,-2.414,-9.777,-0.175,-2.149,-0.21,2.45,0.56
18778.0,-9.758,-0.148,-2.089,-9.682,-0.199,-2.032,1.82,1.12,0.77
,-9.706,-0.206,-2.046,-9.694,-0.23,-2.008,1.75,0.91,0.84
,-9.734,-0.206,-2.046,-9.73,-0.218,-2.005,1.89,0.91,0.77
,-9.725,-0.203,-2.024,-9.715,-0.237,-1.948,2.1,0.84,0.77
18853.0,-9.756,-0.244,-1.948,-9.706,-0.23,-1.847,1.54,0.63,0.91
,-9.753,-0.23,-1.953,-9.725,-0.179,-1.804,2.31,0.7,1.05
,-9.696,-0.139,-1.957,-9.727,-0.127,-1.804,2.1,0.63,0.98
,-9.684,-0.258,-1.878,-9.734,-0.17,-1.773,1.96,0.84,0.98
18929.0,-9.732,-0.148,-1.79,-9.742,-0.227,-1.965,2.73,1.75,1.05
,-9.708,-0.163,-1.869,-9.698,-0.168,-1.969,2.24,1.82,0.98
,-9.715,-0.199,-1.871,-9.698,-0.093,-1.933,1.96,1.89,0.91
,-9.694,-0.251,-1.938,-9.706,-0.089,-2.017,2.38,2.17,0.98
19005.0,-9.696,-0.144,-1.962,-9.734,-0.134,-2.335,1.12,2.17,0.63
,-9.677,-0.091,-2.065,-9.684,-0.237,-2.261,1.12,2.1,0.56
,-9.708,-0.16,-2.175,-9.703,-0.313,-2.096,0.7,1.89,0.49
,-9.713,-0.189,-2.144,-9.696,-0.208,-2.111,0.56,1.75,0.56
19081.0,-9.691,-0.22,-2.072,-9.667,-0.292,-1.929,2.1,0.98,1.05
,-9.698,-0.172,-2.046,-9.696,-0.28,-1.936,2.94,0.7,1.05
,-9.732,-0.124,-2.168,-9.718,-0.237,-1.953,2.24,0.28,0.98
,-9.703,-0.223,-1.948,-9.737,-0.055,-1.931,1.47,0.49,1.12
19157.0,-9.66,-0.103,-1.67,-9.658,-0.223,-1.898,1.96,1.05,1.33
,-9.698,-0.11,-1.977,-9.667,-0.235,-1.728,1.19,0.91,1.19
,-9.694,-0.129,-1.776,-9.629,-0.227,-1.598,0.63,0.98,1.26
,-9.675,-0.136,-1.823,-9.655,-0.242,-1.57,0.7,1.4,1.33
19232.0,-9.634,-0.323,-1.383,-9.646,-0.218,-1.05,1.61,3.5,1.75
,-9.672,-0.29,-1.333,-9.641,-0.201,-0.969,1.4,4.13,1.75
,-9.646,-0.347,-1.158,-9.658,-0.134,-0.974,0.77,4.97,1.89
,-9.615,-0.313,-1.022,-9.619,-0.196,-1.01,0.91,6.44,2.45
19308.0,-9.832,-0.175,-1.438,-9.777,-0.33,-2.223,-6.37,11.62,3.64
,-9.89,-0.134,-2.077,-9.777,-0.038,-2.431,-10.43,10.71,3.43
,-9.739,-0.256,-2.355,-9.734,0.354,-2.347,-12.53,10.15,3.36
,-9.495,-0.424,-2.005,-9.753,0.546,-2.194,-11.55,10.85,4.2
19383.0,-9.593,0.541,-1.828,-9.368,0.034,-0.948,-18.62,3.5,4.13
,-9.552,0.127,-1.237,-9.911,0.39,-1.46,-22.61,4.69,4.13
,-9.732,0.041,-0.905,-9.605,0.486,-2.788,-22.96,5.04,4.34
,-9.648,-0.041,-1.161,-9.351,0.476,-2.706,-22.75,5.6,4.41
19459.0,-9.167,0.342,-2.682,-9.579,0.96,-2.173,-26.04,14.14,5.25
,-9.007,0.01,-2.324,-9.73,1.304,-2.048,-23.38,16.8,5.18
,-9.347,0.005,-1.831,-9.825,1.053,-2.797,-17.5,19.11,4.55
,-9.667,0.483,-1.955,-9.411,0.613,-2.407,-12.74,19.39,3.15
19535.0,-9.89,-0.048,-2.769,-9.263,-1.108,-2.816,-31.64,17.01,2.31
,-9.574,-0.534,-3.257,-9.198,-0.969,-1.993,-29.05,16.1,2.59
,-9.584,-0.739,-3.305,-9.689,-0.455,-1.589,-21.56,16.59,2.94
,-9.184,-1.029,-3.247,-10.112,0.249,-2.496,-13.51,17.36,3.29
19611.0,-9.988,0.897,-3.063,-9.636,-0.969,-1.701,9.59,10.85,3.01
,-9.392,0.565,-3.577,-9.952,-0.172,-2.156,-0.35,11.34,4.34
,-8.847,-0.416,-3.281,-10.151,0.416,-2.489,-6.44,14.0,5.88
,-8.804,-0.995,-1.914,-9.521,0.421,-3.221,0.0,17.78,7.07
19686.0,-8.89,-0.294,-3.271,-9.753,0.589,-3.704,-11.41,13.23,10.5
,-8.935,-0.967,-2.199,-9.277,1.01,-4.267,-7.49,17.29,12.32
,-9.572,-0.909,-2.508,-8.789,0.94,-3.611,2.45,16.59,12.74
,-9.71,-0.117,-2.97,-9.347,1.003,-2.711,10.57,14.84,11.62
19762.0,-9.823,1.778,-3.664,-8.835,-0.299,-2.647,15.19,12.67,7.0
,-10.055,2.379,-3.826,-9.277,-1.043,-2.259,11.06,10.64,3.92
,-9.706,2.197,-3.845,-9.418,-1.132,-1.871,2.38,9.87,3.08
,-8.717,1.094,-3.556,-9.679,-0.589,-2.163,-7.0,12.11,3.36
19838.0,-9.682,-0.165,-2.587,-9.445,1.182,-3.202,17.43,16.38,7.21
,-9.402,0.689,-2.905,-9.765,0.95,-3.372,18.48,16.31,7.49
,-9.057,1.153,-3.329,-9.56,0.589,-3.565,16.66,16.94,7.07
,-9.024,1.314,-3.36,-9.06,0.034,-3.419,13.23,17.5,6.3
19914.0,-8.835,-0.55,-3.35,-9.363,-0.127,-3.484,-6.58,16.59,6.86
,-9.067,-0.988,-3.015,-9.055,0.531,-3.666,-2.59,17.99,7.7
,-9.483,-0.967,-3.171,-9.038,1.108,-3.702,4.9,17.78,8.12
,-9.517,-0.675,-3.264,-9.093,1.591,-3.465,11.55,17.64,8.54
19990.0,-9.122,1.945,-3.486,-9.316,1.086,-3.352,11.06,19.11,5.95
,-9.237,2.003,-3.429,-9.332,1.106,-3.582,5.67,18.69,5.18
,-9.277,1.488,-3.221,-9.349,1.352,-3.778,0.21,19.32,4.55
,-9.294,1.077,-3.12,-9.191,1.565,-3.96,-1.89,19.74,3.64
20065.0,-9.074,1.936,-3.965,-9.423,1.395,-3.932,9.94,16.94,-2.66
,-8.94,2.063,-4.228,-9.227,1.199,-4.341,7.7,16.94,-3.85
,-8.978,1.673,-4.039,-9.1,0.83,-4.185,2.87,17.22,-5.46
,-9.05,1.541,-4.152,-9.107,0.242,-4.178,-0.07,17.22,-6.51
20141.0,-9.227,-0.206,-3.958,-9.021,-1.46,-3.819,-4.69,14.84,-8.12
,-9.131,-0.311,-3.965,-9.026,-1.251,-4.197,-1.12,13.72,-6.93
,-8.995,-0.706,-4.099,-9.131,-0.464,-4.118,0.42,13.23,-4.76
,-8.878,-1.211,-3.946,-9.083,0.373,-4.413,0.49,13.86,-1.96
20216.0,-9.043,1.22,-4.836,-9.213,-1.125,-4.424,15.4,13.3,-1.68
,-9.146,1.039,-4.628,-8.971,-1.438,-4.245,8.68,12.46,-0.84
,-8.938,0.424,-4.762,-9.191,-1.137,-4.061,2.73,11.41,1.54
,-8.957,-0.474,-4.468,-9.043,-0.416,-4.207,-1.19,10.64,3.85
20292.0,-9.05,0.5,-4.336,-8.756,1.108,-4.781,22.47,10.36,3.57
,-8.933,1.35,-4.625,-8.902,0.263,-4.69,21.84,9.45,3.36
,-8.784,1.969,-4.999,-9.05,-0.665,-4.573,18.69,9.03,3.29
,-8.89,1.96,-5.157,-8.842,-1.613,-4.223,12.11,7.84,2.8
20368.0,-8.988,-1.804,-4.089,-8.878,-0.5,-4.46,9.03,7.84,7.91
,-9.179,-1.778,-4.238,-8.689,0.208,-4.867,13.51,7.0,9.66
,-9.21,-1.527,-4.137,-8.775,0.639,-5.011,16.8,6.58,11.13
,-9.112,-1.134,-4.013,-8.732,1.039,-5.035,18.48,6.16,13.09
20444.0,-8.708,1.378,-4.941,-8.866,2.381,-4.547,14.98,3.22,13.23
,-8.842,1.843,-4.499,-8.952,2.218,-4.642,13.23,3.29,10.99
,-8.909,2.048,-4.357,-9.079,1.998,-4.542,10.85,3.43,8.68
,-8.849,2.19,-4.441,-9.045,1.697,-4.58,10.01,3.36,6.65
20519.0,-8.71,1.134,-4.702,-8.854,0.165,-4.707,6.93,1.19,-1.19
,-8.641,0.751,-4.826,-8.909,0.065,-4.503,6.44,1.61,-1.47
,-8.897,0.488,-4.733,-8.935,-0.165,-4.578,6.09,1.61,-1.75
,-8.933,0.419,-4.692,-8.777,-0.361,-4.537,5.88,1.26,-1.75
20595.0,-8.789,-0.409,-4.484,-8.94,0.893,-4.836,2.52,1.61,1.61
,-8.918,-0.127,-4.738,-8.811,0.802,-4.745,2.45,1.19,2.38
,-8.868,0.337,-4.841,-8.861,0.761,-4.489,2.45,0.77,2.66
,-9.038,0.751,-4.846,-8.983,0.804,-4.542,1.68,0.42,2.45
20671.0,-8.878,0.754,-4.532,-8.885,1.218,-4.453,-3.08,-0.56,1.05
,-8.887,0.749,-4.434,-9.026,1.012,-4.216,-2.73,-0.56,1.05
,-8.763,0.905,-4.53,-9.024,0.565,-4.302,-2.24,-0.98,0.56
,-8.748,1.05,-4.453,-8.954,0.112,-4.195,-1.47,-1.26,-0.42
20747.0,-8.93,-0.136,-4.276,-8.861,0.682,-4.566,-8.12,-0.7,-1.47
,-8.969,-0.187,-4.097,-8.94,0.572,-4.448,-5.11,-0.35,-1.82
,-9.158,0.223,-4.015,-8.976,0.45,-4.336,-1.47,-0.63,-2.17
,-8.983,0.615,-4.475,-9.05,0.538,-4.295,-1.26,-1.96,-1.96
20822.0,-8.966,0.926,-4.499,-9.1,0.744,-4.401,-6.72,-2.8,-4.34
,-8.904,1.079,-4.575,-9.031,0.486,-4.422,-7.42,-2.66,-5.53
,-8.985,1.141,-4.649,-8.949,0.244,-4.681,-9.24,-2.94,-6.3
,-9.088,0.876,-4.439,-8.777,-0.026,-4.834,-10.64,-3.29,-6.79
20898.0,-8.77,-0.211,-4.707,-9.217,-0.256,-4.08,-6.79,-5.67,-5.25
,-8.935,-0.431,-4.439,-9.088,-0.172,-4.267,-4.41,-5.32,-4.62
,-9.067,-0.383,-4.386,-8.906,-0.045,-4.408,-2.59,-5.74,-4.2
,-9.105,-0.251,-4.302,-8.983,-0.16,-4.429,-1.05,-5.95,-3.57
20973.0,-9.081,-0.519,-4.149,-9.17,0.313,-4.377,-2.94,-7.07,0.63
,-9.098,-0.129,-4.204,-9.335,0.304,-4.109,1.33,-8.05,0.84
,-8.892,0.132,-4.446,-9.069,0.306,-4.257,4.41,-8.33,1.12
,-8.961,0.266,-4.484,-8.902,0.531,-4.451,4.76,-8.19,1.19
21049.0,-9.11,0.634,-4.434,-9.043,0.311,-4.089,8.12,-10.99,0.91
,-9.038,0.706,-4.575,-8.985,0.215,-4.087,7.77,-11.55,0.49
,-9.019,0.68,-4.602,-9.165,0.179,-3.843,6.93,-11.41,0.42
,-8.933,0.68,-4.597,-9.292,0.433,-3.955,7.21,-10.85,0.49
21125.0,-9.217,0.747,-3.953,-8.993,0.388,-3.802,12.95,-12.6,0.98
,-9.06,0.936,-4.015,-8.959,0.378,-3.802,12.53,-13.02,1.12
,-9.06,0.852,-3.989,-8.808,0.555,-4.219,10.36,-13.3,0.63
,-9.103,0.586,-3.97,-9.148,0.168,-3.685,8.54,-12.81,0.07
21201.0,-9.488,0.706,-3.838,-9.177,0.495,-3.613,12.67,-9.59,0.63
,-9.201,0.694,-3.8,-9.172,0.359,-3.604,11.76,-9.87,1.19
,-9.072,0.708,-3.853,-9.251,0.156,-3.553,10.57,-9.94,1.4
,-9.036,0.593,-3.726,-9.21,0.091,-3.491,9.45,-9.87,1.47
21277.0,-9.182,0.163,-3.312,-9.328,0.354,-3.173,9.66,-11.06,2.66
,-9.239,0.105,-3.063,-9.139,0.306,-3.101,11.13,-11.27,2.66
,-9.385,0.33,-2.924,-9.28,0.268,-2.989,12.25,-11.62,2.66
,-9.38,0.369,-3.123,-9.139,0.409,-3.111,10.01,-12.6,2.8
21352.0,-9.586,0.684,-3.039,-9.332,0.392,-3.214,7.21,-14.0,1.89
,-9.435,0.787,-3.364,-9.399,0.512,-3.199,5.6,-14.91,1.61
,-9.136,0.572,-3.113,-9.222,0.725,-3.305,2.52,-14.7,1.33
,-9.198,0.503,-3.218,-9.081,0.548,-3.037,2.59,-14.07,1.19
21428.0,-9.34,0.017,-2.486,-9.45,0.931,-3.108,3.71,-13.02,-0.42
,-9.442,0.421,-2.867,-9.363,0.754,-3.25,6.37,-13.3,-0.56
,-9.397,0.591,-2.9,-9.268,0.242,-2.69,7.77,-13.3,-0.91
,-9.423,0.835,-2.826,-9.275,-0.067,-2.601,7.56,-13.37,-1.68
21504.0,-9.435,-0.062,-2.395,-9.203,0.498,-2.891,3.85,-12.11,-2.59
,-9.548,0.179,-2.381,-9.411,0.311,-2.85,4.83,-12.04,-2.8
,-9.598,0.481,-2.613,-9.457,0.273,-2.728,3.92,-12.39,-2.59
,-9.378,0.759,-3.039,-9.531,0.555,-3.046,0.21,-12.46,-2.52
21580.0,-9.335,0.34,-2.745,-9.624,0.201,-1.95,-4.2,-11.27,-3.43
,-9.332,-0.266,-2.477,-9.581,0.73,-2.225,-3.85,-10.22,-2.52
,-9.445,-0.581,-2.218,-9.497,0.893,-2.721,-0.35,-9.73,-1.89
,-9.564,-0.383,-2.099,-9.39,0.57,-2.654,3.57,-9.24,-1.54
21655.0,-9.469,0.206,-3.099,-9.624,0.395,-2.335,-5.32,-7.98,-1.61
,-9.428,-0.005,-2.716,-9.541,0.471,-2.312,-2.52,-7.77,-2.31
,-9.562,0.053,-2.592,-9.452,0.469,-2.309,1.89,-7.14,-2.31
,-9.569,0.266,-2.469,-9.5,0.347,-2.398,3.99,-7.0,-2.1
21731.0,-9.639,0.184,-2.74,-9.619,0.452,-2.041,-3.22,-7.0,-2.59
,-9.517,0.069,-2.548,-9.646,0.589,-2.242,-3.64,-6.65,-2.66
,-9.569,0.134,-2.661,-9.574,0.634,-2.726,-1.33,-6.37,-2.31
,-9.526,0.328,-2.498,-9.397,0.383,-2.362,0.07,-6.16,-2.66
21806.0,-9.421,0.002,-2.374,-9.588,0.818,-2.108,-5.18,-5.25,-3.5
,-9.562,-0.002,-2.036,-9.526,0.321,-2.156,-0.77,-4.2,-3.15
,-9.603,0.359,-1.644,-9.536,-0.172,-2.359,3.29,-3.64,-3.43
,-9.758,0.771,-2.192,-9.562,-0.235,-2.154,2.31,-4.27,-3.85
21882.0,-9.591,-0.132,-1.989,-9.596,0.034,-1.718,4.62,-1.4,-3.08
,-9.55,0.187,-1.843,-9.497,-0.053,-1.685,5.95,-0.91,-2.87
,-9.663,0.258,-1.864,-9.567,-0.031,-1.625,5.04,-0.28,-2.8
,-9.66,0.141,-1.761,-9.698,0.132,-1.78,3.92,0.14,-2.73
21958.0,-9.66,0.354,-1.936,-9.514,-0.237,-2.209,2.8,4.41,-2.03
,-9.548,0.215,-2.175,-9.485,-0.249,-2.13,0.35,4.83,-1.96
,-9.509,-0.074,-2.194,-9.691,-0.034,-2.142,0.07,5.88,-1.68
,-9.512,-0.139,-2.355,-9.72,0.211,-2.273,1.54,6.16,-1.33
22034.0,-9.588,0.239,-2.381,-9.562,0.089,-2.776,1.47,6.86,-0.77
,-9.421,-0.014,-2.536,-9.603,0.266,-2.793,-0.77,7.0,-0.49
,-9.543,-0.146,-2.687,-9.679,0.266,-2.857,-0.56,7.07,-0.42
,-9.653,-0.062,-2.816,-9.605,0.275,-2.977,1.12,6.86,-0.28
22110.0,-9.517,0.103,-3.082,-9.536,0.096,-3.034,0.63,4.2,-0.42
,-9.564,-0.146,-3.092,-9.586,0.098,-2.86,1.96,3.5,-0.28
,-9.624,-0.079,-3.209,-9.653,0.103,-2.84,4.2,2.59,-0.14
,-9.586,-0.024,-3.18,-9.588,0.11,-2.687,5.88,1.68,-0.07
22185.0,-9.552,0.139,-2.704,-9.545,-0.055,-2.601,4.9,-0.84,-0.21
,-9.593,0.036,-2.682,-9.524,-0.211,-2.414,4.55,-1.26,-0.35
,-9.529,0.055,-2.663,-9.627,-0.136,-2.391,4.41,-1.4,-0.35
,-9.581,0.034,-2.625,-9.655,0.077,-2.331,4.41,-1.61,-0.35
22261.0,-9.598,0.112,-2.225,-9.567,0.05,-1.847,4.27,-1.26,0.0
,-9.538,0.103,-2.182,-9.653,0.055,-1.859,3.29,-0.7,0.14
,-9.531,0.055,-2.056,-9.634,0.065,-1.941,2.87,-0.28,0.07
,-9.529,0.024,-1.938,-9.579,-0.038,-1.948,3.01,0.07,0.14
22337.0,-9.591,-0.048,-2.144,-9.555,0.084,-2.603,1.47,3.43,0.35
,-9.603,-0.014,-2.209,-9.562,-0.024,-2.742,1.96,3.92,0.49
,-9.586,0.146,-2.369,-9.631,-0.081,-2.663,2.38,3.99,0.49
,-9.581,0.158,-2.498,-9.603,0.103,-2.931,1.61,4.2,0.42
22413.0,-9.67,0.026,-2.998,-9.667,0.172,-2.723,3.22,2.8,0.35
,-9.493,-0.026,-3.065,-9.598,0.177,-2.687,3.15,2.45,0.56
,-9.545,-0.067,-2.941,-9.634,0.098,-2.673,4.13,1.96,0.7
,-9.612,0.05,-2.893,-9.517,-0.081,-2.58,5.39,1.4,0.7
22488.0,-9.497,-0.136,-2.407,-9.572,0.069,-2.556,4.2,0.42,0.7
,-9.588,-0.089,-2.381,-9.622,-0.065,-2.603,5.32,0.28,0.7
,-9.581,0.05,-2.383,-9.591,-0.206,-2.438,5.53,0.0,0.56
,-9.572,0.187,-2.453,-9.627,-0.16,-2.496,4.62,0.07,0.56
22564.0,-9.61,-0.029,-2.525,-9.608,0.115,-2.46,5.74,0.42,1.12
,-9.564,0.072,-2.455,-9.502,-0.05,-2.4,5.32,0.42,1.05
,-9.617,0.098,-2.388,-9.576,-0.115,-2.335,4.69,0.63,1.12
,-9.619,0.194,-2.486,-9.701,0.048,-2.338,3.71,0.7,0.98
22639.0,-9.672,0.254,-2.422,-9.639,-0.086,-2.541,4.55,1.12,0.98
,-9.572,0.201,-2.474,-9.555,-0.101,-2.484,2.73,1.26,0.91
,-9.588,0.002,-2.441,-9.6,-0.079,-2.41,1.68,1.4,0.84
,-9.596,-0.048,-2.479,-9.634,0.057,-2.436,1.89,1.47,0.77
22715.0,-9.572,0.215,-2.379,-9.591,0.098,-2.551,3.85,2.1,1.12
,-9.596,0.239,-2.345,-9.548,-0.091,-2.587,2.8,1.96,0.91
,-9.624,0.263,-2.359,-9.61,-0.141,-2.618,2.17,2.24,0.84
,-9.639,0.17,-2.46,-9.6,0.002,-2.692,1.4,2.1,0.63
22791.0,-9.579,0.081,-2.635,-9.622,0.096,-2.436,3.71,1.75,0.91
,-9.593,0.079,-2.606,-9.596,0.117,-2.388,3.08,1.68,0.84
,-9.588,0.053,-2.515,-9.648,0.129,-2.417,2.8,1.54,0.77
,-9.641,0.089,-2.45,-9.665,0.153,-2.508,2.94,1.54,0.84
22867.0,-9.574,0.062,-2.556,-9.603,0.062,-2.503,0.77,1.61,0.35
,-9.517,-0.06,-2.606,-9.562,0.057,-2.469,0.84,1.61,0.42
,-9.612,-0.069,-2.615,-9.615,0.057,-2.443,1.61,1.47,0.42
,-9.6,0.022,-2.618,-9.581,0.067,-2.407,2.31,1.4,0.42
22942.0,-9.581,0.05,-2.426,-9.576,0.098,-2.4,1.68,1.54,0.35
,-9.588,0.024,-2.434,-9.622,0.029,-2.41,2.17,1.68,0.28
,-9.598,0.136,-2.448,-9.6,0.055,-2.465,2.24,1.68,0.21
,-9.581,0.105,-2.431,-9.636,0.074,-2.493,1.89,1.82,0.21
23018.0,-9.596,0.045,-2.517,-9.596,-0.024,-2.565,1.26,1.96,0.0
,-9.5,-0.043,-2.536,-9.61,0.012,-2.584,1.19,2.03,0.07
,-9.531,-0.096,-2.532,-9.639,-0.014,-2.678,1.89,2.1,0.21
,-9.612,-0.072,-2.551,-9.636,-0.026,-2.694,2.8,1.89,0.35
23093.0,-9.555,-0.062,-2.635,-9.584,0.108,-2.702,2.59,1.19,0.63
,-9.564,-0.093,-2.675,-9.536,0.002,-2.62,3.5,1.19,0.77
,-9.605,0.048,-2.678,-9.579,-0.036,-2.632,4.34,0.98,0.77
,-9.629,0.089,-2.675,-9.641,-0.024,-2.546,4.13,0.56,0.77
23169.0,-9.598,0.022,-2.484,-9.615,-0.005,-2.295,3.92,-0.14,0.77
,-9.622,-0.062,-2.431,-9.572,0.081,-2.199,3.64,0.14,0.98
,-9.521,-0.098,-2.347,-9.598,0.112,-2.266,3.71,0.28,0.91
,-9.617,-0.038,-2.347,-9.639,0.184,-2.307,4.13,0.35,0.91
23245.0,-9.617,0.184,-2.395,-9.543,-0.165,-2.587,2.1,1.12,0.63
,-9.543,0.031,-2.52,-9.612,-0.024,-2.501,1.19,1.12,0.56
,-9.567,-0.045,-2.594,-9.643,0.089,-2.548,1.33,1.12,0.63
,-9.541,-0.144,-2.57,-9.531,0.242,-2.505,2.17,1.05,0.56
23321.0,-9.538,0.182,-2.469,-9.6,0.069,-2.321,0.98,0.91,0.21
,-9.584,0.06,-2.441,-9.612,0.074,-2.335,0.56,1.05,0.21
,-9.603,-0.012,-2.419,-9.629,0.091,-2.417,1.12,1.05,0.07
,-9.612,0.007,-2.391,-9.593,0.065,-2.35,1.82,1.12,0.21
23397.0,-9.588,-0.029,-2.489,-9.533,-0.182,-2.536,0.56,1.33,0.0
,-9.538,0.06,-2.491,-9.619,-0.175,-2.489,0.0,1.33,-0.14
,-9.641,0.026,-2.615,-9.6,0.005,-2.477,-0.21,1.19,-0.14
,-9.545,-0.017,-2.544,-9.593,0.225,-2.4,-0.14,1.47,0.07
23472.0,-9.66,0.27,-2.623,-9.612,-0.12,-2.692,-0.42,0.7,-0.14
,-9.615,0.069,-2.613,-9.591,0.038,-2.737,-2.03,0.56,-0.14
,-9.574,-0.108,-2.654,-9.617,0.144,-2.733,-1.96,0.35,-0.14
,-9.567,-0.235,-2.627,-9.608,0.194,-2.886,0.0,0.35,0.14
23548.0,-9.689,0.041,-2.938,-9.622,-0.105,-2.936,0.14,-2.24,0.07
,-9.646,-0.055,-3.022,-9.651,0.022,-2.781,-0.14,-3.15,0.14
,-9.55,-0.11,-3.061,-9.622,0.05,-2.644,0.42,-3.78,0.28
,-9.526,-0.172,-2.96,-9.596,0.034,-2.491,2.1,-4.27,0.49
23624.0,-9.663,-0.005,-2.431,-9.667,0.11,-1.816,3.99,-6.44,1.26
,-9.6,-0.055,-2.304,-9.624,0.103,-1.677,4.41,-6.65,1.33
,-9.584,-0.005,-2.158,-9.576,0.041,-1.35,4.83,-6.3,1.61
,-9.593,0.041,-2.02,-9.502,0.017,-0.969,5.18,-5.81,1.82
23700.0,-9.608,0.067,-0.766,-9.639,-0.416,-0.591,2.03,0.49,2.52
,-9.643,0.124,-0.581,-9.67,-0.536,-1.196,1.19,2.59,2.8
,-9.593,0.079,-0.493,-9.552,-0.56,-1.412,-1.26,4.97,2.94
,-9.55,-0.136,-0.397,-9.531,-0.732,-1.548,-3.43,7.35,3.22
23775.0,-9.407,-0.632,-1.766,-9.548,0.605,-1.531,3.22,15.33,6.02
,-9.38,-0.428,-1.539,-9.706,1.18,-1.996,8.05,16.8,6.37
,-9.505,-0.177,-1.486,-9.703,1.519,-3.52,10.71,17.29,6.3
,-9.541,0.179,-1.338,-9.718,0.909,-3.982,11.34,17.78,5.88
23851.0,-9.49,0.359,-4.302,-9.648,-0.117,-3.226,-26.88,11.2,4.9
,-9.268,-0.491,-3.989,-9.737,0.084,-3.343,-26.6,9.73,5.53
,-9.375,-0.885,-3.36,-9.521,0.065,-3.324,-19.74,8.19,5.46
,-9.497,-0.536,-3.226,-9.555,-0.084,-3.269,-11.27,6.16,4.97
23926.0,-9.375,-0.026,-2.654,-9.318,0.993,-4.176,3.64,7.84,6.51
,-9.797,0.438,-2.663,-8.947,-0.476,-3.484,8.89,6.79,5.88
,-9.675,1.247,-3.154,-9.34,-1.548,-2.898,8.4,4.06,3.78
,-9.797,1.732,-3.735,-9.438,-1.543,-2.345,2.8,2.73,2.24
24002.0,-9.756,-0.847,-1.594,-9.277,1.23,-3.049,23.17,8.26,4.2
,-9.943,0.357,-2.139,-9.04,0.907,-2.295,27.44,5.6,4.76
,-9.89,1.316,-2.752,-9.636,0.799,-2.151,20.65,3.57,4.9
,-9.552,1.555,-2.943,-9.636,0.916,-2.381,10.15,4.2,5.46
24078.0,-9.426,1.029,-2.386,-9.541,0.436,-2.245,0.63,7.0,1.12
,-9.464,0.723,-2.314,-9.464,0.452,-2.211,-2.38,8.26,0.84
,-9.514,0.675,-2.034,-9.39,0.531,-2.481,-3.36,7.91,0.28
,-9.416,0.56,-2.412,-9.347,0.574,-2.448,-2.94,7.63,-0.14
24154.0,-9.361,0.462,-2.362,-9.488,-0.955,-1.689,2.52,11.41,-1.12
,-9.44,0.263,-2.12,-9.485,-1.11,-2.245,1.26,11.41,-0.98
,-9.301,-0.151,-1.979,-9.354,-0.955,-2.551,-0.91,12.53,-0.63
,-9.284,-0.61,-1.871,-9.21,-0.457,-2.771,-1.26,14.42,-0.07
24229.0,-9.304,0.036,-2.781,-9.201,2.027,-3.338,13.44,17.22,4.41
,-9.476,0.885,-2.692,-9.045,1.57,-3.247,14.7,16.24,3.15
,-9.416,1.563,-3.202,-9.22,1.089,-2.871,10.78,14.98,1.68
,-9.395,1.984,-3.113,-9.284,0.771,-2.915,3.15,14.63,0.84
24305.0,-9.237,0.572,-2.529,-9.227,0.287,-3.604,-11.62,21.84,-2.52
,-9.469,0.371,-2.458,-8.969,0.378,-3.613,-8.61,21.77,-2.59
,-9.335,0.27,-2.862,-9.081,0.495,-3.829,-6.37,21.7,-2.24
,-9.387,0.249,-3.039,-9.292,0.684,-3.79,-3.43,22.54,-2.1
24381.0,-9.445,0.725,-3.697,-9.112,-0.093,-3.728,3.01,22.61,-5.32
,-9.416,0.773,-3.441,-9.301,-0.419,-3.793,0.28,22.12,-5.95
,-9.335,0.555,-3.281,-9.304,-0.44,-4.161,-3.92,21.07,-5.74
,-9.246,0.471,-3.431,-9.045,-0.438,-4.367,-7.28,20.02,-4.69
24457.0,-9.0,-0.294,-4.221,-9.139,0.144,-3.951,3.43,20.02,-1.61
,-8.933,-0.026,-4.207,-9.17,-0.29,-3.833,6.58,19.53,-1.47
,-9.237,0.098,-3.877,-9.016,-0.589,-3.836,8.54,18.83,-1.05
,-9.229,0.275,-3.994,-9.009,-0.244,-4.056,7.84,17.92,-0.42
24533.0,-9.098,0.304,-4.109,-9.033,1.515,-4.745,11.9,19.81,2.52
,-9.107,0.866,-4.147,-9.062,0.931,-4.891,14.7,19.18,-0.14
,-9.143,1.768,-4.322,-9.095,0.187,-4.8,14.91,18.13,-2.66
,-9.095,1.943,-4.59,-8.665,-0.699,-4.843,11.2,17.15,-4.13
24608.0,-9.287,-1.101,-4.585,-9.103,-0.263,-4.652,5.74,15.33,-2.1
,-9.261,-1.043,-4.767,-9.165,-0.244,-4.554,10.08,14.07,-2.59
,-9.426,-0.766,-4.563,-9.045,-0.323,-4.776,13.79,12.39,-3.22
,-9.227,-0.426,-4.558,-8.839,-0.335,-5.233,14.84,10.57,-2.52
24684.0,-8.983,-0.306,-5.489,-9.198,-1.199,-4.657,6.86,5.81,-1.4
,-8.607,-0.534,-5.537,-9.356,-1.127,-4.434,7.21,5.18,-0.14
,-8.792,-0.981,-5.272,-9.292,-1.273,-4.415,8.4,3.99,1.75
,-9.117,-1.242,-4.939,-9.007,-1.223,-4.532,8.47,2.73,3.36
24759.0,-8.902,-1.235,-4.31,-8.717,0.684,-4.69,15.61,-3.71,7.84
,-8.799,-0.675,-4.594,-8.576,0.156,-4.372,18.55,-3.5,8.19
,-8.945,0.213,-4.855,-8.701,-0.12,-4.087,20.16,-4.69,7.63
,-9.045,0.648,-4.736,-9.093,0.022,-3.927,18.9,-6.02,8.47
24835.0,-9.11,0.373,-3.953,-8.892,1.077,-4.288,11.9,-5.53,9.31
,-9.198,0.651,-4.037,-8.971,0.754,-4.166,11.69,-5.74,8.26
,-9.067,0.775,-3.948,-9.064,0.11,-3.975,10.29,-5.32,7.77
,-9.091,0.864,-3.891,-9.043,-0.237,-3.831,9.94,-5.88,7.49
24911.0,-8.899,-0.433,-3.85,-8.873,0.658,-4.245,4.76,-3.99,7.14
,-8.99,-0.108,-3.977,-8.959,0.677,-4.252,7.07,-3.36,7.35
,-9.079,0.201,-4.089,-9.038,0.794,-4.346,8.12,-3.29,7.14
,-9.005,0.433,-3.984,-9.079,0.828,-4.212,8.68,-3.15,6.93
24987.0,-8.988,0.926,-4.185,-8.868,0.433,-3.855,2.66,-0.91,4.83
,-8.961,0.79,-4.238,-8.918,0.211,-3.728,0.35,-1.12,4.9
,-8.966,0.66,-4.226,-8.887,0.038,-3.582,-1.68,-0.84,4.62
,-8.923,0.634,-4.154,-8.938,0.103,-3.771,-2.1,-0.35,4.2
25062.0,-8.921,0.134,-3.893,-9.249,0.474,-3.85,-6.65,2.66,6.37
,-9.036,0.146,-4.013,-9.021,0.849,-4.14,-6.44,3.36,6.72
,-9.088,0.194,-3.829,-8.961,0.871,-4.042,-6.86,3.85,7.0
,-9.28,0.263,-3.917,-8.949,0.503,-3.982,-6.93,3.92,7.21
25138.0,-8.973,0.139,-3.879,-9.11,1.177,-3.92,-9.59,4.41,3.92
,-9.196,0.275,-4.078,-9.179,1.496,-3.716,-7.84,4.76,3.85
,-9.268,0.438,-4.101,-9.244,1.9,-3.927,-5.32,4.69,3.29
,-9.153,0.826,-4.037,-9.127,1.809,-4.034,-2.94,4.13,1.82
25214.0,-8.938,1.357,-4.13,-9.253,-0.57,-4.377,-17.15,2.17,-2.73
,-9.005,0.981,-4.233,-9.115,-0.689,-4.403,-19.95,2.24,-2.59
,-9.064,0.311,-4.293,-9.201,-1.027,-4.276,-20.3,2.17,-2.52
,-9.057,-0.246,-4.413,-9.186,-0.919,-4.477,-17.99,2.24,-2.73
25290.0,-9.086,-0.579,-4.544,-9.16,0.072,-4.312,3.29,-0.77,-0.14
,-9.155,-0.237,-4.736,-8.997,0.323,-4.527,4.69,-2.1,1.68
,-9.127,0.053,-4.949,-8.89,0.402,-4.719,3.36,-3.43,2.45
,-9.05,0.163,-4.771,-9.139,0.471,-4.604,0.49,-4.13,2.1
25366.0,-9.323,0.591,-4.759,-9.009,0.603,-4.331,-1.33,-7.42,2.24
,-9.258,0.526,-4.688,-8.921,0.574,-4.527,1.19,-7.91,1.19
,-9.282,0.562,-4.417,-9.105,0.548,-4.355,4.34,-7.42,-0.49
,-9.576,0.687,-4.142,-9.277,0.345,-4.267,6.72,-10.15,-1.68
25441.0,-9.196,0.474,-4.405,-8.935,0.55,-3.965,7.07,-14.07,-0.42
,-8.99,0.536,-4.386,-9.222,0.577,-3.537,6.3,-14.0,-0.42
,-8.887,0.57,-4.298,-9.421,0.732,-3.467,5.88,-13.65,-0.77
,-8.825,0.553,-4.317,-9.234,0.893,-3.623,5.95,-12.6,-1.19
25517.0,-9.445,0.89,-3.431,-9.203,0.471,-3.486,5.32,-16.45,0.35
,-9.174,0.895,-3.757,-9.28,0.227,-3.484,4.34,-17.92,0.21
,-9.081,0.893,-3.853,-9.174,0.316,-3.408,3.22,-17.71,0.21
,-8.966,0.206,-3.408,-9.148,0.357,-3.321,3.78,-16.73,-1.89
25592.0,-9.191,0.522,-3.503,-9.189,0.476,-2.953,8.12,-14.91,-1.47
,-9.172,0.625,-3.573,-9.555,0.51,-2.79,8.26,-14.0,-2.03
,-9.115,0.512,-3.386,-9.385,0.665,-3.199,6.79,-12.81,-2.31
,-9.052,0.538,-3.242,-9.246,0.464,-3.077,6.72,-11.97,-2.1
25668.0,-9.131,0.323,-2.833,-9.39,0.696,-2.95,2.1,-12.25,-2.24
,-9.28,0.258,-2.761,-9.325,0.799,-3.408,4.27,-11.13,-2.45
,-9.349,0.51,-2.869,-8.844,0.323,-3.202,6.86,-10.78,-2.73
,-9.287,0.62,-3.111,-9.189,0.12,-2.752,6.72,-12.11,-2.45
25744.0,-9.576,0.275,-2.809,-9.28,-0.526,-3.094,8.47,-6.79,-2.31
,-9.509,0.428,-3.151,-9.509,-0.512,-2.984,8.26,-8.61,-2.38
,-9.378,0.431,-3.381,-9.497,0.055,-2.85,5.95,-9.66,-1.68
,-9.241,-0.108,-3.187,-9.648,0.457,-2.9,3.57,-9.59,-0.35
25820.0,-9.514,0.404,-3.171,-9.476,-0.294,-2.412,9.66,-13.51,-0.14
,-9.308,0.141,-3.405,-9.478,0.388,-2.419,4.34,-13.86,0.56
,-9.38,-0.321,-3.046,-9.438,0.866,-2.276,5.04,-12.88,1.54
,-9.445,-0.548,-2.58,-9.421,1.165,-2.45,8.54,-12.18,2.17
25895.0,-9.483,1.196,-2.611,-9.32,0.364,-2.149,6.79,-12.18,0.49
,-9.531,0.974,-2.635,-9.529,0.203,-1.883,3.36,-11.83,-0.07
,-9.373,0.773,-2.702,-9.691,0.287,-2.108,1.82,-11.76,-0.77
,-9.39,0.33,-2.099,-9.639,0.335,-2.304,1.89,-10.85,-1.4
25971.0,-9.507,0.29,-2.041,-9.476,0.12,-2.359,1.89,-7.91,-2.52
,-9.545,0.349,-1.938,-9.313,-0.16,-2.625,1.54,-7.0,-2.52
,-9.66,0.34,-2.228,-9.371,-0.581,-2.481,-0.28,-7.07,-3.01
,-9.562,0.383,-2.417,-9.517,-0.586,-2.094,-2.87,-7.07,-3.57
26047.0,-9.749,-0.105,-2.278,-9.521,0.443,-2.295,8.82,-4.55,-1.68
,-9.677,0.519,-2.151,-9.555,0.029,-2.201,9.52,-4.9,-2.24
,-9.686,0.823,-2.379,-9.591,-0.285,-2.324,5.81,-4.9,-2.45
,-9.428,0.737,-2.187,-9.624,-0.057,-2.429,0.14,-4.27,-2.59
26123.0,-9.742,0.232,-2.635,-9.603,0.407,-2.374,3.71,-2.94,-2.31
,-9.533,0.388,-2.577,-9.543,0.311,-2.266,3.29,-3.22,-2.73
,-9.526,0.436,-2.529,-9.679,0.208,-2.4,3.01,-2.73,-2.59
,-9.555,0.39,-2.57,-9.624,0.115,-2.295,1.33,-2.94,-2.87
26198.0,-9.555,-0.05,-2.113,-9.586,0.347,-2.036,-0.77,-1.68,-3.29
,-9.471,-0.031,-1.864,-9.44,0.115,-2.096,1.96,-0.91,-3.22
,-9.658,0.108,-1.967,-9.509,-0.158,-1.804,4.34,-0.7,-3.15
,-9.608,0.299,-2.005,-9.531,-0.215,-1.608,3.36,-0.77,-3.43
26274.0,-9.548,-0.208,-1.35,-9.505,0.146,-2.264,6.65,4.34,-2.03
,-9.691,0.153,-1.601,-9.584,-0.168,-2.484,7.91,4.97,-2.03
,-9.67,0.357,-1.608,-9.603,-0.244,-2.718,6.3,5.74,-2.1
,-9.682,0.409,-1.981,-9.533,-0.27,-2.666,3.15,6.09,-2.24
26349.0,-9.541,-0.045,-2.737,-9.502,-0.122,-2.697,4.97,6.86,-1.89
,-9.675,0.141,-2.962,-9.622,-0.108,-2.781,5.53,6.09,-2.03
,-9.6,0.223,-2.97,-9.684,0.034,-2.797,4.48,5.39,-2.1
,-9.474,0.089,-2.874,-9.514,-0.069,-2.745,3.64,5.46,-1.82
26425.0,-9.495,-0.182,-2.759,-9.677,0.101,-2.58,4.06,3.57,-1.33
,-9.524,-0.223,-2.601,-9.619,0.031,-2.57,4.27,3.64,-1.4
,-9.529,-0.057,-2.489,-9.615,-0.17,-2.58,4.69,3.71,-1.19
,-9.624,0.022,-2.431,-9.462,-0.287,-2.522,4.13,3.71,-0.98
26501.0,-9.584,-0.23,-2.505,-9.562,-0.16,-2.587,6.93,3.36,-0.21
,-9.572,-0.019,-2.635,-9.572,-0.179,-2.527,7.49,3.15,-0.21
,-9.545,-0.029,-2.565,-9.615,-0.115,-2.529,6.79,3.15,-0.14
,-9.564,-0.053,-2.608,-9.634,-0.081,-2.541,6.02,3.15,-0.07
26577.0,-9.56,0.01,-2.479,-9.651,-0.096,-2.536,7.35,3.22,0.42
,-9.505,0.002,-2.45,-9.655,-0.065,-2.661,7.0,3.29,0.49
,-9.533,-0.01,-2.424,-9.588,-0.129,-2.694,6.51,3.57,0.49
,-9.579,-0.06,-2.453,-9.488,-0.268,-2.754,5.32,3.5,0.42
26653.0,-9.596,-0.278,-2.826,-9.555,-0.089,-2.843,2.8,3.22,0.7
,-9.622,-0.112,-2.864,-9.619,-0.045,-2.91,3.92,2.66,0.7
,-9.574,-0.029,-2.814,-9.605,-0.06,-2.941,4.2,2.52,0.91
,-9.576,0.038,-2.97,-9.576,-0.053,-2.95,3.57,2.1,0.91
26728.0,-9.517,-0.136,-2.955,-9.6,-0.005,-2.4,3.43,0.21,1.12
,-9.454,-0.208,-2.675,-9.572,-0.034,-2.292,4.34,0.07,1.33
,-9.531,-0.201,-2.575,-9.526,-0.069,-2.285,5.67,-0.21,1.33
,-9.603,-0.134,-2.414,-9.533,-0.182,-2.312,6.58,-0.07,1.4
26804.0,-9.5,-0.184,-2.34,-9.658,-0.096,-2.491,4.27,0.98,1.54
,-9.538,-0.211,-2.316,-9.636,0.12,-2.592,4.62,1.47,1.68
,-9.478,-0.201,-2.367,-9.61,0.141,-2.67,4.69,1.75,1.54
,-9.543,-0.218,-2.288,-9.423,0.199,-2.845,4.76,1.89,1.68
26880.0,-9.586,-0.06,-2.721,-9.629,0.086,-2.572,2.1,2.17,1.33
,-9.514,-0.019,-2.704,-9.569,0.077,-2.728,3.15,2.24,1.26
,-9.643,-0.098,-2.563,-9.536,0.048,-2.728,3.43,2.03,1.26
,-9.629,0.0,-2.558,-9.507,-0.053,-2.668,3.43,2.03,0.98
26956.0,-9.536,-0.144,-2.632,-9.543,-0.019,-2.333,1.33,2.1,0.91
,-9.569,-0.12,-2.493,-9.591,0.005,-2.355,2.38,2.31,0.98
,-9.586,-0.072,-2.443,-9.605,0.01,-2.558,3.15,2.03,0.91
,-9.56,-0.012,-2.357,-9.55,-0.031,-2.666,2.94,2.38,1.05
27031.0,-9.5,-0.187,-2.807,-9.603,0.034,-2.737,-0.98,3.01,0.98
,-9.529,-0.309,-2.783,-9.574,0.01,-2.773,0.14,3.01,1.26
,-9.562,-0.191,-2.778,-9.524,0.053,-2.747,1.75,2.8,1.26
,-9.591,-0.026,-2.781,-9.548,0.05,-2.759,2.59,2.59,1.33
27107.0,-9.545,0.05,-2.718,-9.564,0.038,-2.474,1.96,1.82,1.33
,-9.56,-0.014,-2.63,-9.56,-0.029,-2.462,2.17,1.89,1.33
,-9.569,-0.036,-2.536,-9.509,-0.122,-2.438,2.1,1.96,1.19
,-9.588,-0.034,-2.52,-9.574,-0.096,-2.513,1.89,1.89,1.26
27182.0,-9.555,-0.048,-2.548,-9.533,-0.01,-2.771,0.84,2.59,1.19
,-9.502,-0.017,-2.56,-9.55,-0.062,-2.608,0.98,2.87,1.26
,-9.517,0.024,-2.639,-9.545,-0.103,-2.601,0.77,2.73,1.19
,-9.538,0.002,-2.642,-9.56,-0.038,-2.649,0.49,2.8,1.12
27258.0,-9.588,0.084,-2.718,-9.529,-0.007,-2.857,1.12,2.73,1.33
,-9.543,0.079,-2.797,-9.548,-0.179,-2.723,0.35,2.73,1.26
,-9.488,0.084,-2.814,-9.593,-0.117,-2.711,-0.35,2.38,1.19
,-9.512,0.012,-2.862,-9.627,0.057,-2.716,-0.42,2.45,1.12
27334.0,-9.569,0.225,-2.776,-9.576,-0.12,-2.742,2.45,1.47,1.19
,-9.464,0.179,-2.737,-9.574,-0.11,-2.721,0.77,1.61,1.12
,-9.55,0.005,-2.749,-9.552,-0.129,-2.656,0.0,1.61,1.05
,-9.576,-0.065,-2.737,-9.502,-0.112,-2.668,0.07,1.61,1.05
27410.0,-9.576,-0.029,-2.678,-9.507,0.077,-2.587,3.92,1.05,1.33
,-9.55,0.134,-2.68,-9.536,-0.048,-2.606,3.99,1.12,1.26
,-9.562,0.175,-2.625,-9.514,-0.132,-2.527,3.15,1.12,1.12
,-9.521,0.136,-2.606,-9.514,-0.091,-2.544,2.24,1.4,1.05
27486.0,-9.557,0.026,-2.618,-9.478,-0.014,-2.544,3.92,1.82,0.98
,-9.514,0.146,-2.637,-9.574,0.096,-2.635,3.43,1.75,0.98
,-9.49,0.151,-2.661,-9.574,0.12,-2.656,2.52,1.89,0.98
,-9.505,0.084,-2.647,-9.643,0.179,-2.721,2.1,2.31,0.84
27561.0,-9.562,0.081,-2.838,-9.469,-0.168,-2.943,1.26,1.68,0.35
,-9.588,0.045,-2.91,-9.536,-0.251,-2.802,1.19,1.54,0.28
,-9.552,0.024,-2.991,-9.584,-0.12,-2.697,1.12,1.33,0.14
,-9.524,-0.072,-2.936,-9.584,0.11,-2.675,0.84,1.26,0.21
27637.0,-9.639,0.206,-2.685,-9.564,-0.089,-2.79,4.2,0.28,0.7
,-9.519,0.134,-2.618,-9.485,-0.139,-2.723,2.38,0.35,0.77
,-9.536,-0.05,-2.642,-9.485,-0.237,-2.726,1.61,0.21,0.7
,-9.529,-0.127,-2.747,-9.531,-0.172,-2.623,2.31,0.42,0.7
27713.0,-9.603,-0.065,-2.632,-9.572,0.084,-2.596,4.9,-0.07,1.19
,-9.579,0.153,-2.714,-9.557,0.077,-2.656,3.99,-0.42,1.05
,-9.56,0.141,-2.654,-9.548,0.136,-2.601,2.73,-0.21,1.19
,-9.44,0.081,-2.489,-9.541,0.11,-2.474,1.89,0.21,1.26
27789.0,-9.524,0.012,-2.364,-9.576,0.074,-2.41,1.33,1.33,1.61
,-9.584,0.01,-2.386,-9.557,0.048,-2.443,1.26,1.54,1.54
,-9.509,0.086,-2.273,-9.55,0.053,-2.479,0.7,1.75,1.54
,-9.483,0.11,-2.259,-9.543,-0.108,-2.599,0.42,2.38,1.54
27864.0,-9.457,-0.175,-2.515,-9.505,-0.055,-2.618,-1.12,3.22,1.47
,-9.509,-0.304,-2.525,-9.574,0.112,-2.828,-0.14,3.43,1.75
,-9.574,-0.254,-2.58,-9.507,0.146,-2.754,0.91,3.22,1.89
,-9.557,-0.187,-2.639,-9.43,0.117,-2.706,1.96,3.36,2.03
27940.0,-9.526,0.036,-2.536,-9.442,0.168,-2.831,2.87,3.29,2.52
,-9.658,0.201,-2.663,-9.39,0.01,-2.883,3.43,2.59,1.96
,-9.612,0.323,-2.501,-9.402,-0.321,-2.704,-0.84,1.68,1.47
,-9.56,0.464,-2.804,-9.478,-0.251,-2.347,-2.38,0.42,1.05
28015.0,-9.581,-0.026,-1.788,-9.584,0.112,-2.149,-2.38,1.68,1.47
,-9.706,0.168,-1.606,-9.313,-0.139,-2.233,-3.29,1.12,1.26
,-9.639,0.349,-1.563,-9.387,-0.144,-2.228,-6.93,0.56,1.26
,-9.691,0.201,-1.802,-9.531,-0.191,-2.048,-13.23,0.14,1.4
28091.0,-9.414,0.014,-1.969,-9.411,-0.029,-2.309,-5.32,4.27,3.64
,-9.402,0.299,-1.89,-9.49,0.048,-2.211,-4.41,6.02,3.99
,-9.708,0.27,-2.438,-9.718,0.261,-2.304,-6.65,5.74,3.85
,-9.404,0.227,-2.513,-9.562,0.414,-2.745,-9.17,6.58,3.92
28167.0,-9.292,0.512,-2.809,-9.739,0.206,-2.766,-12.39,7.42,5.11
,-9.107,0.223,-2.836,-9.782,0.739,-3.788,-13.65,9.94,4.97
,-9.103,-0.244,-2.539,-9.564,0.95,-4.298,-11.76,12.74,5.11
,-9.5,-0.182,-2.173,-9.275,0.555,-4.669,-3.64,15.05,5.39
28243.0,-9.172,-0.108,-4.326,-9.603,0.785,-3.269,7.0,15.33,6.51
,-9.366,-0.38,-3.812,-9.543,0.847,-3.08,15.75,16.03,6.3
,-9.634,-0.261,-3.326,-9.16,0.51,-2.644,24.64,14.21,5.18
,-9.584,0.206,-3.082,-9.083,0.27,-1.644,28.91,11.97,3.78
28318.0,-9.21,0.546,-1.096,-9.119,0.464,-2.041,20.72,14.0,1.82
,-9.663,1.141,-1.395,-9.28,0.294,-2.465,17.99,13.51,0.14
,-9.641,1.419,-1.826,-9.447,0.627,-3.07,8.26,13.44,-0.63
,-9.373,0.986,-2.19,-9.407,0.675,-3.41,-4.55,14.63,-0.28
28394.0,-9.112,0.321,-3.75,-9.483,0.153,-3.553,-11.62,14.98,-2.24
,-8.813,-0.213,-3.652,-9.454,0.249,-3.482,-9.24,17.15,-2.31
,-9.232,-0.45,-3.314,-9.11,-0.163,-3.518,-2.73,17.78,-2.31
,-9.519,-0.201,-3.498,-9.107,-0.727,-3.285,4.34,15.96,-2.52
28469.0,-9.32,-0.928,-3.12,-8.856,0.467,-3.642,5.46,17.01,0.84
,-9.622,-0.495,-3.405,-8.947,0.122,-3.506,8.96,15.05,0.63
,-9.588,0.244,-3.723,-9.316,0.036,-3.63,9.24,13.37,0.35
,-9.177,0.586,-3.719,-9.421,0.156,-3.738,4.97,12.67,0.63
28545.0,-9.349,0.22,-3.886,-9.454,-0.211,-3.934,-2.17,11.9,2.94
,-9.115,0.041,-3.786,-9.474,-0.048,-3.999,-0.56,12.46,2.94
,-9.088,-0.246,-3.503,-9.299,0.079,-4.006,1.96,13.65,3.43
,-9.371,-0.359,-3.685,-9.107,0.479,-3.967,6.02,13.16,4.2
28621.0,-8.973,0.785,-3.886,-9.139,0.861,-4.118,7.7,7.77,5.39
,-9.196,1.223,-3.733,-8.926,0.34,-3.927,4.97,8.26,4.83
,-9.256,1.457,-4.046,-9.052,-0.141,-3.501,1.26,8.12,4.41
,-9.244,1.402,-4.214,-9.347,-0.139,-3.295,-6.02,7.77,4.27
28697.0,-9.617,0.433,-3.319,-9.17,0.273,-3.443,2.1,8.61,2.59
,-9.234,0.78,-3.47,-9.33,0.124,-3.652,4.76,7.91,2.17
,-9.038,0.936,-3.673,-9.22,0.328,-3.862,3.57,8.68,2.1
,-9.005,0.646,-3.553,-9.184,0.747,-3.85,0.49,10.36,2.24
28773.0,-9.189,0.962,-4.015,-9.284,0.584,-4.101,4.69,8.75,2.03
,-9.117,1.333,-4.061,-9.273,0.191,-3.891,2.94,8.47,1.26
,-9.052,1.213,-4.066,-9.136,0.065,-3.833,0.14,7.98,0.21
,-9.201,0.909,-4.001,-9.045,0.562,-4.049,-2.17,7.91,-0.7
28848.0,-8.926,1.091,-3.963,-9.074,1.452,-4.302,8.82,7.56,-4.97
,-9.11,1.682,-3.829,-8.885,0.352,-4.329,10.29,7.91,-7.0
,-9.158,2.079,-4.238,-8.969,-0.739,-4.003,8.4,6.72,-8.19
,-9.045,2.089,-4.355,-9.16,-0.787,-4.25,3.08,5.95,-8.61
28924.0,-9.351,-0.773,-4.082,-9.052,-1.429,-4.712,6.51,4.2,-6.93
,-9.328,-0.804,-4.566,-9.076,-1.445,-4.937,8.96,3.01,-6.16
,-9.05,-0.972,-4.678,-9.186,-1.637,-4.91,7.91,2.8,-5.25
,-8.916,-1.419,-4.477,-9.117,-1.771,-4.803,7.21,3.71,-3.92
29000.0,-8.985,-1.869,-4.499,-9.162,0.079,-3.927,9.66,1.68,6.79
,-9.174,-1.445,-4.212,-8.892,0.072,-3.594,13.3,1.12,8.05
,-9.423,-0.715,-4.219,-9.048,0.251,-3.53,16.73,-0.91,7.63
,-9.512,-0.208,-4.058,-9.031,0.426,-3.338,16.59,-2.94,7.7
29076.0,-9.019,0.873,-3.824,-9.213,1.62,-3.898,13.58,-1.61,5.88
,-8.866,1.168,-3.972,-9.148,1.56,-3.843,12.53,-1.19,5.25
,-8.839,1.259,-3.884,-9.064,1.192,-3.855,11.69,-0.7,4.41
,-9.024,1.362,-3.867,-9.012,0.79,-3.879,13.09,-0.42,3.43
29151.0,-8.887,0.692,-4.068,-8.959,-0.081,-3.898,9.52,-0.07,-0.49
,-8.993,0.605,-4.147,-9.232,-0.782,-3.35,8.19,0.28,0.35
,-8.825,0.514,-4.006,-9.313,-0.909,-3.616,5.18,0.7,1.33
,-8.985,0.357,-4.068,-9.21,-1.139,-3.869,3.15,1.12,1.82
29227.0,-8.942,-1.275,-3.745,-9.45,0.529,-4.089,3.08,3.57,6.09
,-8.799,-1.005,-4.011,-9.294,0.522,-4.068,5.46,4.48,7.49
,-8.871,-0.34,-4.202,-9.019,0.251,-4.094,8.96,5.11,7.77
,-9.203,0.373,-4.185,-8.849,0.144,-4.166,10.29,4.69,7.14
29302.0,-9.091,0.266,-4.001,-8.813,1.283,-4.03,5.74,5.25,5.53
,-9.253,0.656,-4.415,-9.002,1.225,-4.078,6.93,5.25,5.74
,-8.866,0.921,-4.233,-9.05,1.041,-3.877,7.7,5.53,5.6
,-8.696,1.189,-4.094,-8.947,1.031,-3.857,7.49,6.16,4.97
29378.0,-8.832,0.84,-3.845,-9.002,0.369,-4.137,-2.31,8.68,1.26
,-8.823,0.546,-3.862,-8.969,0.658,-4.403,-3.5,9.59,1.26
,-8.949,0.421,-3.989,-9.174,0.914,-4.377,-3.92,10.22,1.47
,-9.057,0.29,-3.896,-9.184,0.849,-4.403,-4.83,10.85,1.96
29454.0,-9.064,0.498,-4.353,-9.112,-0.371,-4.252,-11.9,9.24,0.7
,-8.928,0.072,-4.374,-9.237,0.27,-4.348,-14.42,8.96,1.68
,-9.062,-0.428,-4.379,-9.244,0.773,-4.413,-14.7,8.61,2.52
,-9.076,-0.577,-4.348,-9.05,1.132,-4.587,-11.9,8.26,2.94
29530.0,-8.973,1.163,-4.372,-8.981,-0.696,-4.216,-5.6,3.43,-0.42
,-8.856,0.759,-4.458,-9.194,-0.357,-4.401,-10.57,3.36,0.84
,-8.806,0.275,-4.458,-9.282,0.201,-4.578,-14.35,3.64,1.82
,-8.842,-0.512,-4.111,-9.06,0.771,-4.666,-15.19,4.48,2.8
29606.0,-8.947,0.893,-4.731,-9.232,0.309,-4.513,-1.19,0.84,0.28
,-8.837,0.737,-4.609,-9.021,0.392,-4.752,-5.6,1.12,0.7
,-8.899,0.704,-4.779,-8.938,0.072,-4.645,-8.26,0.56,1.12
,-9.091,0.459,-4.42,-9.258,0.005,-4.556,-10.01,0.14,1.19
29681.0,-9.198,0.22,-4.913,-9.06,0.565,-4.367,-4.9,-3.57,0.21
,-9.031,0.483,-4.944,-8.899,0.67,-4.704,-2.03,-4.55,0.21
,-9.074,0.584,-4.901,-8.966,0.493,-4.389,-0.56,-5.11,-0.35
,-9.091,0.66,-4.652,-9.15,0.459,-4.317,0.35,-6.51,-1.26
29757.0,-9.284,0.639,-4.496,-8.801,0.124,-4.348,0.91,-8.4,-3.99
,-9.201,0.658,-4.305,-9.155,-0.057,-4.104,0.77,-9.1,-4.2
,-9.115,0.639,-4.463,-9.265,0.055,-4.046,-0.21,-10.99,-4.2
,-8.842,0.278,-4.247,-9.117,0.402,-4.085,-0.63,-12.25,-3.5
29833.0,-8.911,0.469,-4.063,-8.997,0.206,-3.714,6.3,-11.48,-2.52
,-9.014,0.304,-3.697,-9.237,0.115,-3.556,4.06,-11.41,-2.17
,-9.038,0.498,-3.975,-9.158,0.144,-3.754,2.94,-11.9,-1.96
,-8.949,0.352,-3.845,-8.894,0.053,-4.125,1.19,-11.55,-1.68
29909.0,-9.153,0.048,-3.795,-9.186,0.785,-4.334,5.46,-9.8,-1.12
,-9.253,-0.036,-3.843,-8.978,0.905,-4.298,8.19,-9.1,0.35
,-9.174,0.022,-3.819,-8.983,0.847,-4.118,11.2,-9.17,0.98
,-9.249,0.273,-3.886,-9.141,0.658,-3.599,11.97,-10.08,1.61
29984.0,-9.172,0.555,-3.604,-9.253,0.61,-4.015,4.55,-12.6,1.12
,-9.165,0.371,-3.573,-8.973,0.706,-4.123,3.71,-12.88,1.89
,-9.323,0.22,-3.728,-9.005,0.73,-3.618,4.34,-12.95,2.59
,-9.407,0.091,-3.644,-9.153,0.876,-3.52,5.18,-13.65,2.52
30060.0,-9.15,0.924,-3.508,-9.569,0.704,-3.135,10.43,-10.43,-1.54
,-9.081,0.895,-3.52,-9.397,0.486,-3.338,9.17,-9.73,-2.1
,-9.33,0.744,-3.553,-9.244,0.629,-3.355,8.4,-8.89,-1.96
,-9.337,0.732,-3.211,-9.143,0.443,-3.18,8.33,-10.22,-1.61
30135.0,-9.318,0.261,-3.084,-9.375,0.136,-3.106,-0.35,-14.63,-2.45
,-9.244,0.244,-2.996,-9.17,0.05,-3.022,1.05,-13.86,-2.94
,-9.263,0.409,-3.008,-9.17,0.019,-2.867,2.24,-13.44,-3.01
,-9.234,0.258,-3.094,-9.548,0.117,-2.795,0.84,-12.6,-3.01
30211.0,-9.591,0.287,-2.737,-9.225,0.053,-2.927,7.21,-12.67,-1.61
,-9.442,0.637,-3.053,-9.308,-0.072,-2.594,5.18,-14.84,-2.31
,-9.371,0.644,-3.214,-9.383,0.172,-2.747,0.63,-15.33,-2.73
,-9.225,0.337,-3.094,-9.287,-0.132,-2.28,-2.8,-13.72,-2.38
30287.0,-9.337,0.019,-2.376,-9.263,0.436,-3.082,3.5,-6.51,-0.49
,-9.536,0.029,-2.309,-9.019,0.481,-3.008,6.02,-5.6,-0.56
,-9.737,0.373,-2.946,-9.38,0.242,-2.654,6.86,-6.44,-0.84
,-9.557,0.706,-3.743,-9.574,0.503,-2.867,3.22,-8.19,-1.05
30363.0,-9.44,0.526,-2.345,-9.438,-0.172,-2.235,5.18,-5.04,-2.03
,-9.651,0.242,-2.448,-9.5,-0.014,-2.134,3.01,-5.11,-1.47
,-9.612,-0.055,-2.546,-9.572,0.373,-2.501,0.91,-6.44,-1.33
,-9.521,-0.132,-2.395,-9.734,0.715,-3.262,1.68,-6.58,-1.12
30438.0,-9.567,0.682,-3.314,-9.495,0.072,-1.859,-3.99,-8.61,-2.03
,-9.275,0.189,-3.005,-9.646,0.349,-1.91,-6.37,-7.63,-2.03
,-9.282,-0.27,-2.639,-9.61,0.479,-1.89,-2.94,-6.37,-1.68
,-9.421,-0.297,-2.41,-9.555,0.555,-1.874,3.29,-5.74,-1.4
30514.0,-9.643,0.438,-1.993,-9.34,0.4,-1.883,4.48,-3.92,-1.33
,-9.495,0.479,-2.048,-9.476,0.28,-1.795,4.06,-3.15,-1.68
,-9.426,0.438,-2.015,-9.651,0.213,-1.773,1.54,-2.38,-2.1
,-9.373,0.402,-2.24,-9.675,0.254,-1.895,1.19,-1.47,-2.24
30590.0,-9.631,0.263,-2.206,-9.457,0.067,-2.414,-3.43,2.17,-2.66
,-9.457,0.311,-2.41,-9.512,-0.06,-2.414,-3.92,2.66,-2.87
,-9.416,0.297,-2.548,-9.679,0.017,-2.618,-3.78,3.29,-3.01
,-9.402,0.299,-2.515,-9.579,0.012,-2.647,-4.13,4.13,-3.08
30666.0,-9.505,-0.024,-2.726,-9.483,0.084,-3.128,0.28,5.32,-1.47
,-9.459,-0.057,-2.807,-9.462,-0.124,-3.171,2.31,5.18,-0.98
,-9.6,0.081,-3.159,-9.464,-0.208,-2.898,4.27,4.41,-0.98
,-9.469,0.175,-3.223,-9.56,-0.165,-2.893,5.04,3.99,-0.98
30742.0,-9.703,-0.01,-2.898,-9.56,0.014,-3.015,8.12,2.31,-0.07
,-9.517,0.17,-2.898,-9.502,-0.12,-2.848,7.21,1.75,-0.28
,-9.466,0.206,-2.895,-9.49,-0.034,-2.848,5.6,1.4,-0.28
,-9.56,0.117,-2.893,-9.596,0.168,-2.833,4.97,1.47,-0.21
30817.0,-9.627,0.335,-2.886,-9.555,0.093,-2.871,8.19,-0.21,0.0
,-9.541,0.469,-2.972,-9.636,0.067,-2.967,5.95,-0.42,-0.07
,-9.457,0.309,-2.919,-9.543,0.093,-3.041,3.92,-0.7,-0.14
,-9.483,0.168,-2.989,-9.476,0.024,-2.984,3.43,-0.84,-0.07
30893.0,-9.43,-0.098,-2.709,-9.675,0.067,-2.063,5.46,-2.24,-0.07
,-9.5,-0.136,-2.56,-9.576,0.168,-1.96,6.58,-2.17,0.07
,-9.471,-0.266,-2.089,-9.531,0.074,-2.06,6.16,-1.82,0.28
,-9.557,-0.103,-2.046,-9.533,0.007,-2.118,6.93,-1.26,0.49
30968.0,-9.509,-0.038,-2.158,-9.584,0.213,-2.525,4.76,1.68,0.63
,-9.483,-0.079,-2.199,-9.514,0.074,-2.601,5.67,2.17,0.77
,-9.56,0.065,-2.29,-9.428,-0.065,-2.57,6.3,2.45,0.77
,-9.586,0.158,-2.395,-9.524,-0.089,-2.618,6.3,2.8,0.77
31044.0,-9.627,0.024,-2.802,-9.576,0.115,-3.336,5.81,3.71,0.98
,-9.572,0.172,-2.848,-9.421,-0.101,-3.302,5.88,3.43,0.98
,-9.567,0.206,-2.977,-9.452,-0.235,-3.183,5.53,3.15,1.05
,-9.675,0.191,-3.228,-9.624,-0.057,-3.053,4.83,2.38,0.84
31120.0,-9.581,0.172,-2.831,-9.605,-0.036,-2.252,8.47,0.0,1.19
,-9.478,0.208,-2.632,-9.596,0.091,-2.367,6.93,0.21,1.26
,-9.495,0.053,-2.355,-9.552,0.103,-2.422,5.88,0.56,1.4
,-9.56,-0.096,-2.297,-9.557,0.079,-2.513,5.81,0.7,1.33
31196.0,-9.569,0.069,-2.529,-9.576,0.005,-2.697,3.29,1.96,1.19
,-9.557,0.079,-2.613,-9.521,-0.053,-2.797,3.08,2.1,1.05
,-9.569,0.146,-2.639,-9.481,-0.105,-2.804,2.66,2.03,0.91
,-9.529,0.136,-2.639,-9.488,-0.038,-2.761,1.89,2.24,0.98
31271.0,-9.572,0.093,-2.659,-9.536,0.105,-2.778,3.99,2.1,1.19
,-9.61,0.242,-2.647,-9.49,0.017,-2.793,3.36,2.03,1.05
,-9.557,0.266,-2.611,-9.454,-0.091,-2.74,1.96,2.03,0.98
,-9.548,0.206,-2.697,-9.485,-0.053,-2.623,1.05,1.96,0.91
31347.0,-9.541,0.096,-2.553,-9.543,0.112,-2.417,2.8,2.1,1.05
,-9.552,0.235,-2.443,-9.564,0.179,-2.613,1.68,2.31,0.84
,-9.521,0.203,-2.333,-9.517,0.163,-2.833,0.0,2.59,0.77
,-9.524,0.122,-2.302,-9.469,0.041,-2.958,-1.54,2.87,0.63
31423.0,-9.543,-0.029,-2.996,-9.557,0.117,-2.907,-0.63,2.66,0.42
,-9.466,0.065,-3.015,-9.543,0.251,-2.989,0.63,2.66,0.49
,-9.529,-0.005,-2.998,-9.548,0.203,-2.972,0.98,2.31,0.56
,-9.579,0.014,-3.005,-9.507,0.089,-2.862,0.98,1.82,0.49
31499.0,-9.509,-0.036,-2.773,-9.579,0.517,-2.302,0.21,0.77,0.35
,-9.497,-0.031,-2.553,-9.512,0.273,-2.472,1.33,0.84,0.35
,-9.497,0.17,-2.379,-9.531,-0.002,-2.568,2.03,1.12,0.21
,-9.543,0.414,-2.271,-9.483,-0.16,-2.668,0.42,1.4,-0.21
31574.0,-9.526,-0.239,-2.797,-9.529,0.11,-2.764,-3.01,2.45,-0.28
,-9.555,-0.105,-2.773,-9.603,0.005,-2.879,0.35,2.38,0.0
,-9.521,0.065,-2.807,-9.526,-0.096,-2.895,2.03,2.31,0.21
,-9.557,0.163,-2.692,-9.517,-0.177,-2.881,2.24,2.38,0.35
31650.0,-9.493,-0.103,-2.862,-9.572,0.127,-2.704,4.06,1.33,0.42
,-9.524,0.005,-2.692,-9.555,0.158,-2.804,5.25,1.47,0.49
,-9.584,0.077,-2.716,-9.488,0.108,-2.778,5.53,1.4,0.63
,-9.567,0.086,-2.668,-9.49,0.077,-2.783,5.53,1.47,0.7
31726.0,-9.574,0.019,-2.745,-9.533,0.029,-2.802,4.9,1.26,0.42
,-9.557,0.091,-2.778,-9.514,0.031,-2.745,5.04,1.26,0.49
,-9.608,0.11,-2.781,-9.521,0.007,-2.737,4.41,1.05,0.49
,-9.493,0.057,-2.709,-9.564,-0.01,-2.618,3.99,0.98,0.49
31801.0,-9.521,-0.05,-2.596,-9.562,0.144,-2.599,4.27,0.7,0.42
,-9.495,-0.115,-2.484,-9.526,0.201,-2.577,4.76,1.19,0.49
,-9.555,-0.072,-2.532,-9.519,0.309,-2.697,5.53,1.26,0.63
,-9.538,-0.014,-2.503,-9.493,0.141,-2.776,6.09,1.61,0.77
31877.0,-9.483,-0.005,-2.812,-9.5,0.151,-2.85,2.38,1.54,0.21
,-9.557,-0.165,-2.749,-9.483,-0.029,-2.862,3.43,1.61,0.28
,-9.608,0.005,-2.855,-9.493,-0.034,-2.735,4.76,1.47,0.35
,-9.564,0.196,-2.891,-9.529,0.048,-2.721,4.69,1.05,0.21
31953.0,-9.6,0.089,-2.649,-9.572,0.069,-2.62,3.78,0.63,0.07
,-9.552,0.096,-2.675,-9.588,0.079,-2.668,3.29,0.7,0.21
,-9.483,0.06,-2.647,-9.521,0.045,-2.697,2.8,0.77,0.14
,-9.555,0.005,-2.611,-9.483,-0.084,-2.702,3.15,0.91,0.14
32029.0,-9.474,-0.084,-2.661,-9.531,-0.034,-2.776,2.59,1.19,0.21
,-9.579,0.0,-2.675,-9.526,-0.096,-2.642,3.08,1.12,0.14
,-9.56,0.096,-2.694,-9.536,-0.055,-2.63,2.73,1.05,0.07
,-9.531,0.117,-2.682,-9.545,-0.036,-2.522,1.82,0.98,0.0
32104.0,-9.512,0.093,-2.414,-9.512,-0.014,-2.673,3.01,1.75,0.21
,-9.564,0.048,-2.434,-9.517,-0.124,-2.728,2.17,1.89,0.07
,-9.555,0.101,-2.491,-9.459,-0.235,-2.723,0.91,1.75,-0.14
,-9.557,0.084,-2.594,-9.55,-0.163,-2.874,-0.42,1.75,-0.21
32180.0,-9.562,-0.01,-2.934,-9.541,0.031,-3.118,2.1,1.61,0.35
,-9.541,0.024,-2.946,-9.536,0.038,-3.051,2.1,1.33,0.35
,-9.569,0.014,-3.032,-9.519,0.0,-2.929,1.54,0.98,0.35
,-9.576,-0.005,-3.075,-9.548,-0.019,-2.812,1.33,0.56,0.49
32256.0,-9.624,0.012,-2.639,-9.545,-0.163,-2.563,3.78,-0.91,0.63
,-9.588,0.139,-2.649,-9.538,-0.055,-2.503,3.64,-0.98,0.42
,-9.485,0.089,-2.627,-9.507,0.05,-2.367,2.52,-1.19,0.42
,-9.485,-0.038,-2.625,-9.608,0.045,-2.644,2.1,-1.12,0.42
32332.0,-9.552,0.141,-2.548,-9.493,-0.223,-2.718,3.57,-0.35,0.49
,-9.533,0.055,-2.682,-9.552,-0.151,-2.649,2.87,-0.49,0.49
,-9.55,-0.153,-2.781,-9.531,-0.017,-2.498,2.24,-0.56,0.63
,-9.5,-0.179,-2.759,-9.543,0.096,-2.352,3.15,-0.35,0.91
32407.0,-9.538,0.146,-2.321,-9.497,-0.065,-2.266,4.9,0.21,1.4
,-9.533,0.062,-2.254,-9.591,0.084,-2.398,3.43,0.84,1.4
,-9.564,-0.019,-2.29,-9.548,-0.014,-2.584,2.59,1.33,1.47
,-9.524,-0.026,-2.312,-9.524,-0.055,-2.623,2.45,1.96,1.68
32483.0,-9.426,-0.263,-2.486,-9.627,0.297,-2.977,0.35,3.64,3.08
,-9.55,-0.244,-2.618,-9.497,0.23,-3.118,1.89,3.99,3.5
,-9.619,-0.029,-2.678,-9.56,-0.074,-2.998,3.01,3.57,3.5
,-9.66,0.215,-2.838,-9.55,-0.354,-2.816,2.8,3.22,3.57
32558.0,-9.605,-0.206,-2.893,-9.686,-0.127,-2.364,0.21,1.26,3.36
,-9.61,-0.191,-2.886,-9.727,0.055,-1.893,2.66,0.91,3.57
,-9.629,-0.041,-2.867,-9.758,0.481,-1.835,3.71,0.28,3.78
,-9.605,-0.055,-2.613,-9.541,0.675,-1.929,4.48,0.42,3.99
32634.0,-9.39,0.428,-1.943,-9.474,0.493,-2.297,-1.05,-1.96,3.01
,-9.366,0.017,-2.283,-9.526,0.905,-2.326,-4.27,0.14,3.22
,-9.273,-0.369,-1.876,-9.203,0.742,-2.144,-1.05,2.94,3.22
,-9.543,-0.091,-2.056,-9.548,0.538,-1.91,5.74,4.27,3.01
32710.0,-9.478,0.392,-1.957,-9.593,0.268,-2.613,-7.21,7.84,0.63
,-9.586,0.421,-1.907,-9.395,-0.05,-3.199,-10.01,7.84,0.14
,-9.395,0.421,-2.127,-9.45,-0.553,-3.218,-13.16,8.33,-0.21
,-9.363,0.275,-2.079,-9.311,-0.823,-3.297,-16.31,8.96,-0.42
32786.0,-9.182,-0.821,-2.888,-9.653,0.27,-2.223,-4.06,10.5,1.82
,-9.416,-0.751,-2.862,-9.61,0.641,-2.41,3.57,11.06,2.31
,-9.509,-0.38,-2.45,-9.679,0.548,-2.58,10.5,11.83,2.31
,-9.6,0.072,-2.194,-9.483,0.598,-2.367,15.96,12.46,2.59
32862.0,-9.328,0.287,-2.592,-9.471,-0.093,-2.828,-4.69,10.43,2.87
,-9.107,-0.065,-2.52,-9.418,0.299,-2.642,-4.48,12.6,3.01
,-9.354,-0.313,-2.759,-9.493,0.84,-2.546,-2.66,13.16,3.22
,-9.311,-0.359,-2.848,-9.44,1.539,-2.754,-0.56,13.86,3.64
32937.0,-9.548,1.773,-3.075,-8.988,-0.773,-2.907,-1.68,12.39,0.49
,-9.593,1.369,-3.503,-9.378,-0.412,-2.659,-10.08,11.55,0.0
,-9.45,0.517,-3.807,-9.811,0.436,-3.096,-17.99,10.92,0.63
,-9.072,-0.409,-3.434,-9.682,0.804,-3.668,-19.53,12.25,1.54
33013.0,-9.34,0.55,-3.991,-9.584,0.043,-3.735,-6.79,10.85,0.98
,-9.028,-0.225,-3.893,-9.213,-0.01,-3.685,-9.59,12.18,2.17
,-9.265,-0.687,-3.563,-9.141,-0.278,-3.408,-4.41,13.09,2.45
,-9.725,-0.4,-3.63,-9.143,-0.306,-3.082,3.71,11.2,1.89
33089.0,-9.375,0.136,-3.195,-9.28,0.672,-3.187,13.23,10.85,2.52
,-9.342,0.78,-3.257,-9.6,0.447,-3.41,14.98,10.36,2.52
,-9.261,1.031,-3.218,-9.586,0.127,-3.491,12.6,10.36,2.17
,-9.241,0.952,-3.247,-9.373,-0.117,-3.451,7.14,10.43,1.61
33165.0,-9.186,-0.311,-3.307,-9.093,-0.177,-3.075,1.19,9.52,1.12
,-9.083,-0.404,-3.431,-9.153,0.335,-3.163,1.75,9.1,1.61
,-9.136,-0.558,-3.245,-9.227,0.816,-3.506,2.8,10.29,1.96
,-9.244,-0.414,-3.12,-9.256,1.003,-3.537,3.99,11.34,2.59
33240.0,-9.177,0.998,-3.46,-9.265,-0.254,-3.486,-1.82,13.3,3.71
,-9.222,0.727,-3.271,-9.311,-0.337,-3.635,-4.2,13.86,3.01
,-9.261,0.392,-3.159,-9.241,-0.273,-3.723,-4.69,14.21,2.66
,-9.311,0.05,-3.25,-9.253,-0.06,-3.829,-2.73,14.7,2.66
33316.0,-9.052,0.273,-3.821,-9.182,0.431,-3.525,9.17,12.6,4.9
,-9.072,0.634,-3.558,-9.129,0.258,-3.587,7.42,13.02,4.9
,-9.076,0.78,-3.613,-9.15,0.251,-3.597,4.62,13.3,4.76
,-9.167,0.73,-3.587,-9.095,0.347,-3.86,-0.35,13.79,4.97
33391.0,-9.122,0.644,-3.862,-9.284,1.199,-3.867,5.32,14.84,3.57
,-9.093,1.218,-3.965,-9.15,1.01,-4.113,9.38,13.93,2.38
,-9.036,1.381,-4.135,-9.021,0.677,-3.924,9.52,13.65,1.33
,-9.122,1.24,-3.898,-9.045,0.548,-4.171,7.35,13.93,0.35
33467.0,-9.172,0.306,-4.037,-8.815,0.005,-4.393,4.62,13.72,-2.73
,-9.028,0.278,-4.113,-8.921,-0.352,-4.305,4.97,13.72,-2.52
,-8.964,0.163,-4.061,-9.165,-0.464,-4.013,4.69,13.72,-1.19
,-8.981,0.041,-4.113,-9.1,-0.428,-4.022,3.15,12.88,0.42
33543.0,-8.933,-0.33,-4.066,-9.201,0.914,-4.195,9.17,14.98,1.61
,-8.995,0.065,-4.257,-9.038,0.83,-4.47,11.48,15.4,1.68
,-8.854,0.474,-4.384,-8.871,0.44,-4.637,12.74,14.91,1.47
,-9.009,0.802,-4.537,-8.952,0.112,-4.511,12.95,14.28,0.42
33619.0,-8.959,0.0,-4.625,-9.124,-0.191,-4.841,9.45,11.76,-2.73
,-8.988,0.017,-4.781,-9.036,-0.239,-4.676,11.83,10.64,-3.85
,-8.899,-0.034,-4.975,-8.983,0.012,-4.676,13.3,10.15,-3.85
,-8.89,-0.079,-4.846,-9.091,0.045,-4.482,13.44,9.66,-2.87
33694.0,-8.887,0.28,-4.669,-8.93,-0.907,-4.231,15.19,6.09,-5.67
,-8.914,0.313,-4.86,-9.117,-0.771,-4.465,12.74,5.53,-4.83
,-8.626,-0.168,-5.037,-9.131,-0.644,-4.451,10.15,5.32,-3.01
,-8.5,-0.625,-4.707,-8.868,-0.507,-4.602,9.31,5.81,-1.54
33770.0,-9.086,-0.493,-4.197,-9.045,0.333,-4.669,7.56,4.2,1.61
,-9.038,-0.275,-4.369,-9.012,0.385,-4.53,5.81,3.15,1.89
,-8.741,0.069,-4.822,-8.674,0.328,-4.618,7.14,1.96,2.59
,-8.851,-0.086,-4.484,-8.543,0.127,-4.487,6.58,2.24,2.87
33846.0,-8.593,-0.074,-4.362,-8.866,0.835,-4.587,7.21,1.26,3.08
,-8.866,0.189,-4.336,-8.844,0.627,-4.432,7.35,1.33,2.45
,-8.985,0.641,-4.401,-8.861,0.653,-4.709,5.53,0.49,2.31
,-8.959,0.926,-4.549,-8.815,0.156,-4.484,4.27,-0.35,2.17
33922.0,-8.806,-0.4,-4.357,-8.976,-0.431,-4.616,0.28,0.42,1.61
,-8.871,-0.44,-4.645,-8.973,-0.124,-4.695,1.61,0.35,2.94
,-8.897,-0.591,-4.551,-8.914,-0.017,-4.788,2.31,0.7,4.34
,-8.938,-0.505,-4.568,-8.868,-0.026,-4.776,3.36,0.63,4.76
33998.0,-8.818,0.012,-4.7,-8.957,-0.16,-4.807,2.17,1.19,4.62
,-8.801,0.122,-4.886,-8.928,-0.16,-4.25,1.89,0.84,4.41
,-8.854,0.168,-4.692,-8.691,0.548,-4.566,1.4,0.98,4.83
,-8.916,0.081,-4.759,-8.591,0.857,-4.618,0.98,0.0,5.32
34073.0,-8.88,0.921,-4.389,-8.777,0.213,-4.281,2.59,0.77,2.31
,-9.086,0.864,-4.214,-8.768,0.194,-4.527,0.07,0.98,2.17
,-8.894,0.816,-4.353,-8.796,0.103,-4.637,-2.24,0.63,2.66
,-8.756,0.514,-4.293,-8.914,-0.108,-4.755,-4.83,1.26,3.15
34149.0,-8.942,-0.294,-4.357,-8.878,-0.069,-4.312,-3.71,1.4,4.55
,-8.981,-0.553,-4.204,-9.091,0.424,-4.58,-3.5,2.03,5.11
,-8.899,-0.581,-4.185,-9.04,0.538,-4.527,-2.1,2.38,5.6
,-8.894,-0.488,-4.334,-9.083,0.634,-4.463,-0.35,2.66,6.02
34224.0,-8.88,0.912,-4.484,-8.916,0.976,-4.767,-4.34,0.63,5.25
,-8.866,1.046,-4.346,-8.811,0.438,-4.759,-4.83,0.21,4.41
,-8.832,1.388,-4.637,-8.914,0.321,-4.755,-5.95,0.07,3.15
,-8.957,1.182,-4.709,-8.983,0.309,-4.695,-8.96,-0.07,2.24
34300.0,-9.016,0.318,-4.547,-9.1,-0.51,-4.824,-4.62,0.21,-2.1
,-9.057,0.275,-4.721,-9.043,-0.771,-4.616,-4.83,-0.14,-1.75
,-8.923,-0.007,-4.748,-8.775,-0.39,-4.944,-7.28,-0.28,-0.84
,-8.983,-0.651,-4.465,-8.815,0.086,-4.989,-8.75,-0.7,0.28
34376.0,-8.99,0.376,-4.999,-8.713,0.443,-4.664,-1.12,-7.14,1.68
,-9.021,0.553,-4.982,-8.863,0.572,-4.692,-3.85,-8.19,1.82
,-9.036,0.744,-5.164,-9.196,0.637,-4.377,-6.3,-9.38,2.8
,-8.801,0.735,-5.236,-9.27,0.773,-4.408,-8.12,-10.29,3.36
34452.0,-9.215,0.768,-4.156,-9.057,0.273,-4.439,1.05,-11.76,-2.87
,-9.21,0.893,-4.415,-8.94,0.258,-4.415,2.66,-14.21,-2.1
,-8.978,0.84,-4.618,-8.899,0.436,-4.348,2.1,-15.82,-1.54
,-8.897,0.443,-4.599,-8.894,0.536,-4.326,0.7,-16.66,-1.75
34527.0,-9.026,0.354,-4.322,-9.237,-0.258,-3.893,0.35,-17.71,-1.96
,-9.105,-0.007,-4.255,-9.103,-0.627,-3.585,-1.68,-17.57,-1.26
,-9.067,-0.321,-4.106,-9.124,0.05,-3.888,-0.63,-16.87,-0.7
,-9.079,-0.357,-4.07,-9.091,-0.069,-3.905,2.38,-16.45,-0.84
34603.0,-9.083,0.022,-4.011,-9.028,0.871,-3.613,11.34,-18.2,4.48
,-9.15,-0.045,-3.793,-9.103,1.094,-3.532,11.48,-17.85,4.55
,-9.095,0.227,-3.644,-9.105,1.17,-3.678,13.72,-17.64,4.34
,-9.11,0.617,-3.862,-8.961,0.976,-3.697,14.98,-17.43,4.34
34678.0,-8.978,0.699,-3.594,-9.414,0.759,-3.029,7.98,-14.21,4.2
,-9.196,0.309,-3.192,-9.32,0.799,-3.147,9.17,-13.09,4.2
,-9.222,0.347,-3.226,-9.512,0.658,-3.539,12.88,-13.23,3.5
,-9.277,0.577,-3.029,-9.397,0.601,-3.381,15.89,-12.88,2.8
34754.0,-9.509,0.646,-3.465,-9.531,0.926,-3.156,9.73,-16.59,2.31
,-8.997,0.665,-3.697,-9.292,0.876,-2.986,8.61,-17.29,1.54
,-8.954,0.849,-3.443,-9.088,0.553,-2.807,9.1,-16.73,0.98
,-9.483,0.782,-3.18,-9.275,0.175,-2.639,5.67,-17.85,-0.07
34830.0,-9.34,0.206,-2.625,-9.416,0.622,-2.781,-1.26,-18.41,-1.33
,-9.318,0.292,-2.493,-9.478,0.567,-2.967,1.33,-17.64,-1.26
,-9.373,0.732,-3.001,-9.392,0.61,-2.977,1.89,-17.57,-1.61
,-9.497,0.558,-2.642,-9.44,0.426,-2.876,1.89,-17.08,-1.4
34906.0,-9.249,0.325,-2.79,-9.481,-0.041,-2.211,-3.78,-16.24,-2.52
,-9.268,-0.354,-2.156,-9.529,-0.086,-2.496,-3.64,-15.05,-2.87
,-9.464,-0.23,-2.362,-9.459,-0.124,-2.52,0.07,-14.56,-2.59
,-9.574,-0.194,-2.316,-9.385,-0.144,-1.95,3.08,-14.7,-1.75
34982.0,-9.383,0.108,-1.914,-9.548,0.775,-2.24,9.45,-12.25,1.54
,-9.435,0.333,-1.902,-9.536,0.409,-2.024,10.99,-11.97,1.12
,-9.478,0.593,-1.764,-9.584,0.555,-2.288,9.31,-11.34,0.77
,-9.524,0.67,-1.831,-9.564,0.352,-2.106,6.58,-10.29,1.05
35057.0,-9.378,0.658,-2.146,-9.725,0.771,-2.508,4.2,-7.91,0.14
,-9.385,0.598,-1.938,-9.672,0.854,-2.891,4.69,-6.93,-0.49
,-9.631,0.531,-1.783,-9.416,0.299,-2.302,4.9,-6.23,-0.84
,-9.749,0.689,-2.192,-9.495,0.4,-2.345,3.29,-6.79,-1.4
35133.0,-9.677,0.55,-2.558,-9.536,0.062,-2.106,-3.08,-6.86,-3.22
,-9.481,0.696,-2.302,-9.641,-0.005,-2.07,-4.76,-6.44,-3.43
,-9.61,0.531,-2.402,-9.78,0.383,-2.075,-6.58,-6.3,-3.5
,-9.593,0.28,-2.548,-9.897,0.68,-2.462,-8.12,-6.86,-3.64
35209.0,-9.548,0.814,-2.594,-9.696,-0.364,-1.378,-1.4,-7.7,-3.78
,-9.368,0.495,-2.235,-9.636,-0.12,-1.173,-3.29,-6.79,-3.5
,-9.375,-0.11,-1.845,-9.842,0.62,-1.991,-1.26,-5.25,-3.15
,-9.541,-0.402,-1.496,-9.689,0.436,-1.661,4.83,-3.92,-2.59
35285.0,-9.579,0.61,-1.998,-9.6,0.256,-2.235,6.02,-2.45,-2.1
,-9.466,0.44,-2.197,-9.541,0.043,-1.826,5.04,-1.96,-1.96
,-9.584,0.268,-2.209,-9.619,0.072,-1.524,5.6,-1.4,-2.03
,-9.586,0.235,-2.333,-9.854,0.455,-1.821,7.35,-1.33,-2.24
35360.0,-9.78,0.723,-1.85,-9.562,-0.117,-2.67,12.32,0.28,-2.24
,-9.727,0.854,-2.247,-9.567,-0.177,-2.489,7.77,-0.07,-2.66
,-9.653,0.553,-2.544,-9.552,-0.165,-2.029,2.24,-0.21,-3.01
,-9.66,0.141,-2.685,-9.969,0.199,-2.257,0.42,-0.14,-3.15
35436.0,-10.043,0.663,-3.089,-9.608,-0.553,-2.532,5.67,-3.92,-3.29
,-9.797,0.632,-3.405,-9.698,-0.041,-2.197,-1.33,-5.39,-3.99
,-9.385,0.069,-3.23,-9.682,0.034,-1.582,-5.39,-5.46,-3.5
,-9.373,-0.558,-2.85,-9.713,0.0,-1.23,-2.73,-5.46,-2.66
35511.0,-9.761,0.026,-1.058,-9.459,0.172,-3.829,6.51,-5.32,-1.61
,-9.976,0.316,-1.613,-9.359,-0.546,-3.699,6.3,-5.81,-1.68
,-10.043,0.656,-2.532,-9.445,-0.799,-3.276,2.66,-7.14,-2.03
,-9.859,0.689,-3.534,-9.512,-0.684,-2.627,-4.13,-9.03,-2.94
35587.0,-9.588,-0.244,-1.744,-9.6,0.304,0.948,13.65,-11.62,-0.63
,-9.617,0.242,-1.201,-9.605,0.184,1.417,17.43,-10.99,-0.49
,-9.696,0.268,-0.273,-9.782,0.077,1.412,17.15,-9.94,-0.7
,-9.675,0.333,0.385,-9.873,0.323,1.132,15.61,-7.56,-0.63
35663.0,-9.82,0.354,0.646,-9.722,0.163,-2.18,6.51,8.68,-0.42
,-9.73,0.215,0.045,-9.682,0.067,-2.479,1.61,11.27,-0.91
,-9.71,0.0,-0.668,-9.73,0.223,-3.135,-1.96,13.23,-1.19
,-9.686,-0.072,-1.326,-9.643,-0.005,-3.178,-3.36,14.49,-1.19
35739.0,-9.593,-0.129,-3.51,-9.732,0.026,-3.309,-2.17,11.55,-0.91
,-9.639,-0.297,-3.666,-9.696,0.081,-3.049,0.98,10.01,-0.56
,-9.691,-0.357,-3.606,-9.667,0.108,-2.764,5.04,8.33,-0.14
,-9.756,-0.134,-3.52,-9.703,0.194,-2.474,8.54,6.58,0.14
35814.0,-9.66,0.029,-2.178,-9.756,-0.026,-1.732,2.03,1.82,-0.14
,-9.727,-0.01,-1.955,-9.725,-0.012,-1.816,0.42,1.47,-0.42
,-9.744,-0.045,-1.826,-9.751,-0.048,-1.919,-0.77,1.19,-0.49
,-9.708,-0.014,-1.692,-9.698,-0.017,-1.938,-1.4,1.68,-0.35
35890.0,-9.655,-0.041,-1.96,-9.67,-0.179,-2.13,0.42,2.73,0.07
,-9.694,0.012,-2.003,-9.718,-0.16,-2.206,0.84,2.87,0.07
,-9.667,-0.101,-2.053,-9.651,-0.038,-2.19,0.56,2.94,0.0
,-9.691,-0.177,-2.048,-9.629,0.01,-2.185,1.61,3.08,0.21
35966.0,-9.71,0.053,-2.137,-9.663,-0.074,-2.034,6.37,2.52,0.7
,-9.722,0.158,-2.134,-9.672,-0.014,-2.039,5.95,2.52,0.7
,-9.701,0.146,-2.065,-9.682,0.026,-2.032,4.83,2.59,0.63
,-9.694,0.002,-2.036,-9.643,0.074,-2.079,3.57,2.59,0.63
36042.0,-9.651,0.057,-2.01,-9.684,-0.117,-2.175,0.56,2.94,0.21
,-9.734,0.012,-2.063,-9.655,-0.156,-2.218,-0.21,2.87,0.21
,-9.744,0.036,-2.029,-9.679,-0.098,-2.307,-0.7,2.73,0.14
,-9.698,0.017,-2.13,-9.696,-0.053,-2.19,-1.19,2.73,0.14
36118.0,-9.718,0.031,-2.333,-9.648,-0.012,-2.383,2.17,2.17,0.49
,-9.658,0.055,-2.216,-9.631,0.002,-2.297,1.82,2.17,0.42
,-9.701,-0.045,-2.266,-9.691,-0.024,-2.3,1.82,1.75,0.49
,-9.682,0.036,-2.314,-9.72,0.022,-2.316,2.24,1.4,0.42
36193.0,-9.643,0.084,-2.245,-9.746,0.043,-2.194,3.43,0.35,0.49
,-9.686,-0.045,-2.194,-9.698,0.0,-2.163,3.29,0.35,0.42
,-9.679,-0.067,-2.137,-9.653,-0.045,-2.134,3.71,0.49,0.56
,-9.737,-0.045,-2.103,-9.648,-0.067,-1.955,4.69,0.35,0.49
36269.0,-9.66,0.031,-2.072,-9.679,-0.235,-2.099,3.22,0.14,0.49
,-9.734,0.057,-2.146,-9.684,-0.103,-2.118,2.24,0.0,0.35
,-9.67,-0.007,-2.142,-9.643,-0.022,-1.95,0.91,0.0,0.42
,-9.636,-0.129,-2.106,-9.627,-0.141,-1.797,0.84,0.21,0.42
36344.0,-9.734,-0.038,-1.701,-9.675,-0.065,-1.761,3.43,1.05,0.7
,-9.763,0.081,-1.704,-9.679,-0.072,-1.989,2.73,1.4,0.56
,-9.677,0.067,-1.756,-9.701,-0.019,-2.072,0.84,1.33,0.35
,-9.622,0.024,-1.811,-9.667,-0.034,-2.056,-0.63,1.75,0.35
36420.0,-9.641,-0.077,-2.111,-9.672,-0.029,-2.12,-0.14,2.8,0.42
,-9.667,-0.057,-2.151,-9.753,0.043,-2.048,0.63,2.73,0.63
,-9.675,-0.019,-2.158,-9.715,0.055,-2.125,1.47,2.87,0.7
,-9.663,0.007,-2.084,-9.684,0.045,-2.099,2.03,3.08,0.77
36496.0,-9.67,-0.024,-2.082,-9.677,-0.199,-2.321,-0.91,3.08,0.56
,-9.684,-0.122,-2.089,-9.677,-0.213,-2.292,-1.05,3.15,0.7
,-9.722,-0.136,-2.166,-9.921,-0.227,-2.276,-0.63,3.01,0.84
,-9.67,-0.168,-2.259,-9.797,0.101,-2.242,-0.14,2.66,1.05
36572.0,-9.782,0.093,-1.759,-9.758,-0.093,-2.067,-3.64,-1.26,0.84
,-9.543,0.29,-1.943,-9.622,-0.077,-1.989,-4.83,-1.68,0.98
,-9.502,0.002,-2.017,-9.627,-0.034,-2.065,-5.53,-0.7,1.4
,-9.663,-0.433,-1.811,-9.564,0.0,-2.137,-4.69,0.49,1.89
36647.0,-9.643,0.01,-1.957,-9.686,0.517,-1.589,0.7,2.73,2.94
,-9.655,0.074,-1.665,-9.634,0.311,-1.622,0.49,3.08,2.87
,-9.835,0.194,-1.402,-9.478,0.103,-1.551,-0.49,3.08,2.73
,-9.926,0.409,-1.429,-9.579,0.055,-1.558,-3.99,0.98,2.1
36723.0,-9.643,0.103,-1.929,-9.605,-0.029,-1.802,-15.61,4.13,2.87
,-9.579,0.014,-2.044,-9.708,0.098,-1.893,-15.61,5.6,3.08
,-9.612,-0.012,-2.051,-9.83,0.246,-1.874,-15.26,7.0,3.5
,-9.478,-0.041,-1.95,-9.902,0.443,-2.0,-14.7,8.26,3.78
36799.0,-9.83,0.44,-2.668,-9.383,-0.893,-1.953,-18.34,3.92,3.57
,-9.483,0.086,-2.936,-9.308,-0.775,-1.299,-22.26,2.38,3.15
,-9.363,-0.218,-2.903,-10.021,0.024,-1.419,-18.69,3.85,3.71
,-9.363,-0.589,-2.517,-9.876,0.792,-1.933,-11.97,6.3,4.48
36875.0,-9.703,1.261,-1.694,-9.552,0.151,-2.111,7.07,10.22,4.48
,-9.832,1.055,-1.823,-9.593,0.476,-2.718,-2.38,10.15,5.18
,-9.414,0.627,-2.125,-9.397,0.713,-3.173,-10.36,10.29,5.74
,-9.734,0.196,-2.108,-9.325,0.481,-3.29,-12.67,11.34,5.88
36950.0,-8.784,-0.16,-2.496,-9.907,0.806,-2.247,-5.39,14.63,3.08
,-9.44,-0.352,-1.496,-9.447,0.4,-2.003,6.02,17.5,3.5
,-9.646,0.034,-2.089,-9.392,-0.251,-1.785,14.42,15.47,2.24
,-9.986,0.538,-1.642,-9.414,-0.512,-1.522,18.97,14.63,0.98
37026.0,-9.507,-0.455,-1.721,-9.249,0.318,-1.917,19.18,17.5,3.85
,-9.428,-0.287,-2.022,-9.347,0.873,-2.034,20.86,17.78,4.13
,-9.361,-0.187,-2.479,-9.414,1.441,-1.838,19.95,17.92,4.83
,-9.076,-0.022,-2.673,-9.789,1.543,-2.493,17.36,19.88,5.25
37102.0,-9.904,1.285,-3.072,-9.351,-1.878,-2.419,-10.85,19.81,1.26
,-9.615,0.416,-3.132,-9.665,-1.278,-2.716,-20.09,19.95,2.1
,-9.033,-0.589,-3.154,-9.536,-0.373,-3.178,-22.26,20.44,3.71
,-8.804,-1.529,-2.594,-9.167,0.335,-3.398,-15.89,22.26,5.39
37177.0,-8.887,0.766,-3.491,-9.615,1.682,-3.563,19.25,21.56,7.7
,-9.002,0.881,-3.005,-9.328,1.362,-3.616,18.62,23.73,7.7
,-9.612,1.213,-3.214,-9.014,0.821,-3.381,17.92,22.12,6.93
,-9.543,1.598,-3.683,-9.337,0.51,-3.63,14.56,20.37,5.25
37253.0,-9.337,0.38,-3.996,-9.153,0.507,-3.774,-1.82,19.04,1.89
,-9.325,-0.014,-3.893,-9.146,0.981,-3.738,1.54,19.18,1.75
,-9.203,-0.127,-3.979,-9.316,1.208,-3.3,4.48,18.55,2.1
,-8.957,-0.029,-3.8,-9.273,1.019,-3.391,7.49,19.39,2.1
37329.0,-9.263,0.608,-3.223,-9.124,0.177,-3.386,-0.14,19.18,0.77
,-9.308,0.184,-3.259,-9.043,0.366,-3.635,-3.5,18.97,1.96
,-9.371,0.215,-3.396,-9.098,0.44,-3.472,-3.43,18.27,2.38
,-9.263,0.294,-3.453,-9.182,0.309,-3.503,-1.75,17.29,2.45
37405.0,-9.119,0.426,-3.702,-9.172,1.125,-3.769,0.28,19.67,2.24
,-8.942,0.579,-3.891,-9.21,1.175,-3.798,1.33,20.02,2.52
,-8.926,0.763,-3.86,-9.15,0.991,-3.833,2.38,20.58,1.89
,-8.995,0.938,-3.826,-9.038,0.72,-3.891,3.22,21.49,0.56
37480.0,-9.028,0.414,-3.881,-8.856,1.201,-4.176,-4.13,20.44,-0.14
,-8.969,0.357,-4.097,-8.904,1.441,-4.185,-4.2,20.72,-0.7
,-9.112,0.476,-4.034,-8.849,1.457,-4.214,-2.38,20.79,-1.68
,-8.978,0.845,-4.188,-8.698,1.101,-4.36,0.56,20.44,-2.66
37556.0,-8.947,0.663,-3.869,-8.906,-0.364,-4.855,-7.98,21.98,-6.51
,-9.057,0.337,-4.178,-8.985,-0.364,-4.963,-6.37,21.56,-6.23
,-8.949,0.141,-4.537,-8.871,-0.541,-5.083,-3.43,20.93,-6.51
,-8.861,-0.048,-4.874,-8.756,-0.622,-4.879,-0.42,20.37,-6.37
37632.0,-8.942,-0.531,-4.604,-8.868,-0.744,-4.432,8.61,19.39,-4.76
,-8.868,-0.151,-4.853,-8.873,-0.983,-4.69,8.96,17.99,-4.9
,-8.559,0.287,-5.013,-8.863,-1.237,-4.841,6.93,17.29,-4.83
,-8.849,-0.101,-4.788,-8.878,-0.974,-4.886,2.24,16.66,-3.22
37708.0,-8.753,-0.354,-5.118,-8.751,0.483,-4.812,10.15,15.12,0.21
,-8.782,0.254,-5.14,-8.873,-0.05,-4.877,10.99,14.21,-0.35
,-8.643,0.361,-4.69,-8.732,-0.445,-4.862,8.4,14.0,-0.84
,-8.662,0.455,-4.645,-8.76,-0.369,-5.181,6.86,13.23,-0.56
37783.0,-8.82,-0.055,-5.262,-8.595,-0.493,-4.539,9.66,9.59,1.54
,-8.66,-0.127,-5.183,-8.66,-0.05,-5.126,10.29,8.61,1.19
,-8.634,-0.51,-4.795,-8.562,-0.022,-5.03,9.59,8.82,1.68
,-8.38,-0.656,-4.8,-8.363,0.136,-5.042,11.34,8.75,2.38
37859.0,-8.72,0.416,-5.339,-8.643,0.704,-5.341,10.36,8.12,5.25
,-8.638,0.048,-5.073,-8.562,0.964,-5.59,20.44,8.4,5.32
,-8.739,0.493,-5.379,-8.681,0.916,-5.382,19.11,7.77,4.48
,-8.765,0.507,-5.214,-9.679,-2.582,-2.448,16.38,6.93,3.78
37934.0,-7.856,-7.375,7.528,-8.775,-0.077,-4.678,-135.66,13.44,10.15
,-8.887,-5.683,2.69,-8.808,0.101,-5.264,-116.13,11.62,9.03
,-8.61,-3.793,0.275,-8.78,0.16,-5.348,-51.31,8.19,6.37
,-8.737,-1.661,-2.302,-8.607,0.098,-5.176,-13.23,6.44,4.34
38010.0,-8.586,0.275,-5.042,-8.531,0.031,-5.315,6.72,4.97,3.36
,-8.569,0.282,-5.032,-8.354,-0.096,-5.296,5.39,5.25,3.64
,-8.552,0.213,-5.073,-8.375,0.084,-5.434,3.78,5.25,4.06
,-8.574,0.156,-5.286,-8.483,0.378,-5.642,2.94,5.04,4.27
38086.0,-8.547,0.55,-5.401,-8.334,0.072,-5.317,4.06,5.46,3.64
,-8.591,0.615,-5.262,-8.256,0.249,-5.379,3.85,5.39,2.31
,-8.665,0.644,-5.394,-8.378,0.72,-5.537,3.08,4.97,1.4
,-8.662,0.325,-5.315,-8.844,0.943,-5.341,2.17,4.48,1.75
38162.0,-8.952,0.39,-5.286,-8.454,-0.878,-5.307,2.87,3.15,2.24
,-8.753,-0.541,-5.162,-8.598,-0.244,-5.633,0.35,3.01,3.43
,-8.619,-0.957,-5.185,-8.753,0.412,-5.492,1.75,2.87,5.18
,-8.402,-1.206,-5.272,-8.885,0.756,-5.642,3.71,2.38,6.51
38238.0,-8.811,0.694,-5.566,-8.457,0.737,-5.494,2.94,-1.26,7.63
,-8.626,0.419,-5.432,-8.634,1.144,-5.678,0.07,-1.19,7.49
,-8.514,0.503,-5.767,-8.811,1.012,-5.051,0.77,-1.89,6.72
,-8.382,0.431,-5.614,-8.715,0.766,-4.85,-0.56,-1.96,5.53
38313.0,-8.521,0.538,-5.248,-8.629,-0.268,-5.497,-5.81,-6.16,1.96
,-8.574,0.275,-5.544,-8.607,-0.333,-5.532,-8.26,-7.14,2.24
,-8.588,-0.225,-5.36,-8.629,-0.187,-5.745,-8.68,-7.42,2.94
,-8.722,-0.223,-5.37,-8.61,-0.165,-5.53,-7.07,-9.03,3.99
38389.0,-8.61,-0.017,-5.449,-8.643,0.562,-5.147,-3.78,-12.04,4.83
,-8.504,0.354,-5.745,-8.806,0.601,-5.027,-1.82,-12.39,4.55
,-8.48,0.457,-5.791,-8.78,0.711,-5.035,-0.56,-12.32,3.92
,-8.538,0.507,-5.475,-8.83,0.699,-5.257,0.07,-11.97,3.36
38465.0,-8.689,0.55,-5.197,-8.717,0.438,-4.697,1.4,-14.28,1.33
,-8.818,0.373,-4.896,-8.679,0.392,-4.604,3.15,-14.98,1.19
,-8.729,0.536,-4.989,-8.794,0.732,-4.891,6.58,-15.89,0.98
,-8.804,0.603,-4.975,-8.856,0.835,-4.917,8.19,-16.52,0.21
38541.0,-8.93,0.782,-4.855,-8.825,0.041,-4.893,7.49,-20.58,0.21
,-8.72,0.682,-4.965,-8.902,0.112,-4.508,6.37,-21.91,0.21
