Timestamp,AccX,AccY,AccZ,GyroX,GyroY,GyroZ,MagnX,MagnY,MagnZ
0.0,-9.076,-1.067,-3.848,-9.098,-1.175,-3.764,2.66,1.26,0.84
,-9.088,-1.168,-3.817,-9.141,-1.134,-3.795,2.59,1.26,0.84
,-9.088,-1.204,-3.817,-9.11,-1.158,-3.733,2.87,1.05,0.84
,-9.067,-1.173,-3.771,-9.11,-1.134,-3.733,3.08,0.91,0.91
75.0,-9.11,-1.086,-3.719,-9.112,-1.161,-3.79,2.8,0.91,0.84
,-9.115,-1.106,-3.731,-9.098,-1.17,-3.721,2.8,0.98,0.77
,-9.141,-1.156,-3.731,-9.1,-1.153,-3.714,2.66,0.98,0.77
,-9.136,-1.151,-3.766,-9.115,-1.094,-3.678,2.73,0.98,0.84
151.0,-9.127,-1.086,-3.719,-9.143,-1.122,-3.735,2.45,0.98,0.77
,-9.127,-1.144,-3.695,-9.146,-1.129,-3.711,2.52,1.19,0.91
,-9.139,-1.165,-3.683,-9.122,-1.11,-3.69,2.73,1.19,0.91
,-9.134,-1.103,-3.68,-9.11,-1.173,-3.707,2.87,0.98,0.7
227.0,-9.105,-1.187,-3.685,-9.117,-1.139,-3.747,2.45,1.26,0.84
,-9.086,-1.127,-3.721,-9.103,-1.134,-3.723,2.45,1.19,0.84
,-9.182,-1.144,-3.793,-9.139,-1.117,-3.714,2.45,1.19,0.77
,-9.189,-1.146,-3.781,-9.141,-1.127,-3.721,2.38,1.19,0.77
302.0,-9.143,-1.125,-3.68,-9.095,-1.139,-3.798,2.59,1.19,0.91
,-9.127,-1.134,-3.68,-9.11,-1.115,-3.74,2.66,1.33,0.84
,-9.112,-1.139,-3.721,-9.107,-1.117,-3.778,2.66,1.47,0.98
,-9.131,-1.153,-3.81,-9.117,-1.115,-3.778,2.94,1.33,1.05
378.0,-9.134,-1.065,-3.75,-9.11,-1.091,-3.778,2.52,0.84,0.77
,-9.148,-1.12,-3.781,-9.141,-1.134,-3.735,2.59,0.84,0.84
,-9.124,-1.101,-3.788,-9.129,-1.134,-3.75,2.73,0.91,0.84
,-9.095,-1.103,-3.716,-9.093,-1.139,-3.74,2.94,0.84,0.98
453.0,-9.107,-1.149,-3.695,-9.139,-1.091,-3.616,3.01,0.77,0.84
,-9.146,-1.11,-3.628,-9.146,-1.165,-3.68,3.08,0.77,0.84
,-9.177,-1.137,-3.57,-9.148,-1.141,-3.69,3.01,0.84,0.91
,-9.177,-1.089,-3.625,-9.098,-1.098,-3.692,2.87,0.91,0.98
529.0,-9.143,-1.103,-3.69,-9.134,-1.108,-3.687,2.8,1.12,0.91
,-9.155,-1.12,-3.714,-9.105,-1.168,-3.709,2.73,1.33,0.84
,-9.191,-1.115,-3.673,-9.086,-1.175,-3.676,2.59,1.33,0.98
,-9.158,-1.129,-3.687,-9.15,-1.158,-3.709,2.38,1.12,0.98
605.0,-9.17,-1.139,-3.69,-9.131,-1.101,-3.752,2.45,1.26,0.84
,-9.131,-1.12,-3.74,-9.148,-1.082,-3.764,2.24,1.12,0.84
,-9.139,-1.144,-3.695,-9.136,-1.094,-3.759,2.31,1.12,0.91
,-9.167,-1.113,-3.745,-9.074,-1.177,-3.74,2.59,1.05,0.84
681.0,-9.119,-1.182,-3.676,-9.263,-1.134,-3.69,2.38,0.7,0.84
,-9.153,-1.182,-3.668,-9.182,-1.125,-3.704,2.24,0.63,0.77
,-9.141,-1.18,-3.649,-9.122,-1.101,-3.766,2.38,0.77,0.84
,-9.208,-1.151,-3.654,-9.146,-1.122,-3.743,2.38,0.7,0.91
757.0,-9.172,-1.141,-3.731,-9.076,-1.165,-3.721,1.26,0.42,0.84
,-9.143,-1.137,-3.704,-9.083,-1.211,-3.788,1.4,0.28,0.77
,-9.158,-1.065,-3.764,-9.122,-1.125,-3.781,1.19,0.28,0.77
,-9.129,-1.182,-3.733,-9.083,-1.129,-3.807,0.98,-0.14,0.7
832.0,-9.093,-1.103,-3.829,-9.076,-1.108,-3.609,1.75,-0.91,0.7
,-9.105,-1.139,-3.79,-9.117,-1.18,-3.589,1.47,-1.05,0.7
,-9.064,-1.06,-3.762,-9.165,-1.211,-3.506,1.4,-1.33,0.63
,-9.1,-1.077,-3.68,-9.273,-1.201,-3.489,1.05,-1.54,0.63
908.0,-9.289,-1.163,-3.427,-9.275,-1.139,-3.513,1.33,-1.54,0.84
,-9.268,-1.072,-3.482,-9.095,-1.18,-3.53,1.75,-1.33,0.98
,-9.27,-1.108,-3.329,-9.15,-1.249,-3.628,1.47,-1.12,1.12
,-9.256,-1.067,-3.515,-9.194,-1.249,-3.63,0.84,-1.12,0.98
984.0,-9.136,-1.273,-3.561,-9.198,-1.122,-3.293,-0.77,-2.1,0.49
,-9.076,-1.151,-3.534,-9.244,-1.129,-3.089,-0.98,-2.45,0.56
,-9.064,-1.141,-3.654,-9.237,-1.055,-3.139,-1.12,-2.87,0.56
,-9.139,-1.153,-3.408,-9.261,-0.969,-3.305,-1.75,-2.8,0.63
1060.0,-9.179,-0.974,-3.271,-9.361,-0.794,-2.675,-7.28,-2.24,-0.07
,-9.189,-1.027,-3.161,-9.407,-0.785,-2.91,-8.68,-2.03,-0.42
,-9.258,-1.122,-2.934,-9.337,-1.015,-3.051,-10.57,-1.61,-0.98
,-9.347,-0.957,-2.659,-9.263,-1.223,-3.23,-10.85,-1.47,-1.19
1135.0,-9.129,-1.378,-3.324,-9.189,-0.96,-2.209,-15.33,0.84,-0.07
,-9.146,-1.259,-3.333,-9.505,-0.979,-1.926,-12.67,2.1,0.49
,-9.086,-1.007,-3.202,-9.655,-0.696,-2.754,-10.78,2.94,0.63
,-9.244,-0.902,-2.903,-9.359,-0.596,-3.288,-10.99,4.13,0.7
1211.0,-9.024,-0.895,-3.848,-9.095,-1.615,-3.032,-23.17,6.09,0.21
,-8.674,-1.347,-4.149,-9.502,-0.964,-3.206,-24.78,6.93,0.84
,-8.576,-1.907,-3.597,-9.612,-0.323,-3.431,-21.35,8.47,1.75
,-8.887,-1.881,-3.475,-9.911,0.168,-4.666,-13.65,9.52,2.45
1286.0,-9.395,0.316,-5.413,-8.938,-1.287,-5.171,-11.62,4.83,2.66
,-8.971,-0.33,-5.434,-9.005,-0.526,-5.15,-16.66,6.23,3.5
,-8.461,-1.287,-5.676,-9.191,-0.278,-4.877,-16.24,6.58,3.22
,-8.351,-1.788,-5.176,-9.34,-0.424,-4.74,-8.26,7.35,4.41
1362.0,-9.241,-0.756,-4.422,-8.882,-0.991,-3.508,5.39,-5.88,3.57
,-9.139,-1.359,-4.219,-8.873,-1.175,-3.857,7.07,-5.53,3.57
,-9.268,-1.254,-3.865,-9.153,-1.469,-3.544,11.34,-4.9,3.43
,-8.916,-1.117,-3.994,-9.411,-1.469,-3.405,13.23,-5.74,3.57
1438.0,-9.481,-0.857,-2.615,-9.261,-1.048,-2.895,12.95,-1.61,5.95
,-9.117,-0.203,-3.51,-9.6,-1.077,-2.383,11.83,-3.01,4.9
,-8.928,-0.163,-2.726,-9.512,-0.581,-2.56,6.72,-2.87,4.76
,-9.215,-0.412,-2.986,-8.83,-0.043,-2.879,1.33,-3.57,3.85
1514.0,-8.94,-0.012,-2.498,-9.718,-0.354,-2.434,2.73,-0.77,1.12
,-9.234,-0.397,-2.383,-9.466,-0.235,-2.661,2.1,1.82,0.63
,-9.287,-0.68,-1.653,-9.143,-0.378,-3.039,4.55,5.81,0.7
,-9.708,-0.524,-1.689,-8.827,-0.584,-2.907,9.31,8.96,0.63
1590.0,-9.174,-0.476,-2.436,-9.263,-1.017,-3.575,6.3,14.35,0.0
,-9.098,0.045,-3.336,-8.985,-1.886,-3.101,7.49,13.93,-1.54
,-8.926,0.0,-3.606,-9.031,-2.513,-3.02,3.92,13.37,-1.82
,-9.172,-0.273,-3.549,-9.162,-2.321,-3.271,-1.19,13.16,-1.54
1665.0,-9.16,-1.713,-3.915,-9.005,0.534,-4.893,8.4,15.26,1.47
,-9.217,-0.905,-4.535,-8.624,0.144,-5.142,10.92,12.81,1.96
,-9.055,-0.22,-4.798,-8.457,-0.651,-5.14,10.15,12.04,2.03
,-9.074,0.168,-4.602,-8.567,-1.859,-4.558,7.28,12.18,1.61
1741.0,-8.952,-2.831,-3.958,-9.067,-2.352,-4.389,-8.33,13.23,1.33
,-9.414,-3.386,-3.314,-8.811,-2.154,-4.606,-2.1,14.91,3.99
,-9.49,-3.211,-3.424,-8.303,-2.146,-4.645,6.16,13.09,6.58
,-9.167,-2.797,-4.159,-8.148,-2.024,-4.575,11.97,9.94,8.89
1817.0,-8.492,-1.957,-4.281,-8.729,0.134,-3.508,12.53,10.29,16.87
,-9.012,-1.594,-3.989,-8.871,0.5,-3.204,14.07,10.43,16.45
,-9.323,-1.005,-3.671,-8.926,0.866,-3.453,15.33,9.66,15.82
,-9.136,-0.261,-3.486,-9.241,0.835,-3.652,15.26,8.75,15.68
1893.0,-9.529,1.029,-3.702,-9.359,1.484,-4.022,9.73,9.45,9.8
,-9.737,1.575,-3.872,-9.179,1.113,-4.137,10.57,9.03,7.56
,-9.631,1.814,-4.044,-8.947,0.919,-4.42,9.17,9.1,4.76
,-9.476,1.732,-4.111,-8.397,0.352,-4.592,6.37,10.01,1.89
1968.0,-9.0,-0.132,-4.357,-8.708,-0.56,-4.384,-0.98,7.35,-8.26
,-9.399,-0.529,-4.152,-8.775,-0.785,-4.482,-0.07,7.21,-9.31
,-9.208,-0.589,-4.295,-8.741,-0.828,-4.575,1.89,6.72,-10.22
,-9.014,-0.457,-4.362,-8.598,-0.885,-4.678,3.85,6.93,-10.85
2044.0,-8.61,-1.134,-4.803,-8.952,-2.728,-4.649,5.25,5.81,-8.33
,-8.847,-1.496,-4.716,-8.83,-2.706,-4.525,5.6,5.53,-7.49
,-8.739,-1.965,-4.762,-8.947,-2.197,-4.645,6.23,5.67,-6.09
,-8.866,-2.563,-4.578,-8.961,-1.419,-5.102,7.14,5.39,-3.99
2119.0,-8.574,-1.01,-5.288,-8.981,-2.431,-4.475,17.15,1.4,-0.84
,-8.519,-0.914,-5.061,-9.237,-2.776,-3.946,15.4,1.61,1.05
,-8.363,-1.35,-4.944,-9.038,-2.309,-4.24,12.18,1.4,3.64
,-8.595,-1.91,-4.838,-8.768,-1.541,-4.331,10.29,2.52,6.58
2195.0,-9.055,-0.785,-4.3,-8.78,0.512,-4.724,22.89,0.91,9.03
,-9.112,0.041,-4.554,-8.332,-0.187,-4.255,21.7,-0.77,7.42
,-9.363,0.653,-4.484,-8.428,-0.534,-4.223,18.48,-1.4,5.88
,-8.935,0.699,-4.774,-8.873,-0.522,-4.214,14.0,-2.24,4.48
2271.0,-9.17,-0.754,-3.848,-9.024,-0.385,-4.31,5.25,2.1,4.76
,-9.225,-0.694,-4.015,-9.174,-0.464,-4.25,5.95,1.26,4.62
,-8.899,-0.581,-4.156,-9.167,-0.282,-4.41,6.86,1.89,4.97
,-8.794,-0.498,-4.061,-8.973,-0.818,-4.326,7.98,2.1,4.2
2347.0,-8.904,-1.371,-4.135,-9.206,-1.62,-4.35,0.56,5.39,3.22
,-8.827,-1.642,-4.13,-9.119,-1.338,-4.556,1.33,6.09,3.29
,-8.971,-1.922,-4.156,-8.737,-0.974,-4.695,2.59,7.07,3.99
,-9.021,-1.953,-4.173,-8.583,-0.706,-4.75,5.25,7.77,4.62
2422.0,-8.981,-0.5,-4.891,-8.693,-1.28,-4.568,7.56,7.77,4.13
,-9.213,-0.524,-4.853,-8.748,-1.438,-4.475,4.97,7.56,3.01
,-8.926,-0.761,-4.724,-8.677,-1.508,-4.525,3.15,7.77,2.94
,-8.677,-1.103,-4.566,-8.526,-1.161,-4.891,2.24,8.12,3.01
2498.0,-8.964,-0.491,-5.104,-8.667,-0.797,-4.63,7.0,9.52,4.13
,-9.237,-0.201,-5.032,-8.547,-0.706,-4.929,5.67,8.54,2.87
,-9.028,-0.182,-4.872,-8.729,-0.469,-4.98,2.66,8.54,1.75
,-8.871,-0.608,-4.592,-8.942,-0.12,-5.272,-0.42,8.47,1.26
2574.0,-9.194,-0.153,-5.3,-8.746,-0.536,-5.221,-7.42,5.6,0.07
,-9.129,-0.383,-5.085,-8.926,-0.476,-5.197,-9.8,4.97,0.56
,-8.868,-0.715,-5.042,-8.904,-0.694,-5.353,-12.11,4.69,1.4
,-8.768,-0.67,-5.126,-8.887,-0.828,-5.219,-12.11,3.71,2.03
2650.0,-8.796,-1.177,-5.08,-9.172,-0.983,-4.652,-19.39,1.61,5.88
,-8.894,-1.213,-5.104,-8.859,-0.615,-5.08,-18.97,2.1,7.0
,-9.081,-1.065,-5.353,-8.504,-0.651,-4.951,-17.08,2.38,7.49
,-9.033,-1.005,-5.245,-8.447,-0.622,-5.08,-15.47,2.24,8.05
2726.0,-8.753,-0.809,-5.011,-8.61,-0.27,-5.257,-17.85,-2.03,7.28
,-9.052,-0.782,-5.095,-8.598,-0.249,-4.728,-15.54,-2.73,6.51
,-9.119,-0.873,-5.03,-8.49,-0.069,-4.788,-13.65,-2.87,6.37
,-9.261,-0.806,-4.551,-8.938,-0.158,-4.728,-11.2,-3.36,6.58
2801.0,-9.045,-0.117,-4.781,-8.6,-0.364,-4.554,-4.34,-6.23,2.59
,-8.985,-0.065,-4.704,-8.665,-0.445,-4.355,-3.36,-5.81,2.52
,-9.167,-0.266,-4.362,-8.981,-0.455,-4.468,-3.92,-6.79,2.1
,-8.885,-0.328,-4.41,-8.851,-0.476,-4.456,-3.22,-8.19,1.68
2877.0,-8.808,-0.514,-4.432,-9.05,-0.349,-4.027,1.75,-8.82,1.89
,-9.036,-0.524,-4.274,-8.894,-0.797,-4.015,2.8,-8.61,1.89
,-8.823,-0.4,-4.312,-8.782,-0.17,-4.525,5.11,-8.12,2.1
,-9.067,-0.493,-4.168,-8.804,-0.031,-4.267,4.76,-6.86,3.15
2952.0,-8.832,-0.129,-4.422,-9.136,-0.701,-4.231,4.06,-11.06,2.1
,-8.765,0.043,-4.635,-9.141,-0.567,-4.07,2.03,-12.11,1.89
,-8.552,-0.285,-4.48,-8.923,-0.081,-3.989,0.42,-11.06,1.89
,-8.921,-0.625,-4.25,-8.744,0.266,-3.994,-0.28,-10.85,1.33
3028.0,-8.705,0.263,-3.836,-8.995,0.101,-3.606,3.36,-11.2,-0.21
,-5.633,0.297,-4.645,-8.832,-0.215,-3.628,4.55,-15.96,-3.29
,-9.32,0.505,-3.362,-9.088,-0.553,-3.396,2.03,-13.3,-2.8
,-9.404,0.392,-3.862,-9.332,-0.438,-3.532,0.21,-11.76,-2.8
3104.0,-9.399,-0.306,-3.69,-8.827,-0.718,-4.073,4.69,-7.0,-0.7
,-8.978,-0.409,-3.886,-8.538,-0.931,-3.92,3.57,-6.51,-0.56
,-9.153,-0.739,-3.743,-8.622,-1.228,-3.805,2.45,-6.09,-1.33
,-9.22,-0.787,-3.884,-8.818,-1.249,-3.599,2.03,-8.47,-2.73
3180.0,-9.263,-0.627,-3.597,-8.988,-0.213,-3.192,14.63,-5.67,0.63
,-9.232,0.057,-3.676,-9.15,-0.215,-3.329,16.1,-6.58,1.12
,-9.174,0.246,-3.522,-9.265,-0.034,-3.206,14.35,-5.39,0.98
,-9.052,0.211,-3.652,-9.545,0.165,-3.295,13.23,-3.92,0.28
3255.0,-9.497,0.218,-3.307,-8.993,-0.72,-3.348,13.16,-2.94,-1.4
,-9.481,-0.067,-3.372,-9.036,-0.861,-3.757,11.83,-2.59,-2.1
,-9.284,-0.302,-3.441,-9.191,-0.708,-3.632,9.52,-3.08,-3.36
,-8.993,-0.579,-3.187,-9.253,-0.737,-3.642,7.91,-3.22,-3.5
3331.0,-9.007,-0.854,-3.285,-9.251,0.4,-4.085,8.33,-3.36,-2.94
,-9.277,-0.61,-3.51,-9.107,-0.091,-4.209,11.9,-3.22,-3.08
,-9.28,-0.177,-3.975,-8.832,-0.625,-3.781,11.41,-5.18,-3.85
,-9.124,0.311,-3.687,-8.918,-0.651,-3.18,10.85,-5.6,-2.94
3407.0,-9.258,-0.464,-3.841,-9.273,-0.632,-3.759,12.67,-7.35,-4.62
,-9.196,-0.462,-3.486,-9.028,-0.95,-2.974,11.2,-7.98,-4.97
,-9.182,-0.369,-3.427,-9.069,-1.01,-2.869,8.61,-8.54,-4.69
,-9.206,-0.519,-3.288,-9.323,-1.027,-2.745,6.65,-9.03,-4.83
3483.0,-9.356,-0.629,-2.479,-9.158,-1.153,-2.441,7.77,-6.09,-3.43
,-9.423,-0.385,-2.85,-9.423,-1.275,-2.639,6.16,-5.74,-3.57
,-9.313,-0.488,-2.795,-9.426,-1.103,-2.357,2.87,-5.39,-3.57
,-9.129,-0.787,-2.687,-9.447,-0.833,-2.503,1.4,-4.48,-3.22
3559.0,-9.469,-0.62,-3.142,-9.009,-1.091,-3.422,7.42,0.14,-1.47
,-9.129,-0.615,-3.348,-9.316,-0.964,-3.192,5.6,0.14,-1.54
,-8.954,-0.704,-3.475,-9.397,-1.043,-2.879,4.34,0.49,-1.26
,-8.959,-0.962,-3.616,-9.34,-1.096,-2.783,3.36,0.49,-1.54
3634.0,-9.533,-0.962,-3.381,-9.107,-1.106,-4.075,3.5,1.82,0.0
,-9.294,-0.95,-3.52,-9.284,-1.101,-4.53,1.61,1.54,0.14
,-9.129,-1.007,-3.965,-9.215,-1.161,-4.415,-0.35,1.05,0.35
,-9.062,-1.196,-4.152,-9.17,-0.83,-4.549,-0.21,0.7,0.84
3710.0,-9.148,-0.814,-4.685,-9.158,-1.213,-3.513,5.74,-4.62,2.59
,-9.005,-0.885,-4.46,-9.232,-1.445,-3.412,5.81,-5.67,2.66
,-9.174,-0.902,-4.357,-9.261,-1.242,-3.154,5.46,-6.44,2.31
,-9.122,-0.936,-3.917,-9.445,-0.766,-3.312,5.11,-7.56,1.89
3785.0,-9.512,-0.29,-3.398,-9.409,-0.541,-2.742,10.71,-8.61,3.08
,-9.232,0.0,-3.214,-9.56,-0.412,-2.728,8.47,-8.33,2.87
,-9.21,-0.146,-3.044,-9.56,-0.256,-2.764,5.18,-8.12,2.38
,-9.28,-0.467,-2.718,-9.45,-0.172,-2.766,3.92,-7.77,1.89
3861.0,-9.361,-0.306,-2.821,-9.39,-0.694,-3.008,-0.35,-7.07,-0.07
,-9.373,-0.708,-2.879,-9.253,-0.811,-2.795,-2.38,-6.72,-0.42
,-9.478,-0.806,-2.965,-9.371,-1.007,-2.726,-2.45,-6.72,-0.63
,-9.497,-0.715,-3.12,-9.538,-1.115,-2.608,-2.1,-7.0,-0.84
3937.0,-9.675,-1.18,-2.735,-9.217,-1.256,-3.293,-0.77,-5.04,0.77
,-9.514,-1.134,-2.91,-9.368,-1.0,-3.266,-0.42,-4.97,1.12
,-9.22,-1.117,-3.096,-9.485,-0.646,-3.271,-1.19,-5.04,1.4
,-9.1,-1.295,-3.154,-9.596,-0.414,-3.29,-0.98,-4.62,1.82
4013.0,-9.328,-0.591,-3.137,-9.471,-0.787,-2.575,2.1,-5.04,2.94
,-9.323,-0.56,-3.065,-9.471,-0.995,-2.34,3.36,-5.11,3.36
,-9.464,-0.596,-2.965,-9.519,-0.919,-2.312,4.97,-4.76,3.64
,-9.474,-0.519,-2.809,-9.545,-0.615,-2.285,6.37,-4.62,3.64
4088.0,-9.552,-0.459,-2.359,-9.464,-0.744,-2.704,4.9,-1.82,3.01
,-9.639,-0.335,-2.486,-9.407,-0.952,-2.694,2.87,-1.68,2.38
,-9.596,-0.316,-2.596,-9.426,-0.842,-2.589,0.98,-1.61,1.89
,-9.502,-0.361,-2.639,-9.569,-0.615,-2.606,-0.21,-1.19,1.68
4164.0,-9.608,-0.474,-2.592,-9.457,-0.672,-2.711,2.8,0.56,1.75
,-9.596,-0.321,-2.651,-9.55,-0.462,-2.989,1.19,0.77,1.26
,-9.5,-0.364,-2.644,-9.469,-0.282,-3.106,-0.98,1.05,0.7
,-9.445,-0.562,-2.639,-9.426,-0.328,-3.139,-1.96,1.19,0.14
4240.0,-9.442,-0.447,-3.072,-9.474,-0.909,-2.556,-1.68,1.33,-0.84
,-9.426,-0.503,-2.965,-9.555,-0.814,-2.608,-2.17,0.84,-1.19
,-9.536,-0.692,-2.838,-9.605,-0.754,-2.539,-3.57,0.28,-1.96
,-9.399,-0.964,-2.666,-9.586,-0.617,-2.73,-4.97,0.35,-2.31
4316.0,-9.505,-0.428,-2.855,-9.289,-0.79,-3.058,-4.13,1.33,-1.75
,-9.445,-0.462,-3.034,-9.342,-0.62,-3.017,-4.2,1.12,-1.89
,-9.318,-0.479,-3.132,-9.488,-0.526,-2.934,-4.13,0.84,-2.03
,-9.27,-0.565,-3.24,-9.414,-0.495,-2.659,-3.22,0.56,-1.96
4391.0,-9.447,-0.38,-2.3,-9.67,-0.682,-1.881,-0.21,1.47,-1.82
,-9.533,-0.421,-2.101,-9.555,-0.562,-1.792,-1.54,2.17,-1.96
,-9.708,-0.503,-1.974,-9.639,-0.335,-2.022,-2.73,3.01,-2.17
,-9.725,-0.782,-1.742,-9.459,-0.335,-2.216,-4.48,4.27,-2.24
4467.0,-9.292,-0.73,-2.163,-9.758,-0.57,-1.668,-15.05,7.84,-3.5
,-9.203,-1.251,-1.859,-9.165,-0.474,-2.333,-15.68,9.52,-3.01
,-9.517,-1.357,-1.469,-8.765,-0.95,-2.52,-12.67,11.55,-1.96
,-9.94,-1.019,-1.797,-9.112,-1.457,-1.649,-10.29,11.76,-1.89
4543.0,-9.545,-1.553,-2.185,-8.698,-0.352,-2.611,-9.59,19.39,1.82
,-9.581,-1.314,-2.228,-9.581,0.105,-1.9,-2.8,21.63,3.29
,-9.418,-0.912,-2.034,-9.514,0.744,-3.597,3.22,22.75,5.04
,-8.94,-0.335,-3.309,-9.277,0.871,-3.116,4.2,21.21,4.55
4618.0,-9.442,0.732,-3.903,-9.265,-2.383,-1.328,-10.57,12.67,-1.12
,-9.141,-0.199,-4.386,-9.466,-1.271,-3.13,-20.86,12.25,-2.1
,-8.887,-1.34,-3.36,-8.964,-0.201,-3.565,-26.39,16.66,-0.42
,-8.739,-2.292,-2.647,-9.337,0.184,-3.967,-24.36,21.7,0.14
4694.0,-9.203,-0.593,-5.26,-8.787,-1.237,-3.74,-7.77,17.43,2.52
,-8.832,-1.493,-4.427,-8.885,-1.639,-3.135,-6.65,21.07,5.74
,-8.981,-1.156,-4.355,-8.76,-1.993,-2.819,3.15,21.7,6.58
,-8.811,-0.957,-4.31,-8.878,-1.563,-2.824,9.66,20.09,4.13
4770.0,-9.483,-0.591,-3.29,-9.045,0.981,-4.494,23.73,25.76,7.42
,-9.675,0.639,-3.97,-8.89,0.246,-4.669,24.57,23.1,6.44
,-9.574,1.409,-4.243,-8.818,-0.543,-4.46,19.46,21.21,5.11
,-9.354,1.429,-4.362,-8.804,-0.907,-3.999,11.97,21.14,3.43
4846.0,-8.988,-1.017,-3.518,-8.346,-1.125,-5.047,8.26,19.04,-2.94
,-9.261,-1.132,-3.671,-8.768,-1.323,-4.764,10.5,19.11,-2.52
,-8.849,-1.055,-4.269,-9.019,-1.295,-4.803,10.5,17.99,-0.56
,-8.497,-0.991,-4.963,-9.17,-1.18,-4.862,8.4,17.01,1.75
4921.0,-8.732,-1.237,-5.267,-9.196,-1.486,-4.384,3.64,14.98,2.17
,-8.275,-1.204,-5.19,-9.239,-1.28,-4.374,5.46,15.05,4.41
,-8.301,-1.268,-5.016,-8.887,-0.732,-4.544,7.7,15.96,5.11
,-8.748,-1.582,-4.551,-8.368,-0.483,-4.795,9.8,16.94,5.32
4997.0,-8.437,-0.409,-4.755,-8.871,0.56,-4.659,12.74,12.11,8.05
,-9.253,-0.345,-4.573,-8.983,0.455,-4.592,12.67,11.41,6.72
,-9.457,0.014,-4.707,-9.244,0.12,-4.216,12.04,9.31,5.88
,-9.11,0.376,-4.838,-9.167,0.002,-4.286,10.64,8.75,5.6
5073.0,-8.784,0.17,-4.46,-9.268,-0.546,-4.633,3.71,8.89,-0.7
,-8.591,0.244,-4.752,-9.351,-0.893,-4.568,4.69,8.89,-0.84
,-8.897,0.318,-4.822,-8.715,-0.995,-4.963,4.34,7.98,-1.47
,-9.05,-0.031,-4.812,-8.452,-0.881,-4.805,2.8,7.42,-2.59
5149.0,-8.433,-0.804,-4.714,-9.373,-1.039,-4.109,8.61,6.09,-2.8
,-8.567,-0.866,-4.451,-8.789,-1.134,-4.357,9.03,7.21,-2.8
,-8.928,-0.9,-4.106,-8.483,-1.182,-4.458,9.38,8.12,-2.8
,-9.014,-0.986,-4.188,-8.595,-1.129,-4.434,9.59,8.47,-1.75
5224.0,-8.801,-0.857,-4.592,-8.595,-0.201,-4.977,16.17,5.95,0.84
,-8.655,-0.507,-4.795,-8.804,-0.895,-4.795,17.22,5.39,0.35
,-8.509,-0.16,-5.111,-8.72,-1.541,-4.645,18.55,5.74,-0.56
,-8.562,0.024,-5.331,-9.122,-2.199,-4.233,18.97,5.6,-1.75
5300.0,-8.619,-2.608,-4.448,-8.504,-1.031,-5.248,16.24,5.46,3.29
,-8.65,-2.324,-4.616,-8.722,-1.077,-4.712,19.95,6.44,4.34
,-8.6,-1.907,-4.841,-8.552,-0.866,-4.989,23.87,5.53,4.62
,-8.528,-1.283,-5.233,-8.715,-0.5,-5.08,25.06,5.04,4.9
5376.0,-8.863,-0.156,-4.932,-8.914,0.175,-5.114,21.21,3.71,7.14
,-8.65,-0.079,-5.03,-8.894,-0.019,-5.102,18.76,3.08,6.37
,-8.545,-0.079,-4.975,-9.055,-0.012,-5.229,17.64,3.36,6.09
,-8.952,0.168,-4.874,-8.765,-0.345,-5.159,16.73,3.01,6.09
5451.0,-8.267,-1.089,-5.032,-8.794,-1.711,-4.941,7.0,1.82,2.8
,-8.21,-1.419,-5.004,-8.782,-1.51,-5.001,6.86,1.89,4.13
,-8.492,-1.811,-4.843,-9.043,-1.287,-4.96,6.16,1.96,5.46
,-8.629,-1.933,-4.781,-8.938,-1.039,-4.877,7.21,1.26,7.0
5527.0,-8.835,-0.775,-4.977,-8.875,-0.558,-5.286,8.54,0.21,5.39
,-8.756,-0.27,-5.257,-8.739,-0.759,-5.396,8.4,0.14,4.2
,-8.942,-0.187,-5.451,-8.768,-0.993,-5.252,6.86,0.77,2.8
,-9.048,-0.433,-5.425,-8.605,-1.127,-5.264,5.39,1.47,1.75
5603.0,-8.655,-1.333,-5.214,-8.928,-0.991,-5.209,5.11,1.96,0.84
,-8.559,-1.503,-5.001,-8.947,-1.0,-5.286,5.46,2.03,1.05
,-8.581,-1.414,-5.02,-8.851,-1.117,-5.351,6.02,1.61,0.77
,-8.67,-1.192,-5.288,-8.871,-0.986,-5.231,5.74,1.47,0.49
5679.0,-8.808,-0.715,-5.118,-8.598,-0.105,-4.994,2.59,1.89,1.89
,-8.808,-0.409,-4.989,-8.65,-0.596,-4.956,1.26,0.49,1.82
,-8.741,0.036,-5.159,-8.636,-1.0,-4.764,-1.12,-1.33,1.26
,-8.76,0.146,-5.059,-8.777,-0.988,-4.745,-4.62,-1.68,0.91
5754.0,-8.854,-0.744,-4.965,-8.813,-0.9,-4.621,-9.87,-0.14,6.72
,-9.031,-0.433,-4.989,-8.851,-0.931,-4.719,-8.61,-1.4,5.74
,-8.935,-0.555,-4.621,-8.693,-0.605,-5.13,-10.85,-2.24,4.76
,-8.71,-0.811,-4.614,-8.911,-0.601,-5.049,-12.11,-1.75,4.48
5830.0,-9.031,-0.61,-4.968,-8.423,-0.881,-4.872,-15.19,-6.09,5.53
,-8.844,-0.723,-5.042,-8.837,-0.668,-4.599,-14.35,-6.86,4.9
,-8.626,-0.826,-4.898,-9.007,-0.325,-4.692,-13.51,-6.51,4.34
,-8.524,-0.928,-4.767,-9.055,-0.218,-4.59,-13.86,-6.09,4.83
5906.0,-8.933,-0.225,-4.458,-8.997,-0.883,-4.518,-5.81,-11.13,-0.14
,-8.737,-0.349,-4.532,-8.856,-0.651,-4.424,-7.56,-10.57,0.14
,-8.665,-0.644,-4.637,-8.744,-0.347,-4.274,-8.4,-10.01,0.84
,-8.815,-0.888,-4.621,-8.811,-0.486,-4.168,-7.63,-9.87,0.98
5982.0,-9.088,-0.438,-4.298,-8.988,-0.694,-4.228,-2.03,-11.55,-0.14
,-9.072,-0.617,-4.19,-9.002,-0.723,-4.195,-2.73,-11.69,0.0
,-9.04,-0.558,-4.302,-8.758,-0.632,-4.338,-1.96,-11.06,0.21
,-9.028,-0.586,-4.233,-8.524,-1.055,-4.357,-0.98,-10.36,0.28
6057.0,-8.971,-0.938,-4.137,-8.983,-0.648,-4.369,1.26,-9.66,2.87
,-8.552,-0.852,-5.171,-9.088,-0.756,-4.255,1.82,-12.81,2.87
,-8.638,-0.96,-4.111,-8.878,-0.799,-4.161,0.21,-13.09,1.61
,-8.722,-0.708,-4.427,-8.626,-0.826,-4.293,3.43,-12.74,1.05
6133.0,-8.698,-1.082,-3.958,-9.418,-0.022,-4.03,6.3,-9.66,4.34
,-9.203,-1.007,-3.924,-8.811,0.074,-4.195,9.38,-8.61,4.9
,-9.373,-0.79,-3.843,-8.847,0.112,-4.245,12.74,-8.33,5.46
,-9.521,-0.5,-3.714,-8.741,-0.048,-4.202,14.42,-7.98,6.3
6208.0,-9.06,-0.251,-4.214,-8.842,-0.754,-3.774,6.44,-9.38,3.57
,-8.961,-0.464,-4.841,-9.052,-0.514,-4.116,7.35,-9.38,3.36
,-9.351,-0.297,-4.166,-9.253,-0.211,-3.733,8.96,-9.66,3.43
,-8.772,-0.553,-4.116,-9.024,0.065,-3.585,8.68,-8.89,3.57
6284.0,-8.997,0.306,-3.845,-9.335,-0.081,-3.295,8.82,-13.44,-1.54
,-9.318,-0.141,-3.206,-9.421,0.215,-3.233,4.9,-12.74,-1.68
,-9.05,-0.091,-3.278,-9.165,0.395,-3.252,3.43,-13.02,-2.24
,-9.227,-0.177,-3.312,-8.988,0.182,-3.017,2.66,-13.51,-2.94
6360.0,-8.93,-0.081,-3.228,-9.536,-1.122,-2.917,-2.66,-12.39,-8.47
,-9.06,-0.414,-3.171,-9.584,-1.005,-3.211,-4.62,-12.67,-8.26
,-9.217,-0.634,-3.343,-9.404,-0.613,-3.429,-5.6,-12.25,-7.42
,-9.371,-0.95,-3.072,-9.136,-0.232,-4.214,-5.18,-9.87,-6.44
6436.0,-8.849,-0.278,-4.252,-9.514,-1.498,-3.36,1.12,-9.31,-3.85
,-8.918,-0.931,-4.575,-9.069,-1.149,-3.087,0.35,-8.82,-3.71
,-9.105,-1.457,-4.453,-9.086,-0.737,-2.58,1.47,-9.1,-3.5
,-9.263,-1.56,-4.02,-9.584,-0.235,-3.032,5.6,-9.31,-2.31
6512.0,-9.586,-0.268,-2.912,-8.995,-1.01,-2.091,3.78,-15.05,-4.48
,-9.256,-0.598,-3.319,-9.16,-0.816,-1.804,0.56,-14.91,-4.62
,-9.081,-1.003,-2.46,-9.526,-0.479,-2.357,3.71,-11.69,-3.01
,-9.225,-1.034,-2.407,-9.732,-0.101,-2.848,10.15,-8.89,-2.59
6587.0,-9.706,-0.029,-2.682,-9.519,-0.625,-3.096,16.59,-6.44,-0.42
,-9.493,-0.026,-2.541,-9.385,-0.981,-3.293,15.19,-5.67,-1.54
,-9.38,0.177,-2.749,-9.229,-1.151,-3.57,14.42,-4.55,-2.66
,-9.517,-0.175,-2.496,-9.189,-1.168,-3.151,9.66,-4.48,-4.06
6663.0,-9.385,-1.05,-2.982,-9.691,-0.881,-2.879,10.92,-5.81,-3.15
,-9.402,-1.07,-2.556,-9.28,-1.039,-2.766,11.06,-5.32,-3.15
,-9.38,-1.065,-1.974,-9.215,-1.149,-2.948,10.15,-4.83,-3.15
,-9.818,-0.782,-2.714,-9.268,-1.223,-2.651,8.54,-5.6,-4.06
6739.0,-9.404,-1.23,-2.077,-9.447,-0.945,-1.567,12.11,-3.15,-0.77
,-9.557,-1.072,-1.804,-9.478,-0.919,-1.625,13.65,-2.03,-0.14
,-9.619,-1.086,-1.381,-9.507,-0.852,-1.579,14.0,-0.56,0.49
,-9.5,-1.199,-1.539,-9.529,-0.835,-1.699,13.86,0.21,0.84
6815.0,-9.562,-0.893,-1.754,-9.119,-1.07,-3.326,9.17,7.14,0.63
,-9.536,-0.699,-2.364,-9.1,-1.304,-3.329,7.84,7.14,0.21
,-9.533,-0.495,-2.773,-9.265,-1.297,-3.142,5.6,6.86,-0.56
,-9.335,-0.646,-3.118,-9.447,-1.091,-3.08,1.68,6.65,-1.4
6890.0,-9.552,-0.737,-3.264,-9.203,-1.077,-3.424,3.99,7.21,-0.07
,-9.483,-0.452,-3.199,-9.246,-1.046,-3.254,2.38,6.44,-0.42
,-9.335,-0.505,-3.348,-9.392,-0.988,-3.017,-1.05,5.81,-0.98
,-9.253,-0.928,-3.436,-9.596,-0.833,-3.061,-3.22,5.25,-1.4
6966.0,-9.529,-0.787,-2.972,-9.373,-1.06,-3.238,-0.56,4.55,-1.05
,-9.416,-0.916,-2.852,-9.421,-0.926,-3.563,-1.54,4.48,-1.05
,-9.392,-1.079,-2.931,-9.198,-1.058,-3.62,-1.54,4.62,-0.98
,-9.361,-1.137,-3.092,-9.217,-1.168,-3.63,-0.35,4.55,-0.7
7041.0,-9.258,-1.184,-3.597,-9.237,-1.18,-3.034,3.36,2.73,0.21
,-9.356,-1.094,-3.515,-9.344,-1.127,-3.025,4.76,2.31,0.42
,-9.33,-0.921,-3.36,-9.445,-0.914,-2.998,5.46,1.75,0.56
,-9.316,-0.897,-3.216,-9.392,-0.737,-2.955,4.69,1.33,0.56
7117.0,-9.392,-0.797,-2.883,-9.502,-0.983,-3.037,1.96,1.4,-0.21
,-9.371,-0.955,-2.793,-9.392,-0.881,-3.285,0.63,1.68,-0.35
,-9.416,-1.082,-2.769,-9.378,-0.842,-3.362,0.35,2.31,-0.21
,-9.502,-1.084,-2.955,-9.306,-0.936,-3.597,0.7,2.38,-0.28
7193.0,-9.249,-1.072,-3.573,-9.478,-0.905,-2.989,-1.75,0.84,-0.91
,-9.194,-1.237,-3.419,-9.533,-0.708,-3.001,-0.56,0.56,-0.42
,-9.256,-1.254,-3.183,-9.395,-0.771,-2.95,1.54,0.42,0.07
,-9.404,-1.115,-3.082,-9.368,-0.967,-3.029,3.5,0.7,0.42
7269.0,-9.323,-1.199,-3.072,-9.411,-0.972,-3.08,1.33,0.49,0.28
,-9.311,-1.216,-3.214,-9.483,-0.854,-3.168,2.45,0.56,0.56
,-9.265,-1.173,-3.084,-9.407,-0.902,-3.154,3.36,0.77,0.7
,-9.366,-1.149,-3.037,-9.323,-0.945,-3.08,3.99,0.91,0.84
7345.0,-9.402,-0.995,-3.087,-9.433,-0.893,-3.022,2.94,0.42,0.7
,-9.426,-0.988,-2.989,-9.407,-1.012,-3.037,3.71,0.63,0.77
,-9.397,-0.931,-2.879,-9.258,-1.225,-2.912,3.71,0.63,0.77
,-9.414,-0.912,-2.934,-9.22,-1.28,-2.962,3.43,0.7,0.63
7420.0,-9.366,-1.199,-2.977,-9.409,-0.916,-3.068,2.66,1.12,0.63
,-9.407,-0.893,-3.149,-9.375,-0.983,-3.104,3.15,0.84,0.56
,-9.45,-0.797,-3.099,-9.328,-0.998,-3.111,2.45,0.84,0.56
,-9.426,-0.842,-3.061,-9.332,-1.019,-3.058,1.05,0.77,0.49
7496.0,-9.392,-0.976,-3.07,-9.323,-1.017,-2.699,1.05,0.56,0.42
,-9.399,-0.964,-2.946,-9.368,-1.039,-2.589,0.63,0.56,0.35
,-9.373,-1.036,-2.816,-9.404,-1.17,-2.503,-0.28,0.77,0.28
,-9.328,-0.988,-2.714,-9.387,-1.225,-2.481,-0.49,0.84,0.28
7572.0,-9.409,-1.163,-2.52,-9.313,-1.127,-2.891,-1.47,3.64,1.4
,-9.366,-1.151,-2.649,-9.43,-0.972,-2.924,-1.26,4.41,1.82
,-9.313,-1.273,-2.639,-9.639,-0.89,-3.151,-1.96,4.97,2.1
,-9.22,-1.338,-2.769,-9.619,-0.744,-3.47,-1.12,5.18,2.38
7648.0,-9.514,-0.68,-3.618,-9.404,-0.73,-3.709,-3.01,3.85,1.82
,-9.368,-0.771,-3.666,-9.294,-0.718,-3.597,-4.06,3.43,1.82
,-9.22,-0.921,-3.68,-9.203,-0.742,-3.242,-4.34,3.01,1.54
,-9.27,-0.928,-3.345,-9.485,-0.888,-3.3,-3.43,2.45,1.54
7723.0,-9.442,-0.871,-3.288,-9.17,-1.208,-2.371,-9.31,-2.24,0.07
,-9.34,-0.739,-3.183,-9.306,-1.237,-2.118,-9.03,-2.52,0.21
,-9.39,-0.632,-2.879,-9.447,-1.003,-1.833,-10.01,-2.1,0.49
,-9.363,-0.859,-2.831,-9.696,-0.866,-1.424,-11.34,-1.19,0.77
7799.0,-9.82,-0.591,-1.941,-9.141,-0.991,-1.457,-5.67,5.11,3.01
,-9.564,-0.165,-1.955,-9.402,-1.51,-1.385,-7.91,6.23,2.59
,-9.258,0.045,-1.541,-9.612,-1.852,-2.213,-10.99,8.26,2.24
,-9.292,-0.024,-1.797,-9.576,-1.764,-1.807,-16.1,8.96,0.42
7874.0,-9.629,-1.084,-2.343,-8.904,-0.447,-3.699,-6.51,16.73,3.22
,-9.359,-0.409,-2.747,-9.418,-0.888,-3.604,-3.57,16.59,3.08
,-8.976,0.153,-3.362,-9.387,-1.165,-3.175,-4.13,16.17,3.08
,-8.871,0.069,-3.905,-9.284,-1.046,-2.558,-7.14,15.47,2.73
7950.0,-9.124,-0.871,-3.029,-9.05,-1.082,-2.498,-4.2,13.79,-0.35
,-9.083,-0.723,-3.211,-8.918,-0.713,-3.015,-4.69,13.65,0.42
,-9.088,-1.106,-2.793,-8.866,-0.34,-2.898,-4.48,16.03,2.31
,-9.079,-1.299,-2.673,-8.614,-0.223,-3.8,-4.06,18.69,3.36
8026.0,-8.591,-0.792,-3.977,-9.115,-0.658,-4.286,-11.41,16.52,2.17
,-9.088,-1.28,-3.814,-9.117,-0.244,-4.484,-12.46,18.97,3.57
,-9.17,-1.515,-3.312,-9.227,-0.282,-4.537,-8.75,21.63,4.41
,-9.596,-1.182,-3.518,-8.875,-0.471,-4.451,-2.8,21.35,4.2
8102.0,-8.406,-0.531,-3.848,-9.385,-0.823,-2.982,2.94,21.63,3.99
,-8.571,-0.163,-3.314,-9.213,-1.132,-2.826,6.51,24.92,1.75
,-8.875,-0.146,-3.276,-9.179,-0.754,-2.68,6.23,26.11,-0.35
,-9.227,-0.447,-3.187,-8.71,-0.668,-3.704,4.06,26.18,-0.28
8177.0,-9.052,-0.871,-4.008,-7.99,-1.089,-4.197,5.88,26.81,4.76
,-9.337,-0.998,-4.448,-8.167,-1.041,-4.621,3.64,23.38,4.41
,-8.978,-1.07,-4.59,-8.844,-0.924,-4.752,1.82,23.66,5.11
,-8.454,-1.122,-4.147,-8.997,-0.687,-4.75,1.68,26.46,6.16
8253.0,-9.007,-0.44,-4.676,-8.708,-0.66,-5.068,5.67,25.76,4.34
,-8.813,-0.002,-4.817,-9.021,-1.01,-5.135,5.6,26.11,3.5
,-8.473,0.007,-5.025,-9.184,-1.12,-5.279,4.76,25.83,2.24
,-8.356,-0.268,-5.245,-9.21,-1.024,-5.516,3.78,25.76,1.75
8329.0,-8.818,-0.914,-5.552,-8.677,-1.208,-5.08,7.91,17.85,2.24
,-8.208,-1.194,-5.336,-8.76,-1.022,-5.444,6.79,18.06,2.59
,-8.112,-1.295,-5.111,-8.787,-1.043,-5.264,4.83,18.2,3.78
,-8.349,-1.263,-4.977,-8.624,-1.029,-5.312,4.27,17.85,5.11
8405.0,-8.294,-0.55,-5.525,-8.677,1.11,-5.461,10.15,13.23,7.35
,-8.27,-0.098,-5.571,-8.746,1.271,-5.604,12.25,12.04,6.79
,-8.591,0.402,-5.324,-8.918,1.292,-5.621,12.39,10.01,5.18
,-8.442,0.816,-5.513,-8.696,1.053,-5.635,12.11,8.61,3.78
8481.0,-8.854,0.488,-5.446,-8.748,-0.022,-5.317,5.81,6.09,-4.62
,-8.591,0.304,-5.284,-8.562,-0.388,-5.59,7.0,6.37,-5.81
,-8.835,0.273,-5.425,-8.294,-0.835,-5.42,9.17,5.81,-7.0
,-8.734,0.191,-5.159,-8.459,-0.861,-5.487,9.1,3.99,-8.68
8556.0,-8.15,-1.23,-5.231,-8.392,-2.503,-5.178,10.64,2.66,-8.61
,-8.275,-1.558,-5.288,-8.26,-2.761,-5.197,9.38,3.01,-8.05
,-8.612,-2.024,-5.106,-8.569,-2.73,-4.999,8.61,3.08,-5.11
,-8.385,-2.446,-5.023,-8.636,-2.225,-5.099,10.01,3.43,-2.38
8632.0,-8.703,-1.756,-5.209,-8.32,-1.029,-5.439,17.5,2.66,5.81
,-8.717,-1.151,-5.379,-8.54,-0.926,-5.477,16.52,1.12,6.79
,-8.413,-0.648,-5.621,-8.32,-1.022,-5.43,15.26,0.63,7.77
,-8.337,-0.761,-5.587,-8.452,-1.106,-5.059,12.74,0.91,8.61
8707.0,-8.61,-1.127,-5.173,-8.65,-0.407,-5.707,9.31,1.33,11.06
,-8.61,-1.314,-5.403,-8.693,-0.768,-5.291,10.36,1.26,11.69
,-8.696,-1.12,-5.324,-8.478,-1.283,-4.958,12.53,1.4,12.74
,-8.899,-0.744,-5.288,-8.346,-1.11,-4.984,13.3,0.21,13.72
8783.0,-8.421,-0.955,-4.815,-8.806,0.079,-5.351,9.94,-0.49,12.04
,-8.232,-1.012,-4.953,-8.914,0.424,-5.494,9.52,0.28,12.32
,-8.366,-0.957,-4.889,-8.844,0.316,-5.372,9.87,0.98,12.6
,-8.629,-0.479,-5.162,-8.672,0.091,-5.355,9.66,1.12,12.67
8859.0,-8.555,0.074,-5.343,-8.818,0.06,-5.506,4.62,1.05,5.53
,-8.547,-0.316,-5.159,-8.607,-0.031,-5.671,3.85,2.03,4.27
,-8.411,-0.526,-5.181,-8.612,-0.201,-5.499,4.69,2.59,3.01
,-8.691,-0.27,-5.42,-8.624,-0.369,-5.446,5.67,2.8,1.82
8935.0,-8.492,-0.687,-5.322,-8.483,-0.694,-5.236,0.07,1.33,-2.94
,-8.593,-0.869,-5.336,-8.648,-0.653,-5.276,0.35,1.68,-3.01
,-8.693,-0.962,-5.116,-8.583,-0.708,-5.341,0.63,2.17,-2.8
,-8.681,-0.792,-5.24,-8.5,-0.512,-5.363,0.91,2.17,-2.73
9010.0,-8.674,-0.278,-5.329,-8.722,-0.079,-4.951,-3.57,0.14,-2.87
,-8.811,-0.062,-5.284,-8.775,-0.61,-4.769,-3.99,-0.28,-2.87
,-8.662,0.29,-5.415,-8.693,-0.601,-4.98,-4.55,-0.98,-2.73
,-8.459,0.187,-5.317,-8.356,-0.761,-5.032,-7.21,-0.56,-2.38
9086.0,-8.703,-0.682,-5.099,-8.528,-0.648,-5.205,-11.48,-0.91,0.28
,-8.964,-0.433,-5.025,-8.545,-1.106,-4.853,-11.27,-1.68,0.49
,-9.021,-0.275,-5.288,-8.547,-1.314,-4.865,-11.9,-1.26,0.98
,-8.684,-0.433,-5.085,-8.586,-1.383,-5.209,-14.21,-0.42,2.03
9162.0,-8.44,-1.323,-5.133,-8.768,-0.723,-5.185,-15.82,-3.01,6.09
,-8.289,-1.036,-5.104,-8.849,-0.682,-5.255,-13.51,-3.64,6.79
,-8.461,-0.909,-5.027,-8.574,-0.591,-5.116,-13.79,-3.92,7.07
,-8.626,-0.787,-5.281,-8.337,-0.646,-5.164,-12.67,-3.85,7.07
9238.0,-8.631,-0.888,-5.063,-8.315,-0.062,-5.19,-9.52,-2.66,7.35
,-9.148,-0.981,-4.893,-8.43,-0.187,-4.841,-7.35,-4.76,6.72
,-9.016,-0.55,-5.181,-8.66,-0.022,-4.932,-2.8,-7.42,5.95
,-8.521,-0.177,-5.281,-8.78,-0.112,-4.92,0.07,-8.68,5.04
9314.0,-8.914,0.017,-4.913,-9.019,0.414,-4.798,-0.07,-7.98,2.8
,-8.856,0.151,-4.683,-8.787,0.244,-4.946,0.56,-7.7,2.38
,-8.825,0.153,-4.836,-8.679,0.194,-4.999,1.4,-7.0,1.47
,-8.949,0.27,-4.614,-8.815,0.17,-5.013,1.05,-7.14,1.4
9389.0,-8.76,-0.038,-4.889,-8.334,-0.378,-4.905,-0.56,-9.45,-1.54
,-8.78,-0.211,-4.805,-8.224,-0.608,-4.896,-0.56,-8.47,-1.68
,-9.119,-0.211,-4.312,-8.536,-0.72,-4.908,-1.33,-9.31,-2.31
,-8.794,-0.924,-4.018,-8.734,-0.763,-4.817,-4.41,-11.83,-3.29
9465.0,-8.648,-0.62,-4.637,-8.949,-0.555,-4.29,2.52,-10.78,-0.28
,-8.614,-0.574,-4.685,-9.103,-0.33,-4.214,3.78,-10.71,0.63
,-8.691,-0.579,-4.594,-9.019,0.079,-4.558,4.2,-10.99,0.77
,-8.892,-0.512,-4.446,-8.906,0.172,-4.779,4.97,-10.5,0.91
9540.0,-8.938,-0.045,-4.743,-8.921,0.22,-4.3,5.88,-10.43,3.08
,-8.756,-0.151,-4.525,-8.789,0.146,-4.295,4.62,-10.5,1.96
,-8.825,-0.27,-4.346,-8.772,0.084,-4.195,5.25,-9.52,1.05
,-8.839,-0.22,-4.137,-8.583,-0.168,-4.231,6.93,-9.31,0.21
9616.0,-8.827,-0.431,-4.085,-9.024,-0.658,-4.025,4.62,-10.57,-1.61
,-8.952,-0.438,-4.037,-9.134,-0.66,-3.826,6.65,-9.73,-1.89
,-8.902,-0.524,-4.173,-9.344,-0.436,-3.92,7.84,-9.52,-1.12
,-8.804,-0.684,-4.101,-9.206,-0.189,-4.13,8.89,-9.24,0.0
9692.0,-8.77,-0.096,-4.317,-9.258,-0.199,-4.125,13.86,-10.29,0.49
,-8.849,0.105,-4.422,-8.926,-0.359,-3.707,11.9,-11.06,0.49
,-8.751,0.189,-4.436,-8.794,-0.105,-3.702,10.22,-12.11,-1.05
,-9.122,0.191,-4.113,-8.646,0.01,-3.609,8.4,-13.44,-3.57
9768.0,-9.206,-0.101,-2.761,-8.808,-0.615,-3.144,3.92,-15.89,-7.14
,-9.447,-0.057,-2.946,-9.117,-0.572,-3.398,3.99,-14.28,-7.98
,-9.241,-0.359,-2.852,-9.38,-0.124,-3.702,3.99,-12.11,-7.42
,-8.911,-0.503,-3.223,-9.318,0.108,-3.211,3.99,-11.34,-6.58
9843.0,-9.244,0.27,-2.919,-9.05,-1.024,-4.109,11.76,-6.72,-4.97
,-9.296,0.263,-3.4,-8.94,-1.122,-3.848,8.75,-7.56,-6.02
,-9.179,0.019,-3.9,-9.107,-0.986,-4.238,4.2,-8.68,-7.14
,-9.062,-0.443,-4.262,-9.007,-0.787,-4.061,0.14,-9.73,-7.21
9919.0,-9.081,-0.625,-3.163,-9.206,-1.412,-2.692,4.06,-12.67,-7.91
,-9.301,-0.701,-3.527,-9.141,-1.094,-2.23,2.59,-12.74,-7.77
,-9.043,-1.237,-2.426,-9.567,-0.814,-2.297,2.66,-10.64,-6.86
,-9.227,-1.299,-2.467,-9.631,-0.426,-2.481,6.72,-8.82,-5.46
9994.0,-9.383,-0.081,-2.565,-9.646,-0.036,-3.101,17.78,-3.5,-1.75
,-9.306,0.091,-2.307,-9.519,-0.067,-3.551,15.33,-2.17,-2.1
,-9.418,0.081,-2.874,-9.095,-0.328,-3.549,11.34,-2.24,-3.57
,-9.287,-0.225,-2.333,-8.947,-0.83,-3.187,8.68,-1.26,-4.13
10070.0,-9.16,-1.251,-3.183,-9.021,-0.893,-3.915,-0.21,-1.19,-6.44
,-9.375,-1.522,-3.128,-8.918,-1.426,-3.661,3.36,-0.49,-6.02
,-9.526,-1.156,-3.64,-9.095,-1.821,-3.422,6.02,-1.54,-5.95
,-9.229,-0.83,-3.79,-9.284,-1.558,-3.242,4.97,-3.29,-6.16
10146.0,-9.497,-1.05,-3.154,-9.244,-0.835,-3.087,14.35,-0.84,-2.17
,-9.469,-0.66,-3.352,-9.301,-1.039,-2.948,14.28,-1.68,-2.24
,-9.373,-0.457,-3.228,-9.356,-1.141,-2.757,11.2,-2.45,-2.31
,-9.287,-0.543,-3.116,-9.342,-1.251,-2.477,7.91,-2.24,-2.52
10222.0,-9.481,-1.125,-2.297,-9.215,-0.95,-2.754,6.58,1.26,-2.1
,-9.574,-0.916,-2.374,-9.112,-1.268,-2.625,6.3,1.61,-2.17
,-9.387,-0.828,-2.393,-9.284,-1.426,-2.508,4.27,2.1,-2.24
,-9.294,-0.739,-2.613,-9.574,-1.094,-2.855,2.31,2.94,-2.31
10298.0,-9.569,-0.713,-3.072,-8.827,-1.443,-4.02,3.5,6.44,-1.12
,-9.435,-0.613,-3.613,-9.028,-1.46,-3.853,0.63,5.6,-1.82
,-9.141,-0.861,-3.944,-9.363,-1.089,-3.86,-2.52,4.9,-2.24
,-8.918,-1.204,-4.063,-9.485,-0.553,-4.08,-3.01,4.48,-1.89
10373.0,-9.234,-0.534,-3.984,-9.328,-1.151,-3.329,2.8,1.33,-1.19
,-9.033,-0.723,-3.972,-9.464,-0.957,-3.436,0.35,0.84,-1.47
,-9.048,-1.122,-3.597,-9.33,-0.902,-3.479,-0.35,0.77,-1.47
,-9.217,-1.204,-3.556,-9.098,-0.979,-3.151,1.61,0.7,-1.19
10449.0,-9.143,-1.153,-3.07,-9.27,-0.866,-3.257,2.59,0.14,-0.7
,-9.335,-1.213,-2.931,-9.131,-1.027,-3.307,3.78,0.7,-0.56
,-9.509,-1.046,-3.125,-9.117,-1.127,-3.228,4.41,0.7,-0.7
,-9.371,-0.883,-3.278,-9.184,-1.094,-3.257,3.92,0.21,-0.84
10525.0,-9.359,-1.134,-3.266,-9.256,-1.173,-3.336,3.08,0.77,-0.91
,-9.359,-1.082,-3.396,-9.282,-1.213,-3.221,2.94,0.63,-0.84
,-9.282,-1.065,-3.276,-9.263,-1.225,-3.092,2.73,0.49,-0.63
,-9.237,-1.082,-3.331,-9.349,-1.12,-3.084,2.52,0.63,-0.63
10601.0,-9.385,-1.094,-3.077,-9.182,-1.003,-3.233,5.53,2.31,0.63
,-9.361,-0.998,-3.187,-9.313,-0.955,-3.352,5.74,2.59,0.77
,-9.316,-0.986,-3.317,-9.375,-1.005,-3.252,5.67,2.59,0.98
,-9.227,-1.041,-3.307,-9.351,-0.979,-3.269,5.53,2.8,0.98
10676.0,-9.359,-1.019,-3.391,-9.27,-1.101,-3.355,4.41,2.8,0.7
,-9.258,-1.046,-3.489,-9.294,-1.11,-3.221,4.27,2.52,0.7
,-9.179,-1.149,-3.448,-9.349,-1.034,-3.29,4.55,2.87,0.91
,-9.258,-1.141,-3.441,-9.282,-1.012,-3.281,4.97,2.87,0.98
10752.0,-9.275,-1.005,-3.123,-9.122,-1.039,-3.769,4.2,3.08,0.84
,-9.411,-1.034,-3.455,-9.083,-1.122,-3.695,3.92,3.01,0.56
,-9.375,-1.029,-3.609,-9.074,-1.177,-3.542,3.22,2.38,0.21
,-9.186,-0.993,-3.793,-9.182,-1.165,-3.343,2.17,1.75,-0.14
10827.0,-9.351,-1.103,-3.12,-9.323,-0.995,-3.173,3.5,1.61,0.56
,-9.392,-1.022,-2.974,-9.182,-1.139,-3.206,3.43,1.89,0.63
,-9.533,-0.928,-2.979,-9.217,-1.149,-3.077,2.52,1.89,0.42
,-9.404,-0.952,-3.032,-9.306,-1.139,-3.324,1.26,2.03,0.35
10903.0,-9.311,-1.089,-3.364,-9.069,-1.211,-3.611,2.03,3.36,0.56
,-9.287,-1.027,-3.455,-9.119,-1.251,-3.539,2.1,3.15,0.56
,-9.261,-0.988,-3.609,-9.246,-1.141,-3.599,1.68,3.08,0.42
,-9.179,-1.065,-3.659,-9.332,-0.991,-3.575,1.47,2.66,0.42
10979.0,-9.301,-0.983,-3.458,-9.301,-1.077,-3.285,3.85,2.38,0.91
,-9.246,-0.986,-3.412,-9.244,-1.084,-3.262,3.36,2.1,0.77
,-9.27,-1.022,-3.352,-9.273,-1.086,-3.197,3.22,2.1,0.56
,-9.253,-1.039,-3.393,-9.292,-1.146,-3.199,3.08,2.03,0.56
11055.0,-9.299,-1.041,-3.305,-9.177,-1.141,-3.522,1.89,2.31,0.35
,-9.308,-0.988,-3.434,-9.198,-1.11,-3.51,1.33,2.31,0.28
,-9.206,-1.106,-3.501,-9.234,-1.086,-3.503,0.63,2.1,0.21
,-9.182,-1.12,-3.498,-9.277,-1.015,-3.372,0.77,2.17,0.49
11131.0,-9.289,-1.072,-3.307,-9.253,-1.149,-3.496,2.45,2.31,0.77
,-9.316,-0.979,-3.412,-9.194,-1.139,-3.4,2.24,1.96,0.56
,-9.234,-1.027,-3.405,-9.196,-1.06,-3.386,1.47,1.89,0.42
,-9.172,-1.094,-3.506,-9.246,-1.07,-3.364,1.05,1.75,0.35
11206.0,-9.251,-1.151,-3.372,-9.265,-1.043,-3.393,2.1,1.89,0.7
,-9.249,-1.084,-3.257,-9.249,-1.034,-3.431,2.38,2.1,1.05
,-9.287,-1.158,-3.329,-9.237,-1.103,-3.556,2.38,1.96,0.98
,-9.273,-1.062,-3.345,-9.258,-1.153,-3.575,2.66,2.1,1.05
11282.0,-9.241,-1.213,-3.458,-9.15,-0.995,-3.465,2.1,1.75,0.98
,-9.222,-1.129,-3.522,-9.179,-1.151,-3.494,2.66,1.61,1.05
,-9.273,-0.993,-3.656,-9.253,-1.18,-3.465,3.15,1.26,1.05
,-9.186,-1.003,-3.573,-9.273,-1.134,-3.259,2.66,0.84,0.91
11358.0,-9.337,-1.05,-3.29,-9.239,-0.993,-3.187,3.5,0.98,1.33
,-9.397,-1.048,-3.101,-9.131,-1.046,-3.094,2.94,0.98,1.26
,-9.304,-1.015,-3.063,-9.186,-1.223,-3.029,1.61,0.77,0.77
,-9.299,-1.01,-3.104,-9.237,-1.216,-2.991,0.28,0.77,0.63
11434.0,-9.27,-1.05,-2.953,-9.464,-0.962,-2.551,-1.61,3.64,1.4
,-9.28,-0.902,-2.955,-9.514,-1.003,-2.632,-2.24,4.55,1.61
,-9.316,-0.955,-2.615,-9.426,-1.067,-3.039,-3.64,5.32,1.61
,-9.445,-0.928,-2.532,-9.208,-1.046,-3.063,-5.32,5.81,1.33
11509.0,-9.064,-0.967,-3.197,-9.268,-0.866,-3.36,-13.23,5.25,0.49
,-9.141,-0.964,-3.443,-9.095,-1.098,-2.843,-13.09,5.67,0.35
,-9.217,-1.036,-3.221,-9.215,-1.352,-3.118,-14.0,5.74,-0.21
,-9.282,-0.885,-3.381,-9.289,-1.359,-2.97,-14.77,5.6,-0.28
11585.0,-9.399,-1.036,-2.991,-8.782,-1.103,-3.788,-10.29,9.8,1.89
,-9.325,-0.603,-3.408,-8.768,-1.503,-3.362,-10.08,9.59,1.61
,-9.115,-0.452,-3.309,-8.839,-1.697,-3.02,-12.6,9.87,1.61
,-9.122,-0.648,-3.735,-9.15,-1.491,-2.577,-16.73,9.52,1.19
11660.0,-9.512,-0.653,-2.893,-8.567,-1.285,-4.707,-2.94,14.21,4.41
,-9.564,0.127,-3.532,-8.799,-2.032,-4.209,-1.96,12.6,3.71
,-9.237,0.428,-3.999,-8.99,-1.857,-3.671,-6.51,11.55,3.57
,-8.832,-0.168,-4.733,-9.222,-1.024,-3.527,-13.37,10.92,3.64
11736.0,-9.409,-0.093,-3.757,-9.136,-0.799,-3.156,11.48,12.6,5.46
,-9.239,0.105,-3.955,-9.206,-0.352,-3.254,5.11,10.01,4.83
,-9.115,-0.337,-3.884,-8.897,0.036,-3.781,-2.94,9.73,4.9
,-9.079,-0.849,-3.884,-8.832,0.084,-4.231,-6.58,11.13,4.41
11812.0,-8.801,-0.333,-4.575,-8.89,-0.771,-3.697,-9.17,10.15,1.05
,-8.825,-0.991,-4.022,-8.827,-0.744,-4.214,-10.92,11.48,1.61
,-9.213,-1.031,-3.278,-8.859,-1.299,-4.29,-6.3,14.49,1.61
,-9.057,-1.053,-3.709,-9.026,-1.969,-4.396,-2.17,14.63,0.0
11888.0,-9.136,-2.218,-4.171,-8.301,-0.184,-4.87,-3.15,14.28,4.62
,-8.973,-1.579,-3.592,-8.406,-0.73,-4.573,4.62,16.31,4.9
,-8.832,-0.62,-3.96,-8.76,-0.9,-3.664,9.59,15.26,3.99
,-8.502,-0.168,-4.716,-9.478,-0.474,-3.62,7.56,12.18,3.64
11963.0,-9.273,-0.136,-4.422,-8.763,-1.302,-4.511,9.52,12.6,2.24
,-9.093,-0.266,-4.793,-8.662,-0.586,-4.549,5.11,10.01,4.06
,-8.827,-0.838,-4.913,-8.44,0.117,-4.52,2.1,9.94,6.72
,-8.768,-1.316,-4.771,-8.516,0.237,-4.415,3.01,11.41,7.77
12039.0,-8.536,0.019,-4.494,-8.945,-0.325,-4.515,6.65,13.65,3.78
,-8.902,-0.177,-4.08,-8.552,-0.933,-4.688,4.2,15.05,3.5
,-9.694,-0.124,-3.989,-8.638,-1.369,-4.472,4.97,14.84,2.38
,-9.519,0.012,-4.171,-8.782,-1.388,-4.609,5.39,12.95,0.91
12115.0,-8.768,-1.192,-4.86,-8.626,0.06,-4.91,9.38,11.48,3.15
,-8.744,-0.802,-4.977,-8.904,-0.309,-4.633,11.83,11.41,2.03
,-8.581,-0.34,-5.025,-9.04,-0.627,-4.401,11.13,11.69,1.54
,-8.354,0.005,-5.018,-8.813,-1.139,-4.372,8.4,12.46,1.47
12191.0,-8.794,-1.476,-4.228,-8.495,0.014,-5.528,1.68,12.6,2.03
,-9.107,-1.328,-4.386,-8.531,-0.077,-5.382,6.65,11.69,2.31
,-8.981,-0.804,-5.08,-8.691,0.158,-5.384,10.78,9.45,2.17
,-8.646,-0.249,-5.331,-8.772,0.089,-5.248,11.27,8.82,2.17
12267.0,-8.799,-0.132,-5.133,-8.784,-1.256,-4.525,-3.08,5.11,-1.61
,-8.653,-0.744,-4.915,-8.684,-0.883,-4.604,-5.46,4.13,-1.54
,-8.646,-1.342,-4.738,-8.655,-0.605,-4.69,-5.11,3.78,-0.56
,-8.777,-1.572,-4.475,-8.581,-0.428,-5.008,-1.54,4.69,0.07
12342.0,-8.641,-0.536,-5.08,-8.741,-0.292,-5.035,3.78,4.76,1.4
,-8.717,-0.514,-5.08,-8.866,-0.325,-5.054,3.36,3.5,1.33
,-8.449,-0.481,-5.305,-8.789,-0.191,-4.98,4.2,3.15,0.49
,-8.469,-0.443,-5.173,-8.904,-0.436,-4.812,6.16,2.94,-0.56
12418.0,-8.756,-0.505,-4.865,-8.483,-0.452,-4.709,8.82,2.17,-1.33
,-8.581,-0.62,-4.783,-8.394,-0.529,-4.7,9.94,2.45,-1.75
,-8.914,-0.536,-4.709,-8.495,-0.754,-4.707,11.48,1.26,-3.22
,-8.686,-0.445,-4.764,-8.591,-1.244,-4.489,12.11,0.7,-3.57
12493.0,-8.705,-1.548,-4.391,-8.55,-0.907,-5.351,10.57,4.06,-1.05
,-8.796,-1.682,-4.463,-8.579,-0.926,-5.274,12.53,3.71,-0.98
,-8.737,-1.613,-4.654,-8.516,-0.998,-5.099,15.54,3.5,-0.56
,-8.614,-1.199,-5.016,-8.638,-1.192,-5.245,17.64,2.45,-0.21
12569.0,-8.727,-1.579,-5.104,-8.772,-1.627,-5.111,13.09,3.01,3.01
,-8.782,-1.819,-4.623,-8.89,-0.526,-5.348,12.6,3.15,4.27
,-8.442,-1.967,-4.757,-8.617,-0.335,-5.41,13.58,2.87,4.83
,-8.32,-1.912,-4.91,-8.571,-0.464,-5.279,14.98,3.29,5.88
12645.0,-8.495,-0.706,-5.272,-8.823,-1.06,-5.08,9.73,0.56,7.84
,-8.55,-0.864,-5.03,-8.878,-0.653,-5.173,8.54,0.63,7.91
,-8.612,-1.263,-4.855,-8.76,-0.627,-5.15,8.05,1.68,7.91
,-8.746,-1.388,-4.786,-8.847,-0.976,-4.654,8.89,2.17,8.12
12721.0,-8.808,-0.854,-4.709,-8.717,-0.51,-5.169,9.24,2.1,8.12
,-8.349,-0.9,-4.917,-8.569,-0.017,-5.449,8.47,1.75,7.98
,-8.512,-0.849,-4.946,-8.825,0.017,-5.363,7.84,2.17,7.49
,-8.878,-0.771,-5.032,-8.722,-0.062,-5.329,7.35,2.1,6.93
12796.0,-8.619,-0.23,-5.25,-8.612,-0.443,-5.348,1.82,1.33,2.03
,-8.681,-0.378,-5.219,-8.777,-0.45,-5.291,0.77,1.68,0.98
,-8.588,-0.5,-5.205,-8.768,-0.581,-5.26,0.14,2.1,0.28
,-8.476,-0.558,-5.25,-8.617,-0.94,-4.999,0.42,2.73,-0.42
12872.0,-8.591,-1.199,-5.095,-8.806,-0.821,-5.178,-5.18,3.71,-1.12
,-8.662,-1.438,-4.879,-9.007,-0.555,-5.15,-4.9,2.94,-0.42
,-8.351,-1.45,-4.977,-8.952,-0.436,-5.154,-4.13,2.31,0.49
,-8.368,-1.165,-5.154,-8.818,-0.371,-4.996,-3.08,2.24,1.12
12948.0,-8.665,-0.261,-5.071,-8.772,-1.199,-4.927,-8.75,1.19,1.4
,-8.473,-0.189,-5.346,-8.734,-1.852,-4.444,-9.87,0.77,1.75
,-8.447,-0.512,-5.475,-8.703,-1.797,-4.587,-11.06,0.77,2.03
,-8.598,-0.816,-5.255,-8.478,-1.512,-4.884,-11.76,1.4,2.66
13024.0,-8.433,-1.266,-5.032,-8.665,-0.416,-5.121,-5.88,-0.84,8.96
,-8.859,-1.127,-4.882,-8.533,-0.129,-5.274,-7.21,-1.54,9.59
,-8.966,-0.864,-4.913,-8.638,-0.278,-5.011,-9.31,-2.45,9.8
,-8.739,-0.567,-5.063,-8.808,0.053,-5.095,-11.13,-2.31,10.01
13100.0,-8.76,0.05,-5.219,-8.772,-0.567,-4.944,-11.13,-2.59,7.98
,-8.952,0.242,-5.19,-8.614,-0.603,-5.348,-8.89,-2.94,7.49
,-8.804,0.297,-5.197,-8.442,-0.414,-5.418,-6.72,-4.34,6.44
,-8.734,-0.057,-5.212,-8.691,-0.567,-5.219,-6.79,-5.67,4.97
13175.0,-9.005,-0.421,-5.075,-8.875,-0.517,-5.123,0.77,-7.7,1.05
,-8.947,-0.304,-5.164,-8.476,-0.644,-5.147,1.89,-8.54,0.56
,-8.746,-0.211,-5.331,-8.44,-0.711,-5.006,1.33,-8.54,1.26
,-8.804,-0.34,-5.209,-8.562,-0.725,-4.987,-0.21,-8.75,2.24
13251.0,-8.547,-0.818,-4.91,-8.892,-0.749,-4.41,1.19,-12.88,0.49
,-8.433,-0.897,-4.862,-8.787,-0.524,-4.48,2.03,-11.9,1.82
,-8.732,-0.991,-4.664,-9.076,-0.38,-4.178,2.66,-10.99,2.73
,-8.959,-0.962,-4.475,-8.806,-0.699,-4.901,4.34,-10.99,3.43
13326.0,-8.696,-0.369,-4.279,-8.971,0.062,-4.31,2.38,-14.0,5.46
,-8.593,-0.392,-4.48,-8.82,0.153,-4.47,3.78,-13.23,5.04
,-9.012,-0.333,-4.312,-8.571,0.079,-4.511,4.27,-13.72,4.48
,-8.973,-0.187,-4.357,-8.404,-0.089,-4.386,5.67,-14.21,3.29
13402.0,-8.437,-0.168,-4.202,-9.258,0.601,-4.152,5.6,-10.85,2.66
,-9.17,-0.029,-3.963,-9.153,0.306,-4.125,7.63,-9.94,2.31
,-9.371,0.354,-4.022,-8.619,-0.124,-4.2,9.52,-10.43,1.12
,-9.411,0.617,-4.097,-8.847,-0.483,-3.932,9.38,-11.06,0.28
13478.0,-8.839,-0.479,-3.821,-8.997,-0.029,-3.654,0.56,-10.43,-2.31
,-9.019,-0.325,-3.585,-9.069,-0.215,-3.475,3.5,-9.87,-3.22
,-9.007,-0.23,-3.625,-9.095,-0.447,-3.384,3.78,-10.22,-3.57
,-8.964,-0.168,-3.582,-9.129,-0.625,-3.154,3.64,-10.01,-3.22
13554.0,-8.961,-0.778,-3.262,-9.282,-0.414,-3.199,2.52,-6.58,-4.34
,-9.124,-0.823,-3.283,-9.371,-0.486,-3.192,4.2,-6.37,-3.22
,-8.978,-0.668,-3.312,-9.16,-0.395,-3.312,6.16,-6.44,-2.38
,-8.99,-0.445,-3.302,-9.033,-0.282,-3.673,7.14,-6.3,-2.31
13629.0,-8.804,-0.043,-4.094,-9.227,-0.421,-3.553,4.9,-6.3,-3.5
,-8.835,-0.266,-4.104,-9.139,-0.33,-3.659,3.22,-6.86,-3.57
,-9.0,-0.361,-4.046,-9.131,-0.175,-3.807,2.45,-6.44,-4.13
,-9.083,-0.469,-3.79,-9.007,-0.179,-3.774,3.71,-6.3,-4.9
13705.0,-9.277,-0.342,-4.128,-9.256,-0.56,-3.676,-1.12,-8.19,-5.81
,-9.067,-0.653,-3.862,-9.115,-0.785,-3.867,-1.4,-7.35,-6.23
,-9.086,-0.715,-3.568,-9.033,-0.857,-3.429,0.35,-6.16,-5.81
,-9.091,-0.634,-3.386,-9.265,-1.101,-3.783,2.1,-6.02,-5.74
13781.0,-9.213,-1.022,-3.743,-9.105,-0.311,-3.175,6.16,-5.95,-3.43
,-9.213,-0.526,-3.747,-9.292,-0.555,-3.135,8.47,-6.44,-3.64
,-9.081,-0.055,-3.735,-9.387,-0.66,-2.989,7.28,-7.49,-3.99
,-9.021,-0.141,-3.728,-9.378,-0.601,-2.869,4.06,-8.05,-4.62
13857.0,-9.39,-0.55,-2.946,-9.43,-0.675,-2.426,0.56,-6.93,-5.6
,-9.117,-0.704,-2.618,-9.426,-0.531,-2.769,-0.84,-5.95,-5.18
,-9.134,-0.861,-2.493,-9.316,-0.608,-2.893,-0.42,-4.34,-4.48
,-9.134,-0.864,-2.319,-9.251,-0.773,-2.927,1.19,-2.52,-3.85
13933.0,-9.359,-0.835,-3.489,-9.026,-0.388,-4.262,-0.56,0.35,-3.43
,-9.237,-0.866,-3.673,-9.098,-0.637,-4.058,1.19,0.14,-3.43
,-9.206,-0.514,-4.099,-9.162,-0.718,-4.087,2.87,-0.7,-3.15
,-9.04,-0.4,-4.223,-9.139,-0.708,-3.927,2.59,-1.4,-3.29
14008.0,-9.442,-0.639,-4.075,-9.103,-1.28,-3.266,4.13,-3.71,-3.29
,-9.366,-0.713,-4.034,-9.311,-1.158,-2.907,2.87,-4.76,-3.43
,-9.263,-0.871,-3.999,-9.471,-0.849,-3.061,1.68,-5.32,-3.15
,-9.055,-1.228,-3.587,-9.466,-0.926,-3.233,0.77,-5.11,-2.94
14084.0,-9.172,-0.89,-3.417,-9.351,-0.615,-3.417,2.94,-3.99,-1.4
,-9.179,-1.072,-3.376,-9.337,-0.395,-3.352,3.71,-3.29,-1.05
,-9.316,-1.256,-3.266,-9.273,-0.419,-3.285,5.39,-2.8,-0.7
,-9.294,-1.156,-3.204,-9.232,-0.696,-3.147,9.24,-2.31,0.28
14159.0,-9.335,-0.823,-3.293,-9.349,-0.826,-3.051,11.34,-1.33,0.84
,-9.265,-0.818,-3.283,-9.421,-0.849,-2.919,11.9,-1.33,0.7
,-9.275,-0.974,-3.017,-9.545,-0.653,-3.357,11.55,-1.26,0.63
,-9.294,-0.73,-3.161,-9.284,-0.66,-3.336,11.41,-0.98,0.49
14235.0,-8.938,-0.785,-3.159,-9.641,-0.715,-2.374,2.73,-2.66,-1.4
,-8.957,-1.113,-2.852,-9.672,-0.538,-2.776,3.01,-1.54,-1.05
,-9.239,-1.204,-2.419,-9.414,-0.605,-3.072,5.11,0.07,-0.56
,-9.524,-1.031,-2.352,-9.153,-0.735,-3.388,7.21,1.12,-0.21
14311.0,-9.036,-1.132,-3.221,-9.636,-0.591,-3.477,-0.84,2.52,-0.77
,-9.153,-1.232,-3.171,-9.43,-0.641,-3.716,1.19,3.29,-0.35
,-9.347,-1.158,-3.104,-9.091,-0.924,-3.891,3.08,3.71,-0.07
,-9.478,-0.873,-2.967,-8.969,-1.342,-3.843,4.41,3.85,0.21
14387.0,-9.215,-1.371,-3.774,-9.282,-0.814,-3.711,4.13,2.03,0.56
,-9.481,-1.007,-3.805,-9.234,-1.153,-3.525,6.16,0.77,0.21
,-9.471,-0.591,-3.687,-9.072,-1.268,-3.431,5.25,-1.12,-0.14
,-9.261,-0.503,-3.716,-9.203,-1.316,-3.125,2.17,-2.38,-0.49
14462.0,-9.378,-1.05,-3.001,-9.189,-0.842,-2.735,5.18,-1.68,0.35
,-9.509,-0.771,-3.192,-9.308,-0.905,-2.702,5.81,-1.68,0.35
,-9.335,-0.665,-3.053,-9.43,-0.9,-2.596,4.76,-1.47,0.56
,-9.265,-0.687,-2.95,-9.555,-0.771,-2.8,2.87,-0.98,0.63
14538.0,-9.493,-0.806,-2.898,-9.261,-0.814,-3.228,2.87,2.52,0.98
,-9.311,-0.928,-3.049,-9.433,-0.768,-3.424,2.38,2.94,1.05
,-9.246,-1.048,-3.154,-9.38,-0.759,-3.419,2.8,3.29,1.12
,-9.268,-0.897,-3.326,-9.275,-0.806,-3.226,3.78,3.64,1.12
14614.0,-9.234,-0.907,-3.218,-9.335,-0.888,-3.132,2.31,2.66,0.49
,-9.277,-0.962,-3.125,-9.325,-1.003,-3.139,3.15,3.08,0.63
,-9.366,-0.909,-3.314,-9.299,-0.931,-2.998,3.99,3.22,0.63
,-9.332,-0.893,-3.161,-9.294,-0.854,-3.197,4.27,3.57,0.77
14690.0,-9.32,-0.936,-3.233,-9.378,-0.933,-3.396,4.13,4.62,0.98
,-9.268,-1.024,-3.285,-9.445,-0.787,-3.635,4.13,4.9,1.19
,-9.215,-0.972,-3.329,-9.378,-0.704,-3.86,4.62,4.9,1.26
,-9.292,-0.95,-3.245,-9.165,-0.804,-3.912,5.53,5.25,1.54
14765.0,-9.036,-1.05,-3.922,-9.325,-0.931,-3.204,3.5,3.08,0.91
,-9.086,-1.211,-3.857,-9.416,-0.754,-3.096,4.83,3.08,1.26
,-9.182,-1.141,-3.69,-9.426,-0.687,-3.02,7.0,3.01,1.68
,-9.306,-1.07,-3.475,-9.361,-0.732,-3.13,8.33,2.94,1.82
14841.0,-9.241,-0.919,-3.058,-9.261,-0.845,-3.29,2.87,2.45,0.91
,-9.275,-0.986,-3.125,-9.253,-0.9,-3.305,2.94,2.94,0.91
,-9.273,-0.878,-3.264,-9.229,-0.933,-3.376,3.43,3.15,0.84
,-9.282,-0.833,-3.269,-9.33,-0.943,-3.405,2.94,3.15,0.77
14917.0,-9.294,-0.926,-3.348,-9.284,-0.955,-3.527,1.33,3.5,0.63
,-9.387,-0.907,-3.317,-9.21,-1.213,-3.551,2.03,3.5,0.7
,-9.397,-0.787,-3.448,-9.122,-1.249,-3.465,2.38,3.29,0.56
,-9.301,-0.885,-3.422,-9.191,-1.108,-3.513,1.89,3.15,0.49
14992.0,-9.184,-0.993,-3.455,-9.284,-0.78,-3.35,5.81,3.22,1.26
,-9.289,-0.816,-3.307,-9.241,-0.967,-3.403,6.79,3.36,1.68
,-9.361,-0.66,-3.412,-9.249,-1.043,-3.419,6.37,3.22,1.61
,-9.308,-0.56,-3.381,-9.265,-1.034,-3.324,4.76,2.8,1.19
15068.0,-9.263,-0.919,-3.455,-9.241,-0.914,-3.178,4.41,3.08,1.12
,-9.273,-0.902,-3.238,-9.34,-0.902,-3.372,4.34,3.15,1.12
,-9.287,-0.885,-3.228,-9.28,-0.952,-3.477,4.27,3.29,1.12
,-9.251,-0.849,-3.163,-9.131,-1.015,-3.513,3.5,3.29,0.84
15144.0,-9.134,-1.039,-3.522,-9.316,-0.641,-3.802,3.15,3.92,1.12
,-9.222,-1.0,-3.422,-9.227,-0.79,-3.898,4.55,4.27,1.33
,-9.311,-0.852,-3.35,-9.127,-0.928,-3.793,5.04,4.06,1.26
,-9.383,-0.682,-3.484,-9.17,-0.964,-3.862,4.69,3.85,0.98
15220.0,-9.256,-0.881,-3.807,-9.189,-1.074,-3.465,1.82,2.17,0.42
,-9.246,-0.802,-3.685,-9.208,-1.06,-3.544,1.75,1.96,0.42
,-9.253,-0.84,-3.769,-9.318,-0.983,-3.659,0.7,1.12,0.14
,-9.153,-1.017,-3.609,-9.325,-1.015,-3.69,0.35,0.77,0.28
15295.0,-9.165,-1.096,-3.446,-9.318,-0.806,-3.532,1.05,0.49,1.05
,-9.22,-1.175,-3.281,-9.229,-0.754,-3.664,1.4,0.77,1.19
,-9.215,-1.134,-3.139,-9.158,-0.926,-3.704,2.31,0.77,1.19
,-9.366,-0.924,-3.352,-9.17,-0.981,-3.613,2.87,0.56,1.12
15371.0,-9.165,-0.993,-3.568,-9.414,-0.701,-3.104,0.98,-0.14,1.12
,-9.32,-0.888,-3.424,-9.311,-0.704,-3.087,1.33,-0.28,1.26
,-9.33,-0.821,-3.23,-9.246,-0.759,-3.18,0.63,-0.42,0.98
,-9.469,-0.708,-3.087,-9.227,-0.907,-3.254,-0.35,-0.49,0.63
15447.0,-9.244,-0.981,-3.166,-9.313,-1.058,-3.108,-7.49,0.07,-0.42
,-9.225,-1.141,-3.139,-9.301,-0.739,-2.998,-7.28,0.91,0.0
,-9.184,-1.316,-3.063,-9.261,-0.641,-2.761,-5.95,1.68,0.49
,-9.313,-1.232,-3.132,-9.215,-0.555,-2.728,-4.06,2.1,0.91
15523.0,-9.15,-0.701,-2.577,-9.44,-1.177,-2.187,-9.94,2.31,0.21
,-9.22,-0.893,-2.242,-9.387,-0.785,-2.757,-10.15,4.48,0.49
,-9.49,-0.957,-2.166,-9.184,-0.735,-2.972,-9.31,6.72,1.05
,-9.488,-1.086,-2.347,-9.026,-0.782,-3.386,-8.82,8.19,1.47
15598.0,-9.007,-0.826,-3.558,-9.177,-0.723,-3.9,-4.62,12.95,4.34
,-9.1,-0.737,-3.699,-9.397,-0.548,-3.527,-2.31,13.44,4.97
,-9.081,-0.742,-4.015,-9.43,-0.184,-3.661,-1.05,13.3,4.97
,-9.064,-0.684,-4.008,-9.186,-0.038,-4.046,0.35,13.37,5.11
15674.0,-9.079,-0.251,-3.764,-9.074,-1.17,-3.647,-7.14,8.4,1.75
,-9.217,-0.632,-4.156,-9.177,-0.864,-3.764,-11.69,7.84,1.4
,-8.691,-1.457,-4.195,-9.325,-0.708,-3.697,-12.74,8.75,1.75
,-8.693,-1.589,-3.439,-9.265,-0.833,-3.479,-6.79,11.48,3.43
15749.0,-9.222,-1.029,-2.793,-8.952,-0.23,-3.613,-2.59,10.92,4.83
,-9.421,-0.66,-2.62,-8.646,-0.763,-3.776,-0.21,10.78,3.92
,-9.261,-0.108,-2.833,-8.854,-1.39,-3.52,0.77,9.03,2.31
,-9.146,0.17,-3.326,-9.012,-1.371,-3.372,-3.99,7.35,1.4
15825.0,-9.0,-0.857,-3.513,-9.124,-0.33,-2.728,-1.19,12.88,3.08
,-8.997,-0.534,-3.393,-9.191,-0.249,-3.013,2.45,13.58,3.85
,-9.206,-0.297,-3.128,-9.182,-0.17,-3.96,2.8,14.7,4.13
,-9.115,-0.292,-2.958,-8.921,-0.043,-4.594,0.56,15.4,3.15
15901.0,-8.727,-0.122,-4.984,-8.794,-1.335,-3.936,-14.63,10.64,-0.42
,-8.576,-0.349,-4.836,-9.122,-1.706,-3.819,-15.96,12.67,-0.28
,-8.569,-0.584,-4.594,-9.237,-1.936,-3.515,-14.28,15.19,-0.49
,-8.6,-1.01,-4.41,-9.454,-1.816,-3.388,-12.25,16.24,-1.12
15977.0,-9.143,-1.608,-3.415,-8.394,0.022,-5.169,7.14,16.52,5.25
,-8.952,-0.948,-3.814,-8.667,0.354,-4.934,10.64,15.96,7.07
,-8.48,-0.486,-4.673,-8.93,0.407,-4.891,10.29,14.49,7.98
,-8.483,-0.199,-5.063,-9.127,0.201,-4.834,8.33,14.42,8.26
16053.0,-9.124,-0.06,-5.106,-8.882,-1.199,-4.659,1.96,14.91,1.26
,-9.232,-0.613,-4.934,-8.894,-0.744,-4.781,1.12,14.84,1.89
,-8.966,-1.017,-4.748,-8.77,-0.11,-5.157,2.87,15.61,3.01
,-8.842,-1.323,-4.494,-8.368,0.043,-5.097,7.35,16.24,3.85
16128.0,-8.519,-0.022,-4.647,-9.04,-0.608,-4.987,7.84,12.67,2.45
,-8.784,-0.091,-4.582,-8.71,-0.79,-5.049,4.34,13.23,1.54
,-9.069,-0.055,-4.625,-8.478,-0.897,-5.078,1.82,12.6,0.77
,-9.198,-0.263,-4.853,-8.583,-0.806,-4.8,0.49,11.06,0.7
16204.0,-8.732,-0.404,-4.745,-8.906,-0.036,-4.666,9.1,6.93,0.28
,-8.504,-0.175,-4.87,-9.007,-0.201,-4.436,10.01,5.53,0.0
,-8.614,0.084,-5.032,-8.949,-0.132,-4.511,8.96,5.04,0.21
,-8.806,0.158,-4.984,-8.502,-0.014,-4.889,7.0,5.11,0.07
16280.0,-8.459,-0.069,-4.982,-8.842,-1.314,-4.671,1.68,3.85,-2.52
,-8.593,-0.347,-4.999,-8.679,-1.541,-4.609,0.77,4.06,-3.29
,-8.734,-0.68,-4.996,-8.71,-1.409,-4.369,1.54,4.76,-3.71
,-8.969,-1.053,-4.683,-8.624,-1.091,-4.441,2.73,5.04,-3.36
16356.0,-8.519,-0.778,-4.618,-8.995,-0.625,-4.853,12.81,4.76,0.28
,-8.567,-0.737,-4.726,-8.926,-0.517,-4.893,12.11,4.97,0.49
,-8.751,-0.641,-4.841,-8.536,-0.452,-5.207,11.83,5.04,0.84
,-8.942,-0.675,-4.822,-8.598,-0.519,-5.166,11.55,5.11,0.84
16431.0,-8.729,-0.476,-5.327,-8.837,0.007,-4.927,14.49,0.77,0.14
,-8.746,-0.402,-5.209,-8.54,-0.005,-4.805,14.98,1.12,-0.42
,-8.882,-0.433,-4.898,-8.564,-0.16,-4.829,14.07,1.47,-0.7
,-8.892,-0.189,-4.855,-8.741,-0.433,-4.661,16.03,0.77,-1.96
16507.0,-8.847,-0.565,-4.716,-8.823,-1.251,-4.757,11.9,0.49,-3.01
,-8.674,-0.909,-4.695,-8.708,-1.429,-4.738,11.97,1.33,-2.52
,-8.43,-0.852,-4.704,-8.521,-1.742,-4.759,13.72,1.68,-3.15
,-8.751,-1.029,-4.781,-8.555,-1.79,-4.867,15.19,1.33,-3.01
16582.0,-8.732,-1.575,-4.927,-8.801,-2.144,-4.403,15.47,2.1,0.35
,-8.662,-1.716,-4.846,-8.71,-1.945,-4.544,14.63,2.73,1.47
,-8.772,-1.967,-4.458,-8.43,-1.441,-4.858,14.63,2.94,2.45
,-8.827,-2.032,-4.405,-8.325,-1.134,-4.92,14.63,3.36,4.13
16658.0,-8.5,-0.574,-5.128,-8.748,0.122,-4.824,18.69,3.22,8.4
,-8.727,-0.227,-5.118,-8.516,0.065,-5.001,17.85,3.36,8.05
,-8.99,0.11,-4.994,-8.737,-0.019,-5.011,16.31,3.92,7.56
,-8.849,-0.019,-4.826,-8.926,0.01,-5.104,13.86,3.85,6.93
16734.0,-8.949,-0.002,-5.217,-8.478,-1.228,-5.032,7.49,2.73,1.82
,-8.935,-0.352,-5.08,-8.356,-1.448,-5.126,6.02,3.22,1.33
,-8.89,-0.742,-4.855,-8.502,-1.596,-5.214,4.27,3.08,0.84
,-8.804,-0.988,-4.97,-8.567,-1.646,-5.226,2.45,1.47,0.14
16810.0,-8.552,-1.369,-5.487,-8.5,-1.127,-4.941,1.68,1.47,0.7
,-8.732,-0.986,-5.506,-8.586,-0.955,-5.004,2.38,0.84,0.56
,-8.868,-0.768,-5.415,-8.804,-0.857,-5.023,1.61,-0.35,0.56
,-8.72,-0.849,-5.291,-8.825,-0.79,-4.944,-0.63,-0.84,0.77
16886.0,-8.684,-0.529,-5.025,-8.725,-0.83,-4.829,-1.75,-0.63,0.91
,-8.672,-0.268,-5.178,-8.89,-0.814,-4.834,-2.66,-0.7,0.84
,-8.777,-0.404,-4.913,-9.014,-0.562,-4.965,-5.81,-0.49,0.56
,-8.775,-0.584,-4.736,-8.949,-0.62,-4.867,-6.93,-0.56,0.49
16961.0,-8.78,-0.768,-4.786,-8.887,-1.11,-4.573,-11.9,-2.38,-0.35
,-8.476,-1.182,-4.434,-8.949,-1.062,-4.7,-13.44,-2.03,0.0
,-8.378,-0.902,-4.771,-8.918,-1.022,-4.554,-11.13,-1.47,0.91
,-8.571,-1.072,-4.707,-8.667,-0.881,-4.692,-10.5,-0.91,2.03
17037.0,-8.512,-0.885,-4.834,-8.684,-1.488,-4.468,-9.52,-0.14,5.67
,-8.521,-1.184,-4.417,-8.76,-1.194,-4.776,-12.25,0.56,6.23
,-8.641,-1.103,-4.917,-8.772,-0.648,-5.138,-10.22,-0.14,6.72
,-8.626,-1.369,-4.712,-8.88,-0.883,-4.338,-11.76,0.35,7.56
17113.0,-8.624,-0.653,-4.346,-8.811,-0.34,-4.456,-4.97,1.96,8.68
,-8.576,-0.814,-4.25,-8.662,-0.132,-4.781,-6.23,2.31,8.89
,-8.689,-0.747,-4.207,-8.837,-0.182,-4.606,-6.02,2.38,9.45
,-8.775,-0.615,-4.212,-8.863,-0.235,-4.609,-4.41,0.49,9.31
17189.0,-8.741,-0.512,-4.515,-8.83,0.124,-5.128,0.42,-0.63,5.6
,-8.782,-0.809,-4.264,-8.837,0.369,-5.202,0.56,0.07,5.53
,-8.954,-0.634,-4.456,-8.839,0.105,-5.016,2.59,-0.7,5.53
,-8.902,-0.27,-4.929,-8.576,-0.29,-5.102,5.11,-1.89,5.32
17264.0,-8.571,-0.715,-5.15,-9.28,-0.859,-4.8,-2.17,-2.31,1.89
,-8.868,-1.07,-5.08,-8.933,-0.385,-5.169,-1.82,-1.54,2.38
,-9.107,-1.187,-5.008,-8.423,-0.172,-5.19,1.19,-1.82,2.45
,-9.086,-1.173,-5.063,-8.325,-0.184,-4.965,5.67,-1.89,2.38
17340.0,-8.681,-0.254,-4.829,-9.201,-0.328,-4.501,3.99,-3.78,2.87
,-8.938,-0.299,-4.731,-8.624,-0.194,-4.716,3.64,-3.15,2.17
,-8.993,-0.349,-4.506,-8.492,-0.158,-4.7,3.64,-2.66,3.22
,-9.072,0.215,-5.202,-8.655,0.101,-4.736,6.86,-3.64,3.08
17415.0,-8.727,0.134,-4.826,-8.935,-0.543,-4.513,4.06,-8.75,-1.75
,-8.727,-0.081,-4.815,-8.952,-0.316,-4.58,2.38,-8.82,-2.38
,-8.849,-0.34,-4.604,-9.27,-0.129,-4.616,0.91,-8.12,-1.68
,-8.856,-0.491,-4.678,-9.036,-0.055,-4.48,1.47,-7.91,-1.26
17491.0,-8.569,-0.077,-4.625,-9.019,-0.203,-4.628,0.28,-12.11,-3.92
,-8.459,-0.402,-4.295,-8.77,-0.256,-4.654,-1.4,-11.2,-4.13
,-8.871,-0.443,-4.386,-8.732,-0.376,-4.298,-1.89,-11.69,-5.25
,-9.186,-0.447,-4.453,-8.861,-0.55,-4.276,-1.47,-12.46,-5.18
17567.0,-9.016,-0.653,-3.879,-8.756,-0.57,-4.109,-0.14,-9.1,-5.53
,-9.06,-0.493,-4.006,-8.842,-0.775,-3.848,-0.91,-12.81,-6.51
,-8.636,-0.524,-4.302,-8.911,-0.952,-3.721,-1.96,-14.91,-6.44
,-8.725,-0.577,-4.235,-8.964,-1.158,-3.57,-3.08,-15.05,-6.44
17643.0,-9.074,-1.096,-3.553,-8.99,-0.775,-3.549,-0.63,-11.62,-4.27
,-8.914,-0.952,-3.515,-8.717,-0.818,-3.419,0.84,-10.92,-2.94
,-8.969,-0.852,-3.508,-8.902,-0.967,-3.192,2.52,-9.45,-2.1
,-9.189,-0.744,-3.458,-9.27,-1.043,-3.314,3.99,-8.61,-2.17
17719.0,-9.28,-0.622,-3.283,-9.04,-0.122,-3.443,10.29,-6.44,0.56
,-9.337,-0.072,-3.743,-8.981,-0.175,-3.47,9.94,-7.77,0.07
,-9.225,0.168,-3.606,-9.232,-0.249,-3.795,7.14,-7.77,-0.14
,-9.119,-0.031,-3.302,-9.129,-0.235,-3.903,4.76,-6.65,-0.35
17794.0,-9.131,-0.299,-3.68,-9.304,-0.156,-3.544,1.26,-6.23,-3.57
,-9.083,-0.347,-3.441,-9.103,-0.22,-3.486,0.91,-4.9,-4.2
,-9.237,-0.39,-3.644,-9.062,-0.637,-3.477,1.47,-4.76,-5.18
,-9.349,-0.294,-3.386,-9.086,-1.019,-3.458,2.73,-4.41,-5.39
17870.0,-8.978,-1.194,-3.589,-8.88,-0.955,-4.075,4.34,-1.19,-4.41
,-9.198,-0.902,-4.018,-8.863,-1.318,-3.551,7.63,-1.82,-3.92
,-9.15,-0.739,-4.2,-9.27,-1.007,-3.654,6.51,-4.06,-4.34
,-9.055,-0.682,-4.259,-9.416,-0.462,-3.563,3.78,-5.25,-3.85
17946.0,-9.344,-0.335,-3.898,-9.067,-1.156,-3.443,4.83,-6.79,-3.99
,-9.179,-0.629,-3.81,-9.033,-0.897,-3.08,2.03,-6.65,-3.71
,-8.871,-1.012,-3.687,-9.366,-0.617,-3.324,2.1,-5.95,-3.29
,-8.851,-1.127,-3.506,-9.418,-0.388,-3.661,6.09,-4.62,-2.73
18022.0,-9.416,-0.543,-3.546,-9.34,-0.579,-3.503,5.11,-4.76,-2.52
,-9.153,-0.706,-3.372,-9.282,-0.452,-3.613,2.1,-4.41,-2.59
,-9.136,-0.809,-3.484,-9.091,-0.715,-3.273,1.33,-4.2,-2.66
,-9.184,-0.782,-3.599,-9.045,-1.141,-2.982,2.87,-4.34,-3.22
18097.0,-9.392,-1.362,-3.405,-8.954,-1.414,-4.056,0.49,-4.27,-3.22
,-9.304,-1.326,-3.611,-8.938,-1.457,-3.709,2.31,-5.04,-3.22
,-9.198,-0.998,-4.046,-9.031,-1.211,-3.283,2.45,-5.95,-2.87
,-9.005,-1.225,-4.247,-9.387,-1.094,-2.781,0.35,-6.44,-2.59
18173.0,-9.663,-0.84,-2.702,-9.421,-0.976,-2.417,8.26,-5.25,-0.35
,-9.471,-0.811,-2.491,-9.143,-1.149,-2.228,5.6,-5.53,-0.49
,-9.392,-0.768,-2.508,-9.057,-1.182,-1.771,4.27,-4.97,-0.21
,-9.34,-0.826,-2.663,-9.459,-1.022,-1.828,2.87,-4.41,-0.7
18248.0,-9.737,-0.974,-2.41,-9.083,-1.041,-3.448,4.48,1.89,-0.14
,-9.713,-0.735,-3.008,-9.067,-1.529,-3.23,6.3,1.75,0.56
,-9.32,-0.23,-3.491,-9.261,-1.4,-3.168,6.65,1.54,0.91
,-9.11,-0.354,-3.525,-9.452,-1.101,-3.262,4.41,2.52,0.63
18324.0,-9.466,-0.663,-3.357,-8.976,-1.196,-3.697,6.86,4.41,1.26
,-9.414,-0.409,-3.977,-9.232,-1.307,-3.448,1.89,2.52,0.14
,-9.129,-0.481,-4.106,-9.512,-1.165,-3.403,-2.87,1.61,-0.49
,-8.961,-0.897,-4.011,-9.45,-0.96,-3.376,-5.53,1.47,-0.84
18400.0,-9.342,-0.897,-3.415,-9.129,-1.161,-3.556,2.17,1.26,0.98
,-9.203,-1.022,-3.647,-9.201,-1.086,-3.123,1.61,1.33,0.98
,-9.158,-1.019,-3.707,-9.5,-0.895,-3.345,1.75,1.4,0.98
,-9.05,-1.084,-3.573,-9.634,-0.794,-3.491,1.54,1.47,1.05
18476.0,-9.232,-0.479,-3.446,-9.139,-1.287,-3.166,3.01,0.21,1.4
,-9.079,-0.646,-3.542,-9.284,-1.318,-2.936,0.84,0.28,1.19
,-9.148,-0.95,-3.587,-9.433,-1.149,-2.867,1.12,0.42,0.98
,-9.203,-1.199,-3.508,-9.466,-0.806,-2.714,2.52,0.63,0.98
18551.0,-9.335,-0.579,-2.766,-9.189,-0.849,-3.424,9.31,3.43,2.52
,-9.371,-0.57,-2.848,-9.277,-0.972,-3.625,7.21,4.06,2.31
,-9.476,-0.596,-3.197,-9.241,-1.048,-3.709,5.04,3.85,1.54
,-9.316,-0.682,-3.297,-9.215,-0.948,-3.778,3.01,3.99,1.4
18627.0,-9.139,-0.94,-3.69,-9.21,-1.129,-3.391,3.43,3.92,1.05
,-9.246,-0.809,-3.769,-9.289,-1.06,-3.25,3.85,3.71,0.98
,-9.277,-0.773,-3.754,-9.335,-0.811,-3.364,3.57,3.22,0.91
,-9.155,-0.924,-3.553,-9.349,-0.684,-3.386,2.66,3.29,1.12
18703.0,-9.39,-0.711,-3.352,-9.196,-0.924,-3.506,0.77,2.73,0.42
,-9.232,-0.747,-3.53,-9.088,-1.003,-3.494,-0.7,2.31,0.07
,-9.366,-0.847,-3.654,-9.131,-1.11,-3.221,-1.47,1.89,-0.35
,-9.294,-0.893,-3.613,-9.253,-1.084,-2.972,-1.75,1.26,-0.56
18779.0,-9.435,-0.995,-2.946,-9.313,-0.948,-3.534,2.87,3.01,0.49
,-9.44,-0.845,-3.063,-9.306,-0.89,-3.802,2.87,3.5,0.63
,-9.287,-0.828,-3.072,-9.206,-0.988,-3.85,1.47,3.85,0.56
,-9.275,-0.883,-3.211,-9.206,-0.976,-3.9,0.77,4.48,0.7
18855.0,-9.165,-0.964,-4.018,-9.296,-0.955,-3.604,3.22,3.85,0.56
,-9.064,-0.969,-3.912,-9.325,-0.809,-3.601,4.41,4.06,1.05
,-9.083,-1.046,-3.788,-9.284,-0.749,-3.63,5.81,4.34,1.61
,-9.189,-1.039,-3.577,-9.253,-0.847,-3.671,7.56,4.76,1.82
18930.0,-9.141,-0.902,-3.719,-9.268,-0.826,-3.709,6.72,3.71,1.47
,-9.186,-0.936,-3.723,-9.225,-0.787,-3.704,7.0,3.57,1.33
,-9.191,-0.84,-3.807,-9.17,-0.802,-3.642,6.86,2.94,1.05
,-9.186,-0.818,-3.743,-9.153,-0.919,-3.618,6.44,2.73,0.98
19006.0,-9.186,-1.113,-3.534,-9.335,-0.873,-3.111,1.19,0.28,-0.07
,-9.201,-1.146,-3.503,-9.292,-0.909,-3.013,2.1,0.63,0.14
,-9.213,-1.125,-3.484,-9.323,-0.905,-3.132,3.57,0.84,0.35
,-9.256,-0.962,-3.135,-9.383,-0.859,-3.338,4.48,1.26,0.56
19081.0,-9.189,-0.854,-3.419,-9.208,-0.895,-3.618,1.4,1.75,0.0
,-9.206,-0.871,-3.532,-9.311,-0.931,-3.647,0.91,1.68,-0.07
,-9.17,-1.0,-3.604,-9.299,-0.969,-3.762,1.26,1.54,-0.28
,-9.196,-0.998,-3.546,-9.124,-0.991,-3.752,1.96,1.68,-0.14
19157.0,-9.153,-1.017,-3.774,-9.148,-1.237,-3.233,1.33,0.91,-0.07
,-9.184,-1.017,-3.8,-9.304,-1.141,-3.19,1.54,0.63,-0.07
,-9.11,-1.062,-3.575,-9.359,-0.969,-3.283,2.03,0.84,0.28
,-9.093,-1.137,-3.4,-9.409,-0.833,-3.47,2.52,0.98,0.42
19233.0,-9.277,-0.909,-3.63,-9.268,-1.055,-3.601,3.01,1.26,1.26
,-9.103,-1.005,-3.606,-9.294,-0.928,-3.644,2.03,1.33,1.4
,-9.1,-1.158,-3.678,-9.323,-0.881,-3.654,2.38,1.47,1.47
,-9.201,-1.194,-3.601,-9.244,-0.859,-3.656,4.06,1.68,1.68
19309.0,-9.229,-0.818,-3.731,-9.371,-0.988,-3.235,4.76,0.28,1.68
,-9.148,-0.986,-3.51,-9.313,-0.782,-3.106,3.85,0.35,1.61
,-9.198,-1.139,-3.561,-9.32,-0.732,-3.178,3.92,0.77,1.61
,-9.246,-1.06,-3.257,-9.263,-0.833,-3.132,4.69,1.12,1.89
19384.0,-9.15,-0.916,-3.149,-9.423,-0.893,-2.91,0.84,2.17,1.54
,-9.213,-0.986,-3.094,-9.454,-0.744,-3.235,0.98,3.01,1.54
,-9.189,-1.003,-2.948,-9.287,-0.701,-3.494,0.84,3.5,1.54
,-9.311,-0.94,-2.922,-9.17,-0.761,-3.704,1.12,4.48,1.96
19460.0,-9.162,-0.986,-3.915,-9.136,-1.074,-3.929,-4.69,3.92,0.91
,-9.115,-1.189,-4.123,-9.294,-0.979,-3.874,-3.85,3.78,0.84
,-9.045,-1.223,-4.152,-9.292,-0.888,-3.644,-1.89,3.36,1.12
,-9.014,-1.127,-4.063,-9.22,-0.79,-3.527,0.14,3.15,1.54
19535.0,-9.27,-0.833,-3.709,-9.131,-1.019,-3.329,-0.77,-0.14,1.54
,-9.239,-0.826,-3.903,-9.253,-1.082,-2.922,-1.89,-0.84,1.05
,-9.076,-0.876,-3.853,-9.471,-0.952,-2.525,-2.87,-1.12,1.12
,-9.067,-0.957,-3.673,-9.631,-0.787,-2.74,-3.22,-0.91,1.33
19611.0,-9.562,-0.687,-3.228,-8.957,-1.395,-3.307,-3.64,1.19,1.12
,-9.177,-0.558,-3.522,-9.215,-1.041,-2.962,-5.95,0.98,1.54
,-8.961,-0.692,-3.752,-9.466,-0.723,-2.778,-8.4,1.33,2.03
,-8.83,-1.158,-3.611,-9.579,-0.586,-2.627,-8.05,2.45,2.52
19687.0,-9.574,-0.517,-2.857,-8.569,-0.591,-4.841,-3.22,4.97,2.24
,-9.438,-0.543,-3.228,-8.459,-1.369,-4.499,-4.97,4.2,1.89
,-9.301,-0.079,-3.668,-8.729,-1.919,-3.699,-5.32,3.78,1.96
,-8.942,0.002,-4.707,-9.186,-1.685,-3.092,-9.59,1.82,0.98
19763.0,-9.478,-1.015,-2.694,-9.366,-0.428,-3.587,5.81,4.69,3.71
,-9.746,-0.524,-2.635,-9.373,-0.031,-3.91,6.51,4.34,3.92
,-9.66,-0.364,-2.934,-8.993,0.34,-4.118,2.73,3.29,3.78
,-9.423,-0.574,-3.084,-8.871,0.524,-4.415,-1.26,3.92,4.06
19839.0,-8.502,-0.273,-4.35,-9.574,-1.484,-2.481,-13.93,0.56,-2.45
,-8.808,-1.249,-3.455,-9.426,-1.35,-2.553,-15.54,1.61,-1.68
,-9.155,-1.61,-3.171,-9.34,-1.266,-2.644,-11.34,2.1,-1.47
,-9.311,-1.591,-2.733,-9.194,-1.034,-3.13,-4.48,3.29,-0.77
19914.0,-8.94,-0.464,-2.946,-9.139,-0.443,-3.888,5.6,8.4,4.48
,-9.021,0.201,-3.331,-9.069,-1.326,-3.668,6.23,8.54,3.29
,-9.052,0.366,-3.362,-9.062,-2.132,-2.819,2.17,6.3,1.12
,-9.122,0.089,-3.743,-9.086,-2.426,-2.254,-4.76,4.34,-0.56
19990.0,-9.043,-2.321,-2.146,-8.782,1.01,-4.094,3.99,13.3,4.76
,-9.416,-1.725,-2.613,-8.521,1.4,-3.635,10.85,13.23,5.46
,-9.536,-0.684,-3.357,-8.856,1.311,-3.975,14.21,11.76,5.6
,-9.375,0.39,-3.908,-9.574,0.625,-3.752,14.49,11.76,6.44
20066.0,-9.739,-0.223,-4.089,-8.904,-1.718,-3.891,-10.08,10.78,-4.34
,-9.316,-1.161,-4.128,-8.76,-1.299,-4.283,-12.04,12.32,-3.01
,-9.016,-1.888,-3.711,-8.567,-0.972,-4.42,-8.19,14.91,-0.49
,-8.969,-2.056,-3.826,-8.751,-0.804,-4.568,-0.42,15.96,1.12
20142.0,-8.772,-0.718,-4.302,-9.287,-0.919,-4.262,7.35,15.82,2.59
,-8.978,-0.352,-4.08,-9.38,-0.95,-4.472,6.44,16.73,2.03
,-9.057,-0.256,-4.106,-9.112,-1.096,-4.463,4.69,15.61,1.12
,-9.179,-0.246,-4.389,-8.777,-0.976,-4.094,2.03,13.93,0.84
20217.0,-8.732,-0.78,-4.188,-9.091,0.589,-4.525,7.91,15.89,3.01
,-8.751,-0.479,-4.336,-8.885,0.218,-4.724,11.2,14.91,1.82
,-9.05,0.036,-4.271,-8.964,-0.455,-4.623,12.53,13.51,1.05
,-9.15,0.404,-4.314,-8.897,-1.041,-4.688,10.08,11.76,0.21
20293.0,-8.794,-1.603,-4.468,-8.717,-1.51,-4.415,-3.36,10.71,-2.1
,-8.775,-1.835,-4.343,-8.792,-1.204,-4.657,0.63,10.85,-0.84
,-8.509,-1.89,-4.448,-8.892,-0.936,-4.982,4.62,10.99,0.56
,-8.638,-1.847,-4.233,-8.916,-0.718,-5.018,8.54,11.06,1.61
20368.0,-8.732,-0.651,-5.071,-9.119,-0.95,-4.149,11.13,8.26,4.69
,-8.624,-0.701,-4.721,-8.892,-0.806,-4.41,9.59,9.1,4.27
,-8.732,-0.835,-4.367,-8.696,-0.648,-4.611,9.59,9.59,4.06
,-8.904,-1.031,-4.262,-8.76,-0.727,-4.417,9.73,9.59,4.27
20444.0,-9.048,-0.474,-4.448,-8.916,0.431,-4.463,15.12,9.17,4.97
,-8.997,-0.091,-4.585,-8.698,0.419,-4.625,17.01,9.1,4.13
,-9.239,0.12,-4.36,-8.684,0.251,-4.74,16.38,8.54,3.15
,-9.232,0.328,-4.283,-8.894,-0.115,-4.664,14.14,6.93,2.1
20520.0,-8.928,-0.096,-4.563,-8.43,-1.122,-4.341,10.57,5.11,-3.92
,-9.024,-0.117,-4.389,-8.248,-1.575,-4.441,10.92,4.97,-4.69
,-8.976,-0.309,-4.209,-8.26,-1.883,-4.59,12.32,5.32,-5.32
,-8.734,-0.694,-4.109,-8.571,-2.051,-4.647,11.34,5.46,-5.46
20596.0,-8.741,-2.113,-4.659,-8.619,-1.421,-4.616,16.8,7.84,-0.91
,-8.947,-1.886,-4.487,-8.827,-0.718,-4.798,18.69,8.75,-0.98
,-8.966,-1.823,-4.408,-8.729,-0.505,-4.896,18.55,9.31,0.42
,-8.758,-1.737,-4.346,-8.701,-0.522,-4.925,19.04,10.01,2.31
20672.0,-8.887,-0.732,-5.075,-8.806,-1.491,-5.063,18.06,6.93,0.07
,-8.725,-1.086,-5.116,-8.825,-0.854,-5.018,17.29,7.56,0.84
,-8.698,-1.663,-4.728,-8.638,-0.622,-5.138,15.54,8.47,2.38
,-8.643,-1.79,-4.666,-8.466,-1.275,-5.063,17.57,8.75,2.73
20747.0,-8.667,-1.292,-5.035,-8.464,-0.782,-5.264,15.82,7.0,4.55
,-8.842,-1.488,-4.905,-8.607,-0.639,-5.217,14.63,6.65,5.39
,-8.818,-1.488,-4.853,-8.835,-0.388,-5.207,14.56,6.44,5.95
,-8.54,-1.23,-5.121,-8.832,-0.256,-5.264,14.84,6.3,6.16
20823.0,-8.772,-0.29,-5.19,-8.899,-0.68,-5.133,9.03,3.71,3.57
,-8.698,-0.294,-5.214,-8.729,-0.833,-5.343,7.35,3.64,2.66
,-8.605,-0.483,-5.25,-8.777,-0.893,-5.485,5.6,3.92,1.68
,-8.748,-0.665,-5.13,-9.014,-0.926,-5.274,4.97,4.06,1.26
20899.0,-8.825,-1.268,-5.099,-8.358,-1.417,-5.36,1.12,1.82,-1.33
,-8.552,-1.457,-5.128,-8.646,-1.28,-5.286,1.12,0.98,-1.47
,-8.373,-1.462,-5.097,-8.904,-1.115,-5.221,0.28,0.07,-1.61
,-8.313,-1.378,-5.272,-8.696,-1.225,-5.114,-0.77,-0.56,-1.19
20975.0,-8.545,-1.23,-4.994,-8.713,-1.28,-4.917,-5.46,-3.99,-0.21
,-8.385,-1.347,-4.917,-8.772,-1.199,-4.803,-6.09,-3.92,0.42
,-8.44,-1.479,-4.805,-8.832,-0.902,-5.068,-6.93,-4.13,1.12
,-8.564,-1.371,-5.063,-8.952,-0.699,-5.075,-6.23,-4.06,1.89
21050.0,-8.882,-0.747,-4.843,-8.737,-0.55,-5.044,-8.68,-3.71,2.24
,-8.94,-0.572,-5.075,-9.06,-0.579,-4.695,-8.12,-3.08,2.59
,-8.806,-0.723,-4.582,-8.985,-0.577,-4.728,-9.87,-2.8,3.22
,-8.593,-0.61,-4.829,-8.789,-0.735,-4.659,-9.73,-3.08,3.57
21126.0,-8.564,-0.751,-4.757,-8.885,-1.204,-4.666,-10.36,-3.36,2.31
,-8.607,-0.766,-4.898,-8.875,-1.285,-4.302,-10.57,-3.29,2.24
,-8.638,-0.952,-4.74,-8.696,-1.029,-4.633,-10.78,-2.87,2.52
,-8.93,-0.859,-4.843,-8.643,-1.06,-4.558,-10.99,-2.59,3.29
21201.0,-8.363,-1.098,-4.922,-9.0,-1.443,-4.582,-11.27,-3.64,5.04
,-8.378,-1.397,-4.855,-9.129,-1.141,-4.649,-14.42,-3.5,5.74
,-8.76,-1.766,-4.405,-8.753,-0.909,-4.867,-12.53,-2.52,6.16
,-9.026,-1.589,-4.566,-8.588,-1.12,-4.738,-7.07,-2.03,6.44
21277.0,-8.629,-0.995,-4.824,-8.868,-0.048,-4.616,0.14,-4.34,7.7
,-8.94,-0.897,-4.635,-8.878,0.325,-4.731,1.05,-4.97,7.14
,-8.988,-0.799,-4.623,-9.043,0.483,-4.738,2.8,-5.74,6.16
,-8.832,-0.512,-4.549,-9.165,0.33,-4.618,4.13,-5.25,5.32
21353.0,-9.129,0.254,-4.621,-9.031,-0.45,-4.322,-3.08,-7.07,0.42
,-8.71,-0.038,-4.606,-9.016,-0.512,-4.384,-4.9,-6.79,-0.14
,-8.61,-0.148,-4.621,-8.842,-0.617,-4.532,-4.2,-6.09,-0.63
,-8.813,-0.373,-4.415,-8.72,-0.78,-4.463,-2.45,-6.44,-1.82
21429.0,-8.739,-1.072,-4.319,-9.115,-1.218,-4.238,-0.98,-6.16,-1.61
,-8.782,-1.211,-4.331,-9.107,-1.07,-4.355,-0.7,-6.79,-1.61
,-8.866,-1.208,-4.219,-8.983,-1.211,-4.257,0.21,-6.65,-0.7
,-8.734,-1.524,-4.396,-8.713,-1.311,-4.31,3.36,-7.07,-0.63
21505.0,-8.677,-1.539,-4.276,-8.909,-0.548,-4.494,3.15,-5.95,4.62
,-8.681,-1.543,-4.228,-8.825,-0.29,-4.628,6.37,-5.53,5.39
,-8.868,-1.407,-4.19,-8.808,-0.306,-4.645,10.36,-5.74,5.39
,-9.043,-1.046,-4.312,-8.875,-0.369,-4.396,14.14,-6.37,5.46
21580.0,-8.899,-0.287,-4.293,-9.194,-0.117,-3.996,12.25,-6.16,5.81
,-8.873,-0.199,-4.262,-9.421,-0.266,-3.9,12.6,-6.79,4.27
,-8.868,-0.093,-4.192,-9.304,-0.416,-3.764,12.53,-6.86,3.57
,-8.985,-0.036,-4.133,-9.146,-0.395,-3.79,11.55,-7.28,3.64
21656.0,-8.808,-0.249,-3.831,-8.938,-0.318,-3.915,9.87,-6.23,1.12
,-8.835,-0.242,-3.69,-8.851,-0.529,-3.673,8.89,-6.09,0.49
,-8.988,-0.136,-3.836,-9.019,-0.782,-3.589,8.26,-6.86,-0.28
,-8.887,-0.129,-3.946,-9.189,-0.677,-3.506,7.35,-6.93,-0.63
21732.0,-9.296,-0.512,-3.465,-8.88,-0.708,-3.965,8.75,-5.74,-2.73
,-9.409,-0.333,-3.508,-8.804,-0.763,-3.881,8.61,-6.37,-3.15
,-9.208,-0.412,-3.855,-9.067,-0.689,-3.977,6.02,-7.35,-3.29
,-8.894,-0.665,-3.836,-9.055,-0.481,-3.989,2.94,-6.86,-3.08
21808.0,-8.976,-0.672,-3.965,-9.172,-1.247,-3.269,3.92,-8.26,-4.83
,-9.067,-0.957,-4.066,-9.344,-0.732,-2.915,3.01,-8.33,-4.2
,-9.076,-1.278,-3.829,-9.61,-0.129,-3.422,3.92,-7.49,-3.08
,-9.11,-1.385,-3.427,-9.354,0.124,-3.754,6.65,-6.37,-1.75
21883.0,-9.026,-0.112,-3.932,-9.265,-1.027,-3.173,1.54,-9.38,-4.2
,-8.799,-0.811,-3.912,-9.356,-0.615,-3.053,-3.43,-8.75,-4.13
,-8.837,-1.388,-3.604,-9.378,-0.223,-2.85,-1.47,-7.07,-3.36
,-9.031,-1.443,-3.336,-9.344,-0.297,-2.936,4.2,-5.88,-3.5
21959.0,-9.107,-0.651,-3.314,-9.194,-1.137,-2.335,0.56,-6.3,-5.04
,-9.036,-0.794,-3.254,-9.409,-1.067,-2.551,-0.91,-5.88,-5.32
,-9.083,-0.902,-3.032,-9.34,-0.747,-3.029,-0.35,-4.76,-4.9
,-9.072,-1.084,-2.714,-9.256,-0.701,-2.95,0.14,-3.15,-4.62
22034.0,-9.311,-0.771,-3.422,-9.306,-0.682,-3.278,-3.36,-1.82,-4.41
,-9.148,-0.979,-3.41,-9.342,-0.663,-3.489,-3.99,-0.84,-4.83
,-9.141,-1.134,-3.12,-9.239,-0.854,-3.738,-3.29,0.14,-4.76
,-9.21,-1.074,-2.812,-9.007,-1.158,-3.821,-1.89,0.91,-5.04
22110.0,-9.012,-1.316,-3.836,-9.05,-1.402,-3.549,-5.53,-0.21,-4.9
,-9.04,-1.34,-3.965,-9.225,-1.527,-3.513,-2.87,-0.35,-4.76
,-9.115,-1.225,-3.934,-9.253,-1.108,-3.786,-1.47,-0.84,-4.13
,-9.098,-1.216,-3.841,-9.215,-0.689,-3.654,-1.4,-0.84,-3.36
22186.0,-9.208,-0.431,-4.056,-9.237,-1.125,-3.429,2.17,-1.82,-2.24
,-9.217,-0.596,-4.006,-9.407,-0.936,-3.513,0.56,-2.45,-2.66
,-9.148,-0.749,-3.922,-9.368,-1.019,-3.345,0.35,-2.66,-2.73
,-9.186,-0.876,-3.872,-9.265,-1.156,-3.027,0.42,-2.59,-2.66
22262.0,-9.249,-0.991,-3.348,-9.43,-1.163,-3.111,3.01,-2.1,-2.03
,-9.158,-1.333,-3.163,-9.275,-0.701,-3.302,1.61,-1.68,-2.03
,-9.062,-1.491,-2.953,-9.141,-0.699,-3.446,1.96,-0.49,-1.4
,-9.313,-1.326,-2.972,-9.081,-0.905,-3.467,4.48,0.14,-0.91
22337.0,-9.074,-1.06,-3.35,-9.22,-0.986,-3.589,3.64,1.26,-1.12
,-9.265,-0.919,-3.281,-9.27,-1.292,-3.865,5.39,1.33,-1.05
,-9.332,-0.751,-3.623,-9.22,-1.335,-3.967,6.09,0.49,-1.68
,-9.256,-0.814,-3.565,-9.112,-1.244,-3.963,4.83,0.35,-1.75
22413.0,-9.093,-1.18,-3.687,-9.323,-1.094,-3.333,6.02,-0.77,-1.19
,-9.143,-1.223,-3.587,-9.203,-1.225,-3.183,6.16,-0.63,-1.12
,-9.237,-1.158,-3.484,-9.088,-1.405,-2.776,6.44,-0.91,-1.12
,-9.325,-1.058,-3.345,-9.27,-1.249,-2.663,6.3,-1.12,-0.98
22489.0,-9.392,-1.062,-2.479,-9.301,-1.24,-2.536,7.0,1.12,-0.49
,-9.433,-0.847,-2.431,-9.282,-1.304,-2.635,5.88,1.75,-0.49
,-9.39,-0.885,-2.429,-9.239,-1.249,-2.869,2.73,2.38,-0.98
,-9.261,-1.125,-2.347,-9.363,-1.153,-3.233,0.77,3.5,-0.98
22565.0,-9.351,-1.144,-3.647,-9.074,-1.259,-4.245,-1.26,6.23,-1.05
,-9.141,-1.168,-3.702,-9.009,-1.383,-4.31,-1.96,6.09,-0.84
,-9.16,-1.151,-4.044,-9.098,-1.481,-4.212,-1.82,5.81,-0.7
,-9.131,-1.251,-4.123,-9.134,-1.407,-4.295,-1.61,5.25,-0.63
22641.0,-9.086,-1.333,-4.068,-9.091,-1.18,-3.762,4.41,2.45,1.19
,-9.098,-1.263,-3.924,-9.143,-1.213,-3.549,4.62,2.1,1.33
,-9.201,-1.299,-3.987,-9.265,-1.015,-3.441,3.92,1.05,0.98
,-9.105,-1.228,-3.865,-9.316,-0.933,-3.398,3.99,0.42,1.12
22716.0,-9.251,-1.05,-3.264,-9.256,-1.106,-3.151,2.31,-0.07,1.12
,-9.27,-1.103,-3.199,-9.253,-1.177,-3.029,1.4,-0.14,1.12
,-9.232,-1.103,-3.118,-9.253,-1.311,-3.005,1.12,0.21,0.84
,-9.208,-1.06,-3.168,-9.246,-1.371,-2.974,0.63,0.42,0.56
22792.0,-9.306,-1.292,-3.257,-9.162,-1.218,-3.623,0.63,2.45,1.05
,-9.323,-1.091,-3.412,-9.194,-1.132,-3.738,1.47,2.66,1.19
,-9.237,-1.029,-3.592,-9.189,-1.077,-3.625,1.4,2.73,1.05
,-9.158,-1.175,-3.613,-9.246,-1.084,-3.549,1.33,2.66,1.05
22867.0,-9.215,-1.156,-3.47,-9.234,-1.07,-3.41,4.62,2.31,1.47
,-9.155,-1.144,-3.439,-9.222,-1.058,-3.295,4.41,2.45,1.4
,-9.21,-1.053,-3.47,-9.253,-0.993,-3.429,3.85,2.45,1.12
,-9.196,-1.149,-3.475,-9.27,-0.981,-3.494,3.01,2.45,0.98
22943.0,-9.253,-0.94,-3.659,-9.119,-1.275,-3.63,1.89,2.52,0.91
,-9.232,-1.017,-3.778,-9.165,-1.314,-3.565,1.12,2.24,0.77
,-9.112,-1.096,-3.812,-9.217,-1.256,-3.422,1.12,2.17,0.77
,-9.107,-1.228,-3.778,-9.277,-1.11,-3.4,1.05,2.17,0.7
23019.0,-9.27,-1.022,-3.386,-9.098,-1.199,-3.463,2.03,2.17,0.91
,-9.256,-1.0,-3.372,-9.174,-1.144,-3.518,1.75,2.38,0.98
,-9.253,-1.058,-3.57,-9.225,-1.113,-3.477,1.33,2.31,0.84
,-9.213,-1.151,-3.51,-9.227,-1.046,-3.551,1.47,2.24,0.91
23095.0,-9.22,-1.129,-3.506,-9.258,-1.01,-3.599,2.31,2.45,0.91
,-9.158,-1.204,-3.439,-9.184,-1.082,-3.628,1.89,2.52,0.77
,-9.229,-1.125,-3.482,-9.201,-1.096,-3.79,1.82,2.59,0.77
,-9.237,-1.094,-3.539,-9.153,-1.22,-3.759,1.54,2.52,0.7
23170.0,-9.055,-1.187,-3.788,-9.217,-1.041,-3.671,1.82,1.68,0.77
,-9.117,-1.175,-3.821,-9.189,-1.079,-3.585,2.38,1.4,0.77
,-9.129,-1.153,-3.81,-9.229,-1.053,-3.496,3.15,1.19,0.91
,-9.213,-1.074,-3.778,-9.239,-1.029,-3.475,3.71,0.98,0.91
23246.0,-9.244,-1.101,-3.486,-9.189,-1.065,-3.628,2.45,0.91,0.91
,-9.146,-1.247,-3.436,-9.117,-1.106,-3.575,2.03,0.98,0.84
,-9.186,-1.228,-3.467,-9.155,-1.031,-3.647,2.8,1.12,0.91
,-9.213,-1.161,-3.613,-9.217,-1.103,-3.656,3.22,0.84,0.7
23322.0,-9.112,-1.146,-3.568,-9.273,-1.082,-3.53,3.22,0.63,0.98
,-9.139,-1.251,-3.458,-9.182,-1.132,-3.518,3.64,0.7,1.12
,-9.268,-1.218,-3.501,-9.158,-1.189,-3.331,4.69,0.7,1.12
,-9.241,-1.132,-3.491,-9.208,-1.204,-3.245,5.04,0.63,1.12
23398.0,-9.294,-1.0,-3.242,-9.201,-1.161,-3.57,5.74,1.54,1.33
,-9.356,-0.845,-3.297,-9.174,-1.261,-3.63,4.9,1.47,1.05
,-9.313,-0.854,-3.295,-9.122,-1.326,-3.589,3.22,1.4,0.77
,-9.229,-1.015,-3.419,-9.139,-1.28,-3.568,1.89,1.33,0.49
23474.0,-9.249,-1.098,-3.699,-9.184,-1.259,-3.582,3.99,1.05,0.7
,-9.232,-1.034,-3.795,-9.213,-1.168,-3.508,3.85,0.7,0.63
,-9.136,-1.007,-3.766,-9.194,-1.096,-3.364,3.01,0.56,0.63
,-9.122,-1.06,-3.731,-9.244,-1.108,-3.391,2.24,0.42,0.56
23549.0,-9.225,-1.122,-3.211,-9.28,-1.067,-3.364,3.08,0.7,0.56
,-9.28,-1.125,-3.266,-9.261,-1.096,-3.467,2.66,0.91,0.49
,-9.273,-1.139,-3.154,-9.217,-1.062,-3.46,2.03,1.05,0.42
,-9.244,-1.156,-3.343,-9.251,-1.058,-3.592,1.54,1.12,0.14
23625.0,-9.256,-1.117,-3.671,-9.134,-1.192,-3.666,0.91,1.4,0.21
,-9.162,-1.189,-3.709,-9.206,-1.228,-3.539,1.33,1.12,0.21
,-9.124,-1.196,-3.75,-9.213,-1.218,-3.412,2.1,1.26,0.35
,-9.06,-1.184,-3.644,-9.268,-1.173,-3.441,2.73,1.19,0.56
23700.0,-9.258,-1.134,-3.465,-9.179,-1.283,-3.448,3.01,0.98,0.7
,-9.22,-1.091,-3.494,-9.28,-1.23,-3.486,2.45,0.84,0.7
,-9.184,-1.187,-3.494,-9.301,-1.11,-3.482,2.03,0.84,0.63
,-9.191,-1.216,-3.463,-9.203,-1.096,-3.544,2.03,0.77,0.7
23776.0,-9.129,-1.134,-3.561,-9.191,-1.251,-3.609,2.31,0.7,1.12
,-9.146,-1.206,-3.546,-9.208,-1.216,-3.553,1.96,0.63,1.19
,-9.17,-1.338,-3.609,-9.227,-1.098,-3.532,1.96,0.56,1.19
,-9.153,-1.259,-3.63,-9.289,-1.086,-3.613,2.38,0.35,1.26
23852.0,-9.232,-1.117,-3.518,-9.351,-1.096,-3.68,1.47,-0.63,1.4
,-9.301,-1.192,-3.565,-9.292,-0.969,-3.699,1.54,-0.98,1.26
,-9.234,-1.096,-3.573,-9.15,-0.811,-3.9,1.47,-1.33,1.05
,-9.296,-1.12,-3.599,-9.033,-0.852,-3.766,1.33,-1.96,1.05
23928.0,-9.05,-1.156,-3.743,-9.397,-1.242,-3.025,-6.93,-5.46,-0.7
,-9.062,-1.309,-3.525,-9.435,-1.024,-2.871,-7.0,-5.04,-0.42
,-9.093,-1.347,-3.355,-9.416,-0.876,-2.776,-5.6,-4.27,0.14
,-9.268,-1.345,-3.283,-9.344,-0.878,-2.886,-3.71,-3.5,0.49
24003.0,-9.234,-1.007,-2.888,-9.265,-1.285,-2.802,-7.56,-2.24,0.49
,-9.232,-1.158,-2.955,-9.34,-1.192,-2.718,-8.82,-1.96,0.35
,-9.112,-1.335,-2.862,-9.49,-1.022,-2.994,-8.4,-1.12,0.56
,-9.27,-1.299,-2.735,-9.392,-0.895,-3.288,-6.86,0.42,1.12
24079.0,-9.253,-0.993,-3.453,-9.117,-1.311,-3.47,-7.56,2.17,1.75
,-9.074,-1.094,-3.611,-9.143,-1.292,-3.123,-8.54,2.24,1.82
,-9.043,-1.175,-3.668,-9.344,-1.06,-2.998,-8.33,2.17,1.96
,-9.079,-1.254,-3.455,-9.454,-1.012,-2.824,-7.21,2.52,2.24
24155.0,-9.502,-0.754,-2.465,-8.894,-1.261,-3.821,-5.67,3.36,3.15
,-9.545,-0.548,-3.142,-8.978,-1.39,-3.23,-7.98,2.87,2.45
,-9.282,-0.802,-3.094,-9.256,-1.189,-3.484,-11.13,2.66,2.24
,-9.15,-0.955,-3.57,-9.249,-1.019,-3.238,-12.25,2.45,2.45
24231.0,-9.409,-0.452,-2.838,-9.49,-0.998,-0.852,3.29,6.44,6.16
,-9.179,-0.323,-3.118,-10.096,-0.337,-2.24,1.4,6.37,5.11
,-9.072,-0.598,-2.075,-9.627,0.057,-3.125,-1.33,8.68,5.53
,-9.249,-1.039,-1.874,-9.244,0.091,-3.898,-3.64,10.78,5.6
24307.0,-8.753,-0.586,-4.228,-9.115,-0.254,-3.733,-22.19,6.72,2.87
,-8.571,-1.517,-3.771,-9.139,-0.287,-3.376,-20.65,11.13,4.34
,-9.014,-1.419,-3.439,-9.258,-0.799,-2.735,-11.76,13.86,4.2
,-9.191,-0.771,-3.762,-9.287,-1.086,-1.938,-2.87,13.86,2.38
24382.0,-9.73,-0.759,-2.407,-8.483,-2.008,-5.604,1.54,17.99,2.45
,-9.282,-0.108,-3.965,-8.368,-2.891,-4.884,1.61,11.9,0.98
,-8.873,0.074,-5.114,-8.837,-2.898,-4.166,-5.74,6.58,0.28
,-8.65,-0.668,-5.772,-8.928,-2.455,-4.082,-16.38,5.39,0.7
24458.0,-9.052,-2.297,-3.783,-9.397,0.455,-3.252,9.31,14.14,6.37
,-9.179,-2.156,-3.278,-9.316,1.079,-4.362,13.93,16.52,9.66
,-8.957,-1.685,-2.867,-9.217,1.211,-5.13,19.11,19.74,11.76
,-9.306,-0.756,-1.926,-8.839,0.648,-5.181,26.53,21.42,12.53
24533.0,-8.696,0.081,-4.424,-9.328,0.431,-3.924,-3.5,11.06,6.72
,-8.935,-0.05,-3.934,-8.949,0.278,-3.838,-4.06,12.74,3.01
,-9.404,-0.01,-3.632,-9.026,0.151,-3.996,-3.92,11.2,-1.26
,-9.414,0.318,-3.661,-8.942,0.067,-4.501,-3.85,9.24,-3.01
24609.0,-9.081,0.223,-4.434,-8.646,-1.141,-4.133,-1.26,8.19,-5.53
,-9.155,0.345,-4.594,-8.966,-1.546,-3.917,0.35,7.56,-7.35
,-8.863,0.101,-4.503,-9.311,-1.685,-3.774,-1.89,8.26,-8.12
,-8.66,-0.424,-4.367,-9.213,-1.699,-3.886,-5.11,9.8,-7.7
24685.0,-8.813,-1.737,-4.355,-8.811,-0.912,-4.592,-3.22,7.7,-3.92
,-8.502,-1.866,-4.575,-8.873,-1.199,-4.271,-2.38,8.4,-1.4
,-8.6,-1.491,-4.779,-8.739,-1.517,-4.147,1.47,8.4,0.28
,-8.643,-1.108,-4.886,-8.672,-1.673,-4.003,5.04,7.84,0.56
24761.0,-8.873,-1.519,-3.659,-8.957,-0.443,-4.628,8.26,13.3,4.34
,-9.103,-1.036,-3.81,-8.787,-0.294,-4.482,11.97,12.53,4.83
,-9.27,-0.747,-4.233,-8.725,-0.201,-4.475,13.02,9.38,5.25
,-8.99,-0.519,-4.774,-8.631,-0.488,-4.25,12.11,7.91,5.67
24836.0,-8.789,-0.962,-4.238,-8.748,-0.778,-4.489,5.81,8.68,1.96
,-8.887,-1.285,-4.513,-8.698,-0.909,-4.255,5.39,7.63,2.59
,-9.012,-1.328,-4.48,-8.94,-1.35,-3.958,7.14,7.84,3.57
,-8.928,-1.003,-4.535,-8.815,-1.735,-4.135,10.57,8.12,4.2
24912.0,-8.732,-1.644,-4.29,-9.081,0.447,-4.803,10.64,8.75,7.42
,-8.686,-1.565,-4.302,-8.842,1.017,-4.898,12.88,9.45,8.47
,-9.072,-1.17,-4.216,-8.77,1.017,-4.838,16.94,8.54,8.26
,-9.122,-0.359,-4.59,-9.095,0.677,-4.57,21.35,6.09,6.86
24988.0,-9.083,0.4,-4.695,-8.933,0.254,-4.949,8.68,5.67,0.14
,-8.949,0.273,-4.872,-9.129,0.163,-4.848,9.31,5.67,-1.05
,-9.005,0.163,-4.731,-9.105,-0.053,-4.702,11.34,4.76,-2.45
,-8.926,0.536,-5.013,-8.574,-0.589,-4.585,15.33,2.59,-4.55
25064.0,-8.634,-1.12,-4.073,-8.555,-2.436,-4.396,11.9,2.03,-8.89
,-8.409,-1.62,-4.322,-8.78,-2.137,-4.795,11.62,2.31,-8.47
,-8.409,-1.811,-4.202,-8.849,-1.687,-4.915,11.62,3.29,-7.35
,-8.476,-1.989,-4.305,-8.638,-1.914,-4.917,12.74,3.22,-5.95
25139.0,-8.526,-2.053,-4.551,-8.739,-2.118,-4.331,12.81,3.92,1.26
,-8.54,-2.388,-4.357,-8.67,-1.859,-4.692,12.39,4.62,3.36
,-8.643,-2.324,-4.46,-8.863,-1.127,-5.001,12.39,5.18,5.39
,-8.859,-2.266,-4.252,-8.918,-0.536,-5.233,13.02,5.81,6.72
25215.0,-9.045,-0.455,-4.946,-9.162,-0.089,-4.867,17.71,4.55,10.29
,-9.04,-0.141,-5.099,-9.067,-0.519,-4.86,16.94,4.69,9.87
,-8.854,-0.182,-5.066,-8.844,-0.672,-5.027,15.61,5.46,9.38
,-9.007,-0.134,-4.85,-8.717,-0.744,-4.977,14.91,6.51,8.4
25291.0,-8.619,-0.213,-5.406,-8.973,-1.271,-5.142,9.31,4.2,4.2
,-8.512,-0.412,-5.556,-8.746,-1.498,-4.987,6.09,4.48,2.87
,-8.705,-0.708,-5.212,-8.526,-1.496,-5.166,3.43,5.39,1.68
,-9.031,-0.926,-5.157,-8.72,-1.397,-5.26,1.96,5.04,0.42
25366.0,-8.875,-1.235,-5.243,-8.995,-0.869,-5.095,4.06,4.48,0.56
,-8.746,-0.94,-5.485,-8.636,-0.991,-4.996,4.9,3.29,0.14
,-8.748,-0.878,-5.48,-8.512,-1.055,-4.637,4.76,2.87,-0.42
,-8.961,-0.861,-5.25,-8.557,-0.938,-4.561,3.71,2.24,-0.7
25442.0,-8.942,-0.782,-4.707,-8.674,-0.905,-4.848,0.42,0.7,-2.17
,-8.871,-0.531,-5.011,-8.854,-0.933,-4.989,-0.91,-0.91,-2.87
,-8.528,-0.409,-5.095,-8.981,-0.873,-4.925,-2.17,-1.12,-3.08
,-8.509,-0.677,-5.02,-9.016,-0.845,-4.963,-4.41,-0.77,-2.8
25518.0,-9.122,-0.962,-4.934,-8.311,-1.362,-4.676,-9.1,-2.31,-1.61
,-8.777,-1.158,-4.925,-8.622,-1.531,-4.616,-10.5,-3.57,-0.98
,-8.536,-1.33,-4.64,-8.928,-1.484,-4.803,-10.85,-3.71,-0.14
,-8.208,-1.211,-4.905,-8.914,-1.766,-4.786,-11.13,-3.57,0.84
25594.0,-8.835,-1.723,-4.654,-8.65,-0.589,-4.783,-12.67,-1.89,7.42
,-8.725,-1.67,-4.657,-8.715,-0.531,-4.846,-10.99,-2.31,9.17
,-8.655,-1.318,-4.736,-8.782,-0.928,-4.836,-8.33,-4.34,9.73
,-8.619,-0.859,-4.913,-8.818,-1.182,-4.745,-7.21,-5.46,9.52
25669.0,-8.873,-1.046,-4.898,-9.067,-0.108,-4.872,-14.14,-4.27,9.45
,-8.914,-0.972,-4.427,-8.938,-0.378,-4.786,-9.73,-4.69,9.03
,-9.014,-0.325,-4.791,-8.811,-0.818,-4.623,-5.81,-5.95,8.12
,-9.083,-0.158,-4.657,-8.935,-0.785,-4.587,-4.62,-7.84,7.0
25745.0,-8.957,-0.945,-4.238,-8.567,-0.916,-4.812,-3.64,-8.12,2.66
,-8.914,-0.826,-4.3,-8.72,-1.113,-4.697,-1.4,-8.89,2.52
,-8.76,-0.711,-4.642,-8.99,-1.127,-4.762,-0.56,-9.24,3.43
,-8.559,-0.857,-4.745,-9.04,-1.046,-4.647,-1.33,-9.03,4.34
25821.0,-9.064,-1.031,-4.247,-8.847,-0.392,-4.14,5.67,-9.17,4.41
,-9.165,-0.895,-4.2,-8.804,-0.165,-4.36,6.23,-9.66,5.6
,-8.837,-0.646,-4.379,-8.947,-0.148,-4.403,6.58,-9.17,6.16
,-8.753,-0.462,-4.448,-9.095,-0.124,-4.223,7.28,-8.54,6.58
25897.0,-8.768,-0.263,-4.178,-8.698,0.069,-3.652,3.71,-9.38,5.18
,-9.014,0.309,-4.508,-8.665,0.208,-3.618,5.53,-9.03,3.5
,-9.373,-0.577,-3.498,-8.677,0.062,-3.587,4.97,-8.82,1.89
,-9.273,-0.151,-3.544,-8.976,0.029,-3.857,5.39,-10.29,1.47
25972.0,-8.966,-0.199,-3.838,-9.423,0.024,-3.412,-1.33,-8.82,-0.84
,-8.973,-0.304,-3.573,-9.086,-0.029,-3.537,-1.54,-7.56,-1.19
,-9.129,-0.34,-3.496,-8.926,-0.364,-3.431,-0.77,-7.42,-2.17
,-9.33,-0.151,-3.52,-8.914,-0.651,-3.482,0.7,-8.05,-3.36
26048.0,-9.158,-0.914,-3.319,-9.292,-0.165,-3.731,-3.64,-5.25,-4.2
,-9.174,-0.869,-3.544,-9.1,-0.072,-3.975,-1.47,-4.76,-4.2
,-9.057,-0.773,-3.869,-9.584,-0.333,-3.556,0.7,-5.11,-3.71
,-9.284,-0.419,-3.704,-9.021,-0.27,-4.121,2.1,-4.48,-2.8
26123.0,-8.751,-0.598,-4.039,-9.38,-0.242,-3.735,-4.55,-4.13,-3.78
,-8.533,-0.787,-3.972,-9.012,-0.352,-3.537,-3.57,-2.38,-4.62
,-8.961,-0.711,-3.613,-8.99,-0.538,-3.537,-1.54,-2.73,-5.95
,-9.457,-0.455,-3.637,-9.021,-0.639,-3.372,0.0,-3.36,-7.0
26199.0,-9.361,-0.658,-3.111,-9.074,-1.012,-3.443,-7.07,-1.68,-6.72
,-9.11,-0.464,-3.415,-9.057,-0.945,-3.329,-7.14,-2.8,-6.72
,-9.036,-0.565,-3.539,-8.954,-0.871,-3.769,-8.4,-2.8,-6.79
,-8.933,-0.995,-3.544,-8.882,-1.117,-3.788,-9.45,-1.75,-6.93
26275.0,-9.072,-1.165,-3.778,-9.127,-0.62,-4.087,-7.56,-1.05,-4.27
,-9.182,-0.902,-4.145,-9.105,-0.459,-4.271,-4.9,-0.49,-3.64
,-9.21,-0.876,-4.142,-9.22,-0.404,-4.19,-3.5,0.49,-3.85
,-9.213,-0.857,-3.733,-9.514,-0.629,-4.085,-2.1,1.19,-3.99
26351.0,-9.292,-0.61,-3.991,-8.61,-0.555,-4.573,0.21,-1.96,-3.71
,-9.115,-0.421,-4.197,-8.672,-0.928,-4.221,-0.21,-2.52,-4.41
,-9.28,-0.34,-4.405,-9.119,-1.278,-3.525,-0.84,-3.92,-5.25
,-8.952,-0.223,-4.561,-9.227,-1.208,-3.139,-1.89,-6.3,-5.81
26427.0,-9.234,-0.847,-2.84,-9.299,-0.72,-3.671,5.18,-4.27,-4.06
,-9.258,-0.629,-2.931,-9.387,-0.677,-3.384,4.41,-3.99,-3.57
,-9.33,-0.799,-2.938,-8.911,-0.675,-3.769,2.94,-3.5,-3.71
,-9.21,-0.849,-3.321,-8.796,-0.89,-3.427,2.73,-2.87,-3.22
26502.0,-9.251,-0.9,-3.661,-9.194,-1.208,-3.264,6.51,-1.19,-3.5
,-9.253,-0.493,-3.668,-9.313,-1.292,-3.185,7.21,-3.08,-4.06
,-9.1,-0.373,-3.774,-9.258,-1.158,-3.005,4.48,-3.36,-3.71
,-8.988,-0.809,-3.546,-9.299,-0.979,-2.943,1.89,-1.89,-3.22
26578.0,-9.402,-0.804,-3.135,-8.966,-1.048,-3.97,9.94,1.4,-1.19
,-9.452,-0.383,-3.644,-9.15,-1.419,-3.671,11.2,1.26,-0.98
,-9.139,-0.11,-3.955,-9.294,-1.438,-3.479,9.45,0.98,-1.12
,-8.966,-0.409,-4.061,-9.385,-0.936,-3.592,6.79,1.68,-0.91
26654.0,-9.261,-0.792,-3.498,-9.064,-1.445,-3.029,8.82,-1.47,-1.89
,-9.064,-0.864,-3.41,-9.088,-1.481,-2.596,5.46,-1.68,-2.03
,-8.942,-1.079,-3.618,-9.32,-1.486,-2.058,2.8,-1.68,-2.31
,-9.067,-1.364,-3.372,-9.689,-0.981,-2.345,3.08,-0.63,-1.96
26730.0,-9.682,-0.416,-2.948,-8.581,-1.378,-4.46,14.42,5.46,1.54
,-9.399,0.012,-3.886,-8.667,-1.759,-3.884,11.48,4.48,0.84
,-8.916,-0.318,-4.302,-9.009,-1.828,-3.321,6.65,4.62,0.35
,-8.732,-0.809,-4.582,-9.562,-1.527,-2.809,4.48,4.9,0.0
26805.0,-9.775,-0.79,-3.223,-8.71,-1.508,-3.905,16.52,6.86,1.75
,-9.55,-0.244,-3.79,-8.88,-1.704,-3.525,11.62,4.62,0.91
,-9.098,-0.306,-4.063,-9.289,-1.539,-3.07,4.27,3.08,-0.07
,-8.765,-0.876,-4.245,-9.579,-1.07,-2.979,-0.91,2.66,-0.63
26881.0,-9.66,-0.711,-3.228,-8.993,-1.295,-3.704,9.94,3.85,1.19
,-9.344,-0.603,-3.601,-9.131,-1.17,-3.455,6.37,3.22,0.77
,-9.021,-0.89,-3.759,-9.397,-0.794,-3.563,3.36,3.08,0.7
,-8.866,-1.182,-3.75,-9.457,-0.572,-3.848,3.01,3.85,0.84
26956.0,-9.162,-0.603,-4.003,-9.146,-1.173,-3.74,6.09,2.87,0.28
,-8.935,-0.799,-4.156,-9.261,-0.845,-3.647,3.43,2.31,-0.21
,-8.868,-1.115,-4.116,-9.33,-0.591,-3.807,3.01,2.45,-0.49
,-9.189,-1.316,-3.96,-9.103,-0.708,-3.843,3.64,2.17,-0.91
27032.0,-8.938,-0.948,-3.862,-9.076,-1.113,-3.065,-0.91,-0.91,-1.89
,-9.038,-1.256,-3.778,-9.646,-1.161,-3.094,-0.77,-0.49,-2.17
,-9.194,-1.323,-3.676,-9.371,-0.828,-3.049,-0.28,-1.05,-2.59
,-9.05,-1.168,-3.396,-8.918,-0.854,-3.118,0.07,-1.19,-2.1
27108.0,-8.842,-1.292,-3.295,-9.387,-0.912,-3.867,-7.7,-0.56,-1.82
,-9.131,-1.663,-3.233,-9.206,-0.574,-4.298,-5.88,1.33,-1.47
,-9.191,-1.642,-3.271,-8.894,-0.696,-4.513,-1.47,2.8,-0.56
,-9.316,-1.326,-3.549,-8.77,-1.12,-4.417,1.75,2.94,-0.14
27184.0,-8.849,-1.541,-4.3,-9.337,-0.945,-3.408,0.63,2.8,-0.14
,-9.021,-1.653,-3.829,-9.131,-1.077,-3.357,4.27,3.5,0.56
,-9.246,-1.464,-3.527,-9.028,-1.283,-3.379,8.26,3.92,1.12
,-9.43,-1.146,-3.446,-9.091,-1.421,-3.374,10.22,3.85,1.47
27260.0,-9.191,-1.173,-3.386,-8.971,-0.955,-4.35,8.82,6.16,2.45
,-9.28,-0.96,-3.609,-8.949,-1.108,-4.314,9.59,6.09,2.59
,-9.251,-0.761,-3.917,-8.985,-1.223,-4.202,9.03,5.67,2.52
,-9.081,-0.806,-4.118,-9.1,-1.23,-3.975,7.56,5.32,2.52
27335.0,-9.28,-1.106,-3.879,-9.184,-1.189,-3.429,9.38,4.41,1.96
,-9.237,-0.912,-3.697,-9.162,-1.263,-3.393,8.4,3.36,1.68
,-9.134,-0.902,-3.632,-9.05,-1.316,-3.415,6.23,2.8,1.4
,-9.15,-1.053,-3.549,-9.189,-1.084,-3.678,4.83,2.73,1.26
27411.0,-9.177,-0.964,-3.936,-9.129,-1.11,-3.967,5.88,2.8,1.12
,-8.981,-0.914,-4.027,-9.134,-1.089,-3.795,4.83,2.8,1.19
,-8.961,-1.11,-3.999,-9.179,-0.998,-3.759,3.85,2.66,1.19
,-9.05,-1.12,-4.042,-9.201,-1.055,-3.704,4.27,2.73,1.19
27487.0,-9.107,-1.029,-3.75,-9.201,-1.175,-3.573,4.2,2.38,0.98
,-9.076,-1.084,-3.743,-9.349,-0.993,-3.723,3.29,2.31,0.91
,-9.098,-1.161,-3.731,-9.241,-0.826,-3.922,3.29,2.73,0.91
,-9.107,-1.211,-3.534,-9.057,-0.902,-3.987,4.2,3.22,1.12
27563.0,-8.906,-1.144,-4.125,-9.17,-1.043,-3.857,-0.7,1.05,0.14
,-8.88,-1.402,-4.159,-9.127,-0.952,-3.766,0.28,1.12,0.35
,-8.981,-1.366,-4.061,-9.079,-0.979,-3.687,2.24,1.12,0.63
,-9.122,-1.228,-3.922,-9.129,-1.156,-3.642,3.5,1.12,0.7
27638.0,-9.124,-1.237,-3.695,-9.012,-1.158,-3.812,0.63,0.84,0.7
,-9.105,-1.196,-3.754,-9.043,-1.122,-3.819,1.19,1.05,0.91
,-9.045,-1.184,-3.776,-9.148,-1.132,-3.589,1.82,1.19,0.91
,-9.045,-1.139,-3.848,-9.244,-1.022,-3.747,2.8,1.12,1.12
27714.0,-9.246,-0.962,-3.819,-9.036,-1.225,-4.042,1.89,1.26,1.05
,-9.086,-1.067,-3.91,-9.012,-1.156,-3.769,0.56,1.19,1.05
,-9.028,-1.23,-3.934,-9.112,-1.144,-3.53,0.42,1.05,1.19
,-8.99,-1.254,-4.001,-9.268,-0.967,-3.659,1.89,1.12,1.19
27789.0,-9.206,-0.838,-3.642,-9.033,-1.225,-3.845,3.29,0.84,1.33
,-9.095,-0.969,-3.599,-9.062,-1.12,-3.884,1.4,0.91,1.26
,-9.11,-1.211,-3.726,-9.088,-1.041,-3.967,0.35,1.12,1.19
,-9.033,-1.299,-3.817,-9.117,-1.041,-3.953,1.19,1.12,1.19
27865.0,-9.1,-1.11,-3.821,-9.241,-1.297,-3.656,1.68,0.35,1.47
,-9.019,-1.122,-3.996,-9.203,-1.125,-3.62,1.26,-0.07,1.4
,-9.1,-1.285,-3.778,-9.213,-0.943,-3.855,1.68,0.14,1.68
,-9.115,-1.321,-3.714,-9.086,-0.916,-3.917,3.01,0.28,2.17
27941.0,-9.033,-1.019,-4.006,-9.143,-1.027,-3.795,0.77,-0.98,1.75
,-9.012,-1.263,-3.967,-9.263,-0.967,-3.85,0.84,-0.63,1.89
,-8.995,-1.323,-3.867,-9.184,-0.852,-3.795,2.66,-0.49,2.24
,-9.007,-1.261,-3.743,-9.139,-0.873,-3.723,4.55,-0.28,2.52
28017.0,-9.088,-0.981,-3.654,-9.256,-1.07,-3.539,1.47,-0.84,2.1
,-9.031,-1.07,-3.577,-9.15,-0.931,-3.486,0.84,-0.56,1.96
,-9.127,-1.192,-3.527,-9.091,-0.955,-3.379,0.84,-0.28,1.96
,-9.246,-1.158,-3.532,-9.119,-1.012,-3.343,0.98,-0.63,1.89
28093.0,-9.282,-0.957,-3.475,-8.954,-1.11,-3.865,-2.31,-0.21,1.68
,-9.249,-0.842,-3.623,-9.021,-1.268,-3.759,-2.8,-0.42,1.47
,-9.16,-0.859,-3.838,-9.091,-1.115,-3.628,-4.13,-0.7,1.4
,-9.067,-0.986,-3.862,-9.177,-1.125,-3.465,-4.76,-0.42,1.54
28168.0,-9.249,-0.979,-3.57,-8.966,-1.199,-3.96,-1.54,0.21,2.17
,-9.268,-0.888,-3.733,-9.024,-1.28,-3.903,-2.03,0.0,2.03
,-9.21,-0.888,-3.862,-9.146,-1.127,-3.884,-3.15,-0.63,1.75
,-9.06,-1.024,-3.946,-9.244,-0.814,-3.917,-4.34,-1.05,1.75
28244.0,-9.203,-0.555,-3.963,-9.198,-1.204,-3.321,-2.59,-3.15,1.54
,-9.1,-0.577,-3.967,-9.33,-1.149,-3.352,-5.6,-3.5,1.4
,-9.06,-0.94,-3.795,-9.244,-1.137,-3.321,-8.19,-3.57,1.26
,-9.1,-1.189,-3.556,-9.081,-1.144,-3.424,-8.26,-3.08,1.26
28320.0,-9.002,-1.146,-3.36,-9.337,-0.897,-2.704,-7.42,-2.52,2.59
,-9.217,-1.151,-3.307,-9.464,-0.73,-2.496,-6.09,-1.4,3.08
,-9.332,-1.194,-3.151,-9.452,-0.337,-2.661,-5.39,-0.7,3.36
,-9.21,-1.079,-2.843,-9.055,-0.349,-3.025,-4.34,0.07,4.06
28396.0,-8.902,-0.538,-3.506,-9.586,-0.17,-3.226,-12.67,-1.05,2.94
,-8.892,-0.83,-3.427,-9.519,0.256,-3.951,-13.86,0.42,3.5
,-9.148,-0.84,-3.096,-8.988,0.098,-4.195,-11.76,2.52,3.92
,-9.411,-0.505,-3.25,-8.897,-0.433,-4.147,-8.89,4.06,3.36
28471.0,-9.055,-1.213,-3.932,-9.064,0.05,-4.326,-15.96,2.66,0.42
,-9.1,-1.618,-2.659,-8.997,-0.842,-4.448,-10.57,4.83,1.47
,-9.672,-0.586,-2.946,-8.799,-2.036,-3.984,-0.21,4.41,1.12
,-9.241,-0.091,-4.046,-8.899,-2.46,-3.084,-0.21,0.49,-1.19
28547.0,-9.189,-1.876,-3.029,-9.34,-1.098,-2.419,1.68,6.79,3.22
,-9.021,-1.24,-2.876,-9.832,-0.869,-1.926,7.28,6.51,3.92
,-9.105,-0.972,-2.599,-9.777,-0.182,-2.63,7.21,7.21,5.88
,-9.225,-0.955,-2.469,-8.839,0.476,-3.209,5.32,8.19,7.07
28622.0,-8.437,0.56,-3.714,-9.474,-0.632,-2.627,2.45,8.82,4.76
,-8.662,0.036,-3.987,-9.067,-0.694,-2.929,-3.92,9.87,3.71
,-9.162,-0.474,-3.285,-9.05,-0.883,-3.293,-4.83,12.88,3.71
,-9.462,-0.617,-3.027,-9.081,-1.196,-3.862,-2.66,14.7,2.45
28698.0,-9.141,-1.371,-4.02,-8.978,-0.833,-4.671,-1.33,12.95,4.76
,-8.732,-1.321,-4.133,-8.981,-0.988,-4.786,1.75,14.28,5.18
,-8.552,-1.12,-3.996,-8.911,-1.156,-4.482,5.04,15.96,5.04
,-8.887,-0.806,-4.171,-8.844,-1.295,-3.996,6.44,15.47,4.83
28774.0,-8.902,-1.175,-3.532,-9.194,-0.237,-4.771,6.51,18.13,7.49
,-9.33,-0.845,-3.886,-8.808,-0.29,-4.446,10.78,16.66,7.56
,-9.28,-0.357,-4.434,-8.629,0.038,-4.369,11.55,13.16,8.12
,-9.311,-0.122,-4.81,-8.799,0.538,-4.159,9.31,11.62,8.96
28850.0,-9.27,0.859,-4.355,-8.789,-0.969,-4.039,7.98,10.71,2.03
,-9.284,0.514,-4.561,-9.048,-1.015,-3.9,0.98,7.77,0.84
,-8.847,-0.146,-4.539,-8.952,-1.015,-4.145,-5.39,7.63,1.19
,-8.705,-0.718,-4.295,-8.894,-1.005,-4.346,-6.65,9.38,1.26
28925.0,-8.971,-1.015,-4.448,-8.794,0.122,-4.903,3.92,12.04,5.81
,-8.949,-0.814,-4.448,-8.665,-0.053,-4.975,5.18,12.74,6.23
,-8.861,-0.476,-4.468,-8.727,-0.352,-4.819,6.79,12.11,5.11
,-8.89,-0.081,-4.64,-8.842,-0.581,-4.563,6.86,9.66,3.64
29001.0,-8.866,-0.586,-4.422,-8.871,-0.503,-4.664,-0.35,7.7,2.03
,-8.784,-0.648,-4.578,-8.875,-0.034,-4.728,0.77,6.79,2.1
,-8.938,-0.926,-4.499,-9.072,0.524,-4.755,0.91,7.0,2.73
,-9.091,-0.883,-4.487,-9.107,0.861,-4.728,2.38,6.93,3.5
29077.0,-8.806,0.84,-4.736,-8.787,-1.019,-4.18,2.45,4.34,-1.19
,-8.715,0.486,-4.604,-8.732,-0.928,-4.25,-1.4,5.53,-1.4
,-9.007,-0.074,-4.365,-8.923,-0.459,-4.405,-3.29,5.46,-2.31
,-9.019,-0.732,-4.35,-8.839,-0.189,-4.566,-2.87,5.53,-3.22
29153.0,-8.873,-0.27,-4.384,-8.89,-0.806,-4.518,5.04,4.69,-2.1
,-8.555,-0.495,-4.606,-8.861,-0.503,-4.582,2.31,4.34,-2.24
,-8.497,-0.751,-4.544,-9.057,-0.134,-4.602,1.19,5.53,-2.03
,-8.713,-0.859,-4.501,-9.117,0.256,-4.633,2.24,5.95,-1.96
29229.0,-8.782,0.328,-4.671,-8.93,-1.199,-4.343,9.03,2.87,-4.55
,-8.502,0.168,-4.494,-8.899,-1.395,-4.386,7.77,3.57,-4.76
,-8.581,-0.357,-4.52,-8.88,-1.531,-4.329,6.23,3.92,-4.41
,-8.914,-0.873,-4.453,-8.801,-1.534,-4.334,7.14,5.18,-3.5
29304.0,-8.808,-1.443,-4.444,-8.497,-0.885,-5.245,16.94,7.84,0.91
,-8.674,-1.419,-4.453,-8.524,-1.173,-4.934,17.85,7.84,1.33
,-8.66,-1.117,-4.889,-8.806,-1.436,-4.838,19.04,7.0,1.96
,-8.547,-0.871,-5.178,-8.983,-1.29,-4.57,19.25,6.37,2.1
29380.0,-8.82,-1.041,-4.645,-8.859,0.002,-5.099,18.76,6.86,3.71
,-8.614,-0.9,-4.515,-8.76,0.203,-5.243,19.32,7.35,3.71
,-8.835,-0.756,-4.59,-8.78,0.498,-5.458,19.32,6.86,3.43
,-8.875,-0.538,-4.721,-8.638,0.22,-5.552,19.74,6.58,2.87
29455.0,-8.466,-0.323,-5.231,-8.732,-2.051,-4.255,14.49,3.57,0.14
,-8.413,-1.438,-4.803,-8.512,-1.749,-4.408,12.39,5.04,1.82
,-8.538,-2.134,-4.59,-8.631,-1.204,-4.867,13.65,5.95,2.94
,-8.916,-2.29,-4.216,-8.684,-0.615,-5.051,15.68,5.25,3.5
29531.0,-8.71,-0.148,-5.3,-8.435,-1.362,-4.774,13.51,1.47,5.25
,-8.78,-0.002,-5.501,-8.593,-1.488,-4.683,9.66,1.12,4.41
,-8.727,-0.347,-5.212,-8.887,-1.412,-4.58,6.44,1.54,4.2
,-8.509,-1.003,-4.867,-8.811,-1.168,-4.673,4.97,2.73,4.9
29607.0,-8.605,-0.675,-4.858,-9.016,-0.591,-4.932,10.57,4.41,6.93
,-8.514,-0.208,-5.224,-8.813,-0.9,-4.769,9.38,3.5,6.23
,-8.717,-0.089,-5.236,-8.382,-1.141,-4.805,6.51,2.87,4.83
,-8.933,-0.323,-5.051,-8.253,-1.22,-4.81,3.57,2.87,3.71
29683.0,-8.492,-0.562,-5.09,-8.976,-0.412,-5.183,3.85,3.36,1.96
,-8.756,0.237,-5.453,-8.634,-0.577,-5.001,3.15,2.03,0.21
,-8.942,0.27,-5.456,-8.478,-0.849,-4.92,0.0,1.68,-1.19
,-9.091,-0.153,-5.389,-8.492,-0.95,-5.14,-2.59,1.68,-2.31
29758.0,-8.691,-0.838,-5.406,-8.514,-0.811,-5.097,-5.32,0.35,-1.82
,-9.0,-0.842,-5.288,-8.638,-0.474,-5.176,-5.53,0.0,-1.12
,-8.923,-0.811,-5.274,-8.866,-0.438,-4.984,-6.51,-0.63,-0.42
,-8.662,-0.914,-5.226,-9.033,-0.424,-4.934,-7.0,-0.28,0.21
29834.0,-8.938,-0.325,-4.956,-8.878,-0.912,-4.75,-11.41,-3.22,0.77
,-8.473,-0.488,-5.006,-8.94,-0.651,-5.066,-13.51,-3.5,0.98
,-8.356,-0.653,-5.114,-8.897,-0.773,-4.874,-14.42,-2.52,1.05
,-8.641,-0.869,-4.889,-8.753,-0.895,-4.874,-14.49,-1.89,1.26
29909.0,-8.741,-1.103,-4.628,-8.983,-1.926,-4.506,-13.09,-2.45,2.24
,-8.603,-1.376,-4.848,-8.985,-1.56,-4.604,-14.21,-1.4,3.5
,-8.634,-2.094,-4.231,-8.447,-1.371,-4.872,-14.84,-0.14,5.81
,-8.794,-1.945,-4.709,-8.141,-1.218,-4.817,-12.25,0.77,8.4
29985.0,-8.301,-0.902,-4.625,-9.036,0.053,-4.568,-2.73,-0.84,12.25
,-8.715,-0.593,-4.604,-9.05,0.057,-4.436,-1.33,-1.05,12.32
,-9.076,-0.416,-4.487,-8.332,0.144,-4.953,-0.56,-0.98,12.11
,-9.191,-0.151,-4.439,-8.509,0.215,-4.838,1.75,-1.12,12.04
30061.0,-8.665,0.464,-4.92,-9.024,0.491,-4.185,2.8,-2.94,5.67
,-8.823,0.579,-4.554,-8.952,0.505,-4.147,3.64,-3.36,3.92
,-8.861,0.629,-4.427,-8.887,0.543,-4.259,2.94,-2.66,2.52
,-9.079,0.57,-4.41,-8.971,0.577,-4.63,1.4,-2.17,1.4
30137.0,-9.088,0.658,-4.992,-8.715,-0.701,-4.829,-0.63,-2.38,-4.41
,-8.914,0.345,-5.049,-8.851,-0.964,-4.506,-1.75,-2.87,-5.67
,-8.837,0.019,-5.083,-8.806,-1.101,-4.515,-2.73,-2.8,-6.79
,-8.744,-0.215,-4.98,-8.342,-1.12,-4.752,-3.29,-2.66,-7.35
30213.0,-8.296,-1.149,-4.795,-8.885,-0.979,-4.355,-5.39,-6.37,-3.71
,-8.49,-1.216,-4.594,-8.76,-0.742,-4.783,-4.76,-6.23,-3.29
,-8.787,-1.024,-4.714,-8.758,-0.706,-4.637,-3.85,-6.65,-3.36
,-8.722,-1.003,-5.377,-8.945,-0.653,-4.547,-3.5,-6.3,-2.24
30288.0,-9.05,-0.337,-4.558,-8.705,-0.567,-4.628,2.8,-5.6,-0.07
,-9.067,-0.251,-4.511,-8.677,-0.641,-4.465,3.64,-5.25,-0.14
,-8.973,-0.086,-4.602,-8.856,-0.713,-4.389,3.85,-5.18,-0.56
,-8.887,-0.426,-4.491,-8.885,-0.715,-4.343,2.03,-5.6,-0.91
30364.0,-8.804,-0.763,-4.319,-8.916,-0.72,-4.207,0.84,-7.0,-0.56
,-8.751,-0.821,-4.173,-8.916,-0.684,-4.147,0.63,-6.72,0.0
,-8.784,-0.775,-4.29,-8.897,-0.754,-3.91,1.61,-6.65,1.05
,-8.804,-0.782,-4.365,-9.174,-0.548,-3.965,3.01,-6.44,2.24
30440.0,-9.007,-0.148,-4.314,-9.174,0.031,-4.02,8.47,-6.51,2.66
,-8.818,0.065,-4.357,-8.923,0.093,-4.14,7.77,-6.23,3.08
,-8.215,-0.337,-4.604,-8.595,0.115,-4.374,4.34,-7.7,2.94
,-9.198,0.146,-4.231,-8.775,-0.093,-4.365,5.18,-6.72,2.31
30516.0,-9.103,-0.151,-4.228,-9.11,-0.014,-3.628,1.19,-7.91,-1.4
,-9.088,-0.144,-4.238,-8.909,-0.261,-3.841,1.12,-7.91,-2.17
,-9.076,-0.06,-3.936,-8.662,-0.579,-3.936,1.12,-7.14,-2.87
,-9.146,0.01,-3.735,-8.844,-0.835,-3.714,-0.07,-6.86,-4.27
30591.0,-9.012,-0.833,-3.644,-8.77,-0.481,-3.704,-3.57,-6.23,-4.27
,-9.311,-0.706,-3.283,-8.768,-0.62,-4.027,-2.17,-5.46,-4.76
,-9.351,-0.421,-3.214,-9.127,-0.73,-4.046,-1.54,-5.11,-5.04
,-8.99,-0.419,-3.508,-9.028,-0.514,-3.836,-2.52,-5.04,-4.62
30667.0,-9.067,-0.249,-3.637,-8.954,-0.096,-4.554,1.05,-2.66,-2.87
,-9.337,0.031,-3.192,-8.744,-0.706,-4.853,1.54,-2.45,-3.78
,-9.363,0.323,-3.79,-8.758,-1.106,-4.281,-0.21,-4.34,-5.11
,-9.136,0.225,-4.324,-9.067,-0.938,-3.9,-3.92,-5.53,-5.11
30742.0,-9.246,-0.383,-3.821,-8.945,-1.141,-3.85,6.3,-2.38,-4.97
,-9.435,0.074,-4.3,-9.194,-1.352,-3.206,5.81,-4.83,-5.18
,-9.162,0.026,-4.276,-9.162,-0.754,-3.343,1.75,-5.67,-4.83
,-9.016,-0.507,-4.269,-8.971,-0.261,-3.877,-1.82,-4.55,-4.55
30818.0,-8.844,-0.136,-4.556,-9.153,-0.565,-3.252,5.18,-5.53,-3.71
,-9.158,-0.632,-4.082,-9.22,-0.256,-3.924,2.87,-4.34,-3.22
,-9.182,-0.931,-3.757,-9.124,-0.273,-3.872,4.34,-2.52,-3.36
,-9.203,-0.859,-3.719,-9.086,-0.455,-3.982,7.91,-1.82,-3.92
30894.0,-9.021,-0.694,-3.802,-9.165,-0.531,-4.185,11.97,-0.21,-2.24
,-9.349,-0.665,-3.551,-8.947,-0.608,-4.518,14.98,0.49,-2.66
,-9.359,-0.534,-3.486,-8.66,-0.864,-4.216,15.47,-0.49,-3.36
,-9.222,-0.541,-3.601,-8.748,-1.292,-3.96,13.79,-1.12,-3.43
30970.0,-8.892,-1.697,-3.613,-9.275,-1.067,-3.254,8.68,-2.1,-3.5
,-9.014,-1.792,-3.223,-8.981,-0.995,-3.262,10.92,-1.61,-2.94
,-9.16,-1.61,-2.723,-9.15,-1.007,-3.3,13.58,-0.84,-1.47
,-9.354,-1.292,-3.003,-9.244,-1.048,-3.144,14.42,-1.33,-0.84
31046.0,-9.318,-0.955,-2.998,-9.019,0.0,-4.968,16.94,4.55,1.89
,-9.34,-0.787,-3.288,-8.72,-0.266,-5.25,18.41,5.04,2.17
,-9.349,-0.469,-3.582,-8.583,-1.005,-4.905,17.29,4.13,1.89
,-9.361,-0.101,-4.286,-8.66,-1.529,-4.403,16.17,2.73,1.12
31121.0,-8.981,-1.756,-3.709,-9.557,0.074,-3.446,13.51,2.24,0.91
,-9.265,-1.56,-2.721,-9.043,-0.081,-3.941,17.64,3.01,2.03
,-9.61,-1.046,-2.426,-8.705,-0.804,-4.054,20.09,3.22,2.87
,-9.866,-0.397,-2.962,-8.674,-1.393,-4.118,19.32,2.03,2.45
31197.0,-8.887,-1.402,-3.888,-9.663,-0.495,-2.781,11.34,0.84,0.49
,-9.074,-1.151,-3.443,-9.483,-0.129,-3.431,15.4,1.33,1.05
,-9.318,-0.988,-2.766,-9.057,-0.122,-3.886,16.03,2.03,1.54
,-9.493,-0.885,-2.477,-8.806,-0.603,-3.9,15.4,3.01,1.68
31273.0,-8.827,-1.194,-3.733,-9.476,-0.407,-3.68,-3.15,1.47,-2.45
,-9.019,-1.438,-3.391,-9.012,-0.627,-3.963,0.42,2.87,-1.75
,-9.294,-1.235,-3.204,-8.777,-1.015,-3.951,4.9,3.15,-1.26
,-9.576,-0.794,-3.247,-8.756,-1.376,-3.731,7.0,2.8,-1.33
31349.0,-8.961,-1.575,-3.218,-9.351,-0.646,-3.848,2.8,3.99,-1.26
,-9.287,-1.522,-2.965,-8.978,-0.737,-4.106,5.88,4.76,-0.63
,-9.471,-1.24,-2.876,-8.873,-0.988,-4.252,7.77,4.9,-0.14
,-9.536,-0.869,-3.302,-8.942,-1.244,-4.18,7.21,4.41,-0.21
31424.0,-9.081,-1.235,-4.073,-8.964,-0.761,-4.216,3.99,3.64,-0.56
,-9.261,-0.89,-4.113,-8.918,-0.969,-4.343,6.09,3.01,-0.63
,-9.201,-0.603,-4.02,-8.906,-1.204,-3.991,5.74,2.31,-0.84
,-9.143,-0.538,-4.264,-9.076,-1.393,-3.731,3.64,1.68,-1.33
31500.0,-9.165,-1.371,-3.506,-9.124,-1.106,-3.69,3.36,1.54,-1.05
,-9.213,-1.194,-3.142,-8.978,-1.29,-3.831,4.76,1.82,-0.56
,-9.313,-1.163,-3.228,-8.863,-1.35,-4.008,4.41,2.24,-0.35
,-9.27,-1.206,-3.393,-8.938,-1.376,-3.891,3.43,2.24,-0.21
31575.0,-9.043,-1.278,-3.776,-9.112,-0.591,-4.039,6.37,3.29,1.33
,-9.198,-1.146,-3.635,-8.921,-0.969,-3.987,7.56,3.29,1.61
,-9.263,-0.873,-3.659,-8.928,-1.4,-3.857,7.77,2.87,1.54
,-9.273,-0.639,-3.848,-8.909,-1.639,-3.606,6.44,2.52,1.19
31651.0,-9.055,-1.467,-3.381,-9.162,-0.905,-3.896,5.74,3.36,1.54
,-9.263,-1.173,-3.396,-8.964,-1.115,-3.963,7.63,3.43,1.75
,-9.39,-0.852,-3.46,-8.93,-1.261,-3.927,7.28,3.36,1.82
,-9.313,-0.725,-3.652,-9.045,-1.189,-3.984,5.11,3.15,1.68
31727.0,-9.093,-0.933,-3.951,-9.122,-1.027,-3.927,5.67,3.22,1.54
,-9.146,-0.826,-3.939,-9.002,-1.117,-3.896,5.18,3.08,1.47
,-9.105,-0.84,-3.841,-8.993,-1.153,-3.905,3.85,2.73,1.26
,-9.134,-0.936,-3.867,-9.079,-1.079,-3.829,2.73,2.52,0.98
31803.0,-9.105,-0.952,-3.85,-9.062,-0.952,-4.025,3.36,2.59,0.84
,-9.117,-0.981,-3.714,-9.012,-1.0,-4.008,2.8,2.73,0.91
,-9.095,-0.983,-3.738,-8.997,-1.067,-4.073,2.17,2.38,0.7
,-9.127,-0.945,-3.905,-8.961,-1.082,-3.987,1.75,2.24,0.56
31879.0,-9.002,-1.089,-3.862,-9.206,-0.993,-3.649,2.59,1.89,0.63
,-9.11,-1.074,-3.747,-9.179,-0.945,-3.893,2.87,2.24,0.77
,-9.182,-1.048,-3.565,-9.036,-0.969,-3.999,2.8,2.17,0.77
,-9.182,-0.979,-3.632,-8.949,-1.041,-4.042,2.38,2.03,0.56
31954.0,-8.976,-1.134,-4.085,-9.088,-1.086,-3.798,2.1,1.96,0.42
,-9.055,-1.077,-4.152,-9.105,-1.079,-3.805,3.29,1.61,0.42
,-9.088,-1.041,-3.951,-9.005,-1.086,-3.654,3.85,1.47,0.7
,-9.021,-1.034,-3.927,-9.095,-1.022,-3.637,3.92,1.54,0.77
32030.0,-9.198,-1.027,-3.62,-9.06,-1.024,-3.819,3.57,1.89,0.56
,-9.15,-1.048,-3.685,-9.062,-1.096,-3.79,3.22,2.03,0.56
,-9.091,-1.077,-3.683,-9.131,-0.981,-3.824,2.73,2.1,0.7
,-9.088,-1.074,-3.726,-9.143,-0.912,-3.97,3.01,2.1,0.77
32106.0,-9.117,-0.94,-3.984,-8.949,-1.144,-3.958,2.03,1.96,0.21
,-9.093,-1.022,-3.991,-9.045,-1.156,-3.853,1.47,1.75,0.0
,-8.995,-1.132,-4.094,-9.088,-1.098,-3.771,1.61,1.47,0.07
,-8.971,-1.074,-4.063,-9.081,-1.0,-3.64,2.1,1.54,0.21
32182.0,-9.15,-0.993,-3.752,-9.012,-1.101,-4.058,2.52,1.47,0.28
,-9.141,-0.983,-3.704,-9.028,-1.096,-4.066,1.96,1.61,0.21
,-9.143,-1.019,-3.896,-9.048,-1.07,-4.025,1.4,1.33,0.07
,-9.04,-1.07,-4.025,-9.002,-1.082,-3.972,1.4,1.12,0.0
32257.0,-9.074,-1.034,-3.908,-9.007,-1.082,-3.853,2.17,0.84,0.35
,-9.079,-1.039,-3.932,-9.04,-1.072,-3.812,2.03,0.91,0.21
,-9.091,-1.046,-3.903,-9.139,-1.127,-3.714,1.68,0.77,0.21
,-9.036,-1.062,-3.91,-9.141,-1.098,-3.802,1.4,0.7,0.28
32333.0,-9.119,-1.091,-3.802,-9.112,-1.106,-4.013,2.87,1.05,0.63
,-9.057,-1.05,-3.829,-9.031,-1.117,-3.922,2.45,1.05,0.49
,-9.076,-1.094,-3.922,-9.04,-1.117,-3.862,2.03,0.84,0.35
,-9.072,-1.06,-3.958,-9.074,-1.101,-3.831,2.03,0.98,0.42
32408.0,-9.069,-1.048,-3.735,-9.074,-1.034,-3.714,3.71,0.91,0.84
,-9.122,-0.998,-3.654,-9.048,-1.161,-3.687,3.64,1.12,0.7
,-9.153,-0.988,-3.711,-9.043,-1.225,-3.817,3.22,1.19,0.63
,-9.172,-0.998,-3.743,-9.134,-1.17,-3.762,2.52,1.05,0.42
32484.0,-9.134,-1.067,-3.723,-9.021,-1.161,-3.994,3.22,1.89,0.63
,-9.103,-0.919,-3.764,-9.043,-1.206,-4.022,2.8,2.1,0.63
,-9.112,-0.957,-3.888,-9.093,-1.177,-3.798,1.47,1.75,0.21
,-9.014,-1.062,-4.006,-9.115,-1.022,-3.9,0.77,1.47,0.07
32560.0,-9.139,-0.998,-3.92,-9.081,-1.146,-3.836,3.15,1.33,0.49
,-9.04,-1.027,-3.896,-9.091,-1.129,-3.716,2.59,1.4,0.56
,-9.016,-1.108,-3.924,-9.107,-1.108,-3.743,2.31,1.4,0.42
,-9.045,-1.144,-3.939,-9.191,-1.048,-3.676,2.73,1.33,0.49
32636.0,-9.086,-0.945,-3.723,-9.072,-1.096,-3.774,2.94,1.47,0.7
,-9.057,-1.084,-3.79,-9.136,-1.082,-3.831,2.1,1.47,0.49
,-9.072,-1.077,-3.807,-9.081,-1.031,-3.857,1.82,1.47,0.42
,-9.129,-1.125,-3.788,-9.095,-1.017,-3.946,1.89,1.61,0.49
32711.0,-9.031,-1.065,-3.879,-8.981,-1.299,-3.649,1.4,1.26,0.35
,-9.05,-1.17,-3.97,-9.091,-1.22,-3.745,1.68,1.33,0.42
,-9.028,-1.283,-3.912,-9.091,-1.041,-3.747,2.03,1.33,0.56
,-8.969,-1.328,-3.912,-9.129,-1.01,-3.702,2.66,1.26,0.77
32787.0,-9.076,-1.036,-3.776,-9.04,-1.077,-4.101,2.52,1.4,1.33
,-9.115,-1.053,-3.86,-9.098,-1.117,-4.082,2.31,1.4,1.19
,-9.1,-0.969,-3.972,-9.0,-1.137,-4.109,1.96,1.05,0.98
,-9.033,-1.053,-4.061,-9.028,-1.115,-4.006,1.33,0.91,0.91
32863.0,-9.11,-1.019,-4.03,-9.062,-1.333,-3.944,2.24,0.0,1.12
,-9.112,-0.993,-3.927,-9.062,-1.268,-3.762,1.96,-0.21,1.05
,-9.093,-1.062,-3.915,-9.124,-1.146,-3.85,1.47,-0.14,1.12
,-9.088,-1.22,-3.774,-9.095,-1.127,-3.673,0.77,0.07,1.26
32939.0,-9.093,-1.134,-3.553,-9.117,-1.003,-3.891,2.66,0.42,2.45
,-9.028,-1.122,-3.814,-9.105,-1.036,-3.939,2.31,0.42,2.45
,-9.079,-1.089,-3.836,-9.143,-1.06,-4.015,2.24,0.42,2.52
,-9.055,-1.098,-3.975,-9.115,-1.046,-3.948,2.1,0.35,2.52
33015.0,-9.079,-1.005,-4.006,-9.103,-1.058,-3.917,-0.7,-0.98,2.17
,-9.05,-1.019,-3.963,-9.095,-1.055,-3.867,-1.05,-1.26,2.03
,-9.069,-1.091,-3.96,-9.127,-1.048,-3.776,-1.61,-1.61,1.82
,-9.074,-1.149,-3.865,-9.127,-1.101,-3.738,-1.47,-1.89,1.96
33090.0,-9.103,-1.058,-3.656,-9.005,-1.039,-3.391,-2.94,-2.94,1.96
,-9.222,-1.022,-3.628,-9.17,-1.146,-3.362,-3.57,-3.43,1.54
,-9.16,-0.983,-3.652,-9.256,-1.254,-3.348,-4.55,-3.71,1.4
,-9.048,-0.962,-3.58,-9.189,-1.113,-3.3,-5.18,-3.64,1.68
33166.0,-9.141,-0.878,-3.484,-9.148,-1.077,-3.637,-3.92,-1.4,2.94
,-9.072,-0.9,-3.453,-9.076,-0.878,-3.733,-5.11,-1.05,2.94
,-9.079,-1.062,-3.415,-9.129,-0.833,-3.573,-6.02,-0.35,3.08
,-9.153,-1.139,-3.412,-9.261,-0.67,-3.788,-6.16,-0.21,3.15
33241.0,-9.153,-0.737,-3.776,-9.273,-0.885,-3.049,-10.15,-2.1,1.61
,-9.069,-0.814,-3.604,-9.237,-0.629,-3.343,-11.27,-2.59,1.89
,-9.119,-1.036,-3.417,-9.122,-0.534,-3.18,-11.83,-2.8,1.89
,-9.074,-1.055,-3.166,-8.961,-0.878,-3.13,-10.43,-1.96,2.24
33317.0,-9.251,-1.034,-2.919,-9.095,-0.866,-4.066,-11.97,0.14,2.45
,-9.261,-0.828,-3.455,-9.11,-1.383,-3.855,-10.64,-0.98,1.54
,-9.129,-0.486,-3.695,-9.11,-1.5,-3.508,-10.57,-1.75,1.54
,-9.033,-0.598,-3.766,-9.208,-1.01,-3.285,-13.09,-1.26,2.45
33393.0,-9.139,-0.409,-2.627,-9.713,-0.038,-2.419,5.88,5.81,5.95
,-9.222,-0.172,-2.615,-9.368,0.605,-3.295,4.2,6.02,5.53
,-9.435,-0.33,-2.23,-9.026,1.103,-4.3,0.98,7.77,5.95
,-9.775,-0.397,-2.142,-8.897,0.811,-4.853,-0.49,8.96,5.74
33469.0,-8.856,-0.084,-4.759,-9.043,-1.795,-3.431,-21.56,5.18,-1.4
,-8.856,-1.027,-4.532,-9.299,-1.498,-2.946,-22.26,6.86,-1.89
,-8.61,-1.721,-3.944,-9.344,-1.335,-2.931,-17.01,9.24,-2.1
,-8.792,-1.969,-3.654,-9.383,-1.132,-2.615,-8.61,10.5,-2.1
33544.0,-9.442,-0.876,-3.118,-8.768,-1.29,-4.616,5.46,10.78,3.85
,-9.014,-0.771,-3.862,-9.045,-1.134,-4.226,3.01,8.82,3.36
,-8.705,-1.019,-4.594,-9.194,-0.744,-3.613,-1.4,8.12,3.78
,-8.598,-1.311,-4.654,-9.222,-0.325,-3.659,-3.5,7.77,4.55
33620.0,-9.191,-0.084,-3.872,-8.677,-0.148,-4.113,4.9,9.1,4.27
,-9.258,-0.036,-4.085,-8.689,-0.096,-3.908,2.59,8.68,4.9
,-9.112,-0.199,-4.293,-9.148,-0.208,-3.85,0.63,8.75,5.32
,-8.918,-0.357,-4.032,-9.337,-0.493,-3.886,0.91,10.71,5.18
33696.0,-9.378,-0.672,-3.869,-8.756,-0.821,-4.149,1.89,9.94,2.38
,-9.287,-0.852,-3.977,-8.878,-0.888,-4.267,2.38,11.06,3.01
,-9.083,-0.83,-3.86,-9.024,-0.84,-4.228,4.2,12.04,3.22
,-8.93,-0.732,-3.999,-8.859,-0.313,-4.503,6.37,11.62,3.22
33772.0,-8.744,0.208,-4.893,-9.024,-0.988,-4.649,10.99,10.85,3.57
,-8.942,0.218,-4.953,-8.957,-0.888,-4.575,8.75,8.82,2.66
,-9.127,-0.246,-4.944,-8.897,-0.665,-4.441,4.2,7.14,2.17
,-9.04,-0.778,-4.807,-8.978,-0.5,-4.46,1.19,6.72,2.38
33848.0,-9.005,-0.457,-4.329,-8.976,0.163,-4.568,4.48,6.51,1.68
,-8.746,-0.632,-4.288,-9.04,0.443,-4.63,2.59,7.28,2.66
,-8.653,-0.704,-4.255,-9.033,0.287,-4.59,2.1,8.4,2.94
,-8.882,-0.349,-4.295,-8.844,-0.373,-4.441,3.78,8.05,2.1
33923.0,-8.887,-1.024,-4.073,-8.619,-1.012,-4.503,-3.5,5.11,-1.61
,-8.933,-1.366,-3.991,-8.61,-1.012,-4.365,-2.03,5.53,-0.91
,-8.921,-1.575,-3.941,-8.574,-0.9,-4.283,1.05,5.88,0.14
,-8.954,-1.261,-4.078,-8.67,-0.723,-4.149,4.48,4.97,1.12
33999.0,-8.902,-0.297,-4.247,-8.832,-0.869,-4.128,6.86,6.23,3.36
,-8.871,-0.175,-4.393,-8.93,-0.694,-4.02,5.6,5.32,3.01
,-8.94,-0.541,-4.367,-9.177,-0.268,-4.049,3.15,5.74,3.08
,-8.844,-0.847,-4.252,-9.225,0.089,-4.365,2.73,7.21,3.43
34074.0,-9.313,0.22,-4.463,-8.658,-0.802,-4.372,8.61,5.74,2.1
,-8.988,0.024,-4.535,-8.861,-0.55,-4.18,4.83,5.81,2.38
,-8.603,-0.498,-4.539,-9.048,-0.431,-4.032,1.89,6.51,2.03
,-8.638,-0.909,-4.408,-9.033,-0.335,-4.125,1.68,6.93,0.77
34150.0,-9.201,-0.23,-4.178,-8.892,0.4,-4.726,9.38,8.54,0.21
,-9.06,-0.124,-4.465,-8.911,0.392,-4.441,9.8,7.63,0.0
,-8.835,0.122,-4.776,-8.923,0.148,-4.527,10.29,6.86,-1.33
,-8.902,0.203,-4.681,-8.894,-0.132,-4.69,9.87,7.07,-2.73
34226.0,-8.818,-0.292,-4.937,-8.65,-1.89,-4.484,8.96,5.39,-7.0
,-8.696,-0.699,-4.805,-8.71,-2.01,-4.788,8.54,4.62,-7.21
,-8.516,-1.218,-4.676,-8.581,-2.091,-4.748,8.26,5.11,-7.07
,-8.547,-1.63,-4.482,-8.658,-2.501,-4.628,9.38,5.67,-6.16
34302.0,-8.603,-2.781,-4.556,-8.404,-1.795,-5.063,15.61,7.49,3.01
,-8.662,-2.783,-4.752,-8.739,-1.271,-4.953,17.92,7.21,5.74
,-8.521,-2.517,-4.91,-8.983,-0.553,-4.886,20.09,6.16,8.26
,-8.387,-2.123,-4.989,-8.983,0.151,-4.949,21.91,5.18,9.66
34377.0,-8.885,0.438,-4.98,-8.868,0.632,-4.793,22.26,3.57,7.21
,-8.686,0.531,-4.896,-8.823,0.404,-4.771,19.39,4.27,6.37
,-8.808,0.581,-4.774,-8.77,0.175,-4.891,16.87,4.27,5.67
,-8.894,0.629,-4.884,-8.734,-0.402,-4.803,15.26,3.22,4.48
34453.0,-8.629,-0.517,-4.917,-8.703,-1.579,-4.671,9.8,3.01,-1.05
,-8.55,-1.031,-4.889,-8.631,-1.771,-4.903,9.59,3.36,-0.21
,-8.76,-1.144,-4.788,-8.866,-1.45,-4.726,10.15,2.73,-0.07
,-8.713,-1.251,-4.929,-8.751,-1.515,-4.867,9.31,2.1,-0.28
34529.0,-8.509,-1.17,-4.819,-8.957,-0.727,-5.023,5.46,1.33,0.91
,-8.382,-0.936,-4.956,-9.069,-0.787,-4.97,5.11,1.75,1.19
,-8.681,-0.785,-4.865,-8.89,-0.79,-5.135,4.2,2.24,1.47
,-8.952,-0.648,-4.951,-8.586,-0.806,-5.262,3.36,1.82,1.33
34605.0,-8.555,-0.802,-5.252,-8.823,-0.962,-5.128,3.92,2.17,0.35
,-8.851,-0.593,-5.293,-8.66,-1.362,-4.951,3.15,2.03,-0.35
,-8.89,-0.546,-5.339,-8.55,-1.776,-4.834,1.54,1.61,-0.77
,-8.787,-0.61,-5.252,-8.629,-1.84,-4.925,0.07,1.12,-0.7
34681.0,-8.619,-1.589,-4.798,-9.198,-0.972,-4.759,-1.4,0.77,2.24
,-8.289,-1.522,-4.826,-8.705,-0.622,-4.879,-0.98,1.19,3.01
,-8.471,-1.144,-4.915,-8.634,-0.357,-4.884,-0.56,1.33,3.71
,-9.081,-1.017,-4.879,-8.823,0.127,-5.054,-2.38,0.7,4.41
34756.0,-9.007,0.66,-5.142,-8.701,-0.294,-5.15,-4.9,-1.19,2.52
,-9.072,0.682,-5.049,-8.892,-0.794,-4.764,-7.0,-1.4,1.4
,-8.99,0.522,-4.963,-9.036,-0.814,-5.063,-9.59,-1.61,0.35
,-8.861,0.182,-5.049,-8.938,-1.012,-5.099,-12.18,-1.26,0.21
34832.0,-8.823,-1.192,-4.8,-8.729,-1.943,-4.645,-11.62,-2.52,0.56
,-8.586,-1.316,-4.805,-8.751,-1.948,-4.69,-11.27,-2.59,1.19
,-8.617,-1.417,-4.805,-8.686,-1.594,-4.803,-12.25,-2.73,2.03
,-8.6,-1.792,-4.75,-8.746,-0.893,-5.162,-13.65,-3.43,2.73
34907.0,-8.784,-1.01,-4.618,-9.098,-0.593,-4.614,-8.12,-5.74,6.72
,-8.696,-0.876,-4.508,-8.966,-0.603,-4.731,-7.91,-6.02,6.65
,-8.622,-0.782,-4.489,-8.94,-0.505,-4.738,-8.05,-5.32,7.14
,-8.796,-0.749,-4.602,-8.875,-0.445,-4.657,-6.86,-4.9,7.56
34983.0,-8.741,-0.457,-4.759,-8.952,-0.12,-4.666,-0.07,-6.3,5.81
,-8.72,-0.517,-4.812,-8.899,-0.17,-4.58,0.14,-6.44,5.46
,-8.851,-0.436,-4.635,-8.949,-0.136,-4.661,0.84,-6.02,5.11
,-9.1,-0.23,-4.642,-8.626,-0.246,-4.623,1.75,-7.0,4.69
35059.0,-8.531,-0.395,-4.518,-9.036,-0.115,-3.896,-1.05,-8.61,3.08
,-8.844,-0.558,-4.14,-9.014,0.175,-4.011,-0.56,-9.17,3.08
,-8.945,-0.44,-4.166,-8.887,0.359,-3.896,0.42,-9.59,2.45
,-8.928,-0.385,-3.953,-8.842,0.16,-3.63,2.1,-8.96,1.75
35135.0,-9.206,-0.041,-3.441,-8.914,-0.364,-3.826,-4.55,-7.28,-0.49
,-9.222,-1.127,-3.075,-9.074,-0.156,-3.707,-5.74,-8.54,-1.47
,-9.033,-0.227,-4.061,-9.167,-0.05,-3.75,-3.29,-8.12,-1.68
,-8.696,-0.385,-3.867,-9.165,-0.062,-3.862,-1.4,-7.35,-2.31
35210.0,-8.878,-0.227,-4.025,-8.914,-0.591,-3.896,-3.36,-5.32,-3.5
,-8.717,-0.572,-3.991,-8.981,-0.627,-3.8,-4.9,-4.41,-3.78
,-8.928,-0.814,-3.805,-8.899,-0.749,-4.034,-4.62,-4.2,-4.69
,-9.024,-0.72,-3.881,-9.009,-0.931,-4.008,-2.24,-4.13,-5.18
35286.0,-9.06,-1.012,-4.176,-8.993,-0.445,-4.267,0.84,-1.19,-2.1
,-9.141,-0.873,-4.085,-9.016,-0.505,-4.183,3.15,-0.56,-1.33
,-9.081,-0.735,-4.027,-9.146,-0.546,-4.089,5.11,-0.21,-0.77
,-8.988,-0.486,-4.178,-9.217,-0.572,-4.137,5.81,-0.07,-0.56
35362.0,-9.086,-0.514,-4.314,-9.244,-0.859,-4.142,3.22,-1.82,-2.52
,-8.693,-0.512,-4.432,-9.349,-0.897,-4.106,4.34,-1.12,-1.96
,-8.686,-0.608,-4.267,-9.184,-0.926,-4.154,5.18,-0.56,-1.12
,-8.871,-0.747,-4.386,-9.067,-0.706,-4.154,5.67,-1.33,-1.26
35438.0,-8.837,-0.474,-4.075,-8.794,-0.577,-4.178,8.19,-0.14,-0.7
,-8.851,-0.383,-4.111,-8.892,-0.514,-3.955,7.98,0.14,-0.49
,-9.112,-0.632,-4.082,-9.069,-0.366,-3.812,5.88,-1.12,-0.56
,-8.921,-0.593,-4.204,-9.189,-0.256,-3.592,5.32,-2.03,-0.63
35513.0,-9.222,-0.237,-3.565,-8.952,-0.809,-3.757,2.73,-2.66,-3.22
,-9.217,-0.395,-3.498,-8.787,-0.878,-3.994,1.12,-1.96,-3.29
,-9.241,-0.4,-3.649,-8.832,-0.912,-3.781,0.14,-1.68,-3.57
,-9.024,-0.565,-3.877,-8.971,-0.651,-4.02,-1.61,-1.26,-3.71
35589.0,-8.94,-0.493,-4.19,-8.938,-0.979,-3.733,1.82,-1.19,-3.36
,-8.973,-0.242,-4.099,-8.918,-0.976,-3.79,1.61,-1.4,-3.36
,-9.225,-0.565,-3.951,-9.217,-0.78,-3.558,-1.12,-1.4,-3.78
,-9.139,-0.806,-4.092,-9.375,-0.522,-3.951,-2.94,-2.03,-4.55
35665.0,-9.103,-0.445,-4.111,-9.284,-0.933,-3.585,-0.49,-2.94,-3.99
,-8.933,-0.581,-3.884,-9.459,-0.668,-3.872,-3.01,-1.89,-3.5
,-8.902,-0.885,-3.743,-9.359,-0.536,-3.908,-3.85,-0.77,-3.71
,-8.856,-1.086,-3.321,-8.777,-0.562,-4.25,-1.82,0.7,-3.78
35740.0,-8.598,-0.883,-3.996,-9.328,-0.648,-3.721,-0.14,-3.01,-2.8
,-8.837,-0.778,-3.819,-8.873,-0.766,-3.848,2.52,-2.8,-3.08
,-9.033,-0.481,-3.994,-8.691,-0.869,-3.585,3.85,-3.5,-3.43
,-9.17,-0.488,-3.81,-8.918,-0.995,-3.314,2.45,-3.71,-3.5
35816.0,-9.15,-0.823,-3.515,-9.129,-1.108,-3.506,5.25,-2.38,-2.73
,-9.194,-0.677,-3.518,-9.143,-1.043,-3.348,5.67,-2.03,-2.38
,-9.213,-0.696,-3.582,-9.335,-0.995,-3.135,4.83,-1.4,-1.75
,-9.186,-0.95,-3.64,-9.421,-0.73,-3.288,4.13,-0.98,-1.89
35892.0,-9.328,-0.232,-3.927,-8.739,-1.144,-4.164,10.01,1.33,-0.7
,-9.036,-0.299,-3.754,-8.873,-1.232,-4.171,6.79,1.75,-0.98
,-9.064,-0.428,-4.348,-9.127,-1.108,-3.79,4.2,1.61,-1.61
,-8.871,-0.849,-4.396,-9.349,-0.814,-3.642,3.43,1.26,-1.96
35968.0,-9.335,-0.548,-3.987,-9.167,-1.402,-3.24,9.31,-0.56,-0.63
,-9.115,-0.644,-3.979,-9.239,-1.115,-3.295,6.65,-1.12,-0.91
,-9.002,-0.902,-3.821,-9.256,-0.751,-3.565,4.62,-0.63,-0.98
,-9.045,-1.299,-3.637,-9.217,-0.73,-3.628,4.41,0.07,-0.98
36043.0,-9.052,-0.811,-3.745,-9.074,-0.921,-3.989,4.2,0.7,-0.07
,-9.024,-1.015,-3.891,-9.05,-1.163,-3.719,3.85,1.26,0.28
,-9.076,-1.072,-3.908,-9.179,-1.106,-3.656,4.97,1.4,0.35
,-9.064,-0.948,-3.987,-9.222,-0.926,-3.577,6.58,1.54,0.56
36119.0,-9.139,-0.756,-3.609,-9.095,-0.861,-3.539,10.22,2.1,1.26
,-9.088,-0.699,-3.522,-9.112,-1.055,-3.333,8.54,2.03,0.84
,-9.072,-0.785,-3.489,-9.198,-1.168,-3.142,6.58,2.17,0.35
,-9.136,-0.806,-3.623,-9.363,-1.082,-3.187,5.46,2.24,-0.21
36195.0,-9.356,-0.711,-3.453,-8.808,-1.189,-4.29,7.28,4.83,0.56
,-9.165,-0.629,-3.714,-8.868,-1.385,-3.958,5.46,4.83,0.42
,-9.043,-0.821,-4.073,-9.141,-1.385,-3.661,3.71,4.9,0.42
,-8.849,-0.983,-4.302,-9.586,-0.835,-3.754,3.57,4.9,0.56
36271.0,-9.497,-0.235,-4.133,-8.926,-1.295,-3.955,11.34,4.34,1.33
,-8.952,-0.268,-4.348,-9.198,-0.952,-3.745,5.67,3.15,0.49
,-8.72,-0.873,-4.405,-9.383,-0.727,-3.716,1.54,3.08,0.28
,-8.76,-1.314,-4.2,-9.316,-0.747,-3.644,1.75,3.22,0.35
36346.0,-9.002,-0.895,-3.714,-9.282,-1.232,-3.551,1.4,0.91,-0.56
,-8.906,-1.048,-3.745,-9.34,-0.864,-3.8,0.7,1.26,-0.7
,-8.909,-1.244,-3.51,-9.179,-0.648,-4.121,0.56,2.24,-0.49
,-9.064,-1.328,-3.467,-9.002,-0.751,-4.393,1.19,3.01,-0.21
36422.0,-8.806,-0.998,-4.53,-9.275,-1.189,-3.52,0.21,2.03,-0.14
,-8.796,-1.242,-4.338,-9.354,-0.905,-3.793,1.26,2.31,0.21
,-8.897,-1.33,-4.001,-9.16,-0.766,-3.915,3.29,2.52,0.56
,-9.11,-1.271,-3.726,-8.863,-0.782,-3.908,5.32,2.87,1.05
36497.0,-8.818,-1.05,-3.881,-9.268,-0.806,-3.752,0.35,1.96,0.56
,-9.036,-1.28,-3.766,-9.158,-0.648,-4.063,1.68,2.17,0.63
,-9.115,-1.232,-3.63,-8.99,-0.737,-4.298,3.71,2.52,1.19
,-9.227,-1.017,-3.551,-8.894,-0.926,-4.566,5.46,2.87,1.54
36573.0,-8.849,-1.082,-4.683,-9.229,-0.995,-3.479,1.26,1.47,0.35
,-8.859,-1.177,-4.496,-9.308,-0.687,-3.508,2.8,1.54,0.7
,-9.007,-1.261,-4.145,-9.182,-0.615,-3.46,4.69,1.82,1.26
,-9.083,-1.244,-3.766,-9.119,-0.897,-3.582,7.0,1.89,1.68
36649.0,-9.04,-1.206,-3.644,-9.22,-0.838,-3.97,-0.49,1.82,0.56
,-9.026,-1.338,-3.721,-9.153,-0.689,-4.14,0.56,1.96,0.63
,-8.945,-1.208,-3.786,-8.916,-0.727,-4.286,2.38,2.1,1.12
,-9.06,-1.031,-3.685,-8.854,-1.019,-4.446,3.92,2.66,1.47
36725.0,-8.904,-1.278,-4.365,-9.143,-0.919,-3.8,0.56,0.98,0.63
,-9.036,-1.268,-4.259,-9.122,-0.861,-3.757,2.45,0.7,0.84
,-9.091,-1.22,-4.111,-9.074,-0.799,-3.709,4.06,0.7,1.19
,-9.11,-1.029,-3.922,-9.038,-0.983,-3.673,5.04,0.7,1.54
36801.0,-9.093,-1.113,-3.721,-8.997,-0.981,-3.963,1.75,0.42,1.05
,-9.15,-1.065,-3.771,-8.997,-1.0,-3.936,3.29,0.49,1.19
,-9.119,-0.909,-3.884,-9.069,-0.972,-3.898,3.64,0.7,1.12
,-9.028,-0.885,-3.898,-9.098,-1.027,-3.819,3.01,0.77,1.19
36876.0,-9.062,-1.098,-3.671,-9.081,-0.924,-3.999,2.38,1.47,1.4
,-9.129,-0.991,-3.769,-9.043,-0.983,-4.003,3.36,1.47,1.47
,-9.165,-0.768,-3.944,-9.064,-0.952,-3.932,3.43,1.26,1.33
,-9.086,-0.766,-3.996,-9.115,-0.916,-3.884,2.24,1.05,1.05
36952.0,-9.081,-1.043,-3.757,-9.031,-0.782,-3.915,1.82,0.7,0.84
,-9.055,-1.106,-3.609,-8.959,-1.086,-3.865,2.03,0.98,0.91
,-9.134,-0.96,-3.728,-8.959,-1.242,-3.817,3.08,1.12,0.91
,-9.182,-0.747,-3.833,-9.203,-1.132,-3.788,2.73,0.91,0.63
37028.0,-9.237,-0.761,-3.841,-9.05,-1.06,-4.109,2.8,0.77,0.49
,-9.081,-0.613,-3.893,-8.966,-1.11,-4.092,0.84,0.28,0.21
,-9.033,-0.797,-3.917,-8.993,-1.067,-3.984,-0.91,0.35,0.0
,-9.083,-0.948,-4.044,-9.246,-1.043,-3.958,-0.91,0.42,-0.21
37104.0,-9.136,-0.916,-3.865,-9.091,-0.866,-3.903,2.59,0.14,0.28
,-9.076,-0.89,-3.807,-9.005,-0.945,-3.955,1.96,0.35,0.35
,-9.117,-0.952,-3.788,-8.952,-1.113,-3.91,1.61,0.77,0.28
,-9.15,-0.979,-3.85,-9.124,-1.184,-3.821,1.68,0.7,0.07
37179.0,-9.052,-1.017,-3.687,-9.189,-0.936,-3.58,3.57,0.56,0.7
,-9.1,-1.01,-3.527,-9.165,-0.928,-3.795,2.94,0.63,0.84
,-9.119,-1.005,-3.52,-9.086,-0.943,-3.922,2.52,1.19,0.77
,-9.167,-0.94,-3.486,-9.005,-1.031,-4.075,2.59,1.26,0.77
37255.0,-9.036,-1.005,-4.216,-9.052,-1.117,-3.764,2.87,1.89,0.84
,-9.079,-0.955,-4.2,-9.122,-1.144,-3.668,3.15,1.12,0.56
,-8.961,-0.849,-4.073,-9.208,-1.067,-3.654,2.59,0.63,0.49
,-8.997,-0.95,-3.946,-9.17,-0.893,-3.589,1.82,0.56,0.35
37330.0,-9.105,-0.854,-3.62,-9.105,-0.933,-3.977,3.15,2.1,1.05
,-9.124,-0.943,-3.637,-8.976,-1.098,-3.944,2.59,2.38,0.98
,-9.105,-0.931,-3.723,-8.933,-1.161,-3.905,2.66,2.59,0.91
,-9.122,-0.885,-3.903,-9.1,-1.041,-4.03,2.17,2.45,0.7
37406.0,-9.122,-0.94,-4.034,-8.997,-0.785,-3.977,4.69,2.59,1.26
,-9.079,-0.895,-4.058,-8.981,-0.981,-3.85,4.27,2.59,1.26
,-9.081,-1.043,-4.073,-9.203,-1.125,-3.8,4.13,2.45,1.26
,-9.103,-0.905,-3.991,-9.203,-0.924,-3.771,4.27,2.03,1.19
37482.0,-9.105,-0.804,-3.836,-9.129,-1.091,-3.819,3.29,1.47,0.7
,-9.021,-0.995,-3.898,-9.112,-0.981,-3.879,2.24,1.54,0.7
,-9.014,-1.079,-3.888,-9.16,-0.869,-3.987,2.17,1.68,0.63
,-9.026,-1.127,-3.848,-9.048,-0.893,-4.037,2.66,1.54,0.77
37558.0,-8.969,-0.979,-4.039,-9.1,-0.835,-3.867,2.45,1.47,0.91
,-8.976,-1.072,-4.022,-9.093,-0.89,-3.869,2.94,1.75,0.98
,-9.098,-1.082,-4.015,-9.086,-0.907,-3.821,4.27,1.61,0.98
,-9.098,-0.916,-3.917,-9.009,-1.024,-3.879,4.83,1.05,0.91
37634.0,-9.028,-1.086,-3.869,-9.115,-0.802,-3.821,1.68,0.07,0.35
,-8.997,-1.254,-3.728,-9.098,-0.797,-3.924,2.45,0.7,0.7
,-9.124,-1.041,-3.728,-9.031,-0.849,-4.092,3.85,0.98,0.91
,-9.117,-0.979,-3.491,-8.988,-1.043,-4.152,3.85,1.12,0.98
37709.0,-8.971,-1.158,-3.948,-9.048,-0.94,-3.604,1.19,0.77,0.49
,-9.107,-1.082,-3.891,-9.105,-1.017,-3.707,2.38,0.49,0.7
,-9.165,-0.928,-3.977,-9.189,-1.043,-3.661,2.73,0.07,0.63
,-9.107,-0.948,-3.656,-9.091,-1.053,-3.759,2.1,0.14,0.7
37785.0,-9.052,-1.079,-3.8,-9.007,-1.012,-4.154,0.28,0.14,0.7
,-9.129,-1.074,-3.996,-9.067,-1.091,-4.087,0.91,0.35,0.77
,-9.105,-0.936,-4.087,-9.048,-1.034,-3.946,1.54,0.28,0.98
,-8.978,-0.976,-4.164,-9.072,-0.986,-3.812,1.68,0.28,1.19
37861.0,-9.131,-0.926,-3.833,-9.019,-1.106,-3.707,2.38,-0.21,1.54
,-9.158,-0.818,-3.891,-9.05,-1.06,-3.652,1.47,-0.49,1.47
,-9.043,-0.835,-3.857,-9.172,-1.015,-3.585,0.42,-0.42,1.61
,-8.985,-0.792,-4.001,-9.155,-0.95,-3.553,0.14,-0.42,1.61
37937.0,-9.148,-0.864,-3.599,-8.926,-0.993,-3.982,2.59,1.4,2.8
