Timestamp,AccX,AccY,AccZ,GyroX,GyroY,GyroZ,MagnX,MagnY,MagnZ
0.0,-9.222,-0.751,-3.63,-9.258,-0.651,-3.532,1.89,1.33,0.77
,-9.201,-0.756,-3.62,-9.277,-0.577,-3.539,2.31,1.47,0.84
,-9.21,-0.723,-3.625,-9.179,-0.627,-3.623,3.01,1.54,0.98
,-9.246,-0.656,-3.551,-9.217,-0.677,-3.711,3.22,1.75,0.91
75.0,-9.225,-0.785,-3.702,-9.253,-0.605,-3.477,1.89,1.47,0.7
,-9.198,-0.761,-3.802,-9.244,-0.646,-3.451,3.08,1.33,0.7
,-9.208,-0.648,-3.661,-9.234,-0.687,-3.479,3.43,1.61,0.77
,-9.215,-0.634,-3.527,-9.234,-0.68,-3.534,3.08,1.61,0.84
150.0,-9.22,-0.656,-3.606,-9.232,-0.694,-3.613,2.03,1.75,0.77
,-9.217,-0.682,-3.69,-9.206,-0.684,-3.644,2.31,1.82,0.7
,-9.229,-0.648,-3.678,-9.22,-0.701,-3.618,2.31,1.75,0.7
,-9.217,-0.639,-3.687,-9.208,-0.689,-3.606,2.38,1.61,0.7
226.0,-9.198,-0.732,-3.553,-9.244,-0.665,-3.585,2.8,1.47,0.77
,-9.191,-0.68,-3.527,-9.172,-0.742,-3.647,3.08,1.4,0.63
,-9.277,-0.634,-3.518,-9.225,-0.775,-3.685,2.94,1.47,0.7
,-9.196,-0.584,-3.573,-9.186,-0.706,-3.582,2.31,1.61,0.63
302.0,-9.198,-0.723,-3.506,-9.191,-0.605,-3.721,3.15,1.89,0.84
,-9.277,-0.648,-3.446,-9.162,-0.704,-3.781,3.01,1.82,0.77
,-9.261,-0.644,-3.508,-9.261,-0.766,-3.762,2.52,1.68,0.7
,-9.265,-0.632,-3.563,-9.229,-0.744,-3.759,1.89,1.61,0.56
378.0,-9.22,-0.687,-3.637,-9.261,-0.735,-3.419,3.64,1.05,0.91
,-9.22,-0.641,-3.606,-9.232,-0.72,-3.455,3.64,1.26,0.91
,-9.21,-0.672,-3.506,-9.225,-0.677,-3.611,3.29,1.26,0.91
,-9.263,-0.67,-3.427,-9.232,-0.639,-3.683,3.08,1.33,0.98
453.0,-9.186,-0.704,-3.731,-9.246,-0.684,-3.601,2.24,1.4,0.77
,-9.182,-0.742,-3.726,-9.244,-0.629,-3.587,2.38,1.4,0.84
,-9.167,-0.704,-3.692,-9.206,-0.658,-3.577,2.66,1.26,0.84
,-9.198,-0.699,-3.652,-9.237,-0.687,-3.57,2.8,1.19,0.77
529.0,-9.208,-0.725,-3.558,-9.222,-0.713,-3.503,3.08,1.19,0.7
,-9.249,-0.701,-3.546,-9.217,-0.708,-3.463,3.29,1.26,0.77
,-9.241,-0.656,-3.563,-9.198,-0.68,-3.477,3.08,1.26,0.77
,-9.249,-0.689,-3.546,-9.215,-0.682,-3.57,2.8,1.12,0.63
605.0,-9.282,-0.651,-3.604,-9.174,-0.73,-3.649,2.8,1.75,0.91
,-9.206,-0.682,-3.649,-9.227,-0.641,-3.565,2.24,1.61,0.77
,-9.174,-0.759,-3.644,-9.261,-0.61,-3.577,2.31,1.54,0.77
,-9.232,-0.711,-3.664,-9.227,-0.56,-3.582,2.73,1.68,0.91
681.0,-9.241,-0.57,-3.671,-9.232,-0.727,-3.601,2.31,1.26,0.63
,-9.227,-0.629,-3.687,-9.268,-0.694,-3.518,2.03,1.05,0.56
,-9.22,-0.708,-3.68,-9.241,-0.653,-3.506,2.1,0.98,0.63
,-9.165,-0.782,-3.659,-9.225,-0.665,-3.585,2.73,1.26,0.7
757.0,-9.198,-0.725,-3.527,-9.232,-0.668,-3.525,1.68,1.19,0.42
,-9.229,-0.708,-3.573,-9.208,-0.68,-3.587,2.24,1.33,0.63
,-9.273,-0.713,-3.585,-9.225,-0.68,-3.63,2.73,1.47,0.7
,-9.253,-0.68,-3.553,-9.225,-0.73,-3.671,2.94,1.47,0.63
832.0,-9.229,-0.799,-3.661,-9.225,-0.706,-3.494,2.31,1.26,0.7
,-9.184,-0.706,-3.644,-9.22,-0.66,-3.527,2.94,1.26,0.7
,-9.241,-0.692,-3.649,-9.237,-0.775,-3.47,3.22,1.26,0.77
,-9.21,-0.656,-3.64,-9.273,-0.718,-3.575,3.15,1.19,0.7
908.0,-9.239,-0.68,-3.501,-9.241,-0.704,-3.573,2.38,1.19,0.63
,-9.22,-0.742,-3.577,-9.201,-0.723,-3.632,2.31,1.33,0.77
,-9.22,-0.696,-3.592,-9.215,-0.759,-3.592,2.66,1.4,0.91
,-9.191,-0.668,-3.606,-9.21,-0.699,-3.606,2.94,1.26,0.77
983.0,-9.184,-0.675,-3.585,-9.239,-0.692,-3.656,3.36,0.98,0.91
,-9.225,-0.699,-3.652,-9.225,-0.718,-3.577,3.08,1.05,1.05
,-9.215,-0.704,-3.561,-9.21,-0.689,-3.652,2.87,0.84,0.91
,-9.265,-0.701,-3.64,-9.244,-0.581,-3.654,2.87,1.05,0.91
1059.0,-9.22,-0.605,-3.855,-9.237,-0.653,-3.589,1.33,-0.21,0.7
,-9.378,-1.027,-4.329,-9.167,-0.598,-3.446,1.12,-0.63,0.84
,-9.083,-1.019,-3.821,-9.268,-0.534,-3.565,2.52,-0.77,0.98
,-9.261,-0.802,-3.963,-9.115,-0.424,-3.762,4.97,-0.91,1.05
1135.0,-9.237,-0.964,-3.532,-9.189,-0.763,-3.338,0.98,-2.87,0.98
,-9.22,-0.933,-3.506,-9.148,-0.768,-3.18,2.03,-3.08,0.98
,-9.261,-0.625,-3.912,-9.184,-0.78,-3.084,3.71,-3.5,0.98
,-9.232,-0.727,-3.575,-9.28,-0.701,-3.022,3.36,-3.57,1.19
1211.0,-9.289,-0.687,-2.917,-9.529,-0.845,-0.584,0.42,-1.89,1.26
,-9.289,-0.835,-2.525,-9.854,0.074,-1.56,-0.63,-0.7,1.26
,-9.268,-1.039,-1.957,-9.529,0.043,-1.938,-1.26,0.84,1.61
,-9.289,-1.218,-1.201,-9.447,-0.531,-2.19,-0.84,3.64,2.73
1286.0,-8.897,-0.811,-2.132,-9.064,-0.376,-0.309,-24.57,11.62,0.84
,-8.66,-0.627,-1.85,-9.227,-0.251,-0.072,-24.15,13.44,0.7
,-8.717,-0.421,-1.371,-9.308,-0.151,-0.026,-26.53,16.45,0.98
,-8.868,-0.536,-0.835,-9.153,-0.026,-0.436,-29.33,20.3,1.54
1362.0,-8.909,-0.428,-0.615,-7.889,-0.175,-2.443,-34.86,42.07,3.01
,-9.421,-0.56,-0.818,-7.253,-0.45,-2.197,-31.5,45.92,3.71
,-9.495,-0.055,-1.464,-7.09,-0.242,-2.687,-26.25,47.04,3.57
,-8.701,0.196,-2.211,-7.026,0.191,-3.568,-21.98,49.49,3.85
1438.0,-7.121,-0.067,-4.142,-7.59,-0.739,-5.566,13.72,66.85,3.71
,-7.655,-0.447,-4.357,-7.301,-0.593,-6.592,17.92,66.71,4.41
,-7.686,-0.531,-4.86,-8.009,-0.364,-6.662,22.61,66.22,4.41
,-7.569,-0.747,-5.027,-9.201,-0.129,-7.846,26.18,67.2,4.13
1514.0,-9.715,0.938,-9.103,-7.136,0.156,-9.067,35.7,46.13,0.21
,-9.596,2.477,-10.641,-7.617,-0.122,-8.897,29.75,38.29,-1.89
,-9.641,1.953,-9.861,-9.423,-1.228,-8.342,18.13,30.24,-7.07
,-8.775,1.414,-8.957,-8.875,-2.091,-8.658,5.18,22.96,-13.37
1590.0,-8.157,-2.757,-8.476,-8.308,-1.364,-6.382,-28.21,-6.3,-9.31
,-7.822,-2.56,-8.397,-9.421,-0.479,-5.678,-27.23,-8.82,-6.09
,-7.251,-2.192,-7.966,-9.6,-0.05,-4.939,-24.64,-9.45,-3.99
,-7.155,-1.84,-7.492,-8.696,-0.739,-5.138,-21.49,-8.33,-1.82
1665.0,-7.94,-1.835,-5.592,-7.138,-2.737,-5.925,-18.13,-8.26,6.09
,-7.801,-2.544,-5.741,-7.234,-0.72,-5.951,-13.58,-7.0,9.8
,-7.851,-2.986,-5.53,-8.179,-0.112,-5.209,-8.26,-4.27,13.65
,-8.014,-3.065,-5.528,-9.588,-0.067,-4.121,-4.34,-2.94,17.64
1741.0,-10.522,-0.357,-3.709,-7.964,0.177,-4.951,-12.04,2.66,22.26
,-9.624,-1.261,-3.771,-8.064,1.237,-5.441,-13.93,2.38,21.7
,-9.002,-1.07,-4.3,-8.057,2.816,-5.518,-6.93,3.99,19.53
,-8.411,-0.491,-4.752,-7.875,4.245,-5.946,1.19,6.3,17.43
1816.0,-9.139,4.293,-5.281,-8.174,-1.034,-6.533,4.34,14.21,2.38
,-10.05,3.013,-5.159,-7.724,-1.496,-7.054,-4.97,12.46,-3.29
,-9.885,1.173,-5.185,-8.327,-1.783,-6.908,-8.26,10.29,-7.49
,-8.813,-0.014,-5.824,-8.94,-1.804,-6.368,-5.11,9.03,-10.29
1892.0,-8.323,-1.153,-6.372,-8.466,-1.843,-6.004,11.27,7.84,-7.35
,-7.779,-0.842,-6.506,-8.311,-1.019,-6.334,3.5,7.7,-3.78
,-8.153,-0.871,-6.468,-8.385,-0.086,-6.659,-6.65,6.93,0.56
,-8.215,-1.412,-6.379,-8.658,0.117,-6.461,-12.88,5.74,4.27
1968.0,-8.689,0.282,-6.521,-8.911,0.043,-7.739,-2.59,-1.68,9.17
,-9.064,0.706,-7.002,-8.914,-0.172,-7.892,0.35,-2.45,7.42
,-9.007,1.163,-7.526,-8.122,-0.129,-8.725,2.94,-3.29,4.41
,-8.65,0.732,-7.87,-7.892,0.022,-8.976,4.2,-2.59,1.96
2044.0,-7.978,-0.467,-8.952,-8.397,1.094,-8.77,7.0,-16.1,1.68
,-8.224,-0.593,-8.863,-7.794,1.053,-9.009,6.58,-20.23,2.8
,-8.677,-0.065,-8.741,-7.272,0.455,-8.693,6.51,-27.16,2.52
,-8.524,0.68,-8.945,-7.566,-0.067,-8.198,1.68,-36.33,0.98
2119.0,-8.16,-0.651,-7.588,-8.428,-0.876,-4.977,-11.62,-57.89,-2.66
,-7.851,-0.345,-7.798,-8.469,-0.598,-4.664,-4.76,-63.42,-3.43
,-7.861,-0.16,-7.597,-7.861,-0.194,-4.456,-1.26,-67.69,-3.22
,-8.344,-0.601,-6.274,-7.992,-0.206,-3.929,1.75,-68.32,-1.89
2195.0,-8.332,0.246,-4.011,-8.746,1.125,-0.809,30.38,-78.19,0.98
,-8.334,0.282,-4.219,-8.82,1.603,-0.567,31.64,-80.15,0.28
,-8.138,0.246,-2.996,-8.717,2.127,0.436,36.68,-78.54,0.14
,-8.514,0.692,-1.84,-8.856,1.811,1.536,47.88,-74.76,0.0
2270.0,-8.471,1.637,1.79,-7.133,-1.058,6.602,52.85,-55.93,-15.4
,-7.758,0.936,3.015,-7.401,-0.704,8.011,41.65,-49.56,-16.1
,-7.229,-0.306,4.58,-8.617,0.223,7.81,33.88,-40.95,-14.42
,-7.375,-1.115,5.731,-10.421,0.495,6.48,29.82,-31.36,-10.5
2346.0,-11.907,0.215,4.738,-9.519,-1.965,-3.888,4.13,23.73,-3.64
,-12.189,-1.041,2.544,-9.323,-1.577,-6.006,-21.63,32.69,-7.21
,-11.043,-2.773,0.768,-8.916,-1.357,-7.751,-41.79,40.18,-9.24
,-10.096,-2.766,-1.634,-8.701,-0.677,-8.957,-51.38,44.66,-10.01
2422.0,-8.94,0.179,-9.713,-8.469,0.036,-7.251,-1.26,33.46,-0.35
,-8.83,0.704,-9.902,-8.916,-0.065,-5.934,9.03,26.18,1.26
,-8.445,0.593,-9.347,-9.213,-0.098,-4.647,14.0,18.34,2.52
,-8.44,0.321,-8.717,-9.459,-0.325,-3.577,17.71,11.06,2.52
2498.0,-9.292,-0.55,-2.651,-9.294,-1.22,-2.673,0.49,-6.44,-3.78
,-9.519,-0.593,-2.324,-9.237,-0.861,-3.082,-5.18,-6.16,-3.85
,-9.481,-1.062,-2.343,-9.196,-0.804,-3.183,-10.08,-5.39,-3.85
,-9.34,-1.445,-2.381,-9.289,-0.718,-3.4,-10.36,-4.41,-3.29
2574.0,-9.318,-0.596,-3.479,-9.076,-0.519,-4.271,-3.22,-0.91,-0.84
,-9.564,-0.493,-3.85,-9.141,-0.304,-4.338,-1.61,-1.05,-0.84
,-9.385,-0.692,-4.137,-8.926,-0.067,-3.951,-0.91,-1.89,-0.63
,-9.143,-0.711,-4.137,-9.158,-0.235,-3.618,1.89,-2.87,-0.28
2649.0,-9.311,-0.244,-3.484,-9.478,-1.567,-2.056,0.0,-8.4,-1.33
,-9.155,-0.44,-2.912,-9.557,-1.402,-2.335,-2.38,-8.68,-1.47
,-9.27,-0.543,-2.606,-9.474,-1.098,-2.606,-3.64,-7.91,-1.47
,-9.27,-1.067,-2.142,-9.495,-0.613,-3.003,-5.04,-6.3,-1.12
2725.0,-9.258,-0.529,-3.276,-9.782,-0.581,-1.905,5.18,-0.91,1.26
,-9.261,-0.388,-3.161,-9.505,-0.572,-0.909,5.39,-0.35,0.98
,-9.368,-0.491,-2.869,-9.28,-0.859,0.273,6.3,0.49,1.12
,-9.452,-0.194,-2.438,-9.517,-1.917,1.213,9.17,1.26,1.47
2801.0,-10.22,-1.675,1.833,-8.796,-1.11,-1.488,-3.99,14.14,6.09
,-10.086,-1.632,1.357,-8.356,-0.074,-3.257,-11.13,19.74,7.07
,-9.694,-2.182,0.89,-7.586,0.055,-4.171,-18.76,25.41,9.31
,-9.44,-2.079,-0.4,-7.322,-0.215,-4.465,-22.96,29.19,11.2
2877.0,-7.291,-0.27,-4.384,-9.773,0.122,-2.278,-24.29,37.38,12.95
,-7.509,-0.428,-3.771,-9.505,0.366,-1.914,-19.53,39.69,13.86
,-8.512,-0.266,-2.831,-9.127,0.806,-1.888,-12.81,41.16,14.42
,-9.615,0.194,-2.958,-8.612,1.268,-2.704,-8.05,41.3,14.07
2952.0,-7.906,1.484,-3.764,-8.746,-1.158,-3.293,12.39,50.61,6.86
,-7.365,0.715,-3.568,-8.837,-0.23,-4.054,10.43,53.62,6.51
,-7.499,-0.656,-3.23,-9.194,0.677,-5.839,14.07,57.68,8.19
,-7.954,-1.443,-2.314,-9.141,1.28,-7.777,27.58,62.37,9.94
3028.0,-7.942,0.321,-8.014,-8.894,1.665,-7.057,8.82,38.71,2.17
,-7.53,-0.447,-7.157,-8.047,0.83,-9.38,1.33,41.58,-0.14
,-7.839,-0.179,-5.75,-7.794,-1.61,-10.742,4.83,42.77,-2.94
,-7.983,0.536,-5.535,-9.186,-4.544,-9.505,0.98,35.56,-4.69
3103.0,-9.366,-5.803,-7.94,-8.416,2.469,-5.769,-14.63,8.05,15.96
,-8.416,-4.305,-7.09,-8.598,1.924,-5.82,14.77,9.66,12.46
,-9.38,-1.606,-5.733,-10.11,0.873,-5.159,32.41,9.31,11.41
,-8.918,1.173,-5.98,-9.856,0.553,-5.391,29.12,5.6,13.16
3179.0,-8.483,0.895,-5.173,-9.072,2.347,-3.798,-26.6,-3.71,19.74
,-7.121,1.584,-5.437,-8.995,2.017,-3.534,-16.45,-2.87,15.68
,-7.337,2.027,-4.96,-8.217,2.032,-4.391,-6.37,-1.47,10.01
,-8.342,2.326,-3.778,-7.76,1.56,-5.738,0.49,0.35,6.3
3255.0,-8.796,0.83,-5.788,-8.339,-2.173,-6.004,-0.21,11.97,-7.63
,-8.677,-0.936,-5.561,-10.297,-1.943,-5.267,-1.82,13.93,-7.77
,-8.454,-2.362,-5.784,-10.435,-0.881,-5.487,-0.28,15.54,-5.74
,-8.492,-2.443,-5.638,-9.253,-0.077,-5.437,5.25,16.59,-3.22
3331.0,-8.49,1.115,-5.427,-8.586,2.876,-5.757,6.65,11.2,1.47
,-8.471,2.111,-5.755,-8.514,1.567,-5.922,4.06,11.48,0.56
,-8.442,2.577,-5.226,-8.447,1.184,-6.332,1.05,12.53,-0.7
,-8.571,3.309,-5.307,-8.579,0.861,-6.418,-1.96,12.74,-3.22
3407.0,-8.954,0.495,-6.248,-8.05,-1.122,-6.741,-4.34,11.97,-14.42
,-8.662,0.187,-6.353,-8.059,-1.299,-6.834,-7.42,10.29,-14.84
,-8.069,-0.239,-6.53,-8.105,-0.873,-6.798,-13.37,10.01,-13.09
,-7.976,-0.761,-6.667,-8.076,-0.476,-7.061,-18.34,9.94,-9.94
3482.0,-8.169,-1.094,-7.109,-8.473,-1.51,-7.322,-11.62,4.06,-2.66
,-8.488,-1.874,-6.839,-8.445,-1.173,-7.401,-6.23,3.57,-1.75
,-8.516,-2.355,-6.631,-8.593,-1.094,-7.54,2.1,1.75,0.0
,-8.1,-1.941,-7.03,-8.909,-0.447,-7.837,10.64,-0.56,2.38
3558.0,-9.249,0.909,-7.913,-8.394,2.333,-7.619,17.08,-8.4,9.17
,-8.504,1.668,-8.189,-7.944,2.915,-7.887,12.46,-12.95,8.12
,-8.095,1.823,-8.081,-7.578,2.694,-7.978,6.79,-16.17,6.79
,-8.418,1.855,-7.672,-7.516,1.807,-7.564,3.78,-19.18,5.04
3634.0,-7.569,0.893,-7.222,-8.284,-1.165,-6.293,-5.25,-33.81,-8.05
,-7.511,0.369,-7.04,-8.832,-1.692,-5.111,-4.69,-37.03,-8.89
,-8.145,-0.11,-6.466,-9.005,-1.591,-4.771,-3.78,-40.25,-9.94
,-8.603,-0.51,-6.47,-8.078,-1.139,-5.48,-3.36,-44.38,-10.57
3710.0,-7.365,-1.058,-6.097,-9.284,0.112,-3.549,4.27,-55.93,-3.08
,-7.842,-1.153,-5.65,-8.425,1.139,-3.888,8.82,-56.91,0.49
,-8.914,-1.407,-4.826,-7.999,0.589,-2.048,19.88,-56.56,2.38
,-9.167,-0.852,-3.35,-8.54,-0.208,-0.517,32.06,-55.93,2.24
3785.0,-8.598,-0.251,-0.294,-8.93,1.991,1.469,35.07,-47.74,1.68
,-8.265,0.359,0.189,-9.091,2.087,-1.354,43.4,-44.87,0.14
,-8.737,1.622,0.091,-7.777,1.182,-0.459,48.44,-42.35,-1.05
,-9.055,2.383,0.201,-8.299,-0.141,0.852,44.59,-38.57,-2.59
3861.0,-8.966,-1.874,1.424,-9.447,0.223,-2.192,9.66,-15.75,-7.07
,-9.261,-3.051,2.087,-8.672,-0.725,-2.85,14.77,-8.47,-4.55
,-10.177,-2.379,1.314,-8.768,-1.653,-3.223,21.21,-4.2,-2.94
,-10.407,-0.483,-0.68,-9.206,-1.886,-2.572,17.71,-2.66,-4.13
3936.0,-9.981,-0.775,-1.649,-8.617,0.402,-4.858,5.04,11.69,-1.68
,-10.242,0.342,-1.644,-8.686,-0.603,-5.319,10.15,12.32,-0.56
,-9.686,1.443,-2.757,-8.909,-1.007,-5.444,7.42,11.97,-0.49
,-9.021,1.488,-4.082,-9.165,-0.816,-5.384,-3.08,10.78,-1.82
4012.0,-9.191,-0.335,-5.559,-9.229,-1.079,-3.9,-3.01,1.61,-3.15
,-9.016,-0.139,-5.401,-9.284,-1.11,-3.34,-4.27,-1.4,-3.5
,-8.933,-0.23,-5.023,-9.524,-0.325,-3.714,-6.72,-3.15,-3.43
,-9.074,-0.766,-4.353,-9.292,0.199,-4.173,-6.3,-3.99,-2.87
4088.0,-9.026,-0.077,-4.288,-9.174,0.285,-4.008,-1.68,-8.47,-1.47
,-9.273,-0.986,-4.164,-9.174,-0.349,-3.917,-3.29,-9.45,-1.4
,-9.344,-0.373,-4.566,-9.141,-0.866,-3.429,-2.31,-12.25,-3.43
,-9.081,0.249,-3.893,-9.17,-1.433,-2.747,-5.53,-14.63,-3.99
4164.0,-9.249,-1.694,-1.752,-9.667,-0.849,1.457,-1.33,-11.55,-0.42
,-9.533,-1.618,-0.706,-9.72,-0.928,1.898,5.04,-8.26,1.05
,-9.667,-0.754,-0.029,-9.495,-0.893,2.032,8.19,-4.97,2.45
,-9.631,-0.684,0.732,-9.33,-1.007,2.0,3.85,-0.98,3.36
4240.0,-9.21,-1.228,1.369,-8.382,-0.392,-1.735,-12.81,29.61,9.1
,-9.139,-1.328,0.584,-7.978,-0.129,-2.312,-12.53,35.63,10.85
,-8.942,-1.268,-0.105,-8.112,0.048,-2.793,-10.92,40.6,12.6
,-8.871,-1.22,-0.739,-8.177,-0.194,-2.737,-11.34,43.89,13.58
4315.0,-8.014,0.258,-1.285,-9.028,2.491,-5.073,8.75,61.39,16.24
,-8.425,1.101,-2.146,-9.311,0.94,-4.982,21.07,61.6,15.12
,-7.839,2.048,-3.037,-9.007,-0.507,-4.456,21.28,58.66,11.62
,-8.162,2.704,-4.109,-8.598,-1.012,-5.712,15.47,55.65,8.68
4391.0,-7.552,-0.364,-8.593,-6.231,-3.226,-4.085,8.82,42.0,4.13
,-7.928,0.089,-10.093,-6.509,-2.077,-3.455,15.68,36.05,1.61
,-8.751,-0.581,-9.416,-7.329,0.713,-3.652,16.24,37.17,-0.35
,-8.696,-1.584,-8.301,-10.179,1.823,-4.46,17.57,43.68,-0.63
4467.0,-12.481,0.519,-4.776,-6.356,1.862,-9.055,-18.27,35.0,0.63
,-11.668,0.235,-5.044,-9.593,1.074,-8.327,-30.17,34.16,3.57
,-8.196,1.79,-6.229,-11.199,0.007,-7.631,-22.05,31.57,6.02
,-5.437,2.56,-8.61,-9.696,-0.928,-7.736,-18.2,25.06,5.67
4543.0,-6.636,-2.278,-7.949,-8.976,-0.019,-7.136,6.37,1.68,-1.19
,-6.511,-3.477,-7.081,-7.609,3.23,-8.22,10.43,1.19,3.57
,-7.983,-3.81,-6.992,-6.7,4.458,-8.308,16.59,-0.42,7.28
,-9.545,-2.879,-6.188,-7.571,4.152,-6.458,21.49,-3.78,10.29
4618.0,-8.763,2.666,-4.334,-8.571,-3.575,-4.408,-25.83,-8.12,2.59
,-8.641,0.124,-3.271,-10.115,-3.869,-3.759,-32.48,-6.09,2.38
,-7.521,-2.027,-2.639,-10.34,-2.297,-4.233,-28.07,-2.45,3.57
,-7.602,-2.828,-3.671,-9.162,-0.019,-5.011,-13.44,1.12,6.37
4694.0,-8.667,1.273,-5.351,-8.047,3.125,-5.767,31.64,10.43,10.5
,-9.457,1.665,-4.637,-8.471,2.742,-5.949,18.13,11.62,9.38
,-8.497,2.367,-5.059,-9.371,1.295,-5.298,6.72,10.85,7.63
,-7.65,2.903,-5.977,-9.294,0.23,-5.118,-3.36,11.55,5.39
4769.0,-8.638,0.747,-5.568,-8.751,-1.314,-6.356,-1.47,13.09,-11.13
,-8.409,1.244,-5.798,-8.648,-1.486,-6.604,4.27,13.58,-13.02
,-8.014,0.412,-6.229,-8.677,-1.496,-6.683,2.17,14.07,-13.79
,-8.533,-0.864,-6.274,-8.528,-1.558,-6.468,-0.56,14.77,-12.88
4845.0,-7.992,-1.888,-7.121,-9.421,-0.888,-6.65,-10.22,6.65,-1.26
,-7.899,-1.706,-7.382,-9.098,-0.522,-6.863,-11.55,6.02,3.01
,-8.15,-1.857,-7.047,-8.765,-0.737,-6.827,-11.83,5.95,5.53
,-8.772,-1.563,-6.657,-8.619,-0.866,-6.729,-8.26,5.46,7.35
4921.0,-8.622,-0.266,-6.904,-8.303,1.491,-7.463,15.26,-0.21,6.93
,-8.464,0.313,-6.99,-7.942,1.634,-7.882,20.58,0.77,6.37
,-8.363,0.73,-6.923,-8.471,1.273,-7.887,23.31,1.05,6.44
,-8.43,1.017,-7.016,-8.397,1.12,-7.983,23.66,0.35,6.58
4997.0,-8.447,0.885,-7.406,-8.074,1.149,-7.322,0.84,-18.2,2.66
,-8.641,1.852,-7.267,-8.375,0.323,-7.349,-2.8,-31.36,1.26
,-7.653,2.989,-7.949,-8.655,-0.005,-6.846,-11.27,-43.19,-0.7
,-6.959,2.496,-7.806,-8.751,-0.287,-6.817,-21.42,-45.57,-2.38
5073.0,-8.102,-0.797,-6.717,-8.09,-0.531,-5.654,0.14,-44.38,-16.17
,-7.581,-0.993,-6.248,-7.801,-0.656,-5.41,6.3,-42.42,-15.54
,-7.784,-0.95,-5.666,-8.411,-0.995,-4.446,11.06,-42.14,-13.02
,-7.937,-0.861,-4.958,-8.739,-1.065,-3.075,17.01,-42.56,-9.87
5148.0,-8.899,-0.409,-3.317,-8.792,1.668,-0.369,30.31,-46.48,-0.35
,-8.662,0.431,-3.419,-8.756,2.18,-0.258,33.74,-49.84,-1.89
,-8.698,0.84,-3.053,-8.732,2.285,0.148,29.47,-51.03,-2.94
,-8.799,1.256,-1.905,-8.571,2.067,-0.139,25.83,-48.93,-4.13
5224.0,-8.354,1.007,0.022,-9.069,-3.618,1.46,-11.83,-36.47,-17.15
,-8.129,-1.039,0.615,-9.318,-2.888,0.761,-17.99,-31.43,-15.19
,-8.277,-2.845,1.113,-9.801,-1.474,-0.625,-12.39,-24.57,-11.97
,-8.54,-3.723,1.395,-9.5,-0.644,-1.653,1.26,-17.29,-9.24
5300.0,-9.478,-0.225,-2.515,-9.916,0.146,-3.508,-9.31,4.69,-2.52
,-9.282,-0.964,-2.666,-10.208,0.656,-4.898,-17.43,8.05,-1.19
,-9.679,-1.347,-2.469,-9.641,0.414,-6.317,-8.61,11.9,1.05
,-9.631,-0.921,-2.553,-8.741,-0.089,-7.117,5.39,14.91,2.31
5376.0,-8.413,-0.541,-6.896,-8.909,0.613,-5.276,11.76,6.16,1.54
,-8.827,-0.438,-6.025,-8.576,0.146,-5.19,19.46,6.51,1.12
,-9.371,0.196,-5.363,-8.425,-0.682,-4.59,21.56,4.83,0.56
,-9.409,0.754,-5.451,-8.536,-1.213,-3.676,14.21,0.42,-0.14
5451.0,-8.983,-0.916,-2.924,-9.28,-0.074,-2.257,18.13,-8.12,1.05
,-9.313,-0.153,-2.345,-9.04,-0.447,-2.845,20.09,-8.4,0.35
,-9.493,0.069,-1.809,-9.019,-1.053,-3.005,14.28,-8.19,-0.21
,-9.507,0.242,-1.998,-9.129,-1.117,-3.448,5.88,-7.7,-0.84
5527.0,-9.131,-1.273,-3.137,-9.189,-0.026,-4.413,-1.82,-3.01,-0.98
,-9.246,-1.019,-3.376,-8.993,-0.256,-4.264,2.45,-2.17,0.28
,-9.469,-0.644,-3.611,-9.107,-0.512,-4.049,6.3,-2.1,0.98
,-9.543,-0.029,-4.207,-9.418,-0.629,-3.625,6.86,-3.43,0.56
5602.0,-9.667,-0.27,-3.431,-9.139,-0.967,-4.025,5.95,-4.62,-0.56
,-9.715,-0.12,-3.515,-8.981,-1.244,-3.637,3.85,-5.32,-1.12
,-9.646,-0.153,-3.726,-9.215,-1.005,-3.273,0.14,-6.37,-1.61
,-9.399,-0.677,-3.884,-9.375,-0.486,-3.137,-1.61,-7.07,-1.33
5678.0,-9.292,-0.33,-2.986,-9.273,-0.56,-2.23,10.57,-6.02,2.1
,-9.251,-0.519,-2.819,-9.414,-0.713,-1.735,7.84,-5.67,2.45
,-9.27,-0.742,-2.58,-9.208,-0.579,-1.113,6.51,-4.76,2.66
,-9.296,-0.61,-2.508,-9.081,-0.565,-0.132,7.0,-3.71,2.66
5754.0,-9.397,-0.787,0.735,-9.189,-0.304,-0.084,-2.59,9.66,4.48
,-9.964,-1.041,1.359,-8.622,-0.211,-1.18,-2.52,15.82,5.46
,-10.045,-0.924,1.591,-8.382,-0.464,-2.891,-5.67,21.98,6.37
,-9.689,-0.895,1.271,-7.679,-1.287,-3.046,-9.59,27.58,7.63
5830.0,-7.538,-2.221,-2.23,-9.363,1.821,-1.888,-1.26,45.64,15.05
,-7.923,-1.883,-1.725,-8.923,1.596,-2.324,15.26,49.63,17.22
,-7.961,-0.974,-0.005,-8.586,1.254,-3.762,29.75,53.55,17.36
,-9.062,0.227,-0.72,-7.499,0.83,-5.111,35.91,56.56,15.96
5906.0,-6.918,0.084,-5.915,-8.124,-1.18,-5.513,-31.15,49.98,10.5
,-7.396,-0.833,-5.552,-9.572,0.715,-5.654,-25.9,53.34,12.04
,-8.5,-2.044,-4.848,-10.402,1.747,-6.009,-10.01,57.47,12.81
,-8.49,-2.388,-5.413,-9.651,1.091,-5.135,8.47,54.6,10.99
5981.0,-8.031,1.651,-5.303,-11.594,-0.773,-7.37,13.44,48.65,7.21
,-6.171,1.866,-5.547,-11.278,-2.163,-7.499,2.87,43.26,5.95
,-6.1,1.484,-6.449,-8.624,-0.974,-9.079,-15.26,31.22,5.04
,-8.918,1.287,-7.112,-5.652,1.326,-10.452,-33.39,21.63,8.19
6057.0,-6.966,1.625,-9.464,-8.54,-1.374,-5.229,-7.07,3.57,4.2
,-8.844,-0.392,-7.609,-8.887,-0.218,-4.721,-17.5,5.88,8.54
,-8.593,-2.29,-6.829,-8.55,0.038,-4.965,-21.7,8.12,12.46
,-8.002,-2.625,-5.875,-8.476,-1.091,-5.248,-13.09,9.45,12.25
6133.0,-8.145,-0.56,-5.786,-9.983,2.266,-6.997,-2.45,7.98,24.01
,-8.167,1.225,-6.671,-9.864,2.871,-5.767,11.62,6.79,21.0
,-8.48,2.548,-6.525,-7.119,3.671,-5.269,17.15,3.64,16.66
,-8.332,2.386,-7.136,-6.628,3.408,-4.573,12.39,1.26,14.21
6209.0,-9.112,1.721,-3.91,-7.868,-0.972,-5.762,3.36,3.78,-8.33
,-10.627,-1.218,-4.118,-7.76,-0.708,-5.559,-5.39,4.41,-6.86
,-10.081,-2.864,-4.757,-8.074,0.878,-5.994,0.35,4.62,-8.05
,-8.847,-1.797,-5.537,-8.437,2.525,-6.025,12.25,5.81,-8.75
6284.0,-8.385,3.563,-6.296,-8.94,0.687,-6.181,1.61,8.19,-3.36
,-8.603,3.132,-6.037,-9.392,0.498,-6.58,-9.03,8.47,-5.88
,-8.78,1.953,-5.47,-10.5,-0.658,-6.703,-14.98,9.66,-8.26
,-8.871,0.778,-5.719,-10.723,-1.591,-6.994,-13.58,9.52,-11.62
6360.0,-9.222,-2.029,-7.454,-6.743,0.122,-6.08,7.49,-2.03,-16.52
,-8.378,-1.943,-6.312,-7.669,0.199,-6.133,10.22,-1.05,-14.56
,-7.736,-0.89,-6.315,-8.689,-0.115,-6.291,8.47,-2.31,-10.99
,-6.705,-0.256,-5.944,-9.351,-0.936,-6.332,-0.35,-2.87,-4.2
6435.0,-9.299,-1.45,-6.877,-8.748,-0.127,-7.779,-19.04,-13.65,6.58
,-8.047,-1.144,-7.791,-8.208,0.842,-7.995,-6.58,-16.52,7.77
,-7.755,-1.768,-7.959,-8.181,0.926,-7.968,3.43,-17.5,8.12
,-8.636,-1.455,-7.492,-8.825,0.988,-7.839,14.91,-17.92,7.63
6511.0,-9.16,1.68,-7.609,-8.002,2.749,-6.621,25.83,-25.34,5.39
,-8.748,2.654,-7.842,-7.758,2.513,-6.332,24.78,-31.15,2.31
,-8.581,2.749,-7.877,-7.916,2.252,-6.001,16.8,-37.24,-1.4
,-8.339,2.886,-7.337,-8.191,1.522,-5.202,8.12,-42.42,-4.41
6587.0,-8.11,0.78,-4.85,-9.206,-2.139,-2.335,-18.83,-50.89,-19.88
,-7.633,0.512,-5.102,-9.107,-1.11,-2.977,-17.92,-52.36,-22.19
,-7.554,-0.546,-4.7,-8.696,-0.491,-2.491,-15.68,-50.54,-22.47
,-8.315,-1.656,-4.001,-9.038,-0.165,-3.312,-8.61,-46.76,-20.23
6663.0,-9.162,-0.019,-3.812,-7.937,1.062,-2.094,16.94,-53.69,-13.23
,-9.215,0.129,-4.03,-7.37,-0.005,-1.084,17.99,-52.15,-14.49
,-9.277,0.57,-3.886,-8.543,-1.713,-1.086,20.37,-51.03,-16.59
,-8.557,1.055,-2.563,-8.351,-3.013,0.507,22.96,-47.74,-18.62
6739.0,-7.731,-4.006,2.673,-9.706,1.893,3.525,13.23,-34.23,-9.03
,-8.208,-4.561,4.647,-9.531,1.809,3.065,29.75,-24.29,-3.64
,-9.165,-2.881,4.805,-9.414,1.247,2.307,51.94,-16.24,0.42
,-10.067,0.223,3.594,-9.646,0.302,1.527,58.87,-11.48,0.77
6814.0,-9.584,-0.239,1.065,-9.253,-0.096,-8.411,-26.39,22.75,-5.39
,-9.718,-0.227,0.859,-8.428,-1.048,-9.756,-25.83,29.19,-5.74
,-10.759,-0.328,-2.467,-8.306,-1.981,-10.658,-28.91,29.4,-6.44
,-10.567,0.196,-6.212,-8.009,-2.898,-10.89,-35.49,22.33,-7.84
6890.0,-8.638,-3.161,-9.354,-9.155,2.101,-2.601,9.52,0.7,1.4
,-9.466,-1.309,-7.169,-8.744,0.852,-1.792,27.09,-8.12,2.24
,-9.634,0.938,-5.214,-8.873,-0.682,-1.761,31.43,-14.42,0.49
,-9.971,1.912,-3.419,-9.162,-1.342,-1.34,18.9,-19.74,-1.68
6966.0,-9.521,-1.29,-1.163,-9.083,-0.333,-2.668,-18.27,-13.02,-4.13
,-9.765,-0.696,-1.548,-9.093,-0.912,-2.74,-12.88,-9.73,-3.92
,-9.696,-0.558,-1.665,-9.06,-1.326,-2.584,-12.46,-8.12,-3.64
,-9.526,-0.172,-2.434,-9.536,-1.718,-2.292,-14.56,-7.77,-3.57
7042.0,-9.763,-1.316,-3.104,-8.897,-0.711,-4.456,1.54,3.29,0.7
,-9.701,-1.017,-3.738,-9.064,-0.979,-3.886,4.27,0.98,1.33
,-9.485,-0.682,-4.377,-9.356,-0.96,-3.087,6.23,-1.33,1.75
,-9.127,-0.488,-4.91,-9.605,-0.663,-2.347,7.07,-2.94,2.03
7117.0,-10.139,-0.072,-2.335,-9.057,-0.378,-3.163,24.92,-1.12,4.62
,-9.99,0.364,-2.843,-9.165,-0.548,-2.984,19.04,-3.64,3.57
,-9.45,0.184,-2.886,-9.294,-1.086,-2.45,9.94,-4.97,3.08
,-9.167,-0.127,-3.266,-9.653,-0.928,-2.233,5.53,-5.18,2.24
7193.0,-9.806,-0.129,-2.455,-8.966,-0.861,-3.424,9.73,-2.24,2.94
,-9.679,0.091,-2.795,-9.146,-0.806,-3.329,2.73,-3.36,2.03
,-9.476,-0.256,-3.159,-9.596,-0.711,-2.692,-1.68,-4.2,1.68
,-9.074,-0.651,-3.362,-9.708,-0.115,-2.345,-2.1,-4.34,1.68
7268.0,-9.725,0.206,-1.95,-9.27,-0.895,-1.993,9.45,-1.54,2.45
,-9.837,0.275,-1.929,-9.404,-1.058,-1.536,5.53,-1.68,1.89
,-9.545,0.196,-2.359,-9.411,-0.871,-0.598,-0.21,-1.75,1.47
,-9.208,-0.369,-2.288,-9.524,-0.938,0.591,-3.43,-0.98,1.47
7344.0,-9.56,-1.302,1.498,-9.749,0.543,0.644,5.67,16.38,5.6
,-9.483,-1.67,2.352,-8.969,0.682,-0.632,5.81,23.52,7.21
,-9.543,-1.508,2.718,-8.519,-0.476,-1.213,7.7,30.8,8.54
,-9.677,-0.83,2.711,-8.33,-1.907,-1.984,10.01,38.22,9.66
7420.0,-8.138,-2.979,-2.24,-8.119,0.426,-2.804,-18.48,56.0,16.59
,-8.256,-2.687,-2.448,-8.064,1.158,-3.659,1.75,60.2,19.18
,-8.528,-1.551,-2.795,-8.763,1.4,-5.207,21.63,62.86,20.02
,-8.258,-0.371,-2.35,-8.729,1.06,-5.221,35.07,65.24,19.53
7496.0,-9.127,0.538,-5.604,-6.521,0.05,-5.939,5.53,49.42,11.62
,-8.949,0.007,-5.382,-9.294,0.608,-5.695,1.12,50.19,12.39
,-8.009,-0.96,-4.391,-10.677,0.969,-5.365,8.47,56.35,14.07
,-7.2,-0.931,-5.537,-9.277,0.115,-4.81,19.6,55.44,13.65
7571.0,-6.784,-0.292,-5.485,-12.551,0.395,-6.009,5.04,42.0,13.93
,-5.396,0.103,-7.066,-11.929,0.519,-5.693,10.85,40.88,14.35
,-6.772,0.483,-7.921,-9.521,0.771,-6.655,14.49,35.56,11.55
,-9.634,0.517,-7.59,-8.571,0.053,-7.31,17.64,34.65,7.28
7647.0,-8.677,-1.383,-8.196,-7.59,0.818,-6.147,-21.14,11.97,9.17
,-8.272,-2.474,-7.638,-8.76,0.562,-6.011,-19.74,8.12,10.64
,-7.449,-1.936,-6.59,-9.11,-0.761,-6.016,-12.25,4.9,11.41
,-7.495,-0.069,-6.226,-8.49,-0.826,-5.657,-10.5,0.42,11.76
7723.0,-8.117,0.598,-5.279,-8.275,3.453,-4.963,-13.65,-2.87,14.21
,-7.475,2.539,-5.669,-7.645,2.453,-4.815,-4.34,-3.99,11.76
,-7.626,3.443,-5.087,-7.892,0.842,-4.764,-2.03,-1.89,9.24
,-8.653,3.553,-4.503,-8.744,-0.38,-4.623,-2.8,-2.03,8.05
7799.0,-9.289,-1.33,-4.815,-8.421,-0.928,-5.621,13.23,7.28,-2.94
,-9.631,-1.878,-4.901,-8.126,-0.309,-5.829,18.83,8.75,-4.06
,-9.864,-1.165,-5.418,-8.5,-0.249,-5.571,22.68,8.26,-3.92
,-8.875,-0.785,-6.114,-9.012,0.361,-4.941,20.93,7.84,-2.03
7875.0,-9.198,1.981,-5.458,-8.055,2.115,-5.8,8.4,10.71,3.01
,-9.397,2.539,-5.48,-9.134,1.496,-5.867,4.76,10.57,1.05
,-9.497,2.352,-4.819,-9.301,0.215,-6.059,0.84,9.24,0.07
,-8.112,2.402,-5.379,-9.031,-0.735,-6.432,-0.49,8.54,-1.54
7950.0,-8.354,-1.153,-7.195,-8.509,-2.13,-6.896,2.52,6.65,-13.02
,-8.27,-1.67,-7.282,-8.756,-1.869,-6.308,1.47,6.02,-10.01
,-8.327,-1.603,-7.432,-8.421,-0.9,-6.525,-0.35,3.29,-6.51
,-8.162,-1.811,-7.545,-8.076,0.254,-6.765,-3.5,0.98,-3.08
8026.0,-8.674,0.538,-5.98,-8.933,-0.359,-6.53,-13.93,-5.11,7.35
,-8.923,0.921,-5.92,-9.05,-0.737,-6.93,-16.38,-7.98,6.86
,-8.655,1.062,-6.332,-9.064,-0.242,-7.069,-17.36,-10.29,6.02
,-8.78,0.471,-6.324,-9.273,0.536,-6.994,-16.31,-11.41,5.46
8101.0,-8.993,1.417,-7.038,-8.789,1.878,-7.14,26.25,-20.44,0.0
,-8.299,1.972,-7.368,-9.014,1.558,-6.638,23.8,-22.75,-1.33
,-8.354,2.168,-7.49,-8.579,1.924,-6.633,17.99,-23.87,-2.03
,-8.753,2.046,-7.236,-7.988,1.984,-6.499,12.88,-24.85,-3.92
8177.0,-7.664,1.307,-6.25,-8.332,-0.704,-5.176,-7.28,-41.02,-13.23
,-7.932,0.546,-6.037,-8.148,-1.216,-4.403,-10.71,-41.09,-12.88
,-8.421,-0.438,-5.226,-8.337,-1.084,-4.403,-10.99,-40.46,-12.88
,-8.653,-0.596,-5.147,-8.437,-0.445,-5.013,-6.02,-41.58,-13.02
8253.0,-8.674,0.072,-5.42,-7.94,-0.237,-4.74,20.3,-53.9,-11.34
,-8.909,0.053,-4.535,-8.275,-0.531,-3.489,19.32,-54.53,-10.43
,-9.203,0.39,-4.57,-8.801,-0.584,-2.187,19.39,-55.58,-9.38
,-8.643,0.23,-5.293,-8.677,-0.354,-2.326,14.91,-58.66,-10.78
8329.0,-7.887,-0.278,-0.479,-8.82,1.797,3.223,34.93,-55.58,-12.39
,-8.088,-0.246,0.78,-8.942,3.07,3.908,40.18,-50.96,-10.57
,-8.239,-0.345,2.484,-7.923,1.29,4.937,42.63,-45.71,-9.87
,-8.947,-0.187,2.651,-8.72,-2.0,5.501,43.82,-41.65,-9.59
8404.0,-9.442,-3.561,5.272,-10.572,-1.706,1.079,-16.87,-0.21,-8.68
,-9.878,-2.905,4.518,-10.251,-1.491,-1.036,-7.0,9.52,-5.95
,-10.007,-2.529,4.116,-10.0,-1.05,-3.802,-8.05,19.11,-3.85
,-10.514,-2.185,2.816,-9.33,-0.491,-7.179,-15.75,27.16,-2.8
8480.0,-8.33,-0.699,-8.928,-9.179,1.094,-8.464,-23.31,30.45,-0.42
,-8.366,-0.68,-9.954,-9.141,0.972,-7.509,-6.58,26.88,1.26
,-8.543,0.01,-10.227,-9.007,0.261,-6.277,14.07,22.4,2.73
,-8.868,0.763,-9.481,-9.273,-0.407,-5.202,29.33,17.08,3.43
8556.0,-9.256,-0.73,-4.302,-9.471,0.019,-2.513,16.1,-7.42,1.4
,-9.347,-0.974,-3.479,-9.194,0.522,-2.283,14.07,-8.68,1.89
,-9.543,-0.952,-3.422,-9.421,-0.141,-2.051,11.13,-10.57,1.61
,-9.328,-0.928,-2.881,-9.785,0.096,-2.257,8.68,-11.9,0.56
8632.0,-9.387,0.467,-2.706,-9.383,-1.965,-2.572,-17.85,-14.0,-4.27
,-9.124,-0.096,-2.706,-9.77,-0.979,-3.482,-27.86,-14.07,-4.76
,-9.021,-1.216,-2.984,-9.725,-0.282,-3.814,-31.43,-13.16,-4.41
,-9.069,-2.201,-2.675,-9.45,0.483,-3.812,-23.94,-10.29,-2.66
8708.0,-8.993,0.285,-3.23,-9.854,-0.45,-2.565,-5.6,-12.04,-0.63
,-9.146,-0.57,-2.606,-9.684,-0.22,-2.771,-5.81,-10.08,-0.07
,-9.38,-0.823,-2.359,-9.416,-0.122,-2.635,-0.7,-8.05,0.42
,-9.624,-0.763,-2.154,-9.351,-0.383,-2.737,4.2,-6.86,0.91
8783.0,-9.344,-0.677,-2.673,-9.813,-0.297,-3.601,7.28,-3.99,0.63
,-9.531,-0.613,-2.869,-9.325,0.328,-3.362,10.15,-3.29,0.77
,-9.567,-0.357,-3.075,-9.088,0.438,-3.075,11.13,-3.5,0.84
,-9.653,-0.151,-3.278,-9.284,-0.474,-2.596,11.13,-4.34,0.77
8859.0,-9.433,-0.885,-2.103,-9.634,-0.873,-1.106,-7.21,-8.33,-1.82
,-9.615,-0.962,-1.646,-9.564,-0.524,-1.175,-4.9,-6.72,-1.26
,-9.696,-1.077,-1.479,-9.464,-0.682,-1.074,-3.08,-4.76,-0.42
,-9.667,-1.053,-1.235,-9.409,-0.814,-0.799,-1.26,-2.66,0.49
8934.0,-9.409,-1.251,-0.079,-9.665,-2.362,1.692,-2.03,10.57,4.06
,-9.495,-1.692,0.682,-9.5,-1.79,0.763,0.7,15.96,5.46
,-9.452,-1.878,1.462,-9.122,-0.823,-0.153,3.22,22.19,7.28
,-9.581,-2.156,1.802,-8.875,-0.242,-0.72,5.25,29.33,9.66
9010.0,-8.839,-0.038,-1.359,-8.397,1.417,-2.261,3.5,47.11,15.68
,-8.533,0.23,-1.661,-8.411,1.304,-2.245,0.84,50.19,15.4
,-8.38,0.414,-1.95,-8.361,1.436,-2.651,1.19,53.69,14.7
,-8.461,0.806,-2.321,-7.511,0.993,-1.548,1.19,55.16,12.39
9086.0,-7.93,1.029,-2.089,-8.997,-1.895,-4.027,-0.56,63.98,6.37
,-8.129,1.653,-4.525,-9.213,-3.501,-3.987,-4.2,56.84,4.62
,-7.653,1.35,-4.992,-8.119,-3.881,-4.506,-12.46,50.4,3.29
,-8.387,0.048,-5.016,-8.078,-2.192,-5.288,-18.27,49.35,5.04
9162.0,-9.686,0.385,-6.056,-6.205,7.052,-9.586,49.0,50.26,8.19
,-10.203,2.237,-6.705,-6.829,3.905,-8.923,40.74,47.67,5.81
,-9.447,4.841,-7.593,-8.83,-1.79,-6.779,29.47,44.31,3.01
,-7.416,6.944,-9.167,-9.529,-6.2,-5.092,10.64,36.54,-2.24
9237.0,-9.268,-8.466,-3.929,-8.806,-0.031,-6.901,-34.02,34.37,-2.52
,-8.904,-8.428,-3.613,-7.899,4.7,-8.43,4.06,31.57,-0.07
,-9.107,-5.508,-4.934,-7.169,7.815,-9.275,33.46,25.97,1.47
,-9.433,-2.608,-5.951,-7.904,7.765,-8.763,43.33,22.82,4.69
9313.0,-8.969,5.193,-7.995,-7.377,-3.62,-5.628,-24.5,3.92,-2.94
,-9.749,0.852,-5.341,-8.559,-2.91,-6.942,-33.95,6.51,-4.27
,-9.17,-2.541,-3.503,-8.452,-0.84,-8.334,-23.87,8.89,-8.89
,-7.528,-3.592,-4.089,-6.944,0.098,-8.643,1.12,10.36,-13.37
9389.0,-7.43,-0.579,-7.645,-8.681,-4.64,-5.511,16.31,1.12,7.14
,-8.988,-2.584,-6.595,-9.05,-2.63,-5.592,-3.85,-0.91,12.32
,-8.904,-4.554,-6.289,-8.93,0.0,-5.944,-16.31,-1.96,17.36
,-8.665,-5.449,-5.607,-8.832,2.048,-6.231,-15.54,-0.63,20.58
9465.0,-9.002,3.082,-5.966,-9.493,3.831,-4.068,2.52,-2.73,25.62
,-8.957,3.235,-4.92,-9.99,3.312,-4.386,2.8,-2.94,20.72
,-8.363,3.245,-4.649,-9.509,2.19,-4.958,7.07,-1.47,14.7
,-8.39,3.714,-4.64,-9.095,1.079,-5.654,11.9,2.38,7.84
9541.0,-9.079,-0.136,-5.968,-7.638,-0.558,-6.289,18.69,6.72,-19.46
,-9.206,-1.177,-6.083,-7.023,-0.309,-6.573,19.95,6.37,-22.12
,-8.739,-1.792,-5.958,-8.002,-0.933,-7.085,18.2,5.81,-20.72
,-8.866,-1.141,-6.159,-8.77,-1.795,-7.37,14.56,2.66,-17.08
9616.0,-8.729,-2.07,-7.459,-8.93,0.026,-6.375,-32.69,-6.51,6.02
,-7.882,-1.9,-7.394,-9.007,0.474,-6.746,-27.37,-7.14,7.7
,-7.839,-1.811,-6.647,-8.794,-0.048,-6.789,-19.67,-5.95,9.17
,-8.576,-1.158,-6.36,-8.469,-0.96,-6.875,-9.59,-6.3,9.31
9692.0,-8.342,-1.646,-7.112,-7.93,1.704,-7.648,19.53,-7.84,9.38
,-8.603,-1.649,-7.109,-7.798,2.149,-7.566,29.26,-7.21,11.06
,-8.99,-0.869,-6.947,-8.323,1.962,-7.172,37.31,-9.17,12.04
,-8.483,0.62,-7.471,-8.782,1.895,-6.884,40.67,-13.02,12.25
9767.0,-8.748,2.003,-6.793,-8.016,1.321,-6.102,6.3,-31.36,5.53
,-8.612,2.044,-6.193,-8.212,0.337,-6.301,4.34,-35.14,1.89
,-8.425,2.266,-6.131,-8.026,-0.139,-6.219,2.31,-40.6,-1.61
,-7.947,2.283,-6.159,-8.614,-0.536,-5.379,-4.2,-45.78,-4.34
9843.0,-8.717,-0.184,-5.018,-8.825,-0.237,-5.709,12.53,-56.0,-15.05
,-8.299,-0.156,-4.893,-9.273,-1.022,-4.223,16.03,-57.4,-15.33
,-7.921,-0.036,-4.937,-9.234,-1.534,-2.233,15.19,-60.97,-13.86
,-8.275,-0.098,-5.365,-8.933,-1.225,-2.642,12.25,-65.66,-11.69
9919.0,-8.05,-0.974,-1.596,-8.236,-0.141,2.371,26.74,-63.56,-9.24
,-8.155,-0.689,-1.352,-8.38,1.189,2.276,29.05,-62.23,-8.4
,-8.373,-0.397,-0.481,-8.32,2.977,2.352,32.97,-59.36,-7.91
,-8.492,-0.39,0.881,-8.469,2.998,3.676,39.97,-53.9,-7.21
9995.0,-8.806,2.563,4.257,-10.462,-3.845,5.25,21.56,-24.57,-18.06
,-8.942,0.797,5.348,-10.826,-4.173,3.841,-0.7,-16.52,-17.01
,-9.361,-1.196,6.152,-10.541,-3.561,2.087,-15.47,-6.86,-14.91
,-9.785,-2.895,6.08,-9.849,-2.479,0.182,-23.59,3.64,-13.44
10070.0,-9.517,-1.819,-1.957,-8.019,-1.184,-9.344,-40.39,41.37,-4.9
,-9.536,-0.881,-4.771,-8.059,-1.184,-8.966,-39.27,41.3,-4.41
,-9.146,-0.055,-7.44,-8.739,-0.392,-8.37,-39.97,38.29,-4.62
,-8.413,-0.426,-8.88,-9.206,0.771,-7.822,-37.03,34.72,-3.08
10146.0,-9.318,1.158,-6.76,-9.39,-0.768,-3.486,35.14,10.43,3.99
,-9.378,0.723,-5.642,-9.261,-0.895,-2.881,24.5,6.23,2.24
,-9.402,0.12,-4.944,-9.363,-1.053,-3.063,14.84,2.87,0.42
,-9.538,-0.682,-4.156,-9.349,-1.194,-3.005,5.74,-0.14,-1.89
10222.0,-9.361,-1.003,-3.161,-9.378,-0.61,-3.561,-7.14,-4.55,-3.22
,-9.198,-1.175,-3.049,-9.507,-0.464,-3.924,-4.55,-3.22,-2.31
,-9.351,-1.182,-3.089,-9.265,-0.613,-4.044,0.63,-1.75,-1.19
,-9.385,-0.749,-3.565,-9.313,-1.271,-3.821,3.71,-1.96,-0.91
10298.0,-9.395,-1.263,-4.197,-9.435,-0.471,-2.288,1.54,-4.76,-1.12
,-9.117,-1.364,-3.896,-9.773,-0.067,-2.376,6.51,-4.41,-0.14
,-9.289,-1.163,-3.379,-9.672,0.172,-2.843,11.97,-3.92,0.84
,-9.397,-0.67,-2.881,-9.356,0.213,-3.561,15.54,-3.29,1.47
10374.0,-8.892,-0.323,-3.711,-9.483,-0.455,-3.214,-7.98,-5.74,-2.8
,-8.741,-1.039,-3.489,-9.435,-0.06,-3.489,-8.26,-4.97,-2.8
,-8.842,-1.613,-2.998,-9.148,-0.349,-3.589,-3.64,-3.92,-2.31
,-9.363,-1.228,-3.118,-8.981,-0.921,-3.522,3.71,-4.2,-1.68
10449.0,-9.0,-1.414,-2.881,-9.67,0.031,-2.852,-0.49,-5.18,-1.89
,-9.268,-1.61,-2.225,-9.316,0.036,-3.719,5.46,-3.5,-0.49
,-9.627,-1.278,-1.819,-9.074,-0.732,-4.039,11.06,-1.89,0.77
,-9.82,-0.471,-2.192,-9.17,-1.103,-4.089,10.99,-1.96,0.84
10525.0,-9.38,-1.218,-3.958,-9.196,-0.531,-3.171,-2.31,-5.25,-1.19
,-9.521,-0.952,-3.967,-9.375,-0.708,-2.544,-0.21,-6.86,-0.63
,-9.634,-0.663,-4.089,-9.5,-0.833,-1.804,-0.91,-9.1,-0.91
,-9.28,-0.536,-3.695,-9.32,-1.146,-1.139,-1.89,-10.36,-1.19
10600.0,-9.366,-1.855,-0.519,-9.55,-1.366,1.895,-15.12,-5.6,1.12
,-9.418,-2.178,0.345,-9.608,-0.914,1.433,-11.34,-0.84,3.15
,-9.416,-2.0,1.134,-9.672,-0.589,0.603,-8.26,4.97,5.46
,-9.445,-1.742,1.833,-9.452,-0.708,-0.115,-6.86,11.2,7.63
10676.0,-9.081,-1.228,-0.665,-8.753,0.536,-2.876,-32.27,33.46,13.09
,-8.772,-1.472,-1.321,-8.291,1.031,-2.625,-30.38,36.33,14.49
,-8.629,-0.89,-1.977,-8.035,1.086,-2.486,-20.37,38.22,14.91
,-8.701,-0.014,-2.754,-7.98,0.584,-2.079,-13.09,39.83,14.28
10752.0,-8.033,-0.237,-0.861,-8.928,0.239,-1.62,-22.4,50.4,7.63
,-8.89,-0.653,0.019,-8.303,0.316,-2.73,-11.34,55.86,7.98
,-9.435,-0.086,-0.548,-7.621,-0.017,-3.565,-6.37,56.21,6.23
,-9.265,0.347,-1.251,-7.619,-0.187,-4.123,-7.35,56.7,4.62
10828.0,-7.801,-0.361,-4.314,-7.827,0.785,-6.248,5.53,64.75,8.47
,-8.313,-0.534,-4.125,-8.914,1.61,-7.076,15.89,68.25,7.63
,-7.322,-1.335,-5.769,-9.229,1.366,-7.734,20.23,65.73,8.96
,-6.277,-1.249,-5.523,-8.636,0.993,-7.006,29.12,66.15,11.55
10903.0,-7.688,0.548,-7.329,-10.818,-3.027,-7.212,15.68,59.22,0.42
,-6.083,-0.278,-8.519,-9.832,-3.154,-7.461,5.74,53.76,1.47
,-6.521,-1.017,-8.969,-8.751,-3.419,-7.349,-3.36,51.66,3.78
,-9.505,-1.924,-8.526,-8.119,-3.896,-6.542,-6.09,52.5,5.18
10979.0,-7.274,-2.943,-7.059,-8.38,4.951,-9.361,13.72,34.3,17.43
,-6.906,-1.689,-8.737,-8.622,5.164,-9.194,18.34,28.28,20.93
,-8.033,0.608,-9.694,-8.497,3.912,-8.031,20.79,23.17,21.63
,-8.552,3.147,-9.974,-8.806,1.993,-7.071,20.44,17.71,18.55
11055.0,-8.514,-0.278,-6.143,-7.507,-4.133,-7.064,-11.48,-0.63,-9.03
,-7.303,-2.264,-5.449,-7.863,-3.396,-8.244,-1.68,0.77,-10.64
,-7.071,-3.245,-5.284,-7.827,-3.946,-7.356,9.38,3.22,-8.61
,-7.595,-4.307,-5.832,-8.586,-3.994,-6.114,16.66,3.43,-3.15
11131.0,-10.452,-2.984,-5.528,-6.846,3.367,-6.693,14.49,-1.4,26.81
,-10.44,-1.579,-4.85,-7.339,5.023,-6.631,10.01,-3.92,28.49
,-8.734,-0.235,-4.929,-8.459,6.621,-6.765,6.37,-4.76,29.68
,-7.212,1.632,-5.793,-9.375,6.444,-6.08,1.82,-3.78,32.62
11207.0,-9.445,5.006,-5.769,-8.677,0.428,-6.444,-1.96,-4.06,-1.89
,-8.538,3.336,-5.485,-8.236,-0.708,-6.636,-1.4,-3.78,-10.22
,-8.272,2.01,-5.853,-8.275,-2.199,-6.274,2.73,-2.87,-17.36
,-8.54,0.938,-6.406,-8.337,-2.917,-5.829,7.14,-2.66,-22.61
11282.0,-8.143,-2.501,-5.925,-8.38,-0.696,-6.525,0.63,-6.65,-14.84
,-7.148,-1.646,-6.7,-8.454,-0.613,-6.657,-6.02,-8.68,-10.99
,-7.253,-1.39,-7.033,-7.992,-0.876,-6.793,-15.47,-9.31,-5.67
,-7.772,-1.11,-6.901,-7.784,-1.031,-6.803,-23.59,-9.66,-0.42
11358.0,-8.138,-1.46,-6.382,-8.784,-0.273,-6.42,-26.74,-14.98,5.53
,-8.631,-0.883,-6.643,-8.466,0.684,-6.614,-15.82,-16.45,4.83
,-8.679,-0.849,-6.808,-8.189,1.024,-6.77,-8.47,-17.85,5.25
,-8.734,-0.835,-6.7,-8.701,0.096,-6.525,-2.8,-18.27,5.74
11433.0,-9.263,-0.713,-6.348,-8.655,-0.074,-7.308,-2.73,-27.23,7.21
,-8.815,-0.916,-6.698,-8.667,0.436,-7.566,-0.35,-30.31,7.35
,-8.114,-0.711,-7.05,-8.928,0.663,-7.15,4.97,-31.57,5.39
,-8.284,-0.522,-6.939,-8.614,1.352,-7.052,10.22,-32.83,3.85
11509.0,-7.605,1.692,-6.609,-8.851,1.512,-5.004,3.29,-43.47,-0.42
,-7.794,2.041,-6.085,-9.172,1.18,-4.927,0.7,-42.63,-2.66
,-7.976,2.496,-6.059,-9.11,0.826,-4.59,-4.76,-42.77,-4.48
,-8.37,2.137,-5.724,-8.662,0.62,-4.463,-9.1,-42.0,-6.65
11585.0,-8.064,0.172,-4.992,-8.172,-0.132,-2.726,-18.69,-61.81,-13.23
,-7.882,-0.067,-5.552,-8.346,0.503,-3.503,-11.9,-62.44,-14.42
,-8.342,-0.256,-5.511,-7.837,0.524,-3.927,-2.94,-61.39,-15.82
,-8.492,-0.254,-4.348,-8.823,0.005,-3.439,7.0,-57.26,-16.1
11661.0,-9.06,-0.718,-2.778,-9.246,0.553,-0.682,20.51,-48.44,-15.82
,-8.533,-1.555,-0.84,-9.531,1.242,-0.239,26.95,-43.61,-12.74
,-7.966,-1.962,0.897,-9.098,1.91,0.601,39.34,-38.36,-10.64
,-8.655,-1.323,1.22,-8.277,1.498,1.938,53.55,-34.86,-9.45
11736.0,-7.909,-0.579,3.599,-10.313,-1.627,2.134,7.07,-22.05,-13.23
,-8.557,-1.572,3.503,-9.679,-2.68,2.245,15.05,-12.46,-11.97
,-9.222,-1.096,3.754,-9.222,-2.391,1.24,20.51,-4.83,-11.69
,-9.976,-1.007,3.333,-9.399,-2.209,0.304,12.39,0.63,-10.92
11812.0,-9.981,-1.785,-0.962,-9.148,-1.089,-6.449,-11.48,28.91,-3.36
,-10.318,-0.845,-3.037,-9.11,-0.493,-7.423,-13.3,29.33,-3.85
,-10.062,-0.309,-4.91,-8.904,-0.074,-7.76,-19.11,26.67,-4.13
,-9.505,-0.739,-5.846,-8.868,0.199,-8.064,-21.49,24.08,-3.22
11888.0,-8.734,-0.031,-7.672,-9.411,-0.998,-3.664,17.29,8.89,-0.28
,-8.832,-0.617,-6.674,-9.5,-1.039,-2.843,17.01,4.9,-0.49
,-8.894,-0.744,-5.554,-9.612,-0.675,-2.757,18.97,2.03,-0.28
,-9.189,-0.888,-4.482,-9.608,-0.404,-2.577,19.74,0.14,0.07
11964.0,-9.421,-0.349,-2.793,-9.665,-0.993,-2.513,13.37,-4.76,0.84
,-9.239,-0.608,-2.754,-9.627,-0.687,-3.065,8.82,-4.41,0.77
,-9.208,-1.079,-2.627,-9.27,-0.955,-3.329,6.72,-3.71,0.98
,-9.351,-1.065,-2.601,-9.055,-1.141,-3.738,7.84,-2.87,1.05
12040.0,-8.933,-1.029,-3.774,-9.701,-0.491,-2.697,6.3,-3.5,1.26
,-9.028,-0.467,-3.975,-9.675,-0.593,-2.491,9.59,-3.85,1.19
,-9.225,-0.38,-3.561,-9.866,-0.481,-2.754,9.31,-4.13,0.98
,-9.44,-0.438,-2.996,-9.481,-0.68,-2.721,7.14,-4.2,0.84
12115.0,-9.294,-0.835,-2.893,-9.526,-0.9,-2.24,-7.63,-4.34,-1.33
,-9.11,-1.089,-2.728,-9.529,-0.567,-2.601,-6.02,-3.36,-0.91
,-9.119,-1.022,-2.527,-9.395,-0.507,-3.022,-3.57,-1.96,-0.28
,-9.198,-1.242,-2.134,-9.246,-0.641,-3.527,-1.26,-0.21,0.49
12191.0,-9.155,-0.744,-3.731,-9.249,-0.273,-3.195,-4.76,0.7,0.0
,-9.155,-1.017,-3.618,-9.093,-0.333,-3.384,-1.75,0.77,0.49
,-9.253,-0.888,-3.305,-9.15,-0.536,-3.362,2.66,1.05,1.54
,-9.387,-0.531,-3.108,-9.201,-0.763,-3.242,7.07,1.05,2.38
12266.0,-9.258,-0.974,-2.941,-9.531,-0.615,-1.823,0.77,-0.49,2.59
,-9.318,-0.936,-2.525,-9.483,-1.165,-1.716,1.33,-0.21,2.94
,-9.442,-0.775,-2.024,-9.481,-1.637,-1.508,1.82,0.63,3.36
,-9.689,-0.371,-1.89,-9.392,-1.912,-1.249,1.47,2.03,3.64
12342.0,-9.165,-2.103,-0.988,-9.15,-0.948,-1.067,-2.66,13.44,8.75
,-8.942,-2.316,-0.407,-9.325,-0.737,-1.39,-2.45,17.01,10.85
,-8.954,-2.065,-0.223,-9.744,-0.581,-1.706,-0.7,21.21,13.44
,-8.985,-1.378,-0.323,-9.78,-0.546,-1.737,-0.14,24.64,14.98
12418.0,-10.237,-0.756,-2.079,-8.918,0.4,-2.17,-17.99,33.88,16.59
,-10.134,-0.402,-2.472,-8.756,0.893,-1.467,-17.08,34.86,16.1
,-9.744,0.0,-2.96,-8.725,1.218,-1.508,-13.86,35.21,16.24
,-9.038,0.223,-2.682,-8.267,1.591,-1.577,-6.79,36.96,16.73
12494.0,-7.586,1.563,-1.697,-5.812,0.773,-3.865,12.6,52.99,10.15
,-7.475,1.783,-3.144,-5.099,0.771,-4.326,7.42,52.57,8.68
,-6.908,1.476,-3.46,-4.724,0.771,-4.714,-6.09,52.43,6.79
,-6.358,1.039,-3.57,-5.406,-0.208,-5.145,-16.52,53.41,4.9
12569.0,-7.239,-1.201,-5.02,-10.66,0.388,-5.245,-23.94,50.89,-0.98
,-11.5,-1.352,-4.843,-9.112,2.18,-7.432,-14.49,53.41,2.31
,-14.52,-0.625,-3.659,-8.222,2.096,-8.275,6.16,61.46,5.67
,-13.699,-0.153,-3.321,-7.14,1.106,-8.313,26.53,63.63,4.13
12645.0,-6.253,-1.208,-9.103,-9.072,-3.07,-7.418,-25.27,14.63,1.68
,-6.681,-1.632,-8.82,-9.146,-3.989,-7.318,-24.08,15.82,1.05
,-7.736,-1.945,-8.583,-8.71,-3.013,-7.538,-23.03,16.8,-0.7
,-8.942,-2.103,-7.751,-7.798,-0.17,-7.645,-25.27,17.85,0.77
12721.0,-6.813,1.637,-8.133,-9.933,-0.529,-4.91,3.99,7.42,14.42
,-7.729,2.149,-7.456,-9.378,0.182,-5.391,0.91,7.28,12.81
,-9.861,1.302,-6.111,-7.753,0.895,-5.846,-7.14,7.56,13.58
,-10.61,-0.031,-5.118,-6.801,0.541,-5.616,-9.52,5.95,12.88
12797.0,-7.107,-0.378,-5.762,-10.005,-3.886,-4.384,17.29,2.52,3.92
,-8.102,-0.988,-5.867,-8.076,-2.178,-5.315,18.62,3.78,6.72
,-9.682,-2.692,-5.324,-6.647,-0.708,-5.695,17.29,3.57,9.03
,-10.467,-4.226,-4.415,-7.119,0.804,-6.133,17.92,2.52,11.9
12873.0,-7.676,2.692,-6.65,-8.835,4.597,-5.075,11.34,3.78,34.23
,-7.973,3.798,-6.023,-9.397,4.669,-4.96,4.9,4.2,33.11
,-8.514,4.661,-5.659,-9.964,3.955,-5.293,-0.77,4.69,27.86
,-8.48,4.905,-5.513,-9.823,2.955,-5.159,-4.9,5.88,19.46
12948.0,-8.562,2.027,-5.568,-8.397,-2.034,-6.497,14.14,11.69,-19.88
,-8.782,1.519,-6.095,-8.26,-2.003,-6.868,19.04,13.02,-24.57
,-9.775,0.912,-6.286,-8.172,-1.158,-7.186,20.16,10.08,-28.56
,-8.868,-0.723,-6.624,-8.224,-0.459,-7.251,15.82,7.07,-31.08
13024.0,-8.349,-0.227,-7.361,-8.124,-0.928,-6.255,-4.2,-3.92,-16.59
,-8.189,-0.419,-7.188,-7.911,-0.572,-6.456,-12.53,-4.41,-11.9
,-8.088,-1.307,-6.214,-8.282,-0.751,-6.626,-18.97,-3.78,-8.4
,-8.555,-1.371,-5.977,-8.641,-1.577,-6.49,-22.4,-5.32,-6.51
13099.0,-8.593,-1.878,-6.82,-8.799,-1.129,-6.858,-13.79,-14.77,6.93
,-8.227,-1.486,-7.633,-8.875,0.256,-6.595,-5.67,-16.87,7.98
,-7.83,-1.218,-7.877,-8.205,1.591,-6.796,0.21,-17.5,8.05
,-8.133,-1.184,-7.461,-8.382,1.756,-6.628,6.09,-16.45,8.12
13175.0,-8.741,1.01,-6.633,-8.576,-0.055,-6.612,-7.28,-33.81,6.72
,-8.856,0.328,-6.877,-8.224,1.017,-6.619,-10.5,-36.75,7.21
,-8.662,-0.4,-7.064,-8.311,1.493,-5.841,-8.12,-37.94,6.23
,-8.653,-0.613,-6.927,-8.052,2.137,-5.934,0.91,-37.45,4.34
13251.0,-7.382,1.821,-5.642,-9.311,0.809,-3.855,5.67,-41.44,-0.77
,-7.877,1.096,-5.111,-9.622,0.912,-3.927,1.54,-41.65,-1.19
,-8.65,0.672,-5.183,-8.722,1.491,-4.444,4.83,-43.82,-3.29
,-9.05,0.579,-4.341,-8.392,2.005,-5.707,10.57,-45.29,-5.11
13327.0,-8.504,1.598,-6.937,-7.964,0.622,-3.381,-12.39,-76.58,-14.84
,-8.399,0.538,-5.755,-8.677,0.622,-3.623,-12.53,-70.84,-16.38
,-8.701,0.273,-4.343,-9.127,0.33,-4.271,-2.87,-63.0,-17.78
,-8.363,0.479,-4.259,-8.626,-0.495,-2.728,6.02,-58.1,-20.44
13402.0,-8.748,-1.39,-1.055,-6.695,1.498,2.364,26.67,-52.43,-16.59
,-8.538,-1.721,0.613,-7.509,-0.756,4.791,41.3,-50.47,-14.91
,-8.662,-0.541,-0.007,-8.248,-2.271,6.707,52.64,-53.97,-18.13
,-7.303,1.675,0.773,-9.038,-2.757,7.715,45.71,-55.79,-20.86
13478.0,-10.141,-3.058,7.77,-9.976,-1.366,3.128,7.0,-6.02,-7.98
,-11.084,-2.917,7.251,-10.036,-1.275,0.323,2.1,3.43,-4.9
,-10.823,-2.888,6.401,-9.842,-1.003,-1.761,-9.24,11.9,-2.73
,-10.22,-2.257,5.248,-9.67,-1.496,-4.36,-18.41,22.47,-0.91
13554.0,-9.476,-1.11,-6.509,-9.033,2.596,-9.995,-28.63,38.85,1.96
,-8.794,-1.108,-7.999,-9.174,2.69,-9.533,-13.51,35.98,3.99
,-8.239,-0.335,-8.935,-9.105,1.417,-8.402,8.47,33.53,6.58
,-8.65,1.182,-9.663,-9.1,-0.4,-6.954,29.05,28.98,7.77
13630.0,-9.019,-1.632,-5.284,-9.548,-0.105,-2.242,4.2,-4.9,-1.12
,-9.373,-2.063,-3.982,-9.311,-0.436,-1.694,10.43,-6.79,-0.21
,-9.56,-1.613,-2.867,-9.447,-0.675,-1.445,16.8,-7.56,0.77
,-9.734,-0.708,-2.357,-9.514,-1.007,-1.402,18.27,-8.54,0.84
13705.0,-9.509,-0.936,-1.082,-9.655,-0.053,-2.718,12.39,-2.1,2.38
,-9.82,-0.4,-1.424,-9.249,-0.232,-3.087,14.7,0.0,2.73
,-9.608,-0.531,-1.362,-9.028,-0.593,-3.266,12.04,1.68,3.08
,-9.761,-0.275,-1.866,-9.15,-0.806,-3.376,11.2,2.45,3.01
13781.0,-9.368,-0.706,-3.218,-9.411,-0.462,-3.393,5.53,3.92,1.61
,-9.67,-0.172,-3.668,-9.375,-0.711,-3.283,7.35,2.59,1.33
,-9.421,-0.098,-3.637,-9.407,-0.637,-3.18,5.25,1.4,0.91
,-9.306,-0.223,-3.403,-9.287,-0.601,-2.692,4.2,0.98,0.98
13857.0,-9.347,-0.55,-2.352,-9.445,-0.548,-2.704,4.41,0.63,1.33
,-9.488,-0.565,-2.393,-9.445,-0.5,-2.929,2.66,1.26,1.19
,-9.49,-0.481,-2.417,-9.552,-0.321,-3.147,1.05,1.68,0.91
,-9.536,-0.392,-2.603,-9.713,-0.426,-3.084,-1.05,2.03,0.56
13932.0,-9.713,-0.474,-3.242,-9.055,-0.562,-4.324,1.26,2.87,0.42
,-9.605,-0.605,-3.393,-9.167,-0.723,-4.18,2.87,2.17,0.42
,-9.483,-0.306,-3.704,-9.375,-0.519,-4.106,4.2,1.19,0.35
,-9.292,-0.349,-4.269,-9.519,-0.227,-3.673,3.29,-0.14,0.0
14008.0,-9.548,-0.263,-3.278,-9.438,-0.871,-2.13,8.26,-5.6,0.35
,-9.395,-0.345,-2.979,-9.469,-0.897,-1.704,5.88,-6.16,0.21
,-9.361,-0.694,-2.63,-9.387,-0.931,-1.137,4.97,-6.23,0.35
,-9.328,-0.799,-2.429,-9.239,-0.955,-0.591,5.32,-5.6,0.7
14084.0,-9.316,-1.175,0.022,-9.679,-0.577,-0.223,5.46,5.39,4.2
,-9.43,-1.208,0.646,-9.275,-1.077,-0.395,5.53,10.15,5.39
,-9.852,-1.074,1.077,-9.115,-1.742,-0.474,6.02,14.7,6.51
,-10.206,-0.39,0.074,-9.031,-1.89,-0.51,2.24,17.78,6.44
14160.0,-9.275,-1.866,-0.699,-8.67,0.613,-2.45,-8.82,38.85,12.67
,-9.572,-1.735,-1.07,-8.004,1.065,-2.127,-9.31,40.74,13.44
,-9.294,-0.658,-1.656,-7.554,1.799,-2.599,-8.61,40.95,14.7
,-8.832,0.524,-2.197,-7.329,1.709,-2.675,-11.41,40.39,15.4
14235.0,-7.471,1.263,-2.613,-9.141,0.505,-2.134,-23.17,48.02,7.49
,-7.559,0.682,-2.144,-8.902,1.354,-4.326,-23.1,51.87,8.05
,-7.949,-0.055,-1.019,-7.928,1.311,-4.949,-17.57,56.63,9.31
,-9.048,-0.045,-1.175,-9.215,0.522,-5.662,-6.09,58.8,10.08
14311.0,-9.481,0.184,-6.336,-7.985,2.453,-7.176,3.64,44.1,4.76
,-8.777,-0.352,-6.765,-8.217,1.687,-7.337,7.84,45.36,4.48
,-7.248,0.395,-6.229,-9.457,-0.132,-6.401,18.55,43.4,3.22
,-8.624,1.594,-6.334,-10.45,-1.524,-5.609,23.8,34.65,0.21
14387.0,-9.28,-2.048,-6.341,-8.007,1.701,-7.724,-22.61,37.17,1.19
,-7.796,-1.716,-6.547,-8.923,0.804,-7.377,-12.81,38.01,0.49
,-8.21,-0.773,-5.867,-8.82,-0.871,-6.822,-5.67,35.77,1.89
,-8.191,0.955,-6.999,-8.581,-2.513,-6.293,-1.12,27.44,1.82
14463.0,-9.569,-3.635,-5.188,-7.932,0.641,-7.004,-13.65,19.04,6.16
,-9.983,-3.714,-5.475,-8.047,3.226,-7.746,-1.26,13.23,7.56
,-9.033,-3.35,-6.001,-7.947,5.329,-7.875,11.13,9.73,9.59
,-8.136,-2.115,-6.332,-8.05,5.561,-7.588,22.75,8.4,12.18
14538.0,-8.971,3.431,-5.564,-7.631,-3.656,-5.384,1.75,2.17,-6.79
,-9.708,1.06,-3.965,-9.083,-3.915,-6.19,-8.33,3.5,-9.73
,-9.06,-0.78,-3.881,-9.813,-4.207,-6.499,-10.5,2.66,-8.05
,-7.607,-2.261,-4.408,-9.347,-2.749,-6.753,-8.19,3.29,-5.6
14614.0,-8.062,-0.991,-6.394,-8.638,1.05,-4.527,37.66,-3.99,11.55
,-7.921,-0.22,-5.403,-8.222,2.474,-5.214,30.66,-4.2,14.63
,-8.404,0.33,-4.927,-8.43,3.735,-6.044,15.68,-2.94,16.94
,-8.466,0.531,-4.879,-9.442,3.613,-5.602,2.87,-0.63,18.2
14690.0,-9.615,2.3,-5.176,-9.024,0.806,-5.516,-4.9,3.08,2.8
,-8.758,1.134,-5.008,-8.725,-0.019,-5.865,0.56,3.36,-0.56
,-8.614,1.173,-5.037,-8.38,-0.83,-6.083,9.66,4.55,-4.76
,-9.091,1.299,-5.018,-8.445,-1.326,-6.073,14.21,5.67,-9.38
14765.0,-8.681,-1.273,-6.14,-8.909,-2.17,-5.609,7.35,5.11,-9.24
,-9.134,-0.983,-6.327,-8.043,-0.778,-6.277,6.3,4.69,-8.47
,-9.598,-1.137,-6.123,-7.236,-0.062,-6.956,0.21,3.29,-6.16
,-9.49,-1.649,-6.011,-7.758,-0.108,-6.937,-6.86,0.0,-1.19
14841.0,-8.801,-0.627,-6.624,-8.186,-0.263,-6.719,-17.78,-10.78,9.03
,-9.179,-0.969,-6.049,-8.471,-0.23,-6.741,-12.74,-11.13,8.47
,-9.048,-1.062,-6.068,-8.552,-0.45,-6.671,-4.48,-11.69,7.42
,-8.38,-0.531,-6.714,-8.536,-0.366,-6.64,2.52,-12.32,7.42
14917.0,-8.969,-0.244,-6.042,-9.189,1.606,-6.19,17.71,-16.8,9.24
,-8.145,0.452,-6.738,-9.062,1.898,-6.305,16.31,-23.38,9.24
,-8.052,0.79,-6.303,-8.435,1.785,-6.894,13.65,-25.76,8.75
,-8.581,0.885,-6.155,-8.344,1.653,-7.054,10.71,-26.04,9.24
14993.0,-8.746,1.486,-6.7,-8.641,2.381,-5.748,11.34,-33.95,4.48
,-8.734,1.601,-6.552,-8.153,2.551,-6.174,14.35,-34.79,1.26
,-8.464,1.584,-6.243,-8.244,1.864,-5.65,16.03,-36.61,-2.17
,-8.507,1.821,-5.559,-8.701,0.723,-4.817,15.75,-38.71,-3.29
15068.0,-8.78,-0.168,-4.386,-9.452,-0.055,-3.678,-17.71,-55.72,-9.94
,-8.66,0.089,-5.363,-9.024,-0.409,-4.855,-9.94,-61.67,-13.58
,-8.476,0.278,-4.767,-8.131,-0.156,-3.85,-4.62,-65.38,-16.38
,-8.796,0.079,-3.4,-8.421,-0.235,-2.455,2.17,-64.33,-15.89
15144.0,-8.559,-0.651,-0.701,-8.148,0.608,2.462,15.05,-61.32,-18.34
,-8.502,-0.022,-0.235,-8.332,-0.44,3.36,25.06,-56.49,-20.37
,-8.428,0.981,-0.139,-8.287,-1.397,4.082,28.28,-54.46,-23.87
,-8.222,1.536,0.517,-8.619,-2.58,4.123,21.56,-52.99,-26.67
15220.0,-8.847,-3.128,4.453,-10.72,-1.048,3.295,16.52,-20.16,-9.59
,-9.15,-2.788,4.728,-10.605,-0.254,2.106,27.65,-11.2,-5.74
,-9.887,-2.668,4.666,-10.33,-0.986,1.283,35.21,-1.19,-1.54
,-10.526,-2.087,4.231,-10.258,-1.914,-0.529,36.82,7.84,1.19
15296.0,-9.95,-2.063,-2.682,-8.933,0.627,-8.351,-30.31,33.81,-3.92
,-9.378,-1.462,-4.36,-8.897,0.531,-8.914,-26.6,33.11,-2.94
,-9.194,-0.845,-5.855,-8.882,0.101,-8.753,-17.15,31.5,-1.12
,-8.99,-0.203,-7.389,-8.935,-0.335,-8.392,-4.34,29.12,1.19
15371.0,-8.808,0.459,-7.559,-9.507,-1.273,-2.185,26.81,-3.71,2.73
,-8.787,0.814,-6.341,-9.572,-1.275,-1.292,18.76,-10.01,0.77
,-8.952,0.179,-4.707,-9.703,-1.074,-1.144,6.93,-14.14,-0.84
,-9.208,-0.641,-3.367,-9.677,-0.735,-1.05,-0.77,-15.96,-1.82
15447.0,-9.457,-0.278,-0.823,-9.667,-1.342,0.199,-7.84,-13.37,-0.91
,-9.378,-0.105,-0.591,-10.17,-1.019,-0.172,-11.83,-10.85,-0.7
,-9.49,-0.438,-0.335,-10.44,-0.44,-1.512,-15.47,-7.28,-0.49
,-9.576,-0.897,-0.089,-9.859,-0.117,-2.611,-16.87,-3.43,0.0
15523.0,-9.34,-0.029,-3.585,-9.555,-0.098,-4.152,-5.25,5.18,0.7
,-8.99,-0.306,-4.082,-9.763,-0.244,-3.996,-0.84,5.81,1.26
,-9.028,-0.184,-4.326,-9.615,-0.187,-4.003,5.88,6.02,2.03
,-9.246,-0.055,-4.279,-9.373,-0.452,-3.632,11.9,5.81,2.59
15598.0,-9.313,-0.885,-3.288,-9.933,-0.045,-1.902,9.1,-3.01,1.96
,-9.457,-0.948,-2.9,-9.636,0.514,-1.747,12.6,-2.8,2.17
,-9.586,-0.546,-2.596,-9.464,0.354,-1.79,14.63,-2.73,2.24
,-9.663,-0.33,-2.017,-9.514,-0.421,-2.199,12.88,-2.38,2.1
15674.0,-9.478,-0.73,-2.56,-9.679,-0.364,-2.871,-16.52,-3.71,-3.08
,-9.407,-0.897,-2.596,-9.777,-0.086,-3.221,-13.65,-2.94,-2.45
,-9.43,-0.938,-2.637,-9.715,-0.117,-3.393,-10.01,-1.89,-1.61
,-9.485,-0.778,-2.496,-9.22,-0.153,-3.393,-5.18,-0.7,-0.84
15750.0,-9.129,-0.701,-3.159,-9.775,-0.242,-2.491,-14.77,-7.49,-2.24
,-9.404,-1.127,-2.704,-9.495,-0.072,-2.319,-9.52,-5.39,-1.33
,-9.66,-0.718,-2.513,-9.385,-0.206,-2.082,-3.85,-4.41,-0.63
,-9.73,-0.531,-2.371,-9.483,-0.4,-1.716,-2.24,-4.27,-0.35
15826.0,-9.56,-0.55,-1.295,-9.646,-1.321,-0.024,-5.88,-0.21,0.0
,-9.598,-0.665,-0.969,-9.469,-1.342,0.158,-6.02,1.75,0.56
,-9.584,-1.031,-0.395,-9.45,-1.175,0.084,-6.44,4.34,1.26
,-9.713,-1.165,-0.366,-8.966,-1.62,0.976,-5.88,6.65,2.24
15901.0,-9.141,-1.859,1.759,-9.385,-1.304,1.079,0.91,29.12,10.57
,-9.426,-1.565,1.795,-9.763,-1.206,-0.194,4.55,35.35,12.25
,-9.457,-1.338,1.821,-9.514,-0.785,-1.711,7.07,41.16,13.93
,-9.49,-1.22,1.491,-8.866,-0.215,-2.979,6.37,47.04,15.89
15977.0,-8.332,0.371,-4.022,-7.717,0.151,-3.96,5.88,55.86,20.3
,-7.925,0.785,-4.728,-7.356,0.182,-4.661,5.74,55.09,19.46
,-7.478,0.629,-4.752,-7.454,0.474,-3.879,4.34,55.72,18.48
,-7.597,0.019,-3.932,-8.957,0.857,-3.001,9.03,59.36,18.62
16053.0,-10.151,1.005,-1.553,-8.452,1.072,-7.923,23.66,58.8,9.59
,-10.223,0.826,-1.46,-8.784,0.034,-8.162,18.69,57.26,9.24
,-8.698,0.771,-4.731,-9.311,-0.737,-6.875,6.58,45.5,8.33
,-7.581,0.838,-6.047,-8.098,0.134,-5.836,-1.68,39.76,9.59
16129.0,-7.633,1.579,-6.143,-9.265,-0.909,-4.652,19.18,45.22,2.52
,-8.028,2.18,-6.025,-8.866,-0.847,-4.96,7.91,44.52,-0.63
,-9.088,1.141,-5.592,-8.66,-1.048,-4.874,-11.13,43.12,-1.26
,-9.667,-0.246,-4.733,-8.299,-1.347,-5.001,-23.38,41.72,0.07
16204.0,-8.27,-2.233,-5.585,-8.954,3.412,-8.095,-12.39,22.33,16.59
,-8.179,-1.747,-6.281,-8.856,4.436,-8.502,-6.16,22.26,20.3
,-7.813,-0.378,-7.052,-8.282,3.982,-8.665,6.37,21.91,19.18
,-8.624,1.62,-7.155,-8.385,2.412,-7.765,17.71,19.18,15.33
16280.0,-9.287,0.771,-7.251,-8.878,0.727,-5.724,-13.58,8.4,-3.36
,-9.433,-0.861,-6.899,-8.038,2.302,-5.863,-9.59,5.67,-8.96
,-9.785,-1.847,-6.238,-8.124,2.386,-5.65,0.21,3.57,-13.02
,-9.698,-1.503,-5.992,-8.643,1.22,-5.915,12.6,1.47,-15.4
16355.0,-8.287,-1.314,-5.808,-8.191,-3.424,-4.602,-7.07,-9.24,-8.26
,-7.787,-3.628,-5.205,-7.904,-1.874,-5.162,-9.45,-6.58,-3.85
,-7.87,-5.073,-4.721,-8.598,-1.326,-4.848,-2.8,-2.73,-1.61
,-8.251,-5.142,-4.233,-8.983,-0.62,-4.173,7.7,-0.91,2.52
16431.0,-8.904,0.771,-4.848,-9.746,4.625,-5.24,-1.12,3.29,25.97
,-8.935,2.242,-4.444,-9.545,3.841,-5.37,-0.14,4.9,21.63
,-8.863,3.69,-4.389,-9.574,2.539,-5.312,1.4,7.07,15.4
,-9.124,4.726,-5.09,-9.584,0.737,-4.771,1.47,9.03,8.26
16507.0,-8.531,-1.058,-5.056,-8.55,-1.18,-7.05,16.8,10.57,-21.49
,-8.303,-1.287,-5.875,-9.172,-1.127,-6.7,23.24,10.36,-20.37
,-8.081,-0.641,-6.92,-8.825,-1.048,-6.583,26.46,8.75,-19.67
,-8.112,-0.725,-7.621,-8.277,-1.141,-6.303,22.47,6.86,-18.97
16583.0,-8.193,-1.23,-6.305,-8.256,-0.644,-5.81,-21.28,-3.92,-1.89
,-8.203,-1.402,-6.123,-8.789,-0.029,-5.994,-27.02,-4.41,3.64
,-8.588,-0.988,-6.037,-8.555,0.464,-6.202,-27.23,-7.7,8.4
,-8.033,-0.756,-6.267,-8.605,0.065,-6.052,-25.76,-10.43,10.36
16659.0,-8.99,-0.503,-5.944,-8.65,0.376,-5.657,-3.43,-14.84,6.23
,-8.868,-0.672,-6.056,-8.818,0.531,-6.006,3.5,-15.33,5.39
,-8.811,-0.084,-6.052,-8.607,0.567,-6.413,11.13,-16.1,3.71
,-8.705,0.318,-6.143,-8.715,0.251,-6.571,15.19,-16.17,1.61
16734.0,-8.603,0.077,-6.959,-8.32,2.412,-7.176,9.59,-25.06,3.85
,-8.935,0.101,-6.767,-8.057,2.448,-7.143,14.07,-25.55,2.59
,-9.177,0.763,-6.542,-8.672,1.189,-6.155,20.79,-27.02,0.98
,-9.174,1.524,-6.631,-8.425,0.105,-5.894,22.19,-31.92,-0.91
16810.0,-8.605,-0.227,-5.243,-8.327,0.928,-4.269,-4.55,-34.3,-7.0
,-8.933,-0.165,-4.302,-8.258,0.431,-3.561,1.33,-32.13,-6.23
,-8.866,0.244,-4.233,-8.392,0.156,-2.927,5.81,-32.62,-5.18
,-8.559,0.873,-4.362,-8.514,0.469,-3.611,6.65,-35.49,-4.34
16886.0,-8.514,0.945,-3.766,-8.624,-0.081,-2.955,17.01,-46.62,-6.86
,-9.452,1.393,-4.719,-8.296,-0.893,-2.077,19.04,-51.31,-10.15
,-9.206,1.541,-5.042,-8.33,-1.079,-1.122,9.94,-55.72,-14.77
,-8.796,0.845,-3.812,-8.447,-0.701,-0.404,7.07,-53.41,-16.87
16962.0,-8.739,-0.529,0.024,-9.162,-0.711,3.553,38.36,-40.46,-18.97
,-8.938,-0.871,1.429,-9.296,-0.019,2.991,32.97,-36.4,-18.2
,-9.165,-1.046,2.376,-9.387,-0.357,2.812,30.52,-30.66,-16.1
,-9.038,-1.481,3.979,-9.629,-0.78,2.285,31.57,-22.4,-13.09
17037.0,-9.725,-1.455,1.508,-9.421,-2.927,-2.747,-12.95,9.66,-9.45
,-9.617,-1.931,0.412,-9.495,-1.74,-3.728,-17.99,15.54,-8.05
,-9.725,-2.568,-0.766,-9.593,-0.687,-5.157,-22.12,19.6,-7.0
,-9.682,-2.702,-2.094,-9.428,-0.16,-6.073,-21.0,22.82,-4.97
17113.0,-9.007,-0.096,-6.454,-8.512,1.034,-5.616,7.07,19.67,3.78
,-8.624,-0.328,-6.578,-8.387,0.859,-4.972,9.52,17.01,4.27
,-8.294,-0.007,-6.329,-8.658,0.309,-4.125,14.35,13.93,4.55
,-8.399,0.572,-5.903,-9.208,-0.12,-3.446,17.36,10.29,4.2
17188.0,-9.744,-0.486,-2.793,-9.268,-0.732,-3.092,1.05,-0.84,-0.21
,-10.299,-0.55,-2.156,-9.318,-1.381,-3.623,-1.4,-1.54,-1.4
,-10.323,-0.098,-2.424,-9.294,-1.866,-3.628,-6.16,-2.59,-3.01
,-9.598,0.06,-2.86,-9.536,-1.957,-3.24,-15.75,-3.29,-4.48
17264.0,-9.593,-1.378,-2.886,-9.337,-0.366,-3.97,4.62,1.89,0.21
,-9.593,-0.443,-2.874,-9.44,-0.893,-4.037,10.71,2.52,1.33
,-9.509,0.304,-3.408,-9.454,-0.823,-4.113,9.38,1.75,1.05
,-9.299,0.263,-3.764,-9.359,-0.242,-4.094,3.71,1.05,0.35
17340.0,-9.239,-0.041,-4.092,-9.227,-0.876,-2.994,7.91,-3.71,-0.7
,-9.136,-0.112,-3.963,-9.311,-0.658,-2.931,5.81,-4.62,-0.91
,-9.009,-0.33,-3.774,-9.304,-0.409,-2.886,4.27,-5.32,-1.33
,-9.139,-0.622,-3.345,-9.328,-0.409,-3.096,2.59,-5.81,-1.61
17416.0,-9.304,-0.629,-3.187,-9.526,-0.658,-2.795,-2.03,-5.53,-1.89
,-9.155,-0.964,-3.099,-9.615,-0.459,-2.843,-3.01,-5.25,-1.75
,-9.112,-1.273,-2.821,-9.696,-0.29,-3.305,-0.91,-4.34,-0.98
,-9.373,-1.129,-2.781,-9.56,-0.514,-3.752,3.92,-3.43,-0.07
17492.0,-9.323,-0.838,-3.891,-9.351,-0.309,-3.209,1.47,-4.62,-0.63
,-9.203,-0.838,-3.953,-9.442,-0.268,-3.171,5.18,-4.9,-0.28
,-9.141,-0.646,-3.754,-9.344,-0.486,-3.178,8.68,-5.39,0.14
,-9.418,-0.323,-3.678,-9.287,-0.955,-2.898,9.59,-6.37,0.07
17567.0,-9.261,-1.297,-2.649,-9.507,-0.761,-1.431,2.87,-7.35,0.35
,-9.301,-1.409,-2.271,-9.509,-0.826,-0.976,6.3,-6.3,1.47
,-9.454,-1.132,-2.046,-9.756,-0.998,-0.51,9.45,-5.25,2.31
,-9.529,-0.859,-1.756,-9.78,-0.72,-0.641,9.94,-3.5,3.15
17643.0,-9.409,-0.696,-0.593,-9.179,-0.928,-0.05,-10.22,6.58,3.99
,-9.363,-1.046,-0.459,-9.244,-1.625,-0.098,-17.57,8.82,4.62
,-9.225,-1.029,-0.163,-9.442,-1.907,-0.491,-21.63,11.9,5.04
,-9.301,-0.823,0.235,-9.335,-1.417,-1.431,-24.08,15.75,6.58
17719.0,-9.014,-0.658,-1.711,-7.98,0.983,-1.991,-10.99,33.95,15.12
,-8.588,0.184,-1.972,-8.559,0.007,-0.517,-5.81,35.07,14.42
,-7.997,0.96,-1.649,-8.801,0.103,-0.225,-3.92,38.57,13.23
,-7.827,1.067,-2.017,-8.569,-0.053,-0.83,-10.22,41.65,11.83
17795.0,-8.784,-0.553,-1.218,-7.99,-2.17,-3.838,-29.61,51.59,12.6
,-9.428,-1.125,-1.936,-8.416,-1.929,-4.436,-21.7,56.49,15.12
,-8.945,-1.563,-2.584,-8.873,-0.907,-6.846,-10.43,58.45,16.38
,-8.196,-1.797,-3.587,-9.11,0.57,-7.346,5.74,61.95,17.99
17870.0,-9.385,1.871,-7.954,-7.437,2.589,-7.282,53.27,42.21,19.32
,-8.086,1.955,-6.923,-8.99,1.259,-6.657,42.0,42.98,14.98
,-6.92,2.369,-6.585,-10.144,0.043,-5.619,30.87,42.14,11.83
,-6.025,2.709,-6.829,-9.325,-0.938,-5.951,17.99,38.71,10.99
17946.0,-8.411,-0.936,-6.21,-9.112,0.488,-6.693,-30.17,35.14,6.02
,-8.311,0.302,-6.363,-8.954,-0.438,-6.047,-17.64,31.5,5.74
,-8.679,1.074,-6.908,-8.626,-1.417,-5.441,-13.16,26.53,5.53
,-8.897,0.907,-6.99,-8.253,-1.752,-5.48,-15.12,24.08,5.81
18021.0,-7.755,-1.18,-5.836,-9.182,0.373,-6.815,-2.31,19.11,9.94
,-8.349,-0.888,-6.095,-8.689,1.91,-7.712,3.57,19.11,10.5
,-9.572,-0.668,-6.219,-7.712,3.731,-8.011,6.37,16.59,11.27
,-9.533,-0.316,-6.451,-7.475,4.424,-7.736,8.68,12.67,11.76
18097.0,-7.81,4.125,-7.071,-8.595,-2.096,-5.662,9.1,3.5,-6.09
,-8.873,2.972,-6.121,-9.804,-3.001,-5.762,1.12,4.34,-9.52
,-9.031,1.05,-5.272,-10.041,-2.647,-6.016,-3.5,3.43,-12.25
,-8.2,-0.713,-5.372,-8.227,-1.479,-6.423,-2.24,2.73,-12.11
18173.0,-7.698,-0.912,-5.963,-8.689,1.311,-4.958,15.47,-2.94,2.31
,-7.875,-1.788,-5.099,-8.859,1.816,-5.121,2.59,-1.26,7.7
,-7.736,-1.596,-5.24,-9.591,2.347,-5.372,0.7,0.63,10.08
,-8.387,0.23,-5.044,-9.313,3.379,-5.824,4.69,2.66,9.87
18249.0,-8.799,3.41,-6.047,-7.954,-0.347,-6.267,10.64,6.09,-9.17
,-9.241,2.022,-5.276,-7.808,0.656,-7.033,5.74,5.95,-12.18
,-8.801,0.392,-5.561,-8.363,-0.093,-6.755,4.34,4.06,-13.93
,-8.133,-1.029,-5.662,-8.772,-1.216,-6.633,7.77,3.29,-13.79
18325.0,-8.586,-1.761,-6.688,-9.069,-0.548,-5.745,-12.74,-3.64,-6.72
,-8.43,-0.96,-6.569,-8.583,-0.967,-6.303,-12.74,-5.53,-5.11
,-8.461,-0.409,-6.315,-8.325,-1.572,-6.557,-13.65,-6.51,-4.41
,-8.796,-0.57,-5.793,-8.545,-1.24,-6.849,-16.73,-6.51,-3.57
18400.0,-8.325,-1.034,-6.817,-9.072,0.079,-6.884,0.42,-12.46,2.73
,-8.38,-0.924,-6.612,-9.057,-0.175,-7.04,7.07,-11.55,2.17
,-8.677,-0.498,-6.521,-8.667,-0.895,-6.968,11.83,-11.62,3.08
,-8.832,-0.103,-6.523,-8.165,-1.385,-7.006,13.86,-12.32,4.34
18476.0,-8.208,-1.146,-7.186,-8.253,1.965,-7.184,14.42,-20.02,10.5
,-8.473,-0.651,-6.947,-8.16,2.426,-6.595,18.76,-23.8,12.6
,-8.576,0.05,-7.05,-8.019,2.424,-6.468,21.91,-27.65,14.0
,-8.263,1.158,-7.341,-7.753,2.522,-6.358,22.19,-31.85,14.28
18552.0,-8.074,1.905,-5.621,-9.261,0.526,-4.649,-2.17,-43.96,2.1
,-8.696,1.18,-5.14,-9.005,0.771,-4.405,-1.89,-47.18,0.35
,-8.552,0.586,-5.324,-8.497,1.184,-4.401,3.22,-51.31,-2.94
,-8.787,0.584,-5.047,-8.129,1.579,-4.429,12.18,-53.27,-5.67
18628.0,-8.308,1.783,-4.946,-8.507,-0.29,-1.519,23.31,-62.93,-12.53
,-8.33,1.869,-4.704,-8.291,0.029,-1.141,17.99,-64.33,-14.07
,-8.681,0.809,-3.762,-8.421,0.402,0.278,15.75,-62.79,-14.84
,-8.681,-0.268,-2.271,-8.985,0.792,0.68,18.34,-59.71,-15.26
18703.0,-9.093,0.883,1.838,-8.37,0.079,3.68,32.41,-45.78,-20.3
,-9.04,0.763,2.527,-8.507,-1.043,4.305,28.42,-41.23,-19.39
,-8.801,0.828,2.678,-9.17,-2.029,4.463,23.31,-36.54,-19.81
,-8.208,0.292,3.924,-10.091,-2.718,4.173,18.34,-29.47,-20.16
18779.0,-10.404,-3.398,3.463,-9.217,-1.433,-2.003,-15.33,13.79,-12.81
,-10.318,-3.599,1.919,-9.256,-0.787,-3.333,-21.42,20.86,-11.76
,-9.818,-3.609,0.957,-9.507,-0.462,-4.989,-23.8,28.07,-9.8
,-9.567,-2.565,-0.66,-9.548,-0.39,-6.738,-20.23,34.02,-7.42
18854.0,-8.99,-0.33,-7.741,-8.44,1.505,-8.67,1.33,32.34,0.7
,-8.763,-0.067,-8.301,-8.229,0.414,-7.657,11.2,28.0,2.03
,-8.741,0.424,-8.708,-8.658,-1.07,-6.131,18.62,22.68,2.1
,-8.588,0.995,-8.497,-9.483,-1.895,-4.752,19.39,15.82,0.56
18930.0,-9.856,-1.814,-3.872,-9.251,-0.775,-2.024,3.78,-7.21,-3.29
,-9.828,-1.328,-3.13,-9.232,-1.06,-1.622,7.14,-8.61,-2.8
,-9.701,-0.938,-2.752,-9.519,-0.998,-1.644,7.63,-9.17,-2.38
,-9.447,-0.78,-2.213,-9.552,-0.608,-2.127,7.0,-8.33,-1.89
19006.0,-9.239,-0.763,-2.216,-9.368,-0.787,-2.824,-1.26,-1.82,-1.82
,-9.222,-0.861,-2.474,-9.543,-0.835,-3.309,-1.33,-0.21,-1.19
,-9.131,-0.964,-2.716,-9.356,-0.821,-3.501,-0.35,0.98,-0.7
,-9.32,-0.912,-2.807,-9.244,-0.804,-3.63,1.75,1.82,-0.14
19082.0,-9.325,-0.782,-4.018,-9.265,-0.883,-3.833,4.9,2.17,0.77
,-9.234,-0.653,-4.348,-9.34,-0.751,-3.451,4.83,0.91,0.49
,-9.203,-0.672,-4.367,-9.361,-0.498,-3.216,4.06,-0.56,0.35
,-9.237,-0.792,-4.243,-9.399,-0.517,-3.18,3.78,-1.33,0.42
19158.0,-9.251,-0.637,-2.977,-9.275,-0.838,-3.046,2.1,-3.08,0.35
,-9.27,-0.658,-3.082,-9.33,-0.893,-2.852,1.68,-2.87,0.28
,-9.27,-0.627,-3.319,-9.524,-0.663,-2.967,1.26,-2.94,0.07
,-9.27,-0.727,-3.3,-9.435,-0.359,-3.041,1.19,-3.22,-0.14
19233.0,-9.435,-0.294,-3.307,-9.426,-0.998,-2.845,-0.49,-2.73,0.07
,-9.304,-0.495,-3.558,-9.545,-0.881,-2.565,-3.29,-3.08,-0.28
,-9.217,-0.754,-3.475,-9.483,-0.914,-2.414,-4.2,-3.36,-0.21
,-9.299,-0.981,-3.096,-9.438,-1.232,-2.321,-3.43,-3.36,0.14
19309.0,-9.387,-1.776,-2.022,-9.005,-1.194,-2.328,-10.22,0.0,2.87
,-9.363,-1.888,-1.73,-8.904,-1.204,-2.429,-8.26,2.1,4.41
,-9.411,-1.524,-1.85,-8.93,-1.309,-2.273,-4.97,3.78,5.67
,-9.342,-1.134,-2.335,-9.201,-1.407,-1.972,-5.04,4.55,6.23
19385.0,-9.416,-0.974,-1.436,-9.146,0.297,-1.187,2.87,13.3,12.46
,-9.672,-0.225,-1.113,-8.885,0.201,-1.481,2.45,15.4,11.9
,-9.658,0.249,-1.077,-8.674,0.237,-1.352,-2.87,17.29,10.92
,-9.442,0.483,-1.134,-8.502,0.306,-1.022,-11.9,18.9,9.73
19461.0,-8.665,0.282,-0.507,-8.643,-0.438,-0.06,-27.51,31.08,6.16
,-8.935,0.06,-0.263,-8.832,-0.488,-0.675,-29.4,34.44,6.37
,-8.839,-0.108,0.426,-8.983,-0.022,-2.388,-28.98,39.2,7.56
,-8.851,-0.507,0.421,-8.167,0.223,-3.798,-25.55,45.29,8.89
19536.0,-7.279,-0.816,-4.192,-10.007,-1.067,-4.614,-8.33,59.15,8.68
,-6.482,-2.271,-4.018,-9.73,0.043,-5.31,-2.59,63.7,12.11
,-6.782,-2.601,-3.726,-8.772,1.29,-5.882,14.0,68.67,16.52
,-8.526,-1.744,-4.123,-8.208,2.307,-5.958,30.59,67.55,19.11
19612.0,-7.82,3.419,-6.502,-9.1,-0.96,-8.445,13.23,46.62,10.92
,-7.526,3.769,-8.169,-10.062,-2.474,-6.875,0.84,38.5,7.14
,-7.31,2.876,-9.055,-9.454,-3.003,-5.975,-15.89,32.97,6.86
,-7.947,1.273,-9.143,-8.557,-2.625,-6.121,-27.37,32.9,7.0
19687.0,-7.921,-2.257,-6.506,-8.306,3.853,-8.818,6.44,25.13,5.04
,-8.04,-1.656,-7.069,-7.87,4.022,-9.287,5.74,24.36,11.13
,-8.722,-0.179,-7.413,-8.78,3.147,-8.952,9.59,22.4,14.63
,-8.988,2.094,-7.923,-9.732,1.632,-7.803,12.74,18.48,12.67
19763.0,-9.282,0.608,-6.975,-8.708,-0.598,-5.552,-8.82,1.33,-11.97
,-7.964,-0.299,-5.932,-9.079,0.232,-6.303,0.7,-1.33,-14.56
,-7.234,-0.912,-5.006,-9.904,0.129,-6.47,7.42,-0.14,-13.58
,-7.964,-1.536,-4.666,-10.086,-1.146,-6.652,12.04,1.75,-11.41
19839.0,-8.875,-2.742,-5.733,-8.217,-2.816,-4.35,4.9,-7.77,-4.9
,-7.16,-2.984,-5.231,-8.387,-0.505,-4.379,7.35,-8.19,0.14
,-6.368,-3.23,-5.159,-8.72,1.95,-4.547,8.12,-6.44,4.97
,-7.42,-3.451,-4.716,-9.21,3.197,-4.444,7.56,-4.34,11.41
19915.0,-9.351,4.075,-4.654,-8.796,2.118,-5.229,-3.92,0.21,14.49
,-8.868,4.271,-5.006,-9.076,1.17,-5.52,-7.7,1.47,8.19
,-8.82,3.451,-4.843,-8.981,0.445,-5.913,-8.54,3.71,1.54
,-8.804,2.651,-4.788,-8.509,-0.591,-6.353,-3.57,6.37,-4.97
19991.0,-8.727,-1.898,-6.382,-8.275,-3.209,-5.676,15.33,7.63,-18.83
,-8.99,-2.407,-6.415,-7.715,-2.903,-6.033,17.43,6.02,-18.97
,-8.861,-2.539,-6.679,-8.088,-1.986,-5.698,18.97,3.64,-17.22
,-8.684,-2.778,-5.97,-8.447,-0.06,-6.09,15.96,1.89,-13.3
20066.0,-8.832,0.397,-6.131,-7.621,-1.565,-5.946,-4.13,-2.1,4.9
,-9.964,-0.5,-5.327,-7.861,-0.034,-6.289,-13.93,-3.78,5.81
,-9.426,-1.522,-5.31,-8.308,0.761,-6.537,-17.22,-6.09,8.54
,-8.215,-2.477,-5.42,-8.598,0.759,-6.478,-13.72,-5.81,11.76
20142.0,-8.502,0.902,-6.779,-8.77,0.991,-7.028,-12.11,-13.86,17.01
,-8.198,0.957,-7.502,-8.67,1.357,-6.609,-17.01,-17.22,16.52
,-8.263,0.261,-7.16,-8.677,1.139,-6.279,-21.28,-17.64,14.28
,-8.581,0.254,-7.026,-8.945,0.586,-6.126,-19.32,-18.13,11.2
20218.0,-8.741,-0.175,-6.217,-9.069,-0.567,-6.114,-10.64,-26.39,2.31
,-8.904,-0.919,-6.188,-9.021,0.294,-5.693,-4.13,-25.55,1.68
,-9.186,-1.213,-6.071,-8.708,1.328,-5.798,6.51,-24.36,0.84
,-9.1,-1.184,-6.119,-8.303,2.218,-5.987,18.27,-22.89,0.7
20294.0,-8.095,2.343,-5.628,-8.409,0.845,-5.444,20.3,-23.8,-1.19
,-7.839,1.993,-5.128,-8.629,0.634,-4.968,9.52,-23.94,-1.4
,-7.877,1.328,-4.307,-8.863,0.529,-4.7,2.52,-24.99,-2.45
,-8.234,1.237,-5.09,-8.447,0.421,-4.609,0.0,-30.66,-3.15
20369.0,-8.497,0.503,-3.999,-8.954,0.888,-4.384,11.83,-43.19,-8.4
,-8.624,0.981,-4.298,-9.273,0.05,-3.302,11.27,-46.76,-9.94
,-8.382,1.156,-3.585,-9.062,-0.586,-2.395,10.36,-47.67,-10.01
,-8.863,1.333,-4.838,-8.595,-0.866,-1.663,6.09,-51.45,-10.71
20445.0,-8.531,-0.701,-0.763,-8.772,-1.847,2.17,29.68,-39.69,-14.63
,-8.844,-0.019,-0.991,-8.6,-1.699,2.395,32.83,-39.76,-15.89
,-9.045,0.196,-1.24,-8.416,-0.474,1.084,25.34,-40.25,-17.08
,-8.923,-0.701,0.199,-8.636,0.019,1.385,18.55,-37.52,-16.31
20520.0,-9.313,0.546,1.295,-10.067,-3.168,-0.778,18.55,-11.9,-10.57
,-9.301,-0.723,2.034,-9.653,-2.946,-1.962,-2.1,-4.9,-9.8
,-9.749,-2.254,1.29,-9.249,-2.869,-2.613,-11.34,2.59,-7.7
,-10.086,-3.139,0.354,-9.261,-1.984,-3.106,-11.83,7.56,-6.44
20596.0,-9.732,-0.077,-4.202,-8.488,0.558,-7.626,23.8,21.42,4.83
,-9.794,2.127,-6.056,-8.607,0.593,-6.755,20.09,17.15,3.22
,-9.103,2.52,-7.31,-8.966,1.098,-5.863,5.25,11.69,0.98
,-8.61,1.594,-7.777,-9.328,0.914,-5.465,-4.2,7.49,-0.35
20672.0,-9.21,-0.864,-4.104,-10.069,-0.919,-1.041,-8.89,-11.9,-4.97
,-9.06,-2.458,-3.297,-9.928,0.249,-0.916,-8.68,-11.9,-3.78
,-9.284,-2.927,-2.477,-9.677,0.318,-1.189,0.07,-11.06,-2.38
,-9.72,-2.13,-1.68,-9.265,-0.096,-1.359,9.1,-10.15,-1.68
20748.0,-9.093,-0.725,-1.484,-9.734,-0.177,-2.716,-9.52,-1.05,-3.22
,-9.395,-1.046,-1.835,-9.375,-0.558,-3.214,-2.17,1.96,-1.47
,-9.502,-0.878,-1.977,-9.471,-0.873,-3.446,4.13,3.5,-0.42
,-9.775,-0.581,-2.3,-9.457,-0.811,-4.135,6.65,4.06,0.0
20824.0,-9.246,-0.993,-4.558,-9.107,-0.199,-4.168,-6.37,3.57,-0.91
,-9.069,-1.034,-4.468,-9.179,-0.079,-4.152,-3.71,2.73,0.0
,-9.06,-0.794,-4.228,-9.031,-0.345,-3.972,0.56,1.61,0.77
,-9.136,-0.316,-4.456,-9.153,-0.596,-3.522,2.59,0.07,0.84
20899.0,-9.194,-0.67,-3.061,-9.639,-0.357,-2.651,-3.64,-5.88,-0.14
,-9.287,-0.699,-2.687,-9.344,-0.495,-2.599,-2.17,-5.81,0.35
,-9.617,-0.443,-2.702,-9.655,-0.512,-2.666,-1.33,-6.02,0.77
,-9.643,-0.304,-2.635,-9.651,-0.653,-2.788,-3.22,-6.37,0.77
20975.0,-9.665,-1.141,-2.785,-9.416,-1.606,-1.07,-1.47,-5.18,1.54
,-9.44,-1.223,-2.699,-9.397,-0.775,-0.878,0.35,-4.69,2.52
,-9.332,-1.555,-2.367,-9.447,-0.651,-0.67,1.47,-3.85,3.92
,-9.497,-1.965,-1.807,-9.787,-0.565,-0.412,1.89,-2.38,5.46
21051.0,-9.72,-0.297,-0.426,-8.509,-0.852,-1.125,-31.71,4.97,4.62
,-9.493,-0.177,-0.479,-8.251,-0.464,-1.201,-38.08,6.37,4.69
,-9.095,-0.388,-0.845,-7.858,0.357,-1.055,-38.64,9.52,5.81
,-8.748,-0.727,-1.146,-7.6,0.852,-1.307,-37.52,13.65,7.56
21127.0,-7.909,0.447,-1.484,-8.629,-0.916,1.106,-30.03,28.7,15.26
,-8.598,-0.179,-0.83,-8.641,-0.244,-0.043,-23.8,37.45,18.48
,-9.217,-0.397,-0.483,-8.155,0.562,-0.962,-12.11,44.73,20.44
,-9.069,-0.373,-0.292,-9.081,0.735,-1.721,1.82,52.08,20.86
21202.0,-9.622,0.79,-2.8,-7.306,-1.342,-4.357,32.97,61.32,10.29
,-9.086,0.4,-3.46,-7.059,-0.909,-5.516,23.24,61.6,9.73
,-8.382,-0.258,-2.958,-7.696,0.263,-6.734,22.61,67.34,9.45
,-8.119,-0.895,-3.147,-8.579,0.998,-7.334,26.18,70.35,8.82
21278.0,-8.715,0.658,-7.014,-8.646,-0.342,-7.798,13.3,46.9,12.04
,-9.517,0.778,-7.341,-8.387,-0.191,-6.765,6.16,36.05,9.17
,-9.294,0.421,-8.279,-8.445,0.093,-6.401,-2.8,27.79,6.93
,-8.799,0.007,-8.54,-7.997,-0.723,-6.765,-11.62,27.86,6.23
21353.0,-8.526,-1.467,-6.822,-8.047,2.211,-9.036,-17.15,24.22,12.6
,-9.555,-0.723,-7.452,-8.713,2.264,-8.686,-11.13,19.95,15.96
,-8.863,0.514,-8.37,-9.055,1.268,-7.806,-0.91,17.08,15.26
,-8.119,1.761,-9.191,-9.237,0.672,-6.207,8.33,15.61,11.34
21429.0,-8.581,0.598,-5.829,-9.423,0.007,-5.439,6.93,2.87,-5.95
,-8.547,0.529,-5.755,-8.964,0.388,-6.238,10.43,2.8,-10.08
,-9.33,0.479,-5.449,-8.526,0.026,-6.595,12.32,2.59,-13.51
,-9.787,0.206,-5.257,-7.54,-1.512,-6.32,13.02,0.77,-15.4
21505.0,-6.523,-3.415,-5.824,-8.882,-0.373,-4.209,9.59,-6.93,-0.28
,-7.119,-4.288,-5.157,-8.282,2.678,-4.908,15.19,-2.1,5.18
,-8.703,-3.917,-3.977,-7.708,4.815,-6.09,22.96,1.61,9.87
,-9.361,-2.395,-3.85,-8.323,4.29,-5.654,27.09,1.82,12.67
21581.0,-9.921,2.68,-4.599,-9.146,2.252,-5.489,-18.55,5.81,6.23
,-10.428,1.058,-4.403,-9.835,2.036,-5.958,-15.89,5.88,0.49
,-9.418,0.292,-4.649,-9.744,0.361,-5.8,-1.75,5.74,-4.76
,-8.794,1.29,-5.159,-9.38,-0.988,-5.968,14.56,6.72,-9.73
21657.0,-8.705,-2.058,-5.822,-7.851,-0.672,-6.669,11.34,1.12,-20.72
,-8.038,-2.465,-5.698,-8.815,-1.177,-6.473,14.63,1.19,-19.11
,-7.968,-1.838,-5.59,-9.048,-1.589,-5.86,16.03,1.12,-16.31
,-7.825,-0.943,-6.329,-8.66,-1.945,-5.422,11.06,-0.77,-12.74
21732.0,-7.772,-1.84,-5.676,-9.332,0.199,-5.765,-22.68,-5.32,6.3
,-7.593,-1.144,-6.224,-9.39,0.285,-5.75,-19.18,-6.3,10.71
,-7.767,0.208,-6.875,-8.662,0.909,-6.188,-13.86,-8.26,11.97
,-8.55,0.39,-6.542,-7.98,0.608,-6.774,-12.81,-9.45,10.57
21808.0,-8.323,-0.457,-6.502,-8.425,0.199,-6.49,-10.78,-12.53,4.2
,-9.378,-0.895,-6.085,-8.311,0.201,-6.399,-6.65,-15.82,4.34
,-9.064,-0.397,-6.43,-8.418,0.316,-6.609,-0.84,-20.58,3.01
,-8.576,0.086,-7.093,-8.768,0.304,-6.547,1.54,-23.45,1.61
21884.0,-9.184,0.108,-6.109,-8.471,1.318,-5.843,0.14,-29.75,0.28
,-8.909,-0.179,-5.796,-8.655,1.129,-5.434,0.7,-32.55,0.35
,-8.605,0.079,-5.631,-8.859,1.062,-4.965,3.15,-35.14,0.77
,-8.449,0.725,-5.738,-8.978,0.644,-4.133,5.04,-37.73,-0.14
21960.0,-9.026,0.682,-4.037,-8.945,0.895,-4.532,6.16,-31.36,-9.24
,-9.033,0.811,-4.369,-8.732,0.895,-4.92,6.93,-33.6,-9.8
,-8.859,0.763,-4.542,-8.33,0.605,-5.006,4.97,-35.0,-9.03
,-8.768,0.696,-4.614,-8.222,0.17,-4.855,4.27,-35.77,-7.7
22035.0,-8.05,-0.476,-4.405,-8.789,-0.581,-1.991,9.59,-41.3,-9.31
,-7.906,-0.852,-3.912,-8.827,-0.833,-0.723,16.87,-42.56,-10.64
,-8.605,-0.967,-3.458,-8.622,-1.077,1.122,27.65,-43.89,-10.99
,-8.894,-0.617,-3.372,-8.859,-0.139,0.972,30.52,-46.2,-10.92
22111.0,-8.591,1.184,1.855,-8.995,-1.043,2.084,31.85,-33.32,-10.57
,-9.06,1.778,1.886,-8.949,-1.34,1.333,19.53,-29.89,-13.02
,-9.442,1.285,1.524,-9.076,-1.84,1.031,5.25,-25.41,-15.05
,-9.141,0.227,1.862,-9.397,-2.197,1.048,-6.86,-19.95,-15.82
22186.0,-9.935,-2.213,0.385,-9.643,-1.218,-1.613,0.14,8.68,-6.44
,-10.089,-1.732,-0.266,-9.825,-2.01,-2.513,-1.82,12.25,-5.67
,-9.801,-0.893,-0.352,-9.691,-2.168,-3.774,-6.51,16.17,-5.11
,-9.586,-0.665,-0.768,-9.572,-1.912,-5.027,-13.37,20.02,-4.97
22262.0,-9.464,-1.366,-6.226,-8.48,0.337,-8.693,7.49,24.15,0.35
,-9.194,-0.514,-6.817,-8.524,-0.275,-7.971,14.35,21.07,1.26
,-8.954,0.34,-7.633,-8.787,-0.995,-6.473,18.48,17.36,1.68
,-8.911,0.672,-8.753,-9.127,-1.244,-5.016,17.92,11.69,1.05
22338.0,-9.411,-1.046,-3.544,-9.713,0.141,-1.345,24.08,-6.58,1.82
,-9.564,-0.558,-2.508,-9.426,0.022,-1.378,22.47,-7.63,1.68
,-9.474,-0.244,-1.835,-9.349,-0.357,-1.563,16.94,-7.91,1.12
,-9.672,-0.115,-1.196,-9.423,-0.873,-2.257,12.53,-7.28,0.56
22414.0,-9.189,-1.285,-2.393,-9.433,-0.546,-3.853,-5.6,-1.68,-2.17
,-9.359,-1.297,-2.804,-9.33,-0.852,-4.19,-1.19,-0.77,-1.26
,-9.304,-0.979,-3.206,-9.208,-1.371,-4.161,2.45,-0.42,-0.42
,-9.39,-0.742,-3.57,-9.093,-1.433,-3.967,5.18,-0.21,0.14
22489.0,-9.206,-0.988,-3.79,-9.179,-0.517,-2.781,13.65,-3.57,3.71
,-9.454,-0.579,-3.647,-9.423,-0.967,-2.711,13.93,-4.83,3.57
,-9.344,-0.05,-3.362,-9.375,-0.976,-2.69,8.47,-6.09,2.87
,-9.21,-0.146,-2.936,-9.418,-0.974,-2.86,1.47,-6.72,2.66
22565.0,-9.256,-0.914,-3.046,-9.33,-1.199,-1.718,-3.71,-5.39,3.15
,-9.28,-0.995,-2.881,-9.426,-1.799,-0.991,-2.03,-4.62,3.92
,-9.509,-0.677,-2.661,-9.519,-1.898,-0.237,0.0,-4.06,4.48
,-9.514,-0.713,-2.312,-9.533,-1.766,0.273,-0.91,-2.8,5.18
22641.0,-9.545,-1.153,0.639,-8.983,0.168,-1.01,-0.28,12.6,11.2
,-9.608,-0.534,0.529,-8.825,0.163,-1.091,-3.92,15.96,11.13
,-9.488,-0.151,-0.012,-8.792,0.378,-0.993,-9.73,19.18,10.64
,-9.318,0.141,-0.584,-8.763,0.431,-0.759,-16.1,22.4,10.36
22717.0,-8.512,0.132,-0.816,-7.787,0.589,-3.668,-21.35,38.57,7.77
,-8.224,-0.68,-0.857,-8.026,0.589,-3.618,-21.0,42.49,9.24
,-8.069,-1.086,-0.402,-9.354,0.337,-3.881,-10.57,47.53,11.76
,-8.425,-0.258,-2.264,-9.564,-0.493,-2.443,4.2,48.65,12.32
22793.0,-9.423,-0.895,-2.666,-10.1,1.251,-5.982,17.43,59.29,7.49
,-8.378,-0.632,-3.192,-9.995,0.105,-5.298,18.62,55.3,4.62
,-8.129,0.737,-4.795,-8.837,-1.426,-5.219,12.39,46.48,0.84
,-9.32,1.515,-5.523,-7.693,-2.644,-5.619,-3.22,36.89,-2.52
22868.0,-7.485,-2.082,-6.071,-7.949,-1.077,-6.444,-8.26,26.04,10.5
,-7.339,-1.046,-8.019,-6.829,0.007,-6.253,-0.56,16.1,9.31
,-8.361,-1.113,-8.102,-7.296,1.811,-6.198,1.19,14.91,9.45
,-9.469,-1.369,-6.875,-8.67,3.08,-6.482,2.38,15.68,12.04
22944.0,-10.311,2.723,-6.214,-7.708,-1.127,-6.006,-18.69,14.14,10.22
,-10.38,1.46,-5.8,-8.385,-0.806,-5.695,-35.21,10.99,11.76
,-8.878,0.175,-5.997,-9.351,-0.55,-5.164,-40.39,11.41,12.18
,-7.918,-0.871,-6.411,-9.954,-0.163,-4.905,-34.37,12.53,11.34
23019.0,-9.986,0.821,-4.724,-9.737,0.739,-5.195,8.54,19.81,0.28
,-9.445,1.687,-5.075,-9.189,0.498,-5.116,10.29,17.15,-3.36
,-9.005,1.536,-4.977,-8.624,0.361,-5.367,6.58,12.95,-4.41
,-9.249,1.235,-5.176,-8.387,-0.156,-5.748,3.43,9.24,-4.13
23095.0,-8.495,-0.782,-5.693,-7.76,-2.02,-5.86,20.02,4.97,-8.82
,-8.043,-1.318,-6.044,-7.932,-0.232,-6.131,22.47,3.64,-6.79
,-7.578,-2.721,-5.743,-8.938,0.61,-5.489,21.98,4.48,-2.03
,-7.755,-3.702,-5.322,-9.722,1.273,-4.893,24.08,5.67,3.92
23171.0,-8.981,1.316,-4.838,-10.01,1.876,-4.891,11.48,4.62,7.35
,-7.765,1.79,-5.164,-9.241,1.424,-5.042,7.28,5.74,5.74
,-8.212,1.754,-5.078,-8.693,0.981,-5.245,5.39,8.4,4.48
,-9.524,1.965,-5.224,-9.134,0.617,-5.059,6.23,9.45,1.47
23247.0,-9.258,0.093,-5.054,-9.722,-0.036,-6.09,14.49,10.5,-13.16
,-8.933,0.079,-5.13,-9.079,-0.237,-6.25,14.98,9.87,-14.28
,-8.928,-0.483,-5.322,-8.681,-1.45,-6.1,10.78,10.36,-13.72
,-10.06,-0.493,-5.415,-8.138,-2.8,-6.485,6.65,9.52,-14.07
23322.0,-7.432,-3.695,-6.552,-9.179,0.433,-6.681,-11.27,7.14,-2.24
,-7.272,-3.798,-6.674,-8.555,0.859,-7.251,-6.09,7.35,3.15
,-7.602,-2.74,-6.523,-8.138,0.349,-7.459,1.75,6.58,6.93
,-8.808,-1.603,-5.973,-8.117,-0.531,-7.533,2.24,0.7,9.03
23398.0,-8.315,-1.036,-7.483,-8.394,0.873,-6.896,-24.01,-18.06,13.86
,-8.416,-0.615,-7.356,-8.421,0.895,-6.894,-13.65,-19.18,12.18
,-8.689,0.091,-7.002,-8.593,0.936,-6.805,-3.92,-21.21,10.85
,-8.739,0.706,-6.942,-8.732,0.902,-6.564,1.05,-25.13,9.52
23474.0,-8.794,0.838,-6.164,-8.547,0.177,-5.664,11.97,-30.73,-0.35
,-8.397,0.778,-6.222,-9.194,0.407,-5.305,13.23,-31.57,-1.12
,-7.99,0.156,-5.745,-9.148,0.857,-5.623,14.49,-29.89,-0.91
,-8.22,-0.179,-5.607,-8.801,0.651,-5.379,19.46,-28.7,-0.49
23550.0,-8.959,0.294,-4.642,-8.423,0.5,-4.314,18.69,-31.64,-0.63
,-8.993,0.438,-4.661,-8.772,0.402,-4.317,17.22,-34.09,-1.19
,-8.26,0.981,-4.858,-8.598,0.57,-4.322,13.44,-37.8,-1.54
,-8.124,0.818,-4.669,-8.77,0.613,-4.073,8.47,-39.69,-1.54
23626.0,-8.945,0.615,-4.29,-8.44,0.065,-2.285,13.3,-50.4,-6.37
,-8.792,0.254,-4.042,-8.466,0.096,-1.388,14.56,-50.89,-7.56
,-8.866,-0.158,-2.867,-8.768,0.266,-0.981,20.44,-49.0,-8.33
,-8.923,-0.134,-2.709,-9.055,0.309,-0.905,26.95,-47.81,-9.03
23701.0,-9.311,0.184,-0.936,-8.768,-0.481,1.888,21.14,-40.81,-14.0
,-9.304,-0.089,-0.211,-8.966,-0.392,1.737,17.92,-37.94,-14.7
,-9.119,-0.486,1.024,-8.94,-0.357,1.797,17.15,-33.46,-14.7
,-9.04,-0.572,1.467,-9.098,-0.976,2.309,17.99,-28.28,-14.7
23777.0,-9.294,-1.752,2.388,-9.698,-2.044,-0.677,-0.49,-1.26,-12.39
,-9.899,-2.283,2.168,-9.194,-2.551,-1.383,-2.73,5.74,-11.27
,-10.163,-2.517,1.567,-9.11,-2.091,-2.23,-6.58,11.34,-10.36
,-10.23,-2.376,0.378,-9.399,-1.419,-3.142,-14.07,15.26,-9.52
23852.0,-9.926,-0.321,-4.523,-8.696,-1.24,-7.487,-3.01,28.49,0.07
,-9.718,-0.108,-5.791,-8.902,0.026,-7.53,-5.46,25.13,0.07
,-9.155,-0.885,-6.65,-8.916,0.948,-7.15,-6.58,21.84,1.26
,-8.815,-1.388,-7.356,-9.038,0.895,-6.178,0.28,18.83,3.29
23928.0,-9.079,0.613,-5.554,-9.323,-1.18,-2.041,4.62,-3.71,-1.19
,-8.926,-0.031,-4.819,-9.409,-1.249,-1.67,-1.75,-7.21,-3.01
,-8.808,-0.601,-3.757,-9.567,-1.397,-1.273,-4.06,-9.24,-3.64
,-9.012,-0.921,-2.833,-9.641,-1.45,-1.287,-3.29,-9.73,-3.36
24004.0,-9.622,-1.307,-1.45,-9.914,-0.577,-2.991,-2.03,-2.17,0.0
,-9.596,-1.161,-1.744,-9.665,-0.268,-3.676,-1.89,-0.28,0.28
,-9.593,-0.967,-1.943,-9.308,-0.39,-4.324,-1.68,1.61,0.21
,-9.921,-0.747,-2.151,-8.981,-0.605,-4.81,-1.96,3.36,0.42
24080.0,-8.782,-0.732,-5.114,-9.356,-0.392,-4.231,-0.35,-0.91,-0.14
,-8.76,-0.668,-4.908,-9.253,-0.558,-4.346,3.57,-2.59,0.14
,-9.062,-0.517,-4.491,-9.162,-0.838,-4.235,5.67,-4.48,0.35
,-9.335,-0.404,-4.391,-9.086,-0.864,-3.929,5.32,-6.51,0.07
24155.0,-9.062,-0.926,-3.429,-9.694,-0.309,-2.223,-2.45,-14.0,-1.26
,-9.311,-1.302,-2.785,-9.323,-0.67,-2.046,-2.03,-13.79,-0.42
,-9.447,-1.474,-2.056,-9.39,-1.271,-2.044,0.07,-13.16,0.63
,-9.732,-1.201,-1.709,-9.368,-1.496,-2.288,3.57,-12.18,1.54
24231.0,-9.629,-1.795,-2.278,-8.911,-1.474,-0.62,-4.76,-8.05,4.06
,-9.758,-1.639,-2.276,-8.993,-1.677,0.469,-5.11,-7.49,4.62
,-9.304,-1.213,-2.225,-9.107,-2.008,1.56,-7.49,-7.7,5.32
,-8.978,-1.165,-1.732,-9.574,-2.103,2.362,-10.43,-7.21,6.37
24307.0,-9.777,-1.694,2.74,-8.827,-0.313,0.503,3.78,21.77,16.03
,-9.672,-0.847,2.649,-8.725,-0.512,-0.148,3.92,27.51,16.52
,-9.648,-0.369,2.029,-9.103,-0.66,-0.952,-1.26,32.55,16.52
,-9.332,-0.376,1.139,-8.966,-0.227,-1.876,-10.57,36.12,16.52
24383.0,-8.433,-0.23,-2.316,-7.947,0.675,-3.262,-14.42,51.73,18.41
,-8.186,-0.256,-2.697,-8.751,1.0,-3.321,-7.63,54.81,19.04
,-7.377,-0.232,-1.881,-9.167,1.225,-3.661,3.92,59.64,19.53
,-7.602,-0.093,-2.448,-8.514,0.988,-5.164,17.22,61.6,19.11
24459.0,-8.43,0.352,-5.678,-7.954,0.687,-7.109,5.67,48.86,15.61
,-8.466,0.397,-6.547,-7.851,1.235,-6.738,7.42,43.75,13.58
,-8.346,0.524,-6.564,-8.658,1.945,-6.092,11.69,44.24,10.64
,-8.65,0.854,-7.217,-9.531,1.512,-5.748,10.99,47.25,9.1
24534.0,-10.005,0.457,-5.76,-8.246,-2.45,-7.574,-25.83,41.79,3.22
,-10.175,-0.45,-6.193,-8.045,-2.13,-6.229,-30.45,35.21,4.48
,-9.261,-1.419,-7.631,-7.772,-0.101,-5.597,-30.59,26.88,6.58
,-8.801,-1.859,-8.014,-7.576,1.419,-6.384,-21.49,22.96,8.47
24610.0,-8.629,1.524,-6.219,-7.921,-0.072,-7.394,5.46,7.35,6.72
,-9.914,1.053,-6.253,-8.509,0.888,-8.406,-11.2,2.94,11.13
,-9.835,0.175,-6.772,-9.146,1.699,-8.392,-21.91,2.45,13.79
,-9.038,-0.282,-6.808,-8.72,2.711,-7.667,-18.9,4.06,12.39
24685.0,-8.143,2.967,-7.346,-8.89,-2.709,-2.101,12.74,-9.31,-6.51
,-8.339,2.182,-5.401,-10.723,-3.97,-3.032,7.63,-8.68,-11.13
,-8.193,1.244,-3.676,-11.407,-4.377,-3.996,3.29,-8.26,-13.72
,-7.672,-0.648,-2.656,-9.885,-3.475,-4.468,-3.92,-5.81,-11.62
24761.0,-7.887,-1.706,-5.865,-9.304,1.993,-4.08,29.12,-0.63,7.63
,-7.43,-0.299,-5.099,-9.287,3.132,-4.051,28.98,1.33,13.02
,-8.162,1.196,-5.171,-8.502,4.891,-4.977,22.19,0.35,16.45
,-8.425,1.941,-5.13,-8.945,5.42,-5.513,13.86,2.24,15.4
24837.0,-9.273,4.003,-5.796,-8.813,-2.053,-5.386,-9.66,7.63,-11.69
,-9.103,2.151,-5.848,-8.397,-1.979,-5.98,-10.5,7.42,-16.52
,-9.179,0.436,-5.918,-8.509,-1.295,-6.667,-5.88,6.3,-19.46
,-9.261,-0.938,-5.41,-8.689,-0.538,-6.82,-0.07,5.11,-21.21
24913.0,-8.942,-0.373,-6.612,-8.117,-2.845,-5.638,-4.06,-1.82,-11.62
,-8.882,-0.675,-6.181,-8.67,-2.991,-5.698,-13.65,-4.27,-8.47
,-8.447,-1.491,-5.733,-8.873,-2.292,-5.779,-22.33,-6.16,-4.69
,-7.978,-2.376,-5.822,-8.741,-1.149,-5.793,-28.07,-7.21,-0.7
24988.0,-8.531,-0.321,-5.791,-9.878,-0.129,-5.145,7.21,-7.77,6.44
,-8.579,0.029,-5.449,-9.34,0.096,-5.482,9.31,-6.16,6.37
,-9.45,-0.091,-5.221,-7.839,-0.199,-6.109,10.78,-5.25,5.39
,-9.981,-0.129,-5.293,-7.337,-0.431,-6.36,11.34,-5.25,4.34
25064.0,-7.906,-0.538,-6.234,-8.837,-0.773,-5.284,2.59,-14.7,7.35
,-8.737,-0.601,-5.733,-8.674,-0.089,-5.293,4.83,-14.98,8.54
,-8.839,-0.639,-5.915,-8.631,0.888,-5.497,6.16,-15.47,9.87
,-8.768,-0.732,-5.702,-8.681,1.563,-4.972,7.21,-14.7,11.13
25140.0,-8.473,1.89,-5.178,-9.462,2.438,-4.872,25.76,-15.4,8.75
,-8.739,1.907,-5.154,-9.091,2.453,-4.771,23.52,-15.47,8.54
,-9.502,1.816,-4.872,-8.866,2.302,-4.831,22.54,-16.24,7.07
,-9.677,1.905,-4.81,-8.157,2.187,-5.166,21.98,-18.55,4.41
25216.0,-7.839,2.113,-5.188,-9.0,-0.668,-3.704,-1.47,-33.67,-8.47
,-8.26,1.802,-5.004,-9.433,-0.974,-3.259,-5.53,-35.91,-10.5
,-8.89,0.919,-4.633,-9.361,-0.854,-3.628,-6.3,-36.96,-13.58
,-8.914,0.024,-4.496,-8.899,-0.756,-3.781,-4.76,-37.24,-16.38
25292.0,-8.739,-0.964,-3.575,-9.045,-1.106,-1.852,8.75,-38.22,-13.86
,-8.531,-1.342,-3.058,-9.43,-0.294,-1.778,8.82,-36.61,-11.48
,-8.445,-1.656,-2.659,-9.359,0.294,-1.962,12.11,-34.65,-9.73
,-8.631,-1.563,-2.376,-8.885,0.074,-0.459,16.87,-33.67,-8.75
25367.0,-9.062,0.062,0.01,-8.997,0.211,0.005,17.29,-24.92,-7.77
,-9.079,0.72,-0.294,-9.27,-0.498,-0.244,20.23,-21.77,-9.38
,-8.964,1.393,-0.9,-9.507,-0.644,-0.124,19.88,-19.74,-12.53
,-8.993,1.208,-0.962,-9.591,-0.782,-0.469,11.48,-17.99,-15.47
25443.0,-9.433,-1.084,-0.699,-9.328,-2.345,-2.687,-5.04,-1.89,-15.68
,-9.28,-1.618,-1.39,-9.521,-2.773,-3.563,-12.11,0.98,-14.77
,-9.086,-2.546,-1.402,-9.89,-2.041,-4.609,-16.17,4.13,-12.88
,-9.363,-3.044,-1.998,-9.507,-1.333,-4.862,-12.25,7.42,-10.01
25518.0,-9.375,-0.376,-4.712,-9.227,-1.438,-3.424,17.78,8.4,1.26
,-9.292,-0.364,-4.295,-9.454,-1.165,-3.384,16.8,8.19,1.68
,-8.961,-0.814,-3.944,-9.373,-0.349,-3.431,14.28,7.49,2.24
,-8.894,-1.256,-3.575,-9.074,0.514,-3.221,13.51,6.51,3.5
25594.0,-9.105,1.149,-3.343,-9.203,-0.715,-3.223,8.33,2.73,1.33
,-9.203,0.924,-3.429,-9.363,-0.754,-3.135,-3.78,1.33,-1.05
,-9.294,0.519,-3.585,-9.378,-0.861,-2.895,-13.44,0.0,-2.94
,-9.153,-0.357,-3.408,-9.409,-1.108,-2.379,-17.36,-0.7,-3.5
25670.0,-9.655,-1.158,-2.321,-9.395,-1.003,-3.575,-4.13,1.54,-0.63
,-9.627,-1.323,-2.41,-9.282,-0.677,-3.898,-3.99,2.03,-0.07
,-9.686,-1.357,-2.958,-9.316,-0.534,-4.274,-3.22,1.96,0.42
,-9.435,-1.175,-3.355,-9.148,-0.632,-4.317,-4.27,1.89,0.35
25746.0,-9.244,-1.077,-4.109,-9.282,-0.27,-3.434,-7.07,-2.8,0.91
,-9.119,-0.67,-3.881,-9.186,-0.928,-2.974,-2.66,-3.64,1.33
,-9.122,-0.06,-3.654,-9.416,-1.204,-2.69,-0.63,-4.62,1.47
,-9.27,0.139,-3.623,-9.615,-0.928,-2.912,-2.52,-5.32,0.91
25821.0,-9.588,-0.591,-3.063,-9.708,-0.572,-2.422,2.38,-2.38,1.33
,-9.457,-0.371,-3.01,-9.916,-0.258,-2.946,1.33,-2.45,1.05
,-9.375,-0.61,-2.678,-9.801,-0.117,-3.551,0.84,-0.98,1.33
,-9.476,-0.66,-2.402,-9.435,-0.416,-3.841,2.66,0.35,1.47
25897.0,-9.203,-0.849,-3.903,-9.445,-0.469,-4.2,1.54,-2.1,-0.42
,-9.172,-0.876,-4.116,-9.313,-0.79,-3.979,7.7,-2.31,0.42
,-9.354,-0.622,-4.197,-9.244,-1.015,-3.668,13.37,-2.94,0.84
,-9.474,-0.297,-4.403,-9.141,-1.117,-3.319,13.93,-4.69,0.98
25973.0,-9.222,-1.041,-2.903,-9.476,-0.596,-1.768,13.93,-8.75,2.8
,-9.287,-0.823,-2.515,-9.447,-0.814,-1.677,14.21,-8.54,3.22
,-9.452,-0.747,-2.149,-9.519,-1.024,-1.802,12.88,-8.19,3.5
,-9.548,-0.603,-1.991,-9.483,-1.12,-1.785,10.5,-7.77,3.71
26049.0,-9.349,-0.938,-1.414,-9.423,-1.228,0.335,-7.77,-3.22,3.64
,-9.514,-0.275,-1.211,-9.483,-1.723,0.562,-12.11,-1.96,3.36
,-9.495,-0.103,-0.794,-9.359,-1.689,0.653,-20.79,-0.56,3.08
,-9.445,-0.505,-0.191,-9.445,-1.799,1.003,-28.28,2.73,3.57
26125.0,-9.902,-1.39,0.608,-8.145,0.828,-1.242,-13.37,27.16,11.83
,-9.598,-0.615,0.022,-8.004,0.426,-1.098,-15.82,26.95,11.9
,-9.261,-0.014,-0.436,-8.088,-0.246,-0.615,-20.86,25.9,11.62
,-8.547,0.759,-1.024,-7.885,-0.29,-0.213,-25.97,25.34,11.48
26200.0,-8.437,-0.227,-0.955,-8.44,-1.687,-3.123,-13.65,47.32,11.2
,-8.906,-0.244,-1.536,-7.516,-0.818,-3.561,-11.76,48.44,11.97
,-9.962,-1.067,-2.249,-7.885,0.818,-4.243,-9.31,52.22,14.7
,-9.507,-1.567,-2.958,-8.94,2.599,-6.494,-2.45,56.49,18.27
26276.0,-9.593,2.584,-8.605,-7.138,-0.95,-4.556,21.14,34.23,8.54
,-7.937,0.44,-8.198,-9.531,-0.404,-4.283,-6.37,40.67,12.25
,-5.858,-1.768,-5.683,-11.4,1.029,-4.719,-11.34,53.27,16.45
,-6.143,-1.665,-5.011,-11.443,2.905,-5.968,1.75,60.13,15.12
26351.0,-10.187,3.061,-6.688,-9.66,-1.57,-7.346,-32.41,42.7,6.09
,-8.062,1.586,-7.21,-9.055,-2.182,-6.485,-44.38,36.33,5.95
,-7.057,0.053,-7.444,-8.452,-2.046,-5.798,-41.79,32.13,7.35
,-8.504,-0.799,-7.626,-8.698,-1.972,-5.073,-29.61,27.58,9.38
26427.0,-9.418,-0.608,-6.056,-7.947,2.044,-8.909,40.25,11.48,6.37
,-9.88,0.859,-6.99,-7.351,2.371,-9.086,37.03,6.23,7.84
,-9.253,1.977,-8.26,-7.514,1.816,-7.691,25.06,2.94,6.16
,-8.2,1.833,-8.926,-8.193,0.983,-5.997,12.39,1.12,3.29
26503.0,-8.404,0.79,-4.831,-9.38,-2.402,-4.728,-4.9,-4.97,-7.84
,-8.729,1.345,-4.171,-9.153,-4.276,-5.229,0.49,-3.5,-11.9
,-8.696,1.402,-4.451,-8.263,-4.841,-5.315,-0.14,-3.15,-13.72
,-8.832,-0.045,-4.925,-8.531,-5.032,-4.523,-5.25,-2.24,-10.78
26579.0,-9.584,-3.853,-4.391,-8.758,5.095,-4.515,31.29,-1.33,16.52
,-9.605,-2.96,-3.343,-8.89,7.102,-4.956,32.34,0.0,18.62
,-8.289,-1.307,-3.08,-9.311,7.229,-5.171,30.03,1.33,20.93
,-7.645,1.694,-3.924,-10.041,5.901,-5.011,25.69,5.04,22.33
26654.0,-10.019,3.522,-4.106,-8.181,-1.598,-6.571,-7.84,11.9,-10.01
,-9.622,2.426,-4.29,-9.387,-2.077,-6.382,-1.26,11.13,-16.38
,-8.339,1.883,-5.891,-9.718,-1.776,-6.243,1.61,8.96,-22.12
,-7.365,-0.108,-6.43,-9.014,-1.457,-6.255,0.63,10.5,-23.87
26730.0,-8.098,-1.737,-6.389,-8.181,-2.175,-6.238,-1.89,3.01,-15.68
,-7.509,-2.69,-6.592,-8.605,-2.19,-5.951,-13.02,3.29,-10.15
,-7.779,-2.96,-6.423,-8.72,-1.938,-5.932,-17.22,5.25,-5.18
,-8.004,-2.362,-6.53,-8.227,-1.405,-6.609,-16.45,5.53,-1.54
26806.0,-8.088,-0.749,-6.872,-8.815,1.007,-6.772,-6.09,-4.2,13.02
,-8.859,-0.455,-6.834,-8.277,1.218,-7.241,1.26,-5.74,12.39
,-9.641,-0.242,-6.193,-8.136,0.806,-7.045,8.54,-8.05,10.64
,-9.462,0.256,-6.341,-8.385,0.498,-6.746,13.51,-10.29,9.66
26882.0,-8.818,0.715,-6.533,-8.303,0.206,-6.016,12.32,-13.86,5.32
,-9.095,0.943,-6.461,-8.27,-0.275,-6.028,10.71,-17.85,3.57
,-8.825,1.23,-6.643,-8.162,-0.12,-6.312,7.0,-21.56,2.31
,-8.39,0.883,-6.435,-8.346,-0.012,-6.463,2.38,-22.89,2.17
26958.0,-8.861,-0.182,-6.305,-8.294,1.058,-5.123,13.58,-37.87,2.73
,-8.823,-0.132,-5.92,-8.301,1.22,-4.996,16.94,-39.2,1.61
,-8.567,0.615,-5.733,-8.758,1.292,-4.877,18.34,-39.69,0.84
,-8.421,0.919,-5.322,-9.103,1.144,-4.578,17.92,-41.16,-0.14
27033.0,-9.074,1.072,-4.436,-8.282,0.311,-3.661,0.63,-50.05,-6.51
,-8.725,1.206,-4.451,-8.299,-0.335,-2.716,-0.91,-52.15,-9.52
,-8.485,0.907,-3.984,-8.894,-0.756,-2.06,-1.19,-52.85,-10.92
,-8.313,0.706,-3.795,-8.959,-0.969,-1.156,-0.28,-54.04,-11.62
27109.0,-8.945,-1.254,-0.821,-9.284,0.428,0.292,23.45,-43.47,-9.66
,-8.976,-1.206,-0.323,-9.213,0.787,0.948,26.25,-41.72,-8.61
,-9.074,-0.945,0.304,-9.177,1.34,0.883,30.03,-39.27,-7.28
,-9.316,-0.354,0.017,-8.868,1.409,1.031,34.51,-36.61,-6.65
27184.0,-8.988,1.137,1.065,-9.639,-0.692,0.201,14.14,-16.45,-14.42
,-9.268,0.924,0.663,-9.332,-1.474,-0.632,10.5,-11.27,-15.4
,-9.22,0.431,1.22,-9.055,-2.766,-0.591,6.58,-6.16,-16.1
,-9.572,0.077,0.794,-9.289,-3.357,-1.259,-0.07,-2.03,-16.94
27260.0,-9.21,-3.546,-1.476,-9.986,-0.723,-3.676,-11.48,17.43,-8.54
,-9.311,-3.118,-1.651,-9.923,-1.003,-4.953,-4.97,21.14,-5.88
,-9.519,-2.467,-1.474,-9.682,-1.697,-6.269,-2.03,24.43,-3.22
,-10.019,-1.223,-2.517,-8.933,-1.833,-6.36,0.28,26.6,-1.12
27336.0,-8.847,-0.431,-6.609,-8.923,-0.711,-5.614,29.54,15.05,5.95
,-8.938,1.082,-6.796,-9.107,-0.304,-4.913,30.94,10.57,3.78
,-8.952,0.962,-6.571,-9.165,0.074,-3.934,14.7,5.25,1.68
,-8.83,-0.263,-6.123,-9.261,0.144,-2.857,0.7,0.49,1.12
27412.0,-9.409,0.189,-2.257,-9.543,-1.029,-2.017,1.12,-7.42,-1.61
,-9.598,-0.141,-1.778,-9.316,-1.503,-2.053,-2.31,-6.93,-2.31
,-9.823,-0.364,-1.761,-9.244,-1.835,-2.005,-5.6,-6.44,-2.87
,-9.715,-0.725,-1.862,-9.569,-1.704,-1.78,-9.52,-6.23,-3.5
27487.0,-9.787,-0.816,-2.075,-9.012,-1.015,-3.673,0.35,2.24,-1.26
,-9.749,-0.536,-2.359,-9.136,-0.792,-3.754,-0.49,2.66,-0.84
,-9.67,-0.325,-3.204,-9.241,-0.352,-3.843,-2.45,2.38,-0.49
,-9.15,-0.706,-3.503,-9.203,0.0,-3.752,-2.59,2.87,0.21
27563.0,-9.139,0.036,-3.503,-9.241,-0.945,-3.542,4.13,0.56,1.33
,-9.206,-0.122,-3.489,-9.323,-1.153,-3.479,-1.33,-0.21,0.42
,-9.294,-0.424,-3.51,-9.244,-1.0,-3.41,-5.46,-0.91,-0.35
,-9.289,-0.665,-3.534,-9.208,-0.682,-3.058,-7.42,-1.68,-0.91
27639.0,-9.404,-0.589,-2.783,-9.263,-0.888,-3.417,-0.14,-1.75,0.77
,-9.55,-0.684,-2.759,-9.409,-0.94,-3.393,-0.98,-1.12,0.98
,-9.598,-0.739,-3.075,-9.586,-0.747,-3.467,-1.26,-1.33,0.98
,-9.385,-0.83,-3.18,-9.562,-0.567,-3.197,-1.47,-1.82,1.12
27715.0,-9.77,-0.641,-3.037,-9.447,-0.603,-4.441,8.33,-2.73,2.1
,-9.727,-0.486,-3.288,-9.093,-1.005,-4.3,7.21,-3.92,1.54
,-9.655,-0.17,-3.599,-9.043,-1.218,-3.936,5.39,-5.32,0.56
,-9.72,-0.12,-4.214,-9.517,-1.266,-3.498,2.03,-7.35,-0.63
27790.0,-9.658,-0.45,-2.816,-9.282,-1.127,1.536,3.15,-13.23,0.07
,-9.648,-0.017,-1.962,-9.194,-2.197,2.331,-6.58,-15.12,-0.7
,-9.744,-0.294,-1.012,-9.541,-2.871,2.465,-20.02,-17.15,-1.47
,-9.538,-0.141,0.268,-10.122,-2.903,2.613,-31.64,-17.78,-1.68
27866.0,-9.969,-2.357,2.187,-7.959,0.711,-1.799,-6.86,21.7,13.58
,-9.576,-1.802,1.031,-7.937,1.22,-2.448,-2.38,27.44,16.31
,-8.871,-0.993,0.153,-8.117,1.541,-2.766,0.42,31.85,18.06
,-8.246,-0.151,-0.761,-8.114,1.67,-2.761,3.08,35.98,18.27
27942.0,-7.712,1.261,-1.675,-9.768,-0.543,-0.804,-6.79,50.19,9.66
,-7.502,0.778,-1.603,-10.873,-0.316,-1.383,-8.4,54.39,9.59
,-7.736,0.045,-1.024,-10.4,-0.141,-2.723,-7.77,58.45,9.66
,-8.727,-0.428,-1.074,-9.069,-0.79,-4.463,-3.57,59.15,9.8
28017.0,-8.155,-2.012,-6.236,-7.449,1.675,-6.341,-7.91,48.3,11.76
,-7.648,-2.254,-7.172,-7.291,2.922,-7.495,4.62,43.26,12.88
,-7.899,-1.027,-8.263,-8.48,2.446,-7.495,18.06,41.02,13.3
,-7.48,0.084,-7.121,-10.246,0.302,-7.595,24.22,43.75,13.02
28093.0,-10.993,-2.589,-7.152,-7.471,-1.019,-6.028,-40.74,27.93,10.15
,-10.632,-3.963,-6.518,-8.066,0.086,-5.092,-28.84,28.07,12.39
,-8.969,-3.546,-6.461,-8.471,1.618,-5.317,-5.11,26.95,10.85
,-7.882,-2.111,-6.2,-8.851,2.9,-5.774,13.3,24.08,10.64
28169.0,-9.289,2.635,-5.688,-8.064,-1.728,-3.295,-14.63,10.43,13.16
,-10.086,1.287,-4.642,-8.947,-1.189,-3.25,-26.74,7.42,12.18
,-9.557,0.06,-4.472,-8.959,0.553,-4.219,-30.73,5.6,12.04
,-7.925,-1.024,-4.159,-8.789,3.417,-5.719,-25.9,8.47,11.76
28245.0,-8.5,5.353,-6.942,-8.459,-1.134,-4.269,22.54,7.35,3.5
,-7.856,5.707,-7.655,-8.057,-3.02,-3.216,14.28,5.25,-0.7
,-8.308,3.788,-6.722,-8.363,-4.403,-3.206,2.8,6.23,-5.18
,-8.732,1.259,-5.231,-9.407,-4.415,-4.374,-2.17,7.0,-9.73
28320.0,-9.89,-3.783,-5.212,-8.497,0.83,-4.996,24.64,18.62,3.43
,-8.768,-2.587,-6.08,-9.385,1.931,-4.044,26.39,15.61,10.29
,-7.609,-1.642,-6.37,-9.806,3.609,-3.955,23.87,14.42,16.45
,-7.83,-0.323,-5.54,-9.296,4.977,-5.365,19.74,15.4,21.77
28396.0,-9.421,5.456,-6.394,-8.272,-1.237,-7.294,-2.59,19.18,2.45
,-9.373,4.379,-7.248,-8.256,-2.328,-7.188,-5.81,17.99,-5.18
,-9.294,2.505,-7.621,-8.406,-2.185,-7.184,-3.57,16.38,-12.95
,-8.634,0.287,-7.394,-8.631,-1.314,-7.66,2.1,14.84,-17.64
28472.0,-8.593,-0.895,-8.119,-8.763,-0.56,-6.119,16.31,3.78,-19.6
,-8.545,-0.967,-8.016,-7.767,-0.421,-5.951,8.05,-0.28,-16.24
,-8.399,-0.988,-7.825,-7.552,-0.718,-6.195,2.24,-3.36,-13.09
,-8.311,-1.082,-6.908,-8.442,-0.797,-6.698,-3.64,-4.06,-10.22
28548.0,-8.744,-0.864,-6.997,-7.916,-0.357,-6.399,-28.07,-18.62,7.49
,-8.804,-1.326,-6.643,-7.865,0.282,-6.26,-22.61,-20.23,7.0
,-8.887,-1.579,-6.229,-8.495,-0.012,-5.707,-14.56,-21.42,5.11
,-8.564,-1.175,-6.126,-9.296,-0.189,-4.982,-6.16,-22.89,4.06
28623.0,-9.474,-0.438,-4.633,-8.016,-0.718,-5.896,-0.49,-20.09,1.05
,-9.61,-0.89,-4.508,-8.011,-0.357,-6.164,1.47,-18.13,2.17
,-9.727,-1.273,-4.585,-8.732,0.069,-5.767,4.13,-17.36,4.48
,-9.021,-1.132,-5.226,-8.2,0.869,-6.054,11.06,-19.81,6.58
28699.0,-8.138,1.204,-5.688,-8.641,2.204,-5.76,17.99,-32.27,8.54
,-8.437,1.383,-5.518,-8.488,2.541,-5.449,11.76,-33.46,8.05
,-8.808,2.199,-5.851,-8.646,2.513,-5.099,4.83,-37.52,7.35
,-8.882,2.608,-5.992,-8.162,2.261,-5.681,-2.24,-40.11,5.18
28775.0,-8.014,1.256,-5.274,-9.155,0.081,-3.676,-13.79,-44.45,-11.62
,-8.54,0.287,-4.822,-8.993,0.335,-3.848,-9.66,-42.14,-12.81
,-9.208,-0.467,-4.075,-8.894,0.203,-3.707,-1.54,-39.83,-13.79
,-9.462,-0.285,-4.027,-8.923,0.038,-3.994,6.79,-39.34,-14.84
28850.0,-9.033,-0.634,-3.226,-8.507,-1.586,-1.883,-0.14,-36.05,-13.65
,-8.823,-1.048,-2.927,-8.78,-1.24,-1.256,-0.63,-38.71,-12.95
,-8.047,-1.115,-2.58,-9.052,-0.771,-0.514,0.49,-39.97,-12.25
,-8.2,-1.426,-2.027,-9.009,-0.431,-0.194,5.53,-38.01,-10.64
28926.0,-9.421,-0.024,0.586,-8.402,1.711,1.369,45.78,-25.13,-4.2
,-9.629,1.472,0.33,-8.361,0.012,2.225,46.62,-25.34,-7.0
,-9.742,3.008,-0.751,-8.787,-1.598,2.481,32.2,-27.37,-12.11
,-8.837,3.23,0.074,-9.509,-1.773,2.187,9.8,-26.53,-16.17
29002.0,-9.986,-1.407,1.084,-9.531,-3.467,-0.883,-14.0,3.5,-13.23
,-9.878,-2.34,0.718,-9.94,-2.539,-2.252,-22.47,7.42,-10.64
,-9.718,-3.192,0.127,-9.976,-1.508,-4.771,-22.33,13.23,-7.0
,-9.344,-3.467,-0.474,-9.371,-1.371,-6.341,-15.47,19.95,-3.71
29078.0,-8.832,-1.438,-6.643,-9.928,0.991,-6.164,0.77,18.34,4.2
,-8.483,-0.579,-6.865,-9.727,0.902,-6.1,14.0,17.36,6.02
,-8.411,0.108,-6.942,-9.385,0.27,-5.453,24.36,16.31,6.79
,-9.088,0.431,-6.289,-9.725,-0.459,-4.659,28.14,14.42,6.72
29153.0,-9.454,-0.079,-4.128,-9.44,-0.211,-2.235,-1.19,-5.81,-0.63
,-8.851,0.395,-3.75,-9.476,-0.488,-1.821,-9.73,-7.77,-2.17
,-8.99,0.007,-3.087,-9.433,-0.864,-1.807,-16.73,-7.0,-2.73
,-9.464,-0.302,-2.67,-9.524,-1.113,-2.096,-18.83,-6.86,-3.78
29229.0,-9.509,-1.18,-2.599,-9.112,-1.168,-3.123,-5.39,0.14,-1.12
,-9.483,-0.976,-3.264,-9.684,-0.943,-3.058,0.28,0.14,-0.28
,-9.119,-1.06,-3.51,-9.818,0.227,-3.348,4.13,0.91,0.84
,-9.028,-1.225,-3.458,-9.313,0.995,-3.735,8.89,2.52,2.1
29305.0,-9.079,0.354,-3.594,-9.655,-0.96,-2.448,-1.61,-3.15,0.63
,-9.069,-0.687,-3.338,-9.82,-0.378,-2.86,-3.22,-1.54,0.56
,-9.11,-1.072,-2.891,-9.675,0.096,-3.362,2.24,0.49,1.4
,-9.342,-1.139,-2.632,-9.493,0.007,-3.666,8.54,2.24,2.31
29381.0,-9.215,-0.467,-3.63,-9.679,-0.144,-3.472,4.83,1.19,1.68
,-9.28,-0.799,-3.62,-9.557,0.017,-3.544,6.16,1.89,1.75
,-9.206,-0.89,-3.46,-9.378,-0.034,-3.944,10.08,2.31,1.96
,-9.402,-0.495,-3.441,-9.107,-0.474,-4.164,13.3,2.31,2.1
29456.0,-8.976,-0.701,-4.168,-9.474,-0.854,-2.572,0.7,-3.92,1.68
,-9.115,-1.039,-3.855,-9.584,-0.524,-3.013,1.89,-4.48,2.17
,-9.184,-1.357,-3.075,-9.22,-0.768,-3.072,6.02,-4.27,3.01
,-9.502,-1.091,-2.958,-9.148,-1.153,-2.972,10.08,-4.55,3.78
29532.0,-9.323,-1.098,-2.874,-9.371,-0.134,-0.491,7.56,-4.62,6.23
,-9.541,-0.742,-2.673,-9.385,-1.12,0.213,10.08,-3.92,6.72
,-9.713,-0.641,-2.113,-9.641,-2.01,0.27,8.54,-3.29,6.44
,-9.567,-0.072,-1.354,-9.497,-1.637,-0.165,3.15,-2.38,6.02
29608.0,-9.737,-0.916,-0.584,-9.024,-0.873,-2.082,-2.38,14.42,10.36
,-9.576,0.397,-1.912,-9.067,-1.058,-1.575,-2.66,15.19,9.73
,-8.959,0.538,-2.156,-8.988,-0.385,-1.086,-8.89,16.59,9.73
,-8.954,-0.065,-2.225,-9.115,0.464,-1.089,-14.49,19.25,11.41
29683.0,-8.88,1.33,-1.35,-9.189,0.584,-1.565,-1.33,28.0,9.59
,-8.576,1.895,-1.603,-8.739,0.287,-2.233,-4.69,29.12,8.12
,-8.516,1.804,-2.063,-8.988,0.132,-2.809,-10.71,31.08,6.37
,-8.667,1.225,-1.436,-9.246,-0.112,-3.135,-10.57,36.12,4.9
29759.0,-9.617,-0.443,-3.154,-7.093,-0.012,-5.274,1.68,42.98,0.14
,-9.414,-1.022,-3.36,-7.787,0.163,-5.647,1.05,40.95,0.77
,-8.844,-1.067,-3.9,-8.442,0.034,-5.721,1.68,36.89,2.87
,-7.741,-0.5,-5.231,-9.086,0.005,-5.889,1.47,32.97,6.09
29835.0,-9.024,0.555,-6.056,-8.904,1.228,-6.494,8.47,36.82,2.94
,-9.787,1.141,-5.585,-8.775,0.055,-6.456,6.79,28.28,0.91
,-9.45,2.173,-6.226,-8.471,-1.029,-6.631,-3.92,16.17,0.7
,-8.531,2.044,-6.265,-8.303,-2.58,-5.822,-17.92,13.79,0.91
29911.0,-8.193,-3.74,-5.109,-9.983,2.596,-6.427,-17.15,16.73,7.56
,-8.571,-3.427,-4.549,-9.682,2.443,-6.485,-3.78,18.76,9.1
,-9.529,-1.622,-4.542,-9.505,1.57,-5.918,9.24,17.85,7.84
,-10.184,1.12,-5.542,-8.916,-0.146,-4.57,16.59,12.53,5.18
29986.0,-8.351,-1.584,-3.257,-9.072,1.079,-4.858,-21.35,2.73,3.99
,-8.031,-1.85,-2.568,-8.796,2.302,-5.944,-11.34,8.12,2.87
,-8.366,-1.553,-2.661,-8.902,2.379,-6.25,-0.21,11.06,3.64
,-8.765,-0.541,-3.865,-9.031,1.371,-6.289,10.22,11.06,4.97
30062.0,-8.507,0.144,-5.92,-8.227,-3.216,-4.762,16.03,2.66,1.82
,-8.129,-0.847,-5.542,-8.181,-2.675,-5.011,19.53,3.5,0.98
,-8.337,-1.766,-5.039,-8.677,-1.18,-5.03,20.51,4.62,0.91
,-8.306,-3.12,-4.666,-8.83,1.584,-5.638,17.5,6.93,3.64
30138.0,-9.21,3.477,-5.815,-9.672,2.046,-3.671,17.22,8.26,18.83
,-9.514,3.465,-5.226,-9.103,3.116,-4.681,5.53,6.93,16.24
,-9.493,2.374,-4.527,-9.146,3.214,-5.43,-2.38,7.21,13.51
,-9.232,1.479,-3.683,-9.349,2.34,-5.652,-2.03,8.96,9.59
30214.0,-9.586,1.113,-5.587,-9.603,-1.003,-6.554,3.01,10.15,-12.81
,-9.859,-0.5,-5.047,-9.229,-2.434,-6.135,6.58,9.38,-15.05
,-10.275,-0.711,-4.822,-8.758,-2.221,-6.463,13.72,7.98,-17.08
,-10.38,-0.376,-5.901,-8.239,-1.07,-6.341,16.45,4.9,-19.18
30289.0,-7.923,0.27,-5.422,-9.265,-1.326,-6.487,20.09,5.04,-15.61
,-7.787,0.854,-4.96,-9.5,-1.34,-6.111,6.44,1.68,-10.78
,-7.368,1.043,-6.494,-8.758,-0.237,-6.107,-11.48,-2.38,-5.53
,-7.858,-0.359,-7.186,-7.763,1.242,-6.64,-24.36,-4.2,-0.91
30365.0,-7.105,1.201,-7.076,-8.66,-0.244,-6.054,-28.63,-27.23,5.25
,-7.901,-0.287,-6.659,-8.882,0.168,-5.944,-35.98,-24.5,4.76
,-8.945,-1.055,-6.195,-9.064,0.816,-5.688,-33.46,-23.03,2.52
,-9.222,-0.641,-5.906,-8.758,0.062,-5.363,-24.22,-22.05,-1.19
30440.0,-8.945,-0.591,-4.448,-8.648,-2.364,-5.011,-4.41,-14.98,-10.22
,-9.866,-0.931,-4.288,-8.186,-2.62,-5.042,3.5,-12.74,-11.41
,-10.301,-1.084,-4.223,-7.901,-1.953,-5.025,10.78,-12.32,-10.92
,-9.806,-1.606,-4.47,-7.789,-0.402,-5.209,15.75,-13.23,-6.93
30516.0,-8.796,0.632,-4.855,-8.339,1.788,-4.432,25.13,-35.63,11.06
,-9.536,1.936,-4.774,-8.894,1.357,-3.774,14.49,-41.3,11.27
,-8.667,2.769,-5.121,-9.213,1.479,-3.542,0.56,-43.4,10.43
,-8.112,2.218,-4.628,-9.954,0.986,-3.087,-12.25,-40.11,7.35
30592.0,-9.899,1.201,-3.585,-9.064,0.572,-3.281,4.76,-38.22,-7.91
,-8.758,1.206,-3.695,-9.052,0.433,-3.539,4.9,-38.78,-8.33
,-8.466,0.952,-3.297,-9.675,-0.158,-3.872,7.77,-34.3,-9.38
,-8.94,0.785,-3.211,-9.304,-0.263,-4.42,12.39,-30.38,-11.27
30668.0,-8.368,-0.981,-3.697,-8.533,-0.266,0.625,2.45,-38.99,-10.43
,-8.569,-1.742,-2.603,-9.014,-0.562,0.871,8.61,-32.55,-9.52
,-9.182,-2.314,-0.747,-9.349,-0.759,1.479,16.31,-31.22,-9.8
,-8.569,-1.089,-0.022,-9.474,-0.651,2.682,19.6,-32.76,-9.66
30744.0,-9.986,-0.211,2.962,-9.217,1.127,1.445,19.88,-7.56,-4.62
,-9.222,1.065,2.517,-8.72,0.306,1.792,20.16,-3.85,-5.67
,-9.557,1.625,1.484,-8.918,-0.893,1.804,14.91,-0.63,-6.72
,-9.131,1.39,1.838,-9.435,-1.95,1.814,5.32,3.08,-7.21
30819.0,-10.268,-2.108,1.302,-8.016,-3.199,-5.875,-1.96,32.48,-4.55
,-10.318,-0.995,-1.295,-8.392,-2.922,-5.843,-7.28,30.03,-5.18
,-9.797,-0.546,-4.147,-9.237,-1.125,-7.186,-19.67,26.6,-5.67
,-8.847,-1.895,-5.535,-9.416,0.742,-8.765,-28.0,26.04,-4.34
30895.0,-8.866,0.447,-9.217,-9.402,-0.66,-5.264,2.52,16.66,0.49
,-9.129,-0.345,-8.119,-9.469,-0.577,-4.75,3.29,15.19,1.82
,-9.696,-0.744,-6.7,-9.462,-0.45,-4.149,13.16,14.7,1.68
,-9.792,-0.993,-6.001,-9.617,0.043,-3.446,20.86,12.88,1.82
30971.0,-9.667,0.309,-2.826,-9.234,-0.806,-3.178,24.78,4.69,1.89
,-9.586,0.443,-2.989,-9.447,-0.873,-2.97,17.43,3.22,1.26
,-9.215,0.105,-3.331,-9.545,-0.823,-2.843,10.85,2.52,1.12
,-8.964,-0.668,-3.293,-9.371,-0.44,-2.867,8.75,2.94,1.68
31047.0,-9.182,-0.278,-3.147,-8.887,-0.407,-3.546,14.42,-1.61,3.08
,-9.39,-0.581,-3.482,-9.184,-0.775,-3.458,9.94,-2.66,2.38
,-9.435,-0.493,-3.795,-9.366,-0.275,-3.463,3.64,-5.46,-0.28
,-8.976,-0.23,-3.649,-9.129,-0.029,-3.336,-1.4,-6.65,-0.98
31122.0,-9.083,-0.526,-2.905,-9.789,0.065,-3.463,-2.45,-6.93,-0.56
,-9.237,-0.926,-2.35,-9.33,-0.282,-4.116,0.0,-3.99,0.14
,-9.418,-0.907,-2.091,-9.086,-0.704,-4.496,4.2,-1.47,0.77
,-9.61,-0.385,-2.417,-8.897,-1.022,-4.439,5.32,-0.77,0.63
31198.0,-8.964,-0.871,-4.137,-9.557,-0.17,-2.79,9.24,-2.87,1.12
,-9.186,-0.558,-3.451,-9.608,-0.263,-3.106,13.65,-2.59,1.89
,-9.655,-0.275,-3.161,-9.548,-0.292,-3.111,13.72,-3.5,2.24
,-9.502,-0.034,-2.862,-9.538,0.311,-3.446,9.52,-4.48,2.24
31273.0,-9.052,0.385,-3.252,-9.332,-1.122,-3.185,-17.15,-12.04,-3.01
,-9.067,-0.447,-3.262,-9.371,-1.003,-3.154,-21.35,-11.97,-3.01
,-9.206,-1.34,-3.113,-9.529,-0.797,-3.266,-16.87,-10.08,-2.1
,-9.526,-1.321,-3.113,-9.785,-0.804,-2.936,-7.49,-9.1,-1.05
31349.0,-9.794,0.043,-2.101,-9.249,-1.299,-0.562,-2.03,-14.63,0.7
,-9.131,0.663,-1.455,-9.198,-1.704,0.392,-14.14,-17.5,-0.28
,-8.928,-0.141,-1.17,-9.287,-2.01,1.436,-22.54,-14.0,0.07
,-9.234,-1.019,-1.077,-9.476,-2.034,2.161,-22.12,-8.68,0.84
31425.0,-9.981,-1.307,1.443,-8.301,-0.342,-2.467,4.48,27.3,10.15
,-10.122,-0.517,0.94,-7.813,-1.608,-2.498,4.06,29.75,10.57
,-9.974,0.603,-0.914,-7.794,-2.335,-2.187,-1.19,27.16,9.38
,-9.057,0.816,-1.986,-8.296,-2.608,-1.701,-10.43,25.41,8.33
31501.0,-8.966,-2.115,-1.981,-8.894,1.46,-1.883,31.57,52.5,19.11
,-8.904,-1.223,-1.797,-8.5,2.4,-3.946,43.05,53.62,19.25
,-8.981,-0.28,-1.153,-7.775,2.19,-5.43,50.61,55.16,19.25
,-9.71,0.531,-1.675,-8.473,1.108,-5.389,47.81,51.52,17.92
31577.0,-8.981,1.134,-5.152,-7.971,0.036,-4.726,-14.77,40.39,7.63
,-8.504,1.417,-4.913,-8.981,-0.778,-5.195,-9.1,42.84,4.55
,-8.124,1.072,-4.267,-10.823,-1.316,-5.465,-5.74,47.32,2.52
,-8.344,0.79,-4.228,-11.941,-1.491,-6.169,-6.02,49.21,2.24
31652.0,-10.809,-0.309,-6.971,-8.248,2.343,-7.456,18.9,25.76,7.7
,-7.578,1.323,-7.736,-10.34,0.041,-6.004,24.22,22.05,6.72
,-5.154,2.754,-7.882,-10.524,-2.795,-4.697,24.43,22.82,1.54
,-6.021,3.142,-7.796,-9.167,-4.745,-4.417,15.33,20.23,-5.04
31728.0,-8.361,-5.322,-4.712,-8.189,1.984,-5.729,-32.97,13.23,8.19
,-8.232,-3.199,-5.379,-9.115,2.362,-5.518,-14.49,9.73,10.92
,-7.944,-1.07,-5.951,-9.935,1.91,-4.939,-3.57,9.17,14.49
,-7.621,0.742,-5.963,-10.462,0.737,-4.111,3.43,12.18,17.08
31804.0,-9.99,-0.38,-3.877,-8.224,0.223,-5.449,0.84,14.28,1.54
,-8.471,-0.945,-4.013,-8.031,0.704,-5.87,8.19,17.08,-1.05
,-7.858,-0.9,-4.164,-7.889,0.761,-6.358,18.34,19.88,-2.66
,-8.43,-0.199,-4.48,-8.169,0.239,-6.104,23.87,18.2,-1.82
31880.0,-8.744,-0.507,-5.382,-8.332,-2.276,-5.339,19.04,14.49,0.63
,-8.928,-0.672,-5.296,-8.689,-1.046,-5.602,17.29,13.37,1.4
,-8.265,-1.091,-5.822,-8.727,1.0,-6.061,12.67,12.39,5.74
,-8.026,-1.668,-5.698,-8.799,2.07,-6.083,10.08,13.93,10.71
31955.0,-8.961,1.847,-5.666,-9.208,2.673,-5.843,5.74,11.2,14.14
,-9.024,1.874,-5.571,-9.057,2.675,-6.164,0.84,10.01,12.88
,-8.583,1.965,-5.839,-8.961,1.96,-6.387,-1.19,8.96,10.5
,-8.454,2.158,-5.678,-8.818,1.079,-6.609,-1.54,10.57,7.7
32031.0,-8.758,0.732,-7.054,-8.399,-0.991,-6.461,9.8,7.98,-16.17
,-8.985,0.031,-7.011,-7.889,-0.519,-6.214,14.84,6.65,-19.81
,-9.296,-0.955,-6.612,-8.004,-0.4,-6.061,16.94,5.32,-21.91
,-8.942,-1.56,-6.368,-8.325,-0.292,-5.91,19.53,4.06,-21.56
32106.0,-8.545,0.115,-6.159,-8.993,-1.263,-6.207,-5.95,0.28,-8.4
,-8.579,0.464,-6.178,-8.413,-2.041,-6.219,-13.86,-3.22,-7.28
,-8.753,0.206,-6.353,-8.138,-2.063,-6.214,-23.59,-9.03,-6.93
,-8.949,-0.242,-6.222,-7.911,-1.785,-6.155,-29.75,-12.39,-6.3
32182.0,-8.203,-2.051,-6.023,-8.224,-1.991,-6.1,-5.53,-13.72,-2.24
,-8.789,-2.218,-5.87,-8.358,-1.685,-5.839,-2.24,-13.44,1.68
,-8.67,-2.29,-6.088,-9.04,-1.101,-5.578,0.63,-14.42,5.39
,-8.248,-2.19,-6.25,-8.689,0.503,-6.277,2.73,-14.84,8.4
32258.0,-8.373,1.603,-6.559,-8.643,1.974,-5.843,1.05,-30.31,14.98
,-8.282,2.182,-6.554,-8.643,0.806,-5.726,-1.12,-30.87,12.88
,-8.667,2.687,-6.49,-8.871,-0.438,-5.456,-3.57,-33.11,9.38
,-8.775,2.797,-6.176,-8.82,-1.01,-5.602,-6.37,-35.07,4.97
32334.0,-8.696,-0.883,-5.899,-8.624,-0.333,-5.085,16.1,-38.01,-0.98
,-8.576,-0.701,-5.975,-8.679,0.352,-5.173,21.28,-38.57,-0.56
,-8.323,-0.809,-5.705,-8.794,0.902,-4.934,22.47,-37.94,-0.28
,-8.267,-0.419,-5.422,-8.973,1.519,-4.367,21.63,-37.73,0.91
32410.0,-8.892,1.704,-4.101,-8.942,1.663,-3.46,5.88,-39.2,-0.63
,-8.997,1.634,-3.731,-8.899,1.201,-3.178,4.9,-39.55,-3.01
,-9.282,1.881,-3.556,-8.88,0.675,-3.178,5.11,-42.14,-5.39
,-9.148,1.902,-3.654,-8.49,0.199,-2.446,4.48,-45.36,-7.56
32485.0,-8.567,-0.215,-2.505,-8.985,-1.642,0.007,14.35,-46.48,-13.86
,-8.294,-0.897,-1.472,-9.026,-1.122,0.122,15.26,-44.38,-13.51
,-8.552,-1.254,-1.62,-8.935,-0.548,-0.124,14.98,-43.61,-12.53
,-8.576,-1.589,-0.455,-8.856,-0.134,-0.299,16.8,-41.65,-10.71
32561.0,-8.949,-0.275,0.481,-9.67,0.89,0.749,20.72,-25.41,-8.61
,-9.091,-0.115,0.627,-9.397,0.383,1.299,21.07,-20.16,-8.05
,-9.076,0.002,0.864,-9.622,-0.648,1.311,24.29,-15.19,-7.84
,-9.15,0.763,1.228,-9.612,-1.866,0.053,22.19,-11.34,-8.54
32637.0,-9.521,-3.156,-0.045,-9.923,0.115,-3.527,-19.32,10.92,-6.79
,-9.605,-3.242,0.043,-9.397,-0.034,-4.506,-7.14,16.94,-3.64
,-9.887,-2.527,-0.337,-9.028,-1.244,-4.389,4.62,22.19,-0.84
,-10.11,-1.067,-1.768,-9.095,-1.699,-4.587,10.57,24.08,0.28
32713.0,-9.28,-0.806,-4.92,-9.086,-0.641,-5.755,12.81,18.62,2.45
,-9.505,0.443,-6.279,-9.299,-0.254,-5.109,16.1,14.0,1.89
,-9.261,0.565,-6.506,-9.459,-0.034,-4.228,10.29,8.96,1.12
,-8.926,-0.005,-6.164,-10.203,-0.304,-3.592,4.27,4.76,0.91
32788.0,-9.478,1.302,-2.242,-9.612,-1.785,-0.938,-29.68,-15.82,-6.86
,-8.521,0.684,-1.582,-9.641,-1.417,-1.091,-52.78,-18.62,-8.33
,-8.978,-1.469,-1.137,-9.88,-0.871,-1.618,-55.37,-13.58,-7.21
,-9.983,-2.357,-0.811,-9.636,-0.158,-2.714,-40.6,-7.56,-6.02
32864.0,-9.282,-0.115,-3.259,-9.373,-0.912,-3.211,-8.75,4.41,-0.91
,-9.155,-0.34,-3.836,-9.648,-0.771,-2.984,-6.65,5.46,-0.49
,-8.923,-0.696,-3.857,-9.73,-0.321,-3.149,-1.89,6.65,0.21
,-9.074,-0.912,-3.542,-9.588,-0.096,-3.238,5.46,8.19,1.26
32939.0,-9.521,-0.366,-3.281,-9.787,-0.505,-3.714,15.75,7.35,2.73
,-9.471,-0.665,-3.254,-9.744,-0.704,-3.908,15.47,6.93,2.73
,-9.536,-0.72,-3.355,-9.409,-0.541,-4.173,16.8,6.93,3.29
,-9.569,-0.366,-3.587,-9.213,-0.613,-4.19,14.91,5.74,3.5
33015.0,-9.217,-0.759,-4.331,-9.344,0.144,-3.479,11.34,-1.19,4.2
,-9.17,-0.653,-4.3,-9.222,-0.096,-3.183,13.44,-2.73,3.85
,-9.462,-0.622,-4.054,-9.301,-0.555,-3.017,12.95,-4.62,3.22
,-9.533,-0.175,-3.814,-9.409,-0.615,-3.101,10.08,-6.79,1.89
33091.0,-9.313,-0.713,-2.96,-9.328,-0.866,-1.95,-2.31,-10.22,0.28
,-9.371,-0.706,-2.79,-9.474,-0.849,-1.665,-0.91,-10.01,0.98
,-9.43,-0.838,-2.627,-9.682,-0.514,-1.859,0.28,-9.8,1.61
,-9.351,-0.773,-2.242,-9.742,-0.39,-1.941,0.98,-9.38,2.24
33167.0,-9.55,-0.333,-1.721,-9.459,-1.378,0.139,-3.57,-5.67,3.08
,-9.282,-0.589,-1.362,-9.533,-1.206,0.747,-9.45,-4.62,3.22
,-9.194,-1.244,-0.684,-9.584,-1.034,1.086,-10.99,-1.54,4.34
,-9.328,-1.677,-0.029,-9.593,-0.995,1.103,-5.6,3.43,5.95
33243.0,-9.6,-1.117,1.395,-8.638,-0.646,-1.51,5.11,30.73,13.16
,-9.478,-0.512,0.067,-8.655,-0.991,-1.129,3.99,33.32,13.44
,-8.957,-0.22,-0.72,-8.918,-1.0,-0.854,0.28,35.7,13.72
,-8.658,-0.414,-1.129,-8.392,-0.127,-1.402,-3.15,38.71,14.56
33318.0,-7.971,1.055,-1.79,-8.011,0.443,-4.602,12.67,51.31,14.14
,-8.77,1.263,-2.575,-7.626,0.742,-5.525,4.69,50.05,13.09
,-9.22,1.034,-2.893,-7.971,1.522,-5.051,-4.48,49.07,12.25
,-9.067,0.641,-4.348,-9.139,1.917,-5.793,-12.04,47.74,11.9
33394.0,-9.313,0.651,-5.334,-8.933,-2.125,-2.761,-13.3,34.09,4.83
,-8.849,-1.295,-4.164,-9.447,-0.225,-4.178,-21.21,40.25,6.02
,-8.526,-2.816,-2.974,-9.777,2.044,-5.791,-16.31,48.09,7.49
,-8.65,-3.199,-2.259,-8.978,3.958,-7.404,0.0,54.67,8.89
33470.0,-8.062,4.781,-8.043,-9.287,-0.474,-5.281,-2.17,28.84,11.27
,-7.578,4.757,-7.798,-9.78,-2.627,-5.054,-12.88,31.01,5.6
,-7.31,3.934,-7.928,-9.627,-3.752,-5.25,-23.59,30.1,0.91
,-7.566,1.845,-7.227,-9.098,-3.197,-5.997,-35.49,28.98,-1.26
33546.0,-9.064,-1.653,-6.502,-9.576,2.391,-7.454,14.14,21.35,-0.49
,-8.823,-0.084,-7.215,-9.694,0.938,-7.286,24.99,18.62,-2.31
,-8.641,2.307,-7.693,-9.672,-0.29,-6.339,30.17,15.05,-4.41
,-8.902,3.503,-8.05,-9.119,-1.249,-5.65,22.89,10.29,-6.3
33621.0,-7.306,-1.826,-5.422,-8.868,-0.447,-5.779,-0.84,-3.29,-13.23
,-6.619,-2.316,-4.927,-9.0,-1.175,-5.19,5.11,0.7,-11.34
,-7.528,-1.756,-5.296,-8.89,-2.367,-4.803,10.92,2.03,-7.28
,-8.385,-0.67,-5.805,-9.148,-3.312,-4.061,17.08,1.82,-4.13
33697.0,-9.371,-3.061,-3.273,-8.093,5.037,-5.535,16.1,2.24,14.91
,-8.435,-1.725,-3.096,-8.536,5.628,-5.877,20.16,4.27,16.45
,-7.815,1.029,-3.872,-9.239,5.097,-5.817,22.26,5.81,18.41
,-7.6,3.553,-4.86,-9.651,3.704,-5.358,15.33,7.56,20.79
33772.0,-9.739,2.175,-5.324,-8.966,0.28,-7.064,-13.37,11.06,-8.96
,-9.344,0.258,-5.059,-8.67,-0.086,-7.006,-7.07,10.85,-14.63
,-9.052,-0.814,-5.547,-8.442,-1.531,-6.554,3.08,9.87,-18.76
,-8.916,-0.474,-6.535,-9.115,-2.723,-5.592,14.35,8.26,-20.51
33848.0,-9.643,-2.644,-5.432,-7.995,-0.794,-5.997,4.48,-1.26,-14.84
,-9.691,-2.134,-5.674,-7.736,-1.177,-5.642,5.04,-4.41,-14.91
,-9.947,-1.594,-5.492,-8.105,-1.522,-5.142,1.68,-6.86,-14.0
,-9.323,-0.814,-5.535,-8.402,-1.677,-4.877,-3.15,-8.82,-10.22
33924.0,-8.576,-1.137,-4.805,-8.928,-0.735,-5.719,-1.19,-5.04,4.41
,-8.373,-0.495,-5.485,-8.686,-0.639,-6.018,1.68,-9.24,7.07
,-8.066,-0.189,-6.071,-8.466,0.148,-6.31,0.98,-11.27,8.82
,-8.631,-0.397,-5.717,-8.531,0.586,-6.487,-1.54,-11.83,10.01
34000.0,-8.768,0.354,-6.214,-8.729,-0.72,-5.245,-4.83,-15.89,7.84
,-8.954,0.124,-5.939,-9.225,-0.534,-5.02,-3.57,-15.68,5.95
,-8.839,0.029,-5.879,-9.409,0.179,-5.446,0.07,-14.84,4.41
,-8.674,-0.172,-5.616,-8.78,0.921,-6.152,5.95,-13.37,3.01
34076.0,-8.473,0.742,-5.891,-8.763,1.235,-5.851,13.02,-30.24,6.72
,-8.851,0.646,-5.645,-8.509,1.189,-5.915,9.17,-31.92,5.04
,-8.818,1.091,-5.882,-8.555,1.168,-5.468,6.93,-33.81,2.73
,-8.746,1.395,-5.934,-9.198,1.46,-4.803,3.08,-34.44,0.91
34151.0,-9.931,0.826,-4.142,-8.208,-0.871,-5.336,7.28,-28.98,-8.68
,-9.538,0.668,-4.322,-7.988,-1.388,-5.231,4.2,-35.28,-9.24
,-9.229,0.273,-4.649,-8.217,-1.68,-4.453,-1.54,-40.95,-9.1
,-8.686,-0.237,-5.018,-8.588,-1.278,-3.79,-5.11,-43.4,-7.84
34227.0,-8.847,-0.488,-3.544,-9.811,0.56,-2.857,31.36,-32.76,-1.75
,-8.966,0.493,-3.752,-9.251,1.067,-2.572,34.02,-34.51,-1.54
,-8.897,0.881,-3.704,-8.346,1.668,-1.732,28.84,-37.59,-1.75
,-8.973,1.017,-3.259,-8.543,1.28,-1.328,20.93,-39.97,-2.52
34303.0,-8.485,0.979,-0.694,-9.227,-1.122,1.807,-8.47,-45.22,-17.08
,-8.497,0.503,0.153,-9.069,-1.417,2.601,-8.47,-41.58,-18.34
,-8.631,-0.007,1.275,-8.856,-1.543,3.527,-5.11,-35.14,-17.85
,-9.349,-0.768,0.986,-8.981,-1.579,3.726,0.0,-29.19,-17.08
34379.0,-9.49,-1.237,3.652,-9.143,-2.056,1.311,16.94,3.57,-8.96
,-9.954,-0.699,3.463,-9.44,-2.931,0.395,7.42,8.26,-8.33
,-10.057,-0.498,2.843,-9.919,-2.816,-1.115,-10.99,11.55,-8.05
,-9.562,-1.036,2.149,-9.876,-2.046,-3.388,-29.54,17.57,-7.7
34454.0,-9.466,-1.479,-5.547,-9.002,0.617,-8.153,-8.26,36.26,2.94
,-9.143,-1.184,-7.174,-9.284,1.271,-7.82,-2.66,32.48,4.13
,-8.722,-0.835,-8.114,-9.347,1.448,-7.255,7.21,29.19,5.04
,-8.655,-0.179,-8.193,-9.483,0.969,-6.42,21.98,27.51,5.88
34530.0,-9.502,0.471,-5.954,-9.44,-1.642,-2.986,10.01,6.93,-0.56
,-9.17,0.112,-5.025,-9.631,-1.529,-2.3,3.36,1.47,-2.17
,-9.081,-0.316,-4.482,-9.713,-1.311,-2.307,-2.45,-1.26,-2.66
,-9.081,-1.113,-3.659,-9.457,-1.275,-2.209,-4.76,-2.31,-2.73
34605.0,-9.44,-0.878,-2.388,-9.533,-0.522,-2.465,1.4,-1.33,0.0
,-9.182,-0.696,-2.414,-9.756,-0.251,-2.723,3.22,0.0,0.56
,-9.198,-0.615,-2.362,-9.61,-0.103,-3.065,6.72,1.89,1.33
,-9.332,-0.445,-2.568,-9.363,-0.153,-3.802,9.31,3.57,1.61
34681.0,-8.942,-0.438,-4.214,-9.768,-0.553,-2.764,-0.21,1.68,-0.14
,-8.875,-0.981,-3.929,-9.605,-0.371,-2.922,1.12,2.24,0.35
,-9.062,-1.077,-3.51,-9.56,-0.558,-3.056,5.74,2.94,0.91
,-9.433,-1.012,-2.893,-9.502,-0.61,-3.446,10.64,4.06,1.47
34757.0,-9.392,-0.749,-3.625,-9.115,-0.158,-4.185,4.55,3.29,1.96
,-9.275,-0.873,-3.819,-9.112,-0.005,-4.317,5.18,2.87,2.1
,-9.198,-0.845,-3.733,-9.057,-0.077,-4.396,6.3,2.52,2.31
,-9.328,-0.519,-4.046,-9.127,-0.237,-4.202,8.05,1.54,2.17
34833.0,-9.15,-0.194,-3.936,-9.813,-0.369,-3.104,3.92,-4.2,0.0
,-9.172,-0.196,-3.46,-9.529,-0.424,-3.446,5.32,-4.97,-0.28
,-9.332,-0.211,-2.998,-9.186,-0.998,-3.3,4.69,-5.18,-0.56
,-9.5,-0.419,-2.881,-9.122,-1.548,-3.228,2.73,-5.53,-0.77
34909.0,-9.251,-1.586,-3.089,-9.122,-0.869,-3.738,2.38,-6.09,-0.42
,-9.426,-1.067,-3.151,-9.048,-1.144,-3.745,6.65,-6.3,0.28
,-9.392,-0.663,-3.221,-9.095,-1.256,-3.544,6.51,-6.65,0.7
,-9.311,-0.586,-3.594,-9.383,-1.151,-3.195,3.99,-7.42,0.84
34984.0,-9.548,-0.708,-3.111,-9.306,-0.72,-2.998,13.16,-7.49,4.2
,-9.404,-0.359,-3.137,-9.387,-0.615,-2.898,12.6,-7.56,4.55
,-9.208,-0.38,-3.096,-9.44,-0.44,-2.84,9.24,-8.05,4.62
,-9.263,-0.61,-3.068,-9.521,-0.347,-2.733,7.21,-8.12,4.69
35060.0,-9.541,-0.419,-2.424,-9.832,-0.672,-0.187,2.73,-7.0,4.41
,-9.529,-0.462,-2.048,-9.864,-0.775,0.206,1.26,-5.6,4.55
,-9.438,-0.675,-1.402,-9.878,-0.995,0.354,0.49,-3.43,4.83
,-9.646,-0.725,-0.641,-9.624,-0.857,0.445,0.49,-0.42,5.32
35136.0,-9.349,-0.718,0.498,-8.77,0.335,-1.838,-11.69,18.9,8.89
,-9.189,-0.323,0.014,-8.981,0.223,-2.295,-13.3,21.91,9.31
,-8.775,0.12,-0.907,-9.026,-0.476,-1.673,-18.83,23.03,8.4
,-8.536,0.208,-1.096,-8.971,-0.83,-1.07,-22.26,24.36,7.49
35212.0,-8.653,-0.964,0.074,-9.646,-0.337,-1.127,-19.88,35.91,7.77
,-8.368,-0.605,-0.115,-9.617,-0.203,-1.737,-9.59,39.48,7.56
,-8.641,-0.201,-0.842,-9.081,-0.254,-3.099,-2.38,42.35,6.37
,-8.997,-0.349,-0.727,-7.832,-0.292,-4.657,-0.77,45.92,6.51
35287.0,-7.775,-0.333,-5.185,-8.007,-1.395,-4.74,7.07,44.94,9.38
,-8.1,0.529,-5.532,-8.579,-1.912,-4.393,11.55,41.02,10.5
,-8.011,0.845,-5.485,-9.021,-1.481,-3.494,10.01,39.13,9.87
,-7.911,-0.112,-5.683,-10.021,-1.22,-3.331,2.66,40.95,8.96
35363.0,-10.081,-0.842,-4.346,-7.492,2.108,-7.258,7.77,49.77,10.71
,-9.442,0.847,-5.755,-7.377,1.484,-6.906,2.8,40.25,14.7
,-8.342,2.965,-7.203,-8.236,0.761,-6.236,-3.85,34.02,15.96
,-7.71,3.137,-7.514,-9.337,0.144,-5.714,-8.89,34.79,12.95
35438.0,-9.612,-0.651,-5.097,-8.342,-0.467,-6.566,-2.73,24.5,4.27
,-8.734,-1.326,-5.355,-8.507,1.228,-7.444,-0.77,24.08,2.38
,-8.569,-1.807,-5.351,-9.129,2.57,-7.925,0.63,24.22,2.59
,-8.375,-1.649,-6.121,-9.036,3.053,-8.258,1.47,23.94,5.25
35514.0,-8.964,2.326,-7.722,-8.045,-1.462,-5.044,-14.49,14.07,-3.01
,-8.964,0.735,-6.657,-8.122,-1.759,-5.212,-18.48,11.2,-4.27
,-8.514,-0.089,-6.42,-8.612,-1.476,-5.477,-15.47,8.68,-5.88
,-8.232,-0.759,-5.901,-8.904,-0.526,-6.351,-10.5,9.1,-7.77
35590.0,-8.823,-0.146,-6.997,-8.284,-3.64,-5.078,14.84,4.83,-1.61
,-8.892,-1.017,-6.712,-8.997,-2.936,-4.748,10.57,3.36,0.84
,-8.847,-2.486,-6.03,-8.835,-1.933,-4.508,7.98,2.52,3.08
,-8.334,-3.733,-5.317,-8.375,-0.388,-4.929,10.99,2.17,5.46
35666.0,-8.136,1.065,-5.559,-9.22,3.527,-5.638,15.54,4.55,23.52
,-8.138,1.96,-5.456,-9.725,2.527,-5.157,10.36,4.34,24.22
,-7.88,2.874,-5.748,-9.234,1.948,-5.599,7.14,4.83,21.56
,-8.186,3.867,-5.903,-8.681,1.677,-6.042,5.11,5.6,17.29
35742.0,-8.99,1.601,-6.372,-8.086,-0.395,-6.636,16.31,7.07,-11.62
,-8.823,1.742,-6.765,-8.267,-1.266,-6.152,18.83,5.81,-14.7
,-8.464,1.218,-6.904,-8.318,-1.462,-5.91,16.52,4.55,-16.59
,-8.148,0.345,-6.877,-8.136,-0.854,-6.298,12.6,4.2,-17.43
35817.0,-8.138,0.251,-6.411,-8.892,-0.629,-5.695,-6.72,-3.01,-6.72
,-8.555,1.027,-6.76,-8.088,-0.885,-5.944,-12.11,-5.6,-6.72
,-9.069,0.555,-6.356,-7.667,-1.204,-6.291,-20.23,-7.21,-7.63
,-9.165,-0.105,-5.853,-8.229,-1.555,-6.391,-24.78,-7.49,-7.91
35893.0,-8.626,-1.575,-6.36,-8.485,-0.129,-5.535,-7.42,-9.8,-0.91
,-8.765,-0.905,-6.095,-8.799,-0.235,-5.532,1.47,-10.85,-1.4
,-8.571,-0.428,-5.908,-8.918,-0.677,-5.757,4.69,-12.6,-2.24
,-8.421,-0.203,-5.578,-8.88,-1.335,-5.899,3.5,-13.37,-2.1
35969.0,-8.643,-0.926,-6.351,-8.933,-0.747,-6.202,2.45,-20.23,3.15
,-8.402,0.043,-6.803,-9.005,-0.445,-6.375,9.24,-23.8,2.45
,-8.165,0.177,-6.868,-8.576,-0.227,-6.619,9.94,-26.6,1.75
,-8.246,-0.275,-6.509,-8.461,-0.194,-6.427,8.68,-26.95,2.66
36045.0,-8.334,0.132,-6.135,-8.212,0.428,-5.293,10.92,-35.7,4.62
,-8.466,0.952,-6.095,-8.39,0.361,-4.755,11.97,-37.94,4.27
,-8.1,1.721,-6.324,-8.617,0.488,-4.47,7.07,-40.6,3.15
,-8.047,1.235,-6.044,-8.636,0.737,-4.331,0.49,-41.51,2.31
36120.0,-8.758,0.804,-4.113,-9.067,0.56,-3.271,9.8,-48.16,-2.1
,-8.844,0.749,-4.298,-8.772,0.443,-3.13,11.13,-48.72,-3.64
,-9.05,0.57,-4.046,-8.382,0.268,-3.183,13.16,-49.21,-5.67
,-9.057,0.392,-3.479,-8.299,-0.067,-2.414,16.94,-48.3,-6.86
36196.0,-8.574,-0.388,-2.156,-8.978,0.541,0.048,20.58,-45.85,-9.1
,-8.725,-0.357,-1.479,-9.033,0.373,0.701,24.78,-43.47,-9.45
,-8.99,-0.196,-0.735,-9.194,0.479,1.388,30.52,-40.18,-9.87
,-9.227,0.325,-0.644,-9.478,0.701,0.881,32.48,-37.8,-10.92
36271.0,-9.162,0.601,1.601,-9.459,-1.594,1.146,13.58,-18.83,-17.64
,-9.131,0.445,0.952,-9.897,-1.948,0.337,4.69,-14.7,-18.62
,-8.811,-0.258,1.228,-9.926,-2.192,-0.639,-3.5,-9.38,-18.41
,-8.835,-1.187,1.756,-9.536,-2.694,-1.491,-6.65,-2.45,-16.73
36347.0,-9.127,-3.269,-2.034,-9.718,0.443,-5.02,-16.66,17.64,-7.49
,-9.189,-3.575,-1.998,-9.189,-0.017,-5.583,-5.04,22.75,-3.85
,-9.706,-2.632,-2.508,-9.024,-0.821,-5.867,10.57,25.27,-0.91
,-10.026,-0.653,-3.766,-9.04,-0.742,-6.226,19.04,24.5,-0.07
36423.0,-8.988,0.194,-6.942,-9.139,-1.208,-5.051,19.95,9.87,0.56
,-8.71,0.759,-7.105,-9.079,-0.239,-4.334,15.75,4.2,-0.77
,-8.76,-0.235,-6.705,-9.328,-0.227,-3.218,9.52,-0.21,-1.33
,-8.993,-1.251,-5.832,-9.552,-0.692,-2.548,9.87,-3.22,-0.7
36499.0,-9.318,-1.091,-2.099,-9.732,-0.416,-2.103,0.49,-9.8,-1.61
,-9.265,-1.256,-1.943,-9.541,-0.086,-2.85,0.91,-8.82,-1.19
,-9.438,-1.184,-1.615,-9.143,-0.603,-2.931,2.38,-6.79,-0.49
,-9.538,-1.05,-1.565,-8.997,-1.464,-2.539,4.48,-4.48,0.35
36574.0,-8.988,-1.991,-2.082,-9.864,0.081,-3.228,-1.61,1.05,2.1
,-9.469,-1.608,-1.673,-9.301,-0.218,-3.484,8.4,3.36,3.64
,-9.892,-0.835,-1.989,-9.002,-0.742,-3.448,14.07,4.2,3.78
,-10.074,0.053,-2.737,-9.033,-1.06,-3.515,12.81,3.36,2.94
36650.0,-9.323,-0.732,-3.427,-9.179,-0.995,-3.829,5.67,2.66,1.12
,-9.574,-0.266,-3.419,-9.146,-1.548,-3.726,5.95,1.96,0.77
,-9.698,-0.014,-3.917,-9.253,-1.61,-3.642,0.42,-0.35,-0.21
,-9.395,-0.347,-3.924,-9.39,-1.409,-3.185,-5.81,-2.1,-0.84
36726.0,-9.536,-0.995,-3.075,-8.911,-0.175,-3.046,7.21,-2.66,1.26
,-9.691,-0.711,-2.994,-9.131,-1.139,-2.931,5.95,-3.29,1.33
,-9.646,-0.503,-3.144,-9.485,-1.634,-2.886,-0.91,-5.39,0.07
,-9.186,-0.096,-3.099,-9.529,-1.395,-3.108,-8.96,-6.79,-0.49
36802.0,-9.579,-0.964,-3.312,-9.591,-0.847,-3.97,-2.87,-4.83,2.1
,-9.442,-0.316,-3.86,-9.43,-1.082,-4.123,-1.26,-6.09,2.03
,-9.335,-0.17,-4.001,-9.318,-1.625,-3.8,-1.82,-7.14,1.68
,-9.43,-0.438,-4.034,-9.282,-1.732,-3.812,-2.94,-7.84,1.54
36878.0,-9.21,-1.541,-3.618,-9.418,1.015,-1.821,12.67,-12.04,4.69
,-9.299,-1.163,-3.439,-9.356,-0.144,-1.273,17.15,-12.81,5.95
,-9.71,-0.727,-3.013,-9.39,-1.5,-0.84,17.64,-14.14,6.02
,-9.753,0.452,-2.529,-9.433,-1.816,-0.237,10.64,-16.87,4.69
36953.0,-9.284,-2.0,0.634,-10.096,-0.029,1.24,-7.63,-3.01,7.07
,-9.418,-2.12,1.642,-9.675,0.263,0.675,-0.49,4.41,9.31
,-9.746,-1.642,2.158,-9.435,0.031,-0.005,5.88,11.13,10.92
,-10.005,-0.723,1.692,-8.863,-0.45,-0.885,7.07,15.96,11.41
37029.0,-8.457,-1.053,-1.086,-8.892,0.347,-0.388,-30.03,28.63,10.92
,-8.174,-1.072,-1.216,-8.603,0.385,-0.806,-25.27,32.97,11.34
,-8.375,-0.699,-0.67,-8.973,0.244,-0.318,-16.1,37.87,11.41
,-8.576,0.057,-0.653,-9.502,0.632,-1.857,-10.85,41.44,11.2
37104.0,-8.976,1.153,-1.792,-8.43,-1.811,-5.398,-11.06,42.77,13.93
,-9.483,2.099,-4.269,-8.969,-2.673,-4.027,-11.69,36.19,12.6
,-8.246,2.146,-5.64,-9.048,-1.718,-3.611,-20.93,33.04,11.62
,-8.428,0.328,-6.26,-8.435,0.065,-3.029,-27.02,36.4,12.04
37180.0,-8.61,1.488,-2.826,-9.052,2.084,-6.011,25.55,51.24,5.6
,-8.775,2.185,-3.41,-8.581,1.22,-6.068,14.0,52.22,5.39
,-8.964,2.481,-4.752,-8.04,-0.141,-5.918,-1.05,50.26,5.25
,-8.681,2.257,-5.908,-7.303,-1.228,-5.788,-15.05,46.34,4.97
37256.0,-7.964,-2.29,-5.339,-8.717,1.256,-4.731,-10.43,34.09,6.72
,-9.093,-3.154,-4.511,-7.303,3.692,-6.078,0.14,36.68,7.63
,-10.366,-3.175,-4.183,-7.162,4.676,-6.267,10.36,35.21,8.12
,-10.301,-1.929,-3.857,-8.299,4.98,-6.557,20.44,34.3,7.91
37332.0,-9.622,4.257,-6.097,-7.978,-2.919,-6.42,-18.48,33.39,0.84
,-10.311,2.596,-5.753,-8.404,-3.597,-6.384,-24.08,30.87,-3.5
,-9.497,0.512,-5.714,-9.246,-3.431,-6.463,-21.49,29.33,-7.77
,-8.411,-1.639,-5.798,-8.844,-2.52,-7.499,-13.09,29.54,-9.73
37407.0,-8.064,-0.022,-8.586,-8.801,-0.802,-6.028,48.37,22.05,-8.47
,-7.71,1.756,-9.265,-8.37,-1.393,-5.805,40.53,17.15,-6.65
,-7.98,1.857,-8.794,-8.275,-1.843,-5.346,23.8,13.09,-6.3
,-8.784,0.33,-7.042,-9.064,-1.874,-5.456,4.48,10.01,-4.9
37483.0,-9.627,-2.027,-5.827,-6.81,0.548,-5.765,-0.84,4.69,-2.17
,-9.399,-2.491,-5.743,-8.078,0.648,-5.039,4.48,1.19,1.54
