Timestamp,AccX,AccY,AccZ,GyroX,GyroY,GyroZ,MagnX,MagnY,MagnZ
0.0,-9.34,-0.349,-3.503,-9.263,-0.333,-3.477,2.31,1.75,0.77
,-9.28,-0.373,-3.491,-9.287,-0.328,-3.482,2.38,1.75,0.77
,-9.258,-0.342,-3.51,-9.294,-0.321,-3.477,2.45,1.61,0.77
,-9.261,-0.369,-3.496,-9.318,-0.325,-3.434,2.59,1.54,0.84
75.0,-9.299,-0.345,-3.429,-9.258,-0.378,-3.46,2.38,1.47,0.77
,-9.311,-0.354,-3.427,-9.292,-0.297,-3.467,2.52,1.61,0.77
,-9.308,-0.364,-3.434,-9.258,-0.354,-3.434,2.59,1.82,0.91
,-9.282,-0.347,-3.491,-9.289,-0.345,-3.475,2.38,1.68,0.84
150.0,-9.27,-0.33,-3.508,-9.32,-0.347,-3.513,2.38,1.89,0.84
,-9.261,-0.306,-3.491,-9.244,-0.325,-3.53,2.45,1.68,0.91
,-9.268,-0.282,-3.532,-9.265,-0.287,-3.503,2.31,1.89,0.91
,-9.263,-0.292,-3.556,-9.287,-0.325,-3.51,2.24,1.75,0.84
226.0,-9.301,-0.321,-3.527,-9.284,-0.275,-3.498,2.38,1.54,0.7
,-9.277,-0.323,-3.53,-9.299,-0.249,-3.477,2.52,1.54,0.7
,-9.258,-0.373,-3.491,-9.27,-0.38,-3.46,2.52,1.54,0.7
,-9.251,-0.306,-3.486,-9.287,-0.38,-3.458,2.52,1.75,0.7
302.0,-9.301,-0.306,-3.472,-9.301,-0.378,-3.609,2.73,1.54,0.84
,-9.325,-0.268,-3.498,-9.308,-0.342,-3.558,2.8,1.47,0.77
,-9.277,-0.287,-3.537,-9.268,-0.266,-3.544,2.17,1.33,0.7
,-9.251,-0.371,-3.568,-9.225,-0.27,-3.486,1.89,1.4,0.56
378.0,-9.299,-0.323,-3.539,-9.249,-0.325,-3.539,2.52,1.26,0.77
,-9.273,-0.306,-3.527,-9.225,-0.385,-3.546,2.45,1.05,0.7
,-9.304,-0.392,-3.518,-9.277,-0.302,-3.537,2.45,0.84,0.63
,-9.263,-0.371,-3.556,-9.241,-0.313,-3.472,2.87,0.84,0.7
453.0,-9.225,-0.39,-3.556,-9.289,-0.294,-3.486,2.66,0.49,0.91
,-9.239,-0.371,-3.518,-9.359,-0.328,-3.472,3.29,0.42,1.05
,-9.229,-0.333,-3.553,-9.347,-0.397,-3.443,3.71,0.14,0.91
,-9.282,-0.323,-3.491,-9.299,-0.369,-3.41,3.5,0.14,0.84
529.0,-9.268,-0.211,-3.46,-9.277,-0.309,-3.376,3.57,-0.14,0.84
,-9.335,-0.299,-3.405,-9.265,-0.297,-3.431,2.8,0.14,0.63
,-9.268,-0.337,-3.367,-9.289,-0.273,-3.408,2.59,0.21,0.7
,-9.292,-0.311,-3.369,-9.27,-0.361,-3.439,2.73,0.21,0.77
605.0,-9.289,-0.357,-3.436,-9.328,-0.313,-3.393,2.8,0.35,0.63
,-9.292,-0.306,-3.419,-9.328,-0.325,-3.352,3.08,0.35,0.49
,-9.287,-0.318,-3.403,-9.33,-0.349,-3.367,2.94,0.56,0.49
,-9.301,-0.33,-3.367,-9.32,-0.337,-3.4,2.66,0.7,0.56
681.0,-9.328,-0.404,-3.41,-9.277,-0.354,-3.419,2.94,0.7,0.7
,-9.296,-0.333,-3.412,-9.289,-0.335,-3.424,3.01,0.7,0.56
,-9.299,-0.321,-3.419,-9.277,-0.369,-3.448,2.73,0.7,0.49
,-9.323,-0.323,-3.424,-9.325,-0.347,-3.424,2.66,0.84,0.56
757.0,-9.328,-0.349,-3.412,-9.296,-0.383,-3.391,2.52,0.91,0.63
,-9.296,-0.323,-3.388,-9.294,-0.376,-3.388,2.24,0.84,0.7
,-9.359,-0.302,-3.372,-9.313,-0.34,-3.419,1.89,0.56,0.63
,-9.277,-0.33,-3.419,-9.296,-0.299,-3.391,1.4,0.49,0.56
832.0,-9.332,-0.359,-3.434,-9.344,-0.302,-3.415,1.19,0.63,0.63
,-9.308,-0.333,-3.429,-9.325,-0.333,-3.419,1.26,0.77,0.7
,-9.304,-0.352,-3.41,-9.292,-0.325,-3.408,1.33,0.56,0.7
,-9.311,-0.354,-3.4,-9.287,-0.318,-3.419,1.54,0.63,0.77
908.0,-9.299,-0.342,-3.422,-9.337,-0.316,-3.379,2.17,0.7,0.7
,-9.33,-0.335,-3.391,-9.282,-0.352,-3.436,2.24,0.7,0.77
,-9.34,-0.385,-3.343,-9.306,-0.335,-3.506,2.31,0.42,0.77
,-9.34,-0.342,-3.352,-9.284,-0.407,-3.446,2.59,0.63,0.98
983.0,-9.28,-0.357,-3.451,-9.33,-0.299,-3.403,3.15,0.35,1.05
,-9.296,-0.352,-3.41,-9.282,-0.366,-3.393,3.22,0.21,0.98
,-9.344,-0.302,-3.412,-9.27,-0.328,-3.388,3.22,0.42,1.05
,-9.335,-0.304,-3.417,-9.294,-0.359,-3.393,3.15,0.42,1.12
1059.0,-9.304,-0.323,-3.408,-9.318,-0.316,-3.314,3.22,0.07,1.19
,-9.313,-0.34,-3.357,-9.32,-0.34,-3.333,3.15,0.0,1.19
,-9.323,-0.304,-3.376,-9.308,-0.39,-3.29,3.01,-0.14,1.05
,-9.323,-0.285,-3.271,-9.318,-0.38,-3.319,2.8,-0.21,1.05
1135.0,-9.347,-0.371,-3.348,-9.335,-0.371,-3.293,2.17,-0.35,1.12
,-9.311,-0.328,-3.369,-9.275,-0.337,-3.297,1.89,-0.14,1.12
,-9.311,-0.342,-3.345,-9.323,-0.306,-3.276,1.61,-0.07,1.19
,-9.323,-0.404,-3.312,-9.311,-0.357,-3.264,1.68,-0.07,1.33
1211.0,-9.304,-0.333,-3.367,-9.39,-0.318,-3.393,0.7,-0.35,1.26
,-9.316,-0.328,-3.352,-9.337,-0.361,-3.391,0.84,-0.56,1.12
,-9.32,-0.263,-3.35,-9.349,-0.263,-3.427,0.14,-0.77,0.98
,-9.277,-0.318,-3.362,-9.344,-0.278,-3.458,-0.21,-0.77,0.98
1286.0,-9.308,-0.287,-3.4,-9.32,-0.421,-3.156,0.7,-1.54,1.26
,-9.351,-0.232,-3.47,-9.402,-0.447,-3.206,0.42,-1.82,1.12
,-9.43,-0.196,-3.496,-9.361,-0.424,-3.211,-0.56,-1.96,0.98
,-9.371,-0.194,-3.312,-9.385,-0.258,-3.202,-2.52,-1.89,0.63
1362.0,-9.351,-0.27,-3.238,-9.38,-0.309,-3.388,-1.33,-1.82,1.33
,-9.337,-0.223,-3.218,-9.351,-0.44,-3.431,-1.54,-1.75,1.4
,-9.335,-0.311,-3.266,-9.273,-0.263,-3.348,-2.31,-2.03,1.54
,-9.344,-0.4,-3.384,-9.308,-0.335,-3.29,-2.1,-2.17,1.61
1438.0,-9.354,-0.316,-3.262,-9.385,-0.273,-2.565,-1.61,-3.22,1.89
,-9.371,-0.256,-3.137,-9.387,-0.273,-2.575,-1.82,-3.5,2.03
,-9.308,-0.22,-2.915,-9.325,-0.302,-2.465,-1.89,-3.5,2.24
,-9.323,-0.251,-2.764,-9.287,-0.316,-2.292,-2.03,-3.01,2.24
1514.0,-9.435,-0.172,-2.142,-9.485,-0.156,-1.531,-4.13,1.54,2.17
,-9.459,0.017,-2.039,-9.648,-0.151,-1.718,-5.32,2.73,1.96
,-9.459,0.034,-1.874,-9.579,-0.158,-2.565,-7.35,4.2,1.82
,-9.409,-0.055,-1.62,-9.148,-0.261,-2.647,-8.12,6.3,2.17
1589.0,-9.117,-0.189,-2.948,-9.469,0.644,-2.448,-8.89,11.76,3.43
,-9.141,-0.225,-2.879,-9.514,0.354,-1.847,-8.12,12.67,3.71
,-9.263,-0.093,-2.781,-9.689,0.34,-2.584,-6.51,13.44,3.71
,-9.411,0.117,-2.316,-9.251,-0.471,-2.857,-7.42,13.86,3.01
1665.0,-9.131,-0.883,-3.692,-9.16,0.258,-3.826,-18.27,17.5,4.27
,-8.916,-1.761,-3.343,-9.457,1.003,-4.078,-13.86,18.13,5.25
,-8.938,-1.232,-3.898,-9.435,1.151,-3.776,-1.89,18.55,6.44
,-8.988,-0.708,-4.104,-9.454,1.101,-3.63,6.58,17.92,6.93
1740.0,-9.38,0.864,-3.695,-8.76,-0.349,-4.264,-6.44,14.0,2.1
,-9.244,0.503,-3.903,-8.847,-0.586,-4.099,-9.94,13.23,0.98
,-9.172,0.246,-3.979,-9.067,-0.883,-3.845,-9.94,11.76,0.56
,-9.06,0.407,-4.941,-9.414,-0.416,-3.319,-11.13,9.87,0.56
1816.0,-9.457,0.373,-3.884,-9.17,-0.625,-3.953,4.97,11.06,1.89
,-9.246,0.778,-3.711,-9.131,-0.491,-4.156,2.38,9.73,1.54
,-9.296,0.555,-3.9,-9.17,0.366,-4.159,-2.38,9.94,1.61
,-9.124,-0.06,-3.896,-9.172,1.204,-4.403,-5.46,10.5,1.75
1892.0,-8.961,1.28,-4.59,-9.347,-0.455,-3.264,9.31,8.82,-1.19
,-8.945,0.653,-4.312,-9.237,-0.072,-3.101,3.57,9.38,-1.19
,-9.139,-0.17,-3.798,-9.067,0.404,-3.137,0.7,9.59,-0.56
,-9.244,-0.581,-3.498,-9.129,0.926,-3.723,2.03,9.66,-0.28
1968.0,-8.799,1.096,-4.137,-9.464,0.273,-4.235,3.99,12.18,-0.63
,-8.861,1.127,-4.133,-9.268,0.254,-4.118,2.45,11.69,-0.63
,-8.823,0.749,-4.374,-8.959,0.256,-3.951,1.75,10.78,-2.1
,-9.014,0.431,-4.286,-8.878,0.261,-3.845,4.13,10.64,-3.92
2044.0,-9.239,0.034,-3.594,-8.349,0.012,-5.039,2.94,11.69,-7.98
,-9.273,0.002,-3.702,-8.447,-0.699,-4.604,0.77,12.53,-8.68
,-9.052,0.146,-3.963,-8.971,-1.304,-4.049,-0.14,12.95,-8.12
,-8.665,0.316,-4.532,-9.354,-1.651,-3.549,-1.68,12.39,-7.07
2119.0,-9.131,-1.292,-3.35,-9.256,-1.871,-3.654,10.71,12.32,-3.08
,-8.784,-1.074,-3.482,-9.301,-1.364,-3.623,13.37,11.97,-1.12
,-8.665,-1.187,-3.652,-8.871,-0.378,-4.276,10.78,12.11,1.05
,-8.885,-1.601,-3.601,-8.43,0.33,-4.535,8.12,13.3,3.57
2195.0,-8.306,0.251,-4.453,-9.411,-0.074,-4.286,5.46,13.58,7.28
,-8.485,-0.172,-4.384,-8.756,-0.108,-4.391,0.7,14.98,7.35
,-9.055,-0.239,-4.073,-8.423,-0.34,-4.58,0.98,16.03,7.7
,-9.653,-0.258,-3.896,-8.693,-0.517,-4.604,2.8,14.21,7.84
2271.0,-8.861,-0.589,-4.822,-8.536,1.251,-5.166,5.25,11.9,11.2
,-8.961,-0.321,-4.956,-8.758,0.976,-4.944,6.93,11.55,11.27
,-8.815,0.479,-5.231,-9.134,0.684,-4.573,8.4,9.94,10.85
,-8.507,1.029,-5.374,-9.0,0.771,-4.511,6.58,9.03,9.66
2347.0,-8.78,0.629,-4.434,-9.136,0.452,-4.542,-7.77,9.03,4.27
,-8.636,0.285,-4.379,-8.866,0.811,-4.719,-7.56,9.03,3.99
,-8.732,0.024,-4.441,-8.6,0.94,-4.783,-5.67,8.96,3.78
,-9.079,-0.065,-4.31,-8.588,0.687,-4.47,-2.59,8.89,3.5
2422.0,-8.813,0.211,-4.149,-9.019,-1.007,-4.86,-3.5,9.17,-0.84
,-9.095,-0.323,-4.001,-8.851,-1.024,-5.324,-4.9,10.15,-0.28
,-8.851,-0.696,-4.094,-8.863,-0.641,-5.262,-3.71,10.85,0.56
,-8.713,-0.928,-4.331,-8.466,-0.354,-5.31,-0.49,9.94,1.47
2498.0,-8.311,-0.005,-5.753,-8.334,-0.469,-5.465,14.49,6.09,4.48
,-8.349,-0.12,-5.683,-9.127,-0.548,-5.386,11.27,6.23,4.41
,-8.655,-0.163,-5.676,-8.94,-0.445,-5.063,7.56,5.81,4.83
,-8.567,-0.388,-5.497,-8.997,0.11,-5.324,5.67,5.6,6.09
2573.0,-8.914,0.347,-5.386,-9.016,0.675,-4.946,6.65,0.21,7.56
,-8.856,0.12,-5.073,-8.421,1.184,-5.185,5.04,0.28,7.84
,-9.206,-0.086,-4.834,-8.287,1.086,-5.027,5.04,0.0,7.7
,-9.048,-0.014,-4.771,-8.732,0.84,-4.965,7.35,-1.19,7.91
2649.0,-8.88,0.335,-4.891,-8.753,-0.055,-4.441,3.15,-1.89,4.48
,-9.129,-0.447,-4.506,-8.875,0.469,-4.47,3.78,-2.03,4.62
,-9.0,-0.639,-4.547,-8.923,0.653,-4.468,7.21,-2.1,5.04
,-8.804,-0.4,-4.391,-8.811,0.653,-4.511,10.92,-1.82,4.9
2725.0,-8.397,1.017,-4.659,-8.909,0.584,-4.874,10.01,1.61,4.06
,-8.454,1.385,-4.805,-8.904,0.481,-4.96,8.61,1.82,3.29
,-8.638,1.292,-4.757,-8.741,0.613,-5.001,6.23,1.96,2.17
,-8.672,0.955,-4.891,-8.536,0.605,-5.037,4.06,2.03,1.4
2801.0,-8.521,0.529,-5.068,-8.756,-0.383,-5.176,4.06,3.22,-2.31
,-8.705,0.297,-5.08,-8.593,-0.433,-5.231,2.1,3.29,-2.59
,-8.734,-0.115,-5.164,-8.614,-0.548,-5.212,0.77,3.5,-2.73
,-8.799,-0.316,-5.145,-8.658,-0.469,-5.214,0.21,3.43,-2.59
2877.0,-8.725,-0.321,-5.48,-8.794,-0.648,-5.386,2.1,2.8,1.12
,-8.825,-0.455,-5.36,-8.93,-0.239,-5.53,1.82,2.38,1.75
,-8.734,-0.598,-5.418,-8.957,-0.043,-5.528,2.59,2.17,2.8
,-8.72,-0.864,-5.09,-9.045,-0.055,-5.329,2.66,1.82,3.78
2952.0,-8.969,0.014,-5.353,-8.607,0.203,-5.236,3.71,-2.45,6.72
,-8.866,-0.12,-5.032,-8.684,0.153,-5.114,4.27,-3.08,6.72
,-8.909,0.23,-5.099,-8.739,0.316,-5.185,6.09,-4.48,6.65
,-8.832,0.208,-5.164,-8.981,0.196,-5.047,4.76,-6.02,6.51
3028.0,-9.052,0.146,-5.142,-8.914,0.019,-4.922,1.05,-8.54,6.65
,-9.146,-0.079,-5.109,-8.801,0.457,-5.118,0.07,-9.17,7.35
,-8.926,-0.22,-5.099,-8.662,0.687,-5.205,-0.63,-9.73,7.84
,-8.768,-0.112,-5.229,-8.787,1.168,-5.322,0.49,-10.01,7.77
3104.0,-9.076,1.242,-5.293,-8.528,1.529,-4.994,0.7,-14.77,3.36
,-9.079,1.335,-5.322,-8.459,1.146,-4.611,0.63,-15.82,1.26
,-8.885,1.311,-5.018,-8.875,0.866,-4.602,0.35,-16.52,-1.05
,-8.768,1.512,-4.963,-9.215,0.646,-4.451,0.63,-17.22,-3.01
3180.0,-9.306,0.675,-4.362,-8.571,-0.187,-4.145,7.14,-17.64,-9.94
,-9.332,0.849,-4.298,-8.77,-0.543,-4.027,9.38,-17.5,-10.15
,-8.961,0.694,-4.302,-8.832,-0.57,-4.281,8.26,-17.36,-10.57
,-8.856,0.29,-4.015,-9.139,-0.333,-4.066,4.2,-17.5,-10.36
3255.0,-9.225,-0.294,-3.91,-8.957,-1.029,-3.709,2.1,-21.42,-6.51
,-9.107,-0.144,-4.046,-8.658,-0.653,-4.113,1.19,-21.49,-5.32
,-8.686,-0.124,-4.286,-8.782,-0.864,-3.817,0.14,-20.3,-3.43
,-8.567,-0.476,-3.951,-9.1,-0.558,-3.709,0.84,-18.62,-1.75
3331.0,-9.471,-0.246,-3.503,-8.863,0.017,-3.539,12.32,-21.21,0.98
,-9.33,0.141,-3.62,-8.894,-0.101,-3.546,12.67,-20.65,1.33
,-9.206,0.306,-3.611,-9.122,-0.297,-3.482,10.71,-19.11,2.24
,-9.105,0.141,-3.484,-9.033,-0.184,-3.613,8.61,-18.06,3.36
3406.0,-9.045,0.017,-3.573,-8.983,1.211,-2.924,16.73,-15.47,4.97
,-8.815,-0.206,-2.931,-9.313,1.249,-2.907,15.05,-16.45,4.83
,-9.529,0.457,-3.017,-9.404,1.223,-2.828,17.71,-18.55,3.78
,-9.162,0.916,-3.192,-9.366,1.199,-2.802,16.8,-19.46,2.94
3482.0,-9.172,0.799,-2.56,-9.866,0.574,-2.314,1.19,-16.52,-2.66
,-9.081,0.206,-2.221,-9.294,0.885,-2.639,1.61,-13.51,-3.57
,-9.342,0.132,-1.998,-8.918,0.57,-2.694,5.81,-11.97,-4.13
,-9.651,0.309,-2.297,-9.136,0.005,-2.742,9.17,-13.23,-5.11
3558.0,-9.442,-0.457,-2.656,-9.385,-0.34,-2.635,-8.82,-15.54,-7.84
,-9.395,-0.436,-2.613,-9.612,-0.376,-2.56,-6.3,-14.56,-7.91
,-9.335,-0.431,-2.192,-9.318,-0.263,-2.946,-3.57,-12.53,-7.14
,-9.466,-0.335,-2.582,-9.435,-0.574,-2.4,-1.68,-12.18,-6.72
3634.0,-9.67,-0.388,-3.072,-9.296,-0.223,-2.357,1.12,-11.76,-4.13
,-9.368,-0.132,-2.699,-9.409,-0.175,-2.568,1.82,-10.99,-4.41
,-9.5,-0.206,-2.465,-9.512,-0.112,-2.539,2.94,-9.66,-3.99
,-9.471,-0.191,-2.68,-9.631,-0.156,-2.922,3.08,-9.17,-3.99
3709.0,-9.794,0.089,-3.85,-9.356,-0.665,-2.06,4.2,-11.97,-3.71
,-9.244,0.182,-3.197,-9.581,-0.505,-2.134,1.96,-13.3,-4.41
,-9.385,-0.002,-3.044,-9.82,-0.175,-2.07,2.17,-12.88,-4.62
,-9.392,-0.426,-2.91,-9.665,-0.153,-2.225,1.89,-12.25,-5.39
3785.0,-9.471,-0.357,-1.704,-10.266,1.395,-4.015,8.61,-9.73,-2.45
,-9.378,-0.577,-1.402,-9.196,1.328,-4.121,10.43,-7.35,-1.26
,-9.641,-0.534,-1.283,-8.823,0.103,-3.412,15.47,-5.88,-0.98
,-9.986,0.256,-2.168,-8.954,-0.912,-3.003,18.27,-7.0,-2.38
3860.0,-9.196,-1.189,-2.333,-9.629,-0.553,-1.682,13.09,-9.1,-3.5
,-9.792,-1.07,-2.469,-9.32,-0.828,-1.012,23.31,-10.36,-2.8
,-9.921,-0.579,-2.316,-9.404,-0.646,-0.543,25.2,-12.25,-1.89
,-10.067,-0.503,-2.309,-9.739,-0.349,-0.065,21.84,-14.14,-1.47
3936.0,-10.065,-0.069,-0.122,-9.603,-0.089,-1.048,16.87,-6.51,-1.61
,-10.062,-0.108,-0.38,-9.617,0.189,-1.376,10.85,-4.76,-1.89
,-9.742,-0.543,-0.479,-9.56,0.184,-1.381,7.63,-3.01,-1.12
,-9.622,-0.462,-0.771,-9.643,-0.012,-1.531,9.1,-1.12,-0.28
4012.0,-9.749,-0.491,-1.579,-9.677,-0.194,-3.218,1.54,5.53,-1.19
,-9.72,-0.617,-1.634,-9.493,-0.316,-3.419,1.4,6.09,-0.84
,-9.876,-0.424,-2.149,-9.411,-0.464,-3.348,1.26,5.74,-0.98
,-9.804,-0.246,-2.666,-9.383,-0.601,-3.108,-0.14,5.32,-1.12
4088.0,-9.462,-0.677,-2.876,-9.588,-0.318,-2.405,0.91,2.03,-0.14
,-9.706,-0.567,-2.766,-9.567,-0.189,-2.395,3.29,0.98,0.42
,-9.703,-0.572,-2.599,-9.636,-0.194,-2.168,4.55,0.0,0.77
,-9.792,-0.426,-2.666,-9.758,-0.593,-1.993,4.55,-1.19,0.49
4164.0,-9.73,-0.447,-1.711,-9.61,-0.507,-1.429,-3.15,-2.8,-1.61
,-9.715,-0.201,-1.512,-9.6,-0.419,-1.443,-4.76,-3.01,-1.82
,-9.777,-0.325,-1.39,-9.71,-0.333,-1.498,-6.93,-2.59,-2.03
,-9.715,-0.589,-1.438,-9.789,-0.325,-1.816,-7.56,-1.61,-1.96
4239.0,-9.718,-0.266,-2.199,-9.608,-0.316,-2.245,-7.42,2.03,-1.47
,-9.648,-0.232,-2.151,-9.684,-0.412,-2.084,-8.68,1.61,-1.68
,-9.502,0.014,-2.197,-9.804,-0.493,-2.039,-10.01,1.54,-1.82
,-9.598,-0.117,-2.192,-9.694,-0.495,-1.907,-11.27,1.96,-1.96
4315.0,-9.744,-0.447,-1.991,-9.627,-0.617,-2.304,-9.52,3.08,-0.98
,-9.648,-0.445,-2.051,-9.636,-0.656,-2.321,-9.66,3.22,-1.05
,-9.672,-0.438,-2.134,-9.622,-0.421,-2.434,-9.1,3.36,-0.7
,-9.631,-0.498,-2.178,-9.67,-0.474,-2.472,-8.61,3.71,-0.56
4391.0,-9.663,-0.447,-2.407,-9.648,-0.632,-1.974,-2.66,3.43,0.49
,-9.588,-0.34,-2.288,-9.655,-0.452,-1.864,-2.38,3.29,0.56
,-9.581,-0.467,-2.233,-9.696,-0.292,-1.835,-2.8,3.43,0.63
,-9.588,-0.682,-2.027,-9.698,-0.218,-1.718,-2.8,3.92,1.05
4467.0,-9.584,-0.385,-1.309,-9.555,-0.476,-1.318,-7.35,5.95,1.33
,-9.682,-0.196,-1.653,-9.519,-0.646,-0.883,-7.7,6.72,1.19
,-9.758,-0.412,-1.462,-9.529,-0.491,-0.797,-9.1,7.21,1.05
,-9.672,-0.357,-1.575,-9.71,-0.474,-0.311,-9.87,7.84,1.19
4542.0,-10.139,-0.187,-0.897,-9.524,-0.352,-1.962,-9.87,16.73,2.45
,-9.911,-0.479,-1.551,-9.428,-0.223,-2.257,-12.88,17.22,2.52
,-9.39,-0.732,-1.374,-9.328,-0.407,-2.096,-12.81,18.27,3.85
,-9.471,-0.565,-1.857,-9.105,-0.883,-2.168,-10.36,18.13,4.06
4618.0,-9.167,-0.845,-1.797,-9.273,0.316,-2.228,-2.17,24.36,6.86
,-9.581,-0.189,-2.393,-9.16,-1.034,-1.606,2.8,23.03,5.46
,-9.526,0.629,-2.67,-9.32,-1.675,-0.383,2.94,21.28,4.27
,-9.366,0.885,-2.472,-9.892,-0.768,-1.663,-2.31,21.28,4.97
4693.0,-9.433,0.605,-1.579,-9.05,-2.742,-3.994,11.48,28.0,6.58
,-9.569,1.139,-3.271,-8.964,-2.941,-2.943,4.62,24.36,5.74
,-8.954,0.462,-3.74,-9.165,-1.531,-3.592,-11.62,23.66,5.74
,-8.957,-1.309,-4.056,-9.134,-0.254,-3.47,-22.68,25.76,8.47
4769.0,-9.351,0.96,-2.802,-9.031,1.529,-2.18,38.85,32.55,8.33
,-9.517,1.759,-2.898,-9.06,-0.072,-2.68,34.02,32.41,7.21
,-9.229,2.235,-1.905,-8.524,-1.4,-2.852,24.85,34.02,5.53
,-9.816,2.185,-2.304,-8.746,-1.799,-3.417,11.69,32.97,3.78
4845.0,-9.043,-1.043,-4.267,-8.65,1.218,-4.487,7.91,32.55,7.98
,-9.452,0.06,-4.975,-9.024,0.988,-3.884,16.45,28.35,7.35
,-9.134,0.787,-5.039,-9.155,0.694,-4.293,16.73,27.58,5.95
,-8.99,1.223,-4.7,-8.859,0.043,-4.011,12.6,28.98,4.41
4921.0,-8.966,-0.402,-3.941,-8.717,-1.129,-5.279,-5.04,30.66,-2.31
,-8.981,-0.373,-4.166,-8.871,-1.457,-5.236,-2.45,29.75,-1.12
,-9.026,-0.503,-4.683,-9.179,-1.455,-4.776,0.91,28.07,0.49
,-8.794,-0.735,-5.097,-8.981,-1.007,-4.649,3.43,26.67,2.45
4997.0,-8.811,-0.744,-4.365,-8.935,-0.112,-4.829,16.31,23.03,5.11
,-8.789,-0.39,-4.235,-8.533,-0.148,-5.09,13.93,22.89,6.37
,-9.009,-0.249,-4.597,-8.533,0.117,-5.063,9.03,21.77,7.77
,-8.906,-0.256,-4.755,-8.722,0.505,-5.109,3.92,22.05,9.17
5072.0,-8.794,0.794,-5.224,-8.772,-0.156,-4.346,8.68,19.04,8.82
,-9.014,0.488,-4.925,-8.935,0.026,-4.602,5.6,17.5,8.12
,-8.866,0.067,-4.884,-9.229,0.239,-4.707,2.38,17.22,7.77
,-8.806,-0.16,-4.527,-9.095,0.395,-4.905,3.01,18.62,7.7
5148.0,-8.619,0.503,-5.353,-8.933,1.455,-5.164,-1.61,12.88,10.15
,-8.196,0.61,-5.535,-8.981,1.622,-5.027,-3.71,12.88,10.36
,-8.263,0.711,-5.461,-8.938,1.5,-5.011,-3.15,12.81,8.68
,-8.705,0.972,-5.324,-8.782,1.163,-5.243,-2.66,12.25,5.95
5224.0,-8.672,0.835,-5.205,-8.495,0.182,-5.221,-11.62,7.7,0.77
,-8.825,0.462,-5.152,-8.545,0.488,-5.2,-10.99,6.72,-0.56
,-8.715,0.144,-5.262,-8.43,0.677,-5.434,-8.54,6.02,-1.33
,-8.65,0.115,-5.233,-8.591,0.589,-5.492,-4.69,5.53,-1.26
5300.0,-8.868,0.452,-5.336,-8.397,-0.974,-5.41,-3.43,3.08,-1.89
,-8.624,-0.093,-5.37,-8.473,-1.196,-5.193,-4.2,2.94,-1.54
,-8.705,-0.471,-5.487,-8.495,-1.194,-5.307,-2.17,3.43,-1.19
,-8.397,-0.503,-5.597,-8.698,-1.464,-5.298,1.12,3.43,-1.75
5375.0,-8.856,-1.228,-5.19,-8.725,-0.447,-4.843,9.1,1.68,6.23
,-8.746,-1.065,-5.276,-8.722,-0.225,-4.807,8.96,0.84,7.07
,-8.681,-0.945,-5.207,-8.969,0.072,-4.532,7.35,1.19,8.19
,-8.454,-0.747,-4.901,-8.813,0.244,-4.298,6.51,1.61,9.52
5451.0,-8.796,0.78,-4.709,-8.844,1.687,-4.733,7.77,0.91,9.94
,-8.344,1.424,-4.999,-8.784,1.297,-4.841,10.01,0.98,8.96
,-8.296,2.012,-5.276,-8.765,0.869,-4.743,10.64,1.19,7.42
,-8.583,2.065,-5.018,-8.48,0.558,-4.771,8.68,1.47,5.46
5526.0,-8.404,0.345,-5.051,-8.66,-0.005,-4.898,3.5,1.33,2.38
,-8.619,0.031,-4.958,-8.351,0.134,-5.114,3.43,1.82,3.22
,-8.878,-0.045,-5.08,-8.291,0.201,-5.173,4.06,2.03,3.57
,-8.971,-0.151,-4.853,-8.612,0.196,-5.178,3.92,1.75,3.29
5602.0,-8.849,0.199,-5.183,-8.524,0.373,-5.09,1.4,1.89,2.45
,-8.665,0.249,-5.214,-8.552,0.615,-5.166,0.98,2.1,3.15
,-8.39,0.184,-5.162,-8.737,0.632,-5.384,0.28,2.59,3.43
,-8.425,0.199,-5.047,-8.641,0.385,-5.264,0.0,3.43,3.15
5678.0,-8.334,0.349,-5.363,-8.804,0.474,-5.401,-3.99,3.92,2.94
,-8.437,0.555,-5.477,-8.504,0.512,-5.453,-3.36,3.92,2.31
,-8.825,0.553,-5.305,-8.557,0.433,-5.688,-3.85,3.71,1.68
,-8.94,0.534,-5.305,-8.727,0.376,-5.664,-4.48,2.87,1.54
5754.0,-8.729,0.526,-5.741,-8.698,-0.163,-5.03,-5.25,1.12,2.03
,-8.744,0.562,-5.662,-8.641,-0.266,-4.989,-6.51,0.42,1.75
,-8.928,0.534,-5.461,-8.598,-0.007,-5.193,-6.44,-0.7,1.68
,-8.818,0.268,-5.339,-8.452,0.201,-5.264,-7.84,-1.47,1.96
5829.0,-8.626,0.548,-5.355,-8.684,1.141,-5.269,-3.5,-4.13,5.67
,-8.758,0.548,-5.071,-8.614,0.854,-5.272,-3.5,-4.27,5.39
,-8.796,0.883,-5.166,-8.603,0.345,-5.307,-2.03,-4.13,4.69
,-8.842,1.122,-5.032,-8.693,-0.108,-5.197,-0.7,-4.48,3.43
5905.0,-8.792,-0.526,-4.834,-8.782,0.804,-4.951,1.54,-5.74,3.15
,-8.751,-0.208,-4.925,-8.744,0.763,-4.652,8.05,-5.88,3.36
,-8.784,0.206,-4.92,-8.717,0.579,-4.721,11.69,-6.37,2.8
,-8.808,0.646,-4.946,-8.562,0.591,-4.678,12.39,-6.51,2.03
5981.0,-8.552,0.804,-4.893,-8.684,1.062,-4.762,5.88,-6.23,0.07
,-8.775,0.979,-4.57,-8.643,0.639,-4.645,7.84,-6.3,-0.7
,-8.926,1.12,-4.501,-8.753,0.574,-4.831,8.33,-7.49,-1.89
,-8.866,1.211,-4.472,-8.705,0.677,-4.867,8.05,-8.05,-2.24
6057.0,-8.784,0.646,-4.736,-8.667,0.718,-4.953,9.59,-9.03,-3.5
,-8.995,0.804,-4.606,-8.837,0.282,-4.623,9.03,-9.03,-4.13
,-8.88,0.809,-4.69,-8.543,0.153,-4.831,6.86,-9.24,-4.34
,-8.739,0.864,-4.731,-8.442,0.112,-4.874,4.27,-8.96,-4.34
6133.0,-8.83,0.0,-4.886,-8.918,0.481,-4.769,-1.54,-10.36,-1.54
,-9.067,-0.203,-4.685,-8.815,0.646,-4.934,1.61,-11.34,-2.45
,-9.265,-0.22,-4.527,-8.746,0.771,-4.975,3.29,-12.11,-1.75
,-9.005,0.361,-4.714,-8.854,0.512,-4.657,6.93,-12.95,-1.19
6208.0,-8.926,0.388,-4.63,-8.37,0.407,-4.822,4.41,-10.29,-0.91
,-8.976,0.407,-4.659,-8.595,0.177,-4.578,5.81,-10.08,-0.77
,-8.799,0.44,-4.915,-8.818,0.115,-4.408,7.28,-10.22,-0.49
,-8.567,0.445,-5.035,-9.141,0.304,-4.192,8.47,-10.22,0.0
6284.0,-9.72,0.61,-3.941,-8.839,0.51,-4.075,11.97,-11.69,0.63
,-8.765,1.106,-4.594,-8.837,0.266,-4.195,11.97,-13.72,0.7
,-9.229,1.024,-4.133,-8.988,-0.124,-4.022,8.12,-14.77,-0.07
,-8.813,0.83,-4.3,-8.964,-0.306,-3.838,3.85,-15.54,-0.84
6359.0,-9.076,-0.313,-3.649,-8.871,0.735,-3.573,7.0,-17.71,-0.21
,-9.069,-0.043,-3.549,-8.933,0.637,-3.613,9.87,-18.55,-0.28
,-9.134,0.4,-3.628,-8.94,0.486,-3.577,10.85,-19.39,0.07
,-8.997,0.713,-3.477,-8.729,0.127,-3.52,9.73,-19.04,0.56
6435.0,-8.909,-0.11,-3.056,-9.05,0.79,-3.477,6.09,-17.99,-1.4
,-9.328,0.151,-3.329,-9.131,0.567,-3.173,10.43,-18.55,-1.26
,-9.514,0.644,-3.513,-9.165,0.421,-2.927,12.53,-19.11,-1.75
,-9.423,0.864,-3.817,-9.284,0.464,-2.539,11.34,-19.53,-2.24
6511.0,-9.557,0.546,-3.154,-9.131,0.328,-3.216,6.79,-17.01,-5.88
,-9.435,0.565,-3.632,-9.103,0.287,-2.678,3.99,-18.13,-5.53
,-9.201,0.514,-3.79,-9.294,0.148,-2.333,2.17,-18.55,-5.11
,-9.141,0.328,-3.451,-9.509,0.335,-2.991,2.94,-17.29,-4.97
6587.0,-9.399,0.397,-3.254,-9.026,-0.572,-2.97,1.33,-17.22,-7.63
,-9.423,0.309,-3.932,-9.464,-0.072,-2.857,0.0,-18.2,-7.28
,-9.083,-0.029,-4.173,-9.658,0.261,-2.735,-1.33,-18.62,-7.56
,-8.76,-0.412,-3.601,-9.658,0.512,-2.91,3.57,-17.29,-6.79
6662.0,-9.268,0.486,-2.185,-9.438,0.156,-2.498,9.1,-17.29,-5.95
,-9.416,0.153,-2.544,-9.328,-0.11,-2.146,9.03,-16.59,-6.23
,-9.373,0.302,-2.529,-9.354,-0.455,-1.799,9.94,-16.17,-6.72
,-9.22,0.196,-2.156,-9.538,-0.464,-1.558,9.38,-15.61,-6.58
6738.0,-9.653,-0.182,-1.594,-9.502,-0.302,-1.541,10.99,-10.08,-4.27
,-9.6,-0.28,-1.127,-9.536,-0.309,-1.656,8.96,-8.4,-3.92
,-9.698,-0.074,-1.445,-9.493,-0.29,-1.625,9.38,-6.93,-3.71
,-9.567,-0.191,-1.491,-9.481,-0.261,-1.752,8.61,-5.53,-3.29
6814.0,-9.533,-0.194,-1.917,-9.375,-0.467,-2.649,13.86,1.68,-0.35
,-9.497,-0.369,-2.237,-9.351,-0.438,-2.417,12.25,2.24,-0.42
,-9.462,-0.531,-2.381,-9.536,-0.194,-2.419,10.08,2.73,-0.49
,-9.418,-0.486,-2.587,-9.677,-0.124,-2.553,8.68,2.87,-0.42
6890.0,-9.667,-0.01,-2.611,-9.507,-0.148,-2.752,2.17,4.2,-0.63
,-9.521,0.022,-2.704,-9.564,-0.101,-2.62,1.4,4.27,-0.28
,-9.445,-0.06,-2.723,-9.627,-0.026,-2.716,1.82,4.62,0.14
,-9.481,-0.117,-2.776,-9.605,-0.014,-2.706,3.92,4.83,0.49
6965.0,-9.643,-0.077,-3.032,-9.44,-0.376,-3.252,5.11,4.55,0.0
,-9.488,-0.081,-3.068,-9.497,-0.383,-3.374,4.2,4.2,-0.28
,-9.457,-0.127,-3.039,-9.548,-0.311,-3.393,3.78,3.92,-0.63
,-9.474,-0.213,-3.24,-9.505,-0.227,-3.532,3.22,3.64,-0.98
7041.0,-9.485,-0.263,-3.668,-9.483,-0.273,-2.929,7.77,0.14,-0.14
,-9.414,-0.17,-3.558,-9.634,-0.213,-2.793,7.91,-0.77,0.0
,-9.438,-0.211,-3.553,-9.634,-0.132,-2.666,7.77,-1.61,-0.35
,-9.351,-0.263,-3.242,-9.646,-0.179,-2.46,7.49,-2.17,-0.42
7117.0,-9.459,-0.244,-2.302,-9.483,-0.036,-2.257,0.91,-3.78,-0.98
,-9.627,-0.268,-2.173,-9.533,-0.297,-2.374,-0.7,-3.43,-0.98
,-9.584,-0.254,-2.245,-9.557,-0.538,-2.324,-2.59,-3.78,-1.33
,-9.608,-0.163,-2.254,-9.514,-0.352,-2.477,-3.78,-3.57,-1.12
7192.0,-9.593,-0.232,-2.706,-9.483,-0.206,-2.709,-0.28,-0.21,-0.07
,-9.552,-0.117,-2.867,-9.541,-0.168,-2.666,0.56,0.14,0.0
,-9.483,-0.179,-2.91,-9.646,-0.115,-2.611,0.42,0.14,-0.21
,-9.509,-0.349,-2.687,-9.493,-0.146,-2.484,0.35,0.14,-0.49
7268.0,-9.481,-0.151,-2.328,-9.586,-0.093,-2.625,-2.52,0.77,-1.05
,-9.495,-0.266,-2.264,-9.517,-0.146,-2.754,-3.29,1.54,-0.84
,-9.636,-0.297,-2.297,-9.505,-0.232,-2.855,-3.01,2.17,-0.49
,-9.651,-0.148,-2.417,-9.411,-0.318,-2.857,-2.52,2.31,-0.35
7344.0,-9.45,-0.34,-2.826,-9.624,-0.072,-2.69,-1.89,3.22,-0.14
,-9.531,-0.5,-2.759,-9.56,-0.065,-2.706,-0.77,3.5,0.14
,-9.567,-0.488,-2.623,-9.445,-0.065,-2.737,0.98,3.29,0.49
,-9.646,-0.251,-2.673,-9.488,-0.218,-2.718,2.38,3.22,0.56
7420.0,-9.514,-0.297,-2.599,-9.579,-0.28,-2.465,1.33,3.85,-0.07
,-9.538,-0.337,-2.711,-9.509,-0.172,-2.383,2.17,3.85,0.07
,-9.55,-0.385,-2.536,-9.581,-0.048,-2.527,2.45,4.27,0.28
,-9.557,-0.414,-2.52,-9.512,-0.081,-2.627,3.22,4.55,0.42
7495.0,-9.562,-0.108,-2.752,-9.459,-0.337,-3.058,0.42,5.32,0.35
,-9.517,-0.156,-2.85,-9.519,-0.395,-3.151,-0.21,5.25,0.21
,-9.462,-0.261,-2.917,-9.505,-0.223,-3.144,-0.42,5.18,0.21
,-9.397,-0.323,-2.967,-9.44,-0.101,-3.101,0.28,5.18,0.35
7571.0,-9.407,-0.11,-2.986,-9.67,-0.565,-2.697,1.96,3.85,0.21
,-9.418,-0.206,-3.01,-9.579,-0.445,-2.649,0.91,3.57,0.07
,-9.409,-0.369,-2.879,-9.478,-0.258,-2.544,0.56,3.92,0.28
,-9.481,-0.512,-2.735,-9.476,-0.144,-2.711,1.05,4.2,0.49
7647.0,-9.505,-0.194,-2.924,-9.536,-0.273,-2.814,3.43,4.34,1.54
,-9.442,-0.258,-2.905,-9.608,-0.203,-2.991,3.22,4.2,1.82
,-9.411,-0.349,-2.766,-9.531,-0.132,-3.154,3.57,4.41,1.89
,-9.478,-0.359,-2.833,-9.392,-0.103,-3.23,3.78,4.13,1.89
7723.0,-9.402,-0.206,-3.266,-9.433,-0.433,-2.565,-1.05,1.96,1.26
,-9.366,-0.294,-3.173,-9.481,-0.491,-2.245,-1.47,1.68,1.19
,-9.385,-0.352,-3.037,-9.421,-0.5,-1.845,-0.91,1.61,1.4
,-9.454,-0.38,-2.836,-9.464,-0.467,-1.467,-0.07,1.82,1.82
7798.0,-9.545,-0.313,-1.11,-9.462,0.17,-2.393,2.1,6.86,3.36
,-9.756,-0.002,-1.134,-9.261,-0.079,-2.647,1.47,8.61,3.36
,-9.957,0.321,-1.744,-9.196,-0.574,-2.807,-2.59,8.96,2.52
,-9.746,0.388,-2.082,-9.28,-0.881,-2.876,-7.98,9.59,2.24
7874.0,-9.225,-0.632,-2.601,-9.411,0.093,-3.262,-8.12,12.39,3.01
,-9.464,0.022,-2.766,-9.048,-0.201,-3.017,-4.97,11.55,3.15
,-9.481,0.22,-2.802,-8.99,-0.385,-2.558,-8.05,10.92,2.66
,-9.56,0.325,-3.037,-9.253,-0.471,-1.754,-11.27,10.99,2.94
7949.0,-9.71,-0.232,-1.874,-8.727,-0.974,-2.886,-9.1,15.82,4.13
,-9.619,0.132,-1.91,-8.899,-1.407,-3.195,-9.1,16.38,4.06
,-9.531,0.397,-2.319,-9.143,-1.721,-2.668,-11.34,15.54,3.78
,-9.069,0.048,-3.163,-9.469,-1.017,-1.864,-17.43,14.84,3.71
8025.0,-9.517,0.299,-2.52,-9.304,1.151,-2.587,23.59,25.83,9.87
,-9.194,1.486,-2.369,-9.273,0.754,-3.082,23.87,25.69,7.63
,-9.241,1.955,-2.369,-8.871,0.945,-3.379,15.75,25.97,6.72
,-9.17,1.685,-2.565,-8.792,1.129,-4.149,5.32,26.88,6.16
8101.0,-8.856,0.893,-4.346,-8.961,-0.68,-3.671,-8.19,24.29,-1.61
,-9.124,0.239,-3.831,-8.923,-0.61,-3.676,-10.5,24.78,-1.54
,-8.923,-0.122,-3.967,-8.859,-0.601,-3.352,-8.33,25.55,-1.4
,-8.842,-0.51,-3.295,-9.45,-0.045,-3.573,-4.69,27.3,-0.98
8177.0,-9.428,0.371,-4.221,-8.22,-0.352,-5.051,6.16,25.34,0.42
,-9.265,0.723,-5.035,-8.727,-0.905,-4.087,3.5,22.68,0.77
,-8.691,0.754,-5.808,-9.196,-0.689,-3.654,-2.17,21.0,1.19
,-8.083,0.402,-5.779,-9.318,-0.325,-3.967,-7.21,20.79,1.61
8253.0,-9.555,-0.103,-4.13,-8.421,0.225,-4.934,4.9,21.63,0.07
,-9.409,-0.436,-4.398,-8.552,0.596,-5.243,-0.14,20.37,2.73
,-8.844,-0.414,-4.602,-8.605,0.586,-5.36,-1.47,20.23,5.46
,-8.423,-0.191,-4.98,-8.772,0.196,-4.968,0.7,19.25,6.79
8328.0,-8.993,-0.158,-4.312,-8.88,0.885,-5.386,-5.67,19.74,4.2
,-9.048,-0.275,-4.006,-8.624,1.079,-5.363,-4.55,19.81,4.9
,-9.136,0.163,-4.427,-8.54,1.254,-5.274,-0.77,17.15,5.11
,-8.954,0.364,-5.083,-8.607,1.084,-5.214,1.05,15.12,5.04
8404.0,-8.914,0.914,-5.03,-9.031,-0.727,-4.448,-3.5,14.07,0.56
,-8.741,0.56,-5.099,-8.957,-0.907,-4.661,-5.88,12.67,0.7
,-8.571,0.146,-4.886,-8.89,-0.799,-4.623,-6.58,13.37,1.19
,-8.684,-0.273,-4.815,-8.863,-0.091,-4.889,-5.46,14.21,1.61
8480.0,-8.603,0.723,-5.315,-8.973,0.048,-4.513,6.16,11.41,3.85
,-8.287,0.888,-5.358,-8.813,-0.22,-4.822,3.36,10.92,3.22
,-8.399,0.749,-5.006,-8.748,-0.321,-4.867,-1.26,11.62,2.59
,-8.701,0.469,-4.709,-8.753,-0.077,-4.956,-4.69,12.74,2.31
8556.0,-8.77,0.203,-5.044,-8.543,1.005,-5.406,9.31,12.46,3.29
,-8.784,0.495,-5.087,-8.435,0.704,-5.075,12.53,11.34,2.73
,-8.641,0.895,-5.394,-8.55,0.428,-4.767,13.65,9.59,2.1
,-8.65,0.871,-5.367,-8.705,0.577,-4.793,11.55,8.68,1.54
8631.0,-8.435,0.72,-4.901,-8.607,-0.622,-5.394,6.37,8.19,-2.59
,-8.358,0.366,-5.054,-8.425,-0.254,-5.784,4.27,8.96,-1.47
,-8.492,0.045,-5.162,-8.323,-0.041,-5.903,4.62,8.89,-0.91
,-8.497,-0.474,-5.394,-8.272,-0.29,-5.504,6.44,8.12,0.21
8707.0,-8.287,-0.768,-5.272,-8.308,-1.421,-4.994,10.36,6.09,2.52
,-8.574,-1.199,-5.087,-8.344,-1.275,-4.903,8.33,6.3,3.92
,-9.002,-1.443,-4.98,-8.569,-0.83,-5.233,7.98,5.95,5.6
,-8.859,-1.429,-5.032,-8.703,-0.514,-5.214,9.1,5.11,7.49
8782.0,-8.507,-0.184,-5.257,-8.016,1.376,-5.276,9.24,3.92,15.54
,-8.71,0.347,-5.384,-8.344,1.517,-5.142,10.36,3.43,15.47
,-8.701,0.938,-5.43,-8.471,1.764,-5.262,11.76,2.66,14.7
,-8.2,1.421,-5.547,-8.33,2.158,-5.401,12.32,2.45,13.16
8858.0,-8.452,2.46,-5.425,-7.956,0.091,-5.686,10.43,4.9,3.57
,-8.856,2.211,-5.549,-8.306,-0.208,-5.662,6.79,5.81,0.49
,-9.043,1.443,-5.422,-8.559,-0.431,-5.64,3.29,6.09,-1.33
,-8.385,0.651,-5.437,-8.579,-0.189,-5.781,1.26,6.44,-1.75
8934.0,-8.658,-0.165,-5.767,-8.119,-0.22,-5.899,1.68,7.84,-1.54
,-8.701,-0.459,-5.647,-8.368,0.28,-6.009,-0.63,8.05,-1.19
,-8.514,-0.639,-5.65,-8.502,0.835,-6.15,-2.8,7.14,0.14
,-8.248,-0.534,-5.707,-8.516,1.263,-6.36,-3.29,7.07,1.68
9010.0,-8.636,1.22,-6.198,-8.574,0.002,-5.329,-5.53,1.68,1.19
,-8.574,1.065,-6.068,-8.275,0.337,-5.805,-7.84,0.77,0.49
,-8.672,0.493,-5.616,-8.354,0.112,-5.903,-9.8,-0.07,-0.21
,-8.693,0.065,-5.516,-8.626,-0.244,-5.834,-9.38,-0.77,-0.35
9085.0,-8.894,-0.591,-5.626,-8.404,-0.337,-5.645,-7.77,-3.71,2.38
,-8.581,-0.658,-5.793,-8.387,-0.261,-5.633,-5.67,-4.13,3.78
,-8.519,-0.68,-5.403,-8.571,0.098,-5.714,-4.69,-4.41,4.97
,-8.504,-0.682,-5.178,-8.65,0.06,-5.664,-3.92,-5.95,6.02
9161.0,-8.653,0.345,-5.841,-8.83,0.821,-5.162,-2.31,-9.38,8.33
,-8.49,0.479,-5.757,-8.806,1.204,-5.324,-1.05,-8.96,7.56
,-8.394,0.632,-5.7,-8.193,1.232,-5.607,-0.35,-8.75,6.65
,-8.5,0.811,-5.702,-8.227,1.048,-5.638,1.68,-9.03,5.67
9237.0,-8.555,0.763,-5.386,-8.753,0.567,-5.212,1.12,-16.38,1.12
,-8.906,0.663,-5.365,-8.301,0.634,-5.312,3.78,-17.01,0.14
,-8.909,0.579,-5.346,-8.157,0.672,-5.48,5.81,-16.87,-0.35
,-8.935,0.431,-5.095,-8.466,0.562,-5.401,6.58,-17.5,-0.56
9313.0,-8.868,0.412,-5.317,-8.648,0.479,-4.831,4.34,-20.72,-0.14
,-8.787,0.481,-5.3,-8.882,0.955,-4.965,5.67,-20.02,-0.35
,-8.725,0.431,-5.126,-8.832,1.05,-4.817,7.84,-18.69,-0.49
,-8.636,0.388,-4.992,-8.796,0.715,-4.568,10.71,-17.99,-0.07
9389.0,-8.933,0.919,-4.48,-8.693,1.019,-4.42,10.78,-20.93,0.42
,-8.885,1.216,-4.714,-8.863,0.826,-4.142,6.72,-26.18,-0.28
,-8.418,1.472,-4.932,-8.784,0.687,-4.212,3.71,-26.88,-0.56
,-8.447,1.292,-4.566,-8.648,0.658,-4.159,0.7,-25.34,-1.68
9464.0,-8.622,0.44,-4.068,-9.064,0.373,-3.64,3.78,-19.88,-3.5
,-8.746,0.263,-3.886,-8.99,0.543,-3.924,5.95,-18.55,-3.71
,-9.012,0.108,-3.812,-8.672,0.45,-3.733,8.33,-18.13,-3.99
,-8.576,-0.089,-3.496,-8.897,0.677,-3.831,6.51,-19.53,-3.29
9540.0,-8.945,0.708,-3.625,-9.182,-0.244,-2.984,4.27,-20.3,-4.2
,-9.079,0.625,-3.594,-9.012,-0.199,-3.041,1.75,-21.42,-4.13
,-8.945,0.354,-3.47,-8.995,-0.11,-2.776,-0.42,-21.14,-3.92
,-9.155,0.069,-3.139,-8.985,0.168,-2.965,-0.35,-20.51,-3.78
9615.0,-9.215,0.144,-2.855,-9.261,0.459,-2.96,8.12,-19.11,-3.08
,-9.177,-0.055,-2.826,-9.198,1.053,-2.735,8.12,-18.13,-2.8
,-9.177,-0.072,-2.706,-9.387,1.433,-2.793,9.87,-17.08,-2.17
,-9.186,0.06,-2.838,-9.385,1.551,-2.548,12.81,-16.24,-2.1
9691.0,-9.464,1.184,-2.486,-9.016,-0.074,-2.838,5.6,-12.18,-7.56
,-9.471,0.864,-2.623,-9.134,-0.129,-2.807,2.8,-11.2,-8.54
,-9.194,0.447,-2.685,-9.485,-0.235,-3.369,1.96,-10.5,-9.17
,-9.005,0.282,-2.795,-9.375,-0.191,-3.276,3.15,-9.66,-9.31
9767.0,-9.363,-0.096,-3.467,-9.079,-0.486,-3.589,8.89,-8.82,-6.3
,-9.21,-0.175,-3.51,-9.253,-0.522,-3.281,7.84,-9.1,-6.3
,-9.222,-0.153,-3.967,-9.442,-0.134,-2.857,7.35,-9.38,-6.51
,-9.155,-0.4,-3.896,-9.488,0.364,-2.804,5.25,-9.59,-6.72
9843.0,-9.502,0.589,-3.132,-9.055,-0.732,-3.015,11.2,-11.06,-5.81
,-9.308,0.364,-2.673,-9.349,-0.311,-3.18,5.18,-10.85,-5.95
,-9.438,-0.239,-3.113,-9.466,0.022,-2.905,1.82,-10.78,-5.95
,-9.227,-0.658,-3.441,-9.474,0.012,-2.321,-0.42,-10.85,-6.23
9918.0,-9.706,0.268,-2.472,-9.103,-0.503,-3.345,5.88,-10.22,-4.97
,-9.77,0.187,-3.338,-9.093,-0.747,-2.726,1.05,-11.69,-6.02
,-9.363,-0.031,-3.247,-9.385,-0.632,-2.154,-1.47,-11.9,-5.39
,-9.217,-0.163,-3.537,-9.509,-0.153,-2.134,-1.4,-12.32,-4.83
9994.0,-9.715,-0.452,-1.287,-9.548,-0.034,-1.141,9.87,-7.98,-1.96
,-9.66,-0.251,-1.218,-9.576,-0.038,-1.089,9.52,-6.23,-1.19
,-9.67,-0.199,-1.12,-9.739,0.112,-1.582,7.63,-4.48,-1.19
,-9.612,-0.086,-1.192,-9.686,-0.089,-1.792,6.02,-2.66,-1.12
10069.0,-9.667,-0.034,-2.216,-9.344,-0.215,-3.594,0.98,5.53,-1.12
,-9.548,-0.108,-2.429,-9.344,-0.282,-3.908,1.05,6.02,-1.19
,-9.605,-0.012,-3.051,-9.261,-0.373,-3.769,1.68,6.02,-1.19
,-9.483,-0.074,-3.501,-9.32,-0.201,-3.551,1.47,5.6,-1.4
10145.0,-9.536,-0.244,-3.623,-9.375,-0.383,-2.635,10.29,1.75,-1.12
,-9.485,-0.273,-3.453,-9.541,-0.352,-2.393,10.5,0.63,-1.47
,-9.399,-0.124,-3.151,-9.56,-0.148,-2.182,10.22,-0.21,-1.47
,-9.495,-0.22,-2.97,-9.502,-0.179,-1.972,9.31,-0.56,-1.47
10221.0,-9.476,-0.16,-1.728,-9.569,-0.309,-2.589,3.43,2.31,-0.84
,-9.569,-0.139,-1.886,-9.471,-0.555,-2.941,0.35,3.08,-1.05
,-9.526,-0.256,-1.941,-9.409,-0.711,-3.159,-2.45,3.78,-1.12
,-9.562,-0.191,-2.213,-9.414,-0.701,-3.35,-4.76,4.69,-1.05
10297.0,-9.435,-0.634,-3.496,-9.409,-0.323,-3.329,-2.03,5.11,-0.14
,-9.495,-0.409,-3.549,-9.411,-0.38,-3.149,0.84,4.76,0.28
,-9.476,-0.27,-3.498,-9.478,-0.361,-2.984,2.24,4.13,0.42
,-9.481,-0.311,-3.443,-9.495,-0.328,-2.934,2.52,3.5,0.49
10373.0,-9.598,-0.318,-2.888,-9.363,-0.512,-2.986,4.41,2.31,0.77
,-9.569,-0.22,-2.845,-9.342,-0.553,-2.934,3.99,2.17,0.84
,-9.557,-0.127,-3.015,-9.497,-0.376,-3.025,2.94,1.89,0.7
,-9.438,-0.33,-2.941,-9.538,-0.237,-3.013,1.33,2.03,0.77
10448.0,-9.505,-0.077,-3.025,-9.509,-0.22,-2.728,2.03,1.4,1.68
,-9.373,-0.148,-3.068,-9.488,-0.141,-2.577,0.0,1.4,1.47
,-9.392,-0.275,-2.836,-9.481,-0.223,-2.508,-0.14,1.47,1.33
,-9.459,-0.227,-2.824,-9.509,-0.201,-2.405,0.91,1.68,1.47
10524.0,-9.524,-0.158,-2.522,-9.502,-0.493,-2.869,0.56,2.94,1.12
,-9.55,-0.194,-2.58,-9.438,-0.273,-2.943,-0.35,3.22,0.77
,-9.509,-0.27,-2.656,-9.512,-0.158,-3.132,-1.05,3.43,0.63
,-9.495,-0.392,-2.797,-9.483,-0.055,-3.192,-1.05,3.92,0.7
10600.0,-9.328,-0.168,-3.027,-9.409,-0.335,-3.099,1.75,3.78,1.19
,-9.433,-0.189,-3.175,-9.371,-0.357,-3.037,1.61,3.71,1.12
,-9.469,-0.275,-3.254,-9.442,-0.345,-3.087,1.4,3.29,1.05
,-9.416,-0.33,-3.254,-9.476,-0.156,-3.008,1.61,3.08,1.12
10676.0,-9.493,-0.062,-2.831,-9.476,-0.22,-2.728,2.59,2.8,1.47
,-9.521,-0.168,-2.848,-9.493,-0.294,-2.831,0.98,2.73,1.26
,-9.474,-0.11,-2.709,-9.447,-0.258,-2.783,-0.14,3.01,1.12
,-9.423,-0.124,-2.709,-9.466,-0.266,-2.816,-1.33,3.01,0.84
10751.0,-9.43,-0.29,-2.883,-9.395,-0.055,-3.259,-2.87,3.99,1.05
,-9.397,-0.316,-2.742,-9.347,-0.132,-3.247,-2.38,4.62,1.4
,-9.529,-0.146,-3.053,-9.292,-0.254,-3.245,-1.54,4.55,1.47
,-9.538,-0.048,-3.161,-9.363,-0.273,-3.125,-2.1,4.41,1.33
10827.0,-9.478,-0.232,-3.046,-9.229,-0.16,-2.797,-1.61,3.64,1.19
,-9.514,-0.026,-3.053,-9.287,-0.313,-2.553,-1.96,3.15,0.84
,-9.466,0.069,-3.02,-9.428,-0.244,-2.312,-3.71,3.15,0.63
,-9.335,0.014,-2.912,-9.56,-0.153,-2.103,-5.6,3.71,0.7
10902.0,-9.622,-0.065,-2.257,-9.258,-0.421,-2.721,-7.35,6.58,1.4
,-9.6,-0.129,-2.374,-9.325,-0.534,-2.678,-9.03,7.14,1.47
,-9.536,-0.17,-2.668,-9.328,-0.493,-2.417,-11.06,7.0,1.12
,-9.387,-0.321,-2.8,-9.569,-0.17,-2.599,-12.67,7.14,1.26
10978.0,-9.552,0.105,-2.644,-9.021,-0.16,-3.573,-8.96,8.96,2.17
,-9.552,0.213,-2.888,-9.048,-0.608,-3.388,-10.78,8.68,2.17
,-9.45,0.383,-3.379,-9.141,-1.015,-2.761,-14.0,8.47,1.96
,-9.184,0.258,-3.618,-9.579,-0.785,-2.62,-15.33,8.75,2.03
11054.0,-9.789,-0.031,-3.044,-8.827,-1.311,-2.326,5.04,9.73,5.53
,-9.538,0.347,-3.082,-9.222,-1.06,-2.548,4.27,9.52,5.39
,-9.452,0.304,-3.218,-9.316,-0.476,-2.376,0.21,10.08,5.74
,-9.0,-0.227,-3.252,-9.34,0.201,-2.402,-5.67,11.83,6.93
11130.0,-9.361,0.96,-3.02,-9.442,0.665,-2.946,13.93,16.03,8.75
,-9.038,0.802,-3.053,-9.428,0.737,-3.065,6.79,16.38,8.61
,-9.117,0.591,-2.687,-9.359,0.838,-3.137,4.06,18.55,8.75
,-9.306,0.605,-2.888,-9.083,0.78,-2.919,3.36,19.04,7.21
11205.0,-8.981,0.55,-3.223,-8.971,0.124,-3.441,-2.73,20.51,1.12
,-8.983,0.708,-3.113,-8.926,-0.108,-3.264,-0.84,20.51,0.28
,-9.16,0.888,-3.549,-9.15,0.019,-3.226,-2.03,19.39,-0.28
,-8.959,0.601,-3.647,-9.083,0.29,-3.893,-5.25,19.6,-0.56
11281.0,-8.804,0.476,-4.171,-8.614,-0.364,-4.042,-0.42,20.09,-2.66
,-9.007,0.321,-4.231,-8.626,-0.548,-4.121,-4.13,19.67,-2.17
,-8.933,-0.146,-3.908,-8.727,-0.486,-4.515,-6.79,20.23,-1.75
,-8.945,-0.369,-3.726,-8.65,-0.708,-4.609,-4.62,22.47,-1.26
11357.0,-8.94,-0.902,-4.209,-8.849,0.62,-4.999,3.5,23.1,4.41
,-9.308,-0.402,-3.965,-9.139,0.593,-4.958,9.66,23.73,4.83
,-9.239,0.129,-4.427,-9.117,0.708,-4.853,12.6,21.42,3.92
,-8.806,0.531,-4.87,-8.945,0.704,-4.532,11.34,19.53,3.01
11433.0,-8.782,0.512,-4.547,-9.028,-0.775,-3.676,0.49,16.94,-0.07
,-8.521,0.172,-4.647,-9.115,-0.134,-3.872,-2.1,15.61,-0.42
,-8.605,-0.443,-4.372,-8.995,0.57,-4.456,-3.22,16.31,0.7
,-8.93,-0.821,-4.063,-8.646,0.751,-5.166,-1.12,18.2,2.24
11509.0,-8.421,0.412,-5.296,-8.902,0.464,-4.659,-5.11,16.38,6.3
,-8.459,0.201,-4.982,-8.581,0.522,-4.917,-5.88,18.34,6.72
,-8.538,0.132,-4.913,-8.5,0.378,-4.75,-3.22,19.11,5.18
,-8.748,0.189,-4.654,-8.689,-0.096,-4.645,-0.56,18.97,3.43
11584.0,-8.801,-0.486,-4.602,-8.603,-0.158,-4.893,0.21,20.93,4.55
,-8.918,-0.5,-4.671,-8.591,-0.065,-5.075,2.94,20.09,5.32
,-8.713,-0.471,-4.831,-8.557,0.127,-5.382,4.34,19.18,6.37
,-8.65,-0.213,-4.793,-8.559,0.507,-5.214,5.46,19.25,7.42
11660.0,-8.504,0.727,-5.386,-8.557,0.041,-5.461,2.17,15.75,7.56
,-8.595,0.742,-5.396,-8.658,-0.115,-5.317,0.7,15.68,6.44
,-8.665,0.538,-5.25,-8.792,0.141,-5.276,-0.77,15.19,5.39
,-8.689,0.371,-5.382,-8.526,0.457,-5.642,-0.91,14.7,5.39
11735.0,-8.469,0.782,-5.765,-8.492,0.869,-5.76,9.87,11.06,4.97
,-8.591,1.173,-5.958,-8.588,0.689,-5.671,9.59,9.87,3.78
,-8.65,1.098,-5.899,-8.605,0.735,-5.518,7.35,8.96,2.52
,-8.746,0.909,-5.599,-8.461,1.0,-5.477,5.04,7.98,1.54
11811.0,-8.402,0.995,-5.549,-8.634,-0.771,-5.109,5.88,2.87,-6.16
,-8.485,1.108,-5.621,-8.557,-1.129,-5.049,5.67,2.03,-6.72
,-8.325,0.701,-5.721,-8.725,-1.122,-5.221,3.85,1.4,-6.23
,-8.33,-0.036,-5.456,-8.402,-1.015,-5.322,1.89,1.47,-5.46
11887.0,-8.61,-0.854,-5.319,-8.172,0.067,-5.501,6.23,0.42,-0.49
,-8.524,-0.747,-5.374,-8.368,0.261,-5.506,5.67,0.49,0.7
,-8.768,-0.251,-5.611,-8.423,0.06,-5.193,5.81,0.14,1.33
,-8.397,-0.012,-5.564,-8.574,-0.079,-4.551,5.25,-0.77,2.03
11963.0,-8.734,0.256,-4.75,-8.557,0.969,-5.178,6.37,-0.07,5.18
,-8.567,0.404,-4.688,-8.445,1.101,-5.377,7.07,-0.28,4.69
,-8.464,0.608,-4.989,-8.519,1.022,-5.494,7.63,0.14,4.48
,-8.361,0.711,-5.178,-8.6,0.735,-5.415,7.42,0.56,4.69
12038.0,-8.512,0.258,-5.377,-8.461,-0.682,-5.353,2.1,-0.77,1.89
,-8.373,-0.23,-5.398,-8.583,-0.357,-5.296,1.54,-0.35,2.45
,-8.397,-0.625,-5.255,-8.77,-0.014,-5.238,2.1,-0.21,3.43
,-8.423,-0.794,-5.296,-8.746,0.127,-5.207,3.57,-0.35,4.48
12114.0,-8.607,0.065,-5.035,-8.394,0.608,-5.09,7.49,0.7,6.09
,-8.366,-0.108,-5.068,-8.497,0.952,-5.164,6.79,1.19,6.65
,-8.402,-0.055,-4.994,-8.48,1.108,-5.245,6.79,1.89,7.35
,-8.373,0.189,-5.109,-8.435,1.151,-5.288,7.14,2.17,7.42
12190.0,-8.368,0.995,-5.193,-8.411,0.572,-5.458,1.05,2.87,3.5
,-8.433,0.684,-5.126,-8.306,0.414,-5.379,0.21,3.64,2.52
,-8.562,0.507,-5.3,-8.478,0.182,-5.463,0.63,4.2,1.89
,-8.646,0.505,-5.245,-8.746,0.156,-5.532,1.12,4.06,1.75
12266.0,-8.911,0.175,-5.386,-8.521,0.672,-5.499,-0.63,4.34,2.31
,-8.782,0.177,-5.31,-8.459,0.605,-5.458,-0.77,3.22,2.17
,-8.471,0.309,-5.408,-8.497,0.759,-5.614,-1.19,2.94,2.17
,-8.428,0.514,-5.504,-8.533,0.711,-5.621,-1.47,3.08,1.54
12341.0,-8.619,0.584,-5.549,-8.361,-0.17,-5.439,-3.29,0.49,0.77
,-8.748,0.184,-5.363,-8.512,-0.017,-5.549,-3.99,0.56,0.7
,-8.691,-0.266,-5.013,-8.71,0.397,-5.717,-5.39,0.56,0.91
,-8.516,-0.244,-5.157,-8.624,0.536,-5.798,-3.99,0.0,1.61
12417.0,-8.516,0.263,-5.628,-8.693,0.203,-5.482,-2.52,-3.43,2.45
,-8.476,-0.026,-5.662,-8.847,0.555,-5.372,-2.66,-3.01,2.45
,-8.562,-0.29,-5.59,-8.703,0.919,-5.698,-2.1,-3.22,3.01
,-8.555,-0.206,-5.477,-8.323,0.823,-5.592,-0.28,-3.92,3.78
12493.0,-8.229,0.495,-5.341,-8.804,0.768,-5.073,-3.08,-8.89,1.05
,-8.413,0.136,-5.226,-8.741,1.161,-4.956,-3.99,-8.26,0.98
,-8.76,0.093,-5.19,-8.339,1.192,-5.013,-0.98,-8.19,0.63
,-8.818,0.45,-5.343,-8.241,1.163,-5.027,3.5,-8.68,0.21
12568.0,-8.425,0.833,-5.013,-8.734,0.364,-4.872,0.14,-11.55,-2.59
,-8.717,0.445,-4.953,-8.55,0.514,-4.86,-0.07,-11.76,-2.94
,-8.866,0.136,-4.819,-8.43,0.347,-4.853,2.03,-11.48,-3.57
,-8.885,0.168,-4.803,-8.473,0.208,-4.934,5.6,-11.13,-4.06
12644.0,-8.579,-0.093,-4.724,-8.581,0.503,-4.592,2.1,-12.67,-1.19
,-8.717,-0.108,-4.566,-8.804,0.519,-4.669,3.92,-11.97,-0.7
,-8.808,0.184,-4.539,-8.801,0.299,-4.609,6.65,-12.04,-0.77
,-8.631,0.407,-4.633,-8.976,0.213,-4.41,7.56,-11.55,-0.84
12720.0,-9.04,0.455,-4.491,-8.641,0.27,-4.346,7.07,-11.97,-0.21
,-8.727,0.55,-4.748,-8.887,0.254,-4.276,5.74,-13.51,0.21
,-8.452,0.598,-4.87,-9.048,0.392,-4.401,4.97,-13.44,0.98
,-8.402,0.39,-4.616,-8.904,0.357,-4.527,4.69,-12.11,0.91
12796.0,-8.93,0.366,-4.527,-8.815,0.754,-4.712,6.72,-10.57,0.84
,-8.863,0.337,-4.764,-8.478,0.605,-4.63,8.26,-9.38,0.77
,-8.966,0.354,-4.599,-8.423,0.5,-4.633,9.73,-8.68,0.21
,-9.103,0.589,-4.491,-8.648,0.323,-4.432,9.24,-10.01,-0.21
12871.0,-9.15,0.476,-4.19,-8.689,0.194,-4.039,5.32,-12.32,-1.05
,-8.729,0.419,-4.752,-8.871,0.366,-4.015,6.16,-12.46,-0.63
,-9.093,0.337,-4.338,-9.174,0.546,-4.128,5.39,-11.41,0.28
,-8.66,0.294,-4.582,-9.15,0.699,-4.274,5.39,-10.5,1.12
12947.0,-9.11,0.567,-4.417,-8.782,0.103,-3.944,3.15,-13.02,-0.28
,-9.031,0.081,-4.202,-8.88,0.098,-4.2,0.98,-12.53,-0.63
,-8.854,0.069,-4.027,-8.952,0.072,-4.219,2.1,-12.25,-1.54
,-8.729,0.022,-3.783,-9.007,0.007,-3.996,3.15,-11.97,-2.31
13023.0,-9.026,-0.012,-3.795,-9.119,0.744,-4.235,4.55,-14.07,-0.35
,-9.081,-0.034,-3.355,-8.928,0.682,-4.13,6.93,-13.02,-1.05
,-9.275,0.29,-3.553,-8.993,0.232,-3.649,7.77,-13.58,-1.26
,-9.129,0.627,-3.695,-9.155,0.187,-3.405,6.23,-15.05,-0.98
13099.0,-9.287,0.538,-3.307,-9.153,0.218,-3.573,8.12,-13.23,-3.92
,-9.397,1.055,-3.486,-9.129,-0.28,-3.242,8.68,-14.63,-4.76
,-9.107,1.187,-3.527,-9.122,-0.486,-3.005,4.13,-15.75,-4.76
,-9.124,0.969,-3.652,-9.237,-0.069,-3.051,-0.28,-15.54,-4.34
13174.0,-9.16,0.249,-2.934,-9.634,0.304,-3.321,9.24,-12.95,-5.6
,-9.179,0.108,-2.757,-9.177,0.483,-3.549,7.28,-11.97,-4.69
,-9.359,0.002,-2.527,-8.904,0.407,-3.874,5.74,-10.99,-3.92
,-9.579,0.022,-2.536,-8.849,0.302,-3.819,6.72,-10.15,-3.85
13250.0,-9.112,-0.031,-3.616,-9.213,0.311,-3.697,8.47,-10.57,-4.76
,-9.438,0.409,-4.082,-9.335,-0.199,-3.613,11.06,-12.18,-5.46
,-9.378,0.584,-3.989,-9.282,-0.543,-3.046,10.01,-13.65,-6.23
,-9.158,0.555,-3.829,-9.586,-0.524,-3.403,7.28,-14.28,-6.51
13325.0,-9.409,-0.354,-2.917,-9.469,0.017,-1.644,6.93,-15.54,-6.44
,-9.289,-0.022,-2.525,-9.483,0.0,-1.756,7.49,-14.77,-5.74
,-9.371,0.06,-2.335,-9.469,-0.158,-2.015,5.74,-13.86,-5.67
,-9.404,0.022,-2.017,-9.385,-0.213,-2.108,3.15,-12.67,-5.81
13401.0,-9.201,-0.172,-2.118,-9.509,-0.098,-2.761,2.66,-5.74,-3.57
,-9.27,-0.232,-2.12,-9.39,-0.182,-2.783,5.18,-4.06,-3.01
,-9.572,-0.105,-2.515,-9.392,-0.249,-2.74,7.28,-3.22,-2.87
,-9.579,-0.086,-2.654,-9.457,-0.127,-2.735,7.84,-2.8,-2.8
13477.0,-9.509,0.096,-2.793,-9.361,-0.589,-3.12,6.3,-1.33,-3.57
,-9.608,0.206,-3.233,-9.462,-0.766,-2.802,2.52,-2.45,-4.27
,-9.43,0.024,-3.305,-9.552,-0.68,-2.536,-1.12,-3.29,-4.69
,-9.203,-0.328,-3.305,-9.55,-0.352,-2.245,-2.31,-3.29,-4.48
13553.0,-9.6,-0.031,-2.137,-9.316,-0.294,-2.57,7.07,-0.84,-1.47
,-9.519,0.122,-2.099,-9.277,-0.416,-2.558,4.55,-0.14,-1.75
,-9.478,0.06,-2.235,-9.44,-0.431,-2.51,1.19,0.77,-1.96
,-9.545,-0.127,-2.491,-9.529,-0.397,-2.584,-2.24,0.98,-2.38
13629.0,-9.548,-0.373,-2.728,-9.246,-0.66,-3.386,0.35,3.99,-0.98
,-9.555,-0.567,-2.982,-9.282,-0.5,-3.147,-0.21,4.27,-0.7
,-9.411,-0.684,-3.302,-9.493,-0.242,-3.104,0.7,4.06,-0.42
,-9.265,-0.706,-3.367,-9.667,-0.108,-3.24,3.29,4.2,0.07
13704.0,-9.507,-0.069,-3.063,-9.45,-0.321,-2.979,10.15,3.29,1.12
,-9.464,-0.261,-3.096,-9.459,-0.268,-2.931,9.17,3.43,1.19
,-9.416,-0.376,-3.135,-9.366,-0.268,-2.659,9.38,3.36,1.33
,-9.383,-0.445,-3.094,-9.49,-0.117,-2.644,10.5,3.29,1.54
13780.0,-9.557,-0.026,-2.795,-9.483,-0.335,-2.907,5.39,3.64,0.84
,-9.502,-0.189,-2.871,-9.631,-0.285,-3.096,3.08,3.57,0.84
,-9.313,-0.223,-2.711,-9.61,-0.203,-3.309,1.75,3.92,1.05
,-9.371,-0.371,-2.845,-9.43,-0.235,-3.329,1.89,4.27,1.12
13856.0,-9.363,-0.311,-3.321,-9.485,-0.318,-3.113,2.1,2.8,0.56
,-9.294,-0.316,-3.36,-9.471,-0.323,-2.941,2.45,2.66,0.49
,-9.359,-0.34,-3.343,-9.476,-0.254,-2.931,3.29,2.52,0.56
,-9.421,-0.352,-3.154,-9.414,-0.285,-2.893,4.27,2.45,0.77
13932.0,-9.457,-0.189,-2.893,-9.316,-0.337,-2.974,5.04,2.31,1.12
,-9.531,-0.177,-3.142,-9.466,-0.443,-3.005,4.55,2.17,0.91
,-9.399,-0.189,-3.128,-9.483,-0.239,-2.86,3.92,2.1,0.84
,-9.289,-0.282,-3.094,-9.457,-0.168,-2.929,3.57,2.31,0.91
14007.0,-9.471,-0.168,-2.977,-9.354,-0.309,-3.084,3.57,2.59,0.63
,-9.454,-0.218,-3.034,-9.375,-0.321,-2.922,2.94,2.52,0.7
,-9.397,-0.148,-3.128,-9.418,-0.306,-2.871,2.66,2.52,0.7
,-9.454,-0.244,-3.163,-9.466,-0.227,-2.912,2.17,2.73,0.63
14083.0,-9.536,-0.081,-2.883,-9.311,-0.462,-3.125,3.5,3.01,0.56
,-9.476,-0.196,-3.029,-9.39,-0.45,-3.12,1.68,3.08,0.35
,-9.43,-0.235,-3.197,-9.423,-0.208,-3.128,0.35,2.8,0.14
,-9.395,-0.325,-3.204,-9.509,-0.017,-3.24,-0.14,2.87,0.14
14158.0,-9.43,-0.065,-3.221,-9.471,-0.426,-3.082,-0.98,1.96,0.0
,-9.328,-0.285,-3.116,-9.418,-0.122,-2.903,-2.24,2.03,0.07
,-9.306,-0.543,-3.113,-9.433,-0.014,-2.807,-1.96,2.24,0.21
,-9.373,-0.658,-3.144,-9.502,-0.077,-2.919,0.21,2.03,0.63
14234.0,-9.478,-0.313,-2.903,-9.39,-0.134,-2.965,-3.29,2.31,-0.07
,-9.476,-0.426,-2.876,-9.423,-0.146,-3.02,-3.64,2.38,-0.21
,-9.428,-0.507,-2.8,-9.371,-0.213,-3.089,-3.57,2.31,-0.14
,-9.371,-0.306,-2.881,-9.368,-0.462,-2.982,-2.17,2.59,0.14
14310.0,-9.481,-0.524,-2.955,-9.347,-0.139,-2.742,-5.25,2.94,0.14
,-9.519,-0.366,-2.869,-9.325,-0.412,-2.704,-5.18,2.59,-0.21
,-9.457,-0.156,-2.699,-9.483,-0.567,-2.907,-6.16,2.31,-0.07
,-9.404,-0.019,-2.692,-9.512,-0.471,-3.072,-8.26,2.17,0.07
14386.0,-9.445,-0.223,-3.24,-9.497,-0.201,-3.477,-6.51,4.13,1.75
,-9.354,-0.043,-3.247,-9.407,-0.12,-3.64,-8.26,3.71,1.82
,-9.311,-0.062,-3.36,-9.201,-0.273,-3.546,-10.92,3.08,1.75
,-9.301,-0.179,-3.333,-9.117,-0.378,-3.108,-12.53,3.08,1.82
14461.0,-9.258,-0.39,-2.615,-9.292,0.282,-2.781,-10.64,3.78,2.17
,-9.658,-0.069,-2.501,-9.086,-0.081,-2.735,-9.03,3.99,1.47
,-9.655,0.282,-2.405,-9.062,-0.84,-2.953,-10.5,3.78,1.26
,-9.619,0.498,-2.706,-9.012,-1.457,-2.673,-13.16,3.5,1.4
14537.0,-9.234,-1.591,-2.481,-9.277,0.096,-2.711,-1.96,11.13,7.0
,-9.426,-1.18,-2.606,-9.548,0.534,-2.548,7.07,11.48,8.47
,-9.485,-0.605,-2.802,-9.562,0.895,-3.039,13.16,11.34,9.38
,-9.462,-0.139,-2.862,-9.311,1.18,-3.357,14.84,11.69,10.22
14613.0,-8.938,1.163,-3.441,-9.275,-1.024,-2.443,-3.15,12.11,6.37
,-8.985,0.359,-3.766,-9.275,-0.127,-2.142,-9.1,12.6,5.88
,-9.043,-0.759,-3.714,-9.356,0.983,-2.414,-8.05,14.28,6.93
,-9.038,-1.397,-2.967,-9.366,1.914,-2.548,0.21,16.8,8.96
14689.0,-9.521,2.058,-3.171,-9.143,-0.201,-3.872,10.78,15.96,4.48
,-9.258,1.261,-3.061,-9.076,-0.129,-4.178,-1.33,17.01,4.27
,-9.112,0.397,-3.321,-8.909,-0.148,-3.805,-7.49,17.85,3.71
,-8.995,-0.124,-3.439,-8.684,-0.168,-2.735,-7.56,18.27,2.24
14765.0,-9.366,0.292,-1.85,-8.875,-0.146,-4.815,7.14,24.29,0.42
,-9.469,1.072,-3.211,-8.882,-1.342,-4.52,6.16,20.02,-2.73
,-9.265,1.235,-3.831,-8.899,-2.182,-4.255,-0.49,17.01,-3.85
,-9.287,1.024,-4.654,-8.923,-2.479,-3.771,-12.04,15.19,-2.45
14840.0,-8.794,-2.407,-3.613,-9.069,0.414,-3.573,-1.89,18.06,3.5
,-9.014,-2.166,-3.434,-8.804,1.536,-4.063,3.92,18.83,6.93
,-9.196,-1.878,-3.343,-8.37,2.06,-4.585,9.03,20.93,10.36
,-9.222,-1.01,-3.264,-8.524,1.967,-4.819,15.05,23.38,12.53
14916.0,-8.583,1.278,-4.702,-9.055,0.352,-3.644,-6.37,18.76,10.15
,-8.959,0.428,-4.188,-9.095,0.921,-4.164,-7.63,20.3,9.17
,-9.301,0.091,-3.972,-8.741,1.397,-4.731,-3.22,20.58,7.49
,-9.172,0.036,-3.872,-8.614,1.843,-5.152,2.59,21.28,5.67
14991.0,-8.603,1.974,-5.37,-8.727,-0.45,-4.381,0.77,19.11,3.01
,-8.727,1.91,-5.296,-8.827,-0.988,-3.946,-3.99,17.99,0.35
,-8.71,1.35,-5.193,-9.194,-0.936,-3.927,-9.31,17.57,-1.89
,-8.801,0.517,-4.843,-9.251,-0.601,-4.494,-13.16,18.34,-3.01
15067.0,-9.028,0.196,-5.13,-8.555,0.979,-5.054,6.09,15.96,2.1
,-8.404,0.83,-5.604,-8.835,0.737,-4.771,5.46,14.7,2.45
,-8.236,1.12,-5.587,-9.045,0.467,-4.465,1.54,14.84,1.89
,-8.296,1.098,-5.305,-8.76,-0.129,-4.515,-2.38,15.82,-0.07
15143.0,-8.717,-0.747,-4.812,-8.363,-0.148,-5.269,-7.56,15.68,0.07
,-8.756,-1.208,-4.874,-8.1,0.572,-5.3,-4.41,15.33,2.03
,-8.851,-1.347,-4.922,-8.251,1.232,-5.319,0.63,14.63,4.41
,-8.775,-0.89,-4.953,-8.741,1.474,-5.252,6.44,13.51,6.09
15219.0,-8.94,1.242,-5.104,-8.737,0.022,-5.264,-2.8,12.46,3.71
,-8.768,0.751,-4.944,-8.794,0.287,-5.422,-6.44,12.81,3.29
,-8.559,0.438,-5.075,-8.557,0.761,-5.817,-5.88,13.09,3.29
,-8.564,0.16,-5.083,-8.421,1.048,-5.889,-2.38,12.95,3.29
15294.0,-8.71,1.082,-5.793,-7.937,-0.371,-5.178,12.74,6.86,-0.21
,-8.844,0.976,-5.786,-8.133,-0.531,-4.994,9.87,6.23,-2.03
,-8.782,0.424,-5.592,-8.607,-0.213,-5.09,5.39,5.11,-2.73
,-8.392,0.069,-5.286,-8.942,-0.108,-5.085,2.94,4.27,-2.38
15370.0,-8.935,0.507,-5.592,-8.631,0.098,-5.415,10.78,4.2,0.49
,-8.428,0.895,-5.908,-8.777,-0.124,-4.934,11.34,3.08,-0.07
,-8.267,0.596,-5.686,-8.725,-0.034,-4.87,9.1,3.36,-0.28
,-8.404,0.318,-5.425,-8.732,-0.019,-4.994,8.54,3.5,-0.63
15445.0,-8.564,0.026,-5.061,-8.536,0.467,-5.666,8.82,2.8,-0.49
,-8.454,0.321,-5.391,-8.334,0.292,-5.506,9.45,1.82,0.0
,-8.643,0.357,-5.482,-8.2,-0.199,-5.19,8.19,1.54,0.63
,-8.641,0.491,-5.494,-8.282,-0.304,-5.197,8.26,1.26,0.49
15521.0,-8.579,-0.651,-5.071,-8.457,0.132,-5.288,5.95,0.98,2.8
,-8.796,-0.648,-5.226,-8.538,0.16,-5.293,8.33,0.49,3.29
,-8.741,-0.27,-5.355,-8.536,0.091,-5.185,11.27,0.0,3.64
,-8.643,0.103,-5.413,-8.708,-0.022,-5.145,12.11,0.0,4.41
15597.0,-8.641,-0.287,-5.188,-8.693,0.715,-5.432,7.14,-0.28,6.23
,-8.437,-0.424,-5.133,-8.873,0.806,-5.229,7.42,-0.07,7.35
,-8.16,-0.177,-5.147,-8.784,0.802,-5.25,10.01,0.0,7.84
,-8.189,0.505,-5.48,-8.48,0.723,-5.267,12.39,-0.77,7.49
15673.0,-8.497,0.524,-5.233,-8.11,0.201,-5.298,5.39,-1.82,4.83
,-8.581,0.062,-5.099,-8.524,0.455,-5.461,4.13,-1.33,4.55
,-8.44,-0.246,-4.97,-8.844,0.51,-5.468,3.99,-0.84,4.9
,-8.136,-0.127,-5.066,-8.775,0.44,-5.446,4.62,-0.63,5.32
15749.0,-8.576,0.455,-5.468,-8.557,0.806,-5.394,3.5,0.49,3.99
,-8.495,0.378,-5.233,-8.784,1.029,-5.363,2.1,0.63,4.06
,-8.198,0.385,-5.181,-8.677,1.237,-5.468,1.54,0.77,3.99
,-8.21,0.615,-5.42,-8.559,1.251,-5.47,1.26,0.91,3.99
15824.0,-8.665,1.019,-5.449,-8.586,0.385,-5.255,-4.69,1.47,-0.35
,-8.741,0.696,-5.276,-8.746,0.311,-5.327,-6.3,1.05,-1.12
,-8.612,0.526,-5.185,-8.832,0.067,-5.205,-6.09,0.35,-1.68
,-8.504,0.605,-5.501,-8.748,-0.007,-5.185,-3.85,-0.21,-2.03
15900.0,-8.612,-0.093,-5.233,-8.78,-0.325,-5.164,-3.64,-2.59,-1.68
,-8.72,-0.074,-5.398,-8.765,-0.34,-5.214,-4.76,-3.78,-0.98
,-8.629,-0.321,-5.425,-8.607,-0.335,-5.391,-6.58,-4.27,-0.77
,-8.603,-0.412,-5.288,-8.586,-0.426,-5.31,-6.3,-4.41,-0.56
15976.0,-8.622,-0.144,-5.453,-8.44,0.55,-5.279,-3.78,-7.35,3.64
,-8.703,0.12,-5.238,-8.689,0.333,-5.209,-3.43,-8.4,3.57
,-8.586,0.548,-5.475,-8.806,0.239,-5.181,-2.45,-9.94,3.29
,-8.38,0.689,-5.573,-8.916,0.294,-4.958,-2.8,-10.85,3.64
16052.0,-8.902,0.704,-5.2,-8.806,0.495,-5.154,-0.28,-13.51,0.84
,-8.586,0.706,-5.176,-8.887,0.364,-5.095,-0.49,-13.86,-0.56
,-8.454,0.66,-5.188,-9.007,0.067,-4.915,-0.07,-13.44,-0.98
,-8.744,0.704,-5.114,-8.971,-0.012,-4.915,0.49,-14.0,-1.12
16127.0,-8.825,0.096,-5.027,-9.069,0.651,-4.81,3.71,-17.36,-2.24
,-8.488,0.266,-5.193,-9.115,0.603,-4.927,4.55,-17.64,-1.96
,-8.394,0.493,-4.965,-8.839,0.39,-4.769,5.53,-17.29,-2.1
,-8.684,0.538,-4.92,-8.739,0.213,-4.558,5.88,-17.01,-2.38
16203.0,-8.634,0.199,-4.482,-9.141,-0.414,-4.334,2.87,-20.3,-0.91
,-8.557,0.402,-4.58,-9.119,-0.498,-4.343,4.06,-21.21,-1.47
,-8.727,0.672,-4.523,-9.256,-0.534,-4.262,3.78,-20.72,-1.05
,-8.813,0.199,-4.508,-9.081,-0.108,-4.279,3.22,-20.37,-1.82
16278.0,-9.083,0.287,-4.336,-8.54,1.015,-3.805,18.06,-17.85,3.57
,-9.239,0.584,-3.977,-9.06,1.204,-3.702,13.86,-20.93,3.57
,-8.6,0.84,-4.243,-9.258,1.433,-3.747,9.73,-22.33,3.85
,-8.33,0.869,-3.977,-8.926,1.072,-3.594,7.35,-20.86,3.78
16354.0,-8.976,0.739,-3.36,-9.251,1.117,-3.317,3.99,-17.85,0.35
,-8.995,0.622,-3.391,-9.316,0.957,-2.927,6.65,-17.57,0.0
,-9.091,0.883,-3.817,-9.143,1.266,-3.513,9.87,-18.97,-1.12
,-9.275,1.027,-2.95,-8.981,1.22,-3.994,11.06,-18.27,-1.33
16430.0,-8.603,0.694,-4.159,-9.825,0.89,-2.979,-7.63,-20.72,-5.95
,-8.811,-0.345,-3.168,-9.318,1.326,-3.68,-8.4,-16.73,-5.46
,-9.153,-0.749,-2.606,-8.746,0.581,-3.934,-2.52,-13.65,-5.95
,-9.78,-0.098,-2.58,-8.631,-0.684,-3.496,6.23,-13.37,-7.28
16506.0,-9.107,-1.474,-2.924,-9.055,1.103,-2.788,9.03,-5.04,-3.64
,-9.823,-1.094,-2.278,-9.033,0.443,-2.635,18.41,-6.3,-4.9
,-9.541,0.168,-2.749,-9.203,-0.378,-2.596,22.26,-11.62,-6.16
,-9.074,1.103,-2.895,-9.299,-0.708,-2.029,17.29,-14.7,-6.3
16581.0,-9.366,-0.263,-2.123,-9.033,0.66,-2.871,10.78,-6.86,-3.92
,-9.775,0.577,-2.455,-9.162,0.27,-2.819,15.75,-7.56,-4.2
,-9.615,1.072,-2.9,-9.201,0.278,-2.934,14.56,-9.17,-4.97
,-9.148,1.117,-3.218,-9.38,0.024,-2.187,9.59,-8.96,-4.97
16657.0,-9.588,-0.112,-2.178,-9.198,0.261,-3.13,0.42,-4.06,-8.26
,-9.574,-0.06,-2.206,-9.263,-0.002,-3.381,-1.19,-3.5,-7.77
,-9.677,0.108,-2.917,-9.117,-0.199,-3.793,-1.54,-3.36,-7.28
,-9.404,0.345,-3.075,-9.124,-0.459,-3.154,-2.73,-2.38,-6.93
16733.0,-9.45,-0.467,-3.025,-9.452,-0.024,-3.113,4.06,-0.56,-5.74
,-9.648,-0.266,-2.831,-9.423,-0.239,-3.46,7.14,-0.84,-5.46
,-9.536,-0.103,-2.903,-9.225,-0.347,-3.558,7.14,-1.47,-5.39
,-9.521,0.172,-2.85,-9.136,-0.467,-3.374,5.6,-1.4,-5.39
16809.0,-9.208,-0.514,-3.204,-9.416,0.352,-3.503,11.62,-0.28,-3.08
,-9.411,-0.385,-3.077,-9.251,0.024,-3.52,15.82,-0.21,-2.59
,-9.603,-0.065,-3.02,-9.093,-0.313,-3.228,18.9,-0.98,-2.17
,-9.792,0.273,-3.527,-9.134,-0.677,-2.733,17.71,-2.94,-2.66
16885.0,-9.399,-0.627,-2.568,-9.526,-0.431,-2.185,13.44,-2.52,-2.73
,-9.555,-0.637,-2.034,-9.454,-0.292,-2.501,13.86,-2.1,-2.38
,-9.77,-0.574,-2.175,-9.368,-0.354,-2.419,13.16,-2.17,-2.1
,-9.672,-0.419,-2.187,-9.318,-0.469,-2.412,11.9,-2.17,-1.75
16960.0,-9.574,-0.373,-2.649,-9.435,-0.084,-3.331,11.69,1.05,-1.05
,-9.653,-0.191,-2.702,-9.371,-0.328,-3.204,11.27,0.91,-1.05
,-9.567,0.034,-2.898,-9.371,-0.436,-3.171,9.8,0.42,-0.91
,-9.526,0.057,-3.027,-9.373,-0.622,-2.943,7.42,0.21,-1.12
17036.0,-9.483,-0.648,-2.848,-9.428,-0.249,-2.764,3.64,0.0,-1.82
,-9.49,-0.66,-2.804,-9.512,-0.273,-2.852,4.34,-0.28,-1.4
,-9.454,-0.385,-2.8,-9.526,-0.364,-2.931,4.9,-0.28,-1.05
,-9.39,-0.28,-2.74,-9.392,-0.522,-2.697,3.99,-0.14,-0.91
17111.0,-9.294,-0.66,-2.393,-9.497,-0.139,-2.541,2.52,1.26,-0.07
,-9.433,-0.603,-2.228,-9.457,-0.323,-2.635,5.11,2.1,0.63
,-9.627,-0.404,-2.376,-9.426,-0.493,-2.69,6.58,2.17,0.84
,-9.548,-0.196,-2.4,-9.373,-0.538,-2.718,6.16,2.66,0.91
17187.0,-9.488,-0.438,-2.802,-9.447,-0.409,-2.915,3.64,4.41,0.7
,-9.495,-0.412,-2.733,-9.407,-0.402,-2.953,3.99,4.83,0.77
,-9.49,-0.29,-2.692,-9.44,-0.282,-3.156,4.34,5.04,1.05
,-9.397,-0.258,-2.778,-9.481,-0.266,-3.195,3.15,5.32,1.05
17263.0,-9.454,-0.311,-3.374,-9.411,-0.321,-3.348,1.54,5.04,1.19
,-9.409,-0.445,-3.336,-9.447,-0.251,-3.111,1.96,4.76,1.26
,-9.399,-0.414,-3.34,-9.457,-0.251,-3.144,3.29,4.27,1.33
,-9.409,-0.345,-3.41,-9.426,-0.4,-3.19,4.27,3.85,1.33
17339.0,-9.375,-0.4,-3.015,-9.399,-0.404,-3.111,4.62,2.8,1.4
,-9.531,-0.304,-3.175,-9.375,-0.483,-3.017,5.46,2.73,1.33
,-9.493,-0.34,-3.142,-9.418,-0.455,-2.962,5.67,2.52,1.47
,-9.378,-0.357,-3.13,-9.485,-0.419,-2.996,5.67,2.52,1.68
17414.0,-9.543,-0.373,-3.084,-9.375,-0.481,-2.934,7.77,2.38,1.75
,-9.433,-0.273,-3.108,-9.462,-0.443,-2.862,7.49,2.03,1.61
,-9.354,-0.333,-3.106,-9.481,-0.273,-2.848,6.79,2.17,1.47
,-9.359,-0.479,-3.01,-9.567,-0.172,-2.869,6.58,2.59,1.33
17490.0,-9.469,-0.115,-2.793,-9.452,-0.242,-2.986,4.83,3.01,1.19
,-9.38,-0.244,-2.824,-9.45,-0.235,-3.037,3.78,3.22,0.98
,-9.399,-0.342,-2.828,-9.411,-0.268,-3.147,3.57,3.64,0.98
,-9.426,-0.33,-2.982,-9.457,-0.316,-3.235,3.78,3.71,1.05
17565.0,-9.378,-0.347,-3.34,-9.414,-0.297,-3.458,0.63,3.43,0.42
,-9.363,-0.33,-3.393,-9.359,-0.342,-3.281,0.63,3.01,0.28
,-9.34,-0.371,-3.451,-9.366,-0.337,-3.295,0.49,2.66,0.07
,-9.409,-0.304,-3.484,-9.411,-0.366,-3.195,0.84,2.31,0.0
17641.0,-9.45,-0.361,-3.135,-9.416,-0.373,-2.924,2.66,0.98,0.42
,-9.421,-0.297,-3.156,-9.442,-0.376,-2.941,2.45,0.84,0.21
,-9.351,-0.38,-3.099,-9.524,-0.28,-3.118,2.03,0.77,0.14
,-9.356,-0.378,-2.989,-9.416,-0.275,-3.089,1.75,0.91,0.14
17717.0,-9.332,-0.366,-3.147,-9.399,-0.38,-3.02,0.98,0.77,0.21
,-9.318,-0.424,-3.156,-9.392,-0.402,-2.795,1.26,0.84,0.35
,-9.399,-0.445,-3.202,-9.519,-0.409,-2.95,2.17,0.84,0.35
,-9.421,-0.373,-3.132,-9.481,-0.266,-3.144,2.87,0.7,0.42
17793.0,-9.43,-0.199,-3.139,-9.38,-0.469,-3.025,0.84,0.35,0.49
,-9.344,-0.266,-3.142,-9.457,-0.385,-3.01,-0.98,0.35,0.28
,-9.304,-0.419,-3.128,-9.356,-0.354,-2.982,-2.1,0.49,0.49
,-9.383,-0.555,-2.974,-9.383,-0.357,-3.041,-1.96,0.77,0.7
17869.0,-9.462,-0.345,-2.95,-9.459,-0.187,-2.486,-3.08,0.35,1.19
,-9.454,-0.246,-2.8,-9.418,-0.445,-2.553,-4.27,0.28,0.49
,-9.452,-0.053,-2.682,-9.471,-0.586,-2.737,-6.58,0.28,0.21
,-9.526,0.026,-2.546,-9.497,-0.713,-2.735,-10.22,0.28,-0.14
17944.0,-9.749,-0.548,-2.879,-9.576,0.364,-2.544,-13.65,0.84,0.49
,-9.651,-0.203,-2.632,-9.813,0.029,-2.8,-14.98,-0.91,0.07
,-9.45,0.182,-2.355,-9.268,-0.443,-2.807,-17.85,-2.1,0.0
,-9.268,0.412,-2.295,-8.887,-0.718,-2.855,-21.63,-1.89,-0.49
18020.0,-9.074,-1.304,-2.158,-9.177,0.378,-3.647,-26.25,6.58,1.82
,-9.323,-1.113,-2.067,-8.871,0.014,-3.996,-18.13,8.54,2.31
,-9.835,-0.541,-1.869,-9.028,-0.558,-3.953,-8.82,10.57,3.57
,-9.952,0.184,-3.486,-9.074,-1.182,-3.508,-6.93,7.49,3.5
18096.0,-9.383,-1.125,-3.381,-9.22,0.211,-1.838,7.42,9.73,8.12
,-9.562,-0.479,-3.515,-9.407,0.385,-1.914,15.12,9.66,8.26
,-9.493,-0.287,-2.948,-9.402,0.426,-2.563,16.38,10.71,9.03
,-9.222,-0.002,-2.367,-9.213,0.153,-2.402,15.82,11.55,9.45
18172.0,-9.328,-0.22,-2.687,-9.318,0.318,-3.479,6.65,13.44,8.33
,-9.191,-0.328,-3.204,-9.095,0.323,-3.29,8.75,13.16,7.98
,-9.284,-0.029,-3.333,-9.143,0.909,-2.74,12.74,12.95,7.7
,-9.435,0.206,-3.57,-9.43,1.536,-3.106,12.6,12.25,6.86
18247.0,-9.49,2.13,-3.958,-9.124,-1.307,-3.015,6.93,8.75,-2.31
,-9.557,1.876,-4.57,-9.478,-1.017,-3.522,-6.16,7.91,-4.2
,-9.148,0.436,-4.307,-9.684,-0.641,-3.805,-19.25,10.92,-3.57
,-8.832,-0.969,-3.35,-9.574,-0.543,-3.963,-23.03,14.84,-2.8
18323.0,-9.117,-0.83,-3.431,-9.021,0.388,-2.864,-7.56,11.13,0.42
,-8.976,-0.962,-3.015,-8.976,0.045,-3.003,-3.43,13.3,2.17
,-9.031,-0.663,-2.874,-9.088,-0.543,-2.907,3.08,13.79,2.03
,-8.969,-0.026,-2.776,-9.072,-0.809,-2.84,8.12,13.58,1.47
18398.0,-9.27,-0.625,-2.572,-9.198,0.78,-3.699,16.8,19.95,6.23
,-9.33,-0.16,-2.948,-8.995,0.584,-3.743,20.86,19.53,4.55
,-9.335,0.342,-3.271,-9.076,0.208,-4.123,21.28,19.39,2.8
,-9.395,0.627,-3.525,-9.301,0.055,-4.329,17.71,19.18,2.24
18474.0,-9.129,0.345,-4.58,-9.32,-0.474,-3.623,-1.26,15.54,0.56
,-8.519,0.395,-4.709,-9.474,-0.34,-3.64,-0.84,15.89,0.49
,-8.382,0.184,-4.491,-9.146,0.036,-4.054,-0.84,17.57,1.05
,-8.851,-0.349,-3.786,-8.873,0.447,-4.413,-0.98,18.2,1.33
18550.0,-8.777,0.723,-4.47,-9.222,-0.589,-3.534,1.26,16.8,2.1
,-8.705,0.574,-4.439,-9.021,-0.782,-3.625,-1.05,18.27,1.47
,-8.827,0.22,-4.121,-8.686,-0.723,-3.821,-3.15,19.67,0.7
,-9.148,-0.256,-3.814,-8.949,-0.232,-4.133,-5.11,20.09,0.77
18626.0,-9.024,0.512,-4.896,-8.681,1.271,-5.262,7.84,18.13,3.92
,-9.033,1.089,-5.197,-8.579,1.141,-5.121,8.05,16.59,2.59
,-9.052,1.376,-5.221,-8.66,1.01,-5.133,4.76,16.59,1.19
,-9.122,1.462,-5.066,-8.756,0.584,-4.769,0.0,15.33,-0.21
18702.0,-9.311,0.12,-4.575,-8.536,-0.849,-5.274,-3.29,11.83,-6.37
,-9.316,-0.23,-4.867,-8.509,-0.651,-5.329,-1.61,10.08,-6.16
,-9.064,-0.687,-5.078,-8.533,-0.124,-5.348,0.07,8.82,-4.97
,-8.653,-0.797,-5.451,-8.636,0.471,-5.37,2.94,8.82,-3.71
18777.0,-8.768,0.474,-5.355,-9.036,-1.682,-4.453,3.85,6.51,-3.78
,-8.942,-0.376,-4.728,-8.847,-1.481,-4.563,-2.87,6.58,-1.61
,-9.064,-1.003,-4.446,-8.804,-1.194,-5.051,-5.11,6.51,0.49
,-9.064,-1.469,-4.463,-8.665,-0.794,-5.355,-4.83,6.37,1.89
18853.0,-8.741,-0.299,-5.394,-9.21,0.522,-4.53,14.35,2.1,5.53
,-8.696,0.237,-5.3,-9.052,0.345,-4.453,15.68,2.03,4.9
,-8.784,0.282,-4.932,-8.514,-0.194,-4.671,15.54,2.17,2.66
,-9.131,0.558,-4.891,-8.445,-0.574,-4.81,14.0,1.26,0.28
18929.0,-8.806,-0.972,-4.86,-8.756,-0.469,-4.807,2.87,0.21,2.03
,-8.739,-0.895,-4.855,-9.009,-0.409,-4.81,6.37,-0.35,2.94
,-8.488,-0.694,-4.994,-9.215,-0.775,-4.736,9.45,-0.84,4.48
,-8.715,-0.469,-5.011,-9.141,-1.077,-4.472,9.66,-0.91,5.81
19005.0,-8.823,-1.137,-4.41,-8.409,0.826,-4.999,9.94,-2.94,9.52
,-8.662,-0.701,-4.511,-9.036,1.161,-5.106,12.81,-3.22,10.78
,-8.502,-0.002,-4.496,-9.34,0.979,-4.884,13.02,-4.34,11.27
,-8.337,0.424,-4.707,-9.112,0.567,-4.726,10.92,-4.48,11.13
19080.0,-8.753,0.433,-4.798,-9.308,-0.644,-4.635,2.38,-3.57,7.21
,-8.43,-0.316,-4.678,-8.849,-0.486,-4.468,0.14,-2.66,7.98
,-8.631,-0.586,-4.645,-8.598,-0.455,-4.307,0.63,-1.89,8.4
,-9.064,-0.613,-4.838,-8.701,0.172,-4.582,1.75,-1.33,8.33
19156.0,-8.71,0.713,-4.685,-8.832,0.943,-4.377,5.04,-0.21,6.72
,-8.746,0.914,-4.578,-8.827,0.799,-4.408,3.22,0.91,5.95
,-8.961,0.986,-4.671,-8.933,0.581,-4.432,1.26,1.68,5.32
,-9.045,1.086,-4.642,-8.878,0.51,-4.295,-0.28,2.31,4.97
19231.0,-8.6,0.871,-4.554,-9.007,-0.376,-4.563,-3.43,3.43,4.13
,-8.646,0.818,-4.704,-8.978,-0.11,-4.767,-5.67,3.85,3.36
,-8.916,0.541,-4.465,-9.033,0.244,-4.867,-9.24,4.41,2.73
,-9.021,-0.093,-4.413,-8.957,0.593,-4.96,-12.11,5.18,2.73
19307.0,-8.875,0.637,-4.757,-9.203,0.297,-4.508,-4.34,3.01,1.4
,-8.725,0.498,-4.544,-9.076,0.486,-4.401,-6.72,2.87,1.12
,-8.83,0.558,-4.838,-8.827,0.617,-4.511,-7.56,2.45,1.05
,-9.081,0.263,-4.661,-8.6,0.639,-4.451,-7.84,2.59,0.84
19383.0,-8.863,0.816,-4.637,-8.916,-0.282,-4.434,-5.74,0.7,-2.1
,-9.189,0.689,-4.578,-8.765,-0.254,-4.779,-6.16,0.28,-3.36
,-9.249,0.455,-4.355,-8.758,-0.168,-4.975,-6.58,0.28,-3.92
,-9.012,0.132,-4.386,-8.83,-0.175,-5.13,-6.02,0.35,-3.57
19459.0,-8.765,-0.232,-5.13,-8.813,-0.364,-4.886,-0.77,-2.8,-0.35
,-8.811,-0.246,-5.016,-8.794,-0.378,-4.846,-0.56,-3.08,-0.28
,-8.947,-0.242,-4.982,-8.861,-0.577,-4.908,-0.14,-3.71,-0.42
,-9.024,-0.471,-4.697,-8.935,-0.61,-4.932,-0.7,-4.55,-0.07
19534.0,-8.966,-0.519,-4.927,-9.026,0.615,-5.018,6.44,-7.14,4.06
,-9.024,-0.39,-4.908,-8.777,0.895,-5.102,8.96,-7.56,3.99
,-9.086,-0.309,-4.771,-8.686,0.931,-4.963,10.5,-7.7,3.99
,-9.062,0.115,-4.858,-8.806,0.768,-4.848,12.39,-8.4,4.34
19610.0,-8.938,0.694,-4.582,-8.823,1.048,-4.453,11.06,-10.92,1.89
,-9.014,0.852,-4.377,-9.107,0.682,-4.18,11.76,-11.76,1.12
,-8.892,1.268,-4.618,-9.476,0.476,-4.099,12.6,-13.3,-0.28
,-8.823,1.244,-4.582,-9.184,0.325,-4.262,10.57,-13.79,-1.54
19686.0,-9.083,0.392,-4.561,-8.66,-0.077,-4.183,3.78,-15.61,-2.03
,-8.772,0.074,-4.403,-8.863,0.034,-3.955,3.36,-16.24,-3.29
,-8.818,-0.081,-4.367,-9.062,0.177,-3.946,2.31,-16.87,-3.36
,-8.811,-0.168,-4.233,-9.225,0.112,-3.592,3.15,-16.87,-2.87
19762.0,-9.351,-0.048,-3.429,-9.189,0.529,-3.632,4.69,-15.12,-1.96
,-9.249,0.081,-3.601,-8.885,0.704,-3.778,5.67,-15.19,-1.19
,-9.215,0.239,-3.676,-8.495,0.371,-3.508,7.49,-14.42,-0.49
,-9.471,0.376,-3.549,-8.918,0.091,-3.331,8.96,-15.05,-0.14
19838.0,-9.373,-0.093,-3.266,-9.344,0.311,-3.34,6.16,-10.71,-1.75
,-9.584,0.074,-3.362,-9.789,0.598,-3.553,8.26,-11.76,-1.47
,-9.237,0.074,-3.788,-9.222,0.881,-3.898,8.26,-12.11,-0.42
,-9.129,0.476,-4.355,-8.784,0.766,-3.967,9.59,-13.09,0.14
19913.0,-8.77,0.103,-3.654,-9.359,0.227,-3.041,0.14,-14.28,-0.98
,-9.086,-0.433,-3.575,-9.27,0.416,-3.285,-0.49,-15.05,-2.31
,-9.423,-0.29,-3.285,-9.088,0.507,-3.276,1.4,-15.33,-3.43
,-9.371,0.05,-2.998,-9.182,0.352,-3.01,4.13,-14.49,-3.71
19989.0,-9.495,0.347,-3.032,-9.375,-0.041,-2.572,4.41,-12.46,-3.85
,-9.057,0.246,-3.01,-9.32,0.179,-2.594,3.22,-14.14,-4.55
,-9.021,0.335,-2.95,-9.318,0.445,-2.556,3.36,-13.72,-5.53
,-9.284,0.347,-3.118,-9.552,0.323,-2.711,4.48,-12.81,-5.95
20065.0,-9.263,0.414,-2.754,-9.251,-0.232,-2.331,0.63,-10.99,-6.65
,-9.292,0.383,-2.699,-9.557,-0.026,-2.209,0.21,-9.59,-7.07
,-9.28,0.175,-2.888,-9.538,0.096,-2.326,-1.12,-8.33,-7.42
,-9.275,-0.139,-2.453,-9.536,-0.048,-2.891,-0.7,-6.51,-7.49
20141.0,-9.225,-0.488,-2.905,-9.653,0.459,-3.187,-1.12,-3.36,-5.74
,-9.17,-0.878,-3.037,-9.402,0.517,-3.192,2.31,-1.75,-4.62
,-9.44,-0.885,-3.013,-9.538,0.134,-2.819,8.4,-1.96,-4.06
,-9.306,-0.313,-2.886,-9.43,-0.213,-2.893,13.37,-3.08,-3.92
20216.0,-9.356,-0.538,-2.548,-9.407,-0.28,-2.139,0.28,-3.85,-6.02
,-9.428,-0.574,-2.52,-9.464,-0.258,-2.216,3.22,-3.78,-5.6
,-9.404,-0.376,-2.56,-9.39,-0.144,-2.347,4.9,-4.06,-5.67
,-9.282,-0.223,-2.41,-9.442,-0.036,-2.242,6.09,-3.29,-4.97
20292.0,-9.648,0.045,-2.58,-9.34,-0.613,-3.427,5.53,1.89,-4.06
,-9.505,-0.218,-2.833,-9.409,-0.893,-3.329,3.15,2.17,-4.06
,-9.552,-0.218,-3.058,-9.507,-0.55,-3.364,2.8,2.24,-3.78
,-9.385,-0.266,-3.47,-9.244,-0.438,-3.273,2.45,1.89,-3.85
20367.0,-9.564,-0.263,-3.348,-9.505,-0.684,-2.84,10.22,-1.75,-2.1
,-9.543,-0.354,-3.355,-9.564,-0.577,-2.922,8.33,-2.87,-2.52
,-9.414,-0.581,-2.958,-9.373,-0.385,-2.685,7.28,-2.94,-2.1
,-9.375,-0.742,-2.735,-9.304,-0.383,-2.446,7.63,-2.24,-1.54
20443.0,-9.342,-0.445,-2.3,-9.703,-0.299,-2.204,12.04,0.63,0.21
,-9.44,-0.491,-2.223,-9.541,-0.347,-2.146,13.44,1.89,0.56
,-9.555,-0.464,-2.166,-9.505,-0.306,-2.369,14.07,2.52,0.77
,-9.598,-0.369,-1.938,-9.447,-0.447,-2.316,14.42,3.29,1.19
20519.0,-9.447,-0.558,-2.438,-9.485,-0.574,-2.498,9.38,5.32,1.47
,-9.488,-0.421,-2.467,-9.627,-0.68,-2.702,9.45,5.74,1.47
,-9.476,-0.347,-2.637,-9.552,-0.692,-2.814,9.24,5.95,1.26
,-9.469,-0.452,-2.534,-9.409,-0.565,-2.802,7.91,6.23,1.05
20595.0,-9.325,-0.447,-2.881,-9.497,-0.218,-3.391,11.34,6.79,1.82
,-9.397,-0.445,-2.927,-9.392,-0.33,-3.58,11.48,6.86,2.03
,-9.505,-0.347,-2.994,-9.172,-0.361,-3.458,10.99,6.72,1.89
,-9.584,-0.263,-3.3,-9.208,-0.438,-3.29,9.38,6.37,1.61
20670.0,-9.368,-0.325,-3.142,-9.445,-0.553,-3.271,4.62,4.9,1.47
,-9.55,-0.182,-3.101,-9.28,-0.675,-3.357,4.06,4.62,1.54
,-9.639,-0.278,-3.046,-9.246,-0.651,-3.297,2.8,4.06,1.4
,-9.581,-0.419,-3.084,-9.301,-0.512,-3.216,1.75,3.43,1.19
20746.0,-9.454,-0.529,-3.005,-9.45,-0.359,-3.216,4.41,2.8,1.47
,-9.555,-0.337,-3.037,-9.409,-0.416,-3.214,3.92,2.45,1.47
,-9.43,-0.335,-3.039,-9.383,-0.38,-3.276,3.43,2.03,1.47
,-9.397,-0.361,-3.01,-9.414,-0.407,-3.197,2.94,1.96,1.47
20822.0,-9.351,-0.424,-3.099,-9.481,-0.316,-2.819,3.5,1.4,1.47
,-9.356,-0.467,-2.934,-9.395,-0.261,-2.857,3.43,1.61,1.61
,-9.433,-0.431,-2.869,-9.43,-0.383,-2.874,3.43,1.75,1.68
,-9.483,-0.342,-2.84,-9.464,-0.419,-3.037,3.15,1.61,1.61
20898.0,-9.39,-0.39,-3.061,-9.402,-0.33,-2.922,1.82,2.38,1.68
,-9.395,-0.323,-3.056,-9.454,-0.416,-2.991,2.52,2.31,1.68
,-9.5,-0.304,-3.01,-9.497,-0.421,-3.149,2.73,2.38,1.68
,-9.45,-0.306,-2.984,-9.426,-0.476,-3.139,2.03,2.52,1.47
20974.0,-9.34,-0.495,-3.061,-9.493,-0.17,-2.965,2.38,2.8,1.75
,-9.373,-0.498,-3.125,-9.466,-0.246,-3.101,3.36,2.66,1.68
,-9.462,-0.33,-3.063,-9.306,-0.397,-3.149,3.99,2.73,1.75
,-9.466,-0.203,-3.039,-9.373,-0.471,-3.137,3.78,2.8,1.54
21049.0,-9.407,-0.493,-3.19,-9.399,-0.187,-3.082,1.61,2.52,1.12
,-9.378,-0.471,-3.144,-9.452,-0.254,-2.977,2.73,2.66,1.26
,-9.438,-0.359,-3.185,-9.457,-0.275,-2.883,3.57,2.66,1.4
,-9.421,-0.232,-3.13,-9.416,-0.297,-2.843,3.85,2.66,1.4
21125.0,-9.435,-0.311,-2.706,-9.407,-0.304,-3.099,3.15,3.64,1.26
,-9.541,-0.263,-2.886,-9.39,-0.385,-3.12,3.01,3.71,1.05
,-9.445,-0.256,-2.852,-9.421,-0.354,-3.204,3.08,3.99,1.05
,-9.39,-0.244,-2.938,-9.44,-0.409,-3.247,1.82,4.13,0.7
21200.0,-9.313,-0.371,-3.269,-9.385,-0.345,-3.278,0.49,3.92,0.14
,-9.359,-0.388,-3.238,-9.332,-0.347,-3.312,0.98,4.06,0.28
,-9.375,-0.385,-3.271,-9.344,-0.455,-3.233,1.47,3.99,0.28
,-9.426,-0.34,-3.202,-9.409,-0.419,-3.355,2.03,3.71,0.35
21276.0,-9.385,-0.44,-3.355,-9.383,-0.34,-3.094,1.26,2.66,0.21
,-9.39,-0.419,-3.161,-9.373,-0.311,-3.041,1.47,2.87,0.56
,-9.407,-0.392,-3.159,-9.426,-0.325,-3.216,1.89,2.66,0.63
,-9.445,-0.33,-3.154,-9.371,-0.371,-3.242,2.52,2.59,0.7
21352.0,-9.371,-0.366,-3.264,-9.344,-0.445,-3.293,1.33,2.24,0.49
,-9.409,-0.436,-3.405,-9.351,-0.428,-3.245,1.33,1.82,0.28
,-9.349,-0.431,-3.376,-9.435,-0.357,-3.18,1.75,1.75,0.42
,-9.311,-0.457,-3.362,-9.426,-0.294,-3.233,2.17,1.75,0.63
21428.0,-9.392,-0.361,-3.19,-9.371,-0.302,-3.206,2.73,1.19,0.7
,-9.335,-0.44,-3.242,-9.373,-0.299,-3.178,2.24,1.05,0.84
,-9.337,-0.464,-3.099,-9.337,-0.428,-3.099,2.38,1.19,0.7
,-9.43,-0.443,-3.238,-9.363,-0.421,-3.099,2.52,1.05,0.77
21503.0,-9.402,-0.395,-3.053,-9.354,-0.433,-2.948,1.05,0.84,1.33
,-9.375,-0.342,-3.168,-9.452,-0.299,-2.924,0.21,0.84,1.19
,-9.416,-0.371,-3.276,-9.481,-0.211,-2.891,-1.12,0.91,1.19
,-9.311,-0.402,-3.058,-9.454,-0.261,-2.953,-1.82,0.98,1.4
21579.0,-9.402,-0.469,-2.996,-9.49,-0.237,-2.96,-5.46,1.82,1.82
,-9.296,-0.584,-2.967,-9.641,0.191,-3.238,-5.04,2.24,2.31
,-9.328,-0.644,-3.032,-9.344,0.273,-3.24,-3.64,2.66,2.8
,-9.378,-0.522,-2.998,-9.196,0.024,-3.108,-2.24,2.66,2.73
21654.0,-9.363,-0.282,-3.135,-9.395,-0.225,-3.104,-14.91,0.42,1.05
,-9.368,-0.632,-3.096,-9.246,-0.4,-2.833,-14.28,0.21,1.19
,-9.347,-0.548,-2.74,-9.246,-0.438,-2.702,-11.41,0.0,2.03
,-9.471,-0.256,-3.02,-9.313,-0.5,-2.666,-10.29,-0.77,1.96
21730.0,-9.466,-0.696,-2.218,-9.206,0.072,-3.001,-9.03,4.69,4.2
,-9.624,-0.531,-2.448,-9.062,0.158,-2.965,-7.7,4.2,4.69
,-9.335,-0.376,-2.228,-9.189,-0.012,-3.046,-6.93,4.27,5.6
,-9.342,-0.158,-2.508,-9.103,-0.366,-2.58,-5.95,4.2,5.95
21806.0,-9.392,-0.421,-2.496,-9.268,0.359,-2.86,-5.67,10.15,6.65
,-9.143,-0.187,-2.661,-9.201,0.012,-2.199,-2.87,10.78,5.81
,-9.04,0.27,-2.297,-9.495,-0.177,-2.627,0.0,12.39,5.46
,-9.294,0.457,-2.924,-9.263,-0.065,-2.623,-1.26,12.18,4.83
21882.0,-9.368,0.11,-3.113,-9.162,-0.38,-3.475,2.17,16.8,4.13
,-9.292,0.022,-3.297,-9.019,0.101,-3.065,0.7,16.45,3.64
,-9.459,-0.208,-3.613,-8.914,0.763,-3.364,-0.28,15.89,3.92
,-9.402,-0.407,-3.905,-8.715,1.012,-2.785,0.56,15.82,4.69
21958.0,-9.146,0.931,-3.061,-9.421,-0.708,-4.003,4.76,17.78,-1.19
,-9.191,0.531,-3.18,-9.222,-0.503,-4.24,-3.64,17.92,-0.84
,-9.332,-0.215,-3.101,-9.012,-0.211,-3.869,-7.91,19.6,0.91
,-9.617,-0.696,-3.563,-8.945,0.306,-3.69,-7.91,18.48,2.24
22033.0,-9.005,0.706,-4.314,-8.899,-0.751,-4.121,8.96,16.03,0.21
,-9.033,0.692,-4.566,-8.945,-0.68,-3.967,5.81,13.86,-0.21
,-9.153,0.23,-4.508,-9.162,-0.081,-3.886,0.28,14.0,0.56
,-9.043,-0.39,-4.3,-9.442,0.558,-3.953,-3.01,15.54,1.26
22109.0,-9.323,0.826,-3.989,-9.124,-0.007,-3.721,10.78,14.84,-1.47
,-8.983,0.658,-3.999,-9.251,-0.029,-4.235,4.62,15.82,-1.12
,-8.818,0.144,-3.549,-9.17,-0.201,-4.396,-0.28,18.48,-0.21
,-8.818,0.026,-3.443,-8.938,-0.467,-4.302,-0.35,19.46,0.21
22185.0,-8.715,-0.586,-4.156,-8.775,0.309,-4.592,4.13,18.55,1.96
,-8.921,-0.148,-4.319,-8.906,-0.562,-4.209,8.68,17.85,1.96
,-8.959,0.292,-4.695,-9.136,-1.333,-4.085,10.78,15.61,1.05
,-8.928,0.584,-4.728,-9.098,-1.752,-4.279,8.61,14.28,0.35
22261.0,-8.878,-1.622,-4.683,-8.897,-0.254,-4.697,2.94,15.75,5.6
,-8.875,-1.216,-4.695,-8.794,0.055,-4.819,7.49,14.56,6.65
,-8.787,-0.816,-4.843,-8.65,0.302,-4.781,8.47,13.37,7.49
,-8.725,-0.632,-4.764,-8.698,0.261,-4.628,7.56,14.0,8.33
22336.0,-8.966,0.175,-4.436,-8.854,1.072,-4.57,0.84,11.69,11.27
,-9.052,0.163,-4.317,-8.904,1.362,-4.661,0.7,12.32,11.2
,-8.873,0.316,-4.336,-8.885,1.297,-4.793,2.94,12.53,10.5
,-8.729,0.782,-4.417,-8.976,1.268,-5.047,5.81,12.67,9.52
22412.0,-8.811,1.309,-5.135,-8.768,0.888,-4.889,2.73,7.98,2.38
,-8.813,1.397,-5.123,-8.641,0.436,-4.965,3.22,7.63,0.42
,-8.94,1.271,-4.949,-8.638,-0.122,-4.862,2.87,7.35,-2.24
,-8.983,1.115,-4.74,-8.794,-0.426,-4.676,1.75,6.72,-4.13
22487.0,-8.923,-0.754,-4.64,-8.583,-0.445,-4.913,6.86,6.37,-5.25
,-8.66,-0.708,-4.841,-8.66,-0.345,-5.087,10.64,6.09,-4.48
,-8.818,-0.589,-4.759,-8.746,-0.244,-5.377,12.25,5.32,-3.57
,-8.646,-0.558,-4.783,-8.83,-0.572,-5.032,11.62,4.97,-2.45
22563.0,-8.758,-0.613,-5.051,-8.689,-0.098,-5.025,4.62,3.78,1.61
,-8.65,-0.653,-4.98,-8.796,-0.246,-4.934,4.83,3.71,2.38
,-8.516,-0.392,-5.147,-9.076,-0.101,-4.807,4.2,2.94,3.36
,-8.593,-0.354,-4.877,-8.99,-0.151,-4.771,4.76,2.24,3.57
22639.0,-8.827,-0.019,-4.685,-8.425,0.225,-5.106,7.7,1.05,2.66
,-8.693,0.337,-5.08,-8.737,0.062,-5.138,8.82,0.7,1.75
,-8.423,0.256,-5.02,-8.942,-0.333,-4.958,7.84,0.56,1.61
,-8.469,0.304,-4.989,-8.842,-0.476,-4.671,8.05,0.0,2.1
22715.0,-8.679,-0.373,-4.649,-8.684,-0.268,-4.805,8.4,0.21,3.29
,-8.701,-0.455,-4.786,-8.524,-0.002,-4.774,8.26,0.7,3.78
,-8.897,-0.67,-4.547,-8.562,0.203,-4.582,7.63,1.26,4.55
,-8.971,-0.498,-4.669,-8.772,0.517,-4.843,8.75,1.19,5.25
22790.0,-8.966,0.5,-4.614,-8.686,-0.017,-4.803,2.17,1.75,5.6
,-8.873,0.424,-4.666,-8.71,0.261,-4.941,-0.14,1.4,5.04
,-8.76,0.146,-4.621,-8.636,0.581,-4.989,-1.33,1.33,4.76
,-8.729,-0.086,-4.575,-8.536,0.55,-5.004,-1.05,1.26,4.76
22866.0,-8.698,0.407,-4.829,-8.758,-0.045,-4.767,-0.28,2.45,2.03
,-8.765,0.213,-4.664,-9.038,0.086,-4.819,-1.54,2.31,2.1
,-8.495,0.069,-4.776,-8.856,-0.141,-4.604,-2.17,2.52,2.31
,-8.39,0.005,-4.85,-8.794,0.002,-4.884,-2.45,3.43,2.59
22942.0,-8.971,0.218,-4.755,-8.789,0.397,-4.898,-2.94,4.76,3.01
,-8.825,0.28,-4.862,-8.574,0.359,-4.968,-3.85,4.06,2.8
,-8.772,0.227,-4.764,-8.717,0.474,-4.841,-4.34,3.85,2.94
,-8.923,0.364,-4.941,-8.949,0.842,-4.853,-4.9,3.5,3.22
23018.0,-8.914,0.823,-4.98,-8.641,-0.608,-4.714,-2.59,3.01,-0.28
,-8.969,0.605,-4.85,-8.696,-0.581,-4.733,-4.06,2.45,-0.63
,-8.787,0.041,-4.898,-8.772,-0.163,-4.836,-6.37,2.1,-0.56
,-8.72,-0.39,-4.812,-8.868,0.306,-5.202,-6.51,2.59,-0.21
23094.0,-8.871,0.378,-5.307,-8.531,-0.055,-5.329,0.56,0.35,0.7
,-8.952,0.23,-5.193,-8.748,0.285,-5.106,-3.64,-0.07,1.19
,-8.844,-0.053,-5.085,-8.734,0.361,-5.087,-6.65,-0.56,1.75
,-8.586,-0.065,-5.413,-8.768,0.409,-5.214,-6.72,-1.33,1.96
23169.0,-8.885,0.139,-5.185,-8.679,0.206,-5.245,-2.66,-2.73,-0.56
,-9.048,-0.024,-5.114,-8.421,0.491,-5.458,-1.26,-3.29,-0.49
,-9.083,-0.053,-5.004,-8.476,0.687,-5.408,1.61,-4.27,-0.63
,-9.019,0.01,-4.941,-8.737,0.766,-5.363,5.04,-5.39,-0.98
23245.0,-8.99,0.682,-5.317,-8.571,0.586,-5.324,5.74,-9.17,-3.36
,-8.973,0.708,-5.274,-8.473,0.333,-5.255,5.25,-9.24,-4.34
,-9.062,0.625,-5.056,-8.686,-0.117,-5.145,3.99,-9.87,-4.76
,-8.947,0.73,-5.307,-8.935,-0.471,-4.937,2.31,-11.83,-5.39
23320.0,-8.959,-0.565,-4.771,-8.378,-0.732,-4.238,4.9,-11.76,-5.81
,-8.952,-0.558,-4.611,-8.88,-0.524,-4.326,6.3,-12.81,-4.34
,-8.569,-0.51,-4.681,-9.098,-0.713,-4.25,7.28,-14.14,-2.87
,-8.38,-0.407,-4.625,-8.753,-0.39,-4.329,8.54,-14.14,-1.75
23396.0,-8.847,-0.577,-4.336,-8.873,0.101,-4.453,9.17,-16.87,3.92
,-8.99,-0.632,-4.168,-8.739,-0.024,-4.312,8.82,-17.15,4.9
,-9.131,-0.45,-4.207,-8.985,-0.223,-4.219,10.15,-17.64,5.04
,-9.088,0.019,-4.386,-9.251,-0.184,-4.097,11.69,-17.85,4.97
23472.0,-9.567,-0.098,-3.939,-8.662,0.617,-3.738,12.88,-16.59,6.51
,-9.186,0.459,-4.25,-9.1,0.553,-3.159,12.67,-21.07,6.02
,-8.509,0.782,-4.396,-9.306,0.464,-3.075,10.01,-22.33,5.88
,-8.277,0.845,-4.259,-9.617,0.983,-3.252,8.05,-21.42,5.46
23548.0,-9.251,1.017,-3.405,-8.981,0.4,-3.604,7.07,-16.73,0.91
,-9.055,0.895,-3.206,-8.906,0.627,-3.731,4.9,-13.86,0.63
,-8.969,0.699,-3.575,-8.949,0.684,-3.539,5.11,-12.39,0.42
,-8.832,0.376,-3.597,-9.038,0.78,-3.451,7.07,-11.2,0.14
23623.0,-9.107,0.945,-3.408,-9.241,-0.148,-3.872,7.42,-11.62,-4.9
,-9.146,0.895,-3.338,-9.119,-0.359,-3.838,2.59,-12.32,-6.02
,-9.141,0.469,-3.032,-9.239,-0.648,-3.659,-2.03,-12.04,-6.79
,-9.198,0.146,-3.159,-9.232,-0.742,-3.544,-4.41,-12.67,-7.21
23699.0,-9.361,-0.931,-3.051,-9.16,-0.117,-3.697,2.31,-12.53,-4.41
,-9.375,-0.66,-2.96,-9.258,-0.455,-3.36,5.95,-13.09,-4.69
,-9.294,-0.237,-3.19,-9.222,-0.723,-3.08,5.81,-14.63,-4.62
,-9.304,-0.041,-3.561,-9.162,-0.639,-2.592,3.01,-16.17,-4.06
23774.0,-9.38,-0.132,-2.785,-9.38,0.108,-2.804,15.19,-13.09,-2.1
,-9.495,0.371,-2.67,-9.318,0.29,-2.879,14.84,-13.51,-2.38
,-9.497,0.39,-2.436,-9.21,0.409,-2.759,11.06,-13.02,-1.61
,-9.469,0.211,-2.491,-9.246,0.27,-2.807,9.38,-12.18,-1.05
23850.0,-9.16,0.002,-2.096,-9.454,0.079,-1.967,4.34,-9.59,-4.27
,-9.392,-0.112,-1.89,-9.38,-0.191,-2.118,6.65,-8.61,-4.27
,-9.631,0.0,-2.137,-9.306,-0.093,-2.46,6.58,-8.47,-5.04
,-9.552,0.002,-1.993,-9.351,-0.201,-2.527,4.34,-7.91,-5.32
23926.0,-9.375,-0.168,-2.539,-9.418,-0.134,-2.771,0.14,-2.8,-4.62
,-9.598,-0.309,-2.905,-9.476,-0.148,-2.845,-0.07,-2.73,-4.55
,-9.466,-0.266,-2.69,-9.447,-0.144,-2.812,1.05,-2.03,-4.06
,-9.471,-0.196,-2.788,-9.474,-0.237,-2.831,2.38,-1.89,-3.92
24002.0,-9.452,-0.311,-2.79,-9.459,-0.208,-3.068,5.25,-0.56,-3.29
,-9.485,-0.251,-2.687,-9.253,-0.38,-3.001,5.88,-0.42,-2.94
,-9.552,-0.246,-2.881,-9.201,-0.629,-2.766,5.39,-0.7,-3.22
,-9.485,-0.278,-2.843,-9.383,-0.771,-2.627,4.48,-0.63,-3.36
24078.0,-9.478,-0.684,-2.345,-9.38,-0.335,-2.496,7.91,1.05,-1.26
,-9.586,-0.438,-2.309,-9.359,-0.495,-2.357,9.8,1.33,-0.84
,-9.706,-0.165,-2.4,-9.356,-0.684,-2.223,8.89,1.4,-1.05
,-9.529,-0.201,-2.534,-9.481,-0.627,-2.319,5.81,1.89,-0.98
24153.0,-9.497,-0.572,-2.352,-9.33,-0.505,-2.611,5.18,5.6,-0.07
,-9.505,-0.491,-2.469,-9.299,-0.428,-2.568,4.9,5.88,0.14
,-9.512,-0.488,-2.659,-9.438,-0.349,-2.603,3.85,6.02,0.21
,-9.457,-0.51,-2.666,-9.588,-0.182,-2.895,3.78,6.72,0.77
24229.0,-9.596,-0.132,-3.029,-9.452,-0.337,-3.403,5.74,8.26,1.89
,-9.488,-0.302,-3.106,-9.502,-0.148,-3.609,4.41,8.47,1.89
,-9.363,-0.421,-3.144,-9.45,-0.112,-3.69,3.85,8.61,1.75
,-9.368,-0.51,-3.151,-9.306,-0.294,-3.759,4.62,8.75,1.75
24305.0,-9.275,-0.421,-3.692,-9.402,-0.258,-3.412,1.33,5.67,0.49
,-9.244,-0.352,-3.644,-9.349,-0.459,-3.262,2.8,5.04,0.63
,-9.368,-0.187,-3.618,-9.337,-0.57,-3.003,3.92,4.27,0.49
,-9.466,-0.089,-3.589,-9.402,-0.536,-2.907,3.22,3.57,0.35
24381.0,-9.488,-0.292,-2.874,-9.294,-0.455,-3.329,5.04,3.08,1.4
,-9.612,-0.096,-3.166,-9.251,-0.479,-3.259,3.43,2.59,1.05
,-9.517,-0.182,-3.151,-9.39,-0.445,-3.25,0.35,2.45,0.56
,-9.311,-0.34,-3.233,-9.495,-0.419,-3.238,-1.54,2.45,0.28
24456.0,-9.356,-0.369,-3.185,-9.452,-0.433,-2.754,3.5,2.03,1.05
,-9.313,-0.361,-3.116,-9.514,-0.342,-2.754,3.85,1.96,1.26
,-9.275,-0.373,-3.003,-9.548,-0.237,-2.946,3.99,2.1,1.19
,-9.323,-0.39,-2.905,-9.454,-0.096,-2.994,4.55,2.52,1.26
24532.0,-9.342,-0.134,-3.084,-9.471,-0.311,-3.139,1.12,3.22,0.84
,-9.28,-0.311,-3.142,-9.507,-0.175,-3.3,-0.07,3.5,0.84
,-9.263,-0.491,-3.07,-9.435,-0.12,-3.307,0.49,3.78,1.05
,-9.337,-0.426,-3.161,-9.335,-0.172,-3.376,1.75,3.85,1.12
24607.0,-9.308,-0.366,-3.364,-9.409,-0.242,-3.178,-0.63,3.29,0.7
,-9.351,-0.51,-3.305,-9.409,-0.218,-3.175,0.35,3.15,0.84
,-9.39,-0.538,-3.137,-9.387,-0.302,-3.111,2.1,3.29,0.98
,-9.404,-0.246,-3.238,-9.44,-0.287,-3.216,3.08,3.01,0.91
24683.0,-9.43,-0.297,-3.202,-9.292,-0.23,-3.317,-0.7,2.66,0.42
,-9.378,-0.438,-3.206,-9.249,-0.282,-3.317,-0.77,2.8,0.63
,-9.409,-0.404,-3.281,-9.325,-0.44,-3.195,-0.07,2.52,0.7
,-9.359,-0.323,-3.317,-9.399,-0.407,-3.178,0.42,2.31,0.49
24759.0,-9.495,-0.376,-3.216,-9.246,-0.436,-3.47,1.54,1.89,0.91
,-9.442,-0.263,-3.331,-9.277,-0.443,-3.379,1.89,1.61,1.12
,-9.33,-0.235,-3.393,-9.347,-0.426,-3.326,1.54,1.47,1.05
,-9.263,-0.285,-3.501,-9.395,-0.297,-3.257,0.77,1.26,0.91
24835.0,-9.421,-0.132,-3.214,-9.38,-0.577,-3.082,4.06,0.63,1.12
,-9.337,-0.132,-3.106,-9.447,-0.498,-3.049,3.29,0.63,1.19
,-9.296,-0.23,-3.029,-9.452,-0.373,-3.226,2.24,0.7,1.26
,-9.363,-0.383,-3.056,-9.383,-0.251,-3.137,1.68,0.91,1.47
24910.0,-9.289,-0.16,-3.221,-9.411,-0.11,-3.218,4.2,1.19,2.24
,-9.263,-0.263,-3.367,-9.409,-0.12,-3.374,2.94,0.98,1.82
,-9.342,-0.141,-3.388,-9.423,-0.132,-3.273,2.8,0.91,1.68
,-9.395,-0.182,-3.352,-9.383,-0.203,-3.293,2.52,0.63,1.47
24986.0,-9.347,-0.268,-3.271,-9.43,-0.287,-2.97,1.75,0.07,0.98
,-9.318,-0.246,-3.238,-9.457,-0.258,-3.123,2.52,0.14,1.19
,-9.316,-0.311,-3.008,-9.332,-0.323,-3.075,2.94,0.28,1.33
,-9.433,-0.302,-2.905,-9.301,-0.304,-3.065,3.29,0.42,1.26
25062.0,-9.354,-0.273,-2.934,-9.371,-0.227,-3.271,0.42,1.19,1.82
,-9.45,-0.242,-3.005,-9.349,-0.275,-3.307,0.63,1.4,1.82
,-9.49,-0.266,-3.044,-9.478,-0.38,-3.465,0.0,1.4,1.82
,-9.392,-0.225,-3.166,-9.519,-0.294,-3.455,-0.91,1.05,1.61
25138.0,-9.421,-0.026,-3.283,-9.447,-0.359,-2.596,-3.5,-2.31,0.42
,-9.351,0.184,-3.19,-9.497,-0.191,-2.563,-5.74,-3.08,0.28
,-9.287,0.019,-3.072,-9.619,-0.144,-2.402,-8.47,-3.29,0.0
,-9.263,-0.309,-2.871,-9.773,-0.163,-2.527,-9.94,-2.24,0.21
25214.0,-9.663,-0.098,-2.888,-9.265,-0.546,-3.436,-10.78,-0.77,0.35
,-9.162,-0.086,-3.017,-9.083,-0.849,-3.199,-13.58,-1.4,0.14
,-9.232,-0.108,-3.111,-9.139,-0.981,-2.69,-14.28,-0.56,0.49
,-9.301,-0.452,-3.096,-9.548,-0.938,-2.178,-15.33,0.28,0.56
25289.0,-9.844,-0.223,-2.099,-9.198,0.117,-2.826,1.12,4.06,2.8
,-9.591,0.503,-2.0,-9.167,-0.62,-2.611,0.21,4.13,2.03
,-9.481,1.022,-2.103,-9.241,-0.976,-2.467,-4.83,4.62,1.26
,-9.342,0.897,-2.726,-9.311,-0.558,-2.426,-12.32,5.11,0.56
25365.0,-9.22,-0.136,-2.919,-9.136,-1.615,-2.271,-3.08,8.75,2.52
,-9.184,0.285,-2.814,-9.368,-1.431,-1.553,-2.73,8.68,2.66
,-9.249,0.031,-3.128,-9.806,-0.704,-1.981,-7.0,8.12,3.29
,-9.11,-0.902,-3.032,-9.526,0.431,-2.577,-9.59,9.94,4.9
25440.0,-9.311,1.094,-3.046,-8.983,1.417,-3.424,14.21,13.93,5.18
,-9.225,0.713,-3.326,-9.067,1.591,-4.051,6.37,16.66,6.44
,-9.265,0.45,-2.668,-8.971,0.983,-4.18,5.32,20.65,7.35
,-9.311,0.802,-2.97,-8.988,0.057,-3.728,10.01,21.28,6.09
25516.0,-9.313,-0.199,-3.104,-9.246,0.397,-4.176,-2.87,19.95,-1.4
,-9.591,0.486,-3.12,-8.863,-0.304,-3.886,3.71,18.55,-3.36
,-9.39,1.041,-3.762,-8.796,-0.9,-3.604,4.48,16.17,-5.6
,-9.411,1.01,-4.109,-8.684,-1.345,-3.783,-1.54,15.05,-6.65
25592.0,-8.823,-1.766,-3.738,-9.241,-0.486,-3.695,0.77,19.67,-1.96
,-9.194,-2.056,-3.754,-9.32,0.287,-3.967,4.62,18.27,0.42
,-9.194,-1.967,-3.618,-9.275,0.577,-4.369,9.1,18.2,2.45
,-9.191,-1.385,-3.592,-8.887,0.302,-4.544,15.4,19.25,3.71
25668.0,-8.727,0.151,-4.223,-9.275,-0.239,-4.111,1.05,16.94,4.83
,-8.512,-0.117,-4.025,-9.225,-0.644,-4.089,1.12,19.46,4.13
,-8.763,-0.034,-3.632,-8.947,-1.079,-3.905,5.04,21.21,3.57
,-9.15,-0.036,-4.003,-8.966,-1.132,-3.793,8.12,19.46,3.08
25743.0,-9.251,-0.802,-3.786,-8.674,0.668,-4.764,19.6,20.09,7.63
,-9.316,0.057,-4.192,-8.598,0.024,-4.786,21.98,17.43,7.28
,-9.067,0.79,-4.683,-8.744,-0.385,-4.578,18.97,15.47,6.72
,-8.804,0.976,-4.733,-8.976,-0.443,-4.575,10.57,15.19,6.44
25819.0,-9.127,-0.151,-4.499,-8.832,0.436,-4.614,0.91,15.26,5.18
,-9.028,0.22,-4.544,-8.751,0.529,-4.745,2.66,14.14,5.11
,-8.935,0.28,-4.46,-8.871,0.577,-4.824,2.17,14.07,5.53
,-8.935,0.412,-4.585,-8.89,0.488,-4.692,1.68,13.37,5.88
25895.0,-8.804,0.309,-4.681,-8.526,0.38,-4.841,-3.78,13.58,2.87
,-8.849,0.431,-4.654,-8.806,0.067,-4.494,-3.78,13.72,2.94
,-8.827,0.531,-4.877,-8.966,-0.002,-4.276,-3.71,12.25,2.87
,-8.617,0.548,-4.999,-8.985,0.225,-4.283,-4.13,10.85,2.66
25971.0,-8.844,0.371,-4.427,-8.971,-0.134,-5.068,-0.98,11.41,1.26
,-8.614,0.06,-4.755,-8.617,0.309,-5.095,-1.68,10.78,1.19
,-8.789,-0.168,-4.886,-8.421,0.55,-4.896,-1.89,10.15,1.61
,-8.897,-0.392,-5.063,-8.528,0.79,-4.817,-0.63,9.59,2.38
26046.0,-8.871,1.003,-4.846,-8.607,-0.175,-4.369,4.2,8.96,-3.22
,-9.036,0.739,-4.838,-8.435,0.323,-4.745,1.05,8.75,-3.43
,-8.947,0.304,-4.728,-8.473,0.464,-4.944,-1.75,8.68,-3.43
,-8.698,-0.002,-4.489,-8.732,0.4,-5.006,-1.26,8.96,-3.29
26122.0,-8.859,0.172,-4.937,-8.684,-0.744,-4.965,4.69,7.91,-3.36
,-8.751,-0.225,-5.047,-8.442,-0.802,-5.078,3.92,8.96,-3.08
,-8.868,-0.737,-4.884,-8.378,-1.041,-4.958,3.78,9.31,-3.57
,-8.775,-0.89,-4.838,-8.564,-0.696,-5.374,4.97,9.17,-3.64
26198.0,-8.811,-0.926,-5.15,-8.595,-0.464,-5.047,2.87,7.56,3.01
,-8.832,-1.182,-4.975,-8.545,-0.065,-4.999,4.06,7.28,4.06
,-8.684,-1.139,-5.047,-8.256,0.371,-5.296,5.32,7.21,5.39
,-8.658,-0.948,-5.066,-8.313,0.526,-5.453,7.07,7.49,6.3
26273.0,-8.406,0.132,-5.322,-8.574,0.45,-5.284,6.44,5.11,8.68
,-8.533,-0.034,-5.336,-8.763,0.369,-5.02,6.65,5.46,8.96
,-8.732,0.069,-5.173,-8.861,0.419,-4.872,7.14,5.74,8.26
,-8.624,0.29,-5.319,-9.129,0.586,-4.877,8.96,5.39,7.07
26349.0,-8.636,0.428,-5.02,-8.356,0.01,-5.166,3.43,2.94,2.52
,-8.363,0.041,-5.087,-8.483,0.263,-5.418,1.47,3.64,2.73
,-8.445,-0.333,-4.903,-8.607,0.581,-5.351,1.12,4.34,3.36
,-8.404,-0.347,-4.956,-8.622,0.699,-5.516,2.66,4.41,3.85
26425.0,-8.612,0.663,-5.587,-8.457,0.108,-5.224,1.33,3.36,3.08
,-8.653,0.431,-5.296,-8.421,0.074,-5.379,0.35,3.92,2.17
,-8.61,0.05,-5.245,-8.452,0.139,-5.571,-0.28,4.13,1.4
,-8.464,0.002,-5.329,-8.634,0.168,-5.528,1.19,4.2,1.05
26501.0,-8.619,0.275,-5.561,-8.638,-0.581,-5.3,1.05,4.34,1.12
,-8.538,0.232,-5.631,-8.739,-0.294,-5.473,-0.77,3.36,1.19
,-8.536,-0.067,-5.3,-8.744,0.266,-5.535,-3.43,2.87,1.4
,-8.516,-0.285,-5.463,-8.641,0.546,-5.542,-4.62,2.73,2.03
26576.0,-8.626,0.656,-5.575,-8.71,-0.012,-5.281,-3.15,-1.19,1.26
,-8.6,0.471,-5.592,-8.634,0.199,-5.425,-6.37,-1.75,1.47
,-8.605,0.034,-5.26,-8.469,0.258,-5.363,-7.84,-2.1,1.68
,-8.686,-0.079,-5.238,-8.492,0.081,-5.224,-6.72,-2.45,1.61
26652.0,-8.705,-0.196,-5.291,-8.433,0.213,-5.197,-1.19,-2.38,1.68
,-8.938,-0.505,-4.937,-8.528,0.27,-5.15,0.14,-1.89,1.68
,-8.784,-0.29,-4.877,-8.555,0.369,-5.255,2.8,-2.8,1.19
,-8.595,0.05,-5.071,-8.674,0.407,-5.245,4.13,-3.64,1.19
26728.0,-8.681,0.235,-5.044,-8.646,0.615,-5.169,0.63,-3.78,2.17
,-8.643,0.093,-4.96,-8.641,0.766,-5.106,0.98,-4.13,1.54
,-8.612,0.182,-5.011,-8.653,0.503,-4.774,2.1,-4.2,1.4
,-8.622,0.335,-5.13,-8.61,0.335,-5.011,3.99,-4.34,1.4
26804.0,-8.617,0.014,-4.855,-8.428,0.06,-4.956,0.7,-6.37,-1.47
,-8.837,-0.292,-4.867,-8.378,0.057,-4.755,1.82,-6.3,-1.33
,-8.818,-0.443,-4.807,-8.598,0.091,-4.637,3.85,-6.86,-0.98
,-8.746,-0.12,-5.001,-8.82,0.246,-4.795,5.74,-7.49,-0.35
26879.0,-8.842,0.285,-4.829,-8.598,0.129,-4.635,3.71,-9.52,1.61
,-8.902,0.275,-4.85,-8.693,0.455,-4.795,3.01,-9.59,1.54
,-8.823,0.139,-4.807,-8.715,0.694,-4.939,2.87,-9.17,1.19
,-8.739,0.127,-4.87,-8.641,0.811,-5.008,4.13,-8.82,0.63
26955.0,-8.614,0.613,-5.016,-8.995,0.191,-4.496,1.4,-9.87,-0.21
,-8.715,0.211,-4.75,-8.914,-0.144,-4.676,-0.14,-9.1,-0.56
,-8.763,0.141,-4.719,-8.588,-0.333,-4.704,0.77,-8.96,-1.12
,-8.662,0.237,-4.803,-8.765,-0.548,-4.654,0.42,-8.75,-1.26
27030.0,-8.959,-0.311,-4.621,-8.603,0.069,-4.585,6.93,-8.47,1.19
,-9.007,0.146,-4.635,-8.789,-0.309,-4.523,7.63,-10.92,0.7
,-8.703,0.534,-4.743,-8.966,-0.491,-4.475,5.39,-12.95,0.21
,-8.543,0.397,-4.659,-8.957,-0.306,-4.408,2.03,-12.74,0.21
27106.0,-8.906,-0.045,-4.343,-8.835,0.541,-4.477,11.2,-11.06,2.45
,-8.875,0.223,-4.271,-8.928,0.397,-4.52,13.09,-10.29,2.59
,-8.78,0.491,-4.293,-8.899,0.397,-4.269,13.3,-9.45,2.8
,-8.796,0.562,-4.403,-9.007,0.471,-4.113,11.9,-9.03,3.01
27182.0,-9.081,0.567,-4.216,-8.868,0.364,-4.216,7.42,-10.36,0.56
,-8.978,0.766,-4.336,-8.995,0.268,-4.109,5.11,-11.41,-0.14
,-8.725,0.637,-4.312,-9.067,0.23,-3.874,2.03,-11.69,-0.07
,-8.813,0.383,-4.247,-9.179,0.244,-4.022,0.84,-11.48,0.0
27258.0,-8.947,0.266,-4.058,-9.057,0.232,-3.877,2.24,-14.0,-2.94
,-8.899,0.311,-3.917,-9.014,0.019,-3.812,2.45,-13.79,-2.59
,-8.997,0.455,-4.011,-8.918,-0.369,-3.52,1.75,-13.79,-3.01
,-9.057,0.361,-3.987,-9.15,-0.579,-3.544,0.35,-13.65,-3.71
27334.0,-9.086,-0.383,-3.685,-9.196,-0.196,-3.632,4.97,-11.27,-2.8
,-8.983,-0.278,-3.924,-9.222,-0.199,-3.585,6.51,-11.83,-2.1
,-8.933,-0.282,-3.836,-9.002,-0.488,-3.766,7.14,-11.48,-1.12
,-8.971,-0.158,-3.69,-8.928,-0.811,-3.752,8.05,-10.92,-0.49
27409.0,-9.234,-0.828,-3.891,-9.052,1.292,-4.099,6.37,-10.71,2.38
,-9.538,-0.637,-3.936,-8.947,1.108,-4.288,11.41,-11.34,2.87
,-9.454,0.062,-3.879,-8.942,0.725,-3.575,15.82,-11.41,2.45
,-9.373,0.797,-4.154,-9.373,0.505,-3.687,15.75,-12.32,1.26
27485.0,-9.423,0.601,-3.814,-9.05,-0.727,-2.711,3.57,-15.05,-4.76
,-9.261,0.589,-3.702,-9.299,-0.672,-2.235,2.45,-15.61,-5.32
,-9.191,0.316,-3.465,-9.481,-0.412,-2.34,0.63,-15.47,-5.67
,-8.993,-0.33,-3.132,-9.483,-0.041,-1.979,-0.35,-14.56,-5.74
27561.0,-9.433,0.347,-2.333,-9.275,0.098,-2.24,6.72,-10.29,-4.34
,-9.134,0.483,-2.134,-9.404,0.124,-2.35,4.9,-8.61,-3.99
,-9.107,0.376,-2.355,-9.591,0.129,-2.73,4.41,-7.7,-3.85
,-9.119,0.278,-2.28,-9.366,0.141,-2.749,5.46,-6.23,-3.71
27637.0,-9.203,-0.043,-2.769,-9.261,-0.596,-3.029,4.34,-2.24,-3.22
,-9.241,-0.156,-3.02,-9.296,-0.78,-2.907,2.87,-1.47,-3.64
,-9.268,-0.268,-3.046,-9.387,-0.775,-2.764,1.82,-0.63,-3.85
,-9.239,-0.38,-3.211,-9.495,-0.426,-2.826,0.84,-0.35,-3.85
27712.0,-9.538,-0.026,-3.156,-9.292,-0.354,-3.661,6.72,1.82,-1.4
,-9.34,0.074,-3.357,-9.34,-0.254,-3.594,4.06,1.96,-1.26
,-9.289,-0.074,-3.611,-9.294,-0.266,-3.415,2.1,1.82,-1.05
,-9.21,-0.285,-3.687,-9.335,-0.395,-3.195,2.24,1.68,-0.84
27788.0,-9.38,-0.443,-3.171,-9.351,-0.211,-3.025,5.25,1.33,-0.07
,-9.316,-0.462,-3.037,-9.442,-0.065,-3.19,5.39,1.61,0.21
,-9.308,-0.505,-2.893,-9.356,-0.065,-3.238,5.32,2.1,0.56
,-9.306,-0.44,-2.924,-9.27,-0.419,-3.061,5.74,2.59,0.98
27863.0,-9.282,-0.565,-2.69,-9.416,0.153,-2.982,5.04,4.69,1.75
,-9.45,-0.385,-2.68,-9.328,0.06,-3.257,7.7,5.11,1.68
,-9.404,-0.115,-2.613,-9.313,-0.22,-3.412,8.89,5.53,1.47
,-9.569,0.196,-2.826,-9.203,-0.397,-3.422,7.07,5.39,0.98
27939.0,-9.194,-0.311,-3.455,-9.373,-0.196,-3.475,0.28,6.44,0.21
,-9.304,-0.223,-3.4,-9.383,-0.105,-3.577,1.19,6.51,0.35
,-9.383,-0.146,-3.491,-9.349,-0.055,-3.666,0.98,6.16,0.35
,-9.38,-0.124,-3.525,-9.227,-0.062,-3.611,0.35,6.02,0.7
28015.0,-9.198,-0.081,-3.592,-9.409,-0.072,-3.357,-0.84,5.11,0.28
,-9.237,-0.196,-3.486,-9.368,-0.124,-3.491,-0.7,5.18,0.21
,-9.308,-0.23,-3.46,-9.311,-0.12,-3.668,0.07,4.97,0.21
,-9.399,-0.108,-3.427,-9.28,-0.175,-3.807,0.42,4.69,0.07
28091.0,-9.21,-0.38,-3.867,-9.392,0.036,-3.597,-0.49,3.64,-0.07
,-9.124,-0.543,-3.79,-9.328,0.079,-3.553,1.05,3.64,0.21
,-9.203,-0.512,-3.685,-9.277,-0.098,-3.463,4.06,3.36,0.63
,-9.304,-0.246,-3.64,-9.308,-0.251,-3.372,6.02,3.29,0.77
28166.0,-9.325,-0.266,-3.396,-9.222,-0.017,-3.709,0.49,2.87,0.0
,-9.328,-0.232,-3.345,-9.225,-0.184,-3.75,0.91,3.08,0.21
,-9.332,-0.175,-3.348,-9.186,-0.373,-3.872,1.4,2.87,0.21
,-9.33,0.012,-3.534,-9.182,-0.488,-3.68,1.33,2.73,0.07
28242.0,-9.215,-0.421,-3.477,-9.371,0.005,-3.398,2.66,2.38,0.21
,-9.294,-0.249,-3.374,-9.258,-0.244,-3.484,3.78,2.31,0.35
,-9.395,-0.117,-3.24,-9.229,-0.436,-3.609,3.85,2.38,0.49
,-9.404,0.053,-3.254,-9.206,-0.479,-3.599,3.29,2.31,0.28
28318.0,-9.263,-0.333,-3.632,-9.258,-0.211,-3.575,1.4,2.24,-0.21
,-9.28,-0.306,-3.62,-9.304,-0.251,-3.551,1.54,2.03,-0.07
,-9.21,-0.266,-3.475,-9.299,-0.232,-3.527,1.54,2.03,0.0
,-9.227,-0.201,-3.506,-9.282,-0.313,-3.441,1.96,2.1,0.21
28394.0,-9.323,-0.201,-3.606,-9.194,-0.347,-3.726,3.29,1.82,0.49
,-9.311,-0.189,-3.654,-9.232,-0.182,-3.716,2.66,1.33,0.35
,-9.241,-0.244,-3.723,-9.299,-0.103,-3.704,2.1,1.12,0.42
,-9.215,-0.342,-3.745,-9.282,-0.072,-3.618,2.45,0.98,0.56
28470.0,-9.306,-0.105,-3.695,-9.258,-0.347,-3.381,3.22,-0.07,0.42
,-9.256,-0.256,-3.656,-9.284,-0.232,-3.19,3.08,-0.35,0.42
,-9.186,-0.392,-3.568,-9.337,-0.043,-3.163,3.85,-0.21,0.77
,-9.194,-0.364,-3.46,-9.445,0.012,-3.242,5.25,-0.14,0.98
28545.0,-9.325,-0.103,-3.269,-9.217,-0.299,-3.565,1.61,0.35,0.14
,-9.229,-0.223,-3.355,-9.28,-0.215,-3.577,0.91,0.7,0.14
,-9.227,-0.297,-3.489,-9.332,-0.112,-3.577,1.12,0.77,0.21
,-9.241,-0.349,-3.546,-9.292,-0.036,-3.585,2.17,0.98,0.21
28621.0,-9.289,-0.136,-3.664,-9.222,-0.361,-3.618,1.19,0.21,-0.21
,-9.299,-0.306,-3.673,-9.206,-0.388,-3.364,0.77,0.21,-0.21
,-9.234,-0.424,-3.637,-9.349,-0.22,-3.451,1.68,0.21,-0.07
,-9.179,-0.421,-3.594,-9.313,-0.17,-3.412,3.29,0.07,0.14
28696.0,-9.287,-0.151,-3.381,-9.277,-0.299,-3.57,2.45,-0.35,0.21
,-9.268,-0.268,-3.36,-9.184,-0.359,-3.508,1.82,-0.14,0.14
,-9.308,-0.304,-3.439,-9.32,-0.325,-3.556,2.24,-0.21,0.21
,-9.395,-0.278,-3.589,-9.311,-0.177,-3.604,2.38,-0.49,0.49
28772.0,-9.27,-0.112,-3.58,-9.256,-0.431,-3.496,2.8,-1.4,0.35
,-9.306,-0.203,-3.611,-9.335,-0.335,-3.546,1.68,-1.54,0.07
,-9.263,-0.388,-3.611,-9.289,-0.206,-3.419,1.26,-1.68,0.07
,-9.258,-0.402,-3.515,-9.373,-0.168,-3.446,2.24,-1.96,0.35
28848.0,-9.284,-0.175,-3.369,-9.316,-0.273,-3.4,2.17,-2.59,0.42
,-9.32,-0.244,-3.419,-9.306,-0.223,-3.331,1.19,-2.66,0.42
,-9.32,-0.304,-3.498,-9.418,-0.242,-3.362,1.05,-2.87,0.49
,-9.282,-0.34,-3.372,-9.493,-0.151,-3.376,1.4,-2.73,0.7
28924.0,-9.363,-0.005,-3.374,-9.521,-0.299,-3.352,-1.89,-4.83,-0.42
,-9.273,0.012,-3.35,-9.383,-0.232,-3.463,-4.41,-5.11,-0.49
,-9.208,-0.086,-3.104,-9.249,-0.251,-3.491,-6.44,-4.97,-0.35
,-9.39,-0.347,-3.163,-9.225,-0.345,-3.386,-7.14,-5.25,-0.42
28999.0,-9.268,-0.392,-3.156,-9.196,0.105,-1.766,-7.98,-6.23,0.07
,-9.361,-0.287,-2.936,-9.296,0.069,-1.488,-7.0,-6.3,-0.28
,-9.464,-0.019,-2.565,-9.517,0.06,-1.732,-8.05,-6.44,-0.56
,-9.27,0.105,-2.156,-9.691,0.005,-1.979,-10.71,-6.65,-0.77
29075.0,-9.773,-0.105,-2.402,-9.397,0.014,-2.857,-22.12,0.91,-1.26
,-9.371,-0.337,-2.639,-9.39,0.469,-3.254,-24.36,2.8,-0.56
,-9.086,-0.589,-2.656,-9.184,0.586,-3.391,-22.54,4.76,-0.28
,-9.122,-0.474,-2.647,-9.081,0.349,-3.125,-18.41,6.72,0.0
29150.0,-9.261,-0.172,-3.061,-9.619,-1.211,-2.931,-20.79,7.14,1.05
,-9.34,-0.873,-2.888,-9.541,-0.708,-3.3,-20.02,7.14,1.05
,-9.397,-1.4,-2.718,-9.177,-0.134,-3.912,-13.93,7.84,2.24
,-9.593,-1.39,-3.068,-9.062,0.002,-3.881,-5.81,8.12,3.01
29226.0,-9.153,-0.22,-3.776,-9.428,0.177,-2.924,10.22,9.52,6.16
,-9.182,-0.397,-3.498,-9.275,0.514,-2.412,11.2,11.2,7.28
,-9.378,-0.651,-3.273,-9.521,0.842,-2.659,13.93,11.97,7.77
,-9.373,-0.328,-2.819,-9.028,0.739,-3.008,18.62,12.67,7.63
29302.0,-9.246,0.002,-2.982,-8.938,-0.139,-2.958,-3.85,11.76,5.25
,-9.466,-0.562,-3.302,-9.098,0.682,-3.204,-6.58,12.81,5.74
,-9.16,-0.964,-2.986,-8.942,0.871,-3.527,-3.43,15.61,6.3
,-8.832,-0.83,-3.017,-8.981,0.512,-3.142,4.34,18.13,6.16
29378.0,-9.184,0.203,-2.958,-9.093,0.333,-3.362,5.53,19.39,5.04
,-9.466,0.227,-2.754,-8.538,-0.39,-3.173,5.81,20.72,4.55
,-9.643,0.397,-3.061,-8.413,-0.933,-3.044,6.79,19.95,3.15
,-9.495,0.538,-3.228,-8.734,-0.524,-2.845,5.67,19.04,2.03
29454.0,-9.32,0.438,-3.443,-8.746,-0.495,-4.089,6.65,22.33,2.94
,-9.368,0.952,-4.233,-9.141,-0.711,-3.774,4.2,19.39,2.1
,-9.201,0.983,-4.491,-9.196,-0.428,-4.018,-2.03,18.69,2.38
,-8.801,0.246,-4.491,-9.083,0.079,-3.989,-7.7,20.23,3.57
29529.0,-8.861,0.637,-4.195,-9.117,0.981,-4.927,10.15,21.91,2.38
,-8.811,1.034,-4.408,-8.77,0.684,-5.066,7.56,21.0,2.17
,-9.002,1.144,-4.611,-8.564,0.053,-4.719,3.78,20.3,1.89
,-9.127,1.048,-4.793,-8.428,-0.845,-4.592,-0.7,19.53,1.12
29605.0,-8.641,-1.732,-4.207,-8.641,0.0,-4.896,-6.37,18.48,1.4
,-9.131,-2.146,-4.121,-8.358,0.775,-5.027,-0.56,18.69,3.71
,-9.608,-1.835,-4.209,-8.282,1.122,-5.095,6.44,17.29,5.67
,-9.251,-0.974,-4.724,-8.469,1.12,-4.968,12.53,15.89,7.0
29681.0,-8.832,0.974,-4.434,-8.906,-0.246,-4.513,-7.49,16.66,4.9
,-9.026,0.68,-4.401,-9.107,-0.27,-4.767,-10.29,15.75,4.41
,-8.928,0.371,-4.398,-9.246,0.086,-4.944,-10.08,15.96,3.92
,-8.966,-0.06,-4.326,-9.002,1.07,-5.432,-6.79,16.94,3.85
29757.0,-8.409,1.689,-5.604,-9.15,-0.443,-4.86,14.84,12.18,2.38
,-8.062,1.625,-5.564,-8.887,-0.79,-5.023,9.94,12.39,0.0
,-8.581,1.089,-5.248,-8.662,-0.821,-5.279,2.45,12.74,-2.24
,-9.005,0.201,-4.915,-8.562,-0.653,-5.415,-2.8,13.37,-2.87
29832.0,-8.61,-0.503,-5.439,-8.265,0.725,-5.434,10.71,9.1,0.28
,-8.713,-0.328,-5.506,-8.122,0.443,-5.185,13.02,8.26,0.84
,-8.839,0.318,-5.616,-8.447,-0.27,-4.614,13.65,6.37,0.98
,-8.744,0.907,-5.714,-9.036,-0.692,-4.556,12.46,4.41,0.56
29908.0,-8.964,-0.775,-4.594,-8.784,-0.223,-5.02,0.14,5.18,1.82
,-8.681,-0.73,-4.819,-8.734,-0.065,-5.322,3.01,4.97,3.22
,-8.433,-0.744,-4.798,-8.873,-0.208,-4.932,5.04,5.74,4.55
,-8.406,-0.373,-4.994,-8.741,0.132,-4.97,7.42,6.65,5.6
29983.0,-8.629,-0.06,-4.791,-8.591,0.402,-4.846,6.23,5.46,6.72
,-8.562,0.084,-4.898,-8.66,0.811,-4.958,7.0,5.11,6.44
,-8.66,0.206,-4.905,-8.524,1.055,-5.307,6.58,5.46,6.3
,-8.603,0.239,-4.597,-8.418,1.163,-5.363,6.58,6.16,6.23
30059.0,-8.6,1.113,-5.355,-8.583,0.553,-5.389,4.62,4.13,3.85
,-8.763,1.017,-5.257,-8.461,-0.175,-5.305,4.34,3.99,2.45
,-8.89,1.101,-5.403,-8.624,-0.773,-5.413,4.76,3.29,0.7
,-8.725,1.031,-5.441,-8.775,-1.232,-5.331,4.55,2.8,-0.98
30135.0,-8.605,-1.474,-5.339,-8.514,-0.45,-5.382,2.38,1.33,2.31
,-8.626,-1.541,-5.171,-8.485,-0.06,-5.544,3.15,0.77,3.78
,-8.66,-1.24,-5.044,-8.655,-0.084,-5.432,3.5,0.7,5.74
,-8.54,-0.811,-5.252,-8.732,0.017,-5.262,3.85,0.07,7.28
30211.0,-8.557,0.462,-5.133,-8.564,0.866,-4.949,1.61,-0.49,9.59
,-8.469,0.727,-5.118,-8.418,1.223,-5.121,2.52,-0.63,9.52
,-8.605,0.938,-5.063,-8.528,1.407,-5.221,2.66,-0.56,9.24
,-8.658,0.854,-4.927,-8.763,1.194,-5.207,1.54,-0.42,8.61
30286.0,-8.715,0.792,-5.135,-8.562,0.337,-5.24,-3.85,1.05,3.29
,-8.603,0.447,-4.965,-8.737,0.768,-5.307,-4.2,0.98,3.64
,-8.425,0.44,-5.238,-8.815,0.991,-5.214,-4.13,0.98,3.85
,-8.437,0.191,-5.212,-8.758,1.228,-5.284,-3.71,0.98,3.78
30362.0,-8.638,1.28,-5.312,-8.76,-0.151,-5.054,-5.46,-0.28,0.98
,-8.399,0.95,-5.274,-8.698,-0.005,-5.123,-8.19,-0.49,0.42
,-8.512,0.361,-5.09,-8.71,0.28,-5.24,-10.5,-0.49,0.28
,-8.698,-0.019,-5.138,-8.804,0.369,-5.427,-9.8,-1.05,0.49
30438.0,-8.784,0.211,-5.315,-8.524,-0.476,-4.874,-3.85,-3.43,0.21
,-8.715,-0.079,-5.19,-8.612,-0.153,-5.001,-5.74,-3.71,0.98
,-8.686,-0.28,-5.166,-8.856,-0.127,-5.114,-5.81,-3.85,1.19
,-8.619,-0.383,-5.042,-8.969,0.05,-5.118,-4.06,-4.2,1.33
30514.0,-8.902,0.031,-5.097,-8.629,0.553,-4.891,2.03,-6.44,5.32
,-8.705,0.132,-5.006,-8.648,0.849,-5.001,3.08,-6.44,5.39
,-8.653,-0.141,-4.779,-8.684,1.019,-4.877,2.8,-6.16,5.25
,-8.672,0.117,-4.752,-8.813,1.017,-4.812,3.92,-6.3,5.04
30590.0,-8.875,0.9,-4.865,-8.289,0.704,-4.748,5.18,-6.37,0.91
,-8.918,0.735,-4.661,-8.265,0.818,-4.745,6.3,-5.74,0.49
,-9.153,0.598,-4.372,-8.576,1.079,-4.63,6.93,-6.79,0.84
,-8.634,0.651,-4.841,-8.849,1.409,-4.767,7.56,-7.63,1.26
30665.0,-8.856,1.505,-4.8,-8.763,-0.038,-4.69,8.61,-7.98,-2.59
,-8.796,1.098,-4.692,-8.904,0.29,-4.769,4.41,-7.63,-2.59
,-8.825,0.481,-4.532,-8.818,0.735,-4.874,0.7,-7.84,-2.59
,-8.643,0.101,-4.803,-8.433,0.763,-4.996,0.49,-7.91,-3.15
30741.0,-8.588,0.833,-4.996,-8.698,0.581,-4.989,2.52,-11.2,-3.01
,-8.957,0.263,-4.855,-8.832,0.725,-4.834,1.89,-10.43,-2.94
,-8.949,0.27,-4.865,-9.21,0.72,-4.69,2.59,-10.78,-3.78
,-8.782,0.378,-4.965,-8.935,0.591,-4.824,4.2,-10.99,-4.41
30816.0,-8.859,0.235,-4.515,-8.854,0.199,-4.52,0.42,-11.62,-5.67
,-8.772,0.041,-4.64,-8.662,0.38,-4.436,1.12,-12.11,-5.39
,-8.885,-0.151,-4.513,-8.748,0.275,-4.393,2.17,-13.44,-5.88
,-8.892,0.005,-4.537,-8.849,0.014,-4.305,3.57,-14.63,-5.88
30892.0,-9.007,0.041,-4.408,-9.34,-0.065,-3.817,1.61,-13.44,-3.15
,-9.026,0.019,-4.123,-9.045,-0.005,-3.802,3.57,-12.39,-2.66
,-9.055,0.237,-4.353,-8.768,0.321,-3.891,5.95,-11.97,-2.8
,-8.99,0.12,-4.305,-8.753,0.565,-3.944,6.37,-11.27,-3.01
30968.0,-8.954,0.866,-4.298,-8.897,-0.168,-3.228,0.84,-20.16,-3.01
,-9.005,0.598,-4.073,-9.086,-0.014,-3.096,-3.92,-19.74,-3.22
,-9.002,0.414,-3.893,-9.165,0.089,-3.072,-4.9,-17.64,-3.01
,-8.827,0.002,-3.513,-9.316,0.098,-3.111,-3.92,-14.56,-3.43
31044.0,-9.184,-0.01,-3.29,-9.079,0.237,-2.927,8.26,-7.63,-0.91
,-9.062,-0.141,-3.223,-9.21,0.811,-3.51,9.87,-5.95,-0.63
,-8.906,-0.354,-3.068,-9.155,0.909,-3.673,11.9,-4.55,-0.56
,-8.906,-0.146,-2.735,-9.146,0.608,-3.568,14.42,-3.92,-0.21
31119.0,-9.055,0.302,-3.25,-9.136,0.677,-3.293,6.09,-5.46,0.0
,-9.148,-0.093,-2.965,-9.179,0.275,-3.206,9.38,-3.43,-1.47
,-9.325,0.218,-2.795,-9.189,-0.22,-2.991,13.72,-2.73,-2.38
,-9.371,0.601,-3.173,-9.244,-0.438,-2.979,13.58,-4.34,-2.73
31195.0,-9.301,-0.299,-2.965,-9.253,0.151,-3.352,9.52,-1.19,-2.31
,-9.277,-0.048,-3.216,-9.146,0.146,-3.34,9.45,-1.61,-2.24
,-9.127,0.022,-3.343,-9.127,0.369,-3.441,8.54,-1.96,-1.4
,-9.203,0.105,-3.276,-9.258,0.467,-3.671,8.54,-1.4,-0.7
31271.0,-9.359,0.201,-3.884,-9.404,-0.208,-3.81,3.92,-2.31,-3.01
,-9.112,-0.101,-3.759,-9.39,0.17,-3.374,2.8,-1.96,-2.52
,-9.052,-0.601,-3.783,-9.397,0.452,-3.553,4.48,-1.61,-1.89
,-9.256,-0.677,-3.453,-9.208,0.651,-3.436,9.87,-1.68,-1.61
31347.0,-9.136,0.514,-3.159,-9.33,0.354,-3.187,9.8,-1.75,-2.52
,-9.196,0.459,-3.118,-9.239,0.469,-3.336,8.26,-1.33,-3.43
,-9.335,0.328,-3.027,-9.131,0.369,-3.386,6.72,-1.26,-3.85
,-9.433,0.325,-3.147,-9.11,0.115,-3.288,6.3,-1.19,-4.13
31423.0,-9.064,-0.352,-3.003,-9.433,-0.127,-3.632,-3.78,0.84,-6.3
,-9.215,-0.916,-2.828,-9.105,0.132,-3.857,-3.71,1.82,-5.6
,-9.385,-1.048,-2.678,-8.894,-0.108,-3.766,0.0,2.38,-4.55
,-9.514,-0.739,-3.065,-9.091,-0.443,-3.793,3.71,2.03,-3.85
31498.0,-9.208,-0.452,-3.704,-9.203,0.067,-4.276,5.81,2.59,-2.24
,-9.418,-0.337,-3.563,-8.978,0.041,-4.657,8.05,2.03,-1.96
,-9.445,-0.101,-3.475,-8.851,-0.244,-4.621,8.61,1.47,-2.03
,-9.474,0.014,-3.912,-8.957,-0.546,-4.274,7.91,0.84,-1.96
31574.0,-9.177,-0.696,-3.683,-9.349,0.285,-3.142,11.76,-2.03,-1.61
,-9.361,-0.574,-3.266,-9.06,0.287,-3.283,14.98,-2.1,-1.26
,-9.452,-0.191,-2.953,-8.997,-0.081,-3.206,15.82,-2.38,-1.26
,-9.586,0.223,-3.163,-9.079,-0.51,-2.929,13.58,-2.8,-1.82
31649.0,-9.318,-0.718,-2.642,-9.545,-0.074,-2.704,3.29,0.35,-2.87
,-9.418,-0.687,-2.414,-9.289,-0.024,-3.101,4.48,1.4,-2.17
,-9.533,-0.512,-2.302,-9.098,-0.191,-3.472,4.9,2.31,-1.61
,-9.531,-0.395,-2.328,-9.093,-0.474,-3.556,4.41,3.29,-1.12
31725.0,-9.179,-0.651,-3.537,-9.292,-0.122,-3.8,-1.26,5.6,-1.4
,-9.328,-0.586,-3.537,-9.162,-0.342,-3.833,1.54,5.67,-0.91
,-9.373,-0.392,-3.606,-9.146,-0.505,-3.759,3.99,5.32,-0.28
,-9.404,-0.139,-3.721,-9.21,-0.562,-3.819,4.83,4.69,-0.21
31801.0,-9.332,-0.605,-3.754,-9.129,-0.287,-3.68,4.76,3.64,-0.49
,-9.273,-0.409,-3.676,-9.189,-0.349,-3.671,5.04,3.22,-0.14
,-9.203,-0.402,-3.745,-9.296,-0.254,-3.661,4.83,2.8,0.0
,-9.217,-0.306,-3.723,-9.273,-0.33,-3.692,4.55,2.38,0.07
31877.0,-9.22,-0.39,-3.556,-9.244,-0.194,-3.704,3.64,1.96,0.84
,-9.191,-0.426,-3.565,-9.268,-0.282,-3.575,3.92,2.03,0.98
,-9.234,-0.424,-3.716,-9.198,-0.431,-3.415,4.34,1.89,0.84
,-9.189,-0.258,-3.692,-9.284,-0.397,-3.364,4.55,1.54,0.7
31952.0,-9.356,-0.357,-3.333,-9.246,-0.294,-3.592,4.27,1.75,0.77
,-9.344,-0.23,-3.273,-9.153,-0.445,-3.542,4.13,1.89,0.7
,-9.316,-0.225,-3.338,-9.258,-0.404,-3.63,3.64,2.1,0.63
,-9.292,-0.249,-3.427,-9.282,-0.371,-3.754,2.94,2.17,0.42
32028.0,-9.256,-0.28,-3.774,-9.213,-0.302,-3.704,3.15,1.68,0.14
,-9.256,-0.258,-3.745,-9.261,-0.273,-3.843,2.59,1.89,0.21
,-9.253,-0.333,-3.673,-9.201,-0.33,-3.719,2.17,1.75,0.21
,-9.275,-0.388,-3.589,-9.265,-0.388,-3.565,2.66,1.61,0.28
32104.0,-9.225,-0.402,-3.51,-9.287,-0.433,-3.443,2.17,1.05,0.21
,-9.265,-0.421,-3.35,-9.22,-0.44,-3.34,1.89,0.91,0.07
,-9.261,-0.414,-3.565,-9.258,-0.476,-3.3,1.4,0.77,0.07
,-9.261,-0.5,-3.338,-9.27,-0.4,-3.295,1.33,0.84,0.21
32180.0,-9.323,-0.412,-3.372,-9.217,-0.44,-3.723,0.63,1.96,0.49
,-9.294,-0.287,-3.475,-9.217,-0.378,-3.85,0.49,1.89,0.63
,-9.268,-0.28,-3.479,-9.232,-0.287,-3.879,-0.07,2.1,0.63
,-9.222,-0.333,-3.699,-9.265,-0.357,-3.9,-0.42,2.1,0.63
32255.0,-9.203,-0.464,-3.855,-9.323,-0.371,-3.326,1.26,0.49,0.7
,-9.189,-0.507,-3.752,-9.366,-0.156,-3.319,1.96,0.7,0.98
,-9.182,-0.534,-3.616,-9.296,-0.12,-3.41,2.87,0.63,1.26
,-9.284,-0.464,-3.46,-9.222,-0.354,-3.312,3.78,0.56,1.33
32331.0,-9.241,-0.483,-3.417,-9.158,-0.237,-3.472,0.07,1.4,1.4
,-9.273,-0.474,-3.532,-9.172,-0.218,-3.704,1.4,1.4,1.47
,-9.277,-0.352,-3.532,-9.17,-0.388,-3.747,2.8,1.26,1.68
,-9.28,-0.17,-3.592,-9.177,-0.531,-3.802,2.31,1.19,1.4
32407.0,-9.208,-0.613,-3.613,-9.253,-0.187,-3.46,0.84,0.7,1.4
,-9.244,-0.56,-3.534,-9.275,-0.184,-3.565,2.59,0.56,1.68
,-9.318,-0.388,-3.46,-9.249,-0.249,-3.587,3.57,0.56,1.82
,-9.246,-0.244,-3.419,-9.265,-0.321,-3.644,3.57,0.49,2.03
32482.0,-9.229,-0.383,-3.692,-9.194,-0.187,-3.582,1.26,0.21,1.68
,-9.241,-0.311,-3.783,-9.194,-0.203,-3.53,2.24,-0.07,1.75
,-9.246,-0.244,-3.647,-9.21,-0.235,-3.561,3.01,-0.07,1.96
,-9.258,-0.223,-3.68,-9.253,-0.34,-3.422,2.52,-0.35,1.89
32558.0,-9.225,-0.371,-3.288,-9.28,-0.22,-3.096,0.77,-0.07,2.1
,-9.265,-0.337,-3.19,-9.251,-0.141,-3.161,0.98,0.28,2.38
,-9.313,-0.342,-3.101,-9.306,-0.218,-3.168,0.56,0.63,2.45
,-9.28,-0.302,-3.089,-9.296,-0.191,-3.281,0.07,0.98,2.52
32634.0,-9.241,-0.208,-3.111,-9.418,-0.134,-3.187,-4.76,1.82,1.96
,-9.222,-0.177,-3.089,-9.454,-0.156,-3.326,-4.69,2.17,2.03
,-9.241,-0.168,-3.089,-9.246,-0.172,-3.752,-4.9,2.52,1.89
,-9.34,-0.139,-3.068,-9.103,-0.323,-3.807,-5.32,2.87,2.1
32710.0,-9.139,-0.426,-3.984,-9.191,-0.055,-3.393,-10.5,1.96,2.03
,-9.198,-0.369,-3.912,-9.182,-0.208,-2.994,-8.54,1.54,2.03
,-9.32,-0.273,-3.881,-9.167,-0.232,-2.852,-7.35,0.7,1.75
,-9.378,-0.129,-3.762,-9.584,-0.378,-2.548,-8.61,-1.12,1.19
32785.0,-9.641,0.163,-3.644,-8.973,-0.519,-4.465,-13.37,-1.96,2.03
,-9.354,0.175,-3.843,-8.983,-0.668,-4.123,-16.03,-1.89,2.38
,-9.258,0.12,-4.343,-9.124,-0.512,-3.805,-19.11,-2.17,2.59
,-9.093,-0.053,-4.726,-9.292,-0.156,-3.479,-19.39,-2.03,3.01
32861.0,-9.409,0.057,-3.604,-9.45,-0.699,-2.154,-0.42,-3.29,2.66
,-9.289,-0.041,-3.209,-9.474,-0.041,-2.508,-2.31,-2.94,3.43
,-9.368,-0.531,-2.924,-9.383,0.57,-3.175,-3.15,-2.1,4.69
,-9.318,-0.787,-2.45,-9.064,0.603,-3.53,-2.03,-0.28,5.39
32937.0,-8.926,0.318,-3.81,-9.27,0.189,-3.19,-7.21,-0.49,5.81
,-9.043,-0.232,-3.451,-9.186,0.416,-3.226,-8.54,1.12,6.3
,-9.576,-0.316,-3.439,-9.325,0.407,-2.783,-5.11,1.75,6.16
,-9.399,-0.139,-3.479,-9.107,0.117,-2.204,-1.96,2.03,5.25
33013.0,-9.392,0.266,-1.685,-9.206,0.572,-3.733,9.31,10.36,5.46
,-9.478,0.988,-1.981,-8.93,-0.251,-3.68,11.2,10.78,3.92
,-9.512,1.402,-3.159,-8.827,-1.122,-3.046,7.35,7.84,1.68
,-9.256,1.247,-3.427,-9.0,-1.101,-3.01,-0.84,6.86,0.7
33088.0,-9.167,-1.007,-3.056,-9.457,0.543,-2.381,6.51,11.97,3.5
,-9.342,-0.991,-3.02,-9.258,1.378,-3.36,9.31,11.76,4.97
,-9.301,-0.737,-3.001,-9.244,1.668,-3.812,11.34,12.53,6.93
,-9.079,-0.244,-2.3,-9.093,1.295,-4.104,15.33,15.33,8.61
33164.0,-8.957,0.715,-4.02,-9.067,0.328,-3.8,-5.74,14.0,3.01
,-8.94,0.151,-3.664,-9.294,-0.096,-3.738,-5.25,16.17,2.38
,-9.052,0.369,-3.575,-9.351,-0.409,-3.637,-0.91,16.24,1.19
,-8.914,0.467,-3.685,-9.241,-0.349,-3.625,1.47,15.19,0.35
33239.0,-9.131,0.067,-3.91,-9.165,0.268,-4.118,7.98,14.63,2.94
,-8.909,0.438,-4.216,-9.105,0.438,-4.113,9.94,14.14,2.45
,-8.945,0.414,-4.343,-8.674,0.524,-4.369,8.33,14.07,2.03
,-9.062,0.412,-4.188,-8.638,0.117,-4.386,5.67,14.21,1.75
33315.0,-8.993,-0.433,-4.044,-8.815,-0.409,-3.953,-4.69,10.64,2.31
,-9.411,-0.83,-3.769,-8.89,-0.203,-4.145,-2.94,12.25,2.73
,-9.263,-0.933,-3.654,-9.026,-0.139,-4.027,0.7,13.79,3.64
,-8.923,-0.696,-3.64,-9.012,-0.112,-4.044,5.25,15.12,5.18
33391.0,-8.918,0.189,-3.757,-8.885,1.438,-4.53,5.88,15.75,9.66
,-8.933,0.708,-3.762,-8.997,1.412,-4.482,7.7,16.1,8.68
,-8.914,1.192,-3.905,-8.808,1.311,-4.494,6.58,15.12,7.77
,-8.784,1.455,-4.341,-8.784,1.189,-4.171,3.08,14.42,7.0
33467.0,-8.904,1.072,-4.037,-9.11,-0.392,-4.731,1.19,16.31,-0.14
,-9.007,0.878,-4.288,-8.849,-0.852,-4.925,1.54,15.12,-1.19
,-9.079,0.589,-4.518,-8.612,-0.89,-4.944,1.19,14.98,-0.84
,-9.141,0.218,-4.585,-8.808,-0.361,-4.826,0.14,14.7,0.14
33543.0,-8.741,0.0,-4.915,-8.708,0.33,-4.958,9.52,10.92,2.59
,-8.751,0.304,-4.925,-8.787,0.672,-5.066,7.35,10.29,2.59
,-8.847,0.299,-4.865,-8.739,0.823,-4.846,2.45,10.01,3.36
,-8.847,0.242,-5.039,-8.906,1.149,-4.781,-1.89,9.87,4.34
33618.0,-8.918,1.225,-4.86,-8.607,1.067,-5.252,4.34,9.03,-0.77
,-9.009,1.096,-4.724,-8.775,0.957,-4.913,3.78,8.4,-1.4
,-8.732,1.005,-4.733,-8.957,1.034,-4.927,4.2,7.49,-1.47
,-8.746,0.936,-5.044,-9.115,0.715,-4.896,5.6,7.21,-1.82
33694.0,-9.234,0.136,-4.525,-8.349,-0.893,-4.649,6.3,4.48,-7.84
,-9.019,-0.55,-4.35,-8.882,-0.313,-4.874,5.39,4.27,-7.0
,-8.373,-1.005,-4.511,-9.16,0.134,-4.972,6.37,5.32,-5.25
,-8.224,-1.168,-4.563,-8.918,0.56,-5.267,8.82,5.88,-4.13
33770.0,-8.741,0.512,-5.042,-9.17,-0.78,-4.87,9.73,4.06,-2.03
,-8.375,0.302,-4.781,-8.823,-0.811,-4.824,5.81,3.78,-1.47
,-8.339,-0.175,-5.061,-8.71,-0.407,-5.128,2.66,4.27,-1.05
,-8.746,-0.634,-4.992,-8.638,0.05,-5.432,1.96,4.76,-0.56
33846.0,-8.837,0.017,-5.224,-8.409,0.261,-5.166,13.23,4.34,2.52
,-9.306,-0.007,-4.92,-8.363,0.17,-5.142,12.39,4.27,2.59
,-9.179,0.055,-4.927,-8.559,-0.163,-4.946,11.27,3.01,3.22
,-8.782,0.251,-5.023,-8.677,-0.048,-4.982,10.71,1.47,3.92
33921.0,-8.583,0.541,-5.166,-8.849,-0.218,-4.984,8.75,2.1,3.29
,-8.588,0.893,-5.181,-8.478,-0.574,-5.016,7.63,1.96,2.52
,-8.801,0.838,-5.221,-8.442,-0.605,-4.987,3.99,2.03,1.47
,-8.952,0.407,-5.02,-8.531,-0.5,-4.996,0.7,2.52,0.91
33997.0,-8.691,-0.045,-5.171,-8.397,-0.194,-5.025,7.49,3.01,2.87
,-8.949,0.333,-5.181,-8.416,-0.335,-4.748,6.23,2.31,2.73
,-8.976,0.156,-5.095,-8.847,0.256,-5.016,2.73,2.59,2.94
,-8.792,-0.168,-4.879,-9.014,0.871,-5.272,-0.28,2.66,3.78
34072.0,-8.799,1.208,-5.288,-8.835,0.577,-5.023,-1.82,0.07,2.45
,-8.595,1.366,-5.343,-8.909,0.079,-4.865,-4.62,-0.14,1.47
,-8.54,1.419,-5.226,-8.825,-0.251,-4.891,-6.86,-0.49,0.28
,-8.729,1.129,-5.166,-8.744,-0.464,-4.843,-8.19,-1.4,-1.05
34148.0,-8.856,-0.457,-4.783,-8.801,-0.089,-4.951,1.89,-2.73,-0.91
,-8.966,-0.093,-4.877,-8.885,-0.175,-4.707,3.5,-3.57,-1.05
,-8.863,0.081,-4.922,-8.911,0.053,-4.738,2.45,-4.2,-1.26
,-8.722,-0.036,-4.963,-8.938,0.237,-4.757,0.0,-4.48,-1.68
34224.0,-8.775,0.227,-5.006,-8.856,-0.854,-5.027,-4.62,-5.18,-0.28
,-8.729,0.05,-5.128,-8.82,-0.744,-4.776,-4.83,-5.88,0.63
,-8.612,-0.309,-5.159,-8.842,-0.292,-4.781,-5.04,-5.74,1.33
,-8.696,-0.694,-5.023,-8.861,0.017,-4.75,-3.36,-5.46,1.26
34300.0,-8.545,0.053,-4.683,-8.916,-0.249,-4.355,8.19,-9.52,2.73
,-8.445,-0.089,-4.692,-8.942,-0.062,-4.233,6.44,-8.82,3.71
,-8.703,-0.311,-4.578,-8.784,0.191,-4.228,5.39,-8.68,4.55
,-9.0,-0.294,-4.403,-8.555,0.091,-4.192,6.51,-8.96,5.11
34375.0,-8.545,-0.06,-4.075,-8.911,0.677,-4.092,7.84,-7.21,7.56
,-8.794,-0.136,-4.027,-8.952,0.809,-3.979,8.4,-6.44,8.26
,-8.985,0.026,-4.02,-8.906,0.948,-3.994,10.85,-6.23,8.89
,-8.909,0.385,-4.159,-8.815,1.129,-4.022,13.37,-6.3,8.89
34451.0,-8.77,1.175,-3.987,-9.337,0.873,-4.554,7.77,-3.99,4.55
,-8.911,1.144,-4.14,-9.17,0.57,-4.826,6.65,-3.92,3.29
,-8.995,1.043,-4.231,-8.653,0.629,-4.865,5.67,-3.99,2.38
,-8.897,0.646,-4.137,-8.607,0.558,-4.64,2.73,-3.85,1.4
34527.0,-8.775,0.694,-4.458,-8.976,0.792,-4.346,4.48,-5.81,-2.03
,-8.868,0.928,-4.549,-8.849,0.634,-4.369,2.45,-6.86,-3.29
,-8.983,0.969,-4.424,-8.839,0.491,-4.456,-0.49,-7.28,-3.92
,-9.05,0.933,-4.413,-8.808,0.419,-4.329,-3.71,-7.63,-4.62
34603.0,-9.031,0.416,-4.312,-8.586,-0.436,-4.03,-2.52,-6.09,-6.58
,-9.426,0.11,-4.068,-8.916,-0.266,-4.056,-3.43,-7.56,-6.93
,-9.189,-0.115,-4.29,-9.203,-0.041,-3.92,-5.11,-10.29,-6.65
,-8.715,-0.23,-4.389,-9.184,0.235,-3.91,-5.81,-10.5,-5.88
34679.0,-9.05,0.34,-3.989,-9.246,-0.426,-3.807,-3.85,-9.31,-5.53
,-8.949,-0.065,-3.874,-8.909,-0.261,-3.857,-6.93,-8.4,-4.9
,-8.952,-0.096,-3.994,-9.289,0.007,-3.759,-5.32,-10.57,-5.04
,-8.995,-0.505,-3.685,-9.282,0.349,-4.156,-3.01,-7.28,-3.36
34754.0,-9.129,0.412,-4.219,-9.174,0.246,-3.726,4.06,-10.64,-1.05
,-8.782,0.529,-4.252,-9.136,0.28,-3.367,1.54,-9.87,-0.84
,-8.763,0.213,-3.984,-9.15,0.153,-3.305,1.05,-8.05,-1.47
,-8.952,0.225,-3.929,-9.127,-0.105,-3.376,2.1,-7.56,-2.73
34830.0,-9.301,-0.369,-3.451,-9.1,0.287,-3.786,1.19,-4.9,-2.8
,-9.229,-0.273,-3.458,-9.189,0.313,-3.707,3.78,-3.57,-2.03
,-9.122,-0.17,-3.589,-9.299,0.237,-3.891,6.3,-2.94,-1.89
,-8.94,0.117,-3.606,-8.969,0.249,-3.9,8.75,-2.52,-1.96
34905.0,-8.959,0.189,-3.747,-9.392,0.01,-3.664,1.12,-5.25,-2.17
,-9.031,0.124,-3.85,-9.27,-0.045,-3.704,1.05,-4.97,-2.8
,-9.17,0.043,-3.786,-9.167,0.184,-3.57,0.7,-5.11,-3.36
,-9.435,0.005,-3.802,-9.021,0.33,-3.649,0.77,-5.25,-3.15
34981.0,-9.141,0.273,-3.85,-9.194,0.045,-3.86,1.68,-3.92,-3.99
,-9.06,0.148,-3.872,-9.189,0.251,-3.979,0.35,-3.57,-3.99
,-9.225,-0.05,-3.867,-9.237,0.282,-4.178,0.77,-3.5,-3.64
,-9.165,-0.108,-3.795,-9.052,0.218,-4.381,2.38,-2.8,-3.29
35057.0,-9.067,-0.038,-4.058,-9.189,-0.223,-3.518,1.75,-5.95,-4.06
,-9.462,-0.211,-4.568,-9.332,-0.213,-3.683,1.26,-8.05,-4.2
,-9.251,-0.22,-3.996,-9.234,-0.199,-3.475,0.63,-10.08,-4.55
,-9.146,-0.357,-3.795,-9.292,0.074,-3.726,1.61,-10.92,-4.41
35133.0,-9.081,0.007,-3.479,-9.402,0.239,-3.123,2.31,-12.39,-3.57
,-9.189,-0.153,-3.276,-9.325,0.45,-3.101,3.64,-10.92,-2.94
,-9.251,-0.273,-3.128,-9.277,0.218,-2.912,4.9,-10.15,-3.01
,-9.328,-0.191,-2.838,-9.313,0.01,-2.905,6.02,-10.01,-3.29
35208.0,-9.27,-0.366,-2.663,-9.136,-0.182,-3.833,-0.91,-7.63,-3.85
,-9.505,-0.558,-2.728,-9.043,-0.613,-3.597,1.68,-6.51,-3.85
,-9.519,-0.256,-3.314,-9.11,-1.101,-3.52,2.87,-7.28,-4.34
,-9.34,-0.077,-3.582,-9.182,-1.232,-3.192,1.19,-8.26,-4.2
35284.0,-9.311,-1.01,-2.905,-9.414,-0.182,-2.642,12.18,-4.97,0.21
,-9.591,-0.658,-2.881,-9.421,-0.242,-2.479,15.26,-5.25,0.77
,-9.552,-0.404,-2.749,-9.232,0.038,-2.345,15.82,-5.11,1.4
,-9.366,-0.242,-2.505,-9.33,0.187,-2.393,14.84,-4.83,1.82
35359.0,-9.428,0.081,-2.163,-9.373,-0.447,-1.582,6.51,-3.01,0.14
,-9.521,-0.165,-2.101,-9.569,-0.199,-1.656,5.18,-1.96,0.28
,-9.404,-0.258,-2.063,-9.6,0.148,-1.768,4.69,-0.84,0.56
,-9.232,-0.452,-1.682,-9.608,0.323,-2.304,5.67,1.33,1.26
35435.0,-9.483,0.22,-2.656,-9.306,-0.407,-3.594,-0.21,6.72,0.49
,-9.284,-0.208,-3.084,-9.462,-0.043,-3.805,-3.15,7.21,0.21
,-9.182,-0.476,-3.333,-9.385,-0.05,-3.884,-3.15,7.49,0.14
,-9.237,-0.591,-3.479,-9.289,-0.244,-3.745,-1.05,7.42,0.14
35511.0,-9.335,-0.306,-3.625,-9.45,-0.201,-3.465,2.52,5.25,0.35
,-9.311,-0.28,-3.628,-9.392,-0.318,-3.36,4.27,5.04,0.42
,-9.351,-0.203,-3.532,-9.318,-0.412,-3.324,4.97,4.62,0.35
,-9.378,-0.16,-3.417,-9.397,-0.282,-3.484,4.9,4.34,0.49
35587.0,-9.349,-0.292,-3.551,-9.371,-0.323,-3.218,5.6,3.15,0.7
,-9.277,-0.235,-3.479,-9.502,-0.194,-3.269,5.6,3.01,0.77
,-9.284,-0.263,-3.41,-9.433,-0.122,-3.326,5.04,2.94,0.84
,-9.261,-0.328,-3.329,-9.407,-0.144,-3.463,5.39,3.01,1.05
35663.0,-9.328,-0.285,-3.508,-9.421,-0.27,-3.24,4.06,1.96,0.91
,-9.239,-0.373,-3.451,-9.423,-0.273,-3.168,4.69,2.24,1.05
,-9.268,-0.361,-3.405,-9.416,-0.191,-3.216,5.88,2.1,0.98
,-9.371,-0.342,-3.202,-9.38,-0.237,-3.221,6.72,2.38,1.05
35738.0,-9.273,-0.258,-3.288,-9.452,-0.215,-3.168,4.76,2.24,0.77
,-9.203,-0.328,-3.242,-9.512,-0.036,-3.259,4.48,2.31,0.77
,-9.337,-0.373,-3.168,-9.43,-0.096,-3.455,5.39,2.8,0.84
,-9.351,-0.361,-3.032,-9.304,-0.148,-3.551,5.95,3.08,0.84
35814.0,-9.227,-0.347,-3.539,-9.481,-0.069,-3.269,1.54,2.03,0.28
,-9.217,-0.438,-3.486,-9.39,-0.144,-3.118,2.59,2.17,0.28
,-9.32,-0.438,-3.448,-9.421,-0.246,-3.271,4.34,1.96,0.42
,-9.404,-0.246,-3.355,-9.261,-0.419,-3.321,5.46,1.89,0.42
35890.0,-9.284,-0.459,-3.276,-9.351,-0.342,-3.369,2.73,1.89,0.49
,-9.371,-0.462,-3.245,-9.416,-0.383,-3.475,3.71,1.82,0.49
,-9.373,-0.342,-3.408,-9.354,-0.325,-3.486,4.06,1.61,0.49
,-9.366,-0.28,-3.443,-9.294,-0.225,-3.398,3.71,1.54,0.56
35966.0,-9.251,-0.311,-3.25,-9.387,-0.232,-3.154,2.73,0.84,0.63
,-9.296,-0.371,-3.185,-9.325,-0.261,-3.197,3.36,0.91,0.91
,-9.452,-0.254,-3.202,-9.249,-0.244,-3.218,4.34,0.84,0.91
,-9.428,-0.187,-3.192,-9.294,-0.242,-3.257,3.92,0.84,0.84
36041.0,-9.351,-0.306,-3.199,-9.359,-0.256,-3.252,2.45,1.47,0.49
,-9.325,-0.369,-3.094,-9.43,-0.318,-3.293,2.45,1.82,0.42
,-9.416,-0.266,-3.147,-9.366,-0.33,-3.293,3.29,1.82,0.49
,-9.368,-0.184,-3.161,-9.265,-0.187,-3.369,2.73,1.75,0.49
36117.0,-9.323,-0.239,-3.429,-9.323,-0.266,-3.496,-1.05,0.91,-0.35
,-9.287,-0.237,-3.355,-9.38,-0.208,-3.422,-0.91,1.12,-0.07
,-9.356,-0.402,-3.422,-9.349,-0.254,-3.293,-0.91,0.63,-0.21
,-9.256,-0.321,-3.331,-9.375,-0.376,-3.276,-0.56,0.49,-0.21
36192.0,-9.342,-0.438,-3.202,-9.325,-0.345,-3.357,-1.68,0.07,0.07
,-9.409,-0.505,-3.388,-9.404,-0.184,-3.321,-1.19,-0.35,0.14
,-9.316,-0.359,-3.36,-9.366,-0.053,-3.419,-0.77,-0.63,0.35
,-9.287,-0.392,-3.369,-9.344,-0.101,-3.386,-0.63,-0.63,0.28
36268.0,-9.311,-0.275,-3.486,-9.335,-0.33,-3.283,-4.13,-2.17,0.42
,-9.373,-0.404,-3.415,-9.337,-0.371,-3.154,-3.71,-2.31,0.35
,-9.34,-0.447,-3.424,-9.34,-0.333,-3.108,-2.8,-2.73,0.49
,-9.249,-0.364,-3.297,-9.418,-0.306,-2.989,-1.89,-2.66,0.7
36344.0,-9.387,-0.311,-3.027,-9.335,-0.39,-3.099,-2.1,-2.52,1.75
,-9.402,-0.294,-2.931,-9.385,-0.258,-3.116,-2.38,-2.1,2.03
,-9.445,-0.215,-3.175,-9.407,-0.23,-3.037,-2.59,-1.89,2.03
,-9.368,-0.414,-3.13,-9.349,-0.148,-3.046,-3.29,-1.68,2.03
36420.0,-9.402,-0.098,-3.01,-9.356,-0.115,-2.855,-2.87,-2.73,1.75
,-9.351,-0.206,-2.998,-9.483,-0.072,-2.946,-3.71,-2.52,1.75
,-9.366,-0.285,-2.788,-9.476,0.077,-3.135,-3.71,-1.89,1.75
,-9.44,-0.211,-2.946,-9.38,0.089,-2.96,-2.59,-1.47,1.96
36495.0,-9.284,0.098,-2.826,-9.536,-0.112,-2.958,-5.53,-0.14,1.26
,-9.387,0.151,-2.702,-9.359,-0.4,-3.092,-6.51,0.49,0.91
,-9.517,0.108,-2.63,-9.162,-0.749,-2.905,-7.98,0.63,0.56
,-9.61,-0.043,-2.651,-9.246,-0.653,-3.096,-9.87,0.21,0.21
36571.0,-9.399,-0.495,-2.871,-9.33,-0.531,-2.742,-3.15,2.52,1.54
,-9.598,-0.112,-3.063,-9.368,-0.593,-2.699,-0.98,3.15,1.68
,-9.39,0.01,-3.113,-9.739,-0.27,-2.864,-2.1,3.92,1.61
,-9.22,-0.273,-2.793,-9.562,0.189,-3.348,-4.27,5.46,1.96
36647.0,-9.172,0.27,-3.192,-9.363,-0.572,-2.845,-3.99,5.11,3.01
,-9.05,-0.196,-3.032,-9.423,-0.223,-2.948,-6.3,7.28,3.43
,-9.15,-0.677,-2.718,-9.493,-0.12,-2.85,-4.62,8.89,3.71
,-9.139,-0.828,-2.532,-9.392,-0.404,-2.424,0.49,9.8,4.34
36723.0,-9.292,-0.751,-2.517,-9.22,0.747,-3.149,6.37,12.11,7.07
,-9.172,-0.814,-2.07,-9.497,0.641,-3.159,11.62,13.58,7.7
,-9.416,-0.256,-2.29,-9.182,0.402,-3.087,16.73,12.6,7.77
,-9.213,0.436,-3.269,-9.308,0.345,-3.02,17.08,10.78,6.58
36799.0,-9.201,0.608,-3.451,-9.239,0.036,-2.974,5.53,15.05,3.57
,-9.239,0.799,-3.558,-9.318,-0.225,-3.451,4.13,14.7,2.31
,-9.239,0.811,-3.623,-9.512,-0.565,-3.659,1.89,14.77,1.82
,-9.033,0.457,-3.08,-9.241,-0.909,-3.8,-0.14,15.61,1.12
36874.0,-8.847,-1.029,-3.702,-9.225,0.443,-3.065,2.45,14.49,2.94
,-8.928,-0.785,-3.384,-9.258,0.388,-3.218,7.98,16.24,3.29
,-9.057,-0.385,-3.228,-9.356,0.203,-3.482,11.9,16.17,3.22
,-9.174,0.127,-3.063,-9.098,-0.22,-3.427,12.46,15.89,3.22
36950.0,-8.899,-0.254,-3.302,-9.174,0.002,-3.774,-1.19,17.15,4.9
,-8.906,-0.227,-3.482,-9.28,0.33,-3.91,2.59,17.5,4.55
,-9.095,-0.225,-3.549,-9.019,0.629,-4.061,5.46,17.64,4.48
,-9.167,-0.148,-3.838,-9.04,1.149,-4.293,7.14,17.57,4.97
37025.0,-9.043,1.278,-4.795,-8.748,0.062,-4.066,5.04,15.96,2.31
,-9.055,0.94,-4.932,-8.842,-0.447,-4.326,-0.07,15.12,0.42
,-9.172,0.715,-4.542,-9.103,-0.895,-4.58,-3.22,15.82,-0.77
,-9.019,0.345,-4.128,-9.332,-1.06,-4.647,-5.25,16.73,-1.33
37101.0,-9.036,-1.182,-4.451,-9.229,0.206,-4.099,3.57,14.63,3.15
,-8.636,-0.976,-4.07,-9.282,0.373,-4.295,8.05,16.66,3.99
,-8.593,-0.704,-3.91,-9.081,0.481,-4.463,11.62,17.36,4.13
,-8.815,-0.246,-3.903,-8.835,0.479,-4.542,12.6,16.8,4.13
37177.0,-8.751,0.44,-4.635,-9.091,0.115,-4.118,-1.82,13.58,5.53
,-8.909,0.361,-4.544,-8.512,-0.098,-4.161,-1.33,12.74,4.76
,-9.141,0.23,-4.386,-8.337,-0.108,-4.219,-0.14,11.9,3.92
,-9.275,0.139,-4.133,-8.619,0.112,-4.556,0.07,11.13,3.78
37253.0,-8.995,0.57,-4.812,-9.045,0.038,-4.41,4.41,10.71,5.88
,-9.162,1.036,-5.018,-8.739,-0.153,-4.587,4.69,10.29,4.62
,-9.206,1.034,-4.822,-8.54,-0.416,-4.704,1.89,10.71,3.22
,-9.229,0.51,-4.41,-8.717,-0.438,-4.743,-2.45,10.78,2.45
37328.0,-8.945,-0.369,-4.803,-8.67,0.361,-5.044,3.78,9.8,5.25
,-8.916,-0.127,-4.86,-8.837,0.414,-4.654,7.21,9.17,5.11
,-8.947,0.034,-4.805,-8.813,0.56,-4.618,8.75,8.96,4.97
,-8.835,0.199,-4.848,-8.653,0.895,-4.616,8.47,8.05,4.76
37404.0,-8.686,0.957,-4.654,-8.708,0.842,-4.91,5.25,6.72,2.8
,-8.863,1.11,-4.628,-8.629,0.737,-4.743,5.04,6.58,2.03
,-9.064,1.11,-4.628,-8.918,0.73,-4.606,3.92,6.02,1.47
,-8.871,1.015,-4.826,-8.99,0.751,-4.525,5.18,5.74,0.63
37480.0,-8.866,0.713,-4.999,-9.213,-0.266,-4.664,8.05,3.64,-3.71
,-8.454,0.266,-5.049,-9.012,-0.486,-4.525,5.39,3.85,-3.92
,-8.442,0.043,-4.97,-8.593,-0.486,-4.707,4.9,4.2,-3.85
,-8.734,-0.187,-4.853,-8.311,-0.553,-4.793,5.11,4.34,-3.92
37556.0,-8.37,-0.735,-4.862,-9.033,-0.914,-4.893,2.24,4.2,0.14
,-8.696,-0.732,-4.97,-8.933,-0.715,-4.752,3.29,4.27,0.91
,-9.086,-0.888,-5.023,-8.861,-0.519,-4.499,4.34,3.85,1.82
,-9.122,-1.244,-4.759,-8.603,-0.151,-4.563,6.16,3.64,2.59
37631.0,-8.612,0.045,-4.85,-8.378,-0.096,-5.102,14.98,1.75,5.6
,-8.835,0.613,-5.08,-8.935,-0.055,-5.164,13.65,1.19,5.39
,-8.49,0.589,-5.214,-9.232,0.471,-4.951,11.2,1.12,5.67
,-8.392,0.335,-5.159,-8.665,0.799,-5.02,9.59,1.47,6.23
37707.0,-8.469,0.775,-5.083,-8.67,-0.287,-4.762,8.89,-1.33,4.76
,-8.739,0.378,-4.908,-8.658,-0.333,-4.625,4.9,-1.26,4.06
,-9.014,0.036,-4.736,-8.588,-0.024,-4.891,3.43,-1.4,3.85
,-8.93,-0.179,-4.724,-8.693,0.359,-5.087,3.36,-0.84,3.99
37783.0,-8.911,0.732,-5.173,-8.662,-0.017,-4.681,4.06,-0.77,4.62
,-8.849,0.522,-5.075,-8.677,0.218,-4.798,1.54,-0.14,4.41
,-8.729,0.33,-5.004,-8.753,0.467,-4.623,0.0,0.42,3.85
,-8.67,0.06,-4.898,-8.586,0.847,-4.944,-0.14,1.12,3.36
37858.0,-8.552,0.921,-5.032,-8.792,0.022,-4.812,-2.66,0.63,2.59
,-8.77,0.84,-5.09,-8.732,0.11,-4.917,-5.95,1.19,2.17
,-9.019,0.397,-4.721,-8.966,0.347,-4.939,-7.91,1.19,1.61
,-8.899,0.057,-4.738,-9.021,0.297,-4.707,-9.59,1.4,1.19
37934.0,-8.933,0.352,-4.642,-8.722,-0.4,-4.757,-2.94,-0.56,-0.07
,-8.768,0.239,-4.738,-8.851,-0.443,-4.532,-3.71,-0.42,0.49
,-8.684,0.026,-4.623,-9.079,-0.148,-4.434,-4.9,-0.63,0.84
,-8.746,-0.273,-4.666,-9.043,-0.144,-4.477,-5.67,-0.84,0.98
38010.0,-8.949,-0.055,-4.46,-8.732,-0.179,-4.865,-1.4,-0.49,2.31
,-8.796,-0.024,-4.649,-9.215,0.424,-4.977,-1.4,-1.4,3.57
,-8.55,-0.419,-4.841,-9.033,1.151,-5.011,-2.94,-1.75,4.9
,-8.449,-0.426,-4.949,-8.5,1.572,-4.889,-1.47,-1.33,5.74
38086.0,-8.452,1.637,-4.74,-8.854,0.816,-4.724,-2.66,-4.13,3.08
,-8.717,1.175,-4.477,-8.61,0.852,-4.786,-6.51,-3.78,2.03
,-9.141,0.859,-4.468,-8.665,0.723,-4.695,-7.42,-3.85,0.49
,-9.143,0.735,-4.539,-8.976,0.548,-4.48,-6.3,-3.85,-0.49
38161.0,-9.057,0.488,-4.604,-8.847,0.526,-4.3,1.47,-5.25,-4.97
,-8.94,0.333,-4.489,-8.842,0.787,-4.269,1.12,-5.39,-4.27
,-8.77,0.165,-4.396,-8.902,0.866,-4.405,1.4,-4.76,-3.92
,-8.835,0.263,-4.365,-8.921,0.572,-4.369,3.01,-4.62,-4.27
