Timestamp,AccX,AccY,AccZ,GyroX,GyroY,GyroZ,MagnX,MagnY,MagnZ
0.0,-9.306,-0.948,-3.319,-9.299,-0.873,-3.23,2.45,1.33,0.77
,-9.28,-0.897,-3.312,-9.349,-0.897,-3.238,2.73,1.19,0.77
,-9.294,-0.861,-3.271,-9.325,-0.964,-3.247,2.87,1.12,0.63
,-9.34,-0.823,-3.238,-9.316,-0.974,-3.264,2.52,1.12,0.56
75.0,-9.342,-0.938,-3.218,-9.316,-0.873,-3.326,3.01,1.54,0.7
,-9.371,-0.9,-3.197,-9.342,-0.945,-3.343,3.08,1.75,0.84
,-9.347,-0.876,-3.23,-9.301,-0.921,-3.36,2.66,1.82,0.77
,-9.306,-0.888,-3.281,-9.296,-0.955,-3.336,2.45,1.82,0.56
151.0,-9.282,-0.933,-3.257,-9.328,-0.885,-3.247,2.94,1.47,0.63
,-9.34,-0.916,-3.247,-9.301,-0.926,-3.262,3.01,1.54,0.63
,-9.363,-0.883,-3.252,-9.311,-0.921,-3.312,2.94,1.54,0.56
,-9.387,-0.876,-3.252,-9.299,-0.945,-3.393,2.66,1.47,0.49
227.0,-9.337,-0.948,-3.403,-9.323,-0.888,-3.226,2.59,1.4,0.49
,-9.32,-0.981,-3.331,-9.342,-0.928,-3.254,3.15,1.4,0.63
,-9.328,-0.94,-3.312,-9.354,-0.928,-3.285,3.43,1.4,0.63
,-9.282,-0.878,-3.223,-9.328,-0.964,-3.302,3.29,1.61,0.7
302.0,-9.325,-0.945,-3.393,-9.282,-0.9,-3.211,2.59,1.26,0.63
,-9.256,-0.928,-3.4,-9.351,-0.866,-3.156,3.43,1.26,0.63
,-9.261,-0.931,-3.333,-9.306,-0.945,-3.139,3.78,1.33,0.77
,-9.249,-0.912,-3.262,-9.371,-0.983,-3.159,4.06,1.33,0.84
378.0,-9.33,-0.907,-3.23,-9.318,-0.89,-3.343,2.45,1.68,0.56
,-9.32,-0.893,-3.309,-9.332,-0.95,-3.333,2.52,1.75,0.7
,-9.308,-0.979,-3.326,-9.308,-0.919,-3.302,2.24,1.82,0.84
,-9.344,-0.979,-3.348,-9.354,-0.907,-3.266,2.59,1.68,0.7
453.0,-9.332,-0.881,-3.262,-9.308,-0.955,-3.305,2.24,1.33,0.7
,-9.311,-0.907,-3.307,-9.316,-0.967,-3.259,2.1,1.4,0.7
,-9.325,-0.933,-3.283,-9.361,-0.969,-3.218,2.31,1.47,0.77
,-9.299,-0.909,-3.293,-9.349,-0.991,-3.185,2.31,1.47,0.7
529.0,-9.325,-0.897,-3.254,-9.332,-1.019,-3.422,2.03,1.47,0.7
,-9.356,-0.952,-3.269,-9.306,-0.998,-3.357,1.89,1.47,0.7
,-9.311,-0.914,-3.35,-9.344,-0.94,-3.24,1.68,1.4,0.77
,-9.311,-0.928,-3.391,-9.328,-0.902,-3.211,1.54,1.19,0.7
605.0,-9.363,-0.869,-3.19,-9.273,-1.012,-3.314,3.01,1.33,0.98
,-9.323,-0.869,-3.202,-9.299,-0.95,-3.293,2.52,1.33,0.91
,-9.342,-0.897,-3.285,-9.287,-0.916,-3.25,2.24,1.12,0.77
,-9.349,-0.95,-3.29,-9.34,-0.897,-3.218,2.31,1.19,0.84
681.0,-9.368,-0.902,-3.238,-9.304,-0.957,-3.343,2.45,1.4,0.91
,-9.371,-0.907,-3.285,-9.308,-0.914,-3.317,1.96,1.26,0.84
,-9.32,-0.943,-3.264,-9.299,-0.912,-3.321,1.89,1.26,0.84
,-9.311,-0.957,-3.345,-9.335,-0.905,-3.283,2.24,1.47,0.84
757.0,-9.366,-0.881,-3.238,-9.359,-0.955,-3.104,2.8,1.12,0.91
,-9.356,-0.9,-3.199,-9.411,-0.9,-3.202,2.52,1.26,0.77
,-9.292,-0.926,-3.128,-9.351,-0.9,-3.285,2.17,1.26,0.84
,-9.287,-0.962,-3.094,-9.378,-0.907,-3.362,2.24,1.61,0.84
832.0,-9.268,-0.95,-3.348,-9.356,-0.933,-3.259,1.61,1.61,0.84
,-9.256,-0.986,-3.374,-9.356,-0.948,-3.242,2.03,1.54,0.91
,-9.328,-0.897,-3.398,-9.301,-0.909,-3.273,2.24,1.54,0.84
,-9.347,-0.926,-3.312,-9.268,-0.957,-3.247,2.1,1.4,0.84
908.0,-9.289,-0.95,-3.259,-9.296,-0.983,-3.199,2.45,1.05,0.84
,-9.296,-0.936,-3.305,-9.335,-0.893,-3.245,2.87,1.26,0.98
,-9.318,-0.921,-3.324,-9.311,-0.852,-3.159,2.94,1.33,0.98
,-9.325,-0.936,-3.302,-9.351,-0.885,-3.163,2.59,1.26,0.77
984.0,-9.363,-0.895,-3.178,-9.249,-0.945,-3.295,2.1,1.61,0.84
,-9.337,-0.835,-3.245,-9.296,-0.914,-3.216,1.68,1.68,0.84
,-9.282,-0.83,-3.281,-9.316,-0.857,-3.202,1.19,1.75,0.7
,-9.301,-0.859,-3.281,-9.323,-0.83,-3.197,0.7,1.75,0.49
1060.0,-9.347,-0.778,-3.214,-9.27,-0.845,-3.324,-0.77,1.68,-0.21
,-9.287,-0.912,-3.216,-9.383,-0.84,-3.34,-1.12,1.75,-0.21
,-9.325,-0.881,-3.278,-9.313,-0.828,-3.319,-0.91,1.82,-0.28
,-9.28,-0.885,-3.218,-9.34,-0.873,-3.345,-0.56,2.03,-0.35
1135.0,-9.335,-0.854,-3.345,-9.325,-0.869,-3.333,-1.54,1.54,-0.91
,-9.344,-0.883,-3.384,-9.32,-0.833,-3.427,-1.54,1.47,-0.98
,-9.306,-0.864,-3.417,-9.268,-0.852,-3.422,-1.47,1.61,-0.98
,-9.342,-0.821,-3.396,-9.32,-0.814,-3.357,-1.26,1.26,-1.05
1211.0,-9.325,-0.859,-3.35,-9.328,-0.907,-3.128,-0.28,0.77,-1.19
,-9.306,-0.926,-3.218,-9.304,-0.735,-3.183,-0.35,0.63,-1.33
,-9.337,-1.012,-3.187,-9.306,-0.744,-3.228,-0.21,1.05,-1.26
,-9.359,-1.175,-2.95,-9.306,-0.943,-3.233,0.7,1.19,-1.05
1286.0,-9.311,-0.907,-3.616,-9.328,-0.756,-3.441,-2.45,0.91,-1.75
,-9.275,-0.974,-3.484,-9.256,-0.811,-3.163,-1.12,1.26,-1.47
,-9.318,-1.079,-3.312,-9.277,-0.828,-3.132,-0.63,1.26,-1.4
,-9.354,-0.924,-3.594,-9.261,-0.828,-3.245,0.42,1.19,-1.33
1362.0,-9.296,-0.847,-3.242,-9.33,-0.974,-3.226,-2.24,1.19,-1.96
,-9.383,-0.682,-3.269,-9.299,-0.849,-3.252,-2.8,1.12,-2.1
,-9.378,-0.847,-3.283,-9.337,-0.814,-3.307,-3.85,1.19,-2.24
,-9.349,-1.012,-3.199,-9.342,-0.871,-3.29,-3.99,1.54,-2.24
1438.0,-9.316,-0.895,-3.386,-9.237,-0.967,-3.372,-3.43,1.82,-2.17
,-9.296,-1.017,-3.443,-9.32,-0.802,-3.166,-3.64,1.68,-2.24
,-9.268,-1.065,-3.472,-9.311,-0.694,-3.077,-2.8,1.61,-2.1
,-9.292,-1.019,-3.482,-9.28,-0.632,-2.91,-1.89,1.33,-2.03
1514.0,-9.373,-0.601,-2.979,-9.287,-1.302,-2.747,-4.48,2.17,-2.94
,-9.354,-0.838,-2.936,-9.34,-1.055,-2.864,-7.35,2.45,-3.29
,-9.32,-1.153,-2.888,-9.378,-0.869,-3.003,-8.54,2.87,-3.43
,-9.277,-1.409,-2.79,-9.306,-0.838,-3.156,-7.77,3.64,-3.15
1590.0,-9.232,-1.041,-3.123,-9.387,-0.629,-3.455,-7.42,6.09,-2.87
,-9.284,-1.103,-3.242,-9.435,-0.409,-3.582,-7.07,6.3,-2.94
,-9.256,-1.115,-3.386,-9.332,-0.538,-3.393,-5.95,6.23,-3.08
,-9.287,-0.871,-3.463,-9.21,-0.737,-3.398,-4.13,6.3,-3.36
1665.0,-9.093,-1.129,-3.312,-9.368,-0.383,-3.281,-18.97,4.76,-6.16
,-9.098,-1.436,-3.022,-9.141,-0.794,-2.986,-16.31,5.67,-5.81
,-9.265,-1.096,-2.982,-9.263,-1.079,-3.613,-13.16,6.23,-6.3
,-9.442,-0.67,-2.941,-9.131,-1.651,-3.743,-11.83,6.65,-6.86
1741.0,-9.028,-2.063,-3.778,-9.177,-0.66,-3.357,-19.81,7.07,-5.6
,-9.083,-2.012,-3.762,-9.208,-0.493,-3.08,-11.76,7.98,-4.34
,-9.217,-1.826,-3.587,-9.22,-0.531,-2.826,-2.87,9.17,-3.15
,-9.256,-1.283,-3.379,-9.328,-0.407,-3.01,3.64,9.52,-2.52
1817.0,-9.313,-0.507,-3.228,-8.966,-1.512,-3.338,-7.77,10.43,-4.69
,-9.201,-0.538,-3.807,-9.127,-0.826,-3.625,-12.25,10.01,-5.6
,-8.938,-1.153,-3.845,-8.942,-0.56,-4.03,-15.47,10.36,-5.88
,-8.945,-1.594,-3.687,-9.04,-0.931,-3.975,-11.83,11.48,-4.97
1893.0,-9.177,-1.424,-3.989,-9.172,0.223,-3.888,-5.18,11.13,-4.27
,-9.182,-1.622,-3.506,-9.105,-0.388,-4.02,-0.91,12.46,-3.78
,-9.328,-1.235,-3.283,-8.909,-1.072,-3.74,4.83,13.23,-3.43
,-9.311,-0.242,-3.498,-8.861,-1.23,-3.233,6.86,12.81,-4.41
1968.0,-8.744,-1.098,-3.692,-9.139,-1.381,-3.716,3.22,13.58,-6.79
,-8.815,-0.735,-3.731,-9.112,-1.17,-3.113,3.71,12.74,-7.35
,-9.081,-0.957,-3.975,-9.227,-0.835,-3.707,-0.7,11.9,-7.63
,-9.134,-1.292,-3.963,-9.045,-0.359,-4.116,-4.41,11.48,-7.91
2044.0,-8.873,-0.737,-4.489,-9.012,-1.096,-3.649,-12.11,10.85,-9.59
,-8.72,-1.342,-4.515,-8.825,-1.0,-3.553,-12.74,11.48,-9.03
,-8.753,-1.783,-4.346,-8.976,-1.01,-3.585,-7.7,13.23,-8.68
,-8.976,-1.541,-3.831,-8.789,-1.168,-3.905,0.42,14.56,-8.82
2119.0,-8.909,-1.383,-3.793,-9.086,-2.493,-4.121,-9.38,13.72,-8.82
,-8.595,-1.716,-4.171,-8.938,-1.788,-4.283,-13.37,13.3,-8.47
,-8.734,-2.118,-4.037,-8.516,-1.311,-4.86,-13.51,14.07,-7.63
,-9.112,-2.391,-4.386,-8.48,-0.909,-4.535,-9.94,14.98,-6.51
2195.0,-8.495,-0.785,-4.611,-8.823,-0.407,-4.535,6.09,14.49,-4.69
,-8.447,-0.553,-4.058,-8.794,-0.799,-4.587,6.44,15.47,-5.18
,-8.801,-0.373,-4.216,-8.713,-1.472,-4.006,4.83,15.54,-6.09
,-8.653,-0.469,-4.269,-8.727,-1.833,-3.515,0.77,14.84,-7.14
2271.0,-8.806,-1.852,-3.309,-8.21,-2.249,-4.417,-4.13,18.9,-8.75
,-8.612,-1.704,-3.63,-8.174,-2.252,-4.372,-3.57,18.34,-8.61
,-8.902,-1.563,-4.025,-7.944,-1.689,-4.429,-5.95,17.99,-8.19
,-8.605,-1.792,-4.496,-8.332,-1.017,-4.475,-9.45,17.92,-7.28
2347.0,-8.746,-0.364,-4.396,-8.133,-1.591,-4.346,-4.9,21.98,-6.51
,-9.016,-0.952,-4.183,-8.117,-1.405,-4.429,-10.01,23.03,-7.56
,-8.914,-1.455,-4.192,-8.215,-1.074,-4.759,-13.86,23.66,-6.86
,-8.784,-1.701,-4.152,-8.612,-0.531,-5.403,-13.65,23.94,-6.72
2423.0,-8.653,-0.134,-5.75,-8.531,-1.469,-5.762,-14.84,22.54,-9.94
,-8.124,0.538,-6.131,-8.823,-2.647,-5.305,-16.94,21.0,-11.55
,-7.712,0.474,-6.289,-8.471,-3.632,-4.958,-22.54,20.23,-13.72
,-8.157,-0.273,-6.088,-7.928,-4.104,-4.898,-26.88,21.07,-15.05
2498.0,-7.703,-4.121,-5.006,-8.141,-1.144,-6.135,-2.52,23.38,-8.4
,-7.662,-3.709,-5.181,-8.256,-0.802,-6.238,1.47,24.15,-5.32
,-7.775,-3.161,-5.221,-8.035,-0.723,-5.913,2.8,24.5,-2.31
,-8.035,-2.235,-5.465,-7.521,-0.96,-5.786,2.73,23.73,0.0
2574.0,-7.758,-1.022,-5.513,-7.655,-0.347,-5.602,-2.94,22.68,-1.4
,-8.265,-1.182,-5.272,-7.794,-0.749,-5.451,0.0,22.47,-2.03
,-8.416,-1.082,-5.176,-8.248,-1.462,-5.329,3.22,22.4,-2.87
,-8.22,-0.486,-5.353,-8.373,-1.268,-5.659,4.34,21.98,-3.36
2650.0,-8.088,-0.275,-6.186,-7.696,-1.149,-6.037,2.52,22.96,-6.09
,-7.705,0.426,-6.578,-7.619,-2.163,-5.628,3.15,21.28,-8.4
,-7.736,0.352,-6.463,-7.526,-2.486,-5.528,0.49,21.91,-10.43
,-7.921,-0.122,-6.243,-7.595,-2.434,-5.537,-3.85,21.28,-11.55
2726.0,-7.727,-2.302,-5.769,-7.038,-0.849,-6.954,4.41,23.94,-9.59
,-7.748,-2.18,-5.899,-7.277,-0.895,-6.75,3.43,25.34,-8.82
,-7.669,-2.115,-6.145,-7.48,-1.094,-6.664,2.8,26.39,-8.19
,-7.318,-1.402,-6.758,-7.648,-1.452,-6.485,2.24,25.48,-7.84
2801.0,-7.717,-2.101,-6.312,-7.107,-4.606,-5.989,-5.18,25.13,-11.76
,-7.509,-2.97,-6.174,-7.382,-3.381,-6.528,-3.36,25.13,-10.85
,-7.365,-3.728,-5.956,-7.396,-1.857,-7.227,-0.35,25.48,-9.03
,-7.203,-4.42,-5.951,-7.229,-1.12,-7.387,4.34,25.9,-6.65
2877.0,-6.951,-1.287,-7.318,-6.975,-2.517,-6.925,-0.28,23.45,0.84
,-6.906,-2.19,-7.124,-7.105,-1.199,-7.27,-7.07,23.31,2.94
,-6.997,-2.986,-6.75,-7.239,-0.668,-6.927,-7.84,23.38,4.48
,-7.148,-3.364,-6.707,-7.164,-0.802,-6.604,-3.08,23.52,5.25
2952.0,-7.246,-1.35,-6.473,-6.949,-0.617,-7.265,1.12,22.33,2.31
,-7.181,-1.61,-6.401,-6.858,-0.66,-7.509,-0.63,22.75,2.17
,-7.167,-1.316,-6.82,-7.03,-1.022,-7.004,0.84,22.19,0.98
,-7.325,-1.027,-7.076,-6.853,-1.498,-6.736,3.08,21.14,-0.14
3028.0,-6.889,-1.814,-6.382,-7.181,-1.158,-7.318,-0.21,19.88,-3.29
,-6.827,-1.945,-6.525,-7.373,-1.297,-7.205,-0.28,20.09,-2.59
,-6.667,-1.515,-7.119,-7.035,-1.63,-7.456,0.77,19.81,-2.52
,-6.904,-1.132,-7.353,-6.722,-2.046,-7.54,0.14,19.46,-3.85
3104.0,-6.54,-2.335,-7.581,-6.423,-0.823,-7.583,-6.72,15.61,-6.09
,-6.353,-2.187,-7.722,-6.913,-1.383,-7.583,-2.52,15.4,-7.07
,-6.104,-1.299,-7.949,-7.038,-1.895,-7.291,1.82,14.35,-7.91
,-5.927,-0.735,-7.851,-6.939,-1.96,-7.105,0.98,13.93,-8.19
3180.0,-6.561,-2.101,-7.102,-6.616,-2.922,-7.351,-9.45,9.03,-8.96
,-6.892,-2.046,-7.186,-6.322,-2.864,-7.59,-10.99,9.24,-8.33
,-6.894,-2.56,-7.267,-6.162,-2.546,-7.466,-13.23,9.73,-6.58
,-6.791,-2.74,-7.447,-6.411,-2.067,-7.672,-13.09,10.36,-5.18
3256.0,-6.444,-1.658,-7.935,-6.698,-2.338,-7.93,-11.76,9.24,0.42
,-6.178,-1.218,-8.074,-6.92,-2.84,-7.688,-14.21,7.63,0.35
,-6.064,-1.448,-8.239,-6.58,-3.013,-7.542,-17.5,6.02,0.49
,-6.413,-1.917,-8.2,-6.341,-2.606,-7.499,-19.6,4.83,1.26
3331.0,-6.353,-2.118,-7.782,-6.557,-1.754,-7.485,-5.32,2.38,5.95
,-6.435,-2.156,-7.392,-6.628,-1.658,-7.447,-7.07,2.8,6.16
,-6.71,-2.01,-7.454,-6.222,-1.754,-7.327,-7.84,2.8,6.65
,-6.621,-1.802,-7.49,-6.243,-1.874,-7.308,-8.05,3.15,7.14
3407.0,-6.525,-1.874,-7.533,-6.389,-1.027,-7.526,-8.89,-0.63,10.92
,-6.652,-1.84,-7.772,-6.011,-0.943,-7.566,-6.3,-0.42,10.71
,-6.755,-1.448,-7.83,-6.513,-0.881,-7.545,-3.01,-0.14,9.8
,-6.748,-1.077,-7.71,-6.822,-0.522,-7.688,-1.82,-0.35,9.59
3483.0,-6.849,-0.383,-7.889,-6.559,-1.249,-7.389,0.0,-1.61,7.21
,-6.753,-0.373,-7.935,-6.679,-1.218,-7.241,0.63,-2.66,6.51
,-6.566,-0.637,-7.743,-6.604,-1.117,-7.406,1.19,-3.22,5.81
,-6.638,-1.015,-7.502,-6.887,-1.022,-7.731,2.03,-3.08,4.9
3559.0,-7.059,-1.275,-7.667,-6.43,-1.448,-7.449,2.87,-5.53,0.63
,-6.86,-1.749,-7.621,-6.619,-1.079,-7.44,3.5,-6.23,1.19
,-6.463,-1.783,-7.444,-6.844,-1.005,-7.487,5.18,-5.11,2.73
,-6.401,-1.632,-7.394,-6.906,-1.189,-7.332,6.79,-3.99,3.71
3634.0,-6.679,-1.388,-7.428,-6.643,-0.12,-7.921,-0.42,-7.98,5.6
,-6.631,-1.644,-7.365,-6.698,-0.014,-7.729,0.63,-7.84,6.37
,-6.767,-1.342,-7.44,-6.88,-0.668,-7.528,5.18,-7.28,5.25
,-6.894,-0.948,-7.59,-6.832,-1.299,-7.191,10.22,-8.12,2.17
3710.0,-6.652,-1.776,-7.148,-6.705,-1.943,-6.987,9.87,-11.06,0.35
,-6.485,-2.032,-7.057,-6.784,-2.029,-6.944,12.74,-11.2,0.28
,-6.64,-2.06,-7.042,-6.707,-2.233,-6.839,14.7,-11.34,0.7
,-6.54,-2.005,-7.026,-6.803,-2.194,-6.92,14.49,-10.64,1.82
3785.0,-6.887,-1.747,-6.971,-7.059,-1.005,-6.98,14.98,-8.4,8.54
,-6.959,-1.086,-7.215,-6.746,-1.156,-6.901,17.29,-8.26,7.77
,-7.279,-0.828,-7.15,-6.679,-1.338,-6.963,16.03,-7.63,7.21
,-7.43,-0.921,-7.073,-6.932,-1.376,-7.255,13.86,-7.77,7.07
3861.0,-7.124,-1.352,-7.262,-7.071,-1.007,-6.966,11.27,-9.31,6.72
,-7.191,-1.106,-7.38,-6.983,-1.266,-6.755,12.74,-10.01,6.09
,-7.167,-0.969,-7.306,-6.827,-1.163,-7.052,12.25,-10.85,5.18
,-7.143,-0.921,-7.169,-7.023,-1.232,-7.32,10.36,-11.34,5.18
3937.0,-7.387,-1.627,-7.198,-6.968,-1.101,-7.15,5.81,-13.93,7.35
,-7.097,-1.651,-7.131,-7.059,-1.192,-7.188,8.26,-14.56,6.65
,-7.105,-1.491,-7.143,-7.399,-1.254,-7.064,10.15,-14.7,6.09
,-7.361,-1.173,-7.078,-7.535,-1.39,-6.858,10.64,-15.54,6.02
4013.0,-7.449,-1.388,-6.703,-7.432,-0.859,-6.645,8.26,-19.6,6.02
,-7.169,-1.184,-6.631,-7.452,-0.632,-6.789,8.61,-19.67,7.0
,-6.738,-1.134,-6.774,-7.559,-0.505,-6.626,7.91,-19.6,7.0
,-7.14,-1.137,-6.7,-7.401,-0.57,-6.619,7.14,-19.18,6.72
4088.0,-7.365,-0.61,-6.473,-7.703,-0.562,-6.195,0.28,-19.67,4.27
,-7.246,-0.57,-6.518,-7.392,-0.732,-5.932,0.0,-19.67,3.43
,-7.552,-0.555,-6.521,-7.542,-0.797,-5.815,0.21,-19.46,2.31
,-7.949,-0.67,-6.212,-7.614,-0.876,-6.114,0.63,-19.6,1.12
4164.0,-7.746,-1.141,-6.155,-7.356,-1.756,-6.004,2.52,-19.04,-2.66
,-7.722,-1.464,-5.91,-7.935,-1.744,-5.82,2.17,-18.69,-1.82
,-7.708,-1.414,-5.994,-7.846,-1.685,-5.992,0.56,-18.27,-1.89
,-7.21,-1.548,-6.064,-7.629,-1.79,-6.083,-0.21,-17.85,-1.82
4240.0,-7.669,-2.065,-5.977,-7.949,-1.551,-5.86,-2.73,-16.66,2.03
,-7.672,-2.065,-6.001,-7.944,-1.534,-5.879,-1.61,-15.82,2.52
,-7.631,-1.922,-5.925,-7.923,-1.618,-5.846,0.21,-14.77,2.73
,-7.88,-1.668,-5.815,-7.636,-1.618,-5.997,0.91,-14.14,3.29
4316.0,-7.722,-1.711,-6.064,-8.009,-1.429,-5.564,3.64,-12.67,5.32
,-8.066,-1.579,-5.894,-7.911,-1.256,-5.784,5.6,-11.62,5.04
,-8.11,-1.457,-5.87,-7.653,-0.986,-5.865,7.77,-10.85,4.83
,-7.875,-1.287,-5.942,-7.834,-1.115,-5.86,9.1,-9.8,5.04
4392.0,-8.323,-1.134,-5.817,-7.796,-1.259,-5.803,1.68,-13.44,7.21
,-8.301,-1.192,-5.867,-7.961,-1.184,-5.855,0.91,-13.3,6.93
,-8.1,-1.218,-5.832,-8.009,-1.141,-5.872,1.19,-13.65,6.65
,-7.746,-1.28,-5.899,-8.294,-1.084,-5.662,1.54,-13.58,6.65
4467.0,-8.433,-1.06,-5.518,-8.066,-1.732,-5.394,6.86,-8.96,6.72
,-8.186,-0.924,-5.7,-8.378,-1.591,-5.465,3.92,-9.87,7.42
,-8.028,-1.548,-5.599,-8.327,-1.34,-5.537,3.01,-10.01,7.56
,-7.995,-1.852,-5.47,-8.148,-1.204,-5.59,1.54,-11.48,8.82
4543.0,-8.136,-1.187,-5.822,-8.234,-1.543,-5.808,-5.25,-19.25,12.46
,-8.002,-1.34,-5.714,-8.488,-1.421,-5.556,-6.09,-18.62,13.16
,-8.052,-1.517,-5.736,-8.552,-1.237,-5.463,-5.04,-17.57,13.58
,-8.124,-1.577,-5.743,-8.236,-0.9,-5.666,-2.17,-16.38,13.93
4618.0,-8.014,-0.718,-5.633,-8.531,-0.787,-5.276,10.64,-17.57,14.98
,-8.337,-0.708,-5.494,-8.332,-0.998,-5.202,8.68,-18.69,15.47
,-8.524,-0.591,-5.398,-8.346,-0.861,-5.08,6.16,-21.14,15.4
,-8.547,-0.584,-5.36,-8.145,-0.835,-5.138,3.71,-21.84,15.12
4694.0,-8.143,-0.737,-5.233,-8.574,-0.613,-4.805,11.55,-17.43,15.12
,-8.504,-0.646,-5.059,-8.387,-0.711,-4.762,14.84,-16.38,15.05
,-8.868,-0.514,-4.996,-8.433,-0.735,-4.855,16.59,-16.52,14.63
,-8.78,-0.452,-4.922,-8.552,-0.797,-4.704,16.59,-16.66,14.63
4770.0,-8.722,-0.699,-4.654,-8.605,-0.373,-4.429,15.68,-21.63,15.05
,-8.823,-0.541,-4.652,-8.607,-0.266,-4.331,16.24,-22.12,14.98
,-8.825,-0.452,-4.721,-8.672,-0.223,-4.164,16.31,-22.47,14.42
,-8.732,-0.402,-4.566,-8.789,-0.048,-4.267,15.82,-22.4,14.14
4846.0,-8.837,0.122,-4.491,-8.89,-0.256,-3.819,16.45,-23.8,11.83
,-8.959,-0.053,-4.496,-8.933,0.041,-3.843,13.86,-23.94,11.76
,-8.978,-0.29,-4.422,-8.892,0.144,-3.908,13.23,-23.87,11.06
,-8.794,-0.335,-4.147,-8.973,0.019,-4.111,14.0,-23.38,10.01
4921.0,-9.036,-0.412,-3.975,-8.885,-0.328,-3.417,5.74,-23.1,7.07
,-9.076,-0.749,-3.845,-8.837,-0.165,-3.642,7.98,-21.91,7.07
,-8.933,-0.696,-3.331,-9.04,-0.273,-3.865,12.32,-20.86,6.58
,-8.988,-0.577,-3.305,-9.129,-0.534,-3.656,16.03,-20.37,6.02
4997.0,-9.141,-0.526,-3.276,-9.043,0.383,-3.506,12.6,-18.97,5.88
,-9.124,-0.208,-3.297,-8.899,0.06,-3.692,15.47,-17.92,5.04
,-9.057,0.266,-3.245,-9.11,-0.409,-3.123,14.28,-17.29,4.13
,-9.06,0.412,-3.001,-9.385,-0.479,-3.032,10.78,-17.43,3.57
5073.0,-9.28,-0.275,-2.498,-9.234,-0.486,-3.025,13.16,-14.14,1.33
,-9.361,0.038,-2.783,-9.155,-0.78,-2.766,15.12,-13.37,0.7
,-9.261,0.313,-2.833,-9.155,-0.644,-2.56,10.08,-13.51,0.0
,-9.359,-0.031,-3.183,-9.282,-0.27,-2.706,4.9,-13.16,-0.21
5149.0,-9.442,-0.179,-2.553,-9.203,-0.692,-2.953,9.03,-7.77,-1.05
,-9.562,-0.285,-3.046,-9.246,-0.436,-2.764,7.0,-7.49,-1.26
,-9.354,-0.553,-2.962,-9.325,-0.079,-2.994,5.81,-6.86,-1.05
,-9.227,-0.84,-2.96,-9.261,-0.022,-3.185,8.82,-5.74,-0.56
5225.0,-9.287,-0.151,-3.247,-9.284,-0.821,-3.343,8.26,-3.78,-1.26
,-9.337,-0.357,-3.52,-9.294,-1.012,-2.737,6.65,-4.13,-1.75
,-9.256,-0.562,-3.644,-9.612,-0.78,-2.986,5.88,-4.27,-2.1
,-9.241,-0.826,-3.223,-9.416,-0.507,-3.195,7.35,-3.71,-1.82
5300.0,-9.213,-0.565,-3.422,-9.38,-0.806,-3.302,6.02,-4.06,-1.61
,-9.174,-0.9,-3.321,-9.256,-0.897,-3.065,4.55,-3.99,-1.47
,-9.206,-0.928,-3.364,-9.38,-0.969,-2.96,6.3,-3.78,-1.26
,-9.215,-0.816,-3.218,-9.306,-0.775,-2.706,7.77,-3.71,-1.19
5376.0,-9.45,-0.653,-2.946,-9.351,-0.821,-2.984,10.15,-2.8,0.0
,-9.344,-0.601,-2.773,-9.217,-0.866,-2.864,8.05,-2.52,-0.14
,-9.44,-0.725,-2.749,-9.299,-0.998,-2.702,7.07,-1.82,0.0
,-9.447,-0.715,-3.02,-9.38,-0.902,-2.429,5.81,-1.68,-0.07
5451.0,-9.596,-0.529,-2.508,-9.203,-0.952,-2.948,7.91,1.61,0.35
,-9.502,-0.17,-2.881,-9.33,-0.895,-2.927,5.53,1.82,0.07
,-9.368,-0.225,-3.039,-9.411,-0.72,-2.824,1.26,1.54,-0.14
,-9.251,-0.505,-3.132,-9.502,-0.672,-2.728,-2.1,1.68,-0.35
5527.0,-9.552,-0.459,-2.96,-9.162,-1.05,-3.565,2.94,3.43,-0.14
,-9.428,-0.481,-3.23,-9.299,-1.065,-3.24,-0.07,2.94,-0.56
,-9.28,-0.56,-3.515,-9.442,-0.835,-3.096,-3.08,2.59,-0.84
,-9.244,-0.814,-3.649,-9.521,-0.586,-3.001,-3.85,2.45,-1.05
5603.0,-9.426,-0.531,-3.051,-9.347,-1.177,-3.106,0.21,2.03,-0.42
,-9.323,-0.677,-3.156,-9.45,-0.967,-3.12,-2.1,2.03,-0.49
,-9.32,-0.926,-3.288,-9.514,-0.684,-3.099,-2.8,2.1,-0.49
,-9.227,-1.067,-3.228,-9.481,-0.486,-3.223,-1.54,2.24,-0.14
5679.0,-9.375,-0.548,-3.417,-9.363,-0.773,-2.728,-1.05,2.31,0.35
,-9.182,-0.766,-3.427,-9.538,-0.663,-2.589,-2.1,2.45,0.49
,-9.261,-0.861,-3.448,-9.55,-0.639,-2.855,-0.35,2.38,0.63
,-9.304,-0.838,-3.116,-9.359,-0.593,-2.989,1.61,2.87,0.84
5754.0,-9.249,-0.704,-3.063,-9.354,-0.754,-2.974,-2.66,4.34,0.91
,-9.268,-0.773,-3.309,-9.361,-0.73,-2.769,-2.94,4.41,0.7
,-9.246,-0.94,-3.192,-9.414,-0.617,-2.711,-2.52,4.62,0.77
,-9.32,-0.849,-3.132,-9.481,-0.455,-2.898,-1.47,5.04,1.12
5830.0,-9.402,-0.471,-3.099,-9.418,-0.5,-3.369,-3.71,6.58,0.77
,-9.275,-0.591,-3.171,-9.282,-0.572,-3.374,-5.25,6.58,0.63
,-9.239,-0.775,-3.192,-9.344,-0.689,-3.276,-5.46,7.0,0.49
,-9.198,-0.857,-2.972,-9.316,-0.759,-3.372,-4.2,7.49,0.56
5906.0,-9.103,-0.739,-3.403,-9.407,0.034,-2.28,-6.23,7.0,-0.07
,-9.0,-0.45,-3.075,-9.442,0.098,-2.106,-6.09,7.21,-0.49
,-9.16,-0.33,-2.702,-9.356,0.201,-2.192,-7.0,8.19,-1.05
,-9.447,-0.153,-2.412,-9.119,-0.105,-2.113,-7.56,9.31,-1.82
5982.0,-8.995,-0.385,-2.132,-9.72,0.117,-1.364,-8.82,17.99,-3.15
,-9.15,-0.476,-1.754,-9.521,0.648,-3.001,-4.83,20.37,-2.94
,-9.407,-0.424,-1.819,-8.88,0.498,-4.166,-0.49,23.03,-2.87
,-9.517,-0.103,-1.78,-8.705,-0.572,-4.932,1.33,25.2,-3.64
6058.0,-8.607,-1.558,-5.425,-9.414,-0.493,-2.9,-27.02,23.38,-9.31
,-8.708,-2.359,-4.829,-9.012,-0.086,-3.836,-17.92,24.57,-8.47
,-8.935,-2.079,-3.987,-8.459,-0.811,-4.929,-5.11,25.34,-7.98
,-9.354,-1.352,-2.907,-8.612,-1.697,-5.468,4.62,25.34,-7.28
6133.0,-8.689,-2.067,-5.867,-9.462,-0.309,-2.553,-24.71,18.69,-3.36
,-8.478,-2.156,-5.532,-9.375,1.352,-3.262,-18.55,19.81,-2.03
,-8.686,-1.807,-4.422,-9.04,1.754,-3.635,-10.71,21.35,-0.98
,-9.186,-1.328,-3.384,-8.897,0.634,-4.085,-1.33,24.15,-0.21
6209.0,-8.777,-0.61,-4.494,-8.672,-0.246,-2.848,-20.86,20.72,-5.25
,-8.492,-1.015,-4.001,-8.653,0.057,-3.13,-12.88,22.4,-5.39
,-8.638,-1.086,-4.032,-8.832,-0.101,-3.386,-4.06,23.38,-6.51
,-8.521,-0.976,-3.257,-9.048,-0.318,-3.812,0.63,23.66,-7.49
6284.0,-9.005,-0.433,-4.994,-8.232,-1.067,-4.554,-11.13,25.41,-9.94
,-9.009,-0.797,-5.81,-8.009,-0.589,-4.549,-13.16,25.2,-10.57
,-8.567,-1.295,-5.669,-8.413,-0.658,-4.558,-9.94,27.09,-10.01
,-8.497,-1.598,-4.953,-8.789,-1.534,-4.549,-1.33,28.91,-8.68
6360.0,-9.024,-1.981,-4.614,-7.968,1.271,-5.839,9.8,27.79,-5.67
,-8.698,-1.271,-4.75,-8.033,0.9,-5.791,16.31,27.65,-5.53
,-7.925,0.093,-5.607,-8.732,0.251,-4.944,19.32,25.76,-7.0
,-7.6,1.094,-5.863,-9.026,-0.079,-4.482,12.74,24.85,-9.31
6436.0,-8.643,-0.105,-4.456,-8.071,-2.278,-5.492,-11.62,24.64,-17.85
,-8.619,-0.481,-4.405,-7.99,-2.053,-5.851,-11.13,23.31,-18.27
,-8.251,-1.137,-4.724,-7.743,-1.579,-6.344,-12.95,21.49,-17.36
,-8.148,-1.862,-5.071,-7.703,-1.259,-6.368,-11.97,22.12,-15.75
6512.0,-7.882,-1.256,-6.248,-7.32,-2.008,-5.738,2.94,23.24,-11.41
,-8.526,-1.596,-5.858,-7.947,-2.58,-5.513,1.54,22.75,-10.64
,-8.447,-1.613,-5.779,-8.842,-3.113,-5.171,2.73,21.7,-10.08
,-7.731,-1.653,-5.731,-8.904,-3.396,-4.85,4.34,21.56,-9.52
6587.0,-8.425,-2.962,-5.023,-7.88,-1.283,-6.406,12.18,24.92,-3.57
,-7.562,-2.259,-5.506,-8.033,-1.153,-6.394,12.46,23.66,-1.89
,-7.212,-1.594,-5.932,-8.119,-1.096,-5.91,9.73,23.66,0.49
,-7.473,-1.467,-6.076,-7.559,-0.878,-5.781,6.65,23.59,2.31
6663.0,-7.054,-0.672,-6.111,-8.256,-0.581,-5.824,8.61,24.08,2.66
,-7.492,-0.56,-6.042,-7.899,-0.567,-6.006,9.03,25.2,2.31
,-8.119,-0.739,-5.939,-7.854,-0.684,-5.982,10.99,26.11,0.7
,-8.464,-0.704,-5.8,-7.882,-0.749,-6.064,13.23,26.74,-1.68
6739.0,-7.667,-0.646,-6.43,-7.837,0.359,-6.497,4.06,23.38,-7.49
,-7.499,-0.397,-6.722,-7.772,0.426,-6.585,3.57,22.54,-8.96
,-7.296,-0.117,-6.643,-7.794,0.007,-6.516,3.08,22.33,-10.08
,-7.655,0.208,-6.633,-7.389,-0.924,-6.478,1.61,22.54,-12.11
6815.0,-7.184,-1.881,-6.559,-7.093,-1.144,-6.791,-17.5,19.18,-17.64
,-7.32,-2.41,-6.559,-7.028,-0.809,-6.791,-13.23,19.67,-16.59
,-7.358,-2.398,-6.631,-7.251,-0.94,-6.578,-6.72,19.95,-16.59
,-7.322,-1.941,-6.659,-7.195,-1.457,-6.585,-0.56,19.81,-16.45
6891.0,-7.045,-2.094,-6.774,-7.265,-3.254,-6.461,-10.5,18.34,-13.86
,-6.939,-2.991,-6.793,-6.997,-2.943,-6.925,-8.33,19.04,-12.32
,-6.973,-3.826,-6.564,-7.026,-2.721,-7.006,-2.24,20.16,-11.48
,-7.351,-3.74,-6.229,-6.906,-2.678,-6.956,6.44,21.35,-10.85
6966.0,-6.908,-2.804,-6.786,-7.327,-1.462,-6.65,-2.73,20.79,-1.12
,-6.846,-2.647,-6.576,-7.851,-1.711,-6.736,-3.99,21.14,0.91
,-6.566,-2.19,-6.671,-7.37,-1.847,-6.832,-3.22,21.35,1.82
,-6.755,-1.685,-6.832,-6.576,-2.087,-6.971,-2.03,21.84,1.4
7042.0,-6.669,-2.108,-6.942,-6.758,-2.35,-6.966,3.29,22.05,2.59
,-6.846,-1.548,-7.322,-6.528,-2.264,-7.14,5.11,21.35,3.36
,-7.018,-1.575,-7.495,-6.691,-2.091,-7.174,2.66,20.65,4.34
,-7.172,-2.17,-7.126,-6.791,-1.531,-7.267,-0.7,20.09,5.25
7117.0,-6.803,-1.297,-7.31,-6.609,-1.22,-7.748,-6.3,18.48,5.88
,-7.047,-1.682,-7.437,-6.652,-0.818,-7.844,-9.73,17.78,6.93
,-6.899,-1.821,-7.248,-6.607,-0.622,-7.746,-10.29,17.57,7.91
,-6.774,-2.06,-7.54,-6.257,-0.414,-7.586,-7.49,17.22,7.84
7193.0,-6.379,-0.364,-7.499,-6.466,-1.058,-7.385,-8.4,13.51,3.5
,-6.793,-0.782,-7.358,-6.53,-0.603,-7.538,-11.13,12.95,2.31
,-6.908,-1.182,-7.076,-6.621,-0.263,-7.791,-12.67,12.88,2.8
,-6.798,-1.237,-7.085,-6.918,-0.239,-7.99,-11.41,12.95,2.94
7269.0,-6.664,-0.524,-8.215,-6.616,-0.543,-7.837,-11.48,9.52,0.49
,-6.382,-0.67,-7.729,-6.616,-0.452,-8.076,-11.2,8.4,0.0
,-6.413,-1.125,-7.674,-6.564,-0.634,-7.849,-11.9,7.42,-0.77
,-6.403,-1.177,-7.633,-6.569,-0.601,-7.736,-9.73,7.0,-1.47
7345.0,-6.784,-0.766,-7.71,-6.116,-1.007,-7.502,-8.19,6.72,-9.45
,-6.521,-1.098,-7.373,-6.516,-1.448,-7.715,-9.31,6.65,-10.36
,-6.439,-1.297,-7.107,-6.65,-2.046,-7.607,-8.61,7.07,-10.43
,-6.363,-1.074,-7.002,-6.731,-2.565,-7.301,-7.35,6.79,-10.22
7420.0,-6.631,-2.814,-7.253,-6.882,-1.106,-8.126,-3.78,5.11,-6.65
,-5.894,-1.61,-7.26,-7.112,-1.931,-8.071,-0.07,5.32,-5.95
,-5.846,-0.39,-7.535,-6.564,-2.197,-8.069,-1.75,5.81,-5.67
,-6.463,-0.433,-7.729,-6.107,-1.933,-7.775,-8.89,5.18,-6.51
7496.0,-5.906,-1.519,-7.736,-6.839,-0.938,-8.122,-3.43,1.47,-5.04
,-5.647,-1.397,-7.727,-6.782,-0.443,-8.107,-4.48,0.42,-4.55
,-5.788,-1.005,-7.937,-6.6,-0.78,-7.83,-5.53,0.21,-3.78
,-6.569,-0.991,-8.055,-6.42,-0.792,-7.447,-6.72,0.7,-3.29
7572.0,-6.291,-1.244,-7.535,-6.332,-2.115,-7.846,-4.55,-2.24,-6.37
,-6.463,-1.984,-7.669,-6.016,-1.558,-7.837,-3.78,-3.15,-5.67
,-6.624,-2.335,-7.863,-6.111,-1.271,-7.947,-0.14,-3.08,-4.13
,-6.657,-2.637,-7.722,-6.121,-1.457,-8.124,4.55,-2.31,-2.73
7648.0,-6.42,-1.606,-8.203,-6.499,-2.156,-7.672,2.66,-5.11,-2.38
,-6.748,-1.795,-8.11,-6.317,-2.022,-7.428,3.64,-6.23,-2.17
,-6.674,-1.759,-7.873,-6.248,-2.029,-7.473,4.69,-7.0,-1.26
,-6.683,-1.967,-7.71,-6.341,-1.665,-7.124,5.11,-7.35,0.07
7724.0,-6.659,-1.165,-7.215,-6.564,-1.33,-7.361,9.52,-6.65,4.69
,-6.789,-1.115,-7.574,-6.15,-1.448,-7.574,6.79,-6.72,4.2
,-6.884,-1.175,-7.595,-6.442,-1.694,-7.672,5.6,-6.79,3.29
,-6.837,-1.366,-7.535,-6.791,-1.744,-7.842,6.79,-7.21,2.66
7799.0,-6.904,-1.615,-7.765,-6.86,-2.206,-7.6,17.43,-8.47,3.57
,-6.47,-1.697,-7.784,-7.088,-1.977,-7.83,17.92,-9.52,4.13
,-6.301,-1.933,-7.772,-7.002,-1.761,-7.645,18.83,-9.94,5.39
,-6.604,-2.111,-7.674,-6.638,-1.498,-7.533,20.58,-10.22,6.44
7875.0,-6.624,-1.362,-7.662,-6.997,-1.015,-7.53,22.82,-13.65,4.9
,-6.834,-1.364,-7.562,-6.822,-1.536,-7.229,20.02,-14.77,4.83
,-6.808,-0.981,-7.581,-6.777,-1.945,-6.966,18.83,-16.24,4.62
,-6.863,-0.794,-7.71,-6.801,-1.871,-6.994,16.94,-17.71,4.34
7950.0,-6.585,-1.235,-7.262,-7.327,-1.055,-7.54,15.26,-18.27,6.79
,-6.643,-0.723,-7.624,-7.066,-1.409,-7.377,13.51,-19.11,6.51
,-6.992,-0.72,-7.59,-7.308,-1.438,-6.925,9.31,-20.16,6.72
,-7.358,-0.897,-7.59,-6.925,-1.309,-7.028,6.02,-21.63,6.72
8026.0,-6.662,-1.218,-7.389,-7.382,-1.701,-7.112,9.17,-27.23,3.92
,-6.803,-1.216,-7.358,-7.329,-1.819,-6.987,10.01,-27.16,3.78
,-7.042,-1.417,-7.284,-7.253,-1.984,-6.822,11.55,-26.81,3.36
,-7.188,-1.584,-7.212,-7.026,-1.819,-6.798,13.37,-26.53,3.15
8102.0,-7.329,-1.541,-6.363,-7.681,-2.278,-6.712,15.19,-23.87,6.16
,-7.353,-0.921,-6.561,-7.653,-2.718,-6.726,11.48,-28.14,6.72
,-7.224,-0.916,-6.777,-7.306,-2.965,-6.58,4.41,-31.15,7.0
,-7.48,-1.452,-6.849,-7.219,-2.663,-6.42,-2.8,-31.29,8.12
8178.0,-7.246,-2.422,-6.346,-7.519,-1.673,-6.31,7.63,-27.37,11.55
,-7.408,-2.369,-6.066,-7.583,-1.656,-6.109,8.19,-27.16,13.09
,-7.557,-2.115,-6.042,-7.983,-1.591,-5.875,9.52,-26.81,14.42
,-7.82,-1.771,-6.186,-7.82,-1.043,-5.745,9.94,-27.02,15.4
8253.0,-7.889,-0.672,-5.855,-7.607,-1.381,-5.731,5.39,-30.31,16.38
,-7.911,-0.596,-5.76,-7.731,-1.761,-5.733,2.31,-30.31,15.54
,-7.964,-0.66,-5.564,-8.043,-2.01,-5.741,0.07,-29.75,14.98
,-7.794,-0.969,-5.578,-8.234,-1.979,-5.671,-0.91,-29.47,14.98
8329.0,-8.045,-1.869,-5.59,-7.899,-1.254,-5.286,15.47,-26.53,17.57
,-8.019,-1.62,-5.587,-8.04,-1.168,-5.157,18.06,-26.46,17.99
,-7.887,-1.426,-5.609,-8.227,-1.003,-5.087,18.41,-26.39,18.97
,-7.787,-1.223,-5.453,-8.366,-0.689,-5.401,17.64,-26.25,19.95
8405.0,-8.385,-0.842,-4.941,-8.361,-0.696,-4.681,10.57,-26.6,19.81
,-8.294,-0.962,-4.757,-8.464,-0.687,-4.628,9.8,-26.81,19.88
,-8.253,-0.885,-4.688,-8.485,-0.809,-4.611,11.97,-26.11,19.67
,-8.239,-0.79,-4.678,-8.538,-0.778,-4.558,13.58,-25.76,19.46
8481.0,-8.461,-0.751,-4.618,-8.504,-0.38,-4.925,18.27,-25.27,18.27
,-8.629,-0.759,-4.628,-8.342,-0.668,-4.664,17.92,-25.34,17.92
,-8.744,-0.723,-4.625,-8.536,-1.046,-4.422,16.94,-25.34,17.5
,-8.591,-0.727,-5.032,-8.835,-1.249,-4.276,17.15,-24.71,17.01
8556.0,-8.794,-1.199,-4.377,-8.631,-0.747,-4.128,14.21,-24.78,17.29
,-8.715,-1.0,-4.377,-8.902,-0.591,-4.19,16.94,-24.5,17.57
,-8.478,-0.794,-4.31,-9.002,-0.112,-4.369,17.99,-24.36,17.99
,-8.464,-0.792,-4.238,-8.827,0.129,-4.274,17.85,-24.01,18.69
8632.0,-8.839,0.129,-4.13,-8.995,0.026,-4.051,15.47,-24.5,15.96
,-8.808,-0.05,-3.951,-9.028,0.112,-4.283,11.83,-24.01,15.33
,-8.916,-0.292,-3.721,-8.973,-0.065,-4.257,10.08,-23.59,14.49
,-9.083,-0.16,-3.762,-8.949,-0.392,-3.8,10.43,-23.52,13.58
8708.0,-8.961,-0.617,-3.472,-9.222,-0.4,-3.687,10.43,-23.87,9.87
,-8.887,-0.546,-3.357,-9.38,-0.373,-3.63,11.41,-23.31,9.24
,-8.973,-0.572,-3.369,-9.275,-0.206,-3.668,12.39,-22.96,9.45
,-9.055,-0.294,-3.62,-9.067,-0.074,-3.561,10.99,-23.66,9.66
8783.0,-8.859,-0.201,-3.666,-9.5,-0.96,-2.546,8.47,-22.82,7.77
,-8.863,-0.424,-3.654,-9.502,-0.605,-2.675,7.14,-23.31,7.84
,-9.127,-0.806,-3.276,-9.249,-0.069,-3.044,8.47,-22.82,8.4
,-9.478,-0.962,-2.936,-9.284,0.098,-3.183,12.95,-21.77,8.54
8859.0,-9.289,0.057,-3.285,-9.203,-0.567,-2.563,8.54,-20.58,6.65
,-9.201,-0.225,-2.694,-9.519,-0.333,-2.903,7.28,-19.39,6.3
,-9.024,-0.56,-2.723,-9.686,-0.316,-2.443,8.54,-18.27,6.16
,-8.976,-0.675,-2.613,-9.689,-0.359,-2.249,10.78,-17.78,6.16
8935.0,-9.524,-0.349,-2.123,-9.385,0.017,-2.929,11.34,-13.93,4.9
,-9.294,-0.385,-2.386,-9.435,0.129,-2.522,10.71,-13.02,4.97
,-9.282,-0.196,-2.781,-9.529,0.409,-2.69,10.57,-13.16,5.25
,-9.313,0.038,-2.938,-9.373,0.424,-2.577,9.31,-13.51,5.18
9011.0,-9.397,0.072,-2.0,-9.478,0.235,-2.706,6.23,-10.22,1.12
,-9.529,-0.211,-1.831,-9.505,-0.249,-2.745,6.86,-9.38,0.91
,-9.514,0.012,-2.168,-9.299,-0.713,-2.41,9.8,-8.96,0.28
,-9.33,0.421,-2.544,-9.311,-0.845,-1.594,7.28,-9.17,-0.84
9086.0,-9.634,-0.471,-1.541,-9.44,-0.823,-2.118,10.01,-4.41,-1.05
,-9.61,-0.067,-1.747,-9.505,-0.94,-1.914,7.28,-3.92,-1.68
,-9.586,-0.101,-2.412,-9.742,-0.416,-2.438,1.89,-3.99,-1.96
,-9.435,-0.491,-2.426,-9.689,-0.091,-2.575,-1.33,-3.36,-2.03
9162.0,-9.603,0.0,-3.022,-9.507,-0.201,-3.314,4.48,-1.26,-1.75
,-9.49,-0.38,-3.015,-9.447,-0.581,-3.25,1.68,-1.61,-1.96
,-9.418,-0.438,-3.154,-9.483,-1.053,-2.965,1.96,-1.96,-2.17
,-9.442,-0.395,-3.281,-9.509,-1.211,-2.991,4.48,-2.52,-2.38
9238.0,-9.464,-1.122,-2.759,-9.71,-0.055,-2.446,11.41,-4.97,-1.19
,-9.49,-0.727,-2.565,-9.445,-0.29,-2.3,14.56,-4.9,-0.77
,-9.608,-0.433,-2.465,-9.476,-0.593,-2.17,15.19,-5.04,-0.77
,-9.603,-0.254,-2.201,-9.612,-0.845,-1.984,13.65,-4.83,-1.05
9314.0,-9.32,-1.031,-1.381,-9.617,-0.916,-0.952,3.57,-2.38,-2.73
,-9.667,-0.608,-1.027,-9.725,-0.902,-1.146,4.76,-0.7,-1.89
,-9.643,-0.213,-1.103,-9.579,-0.778,-1.328,0.91,0.35,-1.82
,-9.73,-0.634,-1.053,-9.708,-0.536,-2.005,-3.29,1.82,-2.17
9389.0,-9.552,-0.44,-2.548,-9.474,-0.347,-3.769,-3.22,8.68,-1.75
,-9.505,-0.318,-3.07,-9.378,-0.555,-3.75,-3.64,8.4,-1.75
,-9.562,-0.232,-3.338,-9.435,-0.955,-3.501,-5.04,7.98,-1.96
,-9.502,-0.347,-3.537,-9.557,-1.122,-3.295,-5.32,7.42,-2.1
9465.0,-9.55,-1.153,-3.027,-9.49,-0.845,-2.63,5.46,3.29,-0.84
,-9.531,-0.969,-2.697,-9.507,-0.799,-2.503,8.47,2.94,-0.21
,-9.564,-0.763,-2.596,-9.603,-0.754,-2.481,8.75,2.38,-0.14
,-9.569,-0.821,-2.659,-9.505,-0.727,-2.436,7.21,2.31,0.21
9541.0,-9.56,-0.558,-2.58,-9.507,-0.845,-2.771,3.22,2.66,0.98
,-9.531,-0.495,-2.481,-9.529,-0.83,-2.879,1.4,2.66,0.84
,-9.536,-0.562,-2.718,-9.608,-0.696,-3.015,0.14,2.31,0.7
,-9.445,-0.775,-2.673,-9.574,-0.558,-3.041,-1.05,2.03,0.56
9616.0,-9.497,-0.625,-3.051,-9.509,-0.818,-2.58,1.82,0.42,0.84
,-9.564,-0.596,-3.12,-9.526,-0.732,-2.527,1.54,-0.28,0.56
,-9.514,-0.641,-3.049,-9.548,-0.627,-2.4,1.47,-1.05,0.63
,-9.505,-0.737,-2.824,-9.529,-0.725,-2.264,2.03,-1.33,0.77
9692.0,-9.596,-0.818,-2.285,-9.447,-0.644,-2.568,3.85,-0.35,1.4
,-9.598,-0.756,-2.34,-9.476,-0.648,-2.422,4.55,-0.07,1.54
,-9.555,-0.519,-2.572,-9.588,-0.634,-2.338,4.41,0.0,1.54
,-9.548,-0.514,-2.601,-9.655,-0.711,-2.326,2.73,0.21,1.33
9768.0,-9.593,-0.711,-2.41,-9.505,-0.641,-2.788,1.75,1.68,1.47
,-9.584,-0.565,-2.453,-9.517,-0.589,-2.764,1.4,1.61,1.47
,-9.612,-0.51,-2.642,-9.474,-0.694,-2.594,0.7,1.4,1.26
,-9.507,-0.574,-2.723,-9.588,-0.648,-2.481,0.14,1.33,1.19
9844.0,-9.545,-0.526,-2.374,-9.493,-0.651,-2.536,4.2,1.68,0.91
,-9.631,-0.335,-2.319,-9.478,-0.814,-2.417,3.15,1.75,0.91
,-9.612,-0.278,-2.414,-9.507,-0.756,-2.647,0.63,1.68,0.63
,-9.548,-0.459,-2.479,-9.631,-0.644,-2.745,-1.68,1.89,0.28
9919.0,-9.619,-0.565,-2.474,-9.526,-0.608,-2.532,-0.07,2.73,0.07
,-9.663,-0.249,-2.541,-9.469,-0.598,-2.515,-2.87,2.31,-0.63
,-9.543,-0.146,-2.52,-9.464,-0.648,-2.4,-7.14,2.03,-1.19
,-9.562,-0.419,-2.498,-9.483,-0.902,-2.455,-10.57,1.96,-1.61
9995.0,-9.572,-0.962,-2.257,-9.438,-0.608,-2.685,-5.95,5.18,-0.28
,-9.663,-0.725,-2.431,-9.464,-0.632,-2.556,-3.5,5.46,0.0
,-9.588,-0.555,-2.606,-9.579,-0.491,-2.525,-2.73,5.46,-0.07
,-9.45,-0.555,-2.766,-9.605,-0.486,-2.321,-2.59,5.74,-0.07
10071.0,-9.636,-0.562,-2.405,-9.414,-0.5,-2.903,-0.35,7.7,-0.28
,-9.612,-0.617,-2.551,-9.385,-0.462,-2.647,-0.84,7.77,-0.42
,-9.588,-0.55,-2.855,-9.459,-0.211,-2.479,-1.33,7.42,-0.63
,-9.454,-0.512,-2.934,-9.567,-0.093,-2.268,-1.96,7.0,-0.77
10147.0,-9.598,-0.096,-2.209,-9.385,-0.675,-2.804,-2.03,8.75,-1.82
,-9.591,-0.273,-2.285,-9.301,-0.601,-2.659,-5.04,8.89,-2.24
,-9.545,-0.455,-2.584,-9.33,-0.593,-2.474,-6.3,9.1,-2.17
,-9.447,-0.565,-2.761,-9.43,-0.187,-2.611,-6.51,9.24,-2.24
10222.0,-9.471,0.062,-2.702,-9.6,-0.378,-2.345,-1.12,11.2,-3.57
,-9.38,-0.043,-2.661,-9.519,0.057,-3.087,-6.16,11.13,-3.99
,-9.517,-0.261,-2.381,-9.282,0.134,-3.285,-8.47,11.97,-4.27
,-9.497,-0.488,-2.204,-9.335,-0.108,-3.312,-8.61,13.02,-4.41
10298.0,-9.411,-0.785,-3.228,-9.342,0.012,-3.79,-17.22,12.46,-7.28
,-9.485,-1.395,-2.642,-9.172,0.105,-3.951,-13.44,13.79,-6.93
,-9.73,-1.189,-2.986,-9.074,-0.495,-3.783,-5.88,14.56,-6.93
,-9.562,-0.715,-3.075,-9.072,-1.412,-3.537,-2.24,13.93,-7.77
10374.0,-9.222,-1.826,-3.096,-9.608,-0.823,-1.412,-14.98,11.9,-8.05
,-9.21,-1.596,-3.096,-9.474,0.103,-1.333,-6.37,12.46,-7.7
,-9.299,-1.18,-2.922,-9.387,1.383,-2.582,-2.03,13.09,-7.63
,-9.493,-1.055,-2.503,-9.311,2.012,-4.106,-1.05,14.21,-7.7
10450.0,-9.347,1.295,-5.257,-9.069,-0.682,-3.695,-38.85,8.82,-15.61
,-9.122,-0.481,-5.073,-9.282,-0.287,-2.714,-48.3,8.47,-16.38
,-8.878,-1.302,-5.011,-9.586,-0.278,-1.747,-42.14,9.38,-16.8
,-8.942,-1.17,-4.231,-9.593,0.019,-0.957,-27.16,10.85,-17.71
10526.0,-9.794,1.036,-1.481,-8.457,-2.62,-4.587,-0.91,16.31,-22.33
,-9.229,1.321,-3.891,-8.863,-3.005,-3.9,-19.11,10.85,-25.13
,-8.988,-0.048,-4.221,-9.237,-3.319,-3.719,-36.54,9.87,-25.2
,-8.605,-1.709,-4.776,-9.38,-3.702,-3.013,-43.33,10.78,-24.22
10601.0,-9.368,-3.92,-2.883,-8.337,-1.582,-4.238,1.82,19.74,-14.98
,-9.043,-3.833,-2.972,-8.598,-1.529,-4.384,11.9,20.44,-11.69
,-9.062,-3.061,-2.869,-8.55,-1.292,-5.279,22.4,21.42,-9.03
,-8.622,-1.998,-3.733,-8.713,-1.534,-4.822,24.01,20.44,-7.35
10677.0,-8.964,-1.697,-4.319,-9.031,-1.175,-3.597,2.59,19.11,-4.48
,-9.043,-1.665,-3.709,-9.069,-0.462,-4.465,7.35,20.23,-4.41
,-9.04,-1.304,-3.446,-8.713,0.117,-4.795,14.28,19.88,-4.69
,-8.873,-1.125,-3.714,-8.801,0.541,-4.75,16.73,18.2,-4.97
10752.0,-8.698,1.027,-4.508,-9.318,-1.792,-2.9,-1.4,12.39,-11.41
,-8.72,0.943,-3.848,-9.284,-2.661,-2.838,-10.08,13.93,-14.84
,-8.93,0.56,-3.539,-8.725,-2.979,-2.747,-17.57,14.98,-17.5
,-8.799,-0.328,-3.606,-8.624,-2.965,-3.513,-24.64,15.68,-18.27
10828.0,-8.576,-3.12,-4.006,-7.988,-3.163,-5.169,5.6,18.41,-13.3
,-8.581,-3.271,-4.439,-7.863,-2.45,-5.13,6.16,19.32,-10.43
,-8.332,-3.465,-5.181,-8.464,-2.213,-4.48,4.76,19.81,-7.49
,-8.514,-3.92,-4.86,-8.827,-1.91,-4.396,4.9,18.83,-4.34
10904.0,-9.055,-2.053,-3.817,-8.693,-1.295,-4.958,11.2,21.77,1.96
,-8.622,-1.543,-4.413,-8.552,-1.51,-4.74,15.33,20.02,2.31
,-8.519,-1.225,-5.063,-8.378,-1.397,-5.061,15.96,19.04,1.4
,-9.103,-1.17,-4.944,-8.385,-1.438,-5.018,14.84,19.04,0.98
10980.0,-8.507,-1.637,-4.719,-8.811,-0.773,-4.748,5.67,18.9,0.21
,-8.492,-1.898,-4.317,-8.835,-0.701,-4.838,6.58,19.88,0.14
,-8.449,-1.627,-4.243,-8.509,-1.199,-4.733,8.47,19.74,0.21
,-8.579,-1.177,-4.48,-8.404,-1.24,-4.661,8.4,18.62,-0.21
11055.0,-8.461,-1.141,-4.81,-8.559,-1.519,-4.929,-2.87,21.21,-2.87
,-8.291,-0.639,-5.126,-8.514,-2.8,-4.59,-1.4,20.02,-3.92
,-8.239,-0.141,-5.439,-8.332,-3.668,-4.582,-0.56,19.95,-5.67
,-8.375,-0.565,-5.205,-7.854,-3.099,-4.996,-2.66,20.65,-6.93
11131.0,-7.784,-2.481,-5.348,-8.423,-2.419,-5.236,8.96,19.95,-0.42
,-8.088,-2.285,-5.068,-8.119,-2.005,-5.566,6.3,20.51,-0.21
,-8.378,-2.357,-4.953,-7.995,-1.575,-5.932,2.73,21.77,0.84
,-8.646,-2.651,-4.886,-8.052,-1.022,-6.083,-0.35,21.63,2.8
11206.0,-8.138,-0.562,-6.315,-8.086,-2.582,-5.669,9.38,16.38,4.48
,-7.995,-0.385,-6.198,-7.944,-2.778,-5.721,9.52,15.89,2.87
,-7.873,-0.96,-6.111,-8.007,-2.623,-5.621,6.58,16.24,1.61
,-8.009,-2.017,-5.559,-7.834,-2.362,-5.702,3.43,16.66,1.61
11282.0,-8.055,-1.809,-5.784,-8.344,-0.079,-5.784,12.25,17.29,1.89
,-7.923,-1.079,-5.858,-8.437,-0.852,-5.489,11.06,16.59,2.31
,-7.696,-0.165,-6.133,-8.167,-1.658,-5.123,7.91,15.89,1.54
,-7.925,0.089,-6.059,-7.971,-2.003,-5.075,2.03,16.1,0.28
11358.0,-7.813,-1.634,-5.59,-8.224,-0.067,-6.025,2.52,18.62,-2.45
,-7.825,-0.639,-6.064,-8.193,-1.086,-5.779,7.7,18.62,-4.34
,-8.009,0.33,-6.284,-8.045,-2.187,-5.932,8.75,18.27,-7.35
,-8.074,0.641,-6.336,-8.406,-2.769,-5.812,3.08,17.57,-9.94
11434.0,-8.033,-3.008,-6.078,-7.681,-0.534,-6.15,-10.64,13.51,-14.91
,-7.523,-3.039,-5.853,-8.258,-0.663,-6.056,-4.41,14.49,-14.77
,-7.535,-2.154,-5.377,-8.224,-1.05,-6.368,2.24,15.61,-14.42
,-7.387,-1.096,-5.81,-7.839,-1.311,-6.382,3.78,15.89,-14.56
11510.0,-7.753,-0.699,-6.08,-7.329,-1.668,-6.322,-15.68,11.97,-15.54
,-7.763,0.065,-6.245,-7.523,-2.682,-6.492,-17.22,10.29,-16.52
,-7.593,0.208,-6.578,-7.416,-2.831,-6.43,-22.96,9.59,-17.08
,-7.315,-0.67,-6.379,-7.59,-2.678,-6.339,-29.05,9.66,-17.15
11585.0,-7.368,-2.673,-6.296,-7.495,-4.618,-6.662,-7.07,9.38,-21.84
,-7.088,-2.206,-6.298,-7.638,-4.994,-6.674,-6.09,9.31,-20.93
,-7.382,-2.292,-6.332,-7.454,-5.025,-6.494,-11.34,8.89,-19.32
,-7.461,-3.597,-6.719,-7.236,-4.424,-6.43,-19.32,8.26,-16.66
11661.0,-7.212,-3.994,-6.42,-7.88,-2.34,-6.801,-4.27,8.47,-3.64
,-7.1,-4.051,-6.647,-7.849,-1.622,-6.729,-5.04,7.42,-0.21
,-6.975,-3.972,-6.71,-7.849,-1.474,-6.657,-3.57,7.35,2.03
,-7.54,-3.161,-6.662,-7.499,-1.725,-6.717,0.91,7.84,2.38
11737.0,-7.279,-1.931,-6.691,-7.94,-1.632,-7.014,1.4,4.13,2.24
,-7.064,-1.933,-6.755,-7.736,-1.704,-6.899,3.22,3.64,3.08
,-6.87,-1.692,-6.786,-7.413,-1.828,-6.492,5.39,3.15,3.78
,-7.487,-1.541,-7.138,-7.282,-2.192,-6.109,4.83,2.45,3.71
11813.0,-6.846,-2.489,-5.915,-7.538,-2.094,-6.31,2.73,-0.28,1.82
,-7.356,-2.678,-6.071,-7.193,-1.709,-6.435,3.85,1.26,2.38
,-7.899,-2.749,-6.202,-7.227,-1.374,-6.592,6.93,2.1,3.01
,-7.901,-2.386,-6.451,-7.554,-1.369,-6.561,10.99,2.24,3.36
11888.0,-7.679,-1.606,-6.691,-7.351,-3.156,-6.456,7.35,0.63,2.66
,-7.911,-2.041,-6.65,-7.499,-3.108,-6.451,6.65,-0.07,2.1
,-7.688,-2.367,-6.647,-7.55,-2.56,-6.81,7.84,-1.33,2.52
,-7.298,-2.754,-6.597,-7.478,-2.24,-7.002,9.87,-1.61,3.64
11964.0,-7.509,-2.29,-7.069,-7.404,-3.458,-6.815,16.38,-4.97,4.9
,-7.475,-2.441,-7.047,-7.473,-3.75,-6.561,12.67,-6.37,6.86
,-7.48,-2.795,-6.892,-7.459,-3.534,-6.712,10.15,-7.35,8.89
,-7.392,-3.125,-6.978,-7.473,-3.25,-6.839,10.71,-8.82,9.94
12039.0,-7.653,-2.958,-6.37,-7.449,-2.039,-6.368,26.6,-12.32,16.59
,-7.722,-2.728,-5.975,-7.554,-1.843,-6.375,24.64,-12.32,18.2
,-7.595,-2.438,-6.03,-7.815,-1.586,-6.243,20.02,-12.6,19.11
,-7.442,-2.223,-6.205,-7.932,-1.565,-6.033,14.77,-12.32,19.88
12115.0,-7.748,-1.572,-6.037,-7.789,-1.74,-6.2,4.2,-17.64,22.33
,-7.7,-1.756,-6.114,-7.825,-1.429,-6.202,2.73,-17.36,22.61
,-7.839,-1.785,-6.064,-7.971,-1.297,-5.954,3.15,-16.8,22.05
,-7.794,-1.955,-5.901,-7.944,-1.304,-6.009,4.2,-16.38,21.28
12191.0,-7.808,-1.18,-5.973,-7.916,-1.263,-5.736,9.1,-17.5,17.5
,-7.976,-1.058,-5.925,-7.956,-1.424,-5.559,9.24,-17.92,16.8
,-8.095,-0.995,-5.702,-8.119,-1.364,-5.609,7.77,-18.06,16.45
,-8.1,-1.184,-5.738,-7.997,-1.318,-5.681,4.55,-18.41,16.03
12267.0,-8.253,-1.371,-5.382,-8.122,-0.955,-5.571,6.09,-16.87,13.09
,-8.313,-1.297,-5.317,-8.241,-1.041,-5.535,6.58,-18.27,13.37
,-8.09,-1.086,-5.482,-8.191,-1.39,-5.408,5.74,-19.18,12.88
,-7.849,-1.094,-5.705,-8.208,-1.481,-5.329,4.34,-19.04,12.6
12343.0,-8.313,-1.462,-5.288,-8.344,-1.536,-5.461,1.82,-18.48,11.2
,-8.157,-1.606,-5.403,-8.504,-1.536,-5.157,3.64,-18.83,10.92
,-8.126,-1.584,-5.485,-8.564,-1.103,-4.989,5.81,-19.74,10.92
,-8.284,-1.546,-5.537,-8.406,-0.766,-5.02,6.79,-19.81,10.85
12418.0,-8.291,-0.919,-5.071,-8.385,-1.933,-4.893,1.75,-20.65,10.92
,-8.179,-1.117,-5.145,-8.485,-1.835,-4.7,-1.47,-21.14,11.27
,-8.351,-1.531,-5.099,-8.631,-1.539,-4.771,-2.66,-19.88,11.55
,-8.435,-1.79,-5.08,-8.708,-1.347,-4.795,-0.35,-18.06,11.06
12494.0,-8.375,-1.261,-4.996,-8.598,-1.431,-4.336,6.3,-18.9,13.09
,-8.289,-1.455,-4.846,-8.555,-1.292,-4.635,5.25,-17.78,13.72
,-8.504,-1.553,-4.515,-8.349,-1.206,-5.085,6.79,-15.96,13.72
,-8.646,-1.232,-4.532,-8.361,-1.139,-5.102,7.98,-15.05,13.37
12570.0,-8.583,-1.149,-4.874,-8.698,-1.223,-4.628,15.4,-8.05,14.14
,-8.593,-1.23,-4.575,-8.758,-1.314,-4.551,16.1,-7.56,14.77
,-8.595,-1.254,-4.475,-8.78,-1.378,-4.47,16.31,-8.05,15.61
,-8.658,-1.211,-4.508,-8.588,-1.307,-4.367,16.03,-9.38,16.38
12646.0,-8.569,-1.149,-4.279,-8.988,-0.912,-4.24,16.17,-12.04,18.55
,-8.854,-1.06,-3.96,-8.799,-0.885,-4.145,16.1,-12.81,18.69
,-8.813,-0.78,-4.441,-8.667,-0.89,-3.982,14.98,-14.56,18.41
,-8.916,-0.763,-4.424,-8.794,-0.902,-3.829,12.39,-15.12,18.48
12721.0,-9.129,-1.106,-4.049,-8.689,-0.383,-4.044,8.96,-16.66,17.78
,-9.196,-0.632,-3.812,-8.861,-0.4,-3.893,10.08,-17.64,17.5
,-9.002,-0.438,-3.996,-9.222,-0.179,-3.9,10.71,-17.92,16.45
,-8.842,-0.361,-4.042,-9.354,-0.05,-3.891,10.71,-17.5,15.4
12797.0,-9.249,-0.175,-3.91,-9.007,-0.335,-3.946,6.3,-17.78,11.2
,-8.916,-0.378,-3.92,-9.093,-0.313,-4.101,4.83,-17.29,10.64
,-8.763,-0.55,-3.754,-9.225,-0.589,-3.766,5.53,-16.94,10.57
,-8.768,-0.541,-3.79,-9.328,-0.838,-3.463,7.7,-17.36,10.36
12872.0,-9.153,-0.876,-3.352,-9.119,-0.852,-3.74,5.95,-16.8,8.33
,-8.949,-0.727,-3.305,-9.244,-0.988,-3.451,6.37,-17.01,8.19
,-9.038,-0.601,-3.685,-9.196,-0.818,-3.357,5.18,-18.06,8.26
,-9.024,-0.625,-3.812,-9.06,-0.428,-3.077,3.57,-18.41,8.75
12948.0,-9.143,-0.134,-3.482,-9.256,-0.72,-3.518,12.67,-16.24,8.68
,-9.136,-0.302,-3.522,-9.136,-0.56,-3.022,9.66,-16.73,8.75
,-9.354,-0.522,-3.611,-9.194,-0.17,-3.242,8.96,-16.8,9.03
,-9.299,-0.665,-3.518,-9.249,-0.055,-2.876,10.92,-16.24,8.68
13024.0,-9.452,-0.098,-2.84,-9.225,-0.617,-2.611,12.18,-15.61,6.65
,-9.562,-0.194,-2.759,-9.189,-0.629,-2.546,10.01,-15.05,6.02
,-9.442,-0.311,-2.965,-9.143,-0.536,-2.903,8.47,-14.21,5.46
,-9.292,-0.424,-2.833,-9.428,-0.385,-2.828,9.03,-13.51,5.04
13100.0,-9.562,0.002,-3.384,-9.241,-0.397,-3.013,12.74,-12.67,4.69
,-9.359,-0.048,-3.484,-9.323,-0.39,-2.35,9.03,-13.02,3.85
,-9.38,-0.208,-3.604,-9.481,-0.136,-2.056,6.23,-13.16,3.15
,-9.217,-0.476,-3.23,-9.466,0.237,-2.611,6.3,-12.67,2.8
13176.0,-9.478,-0.079,-2.434,-9.399,-0.342,-1.723,3.85,-11.97,1.33
,-9.608,-0.357,-2.412,-9.411,-0.488,-2.022,1.89,-11.13,1.05
,-9.529,-0.426,-2.431,-9.423,-0.761,-1.761,1.82,-10.15,0.21
,-9.373,-0.404,-2.056,-9.675,-0.811,-1.792,2.66,-8.89,-0.28
13251.0,-9.737,-0.562,-2.458,-9.383,-0.335,-2.936,-1.61,-4.62,-0.28
,-9.399,-0.268,-2.726,-9.581,0.048,-3.582,-3.36,-4.27,-0.63
,-9.497,-0.266,-3.01,-9.545,0.093,-3.731,-3.85,-3.78,-0.7
,-9.256,-0.414,-2.905,-9.591,-0.275,-3.429,-3.29,-3.22,-0.84
13327.0,-9.598,-0.467,-3.352,-9.397,-1.053,-2.123,4.83,-6.51,-1.68
,-9.469,-0.553,-2.965,-9.557,-1.335,-1.835,7.77,-6.58,-1.68
,-9.579,-0.495,-2.364,-9.485,-1.182,-1.969,9.87,-6.23,-1.68
,-9.603,-0.455,-2.455,-9.397,-0.883,-2.24,8.26,-6.3,-2.03
13403.0,-9.378,-0.713,-1.845,-9.715,-0.378,-2.28,8.89,-2.45,0.28
,-9.55,-0.613,-2.058,-9.538,-0.261,-2.57,7.0,-1.75,0.21
,-9.569,-0.543,-2.194,-9.462,-0.33,-2.766,4.9,-1.19,0.0
,-9.718,-0.474,-2.048,-9.469,-0.464,-2.874,3.01,-0.98,-0.21
13479.0,-9.509,-0.452,-3.005,-9.763,-0.617,-1.91,-1.05,-1.47,-1.47
,-9.524,-0.648,-2.639,-9.703,-0.622,-2.218,0.63,-1.05,-1.26
,-9.541,-0.845,-1.993,-9.435,-0.725,-2.749,3.15,-0.14,-0.63
,-9.715,-0.84,-1.685,-9.196,-1.201,-2.831,6.02,0.98,-0.14
13554.0,-9.208,-1.39,-2.644,-9.617,-0.349,-2.429,1.68,1.26,0.63
,-9.481,-1.106,-2.572,-9.454,-0.436,-2.419,7.7,1.82,1.19
,-9.679,-0.558,-2.541,-9.423,-0.627,-2.338,10.57,2.03,1.47
,-9.725,-0.28,-2.498,-9.55,-0.634,-2.362,8.61,2.03,1.33
13630.0,-9.675,-0.486,-2.761,-9.672,-0.586,-2.254,4.13,2.17,0.91
,-9.557,-0.651,-2.546,-9.608,-0.445,-2.541,3.15,2.24,0.77
,-9.505,-0.615,-2.352,-9.617,-0.498,-2.804,2.45,2.52,0.84
,-9.55,-0.689,-2.197,-9.519,-0.593,-3.077,2.24,3.22,0.98
13705.0,-9.469,-0.644,-3.041,-9.639,-0.601,-2.103,-1.12,1.96,0.14
,-9.435,-0.66,-2.905,-9.686,-0.512,-1.907,0.63,2.03,0.21
,-9.505,-0.668,-2.651,-9.72,-0.357,-2.388,2.24,2.17,0.28
,-9.6,-0.665,-2.417,-9.591,-0.471,-2.627,3.01,2.45,0.21
13781.0,-9.485,-0.639,-2.831,-9.529,-0.469,-2.898,-4.06,2.73,-0.7
,-9.462,-0.854,-2.905,-9.5,-0.433,-2.821,-2.94,3.01,-0.56
,-9.416,-0.94,-2.984,-9.562,-0.445,-2.663,-0.35,3.01,-0.28
,-9.454,-0.794,-2.895,-9.529,-0.627,-2.639,2.59,3.08,0.14
13857.0,-9.586,-0.857,-2.484,-9.545,-0.641,-2.467,2.17,2.66,0.21
,-9.605,-0.871,-2.493,-9.555,-0.567,-2.477,3.43,2.87,0.42
,-9.658,-0.847,-2.517,-9.538,-0.548,-2.627,3.64,2.94,0.42
,-9.557,-0.677,-2.465,-9.464,-0.625,-2.709,3.36,3.08,0.42
13933.0,-9.519,-0.742,-2.58,-9.459,-0.658,-2.886,0.0,3.64,0.35
,-9.548,-0.682,-2.754,-9.488,-0.756,-2.84,0.98,3.71,0.56
,-9.531,-0.541,-2.85,-9.541,-0.725,-2.716,1.19,3.57,0.56
,-9.476,-0.5,-2.936,-9.593,-0.701,-2.637,0.21,3.29,0.49
14009.0,-9.56,-0.625,-2.489,-9.438,-0.62,-2.781,0.42,3.01,0.63
,-9.612,-0.584,-2.448,-9.45,-0.699,-2.721,0.14,3.15,0.63
,-9.545,-0.622,-2.52,-9.502,-0.694,-2.905,-0.42,3.08,0.35
,-9.512,-0.55,-2.692,-9.533,-0.668,-2.898,-0.98,3.08,0.35
14084.0,-9.514,-0.61,-3.015,-9.531,-0.627,-2.895,-0.07,3.15,0.77
,-9.509,-0.639,-3.056,-9.555,-0.648,-2.742,-0.56,2.66,0.77
,-9.445,-0.706,-2.958,-9.495,-0.699,-2.618,-0.28,2.24,0.63
,-9.466,-0.605,-2.967,-9.474,-0.842,-2.508,0.42,2.03,0.63
14160.0,-9.543,-0.67,-2.51,-9.442,-0.67,-2.69,2.24,2.24,0.98
,-9.56,-0.534,-2.525,-9.474,-0.646,-2.759,2.17,2.38,0.91
,-9.572,-0.436,-2.685,-9.497,-0.613,-2.833,0.91,2.45,0.7
,-9.471,-0.536,-2.747,-9.507,-0.589,-2.8,-0.49,2.45,0.56
14236.0,-9.557,-0.632,-2.814,-9.569,-0.529,-2.819,-0.84,2.52,0.49
,-9.474,-0.651,-2.752,-9.576,-0.55,-2.807,-0.63,2.45,0.56
,-9.509,-0.66,-2.769,-9.478,-0.572,-2.967,0.0,2.52,0.49
,-9.517,-0.553,-2.742,-9.438,-0.646,-2.979,0.28,2.66,0.56
14312.0,-9.485,-0.706,-3.025,-9.541,-0.68,-2.572,0.21,1.68,0.63
,-9.447,-0.663,-3.029,-9.495,-0.601,-2.438,1.05,1.54,0.63
,-9.524,-0.646,-2.838,-9.531,-0.543,-2.546,1.96,1.4,0.84
,-9.562,-0.639,-2.697,-9.538,-0.488,-2.733,1.96,1.68,0.84
14387.0,-9.538,-0.555,-2.8,-9.359,-0.615,-2.582,-0.07,1.82,0.07
,-9.481,-0.541,-2.864,-9.509,-0.55,-2.785,-0.84,1.75,-0.14
,-9.373,-0.675,-2.879,-9.552,-0.555,-2.647,-1.19,1.68,-0.07
,-9.466,-0.79,-2.778,-9.531,-0.565,-2.486,0.56,1.82,0.21
14463.0,-9.61,-0.625,-2.496,-9.397,-0.735,-2.462,-0.84,3.01,0.28
,-9.497,-0.536,-2.419,-9.521,-0.641,-2.584,-1.19,3.29,0.14
,-9.5,-0.665,-2.63,-9.548,-0.51,-2.649,-1.68,3.57,0.07
,-9.502,-0.727,-2.611,-9.562,-0.357,-2.848,-1.19,4.34,0.35
14538.0,-9.502,-0.345,-2.943,-9.452,-0.675,-2.965,-2.52,4.41,-0.35
,-9.383,-0.491,-2.931,-9.411,-0.529,-2.869,-3.5,4.41,-0.49
,-9.433,-0.617,-2.931,-9.445,-0.5,-2.855,-2.94,4.41,-0.42
,-9.435,-0.675,-2.96,-9.438,-0.459,-2.599,-1.26,4.41,-0.28
14614.0,-9.548,-0.364,-2.615,-9.328,-0.646,-2.8,-0.42,4.62,-0.49
,-9.514,-0.392,-2.67,-9.375,-0.589,-2.757,-2.03,4.76,-0.84
,-9.541,-0.498,-2.57,-9.438,-0.349,-2.84,-3.57,4.97,-1.26
,-9.533,-0.507,-2.838,-9.529,-0.213,-2.785,-3.71,5.18,-1.26
14690.0,-9.536,-0.218,-2.938,-9.564,-0.4,-2.812,-1.82,5.74,-2.03
,-9.471,-0.369,-3.092,-9.373,-0.342,-2.752,-3.71,5.32,-2.38
,-9.445,-0.514,-3.029,-9.454,-0.634,-2.752,-4.2,5.11,-2.8
,-9.485,-0.574,-2.771,-9.414,-0.727,-2.927,-3.5,5.39,-2.94
14766.0,-9.402,-0.826,-2.903,-9.359,-0.749,-2.69,-14.84,3.92,-4.41
,-9.287,-0.909,-3.041,-9.38,-0.45,-2.45,-15.89,3.71,-4.34
,-9.251,-1.058,-2.785,-9.426,-0.072,-2.402,-15.33,4.55,-3.71
,-9.423,-0.983,-2.804,-9.588,0.148,-2.568,-11.83,5.53,-3.22
14842.0,-9.433,0.165,-2.927,-9.335,-0.512,-3.068,-15.68,7.63,-5.25
,-9.485,0.022,-3.218,-9.313,-0.486,-3.008,-19.25,6.58,-5.88
,-9.366,-0.299,-3.472,-9.478,-0.637,-3.08,-22.33,6.09,-6.3
,-9.328,-0.589,-2.883,-9.627,-0.821,-3.491,-21.77,6.79,-6.44
14917.0,-9.588,-1.127,-3.022,-9.141,1.015,-3.24,-12.32,8.33,-6.93
,-9.402,-0.732,-3.125,-9.383,0.512,-3.293,-5.46,9.73,-6.58
,-9.012,0.053,-2.158,-9.366,-0.486,-3.522,-0.98,10.85,-7.56
,-9.308,0.849,-2.895,-9.316,-1.208,-3.183,0.91,10.36,-9.1
14993.0,-9.27,-1.479,-3.403,-9.423,-1.218,-2.718,-20.72,8.54,-12.25
,-9.217,-1.869,-2.871,-9.466,-0.488,-3.02,-12.74,9.59,-10.71
,-9.375,-1.776,-2.802,-9.464,0.218,-4.111,-3.43,10.29,-8.68
,-9.201,-1.68,-2.084,-8.839,-0.105,-4.324,5.39,12.25,-7.21
15069.0,-9.04,-0.902,-3.9,-9.229,-1.295,-1.869,-7.63,10.36,-9.52
,-9.062,-1.402,-3.616,-9.33,-1.182,-2.362,-7.7,11.34,-8.96
,-9.086,-1.606,-2.994,-9.361,-1.637,-2.139,-3.15,13.86,-7.98
,-9.213,-1.627,-2.429,-9.354,-1.687,-2.826,-0.35,14.35,-7.35
15145.0,-8.799,-1.022,-2.69,-9.538,-0.885,-3.367,4.9,18.06,-4.48
,-8.746,-0.206,-3.333,-9.445,-1.29,-2.958,8.61,18.69,-4.97
,-8.629,0.014,-3.367,-9.117,-1.074,-3.13,4.13,18.9,-6.65
,-9.521,-0.22,-3.238,-8.897,-0.964,-2.766,-0.56,19.67,-7.49
15220.0,-9.122,-0.572,-2.752,-9.088,0.031,-4.085,6.37,24.29,-8.82
,-9.005,-0.438,-2.754,-8.842,0.103,-4.178,5.11,25.97,-9.38
,-9.009,-0.273,-3.013,-8.789,-0.136,-3.52,3.57,27.3,-9.17
,-8.88,0.007,-3.743,-8.641,-0.031,-3.501,1.54,26.74,-10.15
15296.0,-8.598,-0.002,-3.951,-9.44,-2.749,-3.494,-10.92,24.71,-17.22
,-8.701,-0.608,-4.458,-8.579,-2.462,-3.946,-15.75,24.15,-17.71
,-9.139,-1.795,-3.996,-8.153,-2.302,-4.642,-19.46,25.97,-17.36
,-9.378,-2.692,-3.604,-8.524,-2.721,-4.994,-13.44,28.49,-16.38
15371.0,-8.744,-2.893,-5.286,-8.385,-0.29,-5.288,2.03,23.24,-6.3
,-8.449,-2.324,-5.43,-8.844,-1.012,-4.922,5.39,24.15,-5.74
,-8.514,-1.295,-5.145,-8.823,-1.989,-4.592,9.52,24.43,-6.09
,-8.248,-0.397,-5.386,-8.722,-2.759,-4.171,6.86,22.12,-7.49
15447.0,-8.296,-2.639,-4.257,-8.78,-1.228,-4.831,2.1,26.11,-3.64
,-8.306,-2.058,-4.331,-8.454,-0.761,-5.025,9.59,24.36,-3.57
,-8.44,-1.421,-4.642,-8.212,-0.06,-5.035,10.99,23.38,-3.92
,-8.662,-1.17,-4.965,-8.066,0.153,-4.795,6.65,23.59,-3.71
15523.0,-8.502,-0.211,-4.57,-8.1,-0.483,-4.726,-6.93,25.69,-8.54
,-9.033,-1.024,-4.097,-8.253,-0.409,-4.822,-9.17,25.97,-7.56
,-8.83,-1.316,-4.109,-8.576,-0.369,-4.846,-6.44,25.13,-6.72
,-8.574,-0.974,-4.326,-8.636,-0.254,-5.257,-0.28,24.15,-7.07
15599.0,-8.325,-0.213,-5.568,-8.27,-1.735,-5.245,-3.08,24.92,-12.18
,-7.487,0.065,-5.98,-8.366,-2.359,-5.14,-3.36,23.24,-14.0
,-7.413,-0.306,-5.925,-8.418,-2.936,-5.051,-3.43,23.94,-16.59
,-8.148,-1.015,-5.355,-8.169,-3.202,-5.587,-2.45,25.13,-18.76
15674.0,-7.822,-3.175,-5.571,-8.086,-3.522,-6.123,10.29,23.31,-15.89
,-7.686,-3.551,-5.786,-7.72,-3.604,-6.423,8.12,23.66,-13.09
,-7.686,-3.171,-6.516,-7.633,-4.078,-6.384,6.58,23.59,-9.24
,-7.932,-3.216,-6.437,-7.698,-4.396,-6.224,5.74,24.01,-6.51
15750.0,-7.619,-3.958,-6.353,-8.074,-1.378,-6.98,13.51,23.24,4.48
,-7.851,-3.278,-6.47,-7.708,-1.223,-7.095,19.95,22.89,4.9
,-8.074,-2.362,-6.53,-7.301,-1.218,-7.045,23.45,21.42,5.04
,-8.124,-1.632,-6.868,-7.595,-1.799,-6.578,22.33,19.32,6.09
15826.0,-7.925,-2.362,-5.951,-7.854,-1.031,-6.289,9.1,15.82,7.0
,-7.937,-2.395,-5.882,-8.095,-1.335,-5.602,10.5,14.91,7.21
,-7.973,-2.345,-5.954,-7.99,-1.321,-5.379,12.04,14.49,6.16
,-7.849,-1.529,-6.162,-7.538,-1.263,-5.611,15.26,13.79,4.69
15902.0,-7.516,-1.531,-5.449,-7.528,-0.376,-5.958,-1.05,13.86,3.22
,-7.861,-1.61,-5.453,-7.416,0.213,-6.322,-1.12,14.77,2.73
,-7.861,-1.845,-5.427,-7.813,0.342,-6.322,0.0,15.19,3.08
,-7.851,-1.563,-5.468,-8.165,0.225,-6.009,3.01,15.12,3.85
15978.0,-7.964,-0.211,-6.028,-7.612,0.115,-5.769,-1.68,15.54,-8.19
,-7.865,-0.481,-5.346,-7.775,0.163,-6.066,-0.98,16.45,-10.78
,-7.734,-0.323,-5.274,-7.605,0.026,-6.296,-1.05,17.29,-13.65
,-7.43,-0.163,-5.475,-7.322,-0.263,-6.468,-2.59,17.78,-16.38
16053.0,-7.37,-0.756,-6.779,-6.951,-2.642,-6.652,-10.5,17.43,-24.29
,-7.377,-1.575,-6.621,-7.215,-2.986,-6.884,-10.43,17.36,-24.71
,-7.195,-2.23,-6.408,-7.368,-3.494,-6.872,-8.54,17.36,-24.15
,-7.093,-2.462,-6.509,-7.241,-3.917,-6.906,-6.44,17.57,-23.1
16129.0,-6.956,-4.499,-7.042,-7.358,-4.061,-7.408,-12.04,14.77,-16.31
,-7.105,-4.896,-6.935,-7.442,-4.099,-7.49,-9.66,13.58,-13.58
,-6.837,-4.795,-7.184,-7.339,-4.367,-7.184,-4.27,12.53,-10.43
,-6.899,-4.262,-7.363,-7.15,-4.523,-6.736,0.21,12.11,-8.05
16204.0,-7.011,-4.434,-6.712,-7.152,-1.613,-7.456,5.18,7.28,4.41
,-6.923,-4.006,-6.65,-7.526,-1.792,-7.382,5.04,7.63,6.3
,-6.999,-2.764,-6.846,-7.636,-2.036,-7.018,5.18,7.28,7.84
,-6.98,-1.881,-7.339,-7.401,-1.972,-6.604,0.49,5.11,8.33
16280.0,-7.241,-1.967,-6.399,-6.767,-1.218,-6.966,-2.8,1.19,10.01
,-7.164,-2.134,-6.205,-7.32,-1.651,-7.341,-3.5,1.12,10.01
,-7.246,-2.008,-6.207,-7.502,-1.711,-7.038,-5.6,1.05,10.15
,-6.832,-1.524,-6.652,-7.664,-1.117,-6.923,-7.14,0.35,10.15
16356.0,-7.351,-1.06,-6.647,-6.595,-3.281,-6.334,-0.14,-1.4,2.1
,-7.239,-1.421,-6.312,-7.073,-2.414,-6.762,-3.01,-1.33,1.12
,-7.179,-2.199,-6.243,-7.483,-1.692,-7.054,-6.3,-1.47,2.24
,-6.743,-3.142,-6.164,-7.753,-1.649,-6.858,-6.51,-1.61,3.64
16432.0,-7.739,-1.685,-6.592,-6.803,-2.273,-6.499,3.92,-0.14,4.2
,-7.363,-1.84,-6.291,-7.097,-2.522,-6.796,2.38,-0.07,5.6
,-7.069,-1.981,-6.14,-7.55,-2.352,-6.923,0.7,-0.35,6.58
,-6.908,-2.12,-6.253,-7.533,-1.802,-6.882,-1.33,-0.84,6.51
16507.0,-7.117,-1.5,-6.774,-7.791,-1.448,-6.607,6.16,-1.12,6.58
,-6.868,-1.208,-6.738,-7.48,-1.321,-6.619,5.95,-1.82,6.09
,-7.071,-1.173,-6.994,-7.195,-1.433,-6.602,4.76,-1.68,4.69
,-7.672,-1.328,-6.791,-7.167,-1.61,-6.523,4.62,-1.05,2.94
16583.0,-7.167,-2.094,-6.681,-7.186,-1.744,-6.767,3.57,-2.17,2.03
,-7.456,-2.233,-6.652,-7.186,-1.431,-6.688,5.25,-2.03,2.17
,-7.53,-2.252,-6.743,-7.349,-1.251,-6.968,7.98,-1.89,2.17
,-7.318,-2.07,-6.825,-7.365,-1.713,-6.81,10.29,-2.31,2.17
16659.0,-7.284,-2.469,-6.726,-7.483,-2.163,-6.518,-1.54,-6.37,2.8
,-7.14,-2.565,-6.683,-7.282,-2.024,-6.458,1.68,-6.58,3.29
,-7.365,-2.697,-6.578,-7.274,-1.642,-6.607,5.95,-6.44,3.64
,-7.53,-2.74,-6.566,-7.251,-1.414,-6.813,9.59,-6.51,4.27
16735.0,-7.497,-1.608,-6.899,-7.511,-1.668,-6.655,3.15,-9.17,7.28
,-7.705,-1.969,-6.908,-7.607,-1.28,-6.456,1.82,-9.8,7.21
,-7.76,-2.134,-6.987,-7.37,-1.137,-6.351,3.5,-10.85,6.37
,-7.516,-2.063,-6.997,-7.083,-1.137,-6.358,7.98,-11.97,5.32
16811.0,-7.279,-1.307,-6.676,-7.49,-2.003,-7.243,4.69,-14.21,5.88
,-7.916,-1.771,-6.717,-7.571,-2.28,-6.774,3.85,-14.49,5.25
,-8.038,-1.886,-6.832,-8.088,-2.338,-5.927,5.18,-15.4,4.41
,-7.775,-1.73,-7.131,-7.296,-1.728,-6.312,7.21,-16.31,3.92
16886.0,-6.944,-1.809,-6.475,-7.569,-2.45,-6.341,8.05,-19.46,6.23
,-7.456,-2.087,-6.396,-7.842,-2.123,-5.973,5.11,-19.6,7.49
,-7.916,-2.343,-6.234,-8.244,-1.39,-5.82,4.55,-19.32,8.61
,-7.71,-2.525,-6.253,-7.674,-1.048,-5.985,6.51,-19.11,8.75
16962.0,-7.519,-1.022,-5.934,-7.966,-1.862,-5.76,7.56,-21.0,7.56
,-7.72,-1.352,-5.922,-7.925,-1.907,-5.865,3.08,-21.14,8.12
,-7.87,-1.582,-5.738,-7.959,-1.969,-5.865,1.47,-21.28,8.12
,-7.885,-1.826,-5.741,-7.98,-2.01,-5.688,2.17,-20.86,7.98
17037.0,-8.315,-2.06,-5.214,-8.107,-2.108,-5.425,11.41,-17.71,8.54
,-8.148,-1.814,-5.217,-8.165,-2.225,-5.53,10.64,-20.23,8.96
,-7.834,-1.898,-5.183,-8.21,-2.388,-5.413,7.63,-20.72,9.1
,-7.868,-1.984,-5.315,-8.007,-2.268,-5.334,5.95,-19.81,9.59
17113.0,-7.748,-2.292,-5.298,-8.212,-1.673,-5.257,7.63,-17.22,13.3
,-8.078,-2.419,-4.999,-8.191,-1.555,-5.097,6.93,-17.5,14.77
,-8.236,-2.206,-5.008,-8.212,-1.424,-5.138,6.79,-18.34,15.75
,-8.203,-1.914,-5.188,-8.186,-1.4,-5.336,6.79,-18.41,15.75
17189.0,-8.193,-1.464,-5.427,-8.275,-1.472,-4.829,5.53,-10.22,14.77
,-8.244,-1.689,-5.284,-8.234,-1.168,-5.023,6.65,-8.96,15.19
,-8.265,-1.852,-5.087,-8.196,-1.196,-5.056,9.66,-7.49,15.75
,-8.334,-1.859,-4.805,-8.404,-1.28,-4.96,13.65,-7.49,15.96
17265.0,-8.55,-1.158,-5.073,-8.399,-1.046,-4.882,10.64,-11.9,15.75
,-8.713,-1.007,-5.08,-8.5,-1.374,-4.781,8.05,-12.32,15.33
,-8.528,-0.9,-5.049,-8.461,-1.577,-4.826,5.95,-11.9,15.33
,-8.435,-0.936,-4.999,-8.409,-1.589,-4.915,4.34,-11.62,15.33
17340.0,-8.497,-1.524,-4.862,-8.495,-0.771,-4.901,11.55,-15.05,15.12
,-8.638,-1.216,-4.774,-8.545,-0.897,-4.972,13.3,-15.33,15.05
,-8.545,-0.924,-4.748,-8.509,-0.955,-4.944,12.32,-15.75,14.84
,-8.564,-0.823,-4.714,-8.614,-1.163,-4.776,8.82,-15.96,14.77
17416.0,-8.737,-1.326,-4.47,-8.82,-0.632,-4.64,2.1,-17.43,13.79
,-8.782,-1.297,-4.293,-8.763,-0.593,-4.59,5.95,-17.15,13.65
,-8.775,-1.019,-4.295,-8.739,-0.727,-4.542,9.31,-17.57,13.72
,-8.82,-0.895,-4.322,-8.579,-0.625,-4.489,9.87,-18.06,13.37
17492.0,-8.579,-0.593,-4.391,-8.916,-0.981,-3.948,2.94,-19.18,10.92
,-8.679,-0.474,-4.396,-8.82,-1.091,-3.984,2.52,-19.6,10.22
,-8.83,-0.608,-4.195,-8.648,-0.938,-4.03,1.68,-19.39,9.73
,-8.875,-0.83,-4.015,-8.88,-0.869,-3.671,0.63,-19.25,9.45
17568.0,-9.237,-0.567,-3.752,-8.849,-0.955,-3.455,9.66,-17.71,9.52
,-9.206,-0.349,-3.953,-8.815,-0.988,-3.211,7.56,-17.43,8.68
,-8.997,-0.431,-3.781,-8.916,-0.782,-3.405,3.71,-16.87,8.12
,-8.933,-0.785,-3.64,-8.914,-0.584,-3.544,1.75,-16.1,8.05
17644.0,-9.115,-0.727,-3.381,-8.859,-0.718,-3.917,2.38,-13.86,7.56
,-9.217,-0.629,-3.81,-8.935,-0.794,-3.472,2.03,-13.37,7.49
,-9.117,-0.732,-3.783,-9.201,-0.751,-3.635,3.22,-13.02,7.42
,-9.074,-0.823,-3.671,-9.198,-0.804,-3.673,5.25,-12.53,7.28
17719.0,-9.098,-1.053,-3.721,-9.201,-0.51,-3.819,3.01,-11.83,7.28
,-8.993,-1.17,-3.405,-9.165,-0.617,-3.704,4.34,-11.2,7.91
,-9.265,-1.158,-3.352,-9.05,-0.828,-3.673,7.91,-10.64,8.33
,-9.347,-0.773,-3.778,-8.933,-1.048,-3.029,9.45,-11.27,8.05
17795.0,-9.335,-0.778,-2.812,-9.215,-0.469,-3.637,10.5,-9.31,7.7
,-9.476,-0.203,-3.025,-9.189,-0.78,-3.577,10.15,-9.31,7.21
,-9.33,-0.089,-3.041,-9.203,-0.694,-3.415,7.07,-9.24,7.07
,-9.186,-0.213,-3.345,-9.246,-0.538,-2.953,2.1,-9.59,6.51
17870.0,-9.308,-0.239,-2.874,-9.215,-0.916,-3.099,5.95,-7.28,4.69
,-9.301,-0.127,-2.998,-9.244,-0.921,-3.257,2.45,-7.28,4.2
,-9.304,-0.235,-3.218,-9.265,-0.806,-3.096,-1.75,-7.63,4.34
,-9.244,-0.577,-3.197,-9.356,-0.565,-2.95,-4.41,-7.63,4.06
17946.0,-9.33,-0.469,-2.766,-9.222,-0.397,-3.874,2.45,-4.62,4.27
,-9.395,-0.371,-2.948,-9.143,-0.704,-3.898,0.98,-4.34,3.85
,-9.275,-0.282,-2.869,-9.296,-0.854,-3.553,-1.82,-4.55,3.29
,-9.423,-0.184,-3.606,-9.366,-0.38,-3.845,-4.62,-4.97,2.87
18022.0,-9.296,-0.043,-3.731,-9.253,-0.168,-3.81,2.24,-6.79,2.03
,-9.373,-0.079,-3.594,-9.198,-0.306,-3.563,0.0,-7.56,1.96
,-9.304,-0.345,-3.307,-9.402,-0.608,-3.202,-0.49,-7.77,1.82
,-9.294,-0.321,-3.551,-9.433,-0.802,-2.941,1.96,-8.26,1.61
18098.0,-9.421,-0.852,-2.584,-9.399,-0.491,-2.455,8.75,-7.56,1.82
,-9.538,-0.567,-2.594,-9.469,-0.529,-2.314,10.64,-7.21,1.75
,-9.478,-0.447,-2.687,-9.481,-0.495,-2.328,9.31,-6.86,1.75
,-9.387,-0.474,-2.496,-9.552,-0.287,-2.761,7.35,-6.23,1.68
18173.0,-9.483,-0.337,-3.032,-9.397,-0.39,-3.374,0.56,-3.78,-0.14
,-9.361,-0.558,-3.187,-9.407,-0.148,-3.477,-2.24,-3.92,-0.28
,-9.342,-0.878,-3.106,-9.38,-0.428,-3.221,-0.63,-3.36,0.07
,-9.402,-0.859,-3.075,-9.414,-0.694,-2.998,4.2,-2.73,0.63
18249.0,-9.533,-0.577,-3.293,-9.344,-0.787,-2.51,7.56,-4.48,0.63
,-9.344,-0.378,-3.565,-9.574,-0.672,-2.209,8.19,-5.32,0.42
,-9.28,-0.388,-3.439,-9.605,-0.562,-1.79,7.21,-5.74,0.28
,-9.27,-0.543,-3.108,-9.67,-0.412,-1.974,6.79,-5.74,0.21
18325.0,-9.557,-0.462,-1.993,-9.519,-0.687,-2.0,3.08,-1.61,-0.21
,-9.407,-0.613,-1.984,-9.543,-0.457,-2.048,0.84,-0.56,0.0
,-9.311,-0.835,-1.847,-9.572,-0.318,-2.276,1.4,0.91,0.28
,-9.399,-0.775,-1.866,-9.541,-0.254,-2.539,3.99,2.59,0.63
18401.0,-9.552,-0.108,-3.281,-9.308,-0.794,-3.654,-0.91,5.6,-0.35
,-9.375,-0.431,-3.41,-9.414,-0.893,-3.482,-3.5,5.18,-0.84
,-9.284,-0.682,-3.63,-9.464,-0.792,-3.159,-3.64,4.9,-0.98
,-9.344,-0.804,-3.757,-9.598,-0.62,-3.202,-1.05,4.62,-0.7
18477.0,-9.514,-0.603,-3.135,-9.524,-0.452,-2.857,5.74,2.03,0.42
,-9.452,-0.692,-2.943,-9.485,-0.371,-2.84,4.97,2.03,0.63
,-9.349,-0.727,-2.826,-9.476,-0.397,-2.828,5.39,2.31,0.7
,-9.442,-0.711,-2.781,-9.502,-0.323,-3.053,7.0,2.59,0.84
18552.0,-9.423,-0.218,-3.386,-9.354,-0.955,-3.238,2.52,1.68,-0.35
,-9.34,-0.345,-3.52,-9.435,-0.89,-2.984,-0.14,0.91,-0.56
,-9.392,-0.668,-3.723,-9.541,-0.651,-2.723,-1.19,0.21,-0.77
,-9.356,-0.902,-3.506,-9.56,-0.452,-2.659,0.49,0.0,-0.63
18628.0,-9.5,-0.404,-2.632,-9.447,-0.785,-2.759,6.02,0.35,0.14
,-9.418,-0.617,-2.544,-9.497,-0.553,-2.785,3.36,0.77,0.0
,-9.418,-0.806,-2.369,-9.531,-0.486,-2.864,2.38,1.26,0.0
,-9.445,-0.972,-2.577,-9.49,-0.457,-3.063,3.71,1.96,0.14
18703.0,-9.433,-0.548,-3.307,-9.438,-0.689,-3.259,-0.21,1.96,-0.7
,-9.304,-0.744,-3.309,-9.421,-0.486,-3.262,-0.07,1.75,-0.56
,-9.399,-0.787,-3.307,-9.378,-0.601,-3.132,2.17,1.47,-0.49
,-9.459,-0.704,-3.362,-9.368,-0.715,-2.974,3.57,1.05,-0.28
18779.0,-9.433,-0.744,-2.845,-9.471,-0.634,-2.659,4.69,0.07,-0.07
,-9.478,-0.66,-2.814,-9.474,-0.646,-2.639,5.18,-0.07,-0.14
,-9.514,-0.586,-2.773,-9.426,-0.696,-2.759,4.76,0.28,-0.14
,-9.466,-0.634,-2.709,-9.43,-0.756,-2.836,3.5,0.42,-0.28
18855.0,-9.361,-0.756,-2.943,-9.426,-0.713,-3.259,1.75,1.26,-0.35
,-9.43,-0.73,-3.027,-9.502,-0.653,-3.187,1.68,1.26,-0.21
,-9.399,-0.699,-3.12,-9.481,-0.445,-3.154,1.47,1.05,-0.35
,-9.375,-0.56,-3.276,-9.354,-0.514,-3.082,1.33,0.7,-0.42
18931.0,-9.368,-0.861,-2.977,-9.395,-0.766,-3.139,-5.04,-1.33,-0.84
,-9.44,-1.036,-3.005,-9.373,-0.73,-2.982,-2.24,-0.98,-0.42
,-9.512,-0.814,-3.123,-9.332,-0.818,-2.737,0.49,-1.26,-0.21
,-9.493,-0.775,-3.324,-9.45,-0.797,-2.587,0.49,-1.75,-0.07
19006.0,-9.505,-0.62,-2.529,-9.433,-0.84,-2.644,1.47,-0.77,0.28
,-9.543,-0.407,-2.62,-9.464,-0.854,-2.711,0.77,-0.63,0.21
,-9.564,-0.558,-2.659,-9.514,-0.787,-2.941,-1.96,-0.42,-0.07
,-9.416,-0.771,-2.532,-9.56,-0.727,-3.125,-3.57,-0.14,-0.14
19082.0,-9.416,-0.735,-3.166,-9.495,-0.742,-3.07,0.91,0.91,0.42
,-9.332,-0.751,-3.132,-9.462,-0.713,-2.953,1.33,0.63,0.63
,-9.399,-0.718,-3.089,-9.464,-0.713,-2.982,2.59,0.56,0.84
,-9.442,-0.735,-3.104,-9.466,-0.761,-2.86,3.92,0.49,1.12
19158.0,-9.533,-0.799,-2.783,-9.392,-0.574,-2.891,6.65,0.63,1.54
,-9.557,-0.727,-2.867,-9.373,-0.809,-2.726,6.65,0.28,1.33
,-9.55,-0.436,-2.931,-9.383,-0.866,-2.611,5.18,-0.28,0.84
,-9.49,-0.366,-3.01,-9.505,-0.897,-2.553,1.68,-0.91,0.35
19234.0,-9.569,-0.694,-2.52,-9.462,-0.644,-2.723,4.06,1.12,0.91
,-9.509,-0.696,-2.484,-9.397,-0.835,-2.714,4.62,1.89,1.05
,-9.579,-0.596,-2.45,-9.349,-0.909,-2.924,4.13,2.38,1.26
,-9.572,-0.622,-2.532,-9.433,-0.759,-3.101,2.59,2.66,1.12
19310.0,-9.435,-0.699,-3.192,-9.538,-0.325,-2.766,3.36,2.45,1.05
,-9.418,-0.744,-3.008,-9.433,-0.388,-2.666,3.64,2.31,1.19
,-9.462,-0.749,-2.982,-9.43,-0.601,-2.721,4.2,2.24,1.33
,-9.653,-0.558,-3.044,-9.399,-0.768,-2.663,4.69,1.54,1.12
19385.0,-9.459,-0.881,-2.582,-9.397,-0.407,-2.972,-1.26,2.1,0.42
,-9.457,-1.01,-2.424,-9.34,-0.56,-2.816,0.98,3.01,0.91
,-9.519,-0.725,-2.678,-9.457,-0.794,-2.623,3.22,3.71,0.98
,-9.509,-0.519,-2.891,-9.457,-0.605,-2.429,3.36,3.92,0.91
19461.0,-9.457,-0.514,-2.051,-9.325,-0.447,-3.058,1.33,6.02,1.05
,-9.533,-0.632,-1.764,-9.251,-0.725,-3.242,-0.07,7.07,0.91
,-9.67,-0.479,-2.166,-9.292,-0.924,-3.463,-1.05,7.42,0.42
,-9.6,-0.285,-2.761,-9.241,-0.952,-3.285,-4.62,6.65,-0.28
19536.0,-9.459,-0.692,-3.357,-9.464,-0.526,-2.929,0.49,6.79,0.35
,-9.409,-0.495,-3.223,-9.507,-0.541,-3.238,0.42,6.51,0.14
,-9.454,-0.558,-2.797,-9.44,-0.706,-3.424,0.14,6.44,0.14
,-9.579,-0.479,-3.01,-9.414,-0.785,-3.582,-0.49,6.02,-0.07
19612.0,-9.378,-0.876,-3.431,-9.636,-0.519,-2.216,-2.1,3.85,-0.91
,-9.186,-0.797,-2.991,-9.509,-0.294,-2.268,-1.47,3.99,-0.63
,-9.363,-0.682,-2.606,-9.428,-0.302,-2.209,-0.7,4.41,-0.35
,-9.378,-0.562,-2.288,-9.39,-0.309,-2.391,-1.54,4.83,-0.49
19688.0,-9.275,-0.529,-2.261,-9.45,0.053,-3.264,-8.68,9.87,-1.33
,-9.476,-0.5,-2.501,-9.296,0.036,-3.692,-6.3,11.76,-1.26
,-9.342,-0.476,-2.508,-9.337,-0.213,-3.618,-4.13,13.23,-1.33
,-9.44,-0.297,-2.769,-9.265,-0.402,-3.436,-1.54,13.86,-1.75
19764.0,-9.093,-0.503,-2.994,-9.351,-0.457,-3.106,-10.99,10.99,-5.46
,-9.296,-0.189,-2.393,-9.282,-1.251,-2.991,-6.37,11.97,-6.09
,-9.696,0.359,-3.017,-9.229,-1.402,-2.498,-6.65,11.06,-7.63
,-9.464,0.213,-3.245,-9.277,-1.11,-3.475,-15.61,9.8,-9.17
19839.0,-9.174,-0.928,-4.209,-9.399,-1.931,-2.821,-11.13,8.54,-7.77
,-9.055,-1.165,-4.468,-9.28,-0.684,-2.697,-14.35,8.05,-6.86
,-8.904,-2.242,-3.833,-9.167,0.44,-3.429,-15.12,10.29,-4.76
,-9.21,-2.637,-3.369,-9.275,0.993,-3.637,-4.69,13.3,-2.73
19915.0,-9.361,1.046,-3.321,-9.313,0.352,-3.412,-2.94,11.97,-7.21
,-8.993,1.235,-3.324,-9.466,-0.038,-3.388,-11.27,10.57,-10.22
,-8.832,1.254,-2.95,-9.395,-0.33,-3.072,-15.96,11.48,-12.53
,-9.105,0.802,-3.106,-9.392,-0.067,-2.312,-21.56,12.67,-14.42
19991.0,-9.198,0.701,-3.223,-9.005,-3.376,-4.085,-15.96,14.77,-20.72
,-8.964,0.598,-3.192,-8.799,-3.178,-4.046,-20.44,13.79,-22.33
,-8.99,-0.445,-4.18,-8.547,-2.501,-3.611,-28.0,14.14,-22.26
,-8.835,-2.3,-4.281,-8.969,-1.989,-3.869,-28.84,17.64,-20.37
20067.0,-9.081,-1.737,-3.731,-8.658,-1.077,-4.456,16.03,22.05,-13.72
,-9.275,-2.118,-3.475,-8.5,-0.4,-4.944,12.11,23.17,-12.18
,-9.294,-2.534,-3.508,-8.665,-0.639,-4.602,9.52,22.89,-10.5
,-8.827,-2.02,-3.396,-8.631,-1.015,-4.123,12.67,22.12,-8.75
20142.0,-8.71,-1.405,-3.551,-8.921,-2.039,-3.726,-3.71,22.33,-9.59
,-8.83,-1.481,-3.46,-8.708,-1.96,-3.91,-0.63,21.77,-8.68
,-8.887,-1.498,-3.431,-8.32,-1.831,-4.075,1.05,19.95,-8.26
,-8.914,-1.823,-3.731,-8.478,-1.311,-4.025,-0.21,18.83,-8.12
20218.0,-8.562,-0.759,-4.685,-8.39,-1.766,-4.056,8.05,23.8,-6.86
,-8.926,-0.981,-4.798,-8.21,-0.945,-4.092,4.2,24.22,-7.56
,-9.335,-1.788,-4.477,-8.356,-0.256,-4.348,3.43,24.64,-7.14
,-8.875,-2.036,-4.298,-8.842,-0.304,-4.566,7.63,25.69,-6.16
20294.0,-9.131,-1.149,-4.556,-8.349,-1.713,-5.197,2.17,23.73,-7.7
,-8.973,-1.902,-4.554,-8.196,-1.5,-5.329,-1.33,23.52,-7.42
,-8.327,-2.075,-5.056,-8.143,-1.699,-5.078,-0.07,22.96,-7.7
,-8.153,-2.044,-5.281,-8.421,-2.34,-4.865,2.87,22.89,-8.12
20369.0,-8.579,-2.745,-4.896,-8.167,-1.998,-5.173,7.63,22.75,-1.96
,-8.411,-2.615,-5.025,-8.459,-2.249,-4.941,11.97,22.89,-1.33
,-8.093,-2.268,-5.197,-8.244,-2.268,-5.083,14.63,21.42,-0.56
,-7.889,-1.771,-5.298,-8.181,-2.077,-5.154,14.91,21.42,0.42
20445.0,-8.162,-2.017,-5.116,-8.177,-0.711,-5.915,6.65,24.43,3.99
,-8.325,-1.551,-5.164,-7.954,-0.601,-6.085,8.82,24.85,4.48
,-8.571,-1.084,-5.47,-8.133,-0.572,-5.628,9.52,23.45,4.41
,-8.564,-0.905,-5.705,-8.349,-1.161,-5.425,8.05,21.7,4.34
20521.0,-8.782,-1.888,-5.066,-7.734,-0.725,-5.554,1.89,24.36,0.63
,-8.591,-2.379,-4.929,-7.889,0.0,-5.937,3.71,23.94,0.63
,-8.332,-2.431,-4.884,-8.076,-0.153,-6.071,5.46,22.33,0.98
,-7.849,-1.776,-5.226,-8.337,-0.763,-5.942,7.84,21.35,0.98
20597.0,-8.143,-1.122,-5.879,-7.655,-1.419,-5.245,-9.73,18.83,-2.59
,-7.909,-1.505,-5.989,-7.777,-0.945,-5.439,-5.74,17.99,-3.22
,-7.942,-1.955,-5.975,-7.684,-0.325,-5.745,-1.05,17.92,-2.94
,-7.87,-2.13,-5.973,-7.909,-0.261,-6.025,4.62,17.92,-2.24
20672.0,-8.05,-1.072,-6.169,-7.7,-3.156,-5.714,-9.31,16.66,-4.9
,-8.148,-2.367,-6.068,-7.495,-2.056,-5.872,-12.6,17.15,-4.34
,-7.992,-3.266,-5.86,-7.444,-1.283,-6.097,-9.38,17.71,-3.64
,-7.798,-3.719,-5.681,-7.612,-0.696,-6.37,-2.8,18.97,-2.52
20748.0,-7.846,-0.613,-6.564,-7.557,-1.656,-5.987,5.25,17.29,0.07
,-7.858,-1.531,-6.437,-7.918,-0.821,-6.155,-0.14,17.43,0.0
,-7.772,-2.441,-6.334,-7.98,-0.538,-6.269,-0.42,17.78,-0.56
,-7.564,-2.429,-6.162,-7.839,-0.912,-6.262,5.6,18.41,-1.68
20824.0,-7.681,-1.665,-6.092,-7.803,-1.318,-6.226,-2.45,17.71,-4.69
,-7.382,-2.235,-6.186,-7.597,-0.991,-6.336,-1.54,18.13,-4.48
,-7.454,-2.362,-6.155,-7.42,-0.972,-6.336,2.87,18.55,-4.9
,-7.729,-2.02,-6.162,-7.411,-1.127,-6.327,7.14,18.76,-5.04
20900.0,-7.612,-1.608,-6.073,-7.341,-1.857,-6.461,-2.8,15.82,-7.14
,-7.66,-2.079,-6.195,-7.069,-0.861,-6.782,-3.85,15.75,-7.07
,-7.387,-2.551,-6.21,-7.239,-0.345,-6.65,-2.59,15.75,-6.79
,-7.444,-2.702,-6.15,-7.535,-0.653,-6.784,1.19,16.17,-6.58
20975.0,-7.53,-1.273,-6.626,-7.207,-2.484,-6.454,-7.98,14.77,-9.87
,-7.327,-2.027,-6.485,-7.117,-1.855,-6.671,-7.42,14.7,-10.15
,-7.387,-2.764,-6.332,-6.999,-1.558,-6.813,-3.64,15.12,-10.64
,-7.413,-3.01,-6.305,-7.198,-1.788,-6.841,1.47,15.19,-10.78
21051.0,-7.382,-2.402,-6.901,-6.691,-4.111,-6.667,-4.48,13.93,-6.72
,-7.205,-3.288,-6.703,-6.817,-3.269,-6.865,-4.2,13.58,-5.53
,-6.932,-3.874,-6.636,-7.121,-2.084,-7.27,0.0,12.74,-4.06
,-6.58,-4.436,-6.731,-7.248,-1.596,-7.514,4.97,12.95,-1.89
21127.0,-7.365,-2.099,-7.437,-7.114,-2.797,-6.851,7.21,10.71,4.2
,-7.425,-2.905,-7.009,-7.236,-2.345,-6.92,3.36,10.15,6.23
,-7.095,-3.23,-6.923,-6.954,-1.998,-7.069,5.39,9.59,7.14
,-6.738,-2.962,-6.916,-7.102,-2.01,-7.164,9.31,9.17,7.21
21202.0,-7.387,-1.972,-7.133,-7.306,-1.551,-7.078,5.04,5.81,9.52
,-7.176,-1.553,-6.994,-7.253,-1.816,-6.817,7.14,5.6,8.96
,-7.246,-1.235,-7.152,-7.011,-1.991,-6.846,5.46,4.55,7.84
,-7.219,-1.251,-7.21,-7.057,-2.065,-6.671,1.68,3.64,6.86
21278.0,-6.947,-2.479,-6.48,-7.428,-1.668,-6.561,0.14,2.1,5.67
,-6.798,-2.388,-6.516,-7.495,-1.929,-6.659,2.8,2.24,7.42
,-6.578,-1.795,-6.54,-7.212,-1.785,-6.746,4.13,2.24,8.26
,-6.896,-1.608,-6.645,-6.951,-1.744,-6.755,2.66,2.31,8.47
21354.0,-6.743,-1.704,-6.691,-7.176,-1.519,-7.066,1.54,2.8,6.93
,-6.975,-1.67,-6.667,-7.071,-1.776,-6.99,2.38,3.29,6.3
,-7.207,-1.608,-6.595,-6.971,-1.718,-7.184,3.5,3.36,5.74
,-7.112,-1.359,-6.88,-7.222,-1.778,-7.138,3.99,2.94,5.11
21430.0,-7.535,-1.783,-7.105,-6.779,-2.304,-7.124,6.16,1.82,2.94
,-7.21,-1.744,-7.073,-7.15,-2.407,-7.251,5.46,0.7,2.24
,-6.76,-1.704,-7.05,-7.399,-2.276,-7.05,3.36,-0.28,2.24
,-6.743,-2.06,-7.248,-7.514,-1.778,-6.985,1.68,-1.05,3.08
21505.0,-7.023,-1.46,-6.911,-7.586,-1.96,-7.112,5.6,-3.57,2.87
,-6.691,-1.744,-7.033,-7.526,-1.831,-6.966,2.87,-4.62,3.22
,-7.066,-1.993,-7.1,-7.262,-1.871,-6.829,1.96,-4.48,3.22
,-7.411,-2.017,-7.169,-6.65,-2.118,-6.908,4.06,-4.48,2.17
21581.0,-6.813,-2.278,-7.016,-7.124,-1.996,-6.918,8.05,-7.42,2.87
,-7.294,-2.29,-7.03,-7.358,-2.343,-6.75,10.08,-7.56,2.94
,-7.401,-2.173,-6.99,-7.444,-2.575,-6.693,11.69,-8.12,2.45
,-7.145,-2.008,-6.892,-7.559,-2.56,-6.748,12.39,-8.89,2.38
21657.0,-7.349,-2.417,-6.382,-7.076,-2.075,-6.825,16.38,-10.08,4.27
,-7.401,-2.01,-6.461,-7.444,-2.29,-6.837,15.89,-10.01,4.83
,-7.188,-1.967,-6.557,-7.559,-2.29,-6.765,13.23,-10.43,5.74
,-7.131,-1.931,-6.674,-7.418,-2.13,-6.872,10.64,-10.99,7.07
21733.0,-7.389,-2.204,-6.559,-7.356,-2.187,-6.547,10.43,-13.58,7.98
,-7.425,-1.728,-6.604,-7.504,-2.295,-6.466,8.54,-15.12,9.59
,-7.222,-1.735,-6.652,-7.554,-2.134,-6.451,4.9,-16.1,10.71
,-7.229,-2.089,-6.616,-7.731,-1.917,-6.334,2.52,-16.24,11.41
21808.0,-7.526,-1.685,-6.332,-7.849,-0.802,-6.269,7.07,-17.36,13.51
,-7.286,-1.711,-6.396,-7.542,-0.952,-6.298,5.11,-17.29,13.23
,-7.519,-1.548,-6.241,-7.533,-1.299,-6.119,4.76,-16.52,12.53
,-7.937,-1.184,-6.143,-7.676,-1.584,-5.669,4.06,-16.8,11.76
21884.0,-7.674,-1.46,-5.69,-7.894,-1.663,-5.834,-2.1,-15.82,8.4
,-7.679,-1.342,-5.82,-7.772,-1.582,-5.884,-1.75,-16.73,7.14
,-7.904,-1.405,-5.918,-7.576,-1.256,-6.164,-2.45,-16.66,6.79
,-7.992,-1.668,-5.82,-7.607,-1.268,-6.229,-2.31,-15.89,7.28
21960.0,-7.758,-1.323,-6.111,-7.916,-1.259,-5.887,-4.06,-17.71,6.09
,-7.988,-1.441,-5.858,-8.086,-1.469,-5.669,-4.55,-16.94,5.53
,-7.921,-1.45,-5.827,-7.988,-1.759,-5.363,-4.13,-16.31,4.97
,-7.887,-1.347,-5.855,-7.868,-1.847,-5.339,-3.5,-15.47,4.48
22035.0,-7.822,-1.967,-5.48,-8.112,-1.706,-5.355,-2.8,-16.8,4.76
,-7.798,-2.07,-5.556,-8.045,-1.424,-5.391,-2.17,-17.01,5.67
,-8.052,-2.015,-5.384,-7.99,-1.307,-5.47,-0.98,-16.24,6.58
,-8.112,-1.936,-5.329,-7.918,-1.498,-5.398,0.14,-15.26,7.0
22111.0,-8.074,-1.84,-5.106,-8.196,-1.17,-5.264,-4.69,-10.85,8.82
,-8.114,-1.788,-5.162,-8.251,-1.199,-5.164,-4.13,-11.9,8.96
,-8.227,-1.548,-5.264,-8.222,-1.074,-5.31,-2.73,-12.6,8.89
,-8.306,-1.309,-5.296,-8.11,-1.022,-5.43,-1.47,-12.74,8.68
22187.0,-8.153,-1.079,-5.391,-8.251,-1.115,-5.298,-5.04,-14.14,7.42
,-8.27,-1.141,-5.307,-8.196,-1.201,-5.363,-4.9,-13.02,7.07
,-8.203,-1.165,-5.224,-8.339,-1.376,-5.566,-3.99,-11.9,6.58
,-8.248,-1.079,-5.245,-8.358,-1.778,-5.415,-3.01,-10.78,6.23
22263.0,-8.311,-2.096,-5.164,-8.38,-2.797,-5.499,-2.45,-7.84,8.12
,-8.21,-2.091,-5.109,-8.442,-2.871,-5.688,0.35,-7.91,9.03
,-8.246,-2.364,-5.121,-8.425,-2.84,-5.678,0.0,-9.03,10.57
,-8.291,-2.668,-5.255,-8.26,-2.548,-5.686,-0.91,-10.64,13.16
22338.0,-7.976,-2.099,-5.607,-8.603,-1.23,-5.255,9.03,-14.21,22.82
,-7.959,-1.718,-5.573,-8.614,-1.024,-5.413,10.15,-14.14,24.71
,-8.212,-1.522,-5.444,-8.519,-0.675,-5.37,9.87,-14.14,26.18
,-8.526,-1.35,-5.267,-8.48,-0.345,-5.348,10.64,-14.07,27.09
22414.0,-8.37,-0.129,-5.25,-8.739,0.541,-4.74,21.63,-16.52,27.86
,-8.569,0.048,-5.114,-8.617,0.725,-4.448,22.96,-17.29,26.88
,-8.729,0.302,-5.051,-8.658,0.68,-4.558,23.24,-18.2,24.99
,-8.737,0.445,-4.834,-8.538,0.622,-4.554,22.68,-18.2,23.1
22490.0,-8.655,0.538,-4.343,-8.88,0.438,-4.101,9.87,-19.6,13.93
,-8.894,0.366,-4.106,-8.691,0.385,-4.173,9.45,-18.83,11.9
,-9.055,0.428,-3.984,-8.753,-0.048,-4.128,9.45,-18.34,9.8
,-8.978,0.471,-3.987,-8.93,-0.464,-3.865,7.84,-18.06,8.19
22566.0,-8.904,-0.553,-4.073,-8.851,-1.017,-4.121,-1.61,-17.15,2.8
,-8.818,-0.589,-4.365,-8.751,-0.907,-4.07,-2.52,-17.36,2.45
,-8.832,-0.622,-4.424,-8.82,-0.979,-3.944,-3.71,-17.5,2.73
,-8.875,-0.912,-4.156,-9.016,-0.926,-3.805,-3.15,-17.08,3.15
22641.0,-9.038,-0.828,-4.13,-8.808,-0.524,-4.31,0.91,-15.47,5.18
,-8.966,-0.916,-3.991,-8.952,-0.593,-4.188,0.7,-15.19,5.88
,-8.981,-0.866,-3.97,-9.206,-0.57,-4.078,1.89,-15.19,6.51
,-8.823,-0.737,-4.145,-9.182,-0.419,-3.991,3.22,-15.68,6.79
22717.0,-8.911,-0.223,-3.941,-9.189,-0.804,-3.652,9.73,-14.77,6.86
,-8.765,0.086,-4.216,-9.332,-0.694,-3.314,9.31,-15.54,6.23
,-8.734,0.036,-4.482,-9.249,-0.325,-3.108,5.39,-16.8,5.88
,-8.866,-0.519,-4.111,-9.148,-0.065,-2.694,3.85,-16.87,6.16
22792.0,-9.088,0.124,-3.01,-9.021,-0.263,-3.128,7.7,-13.51,4.62
,-8.961,-0.005,-2.972,-9.277,-0.337,-2.943,2.1,-13.23,3.85
,-9.04,-0.227,-2.922,-9.332,-0.359,-2.761,1.05,-12.25,3.92
,-9.007,-0.244,-3.049,-9.323,-0.223,-2.525,1.19,-11.27,3.57
22868.0,-9.277,0.132,-2.69,-9.11,-0.364,-4.226,5.67,-5.67,2.38
,-9.244,0.347,-3.02,-9.1,-0.646,-3.917,2.73,-5.81,1.33
,-9.162,0.256,-3.549,-9.318,-0.555,-3.915,-2.38,-5.95,0.7
,-9.21,-0.055,-4.018,-9.244,-0.328,-3.963,-5.67,-6.3,0.14
22944.0,-9.263,-0.5,-3.515,-9.392,-0.045,-3.396,4.2,-6.65,-0.14
,-9.38,-0.603,-3.123,-9.198,0.029,-3.738,5.32,-5.95,0.35
,-9.445,-0.608,-3.01,-9.131,-0.421,-3.666,7.7,-5.74,0.42
,-9.43,-0.309,-2.979,-9.244,-0.615,-3.764,8.12,-5.95,0.07
23020.0,-9.325,-0.72,-3.527,-9.261,-0.357,-3.498,2.31,-6.79,-0.91
,-9.328,-0.778,-3.453,-9.356,-0.512,-3.376,5.88,-6.44,-0.49
,-9.308,-0.653,-3.364,-9.292,-0.608,-3.089,8.05,-6.37,-0.07
,-9.373,-0.531,-3.388,-9.34,-0.598,-2.795,9.38,-6.72,0.14
23096.0,-9.383,-0.402,-2.718,-9.402,-0.39,-3.326,12.88,-4.2,0.42
,-9.502,-0.27,-2.587,-9.225,-0.543,-3.364,12.11,-3.57,0.21
,-9.517,-0.254,-2.728,-9.184,-0.605,-3.381,9.59,-3.29,-0.07
,-9.5,-0.292,-2.95,-9.179,-0.694,-3.223,6.37,-3.29,-0.49
23171.0,-9.225,-0.565,-2.96,-9.349,-0.651,-3.013,7.0,-1.54,-0.21
,-9.435,-0.388,-2.656,-9.203,-0.823,-2.819,8.19,-1.19,-0.21
,-9.579,-0.213,-3.053,-9.337,-0.823,-2.733,5.39,-1.68,-0.7
,-9.354,-0.455,-2.907,-9.371,-0.56,-2.548,1.82,-1.82,-0.98
23247.0,-9.459,-0.349,-2.426,-9.287,-0.203,-3.321,6.58,2.73,0.0
,-9.366,-0.361,-2.144,-9.153,-0.419,-3.384,3.29,3.71,-0.28
,-9.524,-0.397,-2.367,-9.167,-0.756,-3.273,1.82,4.41,-0.42
,-9.464,-0.163,-2.982,-9.222,-0.806,-3.163,-0.28,4.27,-0.91
23323.0,-9.433,-0.493,-3.312,-9.299,-0.723,-3.132,3.85,5.81,-0.42
,-9.361,-0.251,-3.25,-9.366,-0.73,-3.013,3.22,5.53,-0.63
,-9.418,-0.342,-3.218,-9.435,-0.541,-3.192,0.56,5.32,-0.84
,-9.344,-0.608,-3.137,-9.347,-0.436,-3.238,-1.12,5.32,-0.91
23399.0,-9.378,-0.342,-3.589,-9.273,-0.749,-3.58,-0.14,5.81,-1.26
,-9.217,-0.44,-3.687,-9.332,-0.651,-3.441,-1.68,5.18,-1.33
,-9.134,-0.67,-3.699,-9.397,-0.55,-3.417,-1.33,5.04,-1.05
,-9.141,-0.689,-3.695,-9.292,-0.493,-3.396,0.56,4.97,-0.63
23474.0,-9.234,-0.517,-3.491,-9.311,-0.732,-3.352,1.54,3.92,-0.07
,-9.296,-0.672,-3.46,-9.313,-0.62,-3.4,0.84,3.78,-0.07
,-9.363,-0.759,-3.455,-9.299,-0.562,-3.427,1.4,3.85,0.07
,-9.301,-0.718,-3.424,-9.241,-0.558,-3.405,2.17,3.85,0.21
23550.0,-9.225,-0.613,-3.36,-9.239,-0.605,-3.235,2.8,4.06,0.56
,-9.347,-0.61,-3.314,-9.308,-0.481,-3.699,2.87,4.13,0.42
,-9.349,-0.61,-3.384,-9.194,-0.608,-3.563,2.73,3.92,0.35
,-9.282,-0.562,-3.467,-9.368,-0.663,-3.553,2.24,3.78,0.35
23625.0,-9.268,-0.663,-3.549,-9.332,-0.455,-3.58,2.8,3.43,0.63
,-9.304,-0.617,-3.506,-9.282,-0.495,-3.683,4.27,3.29,0.84
,-9.356,-0.455,-3.522,-9.213,-0.711,-3.687,5.11,3.22,0.77
,-9.347,-0.404,-3.527,-9.241,-0.735,-3.585,3.99,3.22,0.7
23701.0,-9.277,-0.677,-3.618,-9.203,-0.663,-3.36,4.83,2.17,0.63
,-9.328,-0.479,-3.625,-9.241,-0.677,-3.23,5.25,1.89,0.56
,-9.296,-0.359,-3.565,-9.318,-0.601,-3.252,3.99,1.68,0.49
,-9.234,-0.524,-3.475,-9.361,-0.517,-3.271,2.38,1.4,0.35
23777.0,-9.318,-0.452,-3.36,-9.165,-0.826,-3.676,2.59,2.03,0.35
,-9.313,-0.354,-3.877,-9.246,-0.852,-3.52,2.52,1.75,0.14
,-9.208,-0.376,-3.896,-9.323,-0.773,-3.439,0.63,1.19,-0.07
,-9.148,-0.651,-3.932,-9.416,-0.445,-3.733,-0.98,1.12,0.07
23853.0,-9.232,-0.369,-3.546,-9.253,-0.725,-3.257,3.92,0.35,0.49
,-9.423,-0.567,-3.747,-9.253,-0.725,-3.137,3.64,0.35,0.63
,-9.217,-0.629,-3.51,-9.323,-0.629,-3.072,3.64,0.63,0.7
,-9.246,-0.687,-3.561,-9.392,-0.467,-3.271,4.27,0.77,0.77
23929.0,-9.402,-0.407,-3.429,-9.165,-0.794,-3.814,3.43,1.54,0.7
,-9.337,-0.486,-3.628,-9.273,-0.72,-3.695,1.4,1.4,0.28
,-9.261,-0.565,-3.754,-9.371,-0.637,-3.544,0.14,1.05,0.14
,-9.155,-0.653,-3.891,-9.411,-0.464,-3.374,0.35,0.7,0.14
24004.0,-9.296,-0.321,-3.288,-9.227,-0.885,-3.262,3.01,-0.07,0.28
,-9.244,-0.421,-3.317,-9.32,-0.711,-3.405,-0.07,-0.35,0.07
,-9.251,-0.672,-3.321,-9.323,-0.596,-3.465,-1.12,-0.07,0.21
,-9.222,-0.814,-3.278,-9.229,-0.517,-3.527,-0.07,0.0,0.35
24080.0,-9.256,-0.491,-3.821,-9.27,-0.625,-3.381,3.78,0.42,0.91
,-9.186,-0.601,-3.549,-9.337,-0.512,-3.733,3.5,0.42,0.98
,-9.273,-0.627,-3.496,-9.263,-0.538,-3.498,4.27,0.35,0.98
,-9.292,-0.603,-3.4,-9.261,-0.581,-3.419,4.06,0.49,0.98
24156.0,-9.33,-0.692,-3.285,-9.296,-0.608,-3.357,4.69,1.12,1.47
,-9.294,-0.682,-3.125,-9.268,-0.591,-3.441,4.97,1.4,1.4
,-9.356,-0.572,-3.135,-9.27,-0.648,-3.475,4.97,1.47,1.26
,-9.33,-0.548,-3.273,-9.33,-0.641,-3.427,4.2,1.47,1.19
24232.0,-9.294,-0.625,-3.295,-9.356,-0.438,-3.549,3.64,1.68,1.05
,-9.323,-0.637,-3.218,-9.261,-0.589,-3.661,3.92,2.03,1.12
,-9.373,-0.555,-3.13,-9.206,-0.771,-3.75,3.78,2.31,0.98
,-9.399,-0.44,-3.324,-9.253,-0.744,-3.817,2.73,2.17,0.7
24307.0,-9.203,-0.708,-3.668,-9.299,-0.534,-3.273,2.8,0.77,0.35
,-9.263,-0.672,-3.477,-9.289,-0.639,-3.159,3.29,0.63,0.49
,-9.246,-0.601,-3.419,-9.332,-0.622,-3.187,3.64,0.7,0.56
,-9.296,-0.572,-3.309,-9.275,-0.567,-3.264,3.5,0.7,0.56
24383.0,-9.292,-0.629,-3.336,-9.34,-0.553,-3.503,2.52,1.61,0.77
,-9.28,-0.632,-3.374,-9.277,-0.541,-3.494,2.17,1.68,0.77
,-9.273,-0.651,-3.429,-9.256,-0.627,-3.486,2.31,1.89,0.77
,-9.33,-0.524,-3.498,-9.289,-0.715,-3.41,2.45,1.75,0.63
24458.0,-9.301,-0.668,-3.427,-9.287,-0.558,-3.396,2.66,1.47,0.42
,-9.284,-0.615,-3.367,-9.287,-0.613,-3.506,3.15,1.54,0.49
,-9.335,-0.579,-3.369,-9.253,-0.648,-3.513,3.5,1.75,0.63
,-9.318,-0.488,-3.4,-9.227,-0.615,-3.534,3.01,1.68,0.56
24534.0,-9.265,-0.732,-3.486,-9.299,-0.57,-3.223,2.45,1.54,0.42
,-9.308,-0.727,-3.491,-9.392,-0.57,-3.262,3.15,1.47,0.7
,-9.311,-0.632,-3.415,-9.241,-0.443,-3.381,3.78,1.54,0.77
,-9.306,-0.632,-3.352,-9.239,-0.639,-3.063,3.92,1.47,0.56
24610.0,-9.284,-0.696,-3.381,-9.289,-0.761,-3.439,1.26,1.75,0.28
,-9.253,-0.668,-3.489,-9.268,-0.744,-3.475,1.96,1.47,0.07
,-9.292,-0.634,-3.568,-9.28,-0.658,-3.396,2.38,1.47,0.14
,-9.237,-0.687,-3.273,-9.318,-0.519,-3.475,2.03,1.75,0.28
24686.0,-9.296,-0.538,-3.553,-9.277,-0.651,-3.3,3.36,0.84,0.28
,-9.296,-0.543,-3.486,-9.263,-0.543,-3.415,2.38,0.98,0.28
,-9.263,-0.715,-3.396,-9.301,-0.579,-3.46,1.96,1.05,0.28
,-9.275,-0.727,-3.352,-9.229,-0.651,-3.475,2.45,1.19,0.35
24762.0,-9.277,-0.57,-3.4,-9.349,-0.589,-3.565,2.03,1.33,0.42
,-9.366,-0.603,-3.436,-9.194,-0.739,-2.943,1.61,1.47,0.35
,-9.33,-0.701,-3.101,-9.368,-0.893,-3.714,1.82,1.82,0.49
,-9.301,-0.495,-3.324,-9.268,-0.605,-3.855,0.84,1.68,0.28
24837.0,-9.239,-0.634,-3.448,-9.316,-0.684,-3.443,2.52,1.05,0.21
,-9.206,-0.469,-3.721,-9.148,-0.656,-3.139,2.24,0.42,0.0
,-9.289,-0.589,-3.814,-9.411,-0.804,-3.575,1.33,0.42,0.14
,-9.284,-0.656,-3.568,-9.344,-0.766,-3.434,1.54,0.28,0.14
24913.0,-9.227,-0.699,-3.01,-9.268,-0.507,-3.609,4.9,0.42,0.7
,-9.33,-0.648,-3.233,-9.201,-0.692,-3.458,5.25,0.42,0.7
,-9.342,-0.553,-3.357,-9.284,-0.766,-3.692,4.97,0.35,0.63
,-9.261,-0.412,-3.494,-9.256,-0.682,-3.556,3.85,0.28,0.42
24989.0,-9.366,-0.581,-3.47,-9.349,-0.625,-3.321,4.41,-0.07,0.35
,-9.392,-0.505,-3.364,-9.225,-0.742,-3.238,3.92,0.07,0.21
,-9.32,-0.421,-3.415,-9.265,-0.78,-3.113,2.66,-0.28,0.0
,-9.275,-0.464,-3.326,-9.332,-0.668,-3.364,0.91,-0.42,-0.28
25065.0,-9.253,-0.706,-3.262,-9.277,-0.754,-3.12,2.45,0.21,0.0
,-9.256,-0.694,-3.13,-9.296,-0.672,-3.058,2.17,0.42,0.07
,-9.318,-0.668,-3.185,-9.304,-0.66,-2.931,1.33,0.63,0.14
,-9.246,-0.749,-3.084,-9.347,-0.56,-2.682,0.07,0.7,0.07
25140.0,-9.442,-0.479,-2.826,-9.239,-0.704,-3.537,-0.07,3.99,0.28
,-9.349,-0.493,-2.8,-9.251,-0.581,-3.501,-1.61,4.27,0.0
,-9.318,-0.543,-3.125,-9.351,-0.531,-3.592,-3.08,4.41,-0.21
,-9.184,-0.617,-3.288,-9.43,-0.471,-3.491,-3.78,4.76,-0.28
25216.0,-9.328,-0.459,-3.635,-9.28,-0.699,-3.592,-1.54,5.25,-0.7
,-9.206,-0.593,-3.376,-9.284,-0.596,-3.714,-1.89,5.18,-0.84
,-9.316,-0.57,-3.503,-9.22,-0.735,-3.609,-1.26,4.83,-1.05
,-9.287,-0.62,-3.632,-9.225,-0.799,-3.618,-2.52,4.34,-1.47
25291.0,-9.232,-0.893,-3.197,-9.337,0.072,-3.101,-0.98,4.2,-1.12
,-9.387,-0.838,-2.994,-9.122,-0.069,-3.321,1.19,4.9,-0.98
,-9.414,-0.572,-2.721,-8.957,-0.591,-3.57,1.68,5.39,-1.05
,-9.545,-0.237,-2.838,-8.885,-1.24,-3.283,0.91,5.39,-1.61
25367.0,-9.148,-1.297,-3.029,-9.05,-0.026,-2.615,-4.97,7.91,-1.75
,-9.28,-0.924,-2.802,-9.117,-0.464,-2.29,2.31,9.31,-1.19
,-9.21,-0.491,-2.357,-9.141,-0.369,-2.668,6.65,10.78,-1.05
,-9.251,0.108,-2.797,-9.083,-0.189,-3.087,5.88,10.92,-1.68
25443.0,-9.232,-0.041,-3.522,-9.0,-0.701,-2.637,-2.03,14.56,-4.97
,-9.186,-0.242,-3.855,-9.136,-0.38,-2.603,-7.0,14.28,-5.81
,-9.287,-0.842,-3.604,-9.143,0.134,-3.257,-10.08,14.77,-6.02
,-9.136,-0.912,-3.398,-9.198,0.093,-3.238,-8.26,15.89,-5.95
25519.0,-9.174,-0.124,-3.934,-9.048,-0.646,-4.073,-21.84,14.35,-9.38
,-9.033,-0.538,-4.07,-8.866,-0.45,-3.565,-25.34,14.07,-9.94
,-9.134,-0.919,-4.329,-8.906,-0.402,-3.848,-23.52,15.26,-9.59
,-9.026,-1.015,-3.92,-8.677,-0.869,-3.47,-18.34,16.1,-9.59
25595.0,-8.808,-1.122,-3.149,-9.057,-0.471,-4.491,-10.57,19.81,-8.75
,-8.933,-1.01,-3.577,-8.847,-0.677,-4.089,-6.51,20.16,-8.75
,-8.923,-0.723,-3.85,-8.576,-0.663,-3.963,-4.97,18.27,-9.31
,-9.04,-0.45,-4.25,-8.22,-0.581,-3.486,-6.23,16.59,-9.59
25670.0,-8.416,-0.591,-3.393,-8.409,-0.4,-3.96,-7.49,23.45,-11.76
,-8.969,-0.909,-3.589,-8.248,-0.172,-4.326,-9.31,24.22,-12.04
,-9.153,-1.027,-3.738,-8.351,-0.189,-4.695,-10.36,24.22,-11.48
,-9.457,-0.756,-4.018,-8.732,-0.203,-4.853,-9.73,22.26,-10.57
25746.0,-9.031,-0.447,-4.721,-9.081,-0.483,-4.764,-11.06,25.69,-13.44
,-8.935,-0.658,-4.097,-9.091,-0.893,-5.018,-9.45,26.67,-13.72
,-8.65,-0.412,-4.046,-8.672,-0.905,-5.202,-5.46,26.32,-14.98
,-8.708,-0.258,-4.405,-7.686,-0.859,-5.65,-5.11,25.9,-17.01
25822.0,-7.444,-0.503,-5.662,-9.031,-1.898,-4.551,6.02,26.6,-18.55
,-8.062,-0.572,-5.406,-8.815,-2.448,-4.535,8.26,26.81,-18.97
,-8.705,-0.861,-4.925,-8.614,-2.826,-4.451,8.47,27.3,-19.53
,-9.05,-1.326,-4.838,-8.363,-2.726,-4.685,7.21,27.3,-19.67
25898.0,-7.985,-2.18,-5.461,-7.978,-1.175,-6.195,10.85,21.91,-14.14
,-7.885,-1.364,-5.87,-8.234,-1.603,-5.889,9.94,20.72,-13.3
,-7.688,-0.816,-6.229,-8.545,-1.876,-5.523,6.93,19.6,-12.81
,-7.533,-0.83,-6.454,-8.275,-1.965,-5.169,1.82,20.23,-12.25
25973.0,-8.174,-2.123,-4.745,-8.09,-2.539,-5.611,8.19,22.75,-10.78
,-8.248,-2.34,-4.862,-7.562,-1.979,-6.056,10.78,22.96,-9.8
,-8.44,-2.429,-4.992,-7.43,-1.407,-6.145,12.53,23.24,-8.75
,-8.344,-2.503,-5.312,-7.818,-0.933,-5.973,13.93,23.38,-7.56
26049.0,-7.937,-0.474,-5.817,-7.913,-2.721,-5.224,7.7,21.56,-6.37
,-8.342,-0.605,-5.532,-7.767,-2.771,-5.374,1.47,22.47,-7.35
,-8.533,-1.342,-5.231,-7.722,-2.362,-5.449,-3.71,23.17,-7.63
,-8.315,-2.087,-5.248,-7.777,-2.015,-5.583,-6.37,23.17,-6.65
26124.0,-7.889,-1.665,-5.662,-7.837,-1.776,-6.183,15.82,25.62,-5.11
,-7.815,-1.57,-5.906,-7.66,-1.543,-6.303,13.3,25.83,-4.69
,-7.641,-1.675,-6.09,-7.306,-1.606,-6.573,9.38,25.83,-4.55
,-7.629,-1.682,-6.272,-7.339,-2.003,-6.406,7.56,26.39,-4.9
26200.0,-7.588,-2.398,-6.085,-7.353,-2.769,-5.748,7.14,25.83,-3.22
,-7.734,-2.781,-5.896,-7.14,-2.134,-5.963,10.01,26.04,-3.71
,-8.066,-2.972,-5.602,-7.385,-1.015,-6.592,12.39,26.53,-3.36
,-7.88,-2.953,-5.628,-7.595,-0.323,-7.145,14.0,26.18,-2.24
26276.0,-7.715,-0.596,-6.951,-7.351,-2.651,-6.289,3.5,25.55,-2.38
,-7.779,-1.151,-6.748,-7.37,-3.046,-6.183,-0.21,24.92,-2.8
,-7.514,-1.677,-6.829,-7.026,-3.357,-6.217,-0.07,23.73,-3.57
,-7.353,-2.099,-6.631,-6.853,-3.577,-6.399,2.66,23.52,-3.99
26352.0,-6.738,-3.032,-6.549,-7.246,0.302,-7.128,16.87,23.24,1.26
,-6.856,-2.108,-6.844,-7.274,0.057,-6.961,18.34,23.87,-0.14
,-7.413,-0.797,-7.265,-7.289,-0.931,-6.698,16.24,23.38,-1.61
,-7.468,0.084,-7.306,-7.351,-1.79,-6.444,9.66,22.47,-2.38
26428.0,-7.435,-2.682,-6.133,-6.954,0.514,-7.265,-2.8,21.07,-7.56
,-7.332,-3.314,-6.083,-7.411,0.574,-7.09,5.39,21.28,-8.19
,-6.961,-2.541,-6.085,-7.291,-0.242,-7.047,14.7,22.4,-7.98
,-6.755,-0.672,-6.758,-7.047,-1.278,-7.205,19.88,22.4,-8.82
26503.0,-6.935,-2.35,-6.829,-6.435,-0.888,-7.94,-18.06,16.87,-16.38
,-6.813,-3.178,-6.815,-7.081,-0.634,-7.681,-11.9,17.5,-16.87
,-6.638,-3.29,-7.097,-7.121,-1.187,-7.406,-2.94,17.57,-17.08
,-6.365,-2.056,-7.648,-6.793,-2.015,-7.581,8.33,17.5,-17.57
26579.0,-6.432,-3.139,-7.418,-6.26,-3.525,-7.315,-7.14,10.92,-19.67
,-6.468,-4.082,-6.849,-5.963,-2.326,-7.935,-6.16,11.62,-18.62
,-6.77,-4.513,-6.614,-6.425,-1.778,-8.066,-4.41,12.11,-17.78
,-6.578,-4.719,-6.624,-6.695,-2.266,-7.947,-1.4,11.76,-15.96
26655.0,-6.77,-3.113,-7.48,-6.351,-1.831,-7.157,-21.49,7.56,-9.1
,-6.808,-3.63,-7.071,-6.334,-2.032,-7.492,-18.13,8.05,-6.72
,-6.698,-3.532,-6.863,-6.513,-2.831,-7.684,-10.85,8.54,-6.65
,-6.396,-2.749,-6.973,-6.576,-3.556,-7.65,-4.13,8.26,-7.42
26731.0,-6.762,-3.604,-7.691,-6.15,-3.195,-7.574,-4.62,5.46,-1.75
,-6.844,-3.204,-7.947,-6.224,-3.137,-7.48,-1.61,4.48,-2.94
,-6.621,-2.781,-7.973,-6.403,-3.118,-7.282,-2.31,3.29,-3.85
,-6.255,-2.9,-7.844,-6.602,-2.769,-7.152,-6.72,2.1,-3.01
26806.0,-6.7,-2.216,-7.057,-6.569,-1.835,-7.286,-1.75,1.4,2.66
,-6.518,-2.113,-7.286,-6.504,-1.429,-7.435,-2.45,0.07,2.45
,-6.604,-1.886,-7.562,-6.229,-1.388,-7.571,-2.38,-0.28,2.31
,-6.576,-2.029,-7.43,-6.174,-1.464,-7.846,-1.12,-0.49,1.61
26882.0,-6.492,-1.603,-7.655,-6.226,-1.653,-6.894,-3.99,-3.01,-0.91
,-7.042,-1.723,-7.418,-6.439,-2.257,-6.703,-4.13,-3.29,-2.52
,-6.942,-1.622,-7.162,-6.542,-2.706,-6.523,-3.92,-3.99,-4.27
,-6.248,-1.448,-7.03,-6.631,-2.491,-6.535,-4.06,-4.55,-5.25
26957.0,-6.573,-2.35,-6.746,-6.509,-2.307,-7.14,-2.24,-0.56,-6.09
,-6.504,-2.412,-6.88,-6.511,-2.285,-7.243,-1.68,0.14,-6.09
,-6.616,-2.654,-6.813,-6.415,-2.592,-7.231,-0.91,1.26,-5.39
,-6.65,-2.62,-6.837,-6.442,-2.903,-7.241,0.84,2.17,-4.34
27033.0,-6.554,-2.927,-7.31,-6.731,-1.479,-7.112,2.24,1.47,0.07
,-6.523,-2.905,-7.351,-6.47,-1.452,-7.234,4.62,1.26,0.56
,-6.43,-2.812,-7.291,-6.552,-1.622,-7.327,5.88,1.54,1.26
,-6.767,-2.213,-6.954,-6.59,-2.07,-7.356,7.28,2.31,2.17
27109.0,-6.64,-2.592,-7.65,-6.64,-2.56,-7.528,-3.43,-0.35,-2.8
,-6.427,-2.697,-7.552,-6.537,-2.891,-7.641,0.14,-0.49,-2.03
,-6.348,-2.864,-7.703,-6.59,-3.515,-7.626,2.24,-0.63,-0.98
,-6.53,-2.764,-7.564,-6.667,-4.135,-7.607,3.5,-0.56,-0.56
27185.0,-6.523,-4.537,-7.708,-6.633,-3.345,-8.045,0.35,-5.11,5.04
,-6.315,-4.487,-7.731,-6.777,-3.139,-8.052,4.83,-4.97,7.56
,-6.456,-3.989,-7.717,-6.566,-2.809,-8.074,8.75,-4.76,9.17
,-6.513,-3.604,-7.868,-6.269,-2.529,-7.949,10.15,-5.46,10.08
27260.0,-6.296,-2.618,-7.662,-6.738,-2.369,-7.011,16.03,-10.92,14.28
,-6.58,-2.496,-7.629,-6.391,-2.462,-6.832,18.76,-11.76,14.49
,-6.765,-2.297,-7.353,-6.497,-2.292,-6.98,21.35,-12.6,15.05
,-6.942,-2.295,-7.09,-6.916,-1.95,-7.038,22.47,-12.53,16.17
27336.0,-7.15,-1.323,-7.239,-6.798,-1.194,-6.801,24.71,-13.16,15.47
,-7.164,-0.893,-7.152,-6.636,-1.596,-6.839,21.91,-14.56,14.35
,-7.301,-0.773,-6.983,-6.978,-2.101,-6.726,16.66,-15.47,13.72
,-7.145,-0.945,-6.801,-7.291,-2.343,-6.784,11.55,-17.01,12.95
27412.0,-7.284,-2.134,-6.851,-6.992,-1.926,-6.841,12.11,-18.2,11.62
,-7.131,-2.046,-6.846,-7.164,-1.804,-6.81,12.46,-18.48,11.69
,-6.707,-2.06,-6.911,-7.428,-1.658,-6.793,10.57,-19.39,12.25
,-6.612,-2.13,-6.889,-7.569,-1.431,-6.695,7.84,-19.53,13.23
27488.0,-7.193,-1.692,-6.896,-7.064,-2.235,-6.645,-2.73,-21.42,11.76
,-7.148,-2.056,-6.683,-7.15,-1.859,-6.872,-4.97,-20.93,12.04
,-7.255,-2.369,-6.516,-7.334,-1.718,-6.719,-4.55,-20.72,12.53
,-7.191,-2.498,-6.521,-7.452,-1.677,-6.602,-1.54,-21.0,12.53
27564.0,-7.535,-1.665,-6.439,-7.322,-2.29,-6.006,3.99,-19.46,9.24
,-7.818,-1.656,-6.047,-7.37,-2.417,-6.157,1.82,-19.67,9.24
,-7.672,-1.5,-6.116,-7.461,-2.297,-6.403,-0.98,-21.21,9.45
,-7.396,-1.838,-6.056,-7.722,-2.003,-6.413,-3.99,-21.63,9.87
27639.0,-7.681,-1.816,-6.245,-7.42,-1.721,-6.054,5.11,-18.2,10.99
,-7.521,-1.493,-5.934,-7.629,-2.063,-5.889,6.23,-17.01,11.2
,-7.466,-1.338,-5.808,-7.995,-2.312,-5.81,4.41,-16.73,11.55
,-7.339,-1.393,-5.958,-8.143,-2.206,-5.781,0.28,-17.57,12.11
27715.0,-7.916,-2.01,-5.822,-7.999,-1.859,-5.688,3.78,-17.43,11.13
,-7.71,-2.12,-5.65,-8.021,-1.866,-5.736,5.18,-16.66,12.04
,-7.739,-2.211,-5.48,-7.966,-1.795,-5.729,7.49,-16.31,11.9
,-7.909,-2.036,-5.485,-7.784,-1.74,-5.537,8.96,-17.71,11.83
27790.0,-7.808,-1.773,-5.212,-8.059,-1.524,-5.386,4.83,-16.45,13.72
,-7.877,-1.653,-5.118,-8.114,-1.565,-5.252,4.41,-16.45,13.44
,-8.04,-1.397,-5.123,-8.217,-1.436,-5.152,3.08,-16.73,13.86
,-8.071,-1.433,-5.303,-8.016,-1.12,-5.24,0.77,-16.94,14.49
27866.0,-7.858,-0.854,-5.31,-8.22,-1.137,-5.547,6.3,-17.08,13.09
,-8.224,-0.725,-5.623,-8.076,-0.967,-5.528,2.52,-17.78,12.81
,-8.461,-0.943,-5.829,-8.019,-0.792,-5.705,1.05,-17.57,12.32
,-8.471,-1.11,-5.698,-8.1,-0.962,-5.705,-0.14,-17.5,12.46
27942.0,-8.373,-1.362,-5.518,-8.239,-1.34,-4.855,-3.01,-18.48,9.66
,-8.368,-1.608,-5.274,-8.337,-1.237,-4.877,-2.31,-18.48,9.52
,-8.311,-1.68,-5.087,-8.447,-1.242,-4.862,0.0,-18.41,9.45
,-8.284,-1.577,-4.915,-8.543,-1.383,-5.023,2.24,-18.41,9.45
28018.0,-8.521,-1.426,-5.121,-8.378,-0.57,-4.657,-2.1,-19.04,11.9
,-8.402,-1.309,-5.097,-8.516,-0.713,-4.805,-0.98,-19.04,11.62
,-8.39,-1.067,-4.874,-8.583,-0.998,-4.862,0.14,-18.69,11.41
,-8.339,-0.828,-4.769,-8.662,-1.17,-4.812,0.77,-18.55,11.34
28093.0,-8.531,-1.039,-4.862,-8.646,-0.771,-4.563,1.05,-18.9,9.1
,-8.509,-0.885,-4.494,-8.638,-1.065,-4.637,4.62,-18.2,8.61
,-8.638,-0.589,-4.424,-8.643,-1.297,-4.369,7.35,-18.34,8.54
,-8.636,-0.517,-4.499,-8.619,-1.232,-4.226,4.9,-18.97,8.12
28169.0,-8.607,-0.933,-4.042,-8.794,-1.381,-4.228,6.51,-16.66,7.49
,-8.78,-0.775,-4.125,-8.765,-1.419,-3.999,4.83,-16.94,7.49
,-8.866,-0.905,-4.128,-8.662,-1.134,-3.967,1.05,-17.08,7.56
,-8.782,-1.134,-4.264,-8.634,-0.814,-3.845,-1.61,-16.8,8.05
28245.0,-8.67,-0.531,-4.032,-8.83,-1.723,-4.331,4.48,-14.98,9.66
,-8.71,-0.694,-4.389,-8.815,-1.405,-3.762,-1.47,-15.96,9.31
,-8.823,-1.053,-4.824,-8.844,-0.83,-3.769,-5.39,-16.45,9.59
,-8.863,-1.575,-4.812,-9.0,-0.653,-3.795,-4.27,-16.17,10.22
28321.0,-9.15,-0.687,-3.513,-8.978,-0.62,-4.204,6.23,-13.65,10.71
,-9.136,-0.723,-3.872,-8.868,-0.407,-4.168,3.29,-13.79,10.92
,-9.055,-0.95,-3.963,-8.909,-0.275,-4.389,1.26,-13.51,10.85
,-9.134,-0.919,-3.958,-8.902,-0.474,-4.202,3.85,-12.88,11.06
28397.0,-8.959,-0.756,-3.723,-9.139,-0.613,-3.218,3.5,-13.3,9.17
,-9.086,-0.792,-3.379,-9.177,-0.493,-3.396,7.7,-12.32,9.38
,-9.086,-0.653,-3.609,-9.153,-0.402,-3.558,7.91,-12.25,8.75
,-9.115,-0.663,-3.305,-9.143,-0.366,-3.836,7.91,-11.69,8.82
28472.0,-9.038,-0.601,-3.697,-9.165,-0.043,-3.056,2.87,-9.73,7.77
,-9.021,-0.699,-3.585,-9.268,0.16,-3.386,4.55,-9.1,7.77
,-9.0,-0.646,-3.108,-9.139,0.041,-3.587,8.26,-7.91,7.91
,-9.16,-0.414,-2.943,-8.988,-0.426,-3.575,11.06,-7.21,7.77
28548.0,-9.043,-0.797,-3.582,-9.32,-0.536,-3.171,-1.12,-6.58,5.53
,-9.086,-0.854,-3.659,-9.375,-0.203,-3.355,2.1,-5.88,5.6
,-9.024,-0.828,-3.352,-9.33,-0.036,-3.824,4.9,-5.25,5.6
,-9.153,-0.727,-3.149,-9.253,-0.132,-4.027,7.7,-4.48,5.74
28623.0,-9.292,-0.421,-4.018,-9.373,-0.069,-3.228,1.47,-5.04,4.34
,-9.213,-0.474,-4.073,-9.404,0.11,-3.391,3.85,-5.11,3.99
,-9.198,-0.541,-3.534,-9.337,0.256,-4.109,7.35,-4.76,3.92
,-9.385,-0.297,-3.348,-9.076,-0.103,-4.183,10.36,-4.34,3.78
28699.0,-9.095,-0.751,-3.872,-9.538,-0.376,-3.175,-1.05,-6.65,1.54
,-9.119,-1.027,-3.436,-9.359,-0.246,-3.235,4.06,-5.39,2.03
,-9.28,-0.864,-3.254,-9.359,-0.306,-3.273,10.08,-4.69,2.24
,-9.38,-0.696,-2.912,-9.227,-0.4,-3.022,13.16,-4.27,2.38
28775.0,-9.28,-0.189,-3.501,-9.335,-1.012,-3.723,6.09,-4.55,0.77
,-9.16,-0.261,-3.613,-9.351,-0.979,-3.431,4.41,-4.62,0.49
,-9.222,-0.364,-3.886,-9.361,-0.773,-3.001,2.45,-5.11,0.35
,-9.237,-0.727,-3.893,-9.478,-0.347,-3.199,1.89,-5.39,0.56
28851.0,-9.217,-0.129,-3.252,-9.356,-0.507,-2.343,12.46,-4.41,1.47
,-9.155,-0.383,-2.931,-9.428,-0.4,-2.529,8.82,-3.85,1.4
,-9.294,-0.565,-2.594,-9.533,-0.404,-2.831,8.19,-2.87,1.47
,-9.316,-0.5,-2.515,-9.366,-0.488,-3.037,8.4,-1.89,1.33
28926.0,-9.273,-0.51,-3.197,-9.373,-0.692,-2.919,2.94,0.42,0.42
,-9.182,-0.522,-3.128,-9.392,-0.78,-2.962,3.22,1.05,0.49
,-9.182,-0.653,-2.955,-9.459,-0.603,-3.384,3.08,1.75,0.49
,-9.308,-0.751,-2.759,-9.292,-0.567,-3.632,4.55,2.87,0.91
29002.0,-9.229,-0.495,-3.96,-9.359,-0.644,-3.391,3.29,1.96,1.47
,-9.148,-0.531,-4.056,-9.445,-0.562,-3.092,3.43,1.26,1.33
,-9.143,-0.641,-3.867,-9.452,-0.436,-3.013,4.69,1.19,1.4
,-9.332,-0.704,-3.644,-9.356,-0.316,-3.278,6.58,0.98,1.68
29078.0,-9.222,-0.555,-3.278,-9.409,-0.402,-2.733,5.46,0.28,1.68
,-9.234,-0.782,-2.943,-9.452,-0.321,-2.962,6.3,1.26,2.03
,-9.237,-0.78,-2.826,-9.284,-0.416,-3.094,8.05,2.03,2.1
,-9.368,-0.629,-2.764,-9.299,-0.56,-3.235,9.87,2.8,2.31
29154.0,-9.299,-0.62,-3.381,-9.452,-0.436,-3.582,1.68,3.92,1.12
,-9.258,-0.577,-3.329,-9.215,-0.443,-3.63,2.31,4.2,0.98
,-9.373,-0.565,-3.367,-9.234,-0.682,-3.513,2.8,4.2,0.91
,-9.39,-0.517,-3.345,-9.246,-0.816,-3.417,2.73,4.06,0.77
29230.0,-9.316,-0.696,-3.324,-9.433,-0.414,-3.099,3.78,3.36,0.91
,-9.268,-0.615,-3.144,-9.387,-0.462,-3.259,4.41,3.57,1.05
,-9.43,-0.598,-3.001,-9.261,-0.603,-3.321,4.13,3.71,1.05
,-9.418,-0.536,-2.994,-9.27,-0.491,-3.817,3.64,3.78,0.98
29305.0,-9.198,-0.617,-3.642,-9.33,-0.555,-3.419,1.47,4.13,0.91
,-9.306,-0.735,-3.546,-9.294,-0.519,-3.53,1.26,4.06,0.98
,-9.289,-0.711,-3.427,-9.416,-0.452,-3.752,1.75,3.85,0.98
,-9.344,-0.677,-3.396,-9.292,-0.474,-3.762,2.52,3.78,1.12
29381.0,-9.284,-0.57,-3.81,-9.349,-0.297,-3.336,1.26,2.45,0.7
,-9.21,-0.699,-3.654,-9.323,-0.38,-3.25,2.52,2.59,0.84
,-9.328,-0.641,-3.491,-9.308,-0.462,-3.252,4.55,2.45,0.91
,-9.304,-0.5,-3.388,-9.251,-0.538,-3.24,5.67,2.31,0.91
29456.0,-9.323,-0.548,-3.25,-9.282,-0.565,-3.374,2.24,2.52,0.21
,-9.289,-0.541,-3.262,-9.251,-0.426,-3.465,1.75,2.59,0.14
,-9.308,-0.57,-3.25,-9.251,-0.541,-3.565,1.61,2.94,0.21
,-9.311,-0.598,-3.276,-9.239,-0.534,-3.702,1.82,3.22,0.21
29532.0,-9.253,-0.577,-3.692,-9.225,-0.483,-3.343,0.56,2.94,-0.14
,-9.28,-0.613,-3.652,-9.325,-0.574,-3.233,1.05,2.59,-0.07
,-9.225,-0.665,-3.494,-9.296,-0.558,-3.132,1.54,2.45,0.0
,-9.34,-0.601,-3.412,-9.311,-0.632,-3.384,2.66,2.45,0.07
29608.0,-9.292,-0.648,-3.386,-9.356,-0.455,-3.75,1.33,2.8,0.0
,-9.299,-0.737,-3.491,-9.239,-0.469,-3.819,1.68,2.66,0.0
,-9.27,-0.72,-3.503,-9.177,-0.601,-3.991,2.87,2.73,0.07
,-9.313,-0.558,-3.568,-9.155,-0.797,-3.97,3.5,2.8,0.28
29684.0,-9.179,-0.852,-3.915,-9.387,-0.505,-3.221,2.8,0.42,0.49
,-9.241,-0.749,-3.735,-9.332,-0.548,-3.305,5.04,0.21,0.7
,-9.335,-0.555,-3.498,-9.227,-0.625,-3.369,5.88,-0.07,0.77
,-9.347,-0.519,-3.238,-9.16,-0.704,-3.434,5.39,0.07,0.91
29759.0,-9.213,-0.744,-3.412,-9.311,-0.622,-3.324,2.87,0.42,0.77
,-9.265,-0.663,-3.326,-9.32,-0.467,-3.391,3.71,0.35,0.91
,-9.313,-0.629,-3.321,-9.232,-0.574,-3.417,3.85,0.63,0.98
,-9.287,-0.629,-3.273,-9.246,-0.648,-3.47,3.29,0.77,1.05
29835.0,-9.277,-0.689,-3.477,-9.328,-0.481,-3.568,2.03,1.05,0.77
,-9.318,-0.629,-3.496,-9.208,-0.546,-3.491,2.94,1.12,0.91
,-9.299,-0.629,-3.441,-9.194,-0.708,-3.384,3.15,1.26,1.05
,-9.347,-0.574,-3.46,-9.189,-0.782,-3.183,3.78,0.98,0.98
29910.0,-9.351,-0.629,-3.142,-9.261,-0.51,-3.587,4.2,1.61,0.84
,-9.452,-0.546,-3.099,-9.17,-0.613,-3.754,3.85,1.96,0.84
,-9.387,-0.486,-3.135,-9.237,-0.723,-3.805,2.24,1.96,0.56
,-9.296,-0.493,-3.35,-9.27,-0.794,-3.841,0.77,1.82,0.42
29986.0,-9.268,-0.694,-3.75,-9.299,-0.711,-3.527,2.94,0.91,0.49
,-9.294,-0.519,-3.702,-9.268,-0.641,-3.439,3.92,0.49,0.63
,-9.323,-0.467,-3.685,-9.332,-0.567,-3.19,3.64,0.07,0.63
,-9.229,-0.529,-3.609,-9.301,-0.648,-2.888,3.08,-0.07,0.63
30062.0,-9.33,-0.656,-2.903,-9.265,-0.529,-3.443,2.94,0.91,0.77
,-9.323,-0.651,-2.919,-9.296,-0.601,-3.527,2.52,1.54,0.84
,-9.351,-0.581,-3.128,-9.27,-0.572,-3.649,2.38,1.82,0.7
,-9.249,-0.555,-3.34,-9.275,-0.62,-3.666,1.61,1.96,0.49
30138.0,-9.268,-0.675,-3.606,-9.318,-0.692,-3.3,2.38,1.89,0.7
,-9.275,-0.61,-3.518,-9.289,-0.689,-3.154,3.15,1.61,0.7
,-9.328,-0.531,-3.472,-9.34,-0.625,-3.075,3.36,1.47,0.7
,-9.268,-0.617,-3.451,-9.361,-0.546,-3.159,2.59,1.4,0.63
30214.0,-9.375,-0.514,-3.211,-9.148,-0.644,-3.683,1.75,2.59,0.56
,-9.273,-0.589,-3.281,-9.22,-0.699,-3.616,0.98,2.59,0.42
,-9.268,-0.651,-3.525,-9.296,-0.656,-3.551,1.05,2.59,0.42
,-9.251,-0.589,-3.601,-9.308,-0.567,-3.508,1.12,2.38,0.35
30289.0,-9.366,-0.428,-3.623,-9.186,-0.797,-3.51,2.38,1.68,0.35
,-9.292,-0.546,-3.613,-9.251,-0.648,-3.443,0.98,1.54,0.28
,-9.241,-0.637,-3.661,-9.342,-0.541,-3.309,0.35,1.19,0.28
,-9.177,-0.751,-3.647,-9.349,-0.519,-3.202,0.98,1.05,0.42
30365.0,-9.323,-0.519,-3.197,-9.198,-0.665,-3.568,2.59,1.47,0.56
,-9.299,-0.579,-3.223,-9.227,-0.689,-3.494,1.89,1.61,0.35
,-9.258,-0.605,-3.357,-9.289,-0.632,-3.434,1.4,1.82,0.28
,-9.239,-0.593,-3.496,-9.258,-0.581,-3.35,0.91,1.82,0.21
30441.0,-9.378,-0.543,-3.434,-9.249,-0.696,-3.57,1.54,1.96,0.35
,-9.265,-0.538,-3.479,-9.263,-0.598,-3.537,0.21,1.68,0.07
,-9.217,-0.72,-3.601,-9.268,-0.505,-3.403,-0.14,1.61,0.14
,-9.213,-0.771,-3.587,-9.354,-0.476,-3.288,0.91,1.47,0.21
30517.0,-9.373,-0.503,-3.307,-9.217,-0.629,-3.561,2.38,1.75,0.42
,-9.32,-0.55,-3.408,-9.318,-0.572,-3.702,1.54,1.61,0.35
,-9.227,-0.634,-3.422,-9.304,-0.593,-3.74,1.12,1.54,0.28
,-9.263,-0.689,-3.542,-9.239,-0.653,-3.771,1.82,1.68,0.14
30592.0,-9.191,-0.68,-3.728,-9.256,-0.613,-3.381,2.1,0.77,0.07
,-9.287,-0.668,-3.618,-9.28,-0.639,-3.355,3.08,0.56,0.21
,-9.263,-0.593,-3.544,-9.249,-0.668,-3.305,3.85,0.21,0.14
,-9.268,-0.512,-3.52,-9.277,-0.692,-3.218,3.57,0.0,0.14
30668.0,-9.356,-0.644,-3.183,-9.17,-0.617,-3.731,3.85,0.98,0.35
,-9.359,-0.601,-3.192,-9.174,-0.766,-3.726,3.85,1.05,0.28
,-9.392,-0.474,-3.367,-9.256,-0.857,-3.678,3.01,0.91,0.14
,-9.308,-0.483,-3.568,-9.282,-0.78,-3.503,1.54,0.77,0.0
30743.0,-9.306,-0.644,-3.441,-9.225,-0.646,-3.537,4.97,0.56,0.42
,-9.361,-0.591,-3.422,-9.217,-0.78,-3.513,4.62,0.28,0.42
,-9.359,-0.596,-3.47,-9.261,-0.778,-3.393,3.71,0.28,0.35
,-9.249,-0.613,-3.525,-9.292,-0.73,-3.326,2.8,-0.14,0.21
30819.0,-9.313,-0.665,-3.199,-9.311,-0.68,-3.273,4.76,0.21,0.56
,-9.356,-0.61,-3.197,-9.239,-0.663,-3.269,4.27,0.28,0.42
,-9.316,-0.543,-3.223,-9.275,-0.682,-3.417,3.5,0.77,0.49
,-9.289,-0.574,-3.238,-9.177,-0.689,-3.376,2.45,0.84,0.28
30895.0,-9.318,-0.723,-3.561,-9.196,-0.627,-3.257,1.12,0.7,-0.07
,-9.316,-0.72,-3.479,-9.34,-0.718,-3.405,2.8,0.63,-0.07
,-9.258,-0.505,-3.685,-9.373,-0.713,-3.3,2.59,0.28,-0.28
,-9.33,-0.531,-3.678,-9.318,-0.682,-3.171,2.38,0.49,-0.28
30971.0,-9.308,-0.668,-3.276,-9.21,-0.84,-3.29,1.89,0.77,-0.14
,-9.299,-0.639,-3.3,-9.249,-0.816,-3.257,2.1,1.05,-0.14
,-9.249,-0.644,-3.348,-9.294,-0.756,-3.238,1.89,0.98,-0.21
,-9.22,-0.613,-3.36,-9.356,-0.641,-3.051,0.63,0.91,-0.28
31047.0,-9.361,-0.613,-3.053,-9.222,-0.804,-3.333,2.17,1.96,0.14
,-9.347,-0.548,-3.132,-9.306,-0.773,-3.503,0.98,2.17,0.14
,-9.306,-0.56,-3.273,-9.316,-0.737,-3.506,-0.7,2.1,-0.07
,-9.325,-0.663,-3.391,-9.363,-0.692,-3.475,-1.4,2.45,-0.07
31122.0,-9.395,-0.773,-3.446,-9.186,-0.66,-3.735,0.98,2.66,0.07
,-9.251,-0.656,-3.506,-9.21,-0.725,-3.549,1.19,2.73,0.28
,-9.201,-0.581,-3.731,-9.32,-0.761,-3.484,0.91,2.52,0.35
,-9.206,-0.682,-3.733,-9.273,-0.756,-3.333,1.12,2.24,0.21
31198.0,-9.261,-0.804,-3.084,-9.337,-0.493,-2.998,2.1,1.82,0.42
,-9.323,-0.775,-2.91,-9.258,-0.749,-2.773,2.59,2.31,0.56
,-9.313,-0.596,-2.84,-9.155,-0.828,-2.814,2.66,3.08,0.56
,-9.38,-0.44,-2.831,-9.174,-0.897,-2.62,1.89,3.43,0.42
31274.0,-9.375,-0.699,-2.532,-8.995,-0.572,-3.252,2.52,7.98,0.84
,-9.423,-0.4,-2.757,-8.993,-0.677,-3.424,1.82,8.75,0.63
,-9.342,-0.526,-2.771,-8.993,-0.735,-3.496,0.07,9.8,0.49
,-9.206,-0.572,-3.087,-9.005,-0.854,-3.053,-1.61,10.29,0.49
31350.0,-9.17,-0.517,-3.247,-9.478,-0.684,-2.867,4.34,12.95,1.19
,-9.146,-0.239,-3.13,-9.146,-0.488,-3.264,3.85,13.09,0.56
,-9.335,-0.366,-2.898,-8.914,-0.16,-2.855,1.61,13.72,0.21
,-9.361,-0.505,-2.991,-8.928,0.337,-3.951,-1.68,14.42,-0.35
31425.0,-8.799,0.254,-3.903,-9.261,-1.385,-3.537,-11.2,14.21,-3.5
,-8.964,-0.263,-4.212,-9.139,-1.328,-2.886,-15.19,14.14,-3.78
,-9.055,-0.84,-4.133,-9.194,-0.902,-3.393,-16.38,14.63,-3.85
,-9.143,-1.354,-3.592,-9.057,-0.637,-3.577,-11.76,15.89,-3.5
31501.0,-9.098,-0.596,-3.915,-9.091,0.132,-4.212,-3.01,17.92,-2.31
,-9.095,-0.665,-3.654,-9.057,0.414,-4.771,-4.9,18.83,-1.75
,-9.064,-0.771,-3.905,-8.985,-0.053,-4.953,-2.24,19.53,-1.4
,-8.904,-0.378,-3.805,-8.928,-1.031,-4.456,0.14,19.39,-2.1
31576.0,-8.928,-1.476,-3.829,-9.026,-0.692,-4.681,-12.53,14.91,-5.32
,-8.82,-1.029,-3.891,-8.933,-1.287,-4.188,-6.23,13.79,-5.53
,-8.808,-0.297,-4.056,-8.949,-1.062,-3.948,-4.55,12.67,-5.88
,-8.981,-0.17,-4.537,-8.732,-0.199,-4.317,-8.4,12.39,-5.74
31652.0,-8.547,0.244,-4.501,-9.232,-1.0,-4.243,3.99,15.61,-6.09
,-8.725,0.17,-4.566,-8.696,-0.469,-4.147,0.0,15.33,-6.44
,-8.976,-0.347,-4.616,-8.315,0.179,-4.312,-2.24,15.82,-6.3
,-9.16,-0.871,-4.401,-8.373,0.251,-4.491,-0.7,16.87,-6.44
31728.0,-8.966,-0.132,-4.381,-8.559,-0.665,-4.25,-5.81,13.58,-9.94
,-9.234,-0.622,-4.372,-8.562,-0.529,-4.164,-6.65,14.63,-10.78
,-9.227,-0.751,-4.111,-8.476,-0.699,-4.762,-4.34,16.03,-11.55
,-9.045,-0.766,-4.365,-8.591,-1.101,-4.915,-2.1,16.59,-12.11
31804.0,-8.516,-1.307,-5.351,-8.571,-0.514,-4.061,-2.52,12.25,-11.9
,-8.445,-1.397,-5.267,-8.918,-0.591,-4.085,-1.61,13.02,-10.5
,-8.354,-1.137,-4.853,-8.734,-1.173,-4.089,0.77,14.21,-10.43
,-8.349,-0.704,-4.491,-8.815,-1.749,-4.068,1.96,15.33,-11.27
31880.0,-8.818,-1.984,-4.137,-8.275,0.27,-5.236,-9.24,19.11,-9.17
,-8.997,-1.505,-4.183,-8.064,0.44,-5.08,-2.17,18.9,-9.73
,-8.665,-0.876,-4.635,-8.016,0.73,-4.882,2.52,16.87,-10.22
,-8.234,-0.165,-5.245,-8.098,0.316,-4.91,2.8,14.42,-10.5
31955.0,-8.691,-0.39,-4.633,-8.342,-2.108,-4.992,-11.9,15.89,-17.43
,-8.813,-1.338,-4.666,-8.272,-1.732,-5.398,-12.32,18.76,-17.57
,-8.729,-2.182,-4.456,-8.189,-1.694,-5.492,-7.14,21.98,-17.22
,-8.636,-2.467,-4.616,-7.693,-1.524,-5.855,1.82,23.59,-17.08
32031.0,-7.454,-1.261,-5.626,-8.756,-0.026,-4.475,9.38,21.14,-11.97
,-7.325,-0.928,-5.427,-8.842,-0.321,-4.975,7.28,22.19,-11.41
,-7.739,-0.416,-4.927,-9.177,-1.649,-5.252,5.46,23.94,-11.76
,-8.576,-0.019,-4.386,-8.825,-2.934,-5.367,3.57,25.55,-12.95
32107.0,-8.339,-3.288,-5.391,-7.775,-1.864,-6.066,9.1,26.04,-16.73
,-7.641,-2.783,-5.578,-7.731,-2.118,-6.035,20.79,24.78,-16.59
,-7.296,-1.795,-6.186,-7.72,-2.187,-5.564,25.83,23.03,-16.24
,-7.557,-1.524,-6.15,-7.679,-1.969,-5.394,23.8,23.1,-15.47
32183.0,-7.765,-1.783,-5.477,-7.775,-3.034,-5.645,6.44,25.55,-11.13
,-7.952,-1.642,-5.475,-7.813,-3.147,-5.587,3.64,25.69,-10.22
,-8.09,-2.103,-5.508,-7.798,-2.74,-5.642,1.54,26.04,-9.31
,-8.019,-2.651,-5.642,-7.432,-1.508,-5.903,2.17,26.74,-8.33
32258.0,-7.291,-0.349,-6.43,-7.473,-2.34,-5.93,16.59,26.81,-4.83
,-7.377,0.06,-6.714,-7.542,-2.769,-5.683,8.96,26.11,-6.02
,-7.408,-0.56,-6.705,-7.854,-2.781,-5.583,-0.56,25.9,-6.93
,-7.523,-1.515,-6.308,-7.717,-2.709,-5.741,-6.44,26.32,-6.58
32334.0,-7.48,-2.826,-5.841,-7.229,-1.653,-6.98,12.53,29.12,-6.16
,-7.6,-3.192,-5.817,-7.296,-1.302,-6.904,14.77,29.75,-5.32
,-7.641,-2.946,-6.14,-7.121,-1.261,-6.7,16.59,29.96,-4.27
,-7.449,-2.237,-6.638,-6.956,-1.414,-6.693,17.99,30.17,-3.85
32409.0,-7.203,-1.888,-6.669,-6.954,-2.371,-6.758,2.17,27.16,-4.27
,-7.229,-2.692,-6.463,-7.071,-1.981,-6.746,1.61,27.37,-4.27
,-7.239,-3.037,-6.363,-7.246,-1.933,-6.932,4.83,27.79,-4.27
,-7.088,-2.948,-6.408,-7.21,-1.888,-6.92,9.94,27.65,-4.76
32485.0,-7.124,-2.268,-7.114,-7.011,-3.099,-7.229,2.8,23.87,-3.71
,-7.131,-2.34,-6.88,-6.983,-3.171,-6.925,1.26,24.08,-2.66
,-7.131,-2.541,-7.373,-6.837,-3.163,-7.052,0.49,23.03,-2.38
,-6.935,-2.888,-7.442,-6.707,-3.003,-6.896,0.49,22.05,-2.8
32561.0,-6.494,-2.737,-7.052,-6.987,-0.493,-7.54,6.23,20.09,2.24
,-6.566,-2.364,-7.081,-7.066,-1.01,-7.124,6.09,19.95,2.59
,-6.671,-1.452,-7.32,-6.722,-1.658,-7.162,6.3,19.11,2.1
,-6.576,-0.586,-7.736,-6.659,-2.362,-6.846,4.2,17.85,0.77
32637.0,-6.899,-2.955,-6.693,-6.511,-0.577,-7.535,-7.63,16.8,-0.42
,-6.966,-3.082,-6.592,-6.552,-0.955,-7.631,-2.66,17.29,-1.4
,-6.856,-2.036,-6.87,-6.614,-1.795,-7.408,1.33,16.87,-2.59
,-6.513,-1.149,-7.284,-6.705,-2.331,-7.322,-0.35,15.89,-3.64
32713.0,-6.676,-2.402,-7.346,-6.248,-1.558,-7.375,-11.34,12.32,-6.58
,-6.655,-2.048,-7.318,-6.21,-1.448,-7.492,-5.88,12.11,-7.91
,-6.073,-2.077,-7.487,-6.884,-1.548,-7.729,-3.15,11.34,-7.7
,-6.257,-1.601,-7.27,-7.073,-1.886,-7.676,-4.9,12.04,-6.3
32788.0,-6.604,-1.89,-7.763,-6.236,-2.3,-7.897,-12.88,7.42,-9.8
,-6.399,-2.053,-7.629,-6.734,-2.355,-7.657,-13.72,6.72,-8.68
,-5.956,-2.257,-7.736,-6.76,-2.441,-7.586,-13.86,6.09,-7.35
,-5.82,-2.309,-7.928,-6.301,-2.292,-7.485,-11.27,5.6,-6.37
32864.0,-6.107,-1.857,-7.373,-6.418,-2.606,-7.614,-3.85,4.69,-6.51
,-6.308,-1.606,-7.332,-6.348,-3.166,-7.322,-6.02,5.25,-7.14
,-6.494,-1.768,-7.387,-5.889,-3.652,-7.351,-7.91,4.83,-8.33
,-6.401,-2.07,-7.643,-5.939,-3.836,-7.638,-9.59,3.78,-8.61
32940.0,-6.143,-2.938,-8.04,-6.485,-2.536,-7.404,0.98,1.89,0.91
,-6.312,-2.328,-8.11,-6.487,-2.804,-7.272,3.22,1.96,-0.49
,-6.612,-2.127,-8.021,-6.265,-2.831,-7.389,1.26,1.12,-1.68
,-6.614,-2.302,-7.779,-6.305,-2.462,-7.538,-1.47,0.21,-0.56
33016.0,-6.346,-1.902,-7.794,-6.131,-2.206,-7.483,5.67,-0.21,1.68
,-6.332,-1.67,-7.909,-6.636,-2.163,-7.578,5.18,-2.03,1.12
,-6.312,-1.874,-7.717,-6.77,-1.773,-7.509,3.29,-3.08,1.96
,-6.025,-2.144,-7.248,-6.698,-1.433,-7.42,1.26,-3.36,3.15
33091.0,-6.451,-1.383,-7.645,-6.669,-2.257,-7.217,1.05,-3.01,0.0
,-6.236,-1.63,-7.641,-6.312,-2.46,-7.385,-0.28,-3.08,0.7
,-6.564,-2.12,-7.483,-6.344,-2.424,-7.619,0.14,-3.15,1.05
,-6.714,-2.414,-7.301,-6.449,-2.19,-7.715,3.29,-3.01,1.05
33167.0,-6.42,-2.326,-7.887,-6.272,-2.587,-7.918,9.8,-5.18,3.5
,-6.705,-2.28,-7.554,-6.458,-2.623,-7.999,10.29,-4.69,4.48
,-6.647,-2.137,-7.502,-6.607,-2.675,-8.198,9.87,-5.6,5.04
,-6.198,-2.402,-7.755,-6.707,-2.735,-7.911,8.89,-6.86,4.48
33242.0,-6.636,-3.063,-7.55,-6.425,-2.68,-7.401,16.59,-10.43,5.81
,-6.691,-3.254,-7.557,-6.518,-2.3,-7.612,18.34,-10.43,7.7
,-6.499,-3.424,-7.193,-6.858,-2.101,-7.521,20.65,-10.01,8.89
,-6.468,-3.111,-7.215,-7.131,-2.276,-7.392,23.94,-9.73,9.17
33318.0,-6.951,-2.412,-7.396,-6.64,-2.828,-7.447,18.2,-14.21,5.39
,-6.758,-2.769,-7.236,-6.755,-2.778,-7.205,17.22,-15.54,6.65
,-6.49,-2.793,-7.303,-6.892,-2.603,-7.071,17.08,-16.66,7.56
,-6.432,-2.795,-7.399,-6.822,-2.324,-7.138,17.29,-17.08,7.98
33394.0,-6.772,-2.321,-7.021,-6.717,-2.546,-6.992,10.22,-19.04,13.02
,-7.042,-2.51,-6.868,-7.059,-2.304,-6.858,6.16,-19.6,15.68
,-6.849,-2.541,-6.947,-7.188,-1.936,-6.875,2.66,-20.51,17.22
,-6.602,-2.587,-7.052,-7.076,-1.665,-6.971,1.33,-21.42,18.06
33470.0,-7.05,-1.582,-7.088,-7.219,-1.737,-6.607,-0.35,-23.8,18.69
,-7.021,-1.701,-7.105,-7.217,-1.366,-6.748,-1.68,-24.08,18.06
,-6.966,-1.73,-7.069,-7.239,-1.244,-6.774,-1.19,-23.73,17.15
,-7.014,-1.768,-6.793,-7.444,-1.452,-6.454,1.26,-22.75,15.96
33546.0,-7.389,-1.539,-6.289,-7.574,-1.689,-6.449,-2.66,-26.04,13.93
,-7.325,-1.608,-6.346,-7.586,-1.912,-6.327,-4.55,-26.95,14.07
,-7.188,-1.503,-6.36,-7.607,-2.077,-5.925,-5.81,-27.09,14.42
,-7.42,-1.529,-6.458,-7.566,-1.809,-6.114,-7.21,-26.81,14.56
33621.0,-7.535,-1.517,-6.214,-7.743,-1.388,-5.745,-2.38,-25.13,13.37
,-7.497,-1.448,-5.922,-7.868,-1.524,-5.662,-2.73,-25.13,13.51
,-7.614,-1.28,-5.872,-7.736,-1.522,-5.973,-3.92,-25.62,14.28
,-7.655,-1.285,-5.793,-7.681,-1.582,-5.987,-5.46,-25.41,14.49
33697.0,-7.717,-1.737,-5.851,-8.1,-1.259,-5.607,-5.46,-23.24,13.16
,-7.617,-1.637,-5.631,-8.112,-1.417,-5.559,-1.54,-21.7,13.3
,-7.72,-1.364,-5.592,-7.98,-1.534,-5.511,1.26,-20.72,13.51
,-7.909,-1.228,-5.611,-7.818,-1.362,-5.47,1.33,-19.95,13.58
33773.0,-8.045,-1.268,-5.236,-7.882,-1.254,-5.458,0.56,-19.67,13.37
,-8.047,-0.983,-5.626,-7.877,-1.295,-5.394,-1.68,-22.54,13.02
,-8.066,-0.945,-5.729,-7.98,-1.409,-5.185,-3.08,-22.68,12.53
,-7.992,-1.058,-5.774,-8.117,-1.491,-5.176,-3.08,-21.91,11.83
33849.0,-8.263,-1.307,-5.401,-8.129,-1.211,-5.339,7.56,-15.89,12.04
,-8.38,-1.701,-5.114,-8.107,-1.189,-5.26,6.51,-14.98,11.76
,-8.327,-1.732,-5.24,-8.253,-1.168,-5.195,8.75,-14.56,11.97
,-8.136,-1.62,-5.343,-8.287,-1.141,-5.183,11.83,-14.21,12.6
33924.0,-8.244,-1.055,-5.154,-8.569,-0.972,-4.807,4.9,-14.77,15.33
,-8.088,-1.098,-5.19,-8.593,-0.708,-4.831,3.71,-15.33,15.19
,-8.186,-1.17,-5.008,-8.466,-0.419,-5.126,3.99,-15.05,15.12
,-8.607,-1.144,-4.927,-8.339,-0.309,-5.307,5.32,-15.19,14.91
34000.0,-8.332,-0.388,-5.226,-8.583,-0.476,-4.922,6.51,-16.8,12.04
,-8.571,-0.503,-5.056,-8.504,-0.759,-5.039,6.23,-16.17,11.48
,-8.629,-0.739,-4.817,-8.679,-1.062,-4.829,6.3,-15.75,10.71
,-8.701,-0.639,-4.659,-8.713,-1.338,-4.949,7.49,-15.82,9.94
34075.0,-8.574,-1.285,-4.826,-8.65,-0.723,-4.882,6.09,-17.36,9.52
,-8.701,-0.926,-4.604,-8.478,-1.18,-4.795,9.8,-17.08,9.52
,-8.844,-0.55,-4.707,-8.44,-1.656,-4.748,10.71,-17.36,8.89
,-8.727,-0.378,-4.829,-8.495,-1.632,-4.573,6.93,-17.99,8.61
34151.0,-8.605,-1.17,-4.434,-8.938,-0.036,-4.255,11.69,-17.08,11.97
,-8.674,-0.672,-4.135,-8.993,-0.426,-4.35,14.56,-17.08,11.83
,-8.866,-0.285,-4.082,-8.758,-0.749,-4.267,13.51,-17.29,11.27
,-8.961,-0.067,-4.147,-8.574,-0.981,-4.022,10.36,-17.5,10.78
34227.0,-8.612,-0.596,-3.874,-8.988,-0.514,-3.8,7.35,-16.45,8.26
,-8.681,-0.16,-4.123,-8.997,-0.677,-3.625,7.98,-16.87,7.7
,-8.799,-0.196,-3.877,-9.115,-0.503,-3.419,5.39,-16.8,7.28
,-8.988,-0.311,-3.917,-9.131,-0.318,-3.532,4.2,-16.1,7.21
34303.0,-8.976,-0.194,-3.709,-8.619,-1.168,-3.869,3.99,-13.58,4.48
,-8.902,-0.251,-4.094,-8.933,-0.794,-3.479,0.91,-13.58,4.34
,-8.658,-0.593,-4.465,-9.258,-0.4,-3.506,-0.84,-13.58,4.41
,-8.512,-1.06,-4.302,-9.294,-0.282,-3.544,0.84,-12.6,4.9
34378.0,-9.282,-0.751,-3.776,-9.103,-0.333,-2.912,3.01,-10.64,5.25
,-9.115,-1.273,-3.618,-9.253,0.105,-3.295,2.03,-9.59,5.88
,-8.923,-1.436,-3.278,-9.095,0.11,-3.556,8.05,-7.84,6.65
,-8.995,-0.948,-3.285,-9.055,-0.311,-3.927,13.51,-7.0,6.72
34454.0,-8.923,-0.562,-4.078,-9.184,-0.201,-3.07,-0.28,-6.72,4.13
,-8.911,-0.706,-4.104,-9.332,0.043,-3.19,2.24,-6.23,3.92
,-9.016,-0.603,-3.769,-9.277,0.007,-3.197,5.25,-5.53,3.92
,-9.083,-0.383,-3.396,-9.265,-0.244,-3.288,8.33,-4.83,3.99
34530.0,-9.206,-0.531,-3.247,-9.079,-0.546,-3.496,-1.47,-2.52,1.26
,-9.146,-0.687,-3.321,-9.088,-0.462,-3.826,-0.98,-1.68,1.12
,-9.095,-0.67,-3.319,-9.014,-0.385,-3.774,-0.14,-1.19,1.26
,-9.119,-0.596,-3.465,-9.225,-0.51,-3.668,-0.21,-1.19,1.19
34606.0,-9.129,-0.498,-3.62,-9.1,-0.799,-3.81,-0.91,-0.21,0.49
,-9.122,-0.625,-3.561,-9.136,-0.665,-4.106,-1.33,-0.14,0.42
,-9.222,-0.754,-3.585,-8.983,-0.481,-4.283,-1.4,-0.28,0.21
,-9.215,-0.742,-3.865,-9.021,-0.601,-4.142,-0.77,-0.49,0.21
34682.0,-9.249,-0.634,-4.176,-9.174,-0.526,-3.704,2.03,-2.59,0.63
,-9.155,-0.656,-4.2,-9.241,-0.33,-3.829,2.87,-3.22,0.56
,-9.189,-0.684,-3.944,-9.067,-0.407,-3.747,4.76,-3.29,0.91
,-9.198,-0.526,-4.078,-9.141,-0.553,-3.726,5.67,-3.71,0.98
34757.0,-9.129,-0.668,-3.63,-9.299,-0.615,-3.419,5.39,-4.76,0.35
,-9.115,-0.732,-3.537,-9.16,-0.699,-3.254,6.58,-4.48,0.56
,-9.273,-0.62,-3.53,-9.249,-0.727,-2.927,7.91,-4.34,0.63
,-9.335,-0.536,-3.482,-9.306,-0.567,-2.824,8.47,-4.13,0.63
34833.0,-9.395,-0.407,-2.86,-9.177,-0.713,-3.544,9.31,-1.12,0.49
,-9.282,-0.352,-3.242,-9.177,-0.792,-3.34,5.74,-0.91,0.0
,-9.182,-0.591,-3.326,-9.328,-0.603,-3.592,2.94,-0.56,-0.21
,-9.129,-0.763,-3.247,-9.105,-0.608,-3.855,3.01,0.28,0.0
34908.0,-9.072,-0.871,-3.711,-9.332,-0.33,-3.96,6.3,0.56,0.49
,-9.179,-0.859,-3.731,-9.208,-0.747,-3.74,8.96,0.91,0.91
,-9.241,-0.486,-3.745,-9.244,-0.919,-3.68,10.57,0.84,0.84
,-9.349,-0.246,-3.783,-9.182,-0.962,-3.62,8.89,0.56,0.56
34984.0,-9.194,-0.782,-3.475,-9.335,-0.507,-2.773,8.96,-0.42,0.7
,-9.237,-0.596,-3.221,-9.366,-0.512,-2.946,9.8,-0.07,0.91
,-9.241,-0.488,-2.955,-9.268,-0.632,-3.178,8.82,0.35,0.91
,-9.318,-0.471,-2.828,-9.201,-0.699,-3.307,7.42,1.05,0.63
35060.0,-9.217,-0.838,-3.41,-9.273,-0.586,-3.774,2.66,3.36,-0.14
,-9.261,-0.761,-3.659,-9.27,-0.514,-4.274,3.71,3.29,-0.07
,-9.203,-0.546,-3.8,-9.22,-0.608,-4.396,3.85,3.5,-0.21
,-9.158,-0.562,-3.711,-9.158,-0.613,-4.298,3.01,3.36,-0.35
35136.0,-9.093,-0.761,-4.147,-9.466,-0.751,-2.807,2.17,0.98,-0.7
,-9.129,-0.943,-3.817,-9.385,-0.524,-2.864,3.15,0.84,-0.56
,-9.16,-0.9,-3.321,-9.32,-0.555,-2.953,4.06,1.05,-0.35
,-9.251,-0.902,-2.958,-9.179,-0.857,-3.056,6.02,1.54,-0.07
35211.0,-9.222,-0.893,-3.297,-9.117,-0.577,-4.003,0.49,3.99,-0.42
,-9.206,-0.811,-3.384,-9.079,-0.704,-4.037,0.98,4.27,-0.49
,-9.244,-0.751,-3.563,-9.134,-0.921,-3.991,0.98,4.48,-0.49
,-9.217,-0.548,-3.817,-9.189,-0.888,-3.955,0.63,4.2,-0.7
35287.0,-9.265,-0.799,-3.833,-9.215,-0.749,-3.47,3.43,2.38,-0.28
,-9.234,-0.818,-3.661,-9.22,-0.785,-3.439,3.43,2.38,-0.21
,-9.225,-0.94,-3.491,-9.217,-0.806,-3.52,3.85,2.31,0.0
,-9.246,-0.814,-3.436,-9.153,-0.768,-3.534,4.62,2.45,0.21
35363.0,-9.182,-0.775,-3.463,-9.158,-0.694,-3.759,3.85,3.29,0.28
,-9.244,-0.782,-3.575,-9.184,-0.756,-3.766,3.71,3.36,0.21
,-9.206,-0.675,-3.582,-9.234,-0.763,-3.769,3.57,3.15,0.07
,-9.201,-0.598,-3.707,-9.265,-0.72,-3.687,3.15,2.87,-0.07
35439.0,-9.246,-0.651,-3.735,-9.074,-0.912,-3.831,2.1,2.17,-0.63
,-9.208,-0.672,-3.805,-9.16,-0.847,-3.637,1.33,1.89,-0.77
,-9.186,-0.775,-3.932,-9.213,-0.756,-3.551,0.56,1.4,-0.84
,-9.105,-0.866,-3.939,-9.229,-0.684,-3.448,0.98,1.33,-0.77
35515.0,-9.234,-0.737,-3.463,-9.139,-0.876,-3.687,3.08,1.26,-0.28
,-9.182,-0.787,-3.396,-9.239,-0.828,-3.733,2.38,1.47,-0.35
,-9.208,-0.811,-3.587,-9.277,-0.73,-3.764,1.96,1.4,-0.49
,-9.16,-0.866,-3.592,-9.141,-0.682,-3.838,2.1,1.68,-0.42
35590.0,-9.083,-0.694,-3.833,-9.253,-0.89,-3.443,1.96,1.26,-0.14
,-9.141,-0.804,-3.814,-9.289,-0.768,-3.484,1.75,1.05,-0.35
,-9.206,-0.89,-3.752,-9.196,-0.747,-3.486,2.24,1.05,-0.21
,-9.186,-0.936,-3.623,-9.232,-0.802,-3.556,2.94,0.98,0.0
35666.0,-9.222,-0.881,-3.628,-9.15,-0.787,-3.92,1.19,1.19,-0.07
,-9.249,-0.897,-3.719,-9.112,-0.83,-3.862,1.96,1.19,-0.07
,-9.186,-0.833,-3.798,-9.1,-0.754,-3.886,2.59,1.19,-0.07
,-9.15,-0.823,-3.841,-9.146,-0.816,-3.75,2.59,0.84,-0.07
35741.0,-9.186,-0.866,-3.666,-9.253,-0.794,-3.412,3.29,-0.28,0.21
,-9.217,-0.902,-3.465,-9.15,-0.869,-3.362,3.92,-0.21,0.28
,-9.273,-0.83,-3.429,-9.21,-0.84,-3.537,4.06,-0.14,0.35
,-9.275,-0.766,-3.403,-9.165,-0.78,-3.664,3.57,0.0,0.28
35817.0,-9.167,-0.806,-3.709,-9.265,-0.804,-3.491,1.68,0.28,0.21
,-9.184,-0.933,-3.762,-9.32,-0.782,-3.494,1.54,0.21,0.28
,-9.086,-0.907,-3.716,-9.246,-0.84,-3.491,2.03,0.35,0.35
,-9.206,-0.912,-3.589,-9.177,-0.859,-3.489,2.87,0.42,0.49
35893.0,-9.158,-0.873,-3.565,-9.201,-0.778,-3.659,2.17,0.77,0.63
,-9.201,-0.95,-3.623,-9.191,-0.797,-3.664,2.52,0.7,0.7
,-9.174,-0.883,-3.632,-9.213,-0.828,-3.592,3.15,0.7,0.7
,-9.191,-0.885,-3.695,-9.208,-0.828,-3.563,3.22,0.63,0.77
35969.0,-9.232,-0.852,-3.532,-9.256,-0.749,-3.446,3.29,0.49,0.91
,-9.16,-0.9,-3.482,-9.244,-0.797,-3.367,3.43,0.77,1.05
,-9.191,-0.869,-3.427,-9.304,-0.845,-3.434,3.85,1.12,1.33
,-9.263,-0.79,-3.429,-9.206,-0.818,-3.417,4.06,1.05,1.26
36044.0,-9.234,-0.727,-3.484,-9.203,-0.845,-3.635,2.45,1.89,0.7
,-9.215,-0.766,-3.632,-9.232,-0.797,-3.609,1.89,1.96,0.7
,-9.208,-0.737,-3.786,-9.232,-0.83,-3.424,1.75,1.89,0.56
,-9.146,-0.782,-3.731,-9.296,-0.809,-3.525,1.89,2.03,0.63
36120.0,-9.237,-0.802,-3.623,-9.203,-0.838,-3.379,1.54,2.03,0.35
,-9.189,-0.823,-3.613,-9.261,-0.881,-3.518,1.33,2.1,0.42
,-9.222,-0.885,-3.597,-9.182,-0.909,-3.305,1.47,2.1,0.42
,-9.225,-0.907,-3.539,-9.201,-0.78,-3.575,2.03,2.24,0.42
36196.0,-9.258,-0.794,-3.853,-9.237,-0.854,-3.711,0.84,2.38,0.21
,-9.21,-0.854,-3.879,-9.17,-0.833,-3.774,1.26,2.1,0.28
,-9.127,-0.859,-3.848,-9.268,-0.876,-3.74,1.33,2.03,0.28
,-9.215,-0.924,-3.683,-9.253,-0.888,-3.714,2.1,2.03,0.49
36272.0,-9.206,-0.759,-3.812,-9.167,-0.775,-3.743,3.08,1.12,0.63
,-9.203,-0.828,-3.716,-9.213,-0.735,-3.673,2.73,1.12,0.56
,-9.198,-0.897,-3.692,-9.222,-0.735,-3.783,2.45,0.91,0.56
,-9.182,-0.869,-3.676,-9.131,-0.854,-3.776,2.87,0.7,0.63
36348.0,-9.196,-0.907,-3.759,-9.225,-0.814,-3.494,2.31,-0.07,0.42
,-9.162,-0.861,-3.754,-9.265,-0.818,-3.391,3.01,-0.14,0.63
,-9.237,-0.811,-3.654,-9.21,-0.814,-3.443,3.5,-0.14,0.63
,-9.234,-0.838,-3.549,-9.16,-0.838,-3.441,3.43,-0.42,0.63
36423.0,-9.22,-0.883,-3.503,-9.198,-0.814,-3.506,1.75,0.28,0.42
,-9.172,-0.912,-3.518,-9.232,-0.852,-3.561,1.82,0.49,0.63
,-9.222,-0.893,-3.544,-9.174,-0.804,-3.613,2.24,0.7,0.84
,-9.239,-0.838,-3.53,-9.203,-0.828,-3.685,2.59,0.84,0.91
36499.0,-9.148,-0.905,-3.678,-9.292,-0.773,-3.458,1.33,0.56,0.7
,-9.172,-0.976,-3.604,-9.273,-0.768,-3.431,1.96,0.63,0.84
,-9.213,-0.955,-3.518,-9.234,-0.859,-3.525,2.8,0.77,0.91
,-9.284,-0.919,-3.403,-9.184,-0.895,-3.551,3.71,0.98,1.12
36575.0,-9.179,-0.876,-3.489,-9.194,-0.818,-3.687,1.75,1.4,0.98
,-9.227,-0.859,-3.551,-9.194,-0.916,-3.659,2.1,1.47,0.98
,-9.227,-0.804,-3.57,-9.237,-0.897,-3.699,1.89,1.19,0.98
,-9.203,-0.785,-3.685,-9.213,-0.871,-3.553,1.47,1.19,1.05
36651.0,-9.237,-0.84,-3.604,-9.206,-0.857,-3.443,2.66,0.98,1.19
,-9.237,-0.84,-3.575,-9.208,-0.871,-3.458,2.52,0.98,1.19
,-9.229,-0.885,-3.542,-9.289,-0.79,-3.57,2.24,0.98,1.19
,-9.191,-0.866,-3.563,-9.256,-0.84,-3.702,2.24,1.19,1.19
36726.0,-9.215,-0.823,-3.699,-9.16,-0.854,-3.556,2.38,1.33,1.4
,-9.177,-0.735,-3.692,-9.22,-0.751,-3.599,2.59,1.12,1.26
,-9.263,-0.747,-3.786,-9.256,-0.854,-3.384,2.59,1.05,1.26
,-9.186,-0.878,-3.687,-9.246,-0.73,-3.52,2.1,1.19,1.33
36802.0,-9.153,-0.809,-3.372,-9.198,-0.591,-3.525,3.01,1.12,1.4
,-9.179,-0.83,-3.53,-9.273,-0.809,-3.422,2.87,1.33,1.26
,-9.244,-0.787,-3.637,-9.249,-0.854,-3.601,3.01,1.61,1.4
,-9.196,-0.627,-3.333,-9.122,-0.897,-3.343,3.5,1.82,1.33
36877.0,-9.208,-1.017,-3.405,-9.179,-0.603,-3.417,0.7,2.66,1.05
,-9.206,-0.847,-3.312,-9.091,-0.773,-3.242,2.17,2.94,1.19
,-9.239,-0.715,-3.436,-9.155,-0.821,-3.403,2.8,3.01,1.05
,-9.246,-0.56,-3.53,-9.153,-0.725,-3.436,1.4,3.15,0.84
36953.0,-9.122,-0.737,-3.163,-9.28,-0.491,-2.955,-1.05,4.9,0.35
,-9.155,-0.67,-2.989,-9.234,-0.517,-3.259,-1.4,5.6,0.14
,-9.253,-0.634,-2.771,-9.215,-0.658,-3.362,-2.1,6.23,0.21
,-9.287,-0.577,-2.807,-9.134,-0.696,-3.453,-3.08,7.0,0.07
37029.0,-9.115,-0.787,-3.384,-9.217,-0.811,-4.032,-7.21,9.38,-0.56
,-9.167,-0.809,-3.283,-9.007,-1.043,-3.991,-6.09,9.94,-0.56
,-9.299,-0.534,-3.568,-8.966,-1.067,-4.171,-5.39,10.15,-0.63
,-9.249,-0.637,-3.625,-8.93,-0.979,-4.085,-7.98,9.87,-0.84
37105.0,-9.0,-0.991,-3.826,-9.244,-0.778,-3.448,-2.8,9.31,-0.28
,-9.076,-0.96,-3.422,-9.127,-0.859,-3.575,-1.68,10.01,0.21
,-9.258,-0.893,-3.25,-9.062,-1.007,-3.484,-0.63,10.5,0.63
,-9.287,-0.794,-3.403,-9.158,-0.976,-3.453,-1.68,10.36,0.56
37181.0,-9.213,-0.747,-3.735,-8.856,-0.893,-4.039,-2.59,12.04,0.77
,-9.057,-0.565,-4.212,-9.124,-0.828,-3.635,-3.92,11.48,0.42
,-8.832,-0.61,-4.386,-9.249,-0.495,-3.604,-6.09,10.85,0.35
,-8.871,-0.718,-4.432,-9.184,-0.225,-3.283,-7.14,10.29,0.21
37256.0,-9.194,-0.093,-3.336,-9.012,-0.012,-3.924,-6.23,10.71,-0.7
,-8.981,-0.141,-3.321,-8.916,0.302,-4.544,-10.22,10.99,-0.98
,-8.859,-0.436,-3.29,-8.892,0.053,-4.558,-10.71,12.39,-1.19
,-8.997,-0.337,-3.565,-8.892,-0.352,-4.24,-7.98,13.79,-1.54
37332.0,-9.024,-0.572,-4.257,-8.861,-0.644,-3.96,-13.51,13.37,-5.67
,-8.942,-0.495,-4.197,-9.048,-0.826,-3.563,-10.78,13.3,-6.58
,-8.899,-0.459,-4.152,-8.947,-0.495,-3.51,-9.73,13.65,-7.07
,-8.976,-0.491,-4.128,-8.631,-0.199,-4.145,-11.41,13.16,-7.42
37408.0,-8.502,-0.144,-4.807,-8.842,-0.823,-4.056,-14.7,9.03,-7.91
,-8.576,-0.407,-4.97,-8.866,-0.462,-3.831,-16.31,10.43,-7.98
,-8.727,-0.964,-4.908,-8.942,-0.409,-4.231,-14.84,12.67,-7.84
,-8.741,-1.108,-4.456,-8.99,-0.854,-4.286,-8.05,15.96,-7.49
