Timestamp,AccX,AccY,AccZ,GyroX,GyroY,GyroZ,MagnX,MagnY,MagnZ
0.0,-9.239,-1.244,-3.379,-9.256,-1.23,-3.384,2.87,1.33,0.7
,-9.275,-1.247,-3.393,-9.241,-1.196,-3.429,2.8,1.33,0.63
,-9.296,-1.199,-3.376,-9.229,-1.168,-3.417,2.59,1.33,0.56
,-9.263,-1.208,-3.386,-9.21,-1.204,-3.424,2.59,1.4,0.63
75.0,-9.313,-1.24,-3.41,-9.27,-1.244,-3.372,2.66,1.05,0.7
,-9.273,-1.23,-3.367,-9.189,-1.223,-3.362,2.59,1.26,0.63
,-9.239,-1.232,-3.34,-9.289,-1.22,-3.345,2.24,1.12,0.56
,-9.253,-1.254,-3.331,-9.244,-1.194,-3.374,2.45,1.47,0.63
150.0,-9.217,-1.228,-3.36,-9.273,-1.237,-3.355,2.73,1.47,0.63
,-9.27,-1.225,-3.355,-9.296,-1.242,-3.436,2.66,1.4,0.63
,-9.27,-1.177,-3.4,-9.246,-1.24,-3.436,2.52,1.4,0.63
,-9.261,-1.216,-3.369,-9.244,-1.196,-3.41,2.31,1.47,0.56
226.0,-9.234,-1.273,-3.391,-9.28,-1.263,-3.29,2.24,1.19,0.49
,-9.227,-1.168,-3.429,-9.258,-1.29,-3.252,2.52,1.12,0.56
,-9.237,-1.204,-3.391,-9.251,-1.259,-3.264,2.59,1.19,0.49
,-9.239,-1.213,-3.336,-9.282,-1.307,-3.254,2.45,1.33,0.56
302.0,-9.277,-1.297,-3.3,-9.251,-1.242,-3.446,2.73,2.03,0.91
,-9.28,-1.249,-3.331,-9.21,-1.192,-3.429,2.8,1.89,0.84
,-9.28,-1.213,-3.384,-9.22,-1.168,-3.434,2.59,2.03,0.84
,-9.217,-1.232,-3.415,-9.222,-1.192,-3.424,2.45,1.89,0.77
378.0,-9.246,-1.187,-3.364,-9.261,-1.275,-3.352,2.59,1.89,0.91
,-9.234,-1.22,-3.326,-9.263,-1.273,-3.429,2.31,1.68,0.77
,-9.284,-1.266,-3.309,-9.237,-1.225,-3.403,2.1,1.61,0.77
,-9.282,-1.263,-3.329,-9.261,-1.292,-3.405,2.1,1.82,0.84
453.0,-9.239,-1.204,-3.386,-9.28,-1.218,-3.369,2.31,1.75,0.84
,-9.273,-1.249,-3.403,-9.251,-1.254,-3.369,2.31,1.75,0.84
,-9.268,-1.211,-3.369,-9.253,-1.237,-3.355,2.31,1.68,0.77
,-9.263,-1.23,-3.386,-9.273,-1.228,-3.415,2.31,1.75,0.84
529.0,-9.275,-1.194,-3.429,-9.251,-1.201,-3.398,2.38,1.61,0.7
,-9.203,-1.218,-3.429,-9.244,-1.225,-3.408,2.31,1.61,0.77
,-9.22,-1.232,-3.386,-9.251,-1.225,-3.369,2.45,1.75,0.91
,-9.273,-1.218,-3.403,-9.249,-1.249,-3.405,2.52,1.68,0.91
605.0,-9.234,-1.216,-3.364,-9.225,-1.24,-3.374,2.1,1.4,0.7
,-9.277,-1.211,-3.381,-9.234,-1.156,-3.376,2.1,1.47,0.63
,-9.234,-1.223,-3.384,-9.261,-1.194,-3.34,2.1,1.4,0.77
,-9.239,-1.218,-3.431,-9.258,-1.213,-3.295,2.38,1.33,0.77
681.0,-9.301,-1.254,-3.338,-9.213,-1.153,-3.343,1.96,1.47,0.7
,-9.261,-1.235,-3.362,-9.277,-1.175,-3.405,2.17,1.4,0.7
,-9.263,-1.251,-3.333,-9.299,-1.251,-3.396,2.45,1.61,0.77
,-9.222,-1.225,-3.338,-9.256,-1.299,-3.376,2.45,1.68,0.7
756.0,-9.215,-1.184,-3.412,-9.287,-1.22,-3.396,2.38,1.68,0.63
,-9.261,-1.204,-3.391,-9.27,-1.165,-3.412,2.38,1.54,0.63
,-9.215,-1.213,-3.427,-9.251,-1.165,-3.343,2.31,1.26,0.56
,-9.256,-1.23,-3.408,-9.244,-1.244,-3.357,2.52,1.33,0.63
832.0,-9.275,-1.23,-3.381,-9.215,-1.275,-3.329,2.73,1.4,0.56
,-9.249,-1.199,-3.374,-9.273,-1.225,-3.324,2.66,1.54,0.56
,-9.232,-1.244,-3.348,-9.294,-1.235,-3.278,2.52,1.61,0.42
,-9.273,-1.285,-3.35,-9.256,-1.23,-3.273,2.45,1.75,0.49
908.0,-9.265,-1.199,-3.288,-9.256,-1.232,-3.465,2.38,1.96,0.49
,-9.282,-1.22,-3.319,-9.249,-1.184,-3.424,2.17,2.1,0.56
,-9.27,-1.254,-3.403,-9.241,-1.182,-3.412,2.17,2.1,0.42
,-9.241,-1.266,-3.405,-9.275,-1.22,-3.4,2.31,2.03,0.49
983.0,-9.263,-1.249,-3.391,-9.198,-1.29,-3.448,2.59,1.89,0.49
,-9.201,-1.261,-3.429,-9.203,-1.297,-3.429,2.45,1.75,0.35
,-9.253,-1.242,-3.422,-9.232,-1.299,-3.422,2.59,1.75,0.49
,-9.21,-1.263,-3.417,-9.234,-1.208,-3.422,2.66,1.82,0.56
1059.0,-9.244,-1.232,-3.396,-9.222,-1.251,-3.355,2.94,1.54,0.56
,-9.22,-1.232,-3.4,-9.215,-1.244,-3.348,2.94,1.47,0.56
,-9.246,-1.223,-3.381,-9.282,-1.244,-3.326,2.87,1.61,0.63
,-9.203,-1.244,-3.357,-9.249,-1.235,-3.35,3.01,1.54,0.7
1135.0,-9.273,-1.199,-3.307,-9.222,-1.263,-3.431,2.66,1.75,0.7
,-9.284,-1.263,-3.379,-9.234,-1.256,-3.441,2.45,1.89,0.7
,-9.222,-1.251,-3.396,-9.284,-1.223,-3.489,2.31,1.68,0.49
,-9.249,-1.304,-3.415,-9.253,-1.213,-3.465,2.59,1.68,0.56
1211.0,-9.194,-1.232,-3.41,-9.213,-1.261,-3.396,2.52,1.61,0.77
,-9.237,-1.251,-3.441,-9.215,-1.23,-3.422,2.66,1.47,0.7
,-9.256,-1.263,-3.46,-9.217,-1.278,-3.415,2.8,1.47,0.84
,-9.186,-1.263,-3.431,-9.249,-1.256,-3.391,2.73,1.33,0.84
1286.0,-9.239,-1.307,-3.374,-9.28,-1.218,-3.384,2.8,1.12,1.05
,-9.261,-1.28,-3.429,-9.28,-1.225,-3.386,3.15,1.26,1.19
,-9.232,-1.244,-3.417,-9.256,-1.242,-3.374,3.36,1.05,1.19
,-9.244,-1.249,-3.376,-9.244,-1.189,-3.357,3.08,1.05,1.26
1362.0,-9.234,-1.137,-3.379,-9.258,-1.271,-3.408,1.82,1.12,0.84
,-9.22,-1.225,-3.51,-9.253,-1.256,-3.41,1.19,0.98,0.7
,-9.27,-1.194,-3.352,-9.275,-1.237,-3.405,1.19,0.77,0.7
,-9.316,-1.261,-3.455,-9.229,-1.153,-3.4,1.33,0.84,0.7
1438.0,-9.184,-1.146,-3.357,-9.265,-1.161,-3.391,2.94,0.84,0.98
,-9.213,-1.216,-3.355,-9.256,-1.196,-3.386,2.8,0.7,0.98
,-9.194,-1.216,-3.34,-9.239,-1.216,-3.369,3.08,0.91,0.98
,-9.251,-1.184,-3.343,-9.21,-1.199,-3.477,3.43,0.98,1.05
1514.0,-9.28,-1.235,-3.424,-9.292,-1.213,-3.503,2.52,0.77,0.63
,-9.27,-1.275,-3.41,-9.268,-1.184,-3.515,2.52,0.7,0.56
,-9.182,-1.237,-3.422,-9.177,-1.163,-3.455,2.59,0.7,0.63
,-9.306,-1.244,-3.446,-9.258,-1.259,-3.419,2.8,0.42,0.56
1589.0,-9.275,-1.321,-3.427,-9.258,-1.168,-3.281,1.89,-0.07,0.42
,-9.22,-1.333,-3.379,-9.287,-1.228,-3.283,2.17,-0.42,0.56
,-9.213,-1.22,-3.408,-9.308,-1.29,-3.206,2.52,-0.63,0.56
,-9.198,-1.192,-3.357,-9.292,-1.232,-3.216,2.31,-0.35,0.63
1665.0,-9.296,-1.223,-3.183,-9.294,-1.268,-3.199,1.54,-0.21,0.63
,-9.328,-1.237,-3.168,-9.229,-1.225,-3.218,1.05,0.0,0.63
,-9.323,-1.268,-3.209,-9.244,-1.161,-3.23,0.7,0.07,0.56
,-9.253,-1.259,-3.192,-9.284,-1.175,-3.262,0.98,0.28,0.56
1740.0,-9.268,-1.204,-3.312,-9.284,-1.208,-3.333,0.63,0.49,0.7
,-9.304,-1.249,-3.331,-9.282,-1.213,-3.319,0.42,0.63,0.7
,-9.27,-1.302,-3.376,-9.304,-1.194,-3.319,0.63,0.63,0.77
,-9.244,-1.24,-3.348,-9.273,-1.175,-3.273,1.33,0.49,0.84
1816.0,-9.241,-1.259,-3.254,-9.241,-1.28,-3.285,1.89,0.49,1.05
,-9.201,-1.24,-3.278,-9.277,-1.261,-3.276,2.52,0.7,1.12
,-9.275,-1.285,-3.247,-9.318,-1.216,-3.245,3.01,0.7,1.12
,-9.287,-1.244,-3.309,-9.294,-1.201,-3.281,3.01,0.63,1.19
1892.0,-9.287,-1.177,-3.266,-9.318,-1.153,-3.245,3.15,1.05,1.4
,-9.265,-1.228,-3.216,-9.284,-1.134,-3.269,2.8,1.05,1.33
,-9.251,-1.153,-3.247,-9.273,-1.211,-3.247,2.73,0.84,1.26
,-9.316,-1.187,-3.273,-9.253,-1.23,-3.278,2.87,0.7,1.19
1968.0,-9.277,-1.247,-3.273,-9.253,-1.192,-3.381,2.1,1.12,0.98
,-9.282,-1.184,-3.285,-9.258,-1.235,-3.405,2.03,1.05,0.91
,-9.32,-1.189,-3.331,-9.284,-1.168,-3.441,1.82,0.84,0.91
,-9.342,-1.168,-3.314,-9.261,-1.206,-3.451,1.68,0.77,0.77
2044.0,-9.241,-1.206,-3.448,-9.316,-1.18,-3.266,2.8,0.0,0.84
,-9.208,-1.161,-3.388,-9.328,-1.184,-3.269,3.01,0.0,0.91
,-9.292,-1.189,-3.321,-9.328,-1.18,-3.245,2.59,-0.21,0.77
,-9.277,-1.237,-3.276,-9.284,-1.201,-3.175,2.66,-0.56,0.84
2119.0,-9.282,-1.28,-3.197,-9.284,-1.268,-3.173,2.59,-0.56,0.77
,-9.28,-1.079,-3.07,-9.328,-1.283,-3.135,2.94,-0.42,0.7
,-9.361,-1.144,-3.147,-9.232,-1.225,-3.108,2.24,-0.42,0.42
,-9.275,-1.125,-3.08,-9.304,-1.228,-3.195,2.17,-0.42,0.56
2195.0,-9.261,-1.266,-3.214,-9.284,-1.242,-3.226,3.01,0.0,0.98
,-9.241,-1.295,-3.29,-9.225,-1.225,-3.218,2.45,-0.07,0.91
,-9.265,-1.295,-3.317,-9.296,-1.242,-3.233,2.17,-0.14,0.91
,-9.263,-1.259,-3.295,-9.275,-1.192,-3.137,2.17,-0.28,0.98
2271.0,-9.318,-1.127,-3.13,-9.256,-1.094,-2.781,1.68,-0.77,1.26
,-9.275,-1.187,-3.027,-9.241,-1.199,-2.702,1.33,-0.35,1.47
,-9.246,-1.074,-2.991,-9.265,-1.311,-2.668,1.26,0.07,1.47
,-9.277,-1.039,-2.927,-9.299,-1.318,-2.678,0.77,0.07,1.33
2347.0,-9.335,-1.268,-2.699,-9.416,-0.641,-2.934,-0.84,2.8,2.17
,-9.33,-1.218,-2.749,-9.34,-0.526,-2.888,-1.61,3.57,2.38
,-9.38,-1.098,-2.749,-9.289,-0.747,-2.769,-2.8,3.71,2.24
,-9.366,-0.852,-2.793,-9.363,-1.094,-2.666,-4.83,3.64,1.96
2422.0,-9.454,-1.259,-2.871,-9.249,-1.496,-3.467,-17.22,4.76,0.35
,-9.354,-1.527,-3.087,-9.229,-1.321,-3.245,-16.31,5.04,0.63
,-9.294,-1.594,-3.321,-9.34,-1.015,-3.25,-14.56,5.32,1.26
,-9.265,-1.529,-3.484,-9.402,-0.854,-3.465,-11.76,5.25,1.82
2498.0,-9.328,-1.022,-3.185,-9.273,-1.864,-3.106,-13.79,3.15,1.33
,-9.296,-0.993,-3.46,-9.1,-1.62,-3.015,-16.59,1.89,1.47
,-9.057,-1.424,-3.281,-9.174,-1.381,-2.759,-18.69,1.47,1.89
,-9.131,-1.843,-2.958,-9.397,-1.05,-2.682,-16.73,2.24,3.01
2573.0,-9.502,-0.756,-2.812,-9.122,-1.237,-3.015,-4.34,5.6,4.97
,-9.481,-0.766,-3.12,-9.174,-1.024,-2.721,-8.05,4.83,4.34
,-9.251,-0.773,-3.056,-9.409,-0.39,-3.223,-11.34,5.46,4.48
,-9.225,-0.986,-3.417,-9.184,-0.337,-2.919,-12.81,6.23,4.41
2649.0,-9.232,-0.378,-3.515,-9.344,-1.232,-3.29,-9.52,7.91,3.64
,-8.899,-0.983,-3.099,-9.454,-0.838,-3.637,-12.04,8.75,4.13
,-9.139,-1.29,-3.01,-9.215,-0.622,-3.4,-9.31,10.01,4.55
,-9.217,-1.35,-3.518,-9.201,-0.668,-3.034,-4.13,10.15,4.41
2725.0,-9.366,-0.66,-3.333,-9.0,-1.141,-3.486,2.73,12.39,4.9
,-9.237,-0.744,-3.515,-9.112,-1.101,-3.367,3.15,11.97,4.48
,-9.313,-0.792,-3.609,-9.117,-0.909,-3.329,3.22,12.04,4.41
,-9.064,-0.979,-3.759,-9.06,-0.83,-3.642,2.17,13.02,4.69
2801.0,-9.093,-0.943,-3.647,-9.155,-0.89,-3.161,9.94,14.49,7.0
,-9.129,-1.17,-3.644,-9.488,-0.053,-3.199,8.68,14.14,8.05
,-8.949,-1.699,-3.386,-9.368,0.464,-3.424,8.89,15.4,8.96
,-9.189,-1.565,-3.273,-9.282,0.773,-3.628,13.72,16.94,9.03
2876.0,-9.174,1.125,-3.843,-9.031,-0.811,-3.597,5.88,19.39,1.96
,-8.995,1.24,-3.764,-9.117,-0.995,-3.654,2.31,19.25,-0.28
,-8.899,0.926,-3.826,-9.127,-0.78,-3.659,-1.54,18.76,-2.31
,-8.856,-0.007,-3.81,-9.239,-0.462,-3.781,-4.69,18.83,-3.01
2952.0,-9.153,-0.321,-3.714,-8.748,-0.845,-3.994,6.44,19.18,-7.14
,-8.976,-0.278,-3.728,-8.851,-0.823,-4.243,1.89,20.23,-7.56
,-8.83,-0.436,-3.776,-8.624,-0.637,-4.446,-2.8,21.49,-7.28
,-8.914,-0.608,-3.92,-8.497,-0.581,-4.558,-5.25,22.19,-7.28
3028.0,-8.698,-0.73,-4.319,-8.823,-1.788,-4.69,0.98,20.16,-7.21
,-8.952,-1.039,-4.362,-8.701,-1.852,-4.743,2.73,20.37,-7.35
,-8.72,-1.196,-4.621,-8.603,-1.57,-4.891,3.85,20.09,-6.86
,-8.672,-1.474,-4.633,-8.306,-1.295,-4.858,4.27,20.65,-5.67
3104.0,-8.339,-1.153,-4.831,-8.579,-2.398,-4.494,6.44,17.64,-2.31
,-8.583,-1.433,-4.755,-8.579,-2.252,-4.616,4.48,17.92,-1.4
,-8.813,-1.828,-4.561,-8.538,-1.922,-4.733,3.43,18.76,-0.14
,-8.82,-2.242,-4.47,-8.473,-1.455,-4.812,4.48,19.88,1.61
3180.0,-8.492,-1.067,-4.838,-8.473,-0.529,-5.185,19.46,21.0,6.37
,-8.646,-0.89,-4.929,-8.234,-0.773,-5.157,18.13,20.72,6.3
,-9.055,-0.68,-4.97,-8.533,-0.852,-5.128,16.31,19.04,6.09
,-8.88,-0.419,-5.286,-8.799,-0.878,-5.145,13.51,15.47,6.09
3255.0,-8.875,-0.641,-5.188,-8.334,-0.27,-5.92,7.56,11.9,4.34
,-8.378,-0.452,-5.343,-8.476,-0.457,-5.812,6.93,11.2,3.99
,-8.516,-0.555,-5.281,-8.323,-0.66,-5.729,4.27,10.57,3.85
,-8.399,-0.39,-5.568,-8.27,-1.194,-5.334,3.57,8.89,3.36
3331.0,-8.344,-1.749,-5.202,-8.66,-2.357,-4.867,-2.38,7.0,1.96
,-8.54,-2.292,-4.922,-8.495,-2.455,-4.542,-1.19,7.42,3.22
,-8.538,-2.558,-4.855,-8.437,-1.922,-4.697,1.12,6.65,4.97
,-8.617,-2.479,-4.843,-8.681,-1.06,-4.767,3.57,5.67,7.42
3406.0,-8.526,0.077,-5.176,-8.665,0.924,-5.535,14.14,5.88,9.38
,-8.488,0.938,-5.166,-8.856,1.06,-5.791,13.02,5.04,7.35
,-8.44,1.182,-5.257,-8.892,0.72,-5.707,8.96,3.71,5.46
,-8.591,1.039,-5.463,-8.382,-0.098,-5.544,5.32,3.92,3.92
3482.0,-8.244,-1.134,-5.31,-8.533,-3.063,-4.554,3.29,2.94,-5.88
,-8.179,-2.003,-5.348,-8.162,-2.601,-4.826,3.5,3.5,-4.2
,-8.315,-2.548,-5.274,-8.684,-1.89,-5.13,5.46,3.85,-2.59
,-8.536,-2.965,-4.927,-8.787,-1.271,-5.31,7.21,3.85,-1.26
3558.0,-8.629,-1.084,-5.353,-8.047,-1.661,-5.008,11.06,1.4,3.36
,-8.78,-0.866,-5.413,-7.99,-1.347,-4.994,8.96,0.91,3.01
,-8.863,-1.079,-5.473,-8.478,-0.677,-5.118,7.28,0.21,4.06
,-8.208,-1.481,-5.126,-8.964,-0.323,-5.006,7.56,0.77,5.32
3634.0,-9.005,-0.447,-5.255,-8.275,-1.417,-5.205,13.16,1.47,4.13
,-8.873,-0.524,-5.248,-8.476,-1.646,-4.987,11.2,0.35,4.2
,-8.433,-0.806,-5.355,-8.667,-1.675,-5.042,10.15,-0.49,5.25
,-7.961,-1.062,-5.487,-8.311,-1.158,-5.355,9.59,-0.35,5.74
3709.0,-8.239,-0.407,-5.425,-8.899,-1.086,-4.91,8.33,1.54,10.92
,-8.287,-0.034,-5.386,-8.957,-1.196,-4.903,4.97,1.75,10.43
,-8.425,-0.158,-5.173,-8.935,-1.247,-4.939,0.7,1.96,9.03
,-8.811,-0.431,-5.061,-8.691,-1.223,-4.965,-2.03,2.45,8.33
3785.0,-8.49,-0.924,-5.116,-8.411,-0.318,-5.465,9.1,3.99,5.53
,-8.447,-0.431,-5.319,-8.248,-0.112,-5.585,9.45,4.27,4.9
,-8.48,-0.431,-5.547,-8.404,-0.069,-5.523,7.7,4.48,3.92
,-8.562,-0.653,-5.317,-8.607,-0.302,-5.53,5.95,4.27,3.36
3860.0,-8.763,-0.617,-5.456,-8.567,-0.615,-5.755,-2.66,4.62,-0.35
,-8.61,-1.041,-5.233,-8.873,-0.842,-5.396,-3.57,4.41,0.0
,-8.373,-1.139,-5.229,-8.99,-1.141,-5.331,-3.08,4.48,0.63
,-8.368,-0.866,-5.453,-8.559,-1.393,-5.152,-1.33,4.27,1.26
3936.0,-8.363,-1.445,-5.233,-8.806,-0.325,-5.829,-6.58,1.75,3.57
,-8.346,-0.979,-5.779,-8.732,-0.739,-5.41,-4.69,1.12,3.08
,-8.442,-0.39,-6.056,-8.562,-0.905,-5.298,-2.66,0.42,2.59
,-8.662,-0.182,-6.037,-8.459,-0.72,-5.477,-3.15,-0.49,1.89
4012.0,-8.751,-0.749,-5.15,-8.215,-1.096,-5.382,-4.34,-2.24,1.47
,-8.914,-0.701,-5.298,-8.524,-1.079,-5.336,-4.83,-4.62,1.68
,-8.33,-0.806,-5.501,-8.607,-1.103,-5.178,-7.91,-5.67,2.17
,-7.932,-0.926,-5.43,-8.533,-0.814,-5.379,-9.59,-4.83,3.22
4088.0,-8.66,-0.797,-5.334,-8.916,-0.847,-5.252,-6.58,-4.34,4.06
,-8.631,-0.964,-5.367,-8.528,-0.713,-5.19,-5.74,-3.92,3.78
,-8.634,-1.254,-5.219,-8.433,-0.581,-4.958,-4.06,-3.43,3.43
,-9.057,-1.271,-4.98,-8.356,-0.531,-5.173,-0.56,-4.76,3.08
4164.0,-8.294,-0.459,-5.319,-8.756,-0.378,-4.949,4.34,-7.56,1.54
,-8.421,-0.503,-5.212,-8.363,-0.311,-5.15,3.64,-7.0,2.17
,-8.588,-0.749,-5.207,-8.466,-0.404,-5.044,2.87,-7.56,2.38
,-8.701,-0.811,-4.848,-8.708,-0.445,-5.03,3.71,-9.24,2.59
4239.0,-8.772,-0.194,-4.982,-9.162,-0.727,-4.736,0.63,-13.65,-0.35
,-8.524,-0.505,-5.286,-9.028,-0.663,-4.891,-0.56,-13.09,0.63
,-8.555,-0.747,-5.135,-8.708,-0.816,-4.917,-3.15,-12.46,0.77
,-8.607,-0.718,-5.173,-8.416,-1.074,-4.896,1.61,-10.92,-0.14
4315.0,-8.512,-1.335,-4.934,-8.739,-1.053,-4.838,1.82,-14.91,1.54
,-8.614,-1.268,-5.083,-8.768,-1.211,-4.695,2.87,-16.38,2.45
,-8.579,-1.079,-5.176,-8.514,-0.983,-4.867,4.06,-17.29,3.57
,-8.784,-0.993,-5.104,-8.732,-0.955,-4.791,4.69,-17.71,4.69
4391.0,-8.902,-0.828,-4.707,-9.0,0.029,-4.678,9.03,-15.61,5.53
,-8.993,-0.581,-4.709,-8.957,0.342,-4.434,9.94,-15.75,5.81
,-8.832,-0.378,-4.791,-8.442,0.459,-4.42,10.71,-16.1,5.74
,-8.758,-0.127,-4.934,-8.698,0.065,-4.137,11.62,-16.73,5.53
4467.0,-9.139,-0.572,-4.003,-9.019,-0.168,-3.798,-2.73,-24.29,1.47
,-9.186,-0.785,-3.896,-9.127,-0.086,-3.771,-0.77,-23.87,1.26
,-8.985,-0.469,-3.867,-9.251,-0.237,-3.632,3.08,-22.89,1.54
,-8.808,-0.299,-3.805,-8.892,-0.57,-3.601,5.67,-21.56,1.05
4542.0,-8.624,-1.07,-3.491,-9.079,-0.897,-3.764,6.02,-14.42,-0.21
,-8.799,-1.481,-3.525,-8.799,-0.823,-3.451,8.26,-14.7,0.28
,-8.926,-1.493,-3.434,-8.904,-0.711,-3.264,12.25,-15.12,1.12
,-9.234,-1.182,-3.508,-9.069,-0.462,-3.013,15.47,-16.24,1.89
4618.0,-9.282,0.103,-3.161,-9.213,-0.964,-2.836,18.48,-14.28,2.1
,-9.354,0.337,-3.151,-9.34,-0.885,-2.659,15.26,-15.33,1.61
,-9.292,0.156,-2.905,-9.442,-0.268,-3.092,8.68,-15.75,1.26
,-9.308,-0.598,-3.101,-9.292,0.321,-3.41,5.25,-14.98,1.12
4693.0,-9.198,0.311,-3.336,-9.337,-0.737,-3.218,7.91,-13.51,-2.38
,-9.299,-0.148,-3.36,-9.201,-0.787,-3.364,3.78,-12.88,-2.94
,-9.213,-0.531,-2.977,-9.115,-0.969,-3.034,2.73,-12.32,-3.78
,-9.387,-0.794,-3.242,-9.323,-1.216,-2.627,3.57,-12.39,-4.55
4769.0,-9.411,-1.206,-2.632,-9.306,-0.577,-3.757,8.96,-10.22,-4.06
,-9.194,-1.058,-2.434,-9.256,-0.385,-3.649,10.22,-9.8,-3.71
,-9.284,-0.794,-3.082,-9.418,-0.244,-3.743,9.38,-10.64,-3.57
,-9.261,-0.524,-3.357,-9.476,-0.086,-3.644,7.28,-11.34,-3.36
4845.0,-9.349,0.072,-2.948,-8.995,-1.211,-3.216,10.99,-12.11,-5.88
,-9.734,-0.244,-3.484,-9.27,-1.424,-3.168,8.89,-13.02,-6.93
,-9.373,-0.51,-3.905,-9.311,-1.548,-2.56,4.06,-15.33,-8.68
,-8.89,-0.871,-3.613,-9.581,-1.275,-2.8,2.24,-16.1,-8.33
4921.0,-9.395,-1.125,-2.73,-9.521,-1.039,-1.05,10.64,-14.98,-5.53
,-9.335,-1.237,-2.283,-9.787,-0.572,-1.642,11.27,-14.42,-4.55
,-9.304,-1.17,-2.058,-9.378,-0.866,-1.182,13.65,-12.95,-4.06
,-9.28,-1.137,-1.73,-9.512,-1.204,-1.263,15.82,-11.34,-3.57
4996.0,-9.368,-1.67,-1.649,-9.777,-0.771,-2.515,12.53,-5.25,-1.96
,-9.287,-1.878,-1.704,-9.605,-0.866,-2.821,14.56,-3.71,-0.98
,-9.5,-1.575,-2.091,-9.239,-1.211,-2.647,18.27,-2.59,-0.28
,-9.682,-1.139,-2.23,-9.241,-1.359,-2.62,19.04,-1.96,-0.21
5072.0,-9.289,-1.393,-2.434,-9.483,-0.687,-3.015,5.53,-1.19,-1.68
,-9.454,-1.134,-2.364,-9.237,-1.015,-2.848,7.28,-0.56,-1.54
,-9.675,-0.763,-2.656,-9.246,-1.383,-2.536,6.51,-0.91,-1.89
,-9.691,-0.627,-2.936,-9.306,-1.5,-2.209,2.03,-2.38,-2.73
5148.0,-9.538,-1.441,-2.06,-9.591,-0.914,-2.19,-2.38,-1.4,-2.73
,-9.629,-1.381,-1.785,-9.383,-0.995,-2.228,-1.61,-0.7,-2.24
,-9.765,-1.295,-1.843,-9.38,-1.302,-2.225,-1.68,-0.35,-2.1
,-9.641,-1.132,-1.926,-9.363,-1.524,-2.072,-2.17,-0.14,-2.1
5224.0,-9.483,-1.601,-1.89,-9.45,-1.086,-2.584,-5.88,3.01,-1.33
,-9.727,-1.441,-2.087,-9.428,-1.055,-2.824,-3.92,3.99,-1.05
,-9.634,-1.338,-2.273,-9.43,-1.12,-3.051,-3.29,4.41,-0.56
,-9.536,-1.228,-2.405,-9.407,-1.278,-3.147,-3.08,4.55,-0.07
5300.0,-9.454,-1.409,-3.166,-9.502,-1.089,-3.084,0.91,4.62,1.12
,-9.383,-1.354,-3.063,-9.411,-1.106,-2.962,4.2,4.41,1.75
,-9.526,-1.163,-3.096,-9.363,-1.201,-2.747,6.3,3.99,1.89
,-9.478,-1.091,-3.089,-9.531,-1.352,-2.589,6.58,3.22,1.89
5375.0,-9.643,-1.251,-2.359,-9.533,-0.842,-2.544,4.83,2.52,1.96
,-9.639,-0.95,-2.292,-9.531,-0.864,-2.582,4.55,2.45,1.82
,-9.533,-0.912,-2.28,-9.517,-0.938,-2.575,3.01,2.45,1.47
,-9.517,-0.838,-2.383,-9.631,-1.05,-2.642,1.54,2.73,1.05
5451.0,-9.514,-1.094,-2.728,-9.39,-1.283,-3.063,-3.64,2.38,-0.14
,-9.474,-1.11,-2.891,-9.354,-1.261,-2.996,-3.22,2.17,-0.21
,-9.342,-1.223,-2.91,-9.426,-1.141,-2.836,-2.31,2.1,-0.07
,-9.344,-1.316,-2.991,-9.531,-0.995,-2.812,-0.63,2.17,0.35
5526.0,-9.505,-1.019,-2.85,-9.483,-0.976,-2.876,4.41,1.68,0.84
,-9.438,-0.995,-2.819,-9.509,-1.031,-2.776,3.92,1.47,0.84
,-9.466,-1.036,-2.812,-9.454,-1.184,-2.611,3.5,1.61,0.77
,-9.423,-1.055,-2.759,-9.5,-1.263,-2.613,3.71,1.54,0.77
5602.0,-9.536,-1.22,-2.678,-9.459,-1.017,-2.577,3.78,1.26,0.63
,-9.457,-1.106,-2.594,-9.541,-1.077,-2.58,4.41,1.4,0.7
,-9.459,-1.055,-2.623,-9.529,-1.086,-2.51,4.34,1.61,0.63
,-9.438,-1.022,-2.601,-9.584,-1.07,-2.539,3.99,1.75,0.49
5678.0,-9.636,-1.017,-2.673,-9.402,-1.316,-2.816,2.59,2.24,0.07
,-9.548,-1.019,-2.757,-9.5,-1.194,-2.819,1.4,1.82,-0.21
,-9.435,-1.153,-2.8,-9.488,-1.082,-2.788,0.42,1.89,-0.35
,-9.359,-1.287,-2.869,-9.452,-1.036,-2.714,0.07,1.82,-0.35
5754.0,-9.452,-1.137,-2.757,-9.474,-1.168,-2.759,1.96,1.54,-0.07
,-9.45,-1.125,-2.704,-9.452,-1.177,-2.697,2.1,1.47,-0.07
,-9.485,-1.144,-2.781,-9.43,-1.139,-2.656,2.38,1.33,0.07
,-9.533,-1.173,-2.769,-9.488,-1.208,-2.615,2.8,1.33,0.07
5829.0,-9.457,-1.194,-2.603,-9.366,-1.462,-2.86,2.17,1.33,0.21
,-9.476,-1.237,-2.656,-9.402,-1.424,-2.936,1.96,1.47,0.42
,-9.428,-1.283,-2.714,-9.49,-1.242,-2.989,2.1,1.61,0.56
,-9.418,-1.4,-2.807,-9.502,-1.151,-3.025,1.68,1.33,0.63
5905.0,-9.402,-1.091,-2.989,-9.38,-1.254,-2.919,3.43,0.63,1.61
,-9.363,-1.082,-2.97,-9.457,-1.199,-2.84,3.5,0.21,1.54
,-9.407,-1.122,-2.989,-9.497,-1.266,-2.766,3.85,0.07,1.61
,-9.361,-1.192,-2.977,-9.5,-1.259,-2.754,4.34,-0.14,1.75
5980.0,-9.452,-1.129,-2.709,-9.543,-1.094,-2.505,5.25,-1.19,2.1
,-9.526,-1.027,-2.711,-9.576,-1.031,-2.446,5.32,-1.26,2.1
,-9.557,-1.089,-2.592,-9.562,-1.041,-2.338,5.04,-1.19,2.03
,-9.545,-1.113,-2.508,-9.586,-1.019,-2.347,4.76,-1.12,2.03
6056.0,-9.521,-1.024,-2.321,-9.538,-0.986,-2.295,3.15,-0.42,1.54
,-9.509,-1.055,-2.321,-9.569,-0.888,-2.254,2.38,-0.07,1.33
,-9.505,-1.062,-2.199,-9.576,-0.928,-2.156,1.82,0.28,1.26
,-9.49,-1.05,-2.328,-9.543,-1.027,-1.998,1.19,0.84,1.12
6132.0,-9.521,-1.216,-1.929,-9.564,-1.141,-1.857,-3.64,3.22,0.63
,-9.5,-1.452,-1.883,-9.552,-1.041,-2.02,-4.34,4.13,0.77
,-9.476,-1.742,-1.575,-9.447,-1.043,-2.024,-4.55,5.32,1.47
,-9.481,-1.393,-1.809,-9.378,-1.129,-1.941,-2.8,6.44,1.75
6208.0,-9.433,-1.156,-1.979,-9.44,-0.833,-2.855,-10.15,10.43,1.68
,-9.478,-1.146,-1.833,-9.27,-1.05,-2.95,-10.57,11.13,1.47
,-9.61,-0.924,-2.197,-9.251,-1.012,-2.905,-11.41,11.48,1.26
,-9.615,-0.687,-2.584,-9.217,-0.974,-2.895,-13.44,11.2,0.98
6284.0,-9.32,-0.967,-2.534,-9.366,-0.543,-3.139,-9.87,12.88,1.89
,-9.629,-0.948,-2.752,-9.22,-0.835,-2.948,-9.24,12.81,1.61
,-9.686,-0.718,-3.08,-9.093,-1.247,-2.814,-11.13,11.06,0.91
,-9.452,-0.512,-3.216,-9.033,-1.543,-2.625,-14.21,9.38,0.42
6359.0,-9.196,-1.531,-2.17,-9.416,-0.823,-3.281,-11.83,12.11,1.33
,-9.701,-1.216,-2.429,-9.203,-0.974,-3.455,-7.98,12.18,1.33
,-9.737,-0.921,-2.745,-9.007,-1.146,-3.599,-9.59,10.99,0.7
,-9.562,-0.826,-2.752,-9.033,-1.249,-3.238,-10.57,10.71,1.54
6435.0,-9.234,-0.962,-3.343,-9.036,-1.115,-3.546,-3.71,12.81,3.43
,-9.311,-0.742,-3.144,-9.292,-1.409,-3.465,-1.54,13.02,3.29
,-9.576,-0.596,-3.652,-9.33,-1.51,-3.357,-1.96,11.9,2.59
,-9.318,-0.613,-4.013,-9.32,-1.311,-2.962,-5.88,10.64,2.38
6511.0,-9.395,-0.902,-2.761,-9.122,-0.998,-2.697,3.43,12.6,4.48
,-9.349,-0.529,-2.56,-9.462,-1.086,-3.513,0.7,11.97,4.27
,-9.368,-0.505,-2.505,-9.122,-0.933,-3.604,-3.08,11.9,4.34
,-9.143,-0.737,-3.034,-9.088,-0.763,-3.47,-7.14,11.34,3.85
6587.0,-9.119,-0.737,-3.218,-9.509,-0.455,-2.936,-1.47,16.1,4.34
,-9.11,-0.699,-2.24,-9.273,-1.003,-3.391,-0.49,18.55,4.83
,-9.442,-0.433,-2.505,-8.945,-1.46,-3.326,1.61,18.41,3.92
,-9.304,-0.218,-2.637,-8.775,-1.345,-3.484,0.56,17.71,2.38
6662.0,-8.835,-0.648,-3.632,-9.002,-0.572,-2.982,7.56,21.7,3.78
,-9.15,0.086,-3.664,-9.289,-1.302,-3.132,11.34,21.35,2.38
,-9.217,0.512,-3.585,-9.06,-1.675,-3.199,8.96,21.21,1.82
,-9.091,0.208,-3.558,-9.115,-1.603,-3.312,2.17,21.77,1.61
6738.0,-8.78,-1.4,-3.336,-8.619,-0.38,-3.908,7.28,26.32,3.43
,-9.024,-0.955,-3.429,-8.796,-0.412,-3.592,10.99,28.0,3.85
,-8.868,-0.45,-3.886,-9.06,-0.39,-4.02,12.11,27.79,3.5
,-8.624,-0.333,-3.924,-9.06,-0.27,-4.413,9.45,27.93,3.15
6813.0,-8.954,-0.096,-4.807,-8.947,-0.979,-4.666,1.61,25.55,2.03
,-8.782,-0.333,-5.032,-8.588,-0.412,-5.329,-1.47,25.48,2.03
,-9.105,-0.833,-4.757,-8.485,-0.024,-5.528,-3.29,26.18,1.75
,-9.215,-1.196,-4.535,-8.667,-0.012,-5.642,-2.24,25.55,0.91
6889.0,-8.646,-0.34,-5.547,-8.842,-1.45,-4.678,-2.45,18.27,0.28
,-8.689,-0.907,-5.451,-9.072,-1.18,-4.647,-3.78,18.48,-0.35
,-8.868,-1.295,-5.221,-8.873,-0.842,-4.927,-2.94,18.62,-1.26
,-8.866,-1.512,-4.965,-8.452,-0.62,-5.03,-0.7,18.62,-1.33
6965.0,-8.406,-0.632,-4.791,-8.55,-0.318,-5.114,2.24,17.08,1.89
,-8.567,-0.826,-4.704,-8.526,0.086,-5.018,1.61,16.59,2.1
,-8.703,-1.086,-4.927,-8.571,-0.002,-4.681,2.38,15.82,2.66
,-8.744,-0.912,-4.891,-8.612,-0.144,-4.554,4.97,14.7,3.15
7041.0,-8.681,-0.048,-4.338,-8.617,0.019,-4.877,-1.4,11.97,-2.24
,-8.634,0.127,-4.547,-8.717,-0.122,-4.798,-2.24,12.04,-2.66
,-8.512,0.261,-4.592,-8.538,0.06,-4.96,-3.08,13.37,-3.15
,-8.564,0.223,-4.767,-8.184,0.215,-4.886,-4.48,14.28,-3.99
7116.0,-8.313,0.12,-4.764,-8.576,-0.242,-5.152,-4.48,14.07,-8.26
,-8.693,-0.122,-4.695,-8.22,-0.261,-5.681,-6.16,14.7,-9.03
,-8.722,-0.242,-4.884,-8.045,-0.57,-5.652,-7.0,15.12,-9.38
,-8.677,-0.201,-4.934,-8.136,-0.816,-5.518,-6.72,14.84,-9.52
7192.0,-8.2,-1.28,-5.43,-8.591,-3.623,-4.812,-7.91,13.51,-11.13
,-8.418,-2.065,-4.987,-8.43,-3.063,-5.219,-9.03,13.02,-9.66
,-8.229,-2.833,-5.104,-8.315,-2.481,-5.477,-8.19,12.81,-7.07
,-8.536,-3.597,-4.676,-8.454,-1.778,-5.817,-6.16,13.37,-4.2
7268.0,-8.205,-1.273,-6.178,-8.71,-1.113,-5.769,10.5,10.01,3.99
,-7.93,-1.18,-6.171,-8.794,-0.603,-5.628,8.47,10.01,5.67
,-7.789,-1.572,-6.174,-8.595,-0.321,-5.566,6.65,10.15,7.07
,-8.088,-1.529,-6.001,-8.423,-0.531,-5.556,8.75,10.01,7.7
7344.0,-8.622,-0.943,-5.418,-8.148,-0.893,-5.578,10.15,7.0,3.85
,-8.784,-1.323,-5.386,-7.803,-0.689,-5.487,10.99,6.37,4.55
,-8.466,-1.237,-5.75,-7.882,-0.457,-5.528,14.28,5.67,4.9
,-8.373,-1.151,-5.793,-8.208,-0.282,-5.619,17.43,5.53,4.83
7420.0,-8.555,-0.309,-5.456,-8.461,-0.893,-5.52,13.51,6.09,3.01
,-8.512,-0.345,-5.386,-8.488,-1.048,-5.753,11.55,6.3,2.59
,-8.471,-0.632,-5.276,-8.241,-1.218,-5.774,9.94,6.37,2.24
,-8.418,-0.838,-5.068,-8.043,-1.113,-5.712,9.38,5.81,2.31
7495.0,-7.942,-1.11,-5.671,-8.153,-0.452,-5.815,10.15,3.57,4.69
,-8.279,-1.039,-5.628,-8.342,-0.677,-5.561,10.15,3.57,4.76
,-8.466,-0.991,-5.432,-8.291,-0.72,-5.511,10.22,3.29,4.55
,-8.524,-0.625,-5.568,-8.208,-0.263,-5.841,11.06,3.08,4.62
7571.0,-8.21,-0.074,-6.006,-8.215,-0.531,-5.693,6.93,2.38,3.01
,-8.337,-0.428,-6.023,-8.291,-0.651,-5.518,5.6,2.24,2.52
,-8.363,-0.78,-5.638,-8.133,-0.928,-5.425,5.11,2.73,2.24
,-8.284,-0.672,-5.645,-8.356,-1.247,-5.372,7.0,2.24,1.82
7646.0,-8.677,-1.455,-5.252,-7.82,-1.082,-5.676,2.24,1.47,0.28
,-8.521,-1.627,-5.24,-8.145,-0.754,-5.729,2.59,1.19,0.77
,-8.423,-1.472,-5.327,-8.368,-0.445,-5.767,3.64,1.05,1.47
,-7.978,-1.364,-5.427,-8.457,-0.426,-5.662,4.27,1.19,2.38
7722.0,-8.39,-0.5,-5.621,-8.16,-1.505,-5.693,6.23,1.82,0.77
,-8.425,-0.369,-5.743,-8.138,-1.644,-5.717,6.58,1.47,-0.21
,-8.32,-0.658,-5.836,-8.126,-1.878,-5.626,5.18,1.26,-1.26
,-8.26,-1.228,-5.664,-8.016,-1.967,-5.757,3.64,1.47,-1.61
7798.0,-8.078,-2.118,-5.946,-8.38,-1.251,-5.597,1.89,0.07,3.29
,-8.189,-2.204,-5.75,-8.471,-0.682,-5.465,1.54,0.07,5.25
,-8.165,-2.168,-5.626,-8.358,-0.249,-5.566,2.1,0.14,6.93
,-8.27,-1.754,-5.604,-8.495,-0.141,-5.662,3.43,0.42,7.84
7874.0,-8.605,-0.237,-5.477,-8.437,-0.239,-5.659,-1.89,0.07,7.42
,-8.516,-0.223,-5.444,-8.447,-0.481,-5.635,-1.89,0.0,6.44
,-8.385,-0.089,-5.53,-8.464,-0.773,-5.587,-1.47,-0.21,5.25
,-8.366,-0.096,-5.595,-8.306,-1.022,-5.518,-1.33,-0.63,4.27
7949.0,-8.337,-1.12,-5.331,-8.545,0.256,-5.652,-3.5,-2.1,3.99
,-8.54,-0.723,-5.501,-8.437,-0.096,-5.518,-1.61,-2.31,3.71
,-8.502,-0.189,-5.729,-8.287,-0.61,-5.284,-0.84,-2.8,2.66
,-8.473,0.378,-5.906,-8.229,-1.077,-5.319,-2.38,-3.08,1.19
8025.0,-8.287,-1.436,-5.401,-8.323,-1.378,-5.733,-11.27,-4.13,0.28
,-8.299,-1.79,-5.657,-7.885,-1.165,-5.822,-8.61,-4.2,0.56
,-8.564,-1.955,-5.434,-7.913,-1.113,-5.638,-6.02,-4.41,1.05
,-8.583,-1.62,-5.635,-8.256,-1.338,-5.564,-1.96,-6.16,1.61
8101.0,-8.536,-1.271,-5.626,-8.703,-0.615,-5.164,-3.43,-8.89,7.0
,-8.617,-1.163,-5.65,-8.545,-0.529,-5.382,-1.68,-8.54,7.49
,-8.593,-0.933,-5.532,-8.342,-0.261,-5.659,-0.07,-8.75,7.77
,-8.478,-0.627,-5.621,-8.334,-0.048,-5.731,2.59,-8.68,7.21
8177.0,-8.524,0.168,-5.738,-8.33,0.036,-5.477,6.58,-12.11,2.17
,-8.739,0.156,-5.666,-8.088,-0.369,-5.523,6.51,-12.18,0.42
,-8.782,0.237,-5.535,-8.418,-0.474,-5.621,6.02,-12.53,-1.05
,-8.713,0.062,-5.276,-8.571,-0.548,-5.726,2.87,-14.07,-1.05
8252.0,-8.603,-0.476,-5.535,-8.6,-0.273,-5.418,1.61,-19.18,-1.96
,-8.516,-0.431,-5.43,-8.746,-0.581,-5.315,3.29,-18.2,-3.15
,-8.698,-0.29,-5.214,-8.713,-0.869,-5.221,3.64,-18.2,-3.78
,-8.583,-0.112,-5.475,-8.404,-1.228,-5.071,2.59,-19.46,-3.99
8328.0,-8.191,-1.651,-5.173,-8.693,-0.689,-4.688,4.62,-17.22,-3.71
,-8.466,-1.864,-5.083,-8.55,-0.419,-4.633,10.01,-16.87,-1.61
,-8.679,-1.572,-4.783,-8.593,-0.519,-4.542,15.05,-18.62,-0.14
,-8.961,-1.18,-4.697,-8.519,-0.732,-4.606,17.36,-21.84,0.56
8404.0,-8.555,-0.885,-4.549,-8.947,-1.385,-3.869,-2.17,-27.65,2.52
,-8.557,-1.022,-4.475,-9.222,-1.141,-3.644,-1.54,-26.53,3.15
,-8.646,-1.113,-4.379,-9.131,-0.739,-3.625,0.77,-25.41,3.36
,-8.693,-1.321,-4.056,-9.007,-0.266,-3.888,4.41,-23.1,3.57
8480.0,-8.677,0.026,-4.015,-9.119,-0.141,-3.668,16.24,-23.31,5.39
,-8.569,-0.002,-3.738,-9.033,-0.089,-3.898,12.67,-22.05,5.18
,-8.868,-0.172,-3.534,-8.88,-0.383,-3.798,9.94,-21.0,4.27
,-8.94,-0.127,-3.556,-8.906,-0.814,-3.223,8.96,-21.63,2.73
8556.0,-9.014,-0.981,-2.886,-9.45,-0.177,-3.266,5.74,-19.67,0.84
,-9.194,-0.931,-3.034,-9.33,-0.407,-2.905,10.15,-19.6,-0.21
,-9.28,-0.486,-3.144,-9.325,-0.464,-2.943,12.46,-20.72,-0.7
,-9.428,-0.187,-3.364,-9.069,-0.737,-2.982,11.06,-21.98,-0.21
8631.0,-9.196,-0.993,-3.061,-9.196,-1.256,-3.597,-0.35,-19.95,-3.36
,-9.081,-1.027,-3.609,-9.036,-1.307,-3.135,-0.35,-21.21,-2.73
,-9.079,-1.046,-3.917,-9.258,-1.244,-2.709,0.07,-22.75,-2.31
,-9.043,-1.175,-4.003,-9.409,-0.9,-2.771,1.89,-22.4,-1.61
8707.0,-9.34,-0.61,-2.879,-9.433,-0.316,-2.615,13.09,-19.46,-0.91
,-9.287,-0.45,-3.214,-9.387,-0.156,-2.709,10.71,-19.74,-0.28
,-9.215,-0.438,-3.099,-9.38,-0.258,-2.647,10.92,-19.18,0.21
,-9.251,-0.321,-2.709,-9.301,-0.744,-2.438,12.32,-18.06,-0.21
8782.0,-9.397,-1.103,-2.3,-9.385,-0.735,-2.01,7.35,-16.87,-2.8
,-9.478,-1.309,-2.505,-9.462,-0.902,-1.821,9.1,-16.38,-2.8
,-9.371,-1.263,-2.115,-9.545,-0.821,-1.802,11.34,-15.54,-2.17
,-9.643,-0.799,-2.228,-9.73,-0.369,-1.697,14.63,-14.21,-1.68
8858.0,-9.825,-0.187,-2.577,-9.198,-1.627,-2.393,12.04,-11.62,-3.57
,-9.392,-0.517,-2.795,-9.402,-1.414,-2.015,5.95,-12.32,-3.99
,-9.196,-1.017,-2.831,-9.753,-0.952,-1.543,2.87,-11.97,-3.5
,-9.124,-1.531,-2.615,-9.928,-0.759,-1.847,3.64,-11.2,-3.22
8934.0,-9.734,-0.749,-1.68,-9.107,-0.962,-2.958,13.02,-7.35,-1.61
,-9.718,-0.873,-2.759,-9.519,-0.584,-2.994,9.73,-8.05,-2.31
,-9.201,-1.098,-2.711,-9.658,-0.323,-2.931,9.17,-7.42,-2.03
,-9.196,-1.137,-3.266,-9.646,-0.404,-2.493,11.9,-7.21,-1.47
9010.0,-9.89,-0.591,-2.754,-9.344,-1.173,-3.553,11.62,-9.38,-3.71
,-9.734,-0.833,-2.359,-8.918,-1.759,-2.814,9.52,-10.08,-4.06
,-9.756,-0.675,-2.556,-9.093,-1.567,-2.146,9.03,-10.64,-4.55
,-9.665,-0.725,-3.18,-9.454,-1.261,-1.668,7.0,-11.69,-5.6
9085.0,-9.631,-1.12,-0.876,-9.445,-1.618,-0.622,12.74,-8.96,-3.29
,-9.978,-0.914,-0.799,-9.497,-1.579,-0.577,8.47,-8.05,-3.15
,-9.892,-1.18,-0.931,-9.555,-1.426,-0.512,2.8,-8.19,-3.71
,-9.521,-1.632,-0.718,-9.713,-1.242,-0.546,0.28,-6.86,-3.5
9161.0,-9.847,-1.11,-0.718,-9.658,-1.094,-2.213,5.18,4.34,-1.19
,-9.78,-1.151,-0.706,-9.555,-1.235,-2.649,4.06,5.88,-1.12
,-9.78,-1.034,-1.07,-9.433,-1.429,-2.974,3.64,7.14,-1.05
,-9.789,-1.067,-1.656,-9.328,-1.601,-3.163,2.24,7.77,-1.26
9236.0,-9.442,-1.496,-3.276,-9.526,-1.292,-2.874,-1.12,6.09,-0.63
,-9.495,-1.33,-3.367,-9.643,-1.292,-2.635,-0.7,5.11,-0.28
,-9.404,-1.271,-3.338,-9.689,-1.144,-2.493,-0.42,3.78,-0.28
,-9.421,-1.23,-3.151,-9.706,-1.029,-2.24,-0.14,2.8,-0.21
9312.0,-9.629,-0.991,-2.142,-9.667,-1.141,-1.577,-0.77,0.35,-0.35
,-9.462,-1.211,-1.878,-9.672,-1.034,-1.586,-1.89,0.63,-0.35
,-9.474,-1.359,-1.752,-9.701,-1.015,-1.783,-1.19,1.68,-0.14
,-9.536,-1.244,-1.56,-9.655,-1.041,-1.895,-0.42,2.52,0.07
9388.0,-9.708,-1.146,-2.259,-9.598,-1.29,-2.647,-5.6,3.78,-0.84
,-9.45,-1.177,-2.383,-9.555,-1.139,-2.675,-6.51,3.71,-0.91
,-9.371,-1.208,-2.45,-9.529,-1.163,-2.52,-7.21,3.92,-0.49
,-9.512,-1.247,-2.489,-9.586,-1.173,-2.477,-6.3,4.27,-0.35
9464.0,-9.598,-1.086,-2.484,-9.629,-1.297,-2.333,-2.17,3.29,-0.07
,-9.524,-1.168,-2.467,-9.605,-1.192,-2.357,-1.96,3.36,0.07
,-9.567,-1.307,-2.393,-9.531,-1.134,-2.414,-0.91,3.22,0.21
,-9.574,-1.347,-2.316,-9.588,-1.153,-2.46,0.21,3.43,0.49
9540.0,-9.533,-1.242,-2.536,-9.543,-1.23,-2.469,0.14,3.22,0.35
,-9.533,-1.216,-2.529,-9.584,-1.211,-2.412,0.56,3.08,0.42
,-9.483,-1.218,-2.469,-9.591,-1.132,-2.481,0.77,3.36,0.63
,-9.55,-1.275,-2.486,-9.567,-1.208,-2.532,1.33,3.36,0.7
9615.0,-9.545,-1.196,-2.615,-9.646,-1.031,-2.424,2.87,2.66,0.98
,-9.526,-1.201,-2.647,-9.701,-0.902,-2.391,2.87,2.24,1.05
,-9.507,-1.201,-2.58,-9.744,-0.9,-2.187,2.94,2.1,1.19
,-9.56,-1.132,-2.556,-9.686,-1.065,-2.163,3.29,1.96,1.19
9691.0,-9.538,-1.213,-2.187,-9.505,-1.232,-2.443,-2.87,1.54,-0.42
,-9.44,-1.345,-2.192,-9.526,-1.132,-2.491,-2.1,1.68,-0.21
,-9.462,-1.318,-2.359,-9.541,-1.149,-2.539,-0.77,2.1,0.0
,-9.495,-1.328,-2.41,-9.533,-1.189,-2.678,0.42,2.59,0.28
9767.0,-9.584,-1.342,-2.771,-9.526,-1.345,-2.235,0.35,1.61,0.14
,-9.383,-1.122,-2.726,-9.646,-1.354,-2.204,0.63,1.12,0.14
,-9.459,-0.979,-2.575,-9.615,-1.127,-2.194,0.21,1.12,0.35
,-9.383,-1.053,-2.386,-9.572,-1.041,-2.134,-0.49,1.05,0.35
9843.0,-9.481,-1.309,-1.917,-9.545,-1.187,-2.3,-3.57,1.4,-0.07
,-9.519,-1.096,-2.3,-9.552,-1.175,-2.395,-2.31,2.1,-0.14
,-9.481,-1.158,-2.187,-9.586,-1.206,-2.541,-1.61,2.73,0.07
,-9.55,-1.077,-2.254,-9.536,-1.115,-2.659,-1.47,2.87,-0.07
9918.0,-9.459,-1.206,-2.776,-9.533,-1.165,-2.836,1.82,3.5,0.77
,-9.452,-1.206,-2.862,-9.529,-1.098,-2.632,2.24,3.08,0.77
,-9.505,-1.263,-2.895,-9.533,-1.129,-2.517,3.08,2.8,0.98
,-9.507,-1.283,-2.91,-9.531,-1.237,-2.391,4.2,2.59,1.19
9994.0,-9.567,-1.208,-2.328,-9.538,-1.146,-2.324,5.95,1.89,1.54
,-9.622,-1.173,-2.3,-9.586,-1.134,-2.35,6.09,1.75,1.47
,-9.61,-1.129,-2.276,-9.557,-1.122,-2.434,5.95,2.17,1.4
,-9.545,-1.151,-2.268,-9.485,-1.108,-2.46,5.67,2.1,1.26
10069.0,-9.476,-1.062,-2.443,-9.655,-1.115,-2.498,3.43,2.17,0.98
,-9.576,-1.089,-2.45,-9.586,-1.019,-2.536,2.8,2.17,0.98
,-9.598,-1.11,-2.429,-9.536,-1.122,-2.489,2.45,2.31,0.91
,-9.689,-1.06,-2.45,-9.517,-1.22,-2.534,2.03,2.24,0.63
10145.0,-9.509,-1.165,-2.546,-9.56,-1.137,-2.295,-0.63,0.91,-0.21
,-9.507,-1.156,-2.41,-9.526,-1.237,-2.355,-0.07,1.33,-0.07
,-9.5,-1.225,-2.362,-9.493,-1.28,-2.448,0.49,1.75,0.07
,-9.533,-1.187,-2.28,-9.445,-1.273,-2.462,1.19,1.68,0.14
10221.0,-9.469,-1.251,-2.57,-9.509,-1.163,-2.589,2.66,2.45,0.63
,-9.483,-1.273,-2.659,-9.512,-1.158,-2.582,2.8,2.59,0.91
,-9.478,-1.206,-2.62,-9.557,-1.232,-2.558,2.87,2.45,0.91
,-9.505,-1.199,-2.536,-9.519,-1.278,-2.584,3.15,2.45,1.05
10297.0,-9.529,-1.211,-2.527,-9.497,-1.235,-2.532,5.11,2.31,1.68
,-9.538,-1.177,-2.575,-9.555,-1.235,-2.548,5.53,2.17,1.68
,-9.5,-1.165,-2.56,-9.564,-1.213,-2.484,5.46,1.96,1.68
,-9.5,-1.22,-2.615,-9.548,-1.216,-2.422,5.46,1.75,1.75
10372.0,-9.517,-1.237,-2.237,-9.579,-1.273,-2.369,3.71,1.68,1.89
,-9.485,-1.242,-2.245,-9.502,-1.23,-2.424,3.57,1.89,2.03
,-9.588,-1.201,-2.182,-9.543,-1.189,-2.501,3.64,1.96,2.1
,-9.541,-1.259,-2.245,-9.564,-1.113,-2.527,3.5,2.31,2.31
10448.0,-9.55,-1.101,-2.587,-9.526,-1.043,-2.888,-0.14,2.24,1.82
,-9.509,-1.149,-2.568,-9.428,-0.94,-2.876,-0.7,2.17,1.75
,-9.574,-1.137,-2.651,-9.416,-1.015,-2.821,-0.21,1.96,1.75
,-9.627,-1.072,-2.826,-9.435,-1.101,-2.773,-0.07,1.54,1.61
10524.0,-9.552,-1.132,-2.584,-9.555,-0.754,-2.355,-1.19,-0.14,1.33
,-9.548,-1.034,-2.522,-9.581,-0.83,-2.316,-0.56,-0.35,1.26
,-9.646,-0.972,-2.434,-9.481,-1.275,-2.23,-0.84,-0.56,0.84
,-9.636,-0.859,-2.393,-9.483,-1.321,-2.491,-1.82,-1.05,0.42
10600.0,-9.502,-1.383,-2.266,-9.557,-0.943,-2.369,-2.31,-0.21,0.56
,-9.555,-1.266,-2.515,-9.567,-1.007,-2.285,0.14,0.07,0.91
,-9.548,-1.098,-2.383,-9.596,-1.039,-2.166,1.19,0.42,1.12
,-9.579,-0.931,-2.417,-9.646,-1.012,-2.142,1.19,0.49,1.12
10676.0,-9.634,-0.914,-2.039,-9.555,-1.242,-1.955,-2.03,1.26,0.28
,-9.574,-0.826,-2.003,-9.586,-1.175,-2.079,-2.94,1.61,-0.07
,-9.574,-0.976,-1.902,-9.538,-1.12,-2.106,-5.04,2.03,-0.28
,-9.562,-1.127,-1.969,-9.438,-1.299,-2.022,-5.88,2.45,-0.63
10751.0,-9.407,-1.405,-1.905,-9.485,-1.0,-1.005,-4.69,5.88,0.56
,-9.414,-1.407,-1.553,-9.619,-0.907,-0.723,-1.82,7.49,1.47
,-9.627,-1.206,-1.642,-9.792,-0.974,-1.015,0.14,8.68,1.82
,-9.6,-1.134,-1.383,-9.72,-1.254,-1.649,0.0,10.15,2.1
10827.0,-9.22,-1.603,-1.539,-9.641,-0.565,-0.637,-12.32,17.15,2.24
,-9.201,-1.699,-1.431,-9.727,-0.246,-0.593,-10.15,19.11,3.57
,-9.225,-1.529,-1.153,-9.873,-0.357,-1.201,-6.65,21.14,4.2
,-9.38,-0.967,-0.639,-9.457,-0.416,-1.95,-3.43,23.73,4.48
10902.0,-8.995,-0.983,-2.24,-8.758,-1.283,-4.568,-20.65,29.26,3.29
,-8.847,-2.139,-2.283,-8.808,-0.024,-4.896,-19.88,31.71,4.76
,-8.784,-2.855,-2.785,-8.947,0.72,-4.422,-10.99,34.44,6.86
,-8.722,-2.414,-3.704,-9.232,0.782,-4.7,5.18,35.42,8.47
10978.0,-9.208,0.45,-4.085,-8.954,-3.221,-3.565,-6.51,23.17,1.54
,-9.639,0.122,-4.987,-9.572,-2.915,-2.759,-13.23,19.11,-1.12
,-9.117,-1.046,-5.281,-9.835,-1.558,-3.783,-25.2,16.38,-2.45
,-8.765,-2.436,-4.441,-9.306,-0.196,-4.41,-24.22,18.27,-0.07
11054.0,-9.213,0.357,-5.016,-9.122,-0.89,-3.862,8.05,12.53,4.27
,-9.04,0.112,-5.312,-9.325,-0.491,-3.917,-0.14,12.39,4.9
,-9.009,-0.668,-4.848,-9.124,-0.424,-3.896,-4.13,14.14,4.76
,-8.981,-1.237,-4.137,-8.966,-0.713,-3.448,-1.68,16.24,3.78
11130.0,-9.258,-1.271,-3.379,-8.782,-0.771,-3.939,-6.72,13.37,1.47
,-9.335,-1.704,-3.388,-8.72,-0.512,-3.838,-4.62,13.09,2.73
,-9.519,-1.546,-3.36,-8.89,-0.677,-3.652,1.26,12.88,3.85
,-9.351,-1.129,-3.927,-9.06,-0.811,-3.221,4.2,11.06,4.48
11205.0,-9.227,-0.881,-3.3,-8.875,-1.244,-3.836,5.25,13.02,2.66
,-9.153,-0.732,-3.352,-9.016,-1.39,-3.635,5.32,13.3,3.64
,-9.206,-0.694,-3.582,-9.045,-1.424,-3.463,4.97,12.6,4.48
,-9.0,-0.84,-3.891,-8.902,-1.046,-3.601,3.71,12.18,4.62
11281.0,-8.844,-0.632,-4.049,-9.002,-1.012,-4.116,11.97,16.45,5.46
,-8.856,-0.349,-4.137,-8.751,-1.352,-4.133,9.73,16.87,5.53
,-8.993,-0.318,-4.068,-8.603,-1.295,-4.279,7.21,17.43,5.46
,-9.009,-0.567,-4.066,-8.83,-0.948,-3.955,5.25,17.43,5.04
11356.0,-9.1,-0.392,-3.939,-8.997,0.196,-4.274,11.13,17.5,3.85
,-9.033,0.129,-3.886,-8.952,-0.292,-4.264,12.11,18.41,2.59
,-9.165,0.481,-3.927,-8.806,-0.548,-4.317,9.38,17.57,1.47
,-9.105,0.464,-4.293,-8.792,-0.445,-4.188,3.71,16.1,1.26
11432.0,-8.966,-0.459,-4.204,-8.768,-1.342,-4.133,2.8,17.29,-2.94
,-8.854,-0.548,-4.223,-8.799,-1.132,-4.451,2.31,16.03,-2.87
,-8.725,-0.931,-4.35,-8.751,-0.964,-4.614,0.35,16.1,-1.54
,-8.746,-1.29,-4.219,-8.677,-0.945,-4.688,-0.35,17.15,0.28
11508.0,-8.406,-0.96,-4.666,-8.672,-0.689,-4.69,-0.28,18.41,1.4
,-8.588,-1.189,-4.549,-8.739,-0.538,-4.692,-1.19,19.25,1.82
,-8.782,-1.254,-4.379,-8.801,-0.589,-4.599,-0.98,18.69,1.96
,-8.646,-0.95,-4.618,-8.672,-0.625,-4.625,1.05,18.41,2.1
11584.0,-8.641,-0.845,-4.594,-8.344,-1.287,-4.568,1.75,20.02,2.17
,-8.832,-1.046,-4.566,-8.5,-1.141,-4.793,2.17,19.88,2.59
,-8.835,-1.161,-4.563,-8.366,-0.988,-4.716,2.52,18.69,3.22
,-8.38,-1.206,-4.59,-8.569,-0.687,-4.566,3.22,19.32,3.78
11660.0,-8.629,-0.278,-4.563,-8.303,0.333,-5.212,9.31,20.44,3.15
,-8.603,0.108,-4.905,-8.224,-0.086,-5.231,8.4,19.81,2.66
,-8.502,0.419,-5.173,-8.519,-0.541,-5.02,6.3,18.69,2.31
,-8.428,0.498,-5.205,-8.624,-0.919,-4.862,3.01,18.06,1.33
11735.0,-8.497,-1.261,-5.071,-8.186,-0.993,-6.15,6.44,19.53,-4.27
,-8.504,-1.843,-4.965,-7.925,-0.792,-6.346,7.21,19.74,-3.71
,-8.323,-2.276,-5.154,-8.15,-1.101,-6.145,8.68,19.95,-2.24
,-8.174,-1.721,-5.803,-8.6,-1.168,-5.946,13.58,19.04,-1.68
11811.0,-8.696,-1.488,-5.925,-8.064,-1.866,-5.745,6.02,13.93,-0.14
,-8.504,-1.986,-5.48,-8.318,-1.184,-6.001,5.25,13.44,0.91
,-8.095,-2.261,-5.317,-8.332,0.074,-6.53,6.72,13.37,2.03
,-7.997,-2.225,-5.398,-8.686,0.39,-6.561,9.87,13.3,3.15
11887.0,-8.65,0.251,-6.506,-7.928,-1.187,-5.87,14.35,7.35,1.4
,-8.626,-0.127,-6.226,-8.045,-1.429,-5.698,10.43,6.09,1.12
,-8.595,-0.826,-6.061,-8.363,-1.469,-5.609,7.0,5.04,1.89
,-7.988,-1.196,-5.841,-8.418,-1.072,-5.7,6.86,4.06,2.45
11963.0,-7.971,-0.57,-5.925,-8.583,-0.577,-5.358,6.3,1.26,4.97
,-8.057,-0.191,-5.894,-8.303,-0.603,-5.365,4.76,1.33,4.69
,-8.229,-0.294,-5.698,-8.208,-0.639,-5.36,2.24,1.89,3.78
,-8.55,-0.431,-5.439,-8.311,-0.742,-5.229,0.49,2.24,2.45
12038.0,-8.334,-0.51,-5.499,-8.457,-0.562,-5.465,2.73,5.6,-0.63
,-8.272,-0.179,-5.623,-8.394,-0.639,-5.343,4.76,5.81,-0.98
,-8.363,-0.122,-5.8,-8.181,-0.84,-5.398,5.32,6.37,-1.47
,-8.449,-0.383,-5.59,-8.229,-0.991,-5.587,4.62,7.0,-1.96
12114.0,-8.311,-1.24,-5.631,-8.181,-1.634,-5.937,2.17,4.83,-3.78
,-8.117,-1.455,-5.631,-8.203,-1.541,-5.987,1.4,4.41,-2.94
,-7.858,-1.61,-5.867,-8.064,-1.531,-5.968,2.03,4.41,-2.31
,-7.995,-1.689,-5.985,-8.122,-1.524,-6.037,3.01,4.83,-1.89
12189.0,-8.2,-1.527,-6.102,-7.992,-0.964,-5.961,4.48,2.94,1.47
,-8.337,-1.35,-6.176,-7.942,-0.622,-5.963,5.46,2.52,1.82
,-8.344,-1.223,-6.135,-8.133,-0.605,-6.059,5.6,2.03,2.1
,-8.157,-1.153,-5.989,-8.337,-0.857,-5.906,4.97,1.61,2.17
12265.0,-8.277,-0.964,-5.798,-8.165,-0.919,-5.669,-0.28,-0.56,1.96
,-8.215,-0.943,-5.841,-8.153,-0.893,-5.645,-0.84,-0.77,2.1
,-8.169,-1.086,-5.628,-8.248,-0.905,-5.571,-1.75,-0.77,2.31
,-8.143,-1.012,-5.721,-8.5,-0.684,-5.528,-1.82,-0.7,1.89
12341.0,-8.469,-0.608,-5.556,-8.315,-0.548,-5.504,-2.87,-1.82,2.52
,-8.253,-0.584,-5.444,-8.287,-0.476,-5.353,-3.43,-1.68,2.03
,-8.191,-0.641,-5.353,-8.267,-0.282,-5.494,-4.2,-1.4,1.4
,-8.22,-0.739,-5.451,-8.229,-0.249,-5.585,-5.53,-1.26,1.12
12417.0,-8.212,-0.455,-5.461,-8.284,-0.069,-5.719,-6.51,-1.68,-0.63
,-8.323,-0.388,-5.41,-8.275,-0.383,-5.666,-5.6,-1.05,-1.33
,-8.48,-0.122,-5.609,-8.193,-0.799,-5.745,-4.55,-0.98,-2.45
,-8.454,0.055,-5.683,-8.114,-1.228,-5.712,-5.04,-0.91,-4.2
12492.0,-8.366,-1.742,-5.384,-8.246,-1.809,-5.774,-9.8,-1.05,-6.09
,-8.306,-1.843,-5.499,-8.224,-2.027,-5.815,-7.77,-2.1,-4.83
,-8.086,-1.627,-5.788,-8.251,-2.127,-5.8,-4.9,-2.73,-3.99
,-8.11,-1.752,-5.669,-8.217,-2.221,-5.853,-4.9,-3.29,-3.57
12568.0,-8.256,-2.379,-5.817,-7.952,-1.687,-5.817,-4.2,-2.87,4.2
,-8.507,-2.448,-5.549,-8.019,-1.134,-5.774,-3.01,-3.08,6.37
,-8.32,-2.328,-5.621,-8.241,-0.66,-5.798,-1.26,-4.27,8.05
,-8.186,-2.125,-5.743,-8.437,-0.244,-5.767,0.63,-5.46,9.66
12644.0,-8.344,-0.062,-5.712,-8.509,-0.328,-5.305,8.05,-8.26,10.22
,-8.375,-0.072,-5.561,-8.291,-0.218,-5.544,7.35,-7.7,9.73
,-8.605,-0.203,-5.236,-8.074,-0.407,-5.628,6.44,-8.33,8.75
,-8.662,-0.242,-5.382,-8.351,-0.45,-5.329,5.81,-10.36,7.63
12720.0,-8.547,-0.208,-5.118,-8.545,-0.708,-5.296,11.2,-13.23,4.27
,-8.598,0.026,-5.207,-8.258,-0.744,-5.37,10.85,-13.72,2.66
,-8.423,-0.105,-5.422,-8.119,-0.625,-5.36,7.63,-13.79,1.33
,-8.538,-0.428,-5.248,-8.258,-0.675,-5.205,2.8,-13.37,0.91
12796.0,-8.672,-0.699,-5.025,-8.244,-0.615,-5.334,2.66,-12.74,-0.7
,-8.794,-0.675,-5.114,-8.181,-0.675,-5.468,3.15,-13.09,0.07
,-8.799,-0.747,-5.202,-8.586,-0.469,-5.001,3.15,-14.14,1.26
,-8.555,-0.727,-5.382,-8.753,-0.503,-5.03,3.57,-16.1,1.96
12871.0,-8.543,-0.325,-5.08,-8.744,-1.24,-4.841,4.69,-17.15,-0.84
,-8.387,-0.577,-5.135,-9.079,-0.988,-4.681,1.68,-17.22,-0.49
,-8.327,-0.931,-5.138,-8.827,-0.739,-4.834,-0.42,-16.52,-0.21
,-8.368,-1.173,-5.047,-8.681,-0.622,-4.745,0.49,-15.05,0.21
12947.0,-8.591,-0.68,-4.7,-8.971,-0.526,-4.417,6.09,-15.89,1.4
,-8.428,-0.763,-4.716,-8.856,-0.235,-4.568,7.98,-14.07,1.75
,-8.385,-0.842,-4.642,-8.732,-0.132,-4.542,10.22,-12.95,1.82
,-8.827,-0.771,-4.326,-8.569,-0.297,-4.436,11.69,-12.95,1.68
13022.0,-8.631,-0.601,-4.307,-8.988,-0.761,-4.31,5.88,-13.65,1.05
,-8.665,-0.804,-4.171,-8.71,-0.826,-4.212,6.51,-12.95,0.56
,-8.229,-0.658,-4.326,-8.643,-0.725,-4.338,8.89,-12.67,1.12
,-9.103,-0.926,-4.377,-8.605,-0.83,-4.341,10.08,-12.81,0.7
13098.0,-8.624,-1.015,-4.264,-8.99,-0.907,-3.716,10.57,-13.09,1.47
,-8.851,-1.048,-4.099,-8.99,-0.83,-3.613,11.06,-13.02,1.61
,-9.107,-1.101,-3.967,-9.016,-0.852,-3.668,11.62,-13.37,1.4
,-9.11,-0.995,-3.905,-9.203,-0.828,-3.79,11.76,-13.37,1.61
13174.0,-9.129,-0.713,-4.202,-9.026,-0.766,-4.147,8.33,-15.82,2.24
,-8.847,-0.811,-4.257,-9.194,-0.603,-4.125,7.0,-15.89,2.03
,-8.667,-0.967,-4.075,-9.244,-0.57,-4.118,7.77,-14.98,2.73
,-8.777,-0.96,-3.979,-9.206,-0.66,-3.948,9.87,-15.05,2.8
13250.0,-9.127,-0.826,-3.654,-8.985,-0.883,-3.745,4.83,-16.66,0.77
,-9.028,-0.919,-3.386,-8.961,-0.969,-3.534,5.04,-16.03,0.21
,-9.165,-0.883,-3.74,-9.124,-0.986,-3.58,5.81,-16.52,-0.28
,-9.016,-0.761,-3.831,-9.158,-0.883,-3.288,5.04,-17.29,-0.21
13325.0,-9.074,-0.792,-3.199,-9.591,-0.402,-3.171,10.29,-15.61,-0.21
,-9.095,-0.694,-3.783,-9.557,-0.136,-2.996,9.8,-16.38,-0.63
,-8.969,-0.596,-3.329,-9.332,0.029,-2.989,10.15,-16.03,-0.21
,-9.292,-0.641,-3.262,-9.308,0.108,-3.556,11.2,-15.33,0.14
13401.0,-9.098,-0.309,-3.69,-8.978,-1.697,-2.599,-3.01,-17.43,-5.46
,-9.191,-0.859,-4.104,-9.464,-1.213,-3.072,-3.43,-17.36,-5.74
,-9.083,-1.278,-3.623,-9.373,-0.914,-2.826,-1.96,-16.66,-5.04
,-9.031,-1.723,-3.592,-9.457,-0.637,-2.895,3.36,-15.19,-3.78
13477.0,-9.438,-0.821,-2.697,-9.17,-1.24,-3.123,3.92,-16.24,-3.01
,-9.399,-0.857,-2.709,-9.055,-1.496,-2.577,2.8,-15.82,-3.43
,-9.323,-0.814,-2.771,-9.483,-1.374,-2.568,0.77,-15.47,-4.27
,-9.158,-1.048,-2.714,-9.493,-1.048,-2.493,-1.33,-14.91,-4.55
13553.0,-9.368,-0.828,-2.187,-9.356,-0.972,-3.29,9.66,-11.13,-2.03
,-9.495,-0.677,-2.18,-9.15,-1.364,-3.491,9.1,-10.64,-1.96
,-9.598,-0.593,-2.314,-9.052,-1.73,-3.372,7.35,-10.64,-2.52
,-9.572,-0.639,-3.07,-9.174,-1.838,-3.185,3.57,-11.55,-3.22
13628.0,-9.454,-1.718,-3.285,-9.509,-0.988,-2.673,14.77,-11.27,0.14
,-9.562,-1.548,-3.242,-9.392,-0.988,-2.556,18.13,-12.04,0.98
,-9.459,-1.357,-2.984,-9.332,-1.019,-2.247,20.58,-12.18,1.75
,-9.512,-1.117,-2.8,-9.421,-1.019,-2.065,22.68,-12.04,2.03
13704.0,-9.572,-1.168,-1.857,-9.61,-0.804,-1.591,19.25,-10.01,2.59
,-9.631,-1.232,-1.728,-9.55,-0.826,-1.543,17.64,-9.45,2.73
,-9.514,-1.168,-1.486,-9.603,-0.713,-1.594,15.96,-8.68,2.73
,-9.521,-0.952,-1.522,-9.713,-0.821,-1.694,14.21,-7.7,2.73
13780.0,-9.608,-1.036,-1.649,-9.648,-1.022,-1.433,-4.9,-3.57,-0.07
,-9.512,-1.098,-1.455,-9.799,-1.029,-1.417,-6.16,-2.59,0.0
,-9.507,-1.07,-1.563,-9.696,-1.031,-1.476,-6.23,-1.26,0.07
,-9.524,-1.062,-1.474,-9.562,-1.137,-1.524,-6.02,0.07,-0.14
13855.0,-9.61,-1.225,-1.721,-9.514,-1.318,-2.515,-1.75,6.02,0.56
,-9.548,-1.254,-1.955,-9.543,-1.177,-2.611,-0.63,6.79,0.7
,-9.478,-1.251,-2.127,-9.512,-1.022,-2.816,-0.35,7.21,0.7
,-9.519,-1.318,-2.312,-9.512,-1.0,-2.833,0.14,7.84,0.84
13931.0,-9.485,-0.974,-2.828,-9.454,-1.067,-2.639,-0.21,7.21,0.91
,-9.457,-0.983,-2.876,-9.493,-1.05,-2.486,-0.49,6.86,0.77
,-9.433,-1.017,-2.773,-9.495,-1.062,-2.462,-0.63,6.72,0.77
,-9.481,-1.003,-2.706,-9.533,-1.086,-2.481,-0.98,6.51,0.63
14007.0,-9.519,-1.015,-2.551,-9.45,-1.072,-2.615,-4.48,6.44,0.21
,-9.507,-1.046,-2.608,-9.572,-0.945,-2.699,-5.67,6.37,0.0
,-9.445,-1.117,-2.699,-9.488,-0.873,-2.582,-7.07,6.16,-0.14
,-9.416,-1.211,-2.675,-9.56,-0.804,-2.596,-7.98,6.3,-0.14
14083.0,-9.536,-0.826,-2.63,-9.325,-1.077,-3.233,-10.08,6.23,-1.26
,-9.569,-0.751,-2.785,-9.383,-0.938,-3.379,-10.08,6.02,-1.4
,-9.483,-0.893,-2.998,-9.414,-0.933,-3.376,-10.29,5.67,-1.54
,-9.452,-1.062,-3.104,-9.368,-1.005,-3.41,-9.94,5.39,-1.4
14158.0,-9.404,-1.17,-3.266,-9.418,-1.17,-3.106,-5.53,2.94,-1.19
,-9.409,-1.292,-3.247,-9.363,-1.117,-3.013,-3.85,2.38,-0.77
,-9.452,-1.237,-3.132,-9.45,-1.211,-2.862,-1.61,2.1,-0.42
,-9.395,-1.161,-3.154,-9.438,-1.144,-2.663,-0.07,1.75,-0.07
14234.0,-9.509,-1.101,-2.563,-9.497,-1.012,-2.592,2.73,1.33,0.56
,-9.474,-1.11,-2.508,-9.488,-0.955,-2.682,3.22,1.54,0.7
,-9.519,-1.082,-2.508,-9.478,-1.007,-2.682,3.15,1.68,0.77
,-9.519,-1.043,-2.513,-9.447,-1.015,-2.711,3.29,2.1,0.7
14310.0,-9.447,-1.027,-2.721,-9.454,-0.962,-2.857,2.03,2.66,0.63
,-9.507,-1.005,-2.678,-9.395,-1.077,-2.821,2.31,2.66,0.49
,-9.521,-0.95,-2.773,-9.43,-1.117,-2.824,2.59,2.8,0.35
,-9.533,-0.969,-2.8,-9.471,-1.11,-2.893,2.31,2.66,0.21
14386.0,-9.5,-1.106,-2.895,-9.454,-1.05,-2.915,2.31,2.52,0.07
,-9.454,-1.027,-2.869,-9.442,-1.027,-2.998,2.52,2.45,0.0
,-9.474,-1.017,-2.816,-9.462,-1.019,-2.953,2.45,2.45,0.07
,-9.474,-1.012,-2.862,-9.442,-1.101,-2.986,2.17,2.24,-0.07
14461.0,-9.416,-1.151,-3.02,-9.399,-1.048,-2.917,3.08,1.68,0.14
,-9.337,-1.094,-3.017,-9.411,-1.084,-2.898,3.71,1.54,0.35
,-9.452,-1.017,-3.005,-9.442,-1.091,-2.833,3.99,1.12,0.28
,-9.44,-1.005,-2.994,-9.466,-1.089,-2.723,3.71,1.05,0.28
14537.0,-9.521,-1.055,-2.685,-9.435,-1.161,-2.702,3.08,0.7,-0.14
,-9.483,-1.127,-2.627,-9.409,-1.096,-2.757,2.8,0.84,0.0
,-9.526,-1.132,-2.699,-9.45,-1.048,-2.781,2.87,0.91,-0.07
,-9.464,-1.173,-2.699,-9.459,-1.034,-2.788,3.01,0.98,0.0
14612.0,-9.481,-1.082,-2.723,-9.414,-1.129,-2.804,2.1,1.4,0.28
,-9.481,-1.091,-2.74,-9.447,-1.091,-2.828,1.89,1.47,0.14
,-9.488,-1.161,-2.747,-9.507,-1.125,-2.855,1.75,1.54,0.07
,-9.464,-1.113,-2.8,-9.485,-1.055,-2.84,1.68,1.75,0.14
14688.0,-9.452,-1.113,-2.79,-9.44,-1.084,-2.857,0.7,1.4,0.07
,-9.404,-1.108,-2.716,-9.392,-1.125,-2.915,0.7,1.61,0.07
,-9.471,-1.094,-2.776,-9.399,-1.115,-2.917,0.91,1.61,0.14
,-9.495,-1.077,-2.821,-9.397,-1.101,-2.96,1.05,1.61,0.14
14764.0,-9.378,-1.106,-2.869,-9.495,-1.077,-2.742,1.96,0.98,0.42
,-9.395,-1.137,-2.838,-9.433,-1.096,-2.68,1.75,0.98,0.42
,-9.416,-1.134,-2.783,-9.483,-1.113,-2.699,1.82,1.12,0.49
,-9.476,-1.079,-2.737,-9.447,-1.113,-2.682,1.89,1.05,0.49
14840.0,-9.466,-1.074,-2.656,-9.43,-1.101,-2.797,2.24,1.68,0.56
,-9.526,-1.05,-2.757,-9.421,-1.101,-2.848,1.96,1.61,0.42
,-9.512,-1.089,-2.742,-9.464,-0.993,-2.836,1.4,1.96,0.42
,-9.457,-1.091,-2.769,-9.474,-1.027,-2.946,1.26,1.89,0.49
14916.0,-9.414,-1.05,-2.857,-9.493,-1.079,-2.864,0.98,1.47,0.07
,-9.435,-1.062,-2.898,-9.435,-1.017,-2.852,1.12,1.4,0.14
,-9.44,-1.132,-2.936,-9.407,-1.048,-2.84,1.61,1.54,0.21
,-9.476,-1.098,-2.898,-9.428,-1.108,-2.857,2.24,1.54,0.35
14991.0,-9.447,-1.127,-2.886,-9.454,-1.137,-2.836,1.61,1.05,0.07
,-9.462,-1.144,-2.833,-9.447,-1.115,-2.852,1.82,0.98,0.14
,-9.495,-1.113,-2.845,-9.464,-1.115,-2.831,1.82,1.05,0.28
,-9.44,-1.18,-2.814,-9.418,-1.132,-2.824,2.03,0.91,0.35
15067.0,-9.385,-1.139,-2.84,-9.474,-1.082,-2.714,3.29,0.91,0.56
,-9.385,-1.11,-2.793,-9.462,-1.048,-2.668,3.64,1.12,0.7
,-9.404,-1.134,-2.714,-9.409,-1.103,-2.63,3.71,1.12,0.7
,-9.481,-1.034,-2.749,-9.445,-1.05,-2.565,3.43,1.19,0.7
15143.0,-9.507,-0.988,-2.522,-9.481,-1.141,-2.656,2.31,1.96,0.42
,-9.469,-0.991,-2.424,-9.383,-1.251,-2.678,1.89,2.38,0.49
,-9.462,-1.007,-2.407,-9.383,-1.232,-2.824,1.19,2.66,0.28
,-9.5,-1.094,-2.536,-9.402,-1.22,-2.895,0.56,2.87,0.28
15219.0,-9.44,-1.173,-3.08,-9.428,-1.086,-3.439,0.49,3.36,0.35
,-9.462,-1.003,-3.295,-9.409,-1.165,-3.51,0.98,2.87,0.35
,-9.442,-1.055,-3.235,-9.361,-1.156,-3.532,0.42,2.38,0.14
,-9.454,-1.022,-3.245,-9.356,-1.213,-3.47,-0.35,1.75,0.0
15294.0,-9.387,-1.153,-3.376,-9.447,-1.218,-2.749,3.71,-1.4,0.42
,-9.43,-1.101,-3.242,-9.502,-1.213,-2.675,4.55,-1.75,0.49
,-9.454,-1.125,-3.061,-9.49,-1.096,-2.651,5.11,-2.38,0.49
,-9.423,-1.158,-2.869,-9.497,-1.101,-2.575,5.53,-2.45,0.77
15370.0,-9.481,-1.062,-2.58,-9.462,-0.988,-2.508,7.07,-1.96,1.05
,-9.521,-0.991,-2.606,-9.481,-1.022,-2.52,6.58,-1.75,1.05
,-9.505,-1.022,-2.539,-9.519,-1.0,-2.508,5.6,-1.4,0.84
,-9.481,-1.058,-2.51,-9.49,-1.046,-2.517,5.25,-1.33,0.7
15445.0,-9.454,-1.106,-2.565,-9.442,-0.993,-2.577,3.29,-0.56,0.42
,-9.452,-1.129,-2.611,-9.5,-1.024,-2.508,3.01,-0.28,0.42
,-9.457,-1.12,-2.613,-9.524,-0.991,-2.505,2.94,-0.14,0.42
,-9.464,-1.029,-2.692,-9.548,-1.134,-2.513,2.94,-0.21,0.28
15521.0,-9.464,-1.184,-2.517,-9.438,-1.287,-2.635,0.42,0.28,-0.21
,-9.49,-1.201,-2.525,-9.404,-1.33,-2.63,1.05,0.63,-0.07
,-9.524,-1.201,-2.491,-9.414,-1.225,-2.556,1.4,0.84,0.07
,-9.483,-1.213,-2.606,-9.505,-1.153,-2.429,1.54,1.05,0.21
15597.0,-9.502,-1.07,-2.211,-9.442,-1.441,-2.06,0.28,1.89,0.56
,-9.512,-1.022,-2.211,-9.49,-1.393,-2.022,-1.54,2.17,0.28
,-9.497,-1.182,-2.118,-9.447,-1.278,-1.912,-3.64,2.52,0.07
,-9.481,-1.397,-1.991,-9.478,-1.134,-1.804,-4.69,3.01,0.14
15673.0,-9.519,-1.017,-1.804,-9.483,-1.213,-2.01,-7.0,8.26,0.98
,-9.447,-1.036,-1.811,-9.541,-1.165,-2.163,-8.68,9.17,1.19
,-9.454,-1.072,-1.857,-9.512,-1.039,-1.998,-9.94,10.5,1.47
,-9.44,-1.192,-1.95,-9.442,-0.921,-2.151,-10.5,11.97,1.61
15748.0,-9.328,-0.952,-2.151,-9.16,-1.144,-3.183,-18.27,14.56,2.03
,-9.476,-1.053,-2.615,-9.146,-1.134,-3.113,-20.09,14.7,1.96
,-9.229,-1.251,-2.513,-9.349,-1.103,-3.762,-19.39,15.33,2.73
,-9.366,-1.271,-2.776,-9.122,-0.972,-3.762,-16.24,15.82,3.57
15824.0,-9.213,-0.799,-3.58,-9.105,-0.826,-3.798,-3.5,14.77,5.81
,-9.268,-0.725,-3.699,-8.969,-1.213,-3.635,-3.99,13.72,5.04
,-9.39,-0.622,-3.486,-8.796,-1.541,-3.089,-4.13,13.51,4.62
,-9.476,-0.634,-4.08,-9.107,-1.644,-2.187,-7.56,11.55,3.71
15899.0,-9.622,-1.311,-1.89,-9.131,0.189,-3.678,1.82,14.84,5.88
,-9.77,-0.67,-2.091,-9.038,-0.476,-3.577,3.36,14.49,5.67
,-9.844,0.065,-2.606,-8.935,-1.0,-3.192,2.66,13.3,5.39
,-9.466,0.474,-3.585,-9.045,-1.062,-2.931,-4.83,10.85,4.55
15975.0,-9.15,-0.627,-2.941,-9.182,-1.24,-1.78,2.52,18.2,0.98
,-9.292,-0.117,-2.534,-9.564,-0.964,-3.185,2.73,18.48,0.91
,-9.442,-0.081,-2.235,-9.189,-0.656,-4.133,-0.28,19.25,1.26
,-9.21,-0.522,-2.422,-8.787,-1.149,-3.625,-5.39,19.6,0.63
16051.0,-8.595,-1.448,-3.733,-9.371,-0.692,-4.061,1.12,23.52,2.31
,-8.655,-1.603,-3.216,-9.057,-0.706,-4.549,6.37,26.39,3.43
,-9.337,-1.476,-3.443,-8.787,-0.924,-4.515,13.44,27.09,3.85
,-9.407,-1.07,-3.833,-8.815,-1.017,-4.31,16.1,25.34,3.22
16127.0,-8.655,-0.701,-4.381,-9.189,-0.249,-3.853,5.18,19.95,2.31
,-8.705,-0.242,-4.049,-9.459,-0.933,-4.013,6.79,21.56,0.7
,-8.99,0.134,-4.183,-9.45,-1.22,-4.14,5.67,22.12,-0.14
,-8.88,0.215,-4.195,-9.258,-1.412,-4.355,1.33,21.7,-0.42
16203.0,-8.899,-1.553,-4.283,-9.095,-2.486,-4.654,2.1,18.76,-0.28
,-8.607,-1.924,-3.747,-8.899,-1.46,-5.095,1.12,19.18,1.75
,-8.557,-2.513,-4.08,-8.315,-0.194,-5.547,-0.14,18.55,4.13
,-8.741,-2.881,-4.159,-8.083,0.56,-5.762,0.91,17.5,6.51
16278.0,-8.583,0.617,-5.166,-8.72,-0.761,-4.252,2.45,13.72,6.86
,-9.158,0.16,-4.817,-8.868,-0.854,-4.214,-1.4,14.49,5.95
,-9.385,-0.388,-4.436,-8.775,-0.845,-4.326,-2.52,13.79,5.67
,-8.914,-0.682,-4.101,-8.717,-0.668,-4.496,0.56,14.07,5.95
16354.0,-8.533,-0.474,-4.659,-8.887,0.196,-4.066,12.32,16.38,5.39
,-8.48,-0.182,-4.769,-9.414,-0.05,-3.757,12.39,17.01,4.27
,-8.516,0.153,-4.673,-9.373,-0.215,-3.932,11.76,17.92,3.22
,-8.679,0.369,-4.429,-8.902,-0.553,-4.302,9.38,18.69,2.17
16430.0,-8.595,-0.907,-4.355,-8.775,0.455,-5.193,-1.26,18.06,0.49
,-8.641,-0.893,-4.35,-8.756,0.246,-5.135,1.68,19.11,-0.07
,-8.727,-0.553,-4.81,-8.559,-0.4,-5.085,5.6,19.04,-1.19
,-8.713,0.093,-5.03,-8.411,-1.053,-5.023,7.42,18.34,-2.31
16506.0,-8.507,-1.249,-4.865,-8.564,-1.79,-4.604,-6.65,16.38,-4.76
,-8.552,-1.309,-4.958,-8.55,-1.697,-4.53,-4.62,16.03,-4.13
,-8.361,-1.448,-4.815,-8.495,-1.469,-4.666,-3.29,17.08,-3.29
,-8.382,-1.656,-4.688,-8.26,-1.383,-4.855,-1.96,18.41,-2.1
16581.0,-8.145,-1.314,-5.095,-8.631,0.096,-5.482,3.08,16.31,5.74
,-8.251,-0.986,-5.202,-8.674,-0.225,-5.607,5.11,16.73,5.67
,-8.26,-0.517,-5.267,-8.655,-0.95,-5.566,7.42,16.66,4.83
,-8.404,-0.105,-5.482,-8.461,-1.831,-5.549,8.68,17.29,3.5
16657.0,-8.32,-2.268,-5.776,-8.722,-1.251,-5.336,1.19,11.9,5.53
,-8.339,-2.127,-5.772,-8.44,-0.522,-5.544,7.14,12.04,5.53
,-8.325,-2.091,-5.678,-8.277,0.337,-5.714,10.15,12.46,5.39
,-8.404,-1.764,-5.532,-8.098,1.005,-6.107,12.74,13.16,5.46
16732.0,-8.122,1.041,-5.922,-8.507,-0.218,-5.298,7.84,8.33,3.5
,-8.344,0.785,-5.659,-8.433,-0.548,-5.303,5.04,8.82,1.54
,-8.564,0.433,-5.53,-8.189,-0.763,-5.444,4.76,8.68,-0.28
,-8.626,0.057,-5.327,-8.315,-0.713,-5.585,4.69,8.54,-1.68
16808.0,-8.363,-0.416,-5.896,-8.279,-1.07,-5.451,10.64,4.83,-4.76
,-8.289,-0.179,-6.033,-8.011,-1.536,-5.324,10.15,3.57,-5.11
,-8.299,-0.261,-5.865,-8.138,-1.718,-5.31,7.42,3.22,-6.02
,-8.478,-0.486,-5.561,-8.019,-1.596,-5.695,4.13,3.08,-7.0
16884.0,-8.208,-1.345,-5.956,-8.306,-1.756,-5.843,3.64,2.87,-1.75
,-8.473,-1.161,-5.87,-7.978,-1.974,-5.769,3.92,2.8,-0.56
,-8.387,-1.113,-5.741,-7.877,-2.273,-5.599,3.15,1.82,0.28
,-8.619,-1.378,-5.894,-8.267,-2.182,-5.547,2.03,1.05,1.05
16960.0,-8.275,-1.752,-5.542,-8.488,-0.902,-5.808,8.4,0.28,8.05
,-8.212,-1.24,-5.765,-8.473,-1.019,-5.542,9.66,-0.07,8.33
,-8.67,-0.792,-5.719,-8.421,-1.201,-5.403,9.17,-0.56,8.96
,-8.614,-0.737,-5.623,-8.2,-1.412,-5.391,7.21,-1.19,9.66
17036.0,-8.179,-1.376,-5.305,-8.55,0.024,-5.243,7.0,-1.61,11.2
,-8.358,-0.711,-5.453,-8.564,0.012,-5.217,8.89,-1.82,11.48
,-8.256,-0.304,-5.666,-8.387,0.043,-5.212,8.33,-1.89,10.78
,-8.452,-0.093,-5.439,-8.358,0.242,-5.408,6.93,-1.4,9.94
17111.0,-8.433,0.447,-5.583,-8.373,-0.096,-5.217,5.53,0.28,4.55
,-8.394,0.593,-5.542,-8.308,-0.258,-5.365,5.32,0.98,3.15
,-8.38,0.505,-5.492,-8.607,-0.223,-5.374,4.34,1.4,1.75
,-8.495,0.285,-5.25,-8.6,-0.534,-5.432,3.15,1.26,0.56
17187.0,-8.265,-0.95,-5.324,-8.466,-1.302,-5.762,-0.07,1.61,-4.27
,-8.114,-0.83,-5.516,-8.423,-1.448,-5.75,-0.35,1.61,-3.71
,-8.203,-0.78,-5.662,-8.323,-1.682,-5.69,-1.05,1.54,-3.29
,-8.246,-1.034,-5.729,-8.189,-2.015,-5.437,-2.31,1.26,-3.15
17263.0,-8.059,-1.905,-5.41,-8.564,-0.471,-5.678,-2.66,2.1,2.59
,-8.21,-1.333,-5.523,-8.48,-0.273,-5.626,0.42,2.31,3.36
,-8.411,-0.983,-5.544,-8.33,-0.179,-5.552,1.4,2.1,4.41
,-8.48,-0.821,-5.542,-8.509,-0.256,-5.525,1.61,1.54,5.18
17339.0,-8.672,-0.249,-5.47,-8.385,-0.653,-5.666,-4.2,-1.05,3.08
,-8.629,-0.354,-5.437,-8.205,-0.426,-5.805,-5.11,-1.75,3.01
,-8.423,-0.574,-5.516,-8.327,-0.378,-5.81,-5.74,-1.82,3.01
,-8.469,-0.838,-5.544,-8.564,-0.505,-5.487,-5.53,-2.45,3.01
17414.0,-8.634,-0.534,-5.473,-8.442,-0.56,-5.456,-8.33,-5.25,2.17
,-8.634,-0.67,-5.501,-8.246,-0.321,-5.391,-8.89,-5.25,2.59
,-8.653,-0.773,-5.408,-8.167,0.053,-5.52,-9.87,-5.25,2.38
,-8.638,-0.608,-5.52,-8.361,0.091,-5.396,-8.47,-5.95,1.89
17490.0,-8.519,-0.026,-5.25,-8.72,-0.775,-5.348,-9.94,-7.77,-0.7
,-8.559,-0.213,-5.118,-8.753,-0.653,-5.554,-10.5,-7.49,-1.05
,-8.538,-0.491,-5.31,-8.32,-0.522,-5.559,-11.13,-7.91,-0.84
,-8.457,-0.72,-5.58,-8.179,-0.421,-5.592,-9.17,-7.7,-0.49
17565.0,-8.43,-0.431,-5.384,-8.358,-0.699,-5.183,-0.14,-11.48,-4.06
,-8.469,-0.493,-5.109,-8.39,-0.893,-5.128,-0.35,-11.97,-3.5
,-8.614,-0.538,-4.958,-8.61,-0.845,-4.882,-0.7,-12.74,-2.66
,-8.471,-0.546,-5.13,-9.024,-0.689,-4.958,-0.98,-13.02,-2.73
17641.0,-8.76,-0.543,-5.008,-8.543,-0.804,-4.975,3.29,-12.95,-2.1
,-8.409,-0.591,-5.229,-8.792,-0.742,-4.968,2.03,-13.93,-1.75
,-8.327,-0.548,-5.142,-8.768,-0.625,-5.092,1.75,-14.21,-1.47
,-8.411,-0.641,-5.056,-8.701,-0.56,-5.027,1.33,-14.49,-1.54
17717.0,-8.856,-0.605,-4.798,-8.717,-0.522,-4.783,5.6,-11.69,-1.26
,-8.871,-0.416,-4.903,-8.61,-0.919,-4.872,3.71,-14.0,-0.7
,-8.33,-0.357,-4.965,-8.715,-0.632,-4.707,3.15,-14.91,-0.49
,-8.428,-0.404,-4.956,-8.629,-0.725,-4.824,1.96,-15.12,-1.12
17793.0,-8.562,-0.701,-4.965,-8.859,-0.809,-4.302,-2.52,-13.51,-0.63
,-8.418,-0.773,-4.908,-8.885,-0.926,-4.214,-3.08,-12.04,-0.21
,-8.435,-0.792,-4.688,-8.851,-1.024,-4.113,-3.15,-10.92,-0.14
,-8.674,-0.804,-4.496,-8.672,-1.18,-4.027,-2.87,-10.64,-0.07
17868.0,-8.605,-1.299,-4.044,-8.873,-1.005,-4.197,-0.49,-12.46,3.85
,-8.818,-1.4,-4.106,-8.823,-0.828,-4.257,2.73,-12.95,4.97
,-8.961,-1.251,-4.078,-8.808,-0.603,-4.41,5.95,-13.44,6.58
,-8.959,-1.094,-4.183,-8.796,-0.194,-4.369,8.68,-14.07,7.77
17944.0,-8.885,-0.053,-4.166,-8.99,-0.124,-3.781,16.59,-15.26,8.19
,-8.995,-0.141,-4.025,-9.024,0.208,-3.896,15.47,-14.84,7.98
,-8.918,-0.251,-3.874,-9.043,0.407,-4.013,16.17,-14.0,7.42
,-9.079,-0.335,-3.613,-9.093,0.4,-3.953,17.08,-13.51,6.79
18020.0,-9.167,0.244,-3.865,-8.957,-0.297,-3.606,10.71,-15.19,3.08
,-9.009,0.045,-3.716,-9.052,-0.404,-3.53,8.96,-14.42,1.68
,-8.949,-0.117,-3.599,-9.139,-0.553,-3.558,8.47,-13.93,0.49
,-8.832,-0.218,-3.515,-9.232,-0.474,-3.486,8.05,-13.86,-0.14
18096.0,-9.38,-0.392,-3.563,-8.988,-0.51,-3.539,8.68,-13.65,-0.49
,-9.337,-0.258,-3.393,-9.086,-0.596,-3.513,7.21,-13.09,-0.91
,-9.091,-0.29,-3.556,-9.215,-0.603,-3.589,5.46,-12.81,-0.98
,-9.055,-0.337,-3.477,-9.162,-0.426,-3.9,3.71,-12.46,-1.26
18172.0,-9.105,-0.335,-3.817,-9.234,-0.778,-3.24,3.78,-13.51,-2.17
,-9.124,-0.354,-3.869,-9.438,-0.605,-3.075,3.5,-13.51,-2.24
,-9.148,-0.648,-3.881,-9.316,-0.366,-3.178,3.22,-13.44,-2.52
,-9.091,-0.785,-3.565,-9.174,-0.349,-2.943,5.11,-12.95,-2.24
18247.0,-9.198,-0.558,-2.761,-9.416,-0.053,-3.034,4.62,-11.06,-2.45
,-9.268,-0.893,-2.498,-9.34,-0.129,-3.283,4.9,-9.94,-2.17
,-9.514,-0.897,-2.424,-9.191,-0.44,-3.096,7.42,-9.24,-2.17
,-9.56,-0.428,-2.979,-9.136,-0.761,-3.262,8.61,-9.73,-2.59
18323.0,-9.15,-0.744,-2.922,-9.407,-0.134,-3.927,4.76,-7.98,-4.06
,-9.457,-0.433,-3.192,-9.21,-0.495,-3.891,6.16,-7.98,-4.06
,-9.538,-0.282,-3.132,-9.057,-1.012,-3.824,4.48,-8.54,-4.48
,-9.564,-0.168,-3.594,-8.983,-1.414,-3.4,3.01,-9.38,-5.25
18398.0,-9.206,-1.462,-2.989,-9.43,-0.66,-3.829,4.97,-9.94,-4.97
,-9.529,-1.091,-2.757,-9.055,-1.019,-3.522,8.61,-10.29,-4.2
,-9.703,-0.524,-3.393,-9.072,-1.086,-3.094,8.89,-11.27,-4.13
,-9.495,-0.476,-3.204,-9.323,-0.974,-2.826,6.23,-11.69,-3.85
18474.0,-9.421,-0.725,-2.761,-9.497,-0.677,-1.771,14.35,-10.99,-3.15
,-9.304,-0.5,-2.4,-9.502,-0.577,-1.56,14.63,-10.92,-2.8
,-9.457,-0.407,-2.347,-9.5,-0.66,-1.383,13.16,-10.78,-2.87
,-9.454,-0.61,-2.046,-9.471,-0.976,-1.204,12.04,-10.01,-2.87
18550.0,-9.483,-1.108,-0.957,-9.457,-0.924,-2.101,13.44,-1.61,-1.68
,-9.653,-1.132,-1.261,-9.588,-0.751,-2.357,13.37,-0.14,-1.54
,-9.502,-1.163,-1.457,-9.596,-0.833,-2.312,12.04,1.4,-1.61
,-9.464,-1.062,-1.788,-9.529,-0.833,-2.587,10.85,2.73,-1.4
18626.0,-9.426,-0.981,-2.773,-9.232,-0.811,-3.599,1.33,6.44,-2.59
,-9.356,-0.893,-3.07,-9.356,-1.017,-3.52,2.24,6.3,-2.45
,-9.399,-0.78,-3.448,-9.452,-0.94,-3.312,2.87,5.81,-2.45
,-9.251,-0.785,-3.635,-9.612,-0.79,-3.4,2.8,5.18,-2.52
18701.0,-9.545,-0.775,-3.338,-9.435,-1.082,-3.257,1.54,1.89,-3.15
,-9.402,-0.909,-3.34,-9.418,-1.012,-3.159,-0.28,1.12,-3.36
,-9.366,-1.084,-3.281,-9.342,-1.036,-2.867,-0.63,0.56,-3.5
,-9.366,-1.156,-3.235,-9.399,-1.086,-2.649,0.77,0.21,-3.22
18777.0,-9.445,-1.11,-2.505,-9.356,-1.17,-2.254,3.29,-0.21,-2.38
,-9.459,-1.11,-2.302,-9.371,-1.273,-2.249,3.36,0.14,-2.1
,-9.552,-1.101,-2.362,-9.356,-1.261,-2.257,2.52,0.28,-2.03
,-9.409,-1.242,-2.235,-9.414,-1.184,-2.283,2.1,0.91,-1.96
18853.0,-9.502,-1.096,-2.326,-9.392,-1.108,-3.295,2.03,5.25,-0.56
,-9.641,-0.931,-2.74,-9.284,-1.168,-3.309,1.33,5.6,-0.63
,-9.55,-0.814,-2.934,-9.325,-1.113,-3.259,0.07,5.39,-0.84
,-9.488,-0.926,-3.118,-9.409,-0.948,-3.228,-1.4,5.18,-1.05
18929.0,-9.442,-0.936,-3.13,-9.284,-1.077,-3.13,3.43,4.34,-0.14
,-9.387,-0.983,-3.135,-9.332,-1.079,-3.046,3.22,3.92,-0.21
,-9.375,-1.017,-3.235,-9.433,-1.031,-2.994,2.66,3.5,-0.42
,-9.349,-1.01,-3.262,-9.435,-0.993,-2.883,2.59,3.15,-0.35
19004.0,-9.471,-0.847,-2.96,-9.371,-1.22,-3.049,1.61,2.45,-0.7
,-9.428,-0.943,-2.979,-9.356,-1.208,-3.003,0.63,2.1,-0.84
,-9.354,-0.993,-3.001,-9.366,-1.149,-2.876,0.14,2.03,-0.91
,-9.359,-1.129,-3.056,-9.39,-1.137,-2.912,0.14,2.17,-0.84
19080.0,-9.466,-1.125,-2.927,-9.375,-1.122,-3.058,2.59,2.31,-0.07
,-9.442,-1.153,-2.9,-9.404,-0.993,-3.087,2.31,2.31,0.14
,-9.435,-1.235,-2.946,-9.342,-1.017,-3.125,2.73,2.38,0.28
,-9.39,-1.22,-2.938,-9.347,-1.127,-3.111,3.57,2.45,0.42
19155.0,-9.284,-1.146,-3.13,-9.383,-1.101,-3.209,1.89,1.68,0.63
,-9.423,-1.173,-3.113,-9.33,-1.117,-3.195,2.03,1.54,0.7
,-9.507,-1.12,-3.128,-9.373,-1.146,-3.226,2.24,1.19,0.84
,-9.44,-1.117,-3.197,-9.38,-1.06,-3.163,2.31,0.91,0.91
19231.0,-9.411,-0.964,-3.171,-9.395,-1.077,-2.927,3.85,0.14,1.26
,-9.409,-0.993,-3.08,-9.38,-1.015,-2.833,3.36,0.07,1.19
,-9.39,-1.0,-3.032,-9.402,-0.952,-2.788,2.94,-0.14,1.26
,-9.39,-0.991,-2.998,-9.402,-0.919,-2.785,2.59,-0.35,1.19
19307.0,-9.464,-0.909,-2.79,-9.361,-1.046,-2.936,1.82,0.35,0.7
,-9.471,-1.007,-2.9,-9.459,-0.964,-3.068,1.19,0.56,0.56
,-9.39,-1.086,-2.898,-9.452,-0.955,-2.972,1.26,0.42,0.56
,-9.373,-1.132,-2.989,-9.378,-0.972,-3.037,2.24,0.77,0.7
19383.0,-9.402,-1.062,-2.984,-9.368,-1.101,-2.883,2.94,0.28,0.56
,-9.366,-1.084,-3.039,-9.428,-1.113,-2.912,3.29,0.28,0.56
,-9.399,-1.058,-3.029,-9.411,-1.062,-2.855,3.57,0.49,0.63
,-9.411,-1.106,-2.974,-9.385,-1.077,-2.848,3.57,0.35,0.63
19459.0,-9.435,-1.11,-2.869,-9.414,-1.077,-2.936,3.43,0.77,0.84
,-9.478,-1.137,-2.915,-9.418,-1.039,-2.907,3.5,0.84,0.91
,-9.442,-1.158,-2.936,-9.44,-0.991,-2.86,3.71,0.98,0.98
,-9.438,-1.082,-2.903,-9.447,-1.019,-2.84,4.34,0.91,1.12
19534.0,-9.493,-1.019,-2.879,-9.402,-0.998,-2.814,2.8,0.91,0.7
,-9.452,-1.0,-2.907,-9.476,-0.957,-2.895,2.94,1.12,0.7
,-9.469,-1.003,-2.903,-9.509,-0.943,-2.929,2.8,1.33,0.7
,-9.342,-1.012,-2.814,-9.454,-0.931,-2.946,2.52,1.26,0.56
19610.0,-9.347,-1.055,-2.958,-9.474,-1.079,-3.027,0.98,1.26,-0.14
,-9.395,-1.108,-3.082,-9.418,-1.074,-3.039,1.19,1.33,-0.07
,-9.392,-1.084,-3.041,-9.383,-1.125,-3.027,1.68,1.26,-0.07
,-9.407,-1.096,-3.082,-9.371,-1.077,-3.01,2.17,1.12,0.0
19686.0,-9.397,-1.108,-2.95,-9.416,-1.06,-2.845,3.43,0.77,0.21
,-9.428,-1.122,-2.895,-9.447,-1.055,-2.809,3.78,0.77,0.35
,-9.414,-1.129,-2.852,-9.423,-1.043,-2.838,3.99,0.77,0.42
,-9.411,-1.098,-2.828,-9.428,-1.048,-2.864,4.27,1.05,0.56
19762.0,-9.45,-1.07,-2.922,-9.43,-1.031,-2.828,3.22,1.33,0.28
,-9.387,-1.11,-2.888,-9.466,-0.969,-2.85,3.22,1.4,0.42
,-9.387,-1.103,-2.838,-9.495,-1.053,-2.881,3.57,1.54,0.42
,-9.387,-1.141,-2.855,-9.397,-1.098,-2.886,3.57,1.68,0.49
19837.0,-9.397,-1.098,-2.927,-9.529,-1.015,-2.833,2.03,1.61,0.28
,-9.399,-1.122,-2.91,-9.45,-1.079,-2.915,2.38,1.68,0.28
,-9.43,-1.072,-2.864,-9.404,-1.173,-2.929,2.59,1.75,0.35
,-9.421,-1.065,-2.804,-9.402,-1.18,-2.967,2.66,1.82,0.35
19913.0,-9.411,-1.151,-3.053,-9.411,-1.115,-2.879,2.03,1.54,0.35
,-9.359,-1.108,-3.092,-9.395,-1.098,-2.766,2.38,1.68,0.49
,-9.409,-1.096,-3.001,-9.452,-1.122,-2.702,2.24,1.47,0.49
,-9.399,-1.062,-2.912,-9.49,-1.089,-2.697,2.31,1.47,0.63
19988.0,-9.442,-1.122,-2.795,-9.349,-1.122,-3.257,2.52,1.89,0.77
,-9.469,-1.161,-2.891,-9.356,-1.151,-3.302,2.38,1.96,0.84
,-9.383,-1.151,-3.137,-9.368,-1.141,-3.221,2.17,1.75,0.7
,-9.299,-1.12,-3.125,-9.399,-1.077,-3.262,2.03,1.54,0.77
20064.0,-9.409,-1.096,-3.187,-9.428,-1.05,-2.85,2.66,0.0,1.05
,-9.407,-1.072,-3.089,-9.466,-1.062,-2.8,2.66,-0.21,1.05
,-9.416,-1.089,-3.084,-9.459,-1.012,-2.704,2.94,-0.35,0.98
,-9.418,-1.098,-2.972,-9.459,-1.017,-2.735,3.36,-0.28,1.05
20140.0,-9.442,-1.041,-2.73,-9.363,-1.156,-2.922,2.38,0.0,0.7
,-9.478,-1.065,-2.757,-9.395,-1.074,-2.958,2.24,0.07,0.63
,-9.435,-1.086,-2.843,-9.387,-1.079,-2.979,2.17,0.28,0.77
,-9.459,-1.168,-2.874,-9.392,-1.015,-2.943,2.03,0.21,0.63
20216.0,-9.433,-0.993,-2.895,-9.387,-1.232,-2.728,3.15,0.07,0.7
,-9.447,-1.036,-2.8,-9.452,-1.103,-2.749,3.15,0.35,0.63
,-9.423,-1.036,-2.8,-9.457,-1.007,-2.836,3.08,0.28,0.56
,-9.397,-1.173,-2.764,-9.49,-0.972,-2.867,3.15,0.56,0.56
20292.0,-9.44,-0.995,-2.843,-9.421,-0.897,-2.903,2.94,0.91,0.63
,-9.426,-1.015,-2.934,-9.438,-0.979,-2.931,2.8,0.7,0.42
,-9.414,-1.077,-2.915,-9.397,-1.125,-2.833,3.15,0.63,0.49
,-9.452,-0.995,-2.967,-9.45,-1.173,-2.546,3.99,0.42,0.63
20367.0,-9.538,-1.22,-2.702,-9.49,-1.07,-2.692,2.24,0.28,-0.07
,-9.44,-1.254,-2.58,-9.454,-1.022,-2.68,2.1,0.42,-0.07
,-9.44,-1.187,-2.627,-9.476,-0.998,-2.769,2.1,0.84,0.0
,-9.464,-1.084,-2.56,-9.497,-0.972,-2.79,2.17,1.05,-0.07
20443.0,-9.438,-0.943,-2.848,-9.426,-1.144,-2.757,2.66,1.75,-0.35
,-9.402,-0.95,-2.864,-9.44,-1.06,-2.639,2.03,1.75,-0.56
,-9.466,-1.034,-2.833,-9.45,-0.924,-2.544,1.68,1.89,-0.7
,-9.462,-1.086,-2.874,-9.514,-0.995,-2.644,1.4,1.75,-0.91
20519.0,-9.407,-1.108,-2.685,-9.521,-1.151,-2.137,-1.05,2.45,-1.05
,-9.387,-1.165,-2.551,-9.557,-0.998,-2.18,-1.26,2.73,-0.91
,-9.402,-1.218,-2.443,-9.497,-1.01,-2.113,-0.7,3.43,-0.77
,-9.416,-1.242,-2.194,-9.5,-1.06,-2.319,0.21,4.55,-0.63
20595.0,-9.433,-1.321,-2.424,-9.342,-1.374,-3.015,-2.24,7.98,0.14
,-9.265,-1.464,-2.252,-9.241,-1.512,-2.991,-0.28,9.03,0.91
,-9.478,-1.383,-2.778,-9.263,-1.496,-2.917,1.75,9.45,1.19
,-9.411,-1.35,-3.037,-9.194,-1.419,-2.52,2.03,9.31,1.61
20670.0,-9.507,-1.098,-2.852,-9.289,-1.256,-3.156,4.97,10.15,2.94
,-9.416,-0.912,-3.034,-9.282,-1.211,-3.113,0.42,9.52,2.52
,-9.332,-0.983,-3.017,-9.299,-1.168,-2.821,-2.03,9.38,2.66
,-9.337,-1.072,-3.302,-9.438,-1.182,-2.496,-4.41,8.68,2.45
20746.0,-9.435,-1.211,-2.422,-9.332,-0.617,-2.709,-6.93,9.24,2.24
,-9.457,-1.034,-2.106,-9.462,-0.498,-3.807,-7.98,9.73,2.59
,-9.428,-0.852,-2.175,-9.22,-0.395,-4.456,-9.87,9.52,2.45
,-9.284,-0.701,-2.266,-9.028,-0.584,-4.949,-12.18,9.73,1.89
20821.0,-8.871,-0.96,-4.745,-9.816,-0.601,-3.266,-22.54,5.32,-1.26
,-8.911,-1.357,-4.417,-9.514,-0.268,-3.362,-19.81,5.53,-0.91
,-9.222,-1.486,-3.994,-9.363,-0.816,-3.125,-14.56,5.11,-0.77
,-9.478,-1.242,-3.218,-9.148,-1.639,-3.558,-9.73,4.06,-0.49
20897.0,-8.914,-2.668,-3.171,-9.452,-1.084,-2.615,-21.28,0.63,1.54
,-8.949,-2.953,-2.855,-9.538,-0.392,-2.051,-11.41,4.06,4.13
,-8.959,-2.568,-2.845,-9.806,0.419,-2.448,-1.96,5.95,5.6
,-9.031,-1.922,-2.508,-9.457,0.907,-3.029,4.27,7.42,6.93
20973.0,-9.294,0.912,-3.352,-9.22,-1.85,-3.039,-4.9,5.81,4.48
,-8.969,0.11,-3.565,-9.631,-1.421,-2.879,-11.34,6.37,3.29
,-8.978,-0.833,-3.312,-9.66,-0.854,-2.551,-12.18,8.47,2.17
,-8.923,-1.644,-3.63,-9.61,-0.103,-2.391,-6.3,10.29,1.75
21049.0,-9.416,0.246,-3.013,-8.784,-1.716,-2.527,14.35,14.0,2.03
,-9.174,0.079,-2.862,-8.567,-2.639,-2.958,6.44,14.7,0.63
,-9.15,-0.342,-2.833,-8.72,-3.111,-3.02,-0.07,16.24,-0.21
,-8.748,-0.871,-2.292,-9.064,-3.022,-3.19,-4.41,19.6,-0.49
21124.0,-9.16,-2.589,-2.785,-9.098,0.081,-3.498,15.47,25.62,11.41
,-9.576,-1.893,-2.498,-8.768,0.091,-3.666,21.98,26.53,11.48
,-9.445,-0.964,-2.838,-8.655,0.045,-3.659,24.43,25.69,10.43
,-9.131,-0.263,-3.3,-8.708,-0.081,-3.613,21.91,25.55,9.94
21200.0,-8.949,-0.12,-3.759,-9.06,-0.129,-4.125,7.14,30.24,5.53
,-8.887,-0.132,-4.147,-9.1,-0.464,-4.003,8.89,29.12,5.25
,-8.909,-0.062,-4.42,-9.158,-0.648,-4.257,9.59,28.28,5.6
,-8.988,-0.077,-4.264,-8.837,-0.727,-4.652,9.52,28.63,5.32
21275.0,-8.971,-0.641,-4.578,-8.634,-0.177,-5.561,6.44,23.87,2.52
,-8.964,-0.471,-4.602,-8.614,-0.235,-5.631,3.99,23.03,2.03
,-8.933,-0.438,-4.736,-8.428,-0.443,-5.504,1.47,22.61,0.84
,-8.82,-0.194,-5.054,-8.533,-0.677,-5.248,0.63,22.26,-0.42
21351.0,-8.813,-0.885,-4.901,-8.667,-0.239,-4.819,-1.54,18.34,-1.05
,-8.959,-0.952,-4.606,-9.045,-0.122,-4.886,-0.77,16.45,-1.61
,-8.583,-0.766,-4.642,-8.777,-0.129,-4.929,0.42,15.75,-1.75
,-8.368,-0.45,-4.865,-8.385,-0.33,-4.75,0.91,16.45,-1.75
21427.0,-8.308,-0.828,-4.633,-9.069,-1.201,-4.286,-11.83,16.94,-2.94
,-8.497,-1.211,-4.489,-9.052,-0.601,-4.609,-10.57,18.06,-2.66
,-8.6,-1.665,-4.276,-8.748,-0.11,-5.109,-6.93,19.39,-2.52
,-8.933,-1.527,-4.118,-8.244,0.098,-5.537,-2.38,19.81,-2.17
21503.0,-8.011,-0.014,-5.489,-8.605,-1.606,-5.001,-2.8,15.47,-2.03
,-8.248,-0.361,-5.281,-8.373,-2.07,-5.157,-4.97,16.31,-3.43
,-8.519,-0.718,-5.044,-8.464,-2.213,-5.284,-5.6,16.31,-4.76
,-8.588,-1.146,-5.042,-8.516,-2.056,-5.485,-5.18,16.24,-4.83
21579.0,-8.363,-1.881,-5.501,-8.574,-0.596,-5.279,6.09,14.0,0.56
,-8.323,-1.668,-5.528,-8.349,-0.208,-5.619,7.49,14.7,1.33
,-8.387,-1.342,-5.501,-8.5,-0.041,-5.858,8.68,15.33,2.52
,-8.54,-1.007,-5.276,-8.619,-0.031,-5.834,9.31,15.05,3.29
21654.0,-8.658,-0.007,-5.745,-8.052,-2.405,-5.729,4.76,10.92,-1.54
,-8.466,-0.196,-5.709,-7.973,-2.702,-5.564,4.97,9.87,-3.08
,-8.433,-0.842,-5.798,-8.093,-2.737,-5.441,4.06,8.54,-3.71
,-8.105,-1.694,-5.827,-8.442,-2.613,-5.221,3.22,7.77,-3.01
21730.0,-8.397,-1.773,-5.446,-8.062,-0.62,-5.54,18.06,6.58,6.58
,-8.313,-1.297,-5.592,-8.248,-0.404,-5.587,16.87,6.23,8.33
,-8.311,-0.981,-5.54,-8.868,-0.103,-5.611,13.93,6.23,9.24
,-8.33,-0.725,-5.523,-8.447,0.227,-5.788,11.48,6.44,9.45
21806.0,-8.507,0.479,-5.805,-8.71,0.134,-6.018,12.32,4.62,5.81
,-8.485,0.838,-5.939,-8.641,-0.438,-5.879,12.6,4.41,3.71
,-8.524,1.031,-6.152,-8.404,-0.818,-5.834,11.06,4.27,1.4
,-8.693,0.771,-6.167,-8.093,-1.173,-5.65,8.47,3.99,-0.84
21882.0,-8.052,-1.457,-5.664,-8.205,-1.316,-6.028,3.85,2.03,-1.26
,-8.22,-1.56,-5.642,-8.32,-1.204,-5.824,4.27,1.61,-0.7
,-8.373,-1.345,-5.793,-8.095,-1.366,-6.006,4.27,0.63,0.21
,-8.378,-1.304,-5.903,-8.198,-1.376,-6.001,2.66,-0.14,1.12
21957.0,-8.48,-1.421,-6.004,-8.136,-0.933,-5.678,-3.85,-2.66,4.27
,-8.586,-1.56,-5.839,-8.327,-0.787,-5.733,-3.01,-3.57,4.55
,-8.38,-1.517,-5.75,-8.418,-0.847,-5.808,-1.05,-4.13,4.62
,-8.11,-1.316,-5.698,-8.543,-0.972,-5.705,1.19,-4.69,4.27
22033.0,-8.476,-1.005,-5.465,-8.373,-0.354,-5.262,-0.14,-4.76,4.27
,-8.306,-1.017,-5.319,-8.5,-0.402,-5.341,0.49,-4.41,4.55
,-8.212,-0.902,-5.19,-8.562,-0.682,-5.126,1.33,-3.71,4.27
,-8.294,-0.663,-4.963,-8.43,-0.677,-5.071,0.63,-4.27,4.13
22108.0,-8.411,-0.553,-5.229,-8.607,0.179,-5.051,-0.42,-3.01,2.87
,-8.531,-0.187,-5.035,-8.646,-0.153,-4.934,0.84,-2.8,2.24
,-8.614,0.136,-5.197,-8.674,-0.33,-5.008,2.66,-3.08,1.61
,-8.576,0.321,-5.13,-8.677,-0.364,-5.085,2.59,-2.94,0.7
22184.0,-8.655,-0.44,-5.183,-8.492,-0.696,-5.674,-3.08,-3.78,-3.15
,-8.622,-0.486,-5.13,-8.564,-1.003,-5.686,-3.43,-4.34,-3.36
,-8.519,-0.51,-5.214,-8.579,-1.369,-5.284,-2.24,-4.27,-2.87
,-8.327,-0.488,-5.508,-8.591,-1.366,-5.264,-1.26,-4.06,-2.94
22260.0,-8.488,-1.457,-5.114,-8.526,-2.065,-5.449,1.89,-6.09,-2.8
,-8.382,-1.732,-5.209,-8.416,-1.962,-5.516,0.91,-6.3,-2.45
,-8.356,-1.919,-5.377,-8.638,-1.61,-5.26,0.14,-6.37,-1.19
,-8.473,-2.046,-5.439,-8.598,-1.084,-5.382,0.35,-6.09,0.91
22336.0,-8.236,-0.83,-5.334,-8.679,-0.735,-5.193,0.28,-9.31,6.09
,-8.193,-0.828,-5.248,-8.801,-0.495,-5.248,-1.68,-8.75,6.37
,-8.409,-0.816,-5.209,-8.985,-0.266,-4.989,-2.87,-8.68,6.79
,-8.564,-0.89,-5.224,-8.655,-0.132,-5.166,-2.24,-8.33,7.14
22412.0,-8.567,0.136,-5.262,-8.339,0.124,-5.104,7.84,-11.62,2.38
,-8.689,0.268,-5.458,-8.701,0.041,-4.999,7.28,-12.81,1.96
,-8.811,0.369,-5.188,-8.65,-0.17,-4.999,5.81,-14.07,1.12
,-8.44,0.321,-5.248,-8.672,-0.369,-4.949,3.71,-14.21,0.35
22487.0,-8.787,-0.792,-4.834,-8.449,-1.015,-4.63,0.49,-11.27,-3.92
,-9.04,-0.945,-4.551,-8.849,-0.938,-4.676,-1.47,-12.46,-3.85
,-8.698,-1.022,-4.748,-8.902,-0.926,-4.745,1.47,-14.56,-3.92
,-8.457,-1.015,-4.637,-8.739,-0.988,-4.905,3.08,-15.54,-3.5
22563.0,-8.48,-1.077,-5.092,-8.583,-0.775,-4.671,5.25,-14.07,-0.21
,-8.39,-1.307,-4.932,-8.555,-0.438,-4.616,6.93,-11.83,0.35
,-8.885,-1.744,-4.398,-8.76,-0.474,-4.494,8.68,-11.62,-0.35
,-9.064,-1.113,-4.695,-8.959,-0.567,-4.47,12.6,-14.28,-0.14
22639.0,-8.899,-0.869,-4.453,-8.94,-0.897,-4.252,6.72,-17.36,1.96
,-8.866,-0.993,-4.279,-8.916,-0.775,-4.307,6.44,-17.22,2.38
,-8.648,-1.017,-4.334,-8.887,-0.838,-4.259,7.63,-17.15,2.45
,-8.696,-0.976,-4.281,-8.909,-0.998,-4.128,10.08,-16.31,1.82
22715.0,-9.005,-1.225,-4.08,-8.961,-0.818,-4.238,13.93,-14.49,4.69
,-8.99,-1.321,-4.133,-8.935,-0.857,-4.188,14.0,-15.12,4.76
,-8.935,-1.247,-4.24,-8.89,-0.771,-4.075,14.77,-15.75,5.04
,-8.945,-0.974,-4.168,-8.882,-0.754,-3.944,15.61,-16.38,5.46
22790.0,-8.904,-0.737,-3.86,-9.229,0.093,-3.384,13.44,-18.55,6.65
,-8.981,-0.742,-3.843,-9.323,0.309,-3.336,14.56,-18.62,6.51
,-9.083,-0.531,-3.735,-9.268,0.098,-3.214,16.24,-18.9,6.58
,-9.153,-0.189,-3.429,-9.162,-0.115,-3.137,17.36,-18.83,6.65
22866.0,-9.203,-0.383,-3.077,-9.277,-0.593,-2.764,3.43,-21.0,-0.07
,-9.246,-0.584,-2.989,-9.141,-0.699,-2.965,3.71,-20.51,-1.47
,-9.174,-0.761,-2.96,-9.206,-0.849,-2.922,4.34,-19.53,-2.31
,-9.088,-0.759,-2.754,-9.416,-0.957,-2.994,4.13,-18.76,-2.59
22941.0,-9.514,-1.005,-3.065,-9.206,-0.735,-2.513,0.0,-17.71,-2.03
,-9.361,-1.091,-2.711,-9.483,-0.416,-2.69,0.14,-16.45,-2.03
,-9.256,-1.127,-2.601,-9.488,-0.438,-2.85,2.24,-14.91,-2.03
,-9.167,-1.022,-2.63,-9.445,-0.732,-2.79,3.71,-14.28,-2.52
23017.0,-9.361,-1.043,-2.702,-9.485,-0.625,-3.029,-1.54,-12.95,-3.08
,-9.316,-1.275,-2.781,-9.483,-0.514,-2.953,0.35,-11.9,-3.22
,-9.134,-1.156,-2.414,-9.428,-0.692,-2.991,4.48,-10.78,-2.8
,-9.277,-0.964,-2.828,-9.292,-1.173,-2.776,6.79,-11.13,-2.87
23093.0,-9.21,-1.551,-2.422,-9.77,-0.39,-1.907,0.56,-10.01,-3.08
,-9.27,-1.546,-2.206,-9.744,-0.146,-2.24,5.53,-8.82,-2.24
,-9.407,-1.359,-1.886,-9.541,-0.278,-2.639,9.17,-7.91,-1.54
,-9.555,-0.89,-1.721,-9.241,-0.541,-2.726,11.83,-7.14,-0.91
23169.0,-9.081,-0.983,-2.764,-9.66,-0.902,-2.484,-3.85,-6.16,-3.15
,-9.253,-1.189,-2.869,-9.629,-0.842,-2.888,0.56,-5.32,-2.87
,-9.428,-1.228,-2.718,-9.409,-0.955,-3.008,3.15,-4.69,-2.59
,-9.586,-1.039,-2.615,-9.301,-1.017,-3.171,6.58,-4.27,-2.1
23244.0,-9.273,-1.098,-3.168,-9.761,-0.888,-2.678,2.38,-5.39,-2.59
,-9.261,-1.283,-2.86,-9.6,-0.591,-2.709,4.41,-5.04,-2.17
,-9.445,-1.18,-2.587,-9.509,-0.503,-2.575,7.77,-4.41,-1.47
,-9.773,-1.039,-2.594,-9.392,-0.763,-2.297,10.78,-4.34,-1.05
23320.0,-9.39,-1.005,-2.158,-9.617,-0.938,-1.316,10.43,-4.06,-1.47
,-9.395,-1.0,-1.91,-9.541,-0.955,-1.213,11.27,-3.15,-1.47
,-9.495,-0.936,-1.682,-9.61,-0.928,-1.378,10.64,-2.52,-1.54
,-9.658,-0.955,-1.452,-9.55,-1.082,-1.479,8.89,-1.47,-1.82
23396.0,-9.457,-1.103,-1.577,-9.749,-1.216,-1.914,-2.03,4.9,-2.59
,-9.557,-1.137,-1.694,-9.777,-1.041,-2.175,-2.59,6.16,-2.38
,-9.526,-1.318,-1.871,-9.732,-0.9,-2.627,-3.36,7.0,-2.59
,-9.476,-1.34,-1.744,-9.538,-1.003,-3.039,-2.52,8.61,-2.03
23472.0,-9.347,-1.153,-3.266,-9.32,-1.182,-3.24,-4.62,8.96,-2.1
,-9.258,-1.34,-3.475,-9.45,-1.192,-2.943,-3.85,8.54,-1.96
,-9.251,-1.338,-3.546,-9.485,-1.28,-2.862,-1.61,8.26,-1.54
,-9.213,-1.299,-3.412,-9.543,-1.295,-2.881,0.42,7.98,-1.12
23548.0,-9.45,-1.256,-2.958,-9.466,-1.029,-2.864,-0.07,6.02,-0.7
,-9.32,-1.225,-2.919,-9.423,-1.005,-2.742,-0.84,5.88,-0.7
,-9.505,-1.228,-2.996,-9.397,-1.115,-2.73,-1.05,5.67,-0.7
,-9.512,-1.144,-2.886,-9.409,-1.091,-2.788,-0.42,5.46,-0.49
23623.0,-9.469,-1.015,-2.979,-9.332,-1.342,-3.02,0.28,4.48,-0.42
,-9.383,-1.091,-3.08,-9.476,-1.091,-2.919,-0.63,4.27,-0.56
,-9.27,-1.345,-3.07,-9.428,-0.991,-2.848,-1.33,4.2,-0.49
,-9.229,-1.421,-3.022,-9.495,-0.96,-2.797,-0.42,4.48,-0.07
23699.0,-9.493,-0.938,-2.893,-9.371,-1.101,-3.154,1.4,3.71,0.14
,-9.476,-1.0,-2.934,-9.385,-1.122,-3.008,0.84,3.43,-0.14
,-9.43,-1.06,-3.017,-9.404,-1.127,-2.831,0.35,3.43,-0.21
,-9.397,-1.134,-3.135,-9.409,-1.139,-2.74,-0.14,3.08,-0.28
23774.0,-9.445,-1.151,-2.678,-9.387,-1.141,-3.003,-0.07,3.08,-0.14
,-9.502,-1.098,-2.68,-9.426,-1.187,-3.135,-0.35,3.01,-0.35
,-9.471,-1.113,-2.795,-9.354,-1.278,-3.128,-0.42,3.15,-0.28
,-9.428,-1.125,-2.845,-9.335,-1.208,-3.223,-0.28,3.15,-0.35
23850.0,-9.404,-1.208,-3.25,-9.38,-1.072,-3.135,1.4,2.73,0.07
,-9.378,-1.165,-3.235,-9.397,-1.094,-3.094,2.03,2.17,0.28
,-9.418,-1.065,-3.288,-9.416,-1.141,-3.046,2.45,1.75,0.28
,-9.373,-1.094,-3.183,-9.402,-1.151,-2.931,2.59,1.54,0.35
23926.0,-9.385,-1.211,-2.838,-9.414,-1.127,-2.804,2.73,0.91,0.49
,-9.452,-1.211,-2.867,-9.442,-1.129,-2.862,2.87,0.98,0.42
,-9.426,-1.194,-2.855,-9.509,-1.129,-2.998,2.8,0.98,0.42
,-9.371,-1.161,-2.869,-9.462,-1.144,-3.034,2.38,0.84,0.42
24002.0,-9.273,-1.228,-3.07,-9.435,-1.173,-2.781,1.54,0.7,0.28
,-9.32,-1.216,-3.02,-9.392,-1.173,-2.718,2.24,0.77,0.49
,-9.366,-1.187,-3.027,-9.428,-1.194,-2.663,3.22,0.63,0.56
,-9.385,-1.067,-2.915,-9.481,-1.175,-2.666,3.29,0.63,0.56
24077.0,-9.5,-1.117,-2.781,-9.354,-1.139,-3.049,2.1,1.4,0.49
,-9.509,-1.084,-2.936,-9.378,-1.146,-3.003,2.03,1.47,0.35
,-9.433,-1.043,-2.994,-9.404,-1.17,-2.936,1.82,1.26,0.35
,-9.375,-1.091,-2.943,-9.44,-1.199,-2.802,1.89,1.4,0.56
24153.0,-9.423,-1.108,-2.783,-9.447,-1.18,-2.934,3.71,1.68,0.77
,-9.495,-1.101,-2.864,-9.462,-1.187,-3.015,3.36,1.75,0.56
,-9.411,-1.07,-2.848,-9.347,-1.213,-3.058,2.94,1.54,0.35
,-9.418,-1.127,-2.91,-9.34,-1.082,-2.994,2.59,1.61,0.28
24229.0,-9.43,-1.034,-3.022,-9.378,-1.249,-2.85,3.99,1.4,0.35
,-9.421,-1.058,-3.053,-9.457,-1.187,-2.876,3.57,1.26,0.28
,-9.375,-1.125,-2.927,-9.39,-1.129,-2.845,2.87,1.05,0.21
,-9.347,-1.182,-2.924,-9.383,-1.103,-2.687,2.8,1.26,0.28
24305.0,-9.428,-1.086,-2.759,-9.328,-1.192,-2.946,3.43,1.75,0.35
,-9.471,-1.091,-2.769,-9.409,-1.213,-3.068,3.15,1.68,0.14
,-9.409,-1.101,-2.86,-9.359,-1.225,-3.063,2.73,1.89,0.14
,-9.414,-1.098,-2.955,-9.383,-1.208,-3.02,2.38,1.96,0.07
24380.0,-9.366,-1.22,-2.984,-9.45,-1.122,-2.833,3.36,1.47,0.35
,-9.395,-1.278,-2.929,-9.402,-1.127,-2.843,3.5,1.33,0.49
,-9.426,-1.189,-2.874,-9.428,-1.153,-2.831,3.71,1.47,0.56
,-9.45,-1.139,-2.84,-9.416,-1.18,-2.893,3.71,1.54,0.56
24456.0,-9.399,-1.194,-2.955,-9.371,-1.177,-2.936,2.45,1.68,0.49
,-9.378,-1.187,-2.946,-9.39,-1.192,-2.948,2.45,1.61,0.49
,-9.361,-1.177,-2.967,-9.39,-1.184,-2.883,2.38,1.54,0.49
,-9.416,-1.223,-2.994,-9.464,-1.127,-2.898,2.31,1.54,0.42
24531.0,-9.454,-1.208,-2.891,-9.392,-1.213,-3.077,2.17,1.33,0.42
,-9.375,-1.137,-2.912,-9.349,-1.201,-3.022,2.03,1.47,0.49
,-9.39,-1.204,-3.001,-9.438,-1.187,-2.953,1.61,1.47,0.42
,-9.411,-1.273,-2.994,-9.521,-1.139,-2.907,1.54,1.4,0.49
24607.0,-9.464,-1.019,-2.855,-9.383,-1.333,-2.833,-0.21,0.28,-0.21
,-9.426,-1.0,-2.826,-9.385,-1.251,-2.917,-1.19,0.28,-0.14
,-9.39,-1.074,-2.761,-9.368,-1.256,-2.91,-2.1,0.21,-0.28
,-9.416,-1.342,-2.737,-9.347,-1.24,-2.9,-1.61,0.63,-0.14
24683.0,-9.423,-1.196,-2.912,-9.359,-1.22,-2.984,1.82,1.75,0.56
,-9.421,-1.163,-2.955,-9.44,-1.168,-2.924,1.82,1.75,0.63
,-9.383,-1.184,-3.013,-9.378,-1.151,-2.895,1.82,1.82,0.63
,-9.368,-1.247,-2.989,-9.414,-1.141,-2.819,2.24,1.75,0.63
24759.0,-9.435,-1.158,-2.804,-9.378,-1.228,-2.965,3.43,2.1,1.05
,-9.404,-1.173,-2.742,-9.351,-1.194,-2.934,3.22,2.17,0.91
,-9.438,-1.12,-2.857,-9.39,-1.189,-2.864,2.87,2.17,0.84
,-9.418,-1.211,-2.883,-9.45,-1.163,-2.852,2.8,2.24,0.77
24835.0,-9.418,-1.082,-2.85,-9.402,-1.242,-3.001,4.06,2.38,1.12
,-9.457,-1.086,-2.86,-9.387,-1.199,-3.094,3.08,2.45,0.91
,-9.399,-1.192,-2.864,-9.433,-1.125,-3.092,2.24,2.45,0.84
,-9.428,-1.168,-2.936,-9.414,-1.077,-3.13,1.89,2.17,0.7
24910.0,-9.356,-1.129,-3.061,-9.399,-1.249,-2.986,1.47,1.54,0.63
,-9.414,-1.132,-3.065,-9.371,-1.199,-2.979,1.54,1.33,0.63
,-9.38,-1.117,-3.065,-9.421,-1.199,-2.95,1.47,0.91,0.49
,-9.356,-1.122,-3.01,-9.418,-1.194,-2.898,1.47,0.77,0.49
24986.0,-9.414,-1.187,-2.879,-9.421,-1.101,-2.828,1.89,0.98,0.63
,-9.426,-1.165,-2.893,-9.438,-1.149,-2.836,1.75,0.91,0.56
,-9.404,-1.158,-2.862,-9.474,-1.146,-2.857,1.61,0.91,0.49
,-9.361,-1.182,-2.867,-9.435,-1.146,-2.883,1.61,0.91,0.49
25062.0,-9.409,-1.22,-2.783,-9.399,-1.173,-2.898,-0.98,0.35,-0.14
,-9.438,-1.113,-2.836,-9.385,-1.019,-2.867,-1.75,0.14,-0.35
,-9.368,-1.103,-2.785,-9.354,-1.024,-2.773,-2.73,0.0,-0.49
,-9.43,-1.192,-2.9,-9.474,-1.101,-2.714,-3.01,0.07,-0.77
25138.0,-9.478,-1.019,-2.522,-9.49,-1.034,-2.568,-7.14,-0.35,-1.47
,-9.383,-0.952,-2.481,-9.514,-1.094,-2.843,-8.05,-0.14,-1.33
,-9.481,-1.041,-2.383,-9.404,-1.199,-3.017,-8.47,0.56,-1.33
,-9.514,-1.141,-2.448,-9.323,-1.208,-3.156,-8.82,1.12,-1.68
25213.0,-9.311,-1.173,-3.393,-9.387,-1.103,-3.467,-8.68,1.75,-2.1
,-9.313,-1.194,-3.491,-9.349,-1.175,-3.283,-7.49,1.4,-1.82
,-9.287,-1.134,-3.537,-9.399,-1.211,-3.25,-6.58,1.19,-1.54
,-9.316,-1.101,-3.513,-9.383,-1.242,-3.106,-6.02,0.63,-1.47
25289.0,-9.44,-1.342,-3.142,-9.428,-1.357,-2.948,-3.85,-1.61,-1.05
,-9.395,-1.503,-3.084,-9.328,-1.187,-2.905,-2.31,-1.47,-0.49
,-9.335,-1.529,-3.041,-9.416,-1.199,-2.852,0.28,-1.47,0.28
,-9.407,-1.424,-2.972,-9.529,-1.321,-2.912,3.29,-1.12,0.84
25364.0,-9.529,-1.472,-3.077,-9.351,-1.184,-3.386,4.76,-1.19,1.19
,-9.459,-1.476,-3.297,-9.387,-0.893,-3.099,5.32,-1.89,1.33
,-9.263,-1.378,-3.419,-9.39,-0.89,-2.797,6.16,-2.24,1.61
,-9.256,-1.338,-3.453,-9.418,-0.893,-2.405,7.63,-2.38,1.89
25440.0,-9.576,-0.974,-2.027,-9.569,-0.794,-0.761,13.23,-1.12,2.59
,-9.634,-0.708,-1.814,-9.73,-0.756,-0.371,13.79,-0.21,2.66
,-9.569,-0.586,-1.522,-9.89,-0.613,-0.153,12.18,0.84,2.38
,-9.531,-0.653,-1.139,-9.837,-0.596,-0.223,9.1,2.45,1.96
25516.0,-9.789,-0.869,-0.634,-8.815,-1.768,-2.434,-7.77,13.37,-1.19
,-9.548,-1.503,-1.01,-8.861,-1.438,-3.065,-12.32,14.91,-1.05
,-9.335,-2.051,-1.586,-8.672,-1.378,-3.063,-13.3,16.73,-0.35
,-8.997,-1.996,-2.247,-8.689,-1.484,-2.651,-12.6,17.64,0.14
25592.0,-9.083,-1.402,-2.4,-8.973,-0.747,-3.235,-6.79,22.33,3.29
,-9.538,-1.508,-2.075,-9.055,-0.747,-3.02,-4.55,23.31,4.2
,-10.0,-1.189,-2.874,-9.328,-0.907,-2.596,-2.59,22.05,4.06
,-9.414,-0.79,-3.367,-9.445,-0.924,-2.498,-4.13,20.58,3.29
25668.0,-9.426,-0.864,-2.637,-8.892,-0.838,-5.365,-6.72,26.39,2.52
,-9.469,-0.766,-3.324,-8.303,-0.914,-5.355,-8.61,24.78,2.17
,-9.222,-1.01,-3.695,-8.416,-0.885,-5.829,-11.9,23.24,1.96
,-9.28,-0.888,-4.049,-8.397,-0.888,-5.207,-10.57,22.33,2.24
25743.0,-8.595,-1.378,-4.757,-9.698,-2.242,-2.886,-6.09,15.54,0.35
,-8.643,-2.094,-3.678,-9.689,-1.421,-3.077,-4.06,16.8,1.33
,-9.189,-2.501,-3.151,-9.38,-0.711,-2.934,1.82,17.71,3.43
,-9.43,-2.587,-2.979,-9.191,-0.177,-3.345,7.63,17.5,5.39
25819.0,-8.911,0.345,-3.9,-8.722,-1.548,-4.788,3.78,16.66,3.92
,-9.16,0.345,-4.776,-8.787,-1.862,-3.74,-2.87,13.65,2.52
,-9.105,0.074,-5.336,-9.385,-1.378,-3.369,-9.59,11.06,2.03
,-8.818,-0.665,-5.272,-9.251,-0.488,-3.498,-13.09,11.34,2.45
25895.0,-9.265,0.017,-3.731,-8.571,-1.462,-4.614,8.4,13.72,1.05
,-9.031,-0.294,-4.018,-8.614,-0.945,-4.432,-0.42,13.65,2.03
,-8.689,-1.24,-3.996,-8.696,-0.835,-4.379,-6.93,15.4,2.17
,-8.729,-1.692,-4.3,-8.861,-1.158,-3.687,-5.32,16.73,2.31
25971.0,-9.043,-1.232,-3.247,-9.124,-0.397,-3.613,7.98,18.76,3.5
,-9.124,-0.969,-3.044,-8.945,-0.648,-3.759,11.69,19.67,2.87
,-9.225,-0.68,-3.022,-8.801,-0.591,-4.149,12.88,19.6,2.8
,-9.165,-0.33,-3.233,-8.509,-0.108,-4.518,10.85,18.97,3.5
26046.0,-8.638,0.428,-4.965,-8.655,-1.278,-4.779,9.94,20.51,-0.42
,-8.873,0.562,-5.315,-8.6,-1.821,-4.252,6.51,18.27,-1.05
,-9.081,0.273,-5.279,-8.5,-2.211,-4.118,0.84,15.96,-1.96
,-8.926,-0.428,-5.173,-8.361,-2.4,-4.133,-3.78,15.96,-3.08
26122.0,-8.603,-2.17,-4.19,-9.019,0.297,-5.023,2.94,17.71,1.26
,-8.763,-1.524,-4.75,-8.969,0.361,-4.683,6.3,17.08,2.1
,-8.725,-0.689,-5.43,-8.696,-0.06,-4.465,7.7,16.38,1.47
,-8.643,-0.014,-5.547,-8.751,-0.524,-4.173,7.07,16.59,0.35
26197.0,-8.748,-0.955,-4.288,-8.574,-1.383,-4.549,-9.87,14.56,-2.03
,-8.595,-1.256,-4.599,-8.349,-1.086,-4.645,-6.86,15.47,-2.45
,-8.485,-1.493,-4.389,-8.186,-0.983,-4.728,-3.29,17.08,-2.45
,-8.54,-1.505,-4.487,-8.471,-0.739,-4.602,0.35,18.55,-1.96
26273.0,-8.569,-0.421,-4.475,-8.471,-1.165,-5.169,0.14,20.86,-2.03
,-8.437,-0.304,-4.511,-8.612,-1.558,-5.128,-0.63,21.21,-2.87
,-8.528,-0.495,-4.427,-8.641,-1.426,-5.252,-2.1,21.42,-2.59
,-8.428,-0.601,-4.874,-8.112,-1.488,-5.69,-2.03,21.21,-1.61
26349.0,-8.069,-1.895,-5.453,-8.162,-2.225,-5.753,7.56,19.46,-2.73
,-8.27,-2.017,-5.688,-8.093,-1.744,-5.973,7.63,18.69,-1.47
,-8.236,-2.324,-5.7,-8.306,-1.089,-6.157,7.77,18.48,0.77
,-8.15,-2.525,-5.544,-8.421,-0.706,-6.066,8.61,18.2,3.01
26425.0,-8.311,-0.507,-6.248,-8.39,-1.474,-5.963,11.83,14.63,3.08
,-8.344,-0.579,-6.193,-8.519,-1.634,-5.841,9.24,12.88,3.5
,-8.215,-0.811,-6.111,-8.346,-1.701,-6.044,8.61,11.55,3.71
,-8.196,-1.141,-6.116,-8.112,-1.704,-5.855,8.96,10.43,2.52
26500.0,-7.921,-1.622,-5.719,-8.351,-0.981,-5.805,12.6,4.69,4.69
,-7.99,-1.426,-5.839,-8.344,-1.158,-5.7,12.53,4.06,5.11
,-7.925,-1.285,-5.884,-8.672,-0.909,-5.712,11.76,3.99,6.09
,-8.083,-1.005,-5.702,-8.684,-0.615,-5.824,11.48,3.99,7.7
26576.0,-8.37,-0.641,-5.683,-8.248,-0.428,-6.169,8.05,1.54,6.79
,-8.37,-0.696,-5.695,-8.205,-0.531,-6.26,7.14,1.61,6.65
,-8.205,-0.519,-5.81,-8.279,-0.993,-6.111,7.0,1.12,6.3
,-8.222,-0.491,-5.973,-8.253,-1.61,-5.843,5.25,0.49,6.02
26651.0,-8.382,-1.723,-5.714,-8.325,-0.907,-5.721,3.36,-2.31,5.25
,-8.325,-1.469,-5.731,-8.263,-0.955,-5.724,5.39,-2.66,5.04
,-8.107,-1.027,-5.779,-8.342,-0.852,-5.662,6.37,-3.08,5.18
,-8.153,-0.902,-5.82,-8.521,-0.61,-5.743,5.18,-3.29,5.46
26727.0,-8.516,-0.105,-5.822,-8.287,-1.249,-5.379,5.11,-3.92,3.36
,-8.279,-0.086,-5.86,-8.16,-1.397,-5.47,3.08,-4.2,2.31
,-8.342,-0.486,-5.693,-8.299,-1.168,-5.463,0.77,-3.78,1.54
,-8.385,-0.852,-5.384,-8.409,-0.677,-5.693,-0.14,-3.36,1.33
26803.0,-8.37,-0.361,-5.753,-8.265,-1.397,-5.245,3.57,-2.94,0.14
,-8.38,-0.675,-5.386,-8.344,-1.761,-5.104,1.19,-2.45,-0.07
,-8.32,-0.873,-5.284,-8.418,-1.799,-5.073,-0.91,-2.59,-0.14
,-8.311,-1.067,-5.374,-8.423,-1.318,-5.315,-1.96,-2.87,0.14
26879.0,-8.428,-0.797,-5.279,-8.61,-1.371,-5.413,-0.14,-1.33,3.15
,-8.433,-0.452,-5.556,-8.457,-1.531,-5.511,-1.82,-1.82,3.08
,-8.409,-0.445,-5.817,-8.488,-1.493,-5.489,-4.97,-2.24,3.71
,-8.61,-0.888,-5.664,-8.679,-1.496,-5.463,-7.91,-2.31,4.69
26955.0,-8.66,-1.223,-5.58,-8.265,-0.455,-5.628,-0.21,-4.06,5.46
,-8.469,-0.976,-5.843,-8.402,-0.208,-5.547,0.07,-4.55,6.02
,-8.593,-0.787,-5.518,-8.521,-0.007,-5.53,-0.98,-5.39,7.0
,-8.404,-0.692,-5.638,-8.705,-0.084,-5.604,-3.5,-6.3,7.21
27030.0,-8.686,-0.182,-5.686,-8.38,-0.263,-5.339,-9.8,-7.77,4.13
,-8.603,-0.34,-5.642,-8.136,0.165,-5.587,-10.15,-7.98,3.57
,-8.617,-0.574,-5.537,-8.15,0.105,-5.635,-8.19,-7.91,2.38
,-8.734,-0.522,-4.97,-8.516,-0.366,-5.396,-5.88,-8.75,1.47
27106.0,-8.701,-0.907,-5.164,-8.471,-1.127,-5.276,-8.96,-11.83,-1.33
,-8.696,-1.213,-5.231,-8.287,-1.055,-5.231,-7.28,-12.04,-1.47
,-8.495,-1.417,-5.24,-8.461,-1.297,-4.96,-4.55,-11.69,-1.82
,-8.67,-1.441,-4.963,-8.789,-1.35,-4.616,-0.14,-12.53,-2.24
27182.0,-8.789,-1.216,-4.908,-8.495,-0.371,-4.915,4.34,-14.35,1.19
,-8.789,-1.0,-4.996,-8.184,-0.256,-4.829,5.04,-14.21,0.84
,-8.512,-0.888,-5.042,-8.538,-0.39,-4.566,5.18,-13.72,0.84
,-8.873,-0.763,-4.779,-8.839,-0.335,-4.69,5.18,-15.12,0.91
27258.0,-8.806,-0.337,-4.697,-8.801,-0.665,-4.135,0.7,-18.48,0.63
,-8.768,-0.244,-4.537,-9.031,-0.806,-4.042,0.98,-18.41,0.56
,-8.545,-0.347,-4.436,-9.069,-1.007,-3.987,0.14,-18.13,0.35
,-8.526,-0.572,-4.353,-8.868,-1.725,-3.774,-0.42,-17.29,-0.28
27333.0,-9.206,-1.823,-3.563,-8.547,-0.754,-4.243,-2.8,-13.16,0.56
,-8.78,-1.759,-3.963,-8.765,-0.799,-4.197,0.77,-14.63,3.08
,-8.363,-1.328,-4.087,-8.847,-0.864,-4.087,3.92,-15.68,4.62
,-8.397,-1.024,-4.295,-8.942,-0.907,-4.082,4.69,-15.89,5.11
27409.0,-8.995,-0.821,-4.195,-8.868,-0.531,-4.59,-0.63,-12.88,5.95
,-8.851,-0.644,-4.31,-8.933,-0.292,-4.759,1.12,-11.62,5.46
,-8.734,-0.45,-4.448,-9.146,-0.029,-4.681,3.43,-10.01,5.6
,-8.825,-0.498,-4.408,-9.024,-0.163,-4.75,5.81,-8.19,5.74
27484.0,-8.993,-0.44,-4.657,-8.806,0.007,-4.561,13.16,-7.77,4.13
,-9.129,-0.498,-4.362,-8.863,0.036,-4.381,12.95,-8.82,3.92
,-8.971,-0.335,-4.42,-9.021,-0.199,-4.343,13.16,-10.01,3.92
,-8.835,-0.158,-4.599,-9.088,-0.424,-4.145,13.23,-10.78,3.64
27560.0,-9.012,-0.426,-4.101,-8.945,-0.969,-3.396,6.58,-10.64,1.68
,-8.804,-0.519,-4.001,-9.251,-0.682,-3.597,8.05,-10.15,1.61
,-8.71,-0.701,-4.046,-9.308,-0.361,-3.766,9.8,-9.66,1.54
,-8.674,-0.928,-3.733,-9.227,-0.077,-3.683,11.83,-8.61,2.03
27636.0,-9.234,-0.139,-3.661,-9.249,-0.05,-3.821,10.92,-11.62,1.82
,-9.117,-0.34,-3.783,-9.155,0.022,-3.652,9.03,-11.83,0.91
,-9.076,-0.361,-3.384,-9.227,-0.163,-3.687,9.24,-11.62,0.63
,-9.265,-0.273,-3.628,-9.005,-0.493,-3.838,9.87,-12.53,0.35
27712.0,-8.885,-0.933,-3.891,-9.43,-1.62,-2.888,0.14,-15.89,-2.59
,-8.904,-1.115,-3.807,-9.39,-1.345,-2.962,0.56,-16.31,-1.96
,-8.978,-1.328,-3.503,-9.399,-0.893,-2.86,1.89,-15.89,-0.98
,-9.292,-1.594,-3.218,-9.464,-0.337,-3.142,5.46,-14.63,-0.07
27787.0,-9.139,-0.077,-3.175,-9.332,-0.354,-2.592,10.5,-14.07,1.05
,-9.127,-0.191,-3.532,-9.495,-0.165,-2.51,8.47,-13.93,0.7
,-9.167,-0.251,-3.417,-9.536,0.172,-2.752,9.03,-13.37,0.77
,-9.139,-0.4,-2.955,-9.258,0.239,-2.876,11.48,-12.18,0.7
27863.0,-9.091,-0.335,-2.474,-9.617,-0.73,-2.309,0.63,-11.2,-3.22
,-9.323,-0.995,-2.627,-9.395,-0.926,-2.24,-0.56,-9.94,-3.92
,-9.318,-1.163,-2.407,-9.229,-1.05,-1.89,0.84,-8.96,-4.41
,-9.378,-0.981,-2.044,-9.39,-0.993,-2.027,2.8,-8.05,-3.85
27939.0,-9.5,-0.859,-2.338,-9.368,-0.718,-3.206,-0.91,-3.92,-3.15
,-9.265,-0.632,-2.467,-9.22,-0.727,-2.982,-1.96,-3.01,-3.01
,-9.261,-0.675,-2.678,-9.351,-0.625,-3.209,-3.57,-2.38,-2.87
,-9.241,-0.787,-2.757,-9.519,-0.565,-3.41,-3.15,-1.89,-2.52
28015.0,-9.533,-0.412,-3.697,-9.263,-0.986,-4.066,2.1,-2.24,-2.87
,-9.371,-0.481,-3.589,-9.194,-1.175,-3.824,0.49,-2.87,-2.94
,-9.421,-0.646,-3.735,-9.292,-1.409,-3.398,0.42,-3.36,-3.15
,-9.44,-0.842,-3.999,-9.39,-1.429,-3.218,0.21,-4.27,-3.5
28091.0,-9.488,-1.235,-3.01,-9.392,-0.672,-2.766,8.47,-5.81,-1.19
,-9.478,-0.883,-2.816,-9.273,-0.881,-2.68,10.01,-6.02,-0.77
,-9.548,-0.586,-2.728,-9.284,-1.039,-2.429,9.59,-6.16,-0.84
,-9.55,-0.536,-2.726,-9.462,-1.015,-2.508,7.91,-6.23,-1.19
28166.0,-9.531,-0.9,-2.465,-9.483,-1.103,-2.568,6.79,-4.2,-1.12
,-9.476,-0.878,-2.355,-9.469,-1.05,-2.407,6.23,-3.57,-0.91
,-9.442,-0.948,-2.319,-9.586,-0.95,-2.414,4.97,-3.22,-0.91
,-9.457,-1.072,-2.527,-9.493,-0.799,-2.259,4.55,-2.59,-0.84
28242.0,-9.481,-0.684,-2.151,-9.349,-0.998,-2.68,6.58,1.05,-0.07
,-9.663,-0.775,-2.17,-9.43,-0.833,-2.891,5.32,1.75,-0.28
,-9.612,-0.983,-2.391,-9.536,-0.596,-3.075,4.41,2.24,-0.35
,-9.385,-1.084,-2.453,-9.385,-0.663,-3.008,4.55,2.87,-0.07
28317.0,-9.378,-0.782,-3.108,-9.397,-1.091,-3.374,3.71,3.15,-0.63
,-9.371,-1.01,-3.204,-9.32,-1.089,-3.199,3.29,2.73,-0.77
,-9.347,-1.199,-3.305,-9.323,-0.931,-3.192,4.06,2.24,-0.56
,-9.342,-1.177,-3.257,-9.421,-0.799,-2.965,5.81,2.24,-0.07
28393.0,-9.395,-0.742,-2.929,-9.502,-0.94,-2.137,6.65,0.63,-0.21
,-9.347,-0.773,-2.62,-9.56,-0.849,-2.209,5.32,0.98,-0.21
,-9.478,-0.852,-2.441,-9.555,-0.859,-2.333,4.9,1.26,-0.21
,-9.55,-0.964,-2.304,-9.497,-0.888,-2.546,4.76,1.61,-0.42
28469.0,-9.39,-0.926,-2.699,-9.502,-0.888,-3.293,-0.28,3.92,-0.77
,-9.359,-0.972,-2.74,-9.407,-0.933,-3.381,-1.47,3.99,-1.05
,-9.423,-1.079,-2.903,-9.251,-1.079,-3.434,-1.75,4.27,-1.12
,-9.466,-0.998,-3.017,-9.28,-1.146,-3.477,-1.47,4.13,-1.05
28545.0,-9.423,-1.125,-3.422,-9.509,-0.969,-2.587,1.61,2.17,-0.28
,-9.371,-1.012,-3.161,-9.481,-0.981,-2.601,2.45,2.1,-0.07
,-9.421,-1.01,-2.948,-9.533,-1.046,-2.644,2.38,2.17,0.0
,-9.454,-1.034,-2.737,-9.493,-1.024,-2.711,2.38,2.24,0.21
28620.0,-9.5,-0.981,-2.814,-9.392,-0.857,-3.233,1.54,2.94,0.0
,-9.416,-1.089,-2.927,-9.354,-0.948,-3.273,0.84,3.15,-0.07
,-9.349,-0.983,-2.984,-9.359,-0.983,-3.18,1.54,3.29,0.21
,-9.407,-0.909,-3.108,-9.316,-1.019,-3.25,2.1,2.94,0.0
28696.0,-9.438,-1.031,-3.257,-9.426,-1.062,-2.852,3.64,1.96,0.49
,-9.399,-0.974,-3.209,-9.531,-1.022,-2.759,4.06,1.47,0.56
,-9.368,-0.94,-3.049,-9.485,-1.07,-2.666,3.71,1.26,0.56
,-9.387,-1.034,-2.927,-9.476,-1.072,-2.644,3.01,1.4,0.49
28771.0,-9.466,-1.07,-2.752,-9.43,-0.972,-3.034,3.64,2.24,0.63
,-9.43,-0.95,-2.912,-9.45,-0.907,-3.049,3.85,2.31,0.77
,-9.414,-0.974,-2.972,-9.407,-0.938,-3.058,3.29,2.38,0.7
,-9.39,-1.067,-3.005,-9.387,-1.048,-3.111,2.94,2.59,0.7
28847.0,-9.409,-0.981,-3.202,-9.418,-0.988,-2.962,3.22,1.89,0.56
,-9.38,-0.919,-3.235,-9.478,-0.986,-2.934,3.36,1.82,0.7
,-9.318,-1.048,-3.19,-9.414,-0.957,-2.824,2.94,1.68,0.63
,-9.356,-1.031,-3.068,-9.454,-0.955,-2.862,3.29,1.54,0.77
28923.0,-9.438,-0.995,-2.927,-9.428,-0.976,-2.871,2.45,1.47,0.49
,-9.416,-1.01,-2.895,-9.423,-1.01,-2.824,2.38,1.61,0.56
,-9.423,-1.048,-2.879,-9.39,-1.046,-2.814,2.8,1.82,0.63
,-9.395,-1.027,-2.874,-9.457,-1.048,-2.824,3.08,2.03,0.63
28999.0,-9.423,-1.005,-2.85,-9.421,-0.883,-3.082,1.96,2.8,0.63
,-9.466,-0.979,-2.941,-9.387,-0.907,-3.123,2.03,2.73,0.56
,-9.404,-0.991,-2.95,-9.373,-0.983,-3.111,1.61,2.94,0.49
,-9.43,-0.928,-3.058,-9.39,-1.0,-3.137,1.82,2.94,0.35
29075.0,-9.404,-0.986,-3.125,-9.38,-0.967,-3.001,1.05,2.31,0.28
,-9.409,-0.991,-3.084,-9.459,-0.979,-2.989,1.26,2.38,0.28
,-9.323,-0.976,-3.017,-9.414,-1.017,-3.01,1.47,2.31,0.21
,-9.399,-0.974,-3.049,-9.363,-1.05,-3.058,1.68,2.31,0.35
29150.0,-9.368,-1.103,-3.053,-9.454,-0.905,-3.032,1.61,2.17,0.21
,-9.404,-1.089,-3.084,-9.426,-0.888,-3.001,2.03,2.38,0.35
,-9.426,-1.079,-3.034,-9.414,-0.926,-2.977,2.59,2.17,0.42
,-9.49,-0.981,-3.034,-9.344,-0.969,-3.08,2.94,2.31,0.42
29226.0,-9.402,-0.991,-3.12,-9.371,-0.993,-3.039,1.33,1.75,0.07
,-9.325,-1.024,-3.156,-9.402,-1.003,-3.017,1.54,1.68,0.14
,-9.354,-1.036,-3.139,-9.409,-0.952,-3.037,1.82,1.75,0.21
,-9.351,-1.019,-3.07,-9.371,-0.955,-2.941,1.96,1.68,0.21
29302.0,-9.409,-1.005,-2.915,-9.411,-1.058,-2.986,2.24,2.31,0.42
,-9.402,-0.995,-2.855,-9.375,-1.065,-3.022,2.31,2.31,0.28
,-9.464,-1.019,-2.869,-9.399,-1.012,-3.218,2.38,2.38,0.35
,-9.43,-1.024,-2.943,-9.349,-0.952,-3.257,1.75,2.38,0.21
29378.0,-9.368,-0.943,-3.245,-9.414,-0.981,-3.08,1.75,2.31,0.14
,-9.328,-1.007,-3.214,-9.421,-1.003,-3.084,2.03,1.96,0.21
,-9.337,-1.007,-3.161,-9.366,-1.046,-3.053,2.59,1.68,0.21
,-9.392,-0.995,-3.123,-9.363,-0.981,-3.12,2.8,1.82,0.35
29453.0,-9.373,-1.062,-3.077,-9.409,-1.031,-2.934,1.89,1.05,-0.07
,-9.361,-1.017,-3.154,-9.445,-1.0,-2.907,2.03,1.12,0.07
,-9.359,-1.058,-3.046,-9.383,-1.005,-2.898,2.24,1.19,0.07
,-9.438,-1.067,-3.005,-9.399,-1.039,-2.946,2.8,1.4,0.21
29529.0,-9.38,-1.024,-2.97,-9.435,-0.983,-2.962,2.94,1.68,0.21
,-9.363,-0.991,-2.984,-9.395,-0.993,-3.029,3.15,1.89,0.21
,-9.416,-1.012,-3.003,-9.375,-0.995,-3.058,2.87,2.03,0.21
,-9.373,-1.031,-2.982,-9.347,-1.048,-3.159,2.66,2.1,0.14
29605.0,-9.33,-1.084,-3.163,-9.392,-1.115,-3.02,1.54,1.75,-0.07
,-9.344,-1.086,-3.128,-9.351,-1.144,-2.994,2.03,1.75,0.14
,-9.354,-1.06,-3.123,-9.395,-1.137,-2.986,2.31,1.82,0.21
,-9.371,-1.094,-3.041,-9.359,-1.084,-3.017,2.31,1.75,0.21
29681.0,-9.378,-1.005,-3.056,-9.34,-1.031,-3.118,2.52,1.82,0.42
,-9.385,-0.998,-3.082,-9.34,-0.998,-3.099,2.1,1.89,0.35
,-9.328,-1.017,-3.118,-9.378,-1.034,-3.01,1.89,1.75,0.28
,-9.301,-1.01,-3.139,-9.411,-1.055,-2.994,2.1,1.75,0.42
29756.0,-9.407,-1.139,-2.97,-9.342,-1.029,-3.211,2.45,1.75,0.56
,-9.418,-1.098,-3.034,-9.335,-1.096,-3.204,2.73,1.61,0.42
,-9.385,-1.046,-3.108,-9.359,-1.067,-3.168,2.59,1.68,0.42
,-9.359,-0.986,-3.156,-9.407,-1.031,-3.089,2.38,1.47,0.42
29832.0,-9.39,-0.983,-3.094,-9.349,-1.041,-2.974,2.66,1.05,0.42
,-9.409,-0.986,-3.056,-9.359,-1.015,-2.962,2.38,1.05,0.42
,-9.375,-1.005,-3.013,-9.397,-1.048,-2.96,2.03,1.12,0.42
,-9.38,-1.003,-3.082,-9.411,-1.096,-2.986,1.82,0.98,0.14
29907.0,-9.33,-1.127,-2.996,-9.39,-0.95,-3.084,1.96,1.61,0.35
,-9.378,-1.065,-3.041,-9.356,-0.964,-3.106,2.59,1.68,0.49
,-9.421,-1.015,-3.142,-9.392,-1.015,-3.027,2.94,1.68,0.42
,-9.407,-0.991,-3.135,-9.375,-0.983,-3.094,2.59,1.68,0.42
29983.0,-9.371,-1.015,-3.017,-9.392,-1.086,-3.159,2.66,1.61,0.28
,-9.335,-0.988,-3.111,-9.356,-1.137,-3.18,2.73,1.61,0.28
,-9.402,-0.962,-3.099,-9.344,-1.137,-3.166,2.45,1.54,0.14
,-9.395,-0.995,-3.171,-9.311,-1.106,-3.18,2.1,1.26,0.0
30059.0,-9.308,-1.055,-3.156,-9.335,-1.144,-2.979,2.73,0.56,0.21
,-9.378,-1.065,-3.049,-9.33,-1.094,-2.996,3.01,0.98,0.28
,-9.447,-1.074,-3.056,-9.407,-0.986,-3.001,3.01,0.77,0.21
,-9.356,-1.117,-3.058,-9.428,-1.007,-3.013,2.73,0.84,0.28
30135.0,-9.409,-1.055,-2.996,-9.366,-1.094,-3.075,1.96,0.84,0.0
,-9.344,-1.086,-3.013,-9.411,-1.077,-3.075,1.75,0.84,0.0
,-9.373,-1.153,-3.061,-9.347,-1.098,-3.123,2.1,0.84,0.07
,-9.356,-1.094,-3.07,-9.349,-1.108,-3.068,2.73,0.91,0.35
30211.0,-9.349,-1.108,-3.092,-9.347,-0.936,-3.017,2.94,0.56,0.21
,-9.38,-1.024,-3.118,-9.421,-1.024,-3.005,2.94,0.42,0.21
,-9.371,-0.979,-3.094,-9.452,-1.01,-2.927,2.52,0.49,0.14
,-9.383,-1.007,-3.008,-9.43,-1.079,-3.044,2.03,0.56,-0.07
30286.0,-9.395,-1.065,-3.029,-9.469,-1.015,-3.022,1.4,0.28,-0.56
,-9.414,-1.017,-3.013,-9.418,-1.07,-2.991,1.96,0.49,-0.49
,-9.385,-1.019,-3.032,-9.395,-1.163,-3.061,2.24,0.42,-0.49
,-9.428,-0.926,-3.039,-9.38,-1.139,-3.111,2.59,0.49,-0.56
30362.0,-9.373,-1.11,-3.065,-9.414,-1.024,-2.965,4.83,0.56,-0.28
,-9.426,-1.094,-3.099,-9.416,-1.019,-2.915,5.11,0.49,-0.35
,-9.414,-1.062,-3.051,-9.43,-1.029,-2.936,5.25,0.7,-0.28
,-9.383,-1.074,-2.97,-9.368,-1.015,-2.912,5.46,0.7,-0.21
30438.0,-9.34,-1.094,-2.912,-9.428,-0.945,-2.814,3.43,0.56,-0.7
,-9.375,-1.22,-2.848,-9.433,-0.873,-2.728,2.94,0.56,-0.84
,-9.387,-1.275,-2.807,-9.469,-0.835,-2.68,3.57,0.7,-0.77
,-9.462,-1.034,-2.85,-9.426,-0.936,-2.747,3.99,1.05,-0.7
30514.0,-9.392,-1.046,-2.716,-9.421,-1.244,-2.769,-0.07,1.75,-1.47
,-9.395,-1.237,-2.776,-9.344,-1.333,-2.869,0.21,2.1,-1.33
,-9.411,-1.307,-2.723,-9.316,-1.342,-2.881,1.12,2.38,-1.19
,-9.411,-1.232,-2.699,-9.328,-1.397,-2.929,1.82,2.87,-0.98
30589.0,-9.34,-1.393,-2.826,-9.414,-1.189,-2.28,0.84,3.99,-0.14
,-9.301,-1.259,-2.584,-9.387,-1.517,-2.553,1.96,4.9,0.28
,-9.464,-1.003,-2.551,-9.165,-1.713,-2.431,1.89,5.25,0.21
,-9.433,-0.976,-2.364,-9.337,-1.424,-2.63,-0.28,5.67,0.07
30665.0,-9.44,-1.165,-2.927,-9.21,-1.218,-2.178,-3.01,8.33,0.63
,-9.311,-1.11,-2.879,-9.44,-1.072,-1.96,-5.18,8.4,0.7
,-9.184,-1.273,-2.855,-9.691,-0.893,-1.508,-7.77,8.12,0.77
,-9.026,-1.283,-2.551,-10.024,-0.672,-1.866,-8.68,8.47,0.98
30740.0,-9.744,-0.737,-2.194,-8.713,-1.448,-3.685,-13.51,11.06,-0.14
,-9.648,-0.993,-2.807,-9.028,-1.094,-3.233,-16.1,10.99,0.07
,-9.098,-1.376,-3.843,-9.296,-0.802,-2.491,-19.04,10.22,-0.21
,-8.653,-1.639,-3.762,-9.83,-0.251,-3.455,-16.94,10.78,0.42
30816.0,-9.44,-0.244,-4.121,-8.825,-2.424,-3.91,-17.85,8.96,0.0
,-9.134,-1.024,-4.336,-8.923,-2.115,-3.295,-22.47,9.66,1.33
,-8.643,-1.895,-4.556,-9.311,-1.603,-3.336,-23.1,10.71,2.1
,-8.454,-2.417,-4.142,-9.028,-1.204,-3.561,-16.45,12.25,3.22
30892.0,-9.33,-1.431,-2.994,-8.997,-0.852,-2.927,-0.21,9.94,9.1
,-9.677,-1.412,-3.113,-9.273,-0.309,-3.364,-0.21,9.8,9.24
,-9.22,-1.484,-2.989,-9.426,0.268,-3.113,0.0,10.57,9.52
,-8.985,-1.462,-2.953,-9.445,0.754,-3.247,4.41,12.11,10.01
30968.0,-9.072,0.792,-2.876,-9.351,0.302,-4.14,3.71,15.54,5.53
,-9.258,0.648,-3.384,-9.124,-0.244,-4.109,0.91,15.61,3.85
,-9.033,0.493,-3.778,-8.94,-0.871,-3.568,-1.33,14.35,2.1
,-9.284,0.352,-3.826,-8.815,-1.235,-3.271,-1.05,13.65,1.47
31044.0,-8.971,-1.522,-3.013,-9.052,-1.077,-3.015,-5.46,17.71,-2.66
,-9.117,-1.778,-3.051,-8.796,-0.335,-3.664,-3.71,17.99,-0.98
,-9.21,-1.795,-3.058,-8.916,0.139,-4.121,-2.66,19.32,1.05
,-9.184,-1.63,-2.934,-9.17,0.373,-4.558,-1.47,20.79,2.38
31119.0,-9.024,0.067,-4.602,-9.081,-1.673,-3.762,-3.29,17.57,0.56
,-8.866,-0.711,-4.228,-8.842,-1.589,-3.886,-6.51,18.06,0.63
,-8.756,-1.299,-4.152,-8.717,-1.582,-4.03,-4.62,18.48,-0.07
,-8.871,-1.598,-3.888,-8.658,-1.462,-4.001,-0.07,18.48,-0.77
31195.0,-8.76,-1.024,-3.972,-8.801,0.39,-4.267,10.15,22.89,2.8
,-8.717,-0.562,-4.034,-8.61,0.034,-4.683,12.39,24.5,1.96
,-8.94,-0.012,-3.824,-8.418,-0.536,-4.597,13.09,24.5,1.12
,-8.849,0.419,-4.35,-8.77,-1.127,-4.274,9.87,22.89,0.42
31271.0,-8.995,-1.441,-4.128,-8.72,-1.467,-4.788,2.1,23.8,-2.24
,-9.007,-1.551,-4.02,-8.746,-1.077,-5.386,4.34,23.45,-1.75
,-8.703,-1.51,-4.439,-8.804,-0.739,-5.224,5.81,22.82,-0.21
,-8.504,-1.625,-4.743,-8.665,-0.625,-5.157,6.09,22.68,1.54
31347.0,-8.658,-0.352,-5.154,-8.626,-0.392,-5.205,-1.26,18.62,-0.14
,-8.485,-0.302,-5.147,-8.823,-0.749,-5.226,-3.99,17.85,-0.35
,-8.38,-0.156,-5.3,-8.911,-0.84,-5.386,-5.18,17.85,-0.63
,-8.445,-0.132,-5.274,-8.763,-0.763,-5.329,-5.6,18.2,-1.12
31422.0,-8.777,-0.89,-4.963,-8.124,-1.498,-5.288,0.98,19.32,-4.62
,-8.787,-1.11,-4.726,-8.229,-1.725,-5.183,-0.49,17.5,-4.41
,-8.504,-1.228,-4.848,-8.308,-1.91,-4.984,-2.59,15.68,-2.66
,-8.15,-1.359,-5.078,-8.476,-1.845,-4.819,-3.71,14.98,-0.91
31498.0,-8.569,-1.333,-4.805,-8.622,0.718,-5.389,0.63,17.22,1.96
,-8.638,-0.637,-5.02,-8.366,0.498,-5.508,2.24,15.96,1.54
,-8.524,0.062,-5.449,-8.323,0.256,-5.717,3.08,15.47,-0.21
,-8.543,0.505,-5.329,-8.277,0.127,-5.738,1.68,15.54,-2.24
31573.0,-8.332,-0.328,-5.925,-8.107,-2.603,-5.788,-3.01,14.56,-9.66
,-8.1,-0.986,-5.903,-8.461,-2.96,-5.676,-2.87,14.84,-10.08
,-8.04,-1.455,-5.8,-8.43,-3.226,-5.702,-0.84,15.12,-9.31
,-8.014,-1.857,-6.037,-8.44,-3.441,-5.413,1.96,14.84,-8.12
31649.0,-8.478,-3.343,-5.312,-8.332,-1.39,-5.836,10.92,9.94,2.52
,-7.995,-3.283,-5.506,-8.222,-0.739,-5.642,11.9,8.61,5.88
,-7.976,-2.874,-5.607,-8.105,-0.017,-5.731,13.72,9.03,8.33
,-8.351,-2.125,-5.731,-8.145,0.156,-5.669,16.03,8.26,9.87
31725.0,-8.203,-0.055,-5.564,-8.361,-0.208,-5.678,11.34,7.21,9.1
,-8.179,-0.266,-5.394,-8.387,-0.194,-5.688,10.57,7.35,8.75
,-8.21,-0.416,-5.47,-8.275,-0.165,-5.564,10.78,8.05,8.19
,-8.406,-0.385,-5.437,-7.973,-0.249,-5.58,12.25,8.12,7.35
31801.0,-7.999,-0.579,-5.733,-8.248,-1.216,-5.803,5.88,5.6,5.18
,-8.267,-0.809,-5.798,-8.224,-1.462,-6.023,4.34,5.88,4.55
,-8.375,-0.895,-5.937,-8.122,-1.728,-6.061,4.27,6.3,4.48
,-8.208,-1.05,-5.781,-8.16,-1.594,-6.004,3.22,6.51,4.83
31876.0,-8.107,-1.496,-6.114,-7.882,-1.022,-5.992,3.85,3.15,8.54
,-8.143,-1.256,-6.274,-8.229,-1.211,-5.698,4.69,3.01,7.98
,-8.062,-1.129,-6.073,-8.504,-1.211,-5.542,4.69,2.24,7.84
,-7.863,-1.0,-5.951,-8.208,-0.646,-5.901,3.78,1.4,8.12
31952.0,-8.071,-0.299,-5.954,-8.11,-0.809,-5.441,6.86,0.56,7.77
,-8.186,-0.187,-5.762,-8.124,-0.538,-5.628,6.23,0.7,6.93
,-8.287,-0.242,-5.731,-8.308,-0.383,-5.834,5.04,0.35,5.88
,-8.344,-0.56,-5.516,-8.449,-0.342,-5.944,3.85,-0.21,5.53
32027.0,-8.473,-0.412,-5.887,-8.253,-1.122,-5.54,1.68,1.47,0.56
,-8.27,-0.603,-5.678,-8.107,-0.694,-5.851,0.07,1.33,1.05
,-8.105,-0.94,-5.743,-8.11,-0.4,-6.152,-1.47,1.33,1.75
,-8.167,-1.247,-5.64,-8.332,-0.534,-6.035,-1.19,1.96,1.96
32103.0,-8.416,-0.833,-5.776,-8.349,-0.663,-6.121,-4.06,0.98,1.96
,-8.32,-0.873,-5.832,-8.423,-0.452,-6.198,-3.85,0.98,1.75
,-8.339,-0.809,-5.927,-8.184,-0.534,-6.207,-3.57,0.84,1.75
,-8.284,-0.656,-6.26,-8.155,-0.637,-6.104,-3.5,0.42,1.89
32179.0,-8.445,-0.704,-5.942,-8.342,-0.756,-6.1,-4.13,-3.43,2.45
,-8.516,-0.615,-5.968,-8.143,-0.847,-6.052,-3.5,-4.69,2.1
,-8.397,-0.598,-5.92,-8.186,-0.988,-5.669,-3.92,-5.32,1.82
,-8.418,-0.718,-5.985,-8.392,-0.869,-5.487,-4.9,-5.53,1.47
32255.0,-8.306,-0.962,-5.611,-8.21,-1.05,-5.391,-4.2,-8.12,1.54
,-8.251,-0.998,-5.508,-8.045,-1.278,-5.54,-4.55,-8.54,1.89
,-8.327,-0.972,-5.48,-8.107,-1.326,-5.788,-5.46,-9.94,2.38
,-8.246,-0.943,-5.532,-8.318,-1.491,-5.939,-6.44,-10.78,3.01
32331.0,-8.327,-1.45,-5.887,-8.409,-0.744,-5.669,-0.42,-9.45,6.58
,-8.248,-1.421,-5.884,-8.346,-0.493,-5.494,3.78,-7.63,6.79
,-8.301,-1.369,-5.796,-8.452,-0.232,-5.406,7.21,-6.09,6.58
,-8.354,-1.194,-5.741,-8.418,-0.251,-5.343,10.5,-5.11,7.0
32406.0,-8.397,-0.282,-5.513,-8.349,-0.055,-5.664,10.92,-11.27,7.28
,-8.574,-0.254,-5.556,-8.406,-0.096,-5.434,11.41,-12.53,7.7
,-8.507,-0.213,-5.745,-8.411,-0.273,-5.212,12.32,-13.79,7.42
,-8.375,-0.132,-5.748,-8.536,-0.421,-5.126,13.09,-14.28,6.58
32482.0,-8.569,-0.292,-5.173,-8.373,0.0,-5.171,13.3,-16.17,4.76
,-8.55,-0.091,-5.305,-8.366,-0.163,-4.982,13.86,-17.92,4.13
,-8.492,-0.06,-5.284,-8.488,-0.273,-4.748,12.95,-18.83,3.57
,-8.526,0.007,-5.219,-8.595,-0.644,-4.752,11.62,-19.39,3.01
32558.0,-8.882,-0.658,-4.604,-8.478,-0.632,-4.506,4.9,-19.81,0.35
,-8.832,-0.912,-4.511,-8.583,-0.706,-4.482,6.02,-19.81,0.98
,-8.818,-0.83,-4.525,-8.775,-0.842,-4.53,7.14,-20.58,1.54
,-8.61,-0.732,-4.551,-8.715,-0.799,-4.46,7.77,-20.72,1.82
32634.0,-8.756,-0.857,-4.338,-8.727,-0.357,-4.314,5.53,-19.39,2.8
,-8.796,-0.732,-4.362,-8.638,-0.206,-4.283,6.44,-19.6,2.24
,-8.722,-0.711,-4.276,-8.689,-0.208,-4.221,6.65,-19.74,1.89
,-8.784,-0.555,-4.365,-8.734,-0.297,-4.343,6.51,-19.67,1.96
32709.0,-8.617,-0.024,-3.367,-9.069,-0.835,-4.097,1.68,-20.16,0.84
,-8.65,-1.206,-4.166,-8.985,-0.397,-4.401,1.75,-20.16,2.17
,-9.246,-1.204,-3.951,-9.052,-0.579,-4.432,5.11,-19.6,2.45
,-8.806,-1.271,-4.042,-9.021,-0.763,-4.424,7.7,-19.39,2.1
32785.0,-8.825,-0.967,-4.142,-9.0,-0.242,-3.821,3.64,-21.07,3.5
,-8.899,-1.039,-3.872,-8.906,-0.383,-3.731,6.65,-20.3,2.73
,-9.069,-0.684,-3.788,-8.897,-0.632,-3.498,9.59,-20.51,1.75
,-9.052,-0.309,-3.814,-9.028,-0.754,-3.364,10.5,-21.07,1.47
32860.0,-9.194,-0.603,-3.228,-9.11,-0.275,-2.984,13.65,-19.11,1.47
,-9.457,-0.132,-3.345,-9.143,-0.491,-2.747,15.33,-19.67,0.91
,-9.359,0.177,-3.412,-9.253,-0.514,-2.886,12.39,-19.88,0.49
,-9.237,0.098,-3.333,-9.363,-0.299,-3.338,8.68,-18.76,0.42
32936.0,-9.115,-0.225,-3.486,-9.301,-0.876,-2.436,4.62,-17.92,-2.17
,-8.993,-0.479,-3.434,-9.323,-0.644,-2.134,3.01,-16.94,-1.61
,-9.093,-0.804,-3.077,-9.397,-0.337,-2.168,4.34,-15.75,-2.03
,-9.268,-1.058,-2.907,-9.414,-0.292,-2.302,7.7,-14.7,-2.8
33012.0,-9.354,-0.419,-2.534,-9.517,-0.397,-2.625,7.14,-10.64,-2.59
,-9.409,-0.395,-2.764,-9.45,-0.414,-2.558,5.46,-10.43,-3.08
,-9.251,-0.402,-2.86,-9.445,-0.39,-2.29,3.99,-9.94,-3.71
,-9.32,-0.474,-2.592,-9.564,-0.443,-2.761,4.06,-8.82,-4.13
33088.0,-9.5,-0.572,-3.051,-9.351,-1.041,-2.556,-4.83,-7.77,-7.35
,-9.261,-0.775,-3.288,-9.373,-0.9,-2.324,-6.44,-7.42,-7.21
,-9.072,-0.873,-3.077,-9.43,-0.778,-2.324,-6.23,-6.93,-7.14
,-9.182,-1.058,-2.857,-9.39,-0.964,-2.553,-3.92,-5.81,-6.79
33163.0,-9.328,-1.223,-2.436,-9.584,-1.07,-2.357,-6.3,-3.43,-5.81
,-9.22,-1.464,-2.632,-9.529,-0.718,-2.118,-5.6,-2.66,-5.46
,-9.134,-1.62,-2.448,-9.598,-0.426,-2.204,-3.36,-1.4,-4.48
,-9.38,-1.522,-2.213,-9.476,-0.414,-2.553,1.82,0.28,-2.94
33239.0,-9.366,-0.56,-2.836,-9.227,-1.034,-3.764,1.89,3.08,-3.15
,-9.445,-0.436,-2.943,-9.385,-1.168,-3.824,2.31,3.29,-3.22
,-9.433,-0.534,-3.515,-9.505,-1.149,-3.958,1.47,2.94,-3.71
,-9.251,-0.823,-3.709,-9.548,-1.01,-4.329,0.91,3.01,-3.71
33315.0,-9.337,-0.945,-4.594,-9.545,-0.89,-4.31,3.64,-2.8,-3.71
,-9.139,-0.955,-4.669,-9.426,-0.692,-4.209,2.94,-4.69,-3.78
,-9.095,-1.12,-4.618,-9.217,-0.586,-3.963,3.71,-5.95,-3.71
,-9.189,-1.041,-4.173,-9.129,-0.883,-3.534,7.84,-6.44,-3.08
33391.0,-9.299,-1.177,-3.013,-9.38,-1.342,-1.792,12.95,-11.69,-3.08
,-9.454,-1.223,-2.704,-9.529,-1.488,-1.455,15.47,-11.76,-2.73
,-9.454,-1.23,-2.481,-9.529,-1.493,-1.476,15.54,-11.97,-2.45
,-9.38,-1.168,-2.113,-9.517,-1.345,-1.266,14.7,-11.69,-1.96
33467.0,-9.485,-1.17,-1.309,-9.586,-1.019,-1.103,11.41,-5.04,-0.7
,-9.488,-1.323,-1.163,-9.725,-0.794,-1.321,10.78,-2.87,-0.35
,-9.476,-1.287,-1.125,-9.72,-0.83,-1.651,11.27,-0.77,0.07
,-9.524,-1.266,-1.048,-9.608,-0.883,-1.996,12.11,1.4,0.56
33542.0,-9.545,-1.091,-2.474,-9.318,-1.216,-3.494,4.55,6.72,-0.21
,-9.368,-1.342,-2.915,-9.409,-1.184,-3.575,3.43,6.79,-0.35
,-9.225,-1.393,-3.199,-9.359,-1.211,-3.338,3.99,6.86,-0.21
,-9.174,-1.297,-3.321,-9.349,-1.232,-3.161,4.55,6.65,0.0
33618.0,-9.335,-1.206,-2.924,-9.438,-0.871,-2.615,2.94,4.13,-0.14
,-9.471,-0.938,-2.965,-9.543,-0.926,-2.563,3.36,3.85,-0.35
,-9.55,-0.809,-2.879,-9.567,-0.797,-2.611,2.1,3.5,-0.49
,-9.519,-0.792,-2.692,-9.562,-0.842,-2.685,0.14,3.43,-0.63
33693.0,-9.536,-0.907,-2.891,-9.373,-1.141,-3.582,-4.13,3.22,-2.31
,-9.488,-1.091,-3.108,-9.33,-1.046,-3.573,-4.97,3.01,-2.52
,-9.359,-1.139,-3.25,-9.289,-1.194,-3.348,-4.69,2.17,-2.8
,-9.469,-1.161,-3.46,-9.337,-1.421,-3.171,-4.27,1.26,-3.15
33769.0,-9.414,-1.527,-3.309,-9.418,-1.452,-3.226,1.19,-0.77,-2.1
,-9.44,-1.374,-3.29,-9.371,-1.421,-3.039,4.83,-1.12,-1.4
,-9.361,-1.307,-3.288,-9.378,-1.354,-2.795,6.16,-1.54,-0.91
,-9.347,-1.338,-3.242,-9.5,-1.251,-2.726,7.21,-1.89,-0.42
33845.0,-9.488,-1.173,-2.527,-9.485,-1.175,-2.237,8.12,-2.17,0.0
,-9.502,-1.149,-2.257,-9.423,-1.132,-2.168,6.65,-1.68,0.14
,-9.574,-1.113,-2.249,-9.433,-0.995,-1.991,5.6,-1.33,-0.14
,-9.552,-1.223,-2.28,-9.576,-0.897,-1.943,4.62,-0.84,-0.42
33921.0,-9.651,-0.866,-2.02,-9.308,-1.362,-2.927,1.4,3.08,-0.7
,-9.66,-0.924,-2.221,-9.316,-1.443,-3.039,-0.63,3.36,-1.19
,-9.643,-1.031,-2.481,-9.313,-1.316,-3.013,-2.52,3.36,-1.61
,-9.423,-1.244,-2.721,-9.39,-1.206,-2.979,-3.85,3.57,-1.75
33996.0,-9.454,-1.201,-2.91,-9.452,-1.285,-3.025,0.98,4.06,-0.91
,-9.445,-1.278,-2.862,-9.375,-1.261,-3.075,0.98,3.64,-0.98
,-9.457,-1.237,-2.819,-9.428,-1.321,-3.051,1.61,3.64,-0.91
,-9.481,-1.287,-3.037,-9.368,-1.311,-3.032,1.96,3.36,-0.91
34072.0,-9.368,-1.314,-2.929,-9.366,-1.285,-2.953,3.78,3.01,-0.42
,-9.469,-1.249,-2.962,-9.363,-1.338,-2.936,4.34,2.87,-0.28
,-9.43,-1.247,-2.938,-9.397,-1.369,-2.979,4.34,2.59,-0.21
,-9.43,-1.235,-2.927,-9.361,-1.307,-2.982,4.2,2.17,-0.28
34147.0,-9.404,-1.295,-2.85,-9.485,-1.283,-2.551,5.81,1.96,0.42
,-9.454,-1.268,-2.754,-9.536,-1.237,-2.647,5.81,2.1,0.56
,-9.39,-1.287,-2.639,-9.502,-1.242,-2.687,5.88,2.24,0.7
,-9.418,-1.254,-2.663,-9.517,-1.232,-2.766,5.39,2.38,0.56
34223.0,-9.421,-1.295,-2.848,-9.373,-1.295,-2.857,0.63,1.96,0.0
,-9.265,-1.304,-2.833,-9.409,-1.283,-2.824,0.63,2.31,0.21
,-9.373,-1.362,-2.867,-9.402,-1.34,-2.836,0.42,2.45,0.28
,-9.397,-1.335,-2.917,-9.392,-1.371,-2.836,0.63,2.38,0.35
34299.0,-9.45,-1.347,-2.958,-9.363,-1.292,-2.984,-0.49,2.17,0.42
,-9.368,-1.376,-2.965,-9.356,-1.247,-2.91,0.07,1.96,0.49
,-9.395,-1.385,-3.013,-9.411,-1.204,-2.862,0.84,1.96,0.7
,-9.33,-1.297,-3.008,-9.512,-1.18,-2.953,1.61,1.82,0.98
34375.0,-9.402,-1.23,-3.037,-9.423,-1.285,-2.714,1.68,1.33,1.12
,-9.294,-1.314,-2.924,-9.454,-1.244,-2.709,1.4,1.26,1.26
,-9.318,-1.34,-2.879,-9.44,-1.199,-2.63,1.54,1.33,1.26
,-9.38,-1.328,-2.812,-9.442,-1.206,-2.702,2.17,1.33,1.4
34451.0,-9.457,-1.208,-2.745,-9.397,-1.208,-2.886,0.49,2.03,1.12
,-9.392,-1.249,-2.802,-9.385,-1.268,-2.893,0.14,2.1,1.05
,-9.363,-1.259,-2.821,-9.395,-1.242,-2.807,0.0,2.17,0.98
,-9.423,-1.244,-2.852,-9.471,-1.211,-2.862,0.07,2.31,0.98
34526.0,-9.466,-1.24,-2.869,-9.421,-1.218,-3.08,-0.07,2.38,0.91
,-9.459,-1.208,-2.955,-9.395,-1.199,-3.089,-0.07,1.96,0.91
,-9.404,-1.259,-3.005,-9.356,-1.192,-3.046,-0.07,2.1,0.91
,-9.442,-1.237,-3.106,-9.418,-1.23,-2.95,0.49,2.17,0.91
34602.0,-9.416,-1.184,-2.8,-9.433,-1.175,-2.855,2.17,1.89,1.26
,-9.454,-1.079,-2.692,-9.421,-1.206,-2.855,1.47,1.75,1.05
,-9.478,-1.196,-2.721,-9.325,-1.275,-2.907,0.56,1.82,0.84
,-9.459,-1.199,-2.745,-9.38,-1.275,-2.967,0.14,2.1,0.84
34678.0,-9.423,-1.283,-2.922,-9.481,-1.206,-2.898,1.61,2.52,1.19
,-9.423,-1.211,-2.912,-9.426,-1.211,-2.917,2.03,2.31,1.12
,-9.426,-1.194,-2.852,-9.368,-1.213,-2.965,1.89,2.31,0.98
,-9.478,-1.146,-2.936,-9.414,-1.192,-2.979,1.61,2.17,0.91
34754.0,-9.43,-1.132,-2.931,-9.433,-1.196,-2.941,0.7,2.03,0.63
,-9.433,-1.175,-2.967,-9.395,-1.196,-3.027,0.35,1.82,0.56
,-9.373,-1.175,-2.924,-9.421,-1.216,-2.953,0.0,1.68,0.7
,-9.354,-1.199,-2.927,-9.416,-1.242,-2.994,-0.14,1.75,0.63
34829.0,-9.392,-1.24,-3.01,-9.459,-1.149,-2.905,0.77,1.4,0.77
,-9.368,-1.249,-3.015,-9.416,-1.115,-2.991,1.19,1.54,0.84
,-9.325,-1.283,-3.005,-9.411,-1.156,-2.977,1.54,1.68,0.84
,-9.383,-1.285,-2.95,-9.33,-1.134,-2.91,2.17,1.61,0.91
34905.0,-9.39,-1.137,-2.895,-9.38,-1.108,-2.893,2.94,1.4,0.84
,-9.418,-1.165,-2.86,-9.349,-1.163,-2.824,3.22,1.54,0.84
,-9.438,-1.127,-2.874,-9.464,-1.158,-2.807,3.43,1.4,0.84
,-9.38,-1.103,-2.862,-9.474,-1.158,-2.845,3.57,1.54,0.84
34980.0,-9.457,-1.165,-2.809,-9.44,-1.144,-2.869,2.24,1.82,0.35
,-9.435,-1.158,-2.862,-9.39,-1.177,-2.922,1.96,2.03,0.28
,-9.428,-1.192,-2.838,-9.359,-1.194,-2.809,1.68,1.75,0.21
,-9.363,-1.132,-2.862,-9.38,-1.307,-2.819,1.47,1.89,0.0
35056.0,-9.423,-1.278,-2.776,-9.414,-1.187,-2.795,0.7,2.24,0.07
,-9.466,-1.17,-2.881,-9.38,-1.299,-2.709,1.05,2.24,0.0
,-9.395,-1.146,-2.843,-9.442,-1.23,-2.802,0.63,2.1,0.0
,-9.407,-1.146,-2.771,-9.438,-1.232,-2.766,-0.14,2.31,0.07
35132.0,-9.392,-1.266,-2.749,-9.474,-1.156,-2.721,-0.98,2.73,0.14
,-9.402,-1.295,-2.709,-9.466,-1.175,-2.749,-1.4,2.8,0.14
,-9.416,-1.249,-2.754,-9.49,-1.048,-2.723,-1.89,3.01,0.21
,-9.411,-1.228,-2.737,-9.485,-1.101,-2.871,-2.59,3.29,0.21
35208.0,-9.39,-1.22,-3.094,-9.241,-0.96,-3.135,-9.31,3.15,-0.98
,-9.299,-1.421,-3.113,-9.301,-0.921,-2.989,-9.8,3.29,-0.63
,-9.351,-1.436,-3.192,-9.373,-1.184,-2.728,-9.17,3.08,-0.35
,-9.347,-1.228,-3.25,-9.5,-1.244,-2.79,-8.89,2.24,-0.35
35283.0,-9.509,-1.256,-2.668,-9.615,-0.823,-2.345,-11.27,2.17,-0.21
,-9.311,-1.196,-2.453,-9.387,-0.988,-2.551,-10.71,2.94,0.35
,-9.282,-1.106,-2.161,-9.196,-1.321,-2.85,-10.15,4.34,0.56
,-9.622,-0.931,-2.19,-9.115,-1.508,-3.144,-9.52,5.39,0.21
35359.0,-9.146,-1.51,-3.458,-9.182,-0.943,-2.757,-10.99,6.16,0.35
,-9.095,-1.441,-3.601,-9.385,-0.931,-2.704,-8.61,5.53,0.77
,-9.036,-1.134,-3.553,-9.39,-0.955,-2.589,-5.53,4.9,1.12
,-9.191,-0.871,-3.419,-9.502,-1.266,-2.312,-4.06,4.62,1.05
35435.0,-9.383,-1.46,-2.032,-9.043,-0.766,-3.089,-2.03,7.21,2.31
,-9.402,-1.364,-1.591,-8.832,-1.275,-3.46,0.63,9.52,2.87
,-9.706,-0.943,-1.225,-9.007,-2.048,-3.79,3.15,11.76,2.59
,-9.677,-0.593,-2.668,-8.985,-2.436,-3.479,-0.7,10.01,1.12
35511.0,-9.246,-2.111,-3.23,-9.229,-0.68,-3.137,4.2,14.77,6.51
,-9.395,-1.101,-3.582,-9.28,-1.129,-2.728,10.5,14.35,6.37
,-9.28,-0.376,-3.685,-9.684,-1.043,-3.166,10.29,13.02,5.95
,-9.139,-0.306,-3.388,-9.421,-0.663,-4.19,6.23,13.09,6.3
35587.0,-9.014,-0.579,-4.346,-9.407,-0.519,-3.644,1.19,10.36,4.97
,-9.0,-0.96,-4.547,-9.466,0.153,-3.25,-2.17,9.66,5.6
,-8.909,-1.412,-3.927,-9.423,0.282,-3.798,-1.61,9.59,5.6
,-9.459,-1.271,-3.336,-9.131,-0.278,-3.515,4.9,9.87,4.69
35662.0,-9.562,-0.916,-3.489,-8.794,-0.237,-3.793,-6.93,10.15,0.49
,-9.576,-0.902,-3.944,-9.201,-0.524,-3.592,-4.9,8.61,0.14
,-9.256,-0.605,-3.857,-9.206,-0.871,-4.049,-2.03,7.98,-0.07
,-9.067,-0.273,-4.207,-9.366,-1.383,-3.984,-1.26,7.91,-1.12
35738.0,-9.217,-1.833,-4.011,-9.062,-1.125,-3.293,-7.56,4.97,0.28
,-8.827,-2.345,-3.532,-9.098,-0.943,-3.245,-5.04,6.86,1.4
,-8.938,-2.565,-2.603,-8.832,-1.06,-3.302,1.33,9.17,1.75
,-9.239,-1.957,-2.558,-8.684,-1.45,-2.84,7.91,8.82,2.17
35813.0,-8.902,-1.938,-2.541,-9.107,-2.029,-2.879,7.77,16.03,5.53
,-9.04,-2.12,-2.848,-9.021,-1.706,-2.733,11.62,16.87,6.86
,-9.064,-2.201,-2.986,-9.112,-1.113,-2.9,14.77,17.43,9.87
,-9.127,-2.168,-3.044,-9.464,-0.696,-3.202,17.43,18.48,13.16
35889.0,-9.308,-0.225,-3.57,-9.014,0.325,-4.372,18.97,19.39,13.51
,-8.88,0.153,-3.821,-9.158,0.414,-4.537,14.35,20.72,13.79
,-8.686,0.273,-3.676,-9.115,0.424,-4.678,11.06,22.89,12.88
,-8.825,0.27,-3.888,-9.095,0.256,-4.487,10.57,22.96,10.57
35965.0,-8.88,0.29,-4.63,-8.748,-0.419,-4.724,6.09,19.04,1.12
,-8.859,0.309,-4.872,-8.684,-0.902,-4.448,4.69,17.85,-1.75
,-9.083,0.196,-4.87,-8.933,-1.07,-4.372,1.12,16.31,-2.73
,-8.971,0.124,-5.025,-9.263,-0.818,-4.094,-3.29,15.47,-2.45
36041.0,-9.325,-0.22,-4.097,-8.832,0.017,-3.79,-2.52,13.72,-7.07
,-9.026,0.345,-4.03,-8.753,-0.459,-3.984,-3.99,13.3,-8.68
,-8.737,0.428,-3.975,-8.581,-1.206,-3.989,-7.77,14.0,-9.59
,-8.533,0.302,-3.932,-8.504,-2.216,-3.81,-10.78,14.84,-9.8
36116.0,-8.447,-3.147,-3.783,-9.227,-1.529,-4.896,-10.92,20.44,-3.92
,-8.531,-3.723,-3.872,-8.72,-0.512,-5.217,-5.81,21.42,-0.98
,-8.83,-3.379,-4.257,-8.234,0.019,-5.406,1.33,20.72,1.89
,-9.095,-2.517,-4.661,-8.15,0.213,-5.343,7.21,19.25,3.57
36192.0,-8.402,0.273,-5.142,-8.897,-0.187,-4.606,-7.21,14.84,2.73
,-8.715,0.163,-4.913,-8.763,-0.359,-4.953,-7.98,14.63,1.54
,-8.882,0.081,-4.874,-8.581,-0.56,-5.066,-7.0,14.35,0.35
,-8.973,-0.017,-4.685,-8.497,-0.981,-5.231,-5.25,14.0,-0.98
36268.0,-8.567,-1.173,-5.288,-8.004,-1.84,-5.391,0.0,9.87,-2.31
,-8.402,-1.153,-5.616,-8.586,-2.077,-5.274,1.82,8.05,-1.82
,-8.143,-1.342,-5.75,-9.15,-2.012,-5.327,2.03,7.49,-1.12
,-7.961,-1.606,-5.506,-9.682,-1.572,-5.319,1.4,9.1,0.14
36344.0,-9.27,-1.4,-5.719,-8.684,-1.036,-5.382,10.92,5.18,4.55
,-8.6,-1.567,-5.774,-8.571,-0.89,-5.195,10.15,5.18,5.46
,-8.49,-1.515,-5.602,-8.339,-0.498,-5.329,11.2,4.69,6.09
,-8.366,-1.261,-5.757,-8.256,-0.392,-5.363,13.93,4.2,5.81
36419.0,-8.263,-0.615,-5.355,-8.634,-0.043,-5.016,11.13,2.24,4.9
,-8.703,-0.778,-5.09,-9.002,0.292,-5.059,11.69,2.24,4.9
,-8.744,-0.792,-5.051,-8.861,0.191,-5.178,13.3,1.82,5.74
,-8.421,-0.632,-4.958,-8.815,-0.503,-4.898,14.98,2.31,5.6
36495.0,-8.701,-1.249,-4.609,-8.282,-1.175,-4.542,7.28,0.7,1.96
,-8.406,-1.419,-4.74,-8.49,-0.699,-5.001,9.1,0.91,3.08
,-8.232,-1.173,-4.769,-8.67,0.364,-5.284,10.43,1.4,3.85
,-7.98,-1.015,-4.803,-8.926,0.648,-5.059,10.36,2.31,4.62
36571.0,-9.122,0.203,-4.822,-7.887,-1.886,-4.87,2.38,3.36,0.14
,-9.167,-0.5,-4.554,-8.114,-1.783,-5.049,-1.33,4.13,-0.63
,-9.062,-1.189,-4.082,-8.435,-1.455,-5.298,-2.8,4.41,0.56
,-8.435,-1.62,-4.444,-8.691,-1.247,-5.334,-2.52,4.06,1.96
36646.0,-8.624,-1.086,-5.291,-8.954,-0.653,-4.927,6.72,3.85,3.99
,-8.66,-0.711,-5.214,-9.086,-0.828,-4.834,7.21,4.69,3.29
,-8.89,-0.383,-4.984,-8.595,-0.981,-4.972,6.51,4.83,2.17
,-9.069,-0.371,-4.989,-8.248,-0.89,-5.008,4.48,4.76,1.26
36722.0,-8.119,-0.404,-5.432,-8.646,-0.737,-5.427,8.4,5.74,-0.14
,-8.6,0.139,-5.432,-8.469,-1.242,-5.331,8.96,5.67,-0.77
,-8.78,0.354,-5.501,-8.088,-1.685,-5.523,7.35,4.76,-1.54
,-8.631,-0.048,-5.705,-8.232,-1.914,-5.654,3.99,4.06,-2.87
36798.0,-8.547,-2.015,-5.578,-8.648,-1.091,-5.82,-0.14,3.22,-0.77
,-8.449,-1.778,-5.566,-8.923,-1.412,-5.425,1.75,2.24,0.07
,-8.394,-1.065,-5.731,-8.933,-1.314,-5.233,2.66,1.75,0.77
,-8.588,-0.706,-5.822,-8.66,-0.96,-5.444,-0.7,0.91,1.19
36874.0,-8.514,-0.782,-5.64,-8.411,-1.84,-5.257,0.56,-1.4,2.24
,-8.418,-0.871,-5.712,-8.619,-1.541,-5.513,-1.05,-1.75,2.94
,-8.66,-1.452,-5.183,-8.916,-1.18,-5.537,-2.94,-2.17,3.92
,-8.37,-1.869,-5.173,-8.871,-0.871,-5.377,-2.59,-2.45,5.04
36949.0,-8.586,-0.794,-5.334,-8.402,1.06,-5.365,0.42,-5.95,7.77
,-8.346,-0.531,-5.437,-8.32,1.151,-5.365,-0.49,-5.18,7.42
,-8.76,-0.194,-5.08,-8.693,0.598,-5.307,-1.26,-5.53,7.21
,-8.849,0.471,-5.095,-8.933,-0.043,-5.085,-0.56,-7.7,6.02
37025.0,-8.914,-0.727,-4.984,-8.765,-1.565,-4.625,-9.73,-11.13,-2.59
,-8.679,-1.165,-4.925,-8.947,-1.56,-4.563,-7.35,-10.78,-2.8
,-8.502,-1.333,-5.047,-8.72,-1.761,-4.671,-3.57,-9.94,-2.66
,-8.526,-1.311,-5.047,-8.437,-1.701,-4.58,1.12,-8.61,-2.59
37101.0,-8.143,-1.639,-4.697,-8.835,-0.586,-4.893,2.1,-11.62,3.99
,-8.157,-1.541,-4.884,-8.653,-0.467,-4.86,2.1,-11.48,5.25
,-8.691,-1.338,-4.786,-8.686,-0.364,-4.829,2.52,-11.69,5.95
,-8.976,-0.964,-4.783,-8.717,-0.163,-4.877,2.73,-12.6,6.3
37177.0,-8.799,-0.062,-4.769,-8.526,-0.144,-4.917,6.72,-7.91,3.57
,-9.344,-0.352,-4.013,-8.832,0.0,-4.879,4.83,-10.15,3.43
,-8.756,-0.187,-4.57,-8.978,0.239,-4.759,4.76,-13.65,4.27
,-8.406,-0.122,-4.829,-8.823,0.194,-4.63,5.6,-14.77,4.62
37252.0,-8.777,0.215,-4.436,-9.581,-0.967,-3.821,13.58,-11.48,-0.35
,-8.665,-0.06,-4.329,-9.56,-0.96,-3.987,13.02,-9.59,-1.26
,-8.485,-0.598,-4.087,-8.66,-0.713,-4.465,12.88,-6.44,-2.03
,-9.016,-0.768,-3.963,-8.681,-0.704,-4.436,12.74,-5.46,-3.08
37328.0,-8.662,-0.933,-4.501,-8.981,-0.845,-4.011,-5.81,-14.91,-3.08
,-9.105,-1.031,-4.233,-8.715,-0.749,-3.924,-5.95,-14.42,-2.59
,-9.072,-1.213,-4.039,-8.815,-0.759,-3.941,-4.97,-15.12,-1.4
,-9.11,-1.062,-4.003,-8.973,-0.763,-3.896,-3.92,-16.59,-0.77
37403.0,-9.129,-0.687,-3.92,-9.014,-1.491,-4.051,-1.75,-17.78,-1.89
,-8.978,-0.596,-4.006,-9.428,-1.575,-3.936,-2.24,-16.66,-2.17
,-8.885,-0.811,-4.03,-9.122,-1.362,-3.975,-3.36,-15.26,-2.17
,-8.806,-1.12,-4.08,-8.928,-0.933,-3.955,-3.43,-13.51,-1.75
37479.0,-8.835,-0.641,-3.987,-8.928,-0.9,-3.642,6.86,-14.7,0.0
,-9.024,-0.503,-3.91,-9.081,-1.094,-3.381,6.58,-14.91,-0.7
,-9.186,-0.536,-3.75,-9.177,-1.053,-3.458,4.55,-15.05,-0.84
,-9.055,-0.665,-3.747,-9.189,-0.883,-3.63,2.38,-14.7,-0.21
37555.0,-9.139,-0.665,-3.853,-9.119,-0.455,-3.525,12.11,-11.06,0.56
,-9.265,-0.637,-3.764,-9.215,-0.529,-3.446,12.25,-11.06,1.19
,-9.172,-0.538,-3.886,-9.17,-0.627,-3.233,12.18,-11.55,1.33
,-9.033,-0.514,-3.946,-9.227,-0.723,-3.34,12.88,-11.48,1.05
37631.0,-9.378,-0.632,-3.522,-9.036,-1.491,-3.12,9.59,-11.9,-1.05
,-9.287,-0.541,-3.673,-9.127,-1.737,-3.003,8.61,-12.25,-0.84
,-9.15,-0.78,-3.549,-9.177,-1.464,-3.195,6.3,-11.83,-0.63
,-9.088,-1.242,-3.269,-9.385,-0.972,-3.202,6.02,-10.57,0.07
37707.0,-9.452,-0.651,-3.149,-9.363,-0.409,-2.773,20.86,-11.69,3.08
,-9.526,-0.503,-3.07,-9.378,-0.395,-3.211,18.83,-11.9,2.66
,-9.361,-0.505,-2.848,-9.273,-0.321,-3.484,16.45,-11.41,1.96
,-9.277,-0.428,-2.642,-9.292,-0.373,-3.192,13.58,-10.64,1.26
37782.0,-9.44,-0.538,-3.336,-9.452,-1.249,-2.402,7.98,-12.46,-1.61
,-9.354,-0.706,-3.185,-9.395,-1.405,-2.058,7.98,-12.6,-2.87
