Timestamp,AccX,AccY,AccZ,GyroX,GyroY,GyroZ,MagnX,MagnY,MagnZ
0.0,-9.277,-1.388,-3.331,-9.282,-1.283,-3.297,2.1,0.98,0.77
,-9.294,-1.371,-3.269,-9.277,-1.254,-3.29,2.52,1.05,0.84
,-9.284,-1.311,-3.302,-9.263,-1.345,-3.269,2.87,1.12,0.91
,-9.28,-1.271,-3.271,-9.275,-1.335,-3.271,2.8,0.91,0.98
76.0,-9.289,-1.321,-3.247,-9.292,-1.304,-3.173,2.31,0.98,0.84
,-9.277,-1.29,-3.245,-9.316,-1.345,-3.156,2.45,1.05,0.77
,-9.253,-1.29,-3.185,-9.304,-1.321,-3.228,2.17,1.05,0.7
,-9.28,-1.287,-3.173,-9.282,-1.29,-3.199,1.96,1.26,0.84
152.0,-9.34,-1.295,-3.197,-9.294,-1.307,-3.281,2.24,1.68,0.91
,-9.308,-1.275,-3.25,-9.258,-1.297,-3.307,2.03,1.61,0.91
,-9.313,-1.316,-3.254,-9.308,-1.275,-3.295,2.1,1.75,0.84
,-9.284,-1.259,-3.309,-9.316,-1.254,-3.273,2.17,1.68,0.84
227.0,-9.323,-1.261,-3.333,-9.28,-1.323,-3.285,2.31,1.75,0.84
,-9.251,-1.271,-3.293,-9.301,-1.299,-3.285,2.24,1.54,0.77
,-9.256,-1.275,-3.321,-9.299,-1.323,-3.271,2.24,1.47,0.7
,-9.292,-1.307,-3.312,-9.323,-1.247,-3.281,2.38,1.54,0.84
302.0,-9.313,-1.304,-3.302,-9.318,-1.283,-3.293,2.03,1.54,0.7
,-9.27,-1.328,-3.278,-9.277,-1.24,-3.285,1.89,1.4,0.63
,-9.282,-1.314,-3.245,-9.282,-1.285,-3.297,1.89,1.4,0.63
,-9.28,-1.256,-3.281,-9.275,-1.302,-3.264,2.1,1.4,0.63
378.0,-9.292,-1.299,-3.278,-9.294,-1.278,-3.309,2.66,1.68,0.77
,-9.253,-1.297,-3.278,-9.277,-1.314,-3.264,2.87,1.61,0.77
,-9.265,-1.285,-3.3,-9.323,-1.271,-3.278,2.8,1.33,0.77
,-9.275,-1.307,-3.319,-9.256,-1.307,-3.25,2.73,1.33,0.77
454.0,-9.277,-1.347,-3.233,-9.246,-1.292,-3.221,2.38,1.19,0.63
,-9.282,-1.321,-3.18,-9.263,-1.347,-3.29,2.59,1.47,0.77
,-9.306,-1.287,-3.262,-9.268,-1.354,-3.276,2.8,1.47,0.77
,-9.342,-1.254,-3.259,-9.258,-1.335,-3.305,2.8,1.47,0.84
530.0,-9.28,-1.304,-3.324,-9.284,-1.333,-3.302,2.87,1.4,0.77
,-9.294,-1.273,-3.309,-9.289,-1.285,-3.345,2.73,1.4,0.7
,-9.273,-1.292,-3.321,-9.299,-1.249,-3.326,2.52,1.47,0.7
,-9.296,-1.314,-3.34,-9.239,-1.235,-3.333,2.38,1.4,0.77
605.0,-9.289,-1.304,-3.273,-9.27,-1.299,-3.283,2.52,0.91,0.77
,-9.265,-1.297,-3.295,-9.284,-1.307,-3.288,2.59,1.05,0.77
,-9.275,-1.256,-3.317,-9.308,-1.292,-3.233,2.66,1.12,0.77
,-9.239,-1.259,-3.3,-9.311,-1.316,-3.233,2.52,0.98,0.77
681.0,-9.308,-1.323,-3.206,-9.268,-1.278,-3.228,2.1,0.91,0.7
,-9.284,-1.323,-3.202,-9.268,-1.29,-3.235,2.24,1.12,0.91
,-9.308,-1.299,-3.211,-9.296,-1.266,-3.24,2.45,1.26,0.84
,-9.318,-1.283,-3.235,-9.244,-1.28,-3.221,2.52,1.4,0.84
757.0,-9.251,-1.29,-3.25,-9.325,-1.275,-3.252,3.01,1.4,0.77
,-9.27,-1.271,-3.3,-9.328,-1.283,-3.242,3.01,1.4,0.77
,-9.275,-1.309,-3.305,-9.299,-1.249,-3.233,3.01,1.4,0.77
,-9.289,-1.275,-3.3,-9.296,-1.263,-3.166,2.87,1.4,0.7
833.0,-9.304,-1.307,-3.23,-9.311,-1.347,-3.233,2.45,1.4,0.77
,-9.253,-1.297,-3.24,-9.258,-1.359,-3.216,2.38,1.4,0.7
,-9.316,-1.283,-3.216,-9.356,-1.33,-3.195,2.45,1.47,0.7
,-9.296,-1.328,-3.199,-9.304,-1.357,-3.238,2.52,1.54,0.77
909.0,-9.256,-1.318,-3.226,-9.308,-1.28,-3.319,2.45,1.89,0.77
,-9.308,-1.204,-3.252,-9.284,-1.259,-3.309,2.45,1.96,0.84
,-9.287,-1.266,-3.329,-9.261,-1.285,-3.312,2.17,2.03,0.7
,-9.308,-1.251,-3.317,-9.249,-1.295,-3.283,2.03,1.89,0.63
984.0,-9.258,-1.283,-3.338,-9.308,-1.271,-3.269,2.45,1.33,0.63
,-9.256,-1.266,-3.355,-9.296,-1.347,-3.257,2.45,1.4,0.63
,-9.289,-1.318,-3.388,-9.299,-1.314,-3.221,2.31,1.19,0.56
,-9.306,-1.309,-3.288,-9.251,-1.285,-3.233,2.31,1.05,0.63
1060.0,-9.277,-1.295,-3.257,-9.299,-1.326,-3.223,2.59,0.91,0.84
,-9.318,-1.28,-3.259,-9.308,-1.263,-3.245,2.59,1.19,0.91
,-9.28,-1.292,-3.252,-9.296,-1.275,-3.183,2.59,1.12,0.84
,-9.28,-1.335,-3.216,-9.299,-1.278,-3.214,2.66,1.19,0.84
1135.0,-9.282,-1.304,-3.221,-9.335,-1.299,-3.271,2.38,1.4,0.77
,-9.325,-1.304,-3.257,-9.28,-1.266,-3.247,2.38,1.68,0.84
,-9.32,-1.278,-3.228,-9.299,-1.318,-3.278,2.45,1.68,0.91
,-9.282,-1.316,-3.238,-9.301,-1.34,-3.302,2.59,1.54,0.91
1211.0,-9.287,-1.33,-3.257,-9.289,-1.244,-3.264,2.17,1.54,0.7
,-9.311,-1.287,-3.259,-9.28,-1.259,-3.281,2.31,1.4,0.77
,-9.251,-1.295,-3.293,-9.296,-1.278,-3.269,2.31,1.33,0.77
,-9.296,-1.302,-3.305,-9.229,-1.304,-3.254,2.45,1.47,0.91
1287.0,-9.299,-1.28,-3.271,-9.294,-1.285,-3.223,2.52,1.26,0.84
,-9.273,-1.287,-3.3,-9.261,-1.268,-3.199,2.52,1.26,0.7
,-9.289,-1.302,-3.25,-9.268,-1.302,-3.23,2.59,1.47,0.77
,-9.275,-1.297,-3.276,-9.323,-1.352,-3.228,2.66,1.47,0.98
1363.0,-9.287,-1.285,-3.228,-9.277,-1.292,-3.262,2.31,1.68,0.77
,-9.308,-1.309,-3.259,-9.241,-1.283,-3.264,2.38,1.61,0.77
,-9.284,-1.287,-3.24,-9.28,-1.28,-3.305,2.31,1.54,0.7
,-9.318,-1.278,-3.314,-9.296,-1.22,-3.297,2.31,1.61,0.63
1438.0,-9.265,-1.237,-3.278,-9.28,-1.302,-3.302,2.87,1.26,0.7
,-9.273,-1.254,-3.25,-9.284,-1.292,-3.295,2.66,1.19,0.56
,-9.273,-1.266,-3.295,-9.27,-1.266,-3.285,2.45,1.4,0.63
,-9.282,-1.304,-3.29,-9.33,-1.263,-3.242,2.59,1.26,0.49
1514.0,-9.304,-1.302,-3.25,-9.273,-1.268,-3.259,2.45,1.05,0.63
,-9.304,-1.347,-3.288,-9.282,-1.278,-3.278,2.59,1.12,0.63
,-9.234,-1.302,-3.273,-9.296,-1.278,-3.281,3.01,1.26,0.77
,-9.287,-1.273,-3.262,-9.308,-1.328,-3.293,3.15,1.26,0.77
1589.0,-9.27,-1.263,-3.278,-9.265,-1.326,-3.295,3.5,1.05,0.77
,-9.261,-1.271,-3.283,-9.292,-1.297,-3.269,3.57,1.05,0.77
,-9.273,-1.275,-3.262,-9.316,-1.385,-3.257,3.43,1.05,0.7
,-9.251,-1.309,-3.262,-9.32,-1.338,-3.228,3.29,1.05,0.7
1665.0,-9.28,-1.278,-3.19,-9.325,-1.357,-3.116,3.08,1.19,0.84
,-9.328,-1.22,-3.503,-9.306,-1.366,-3.161,3.15,1.19,0.7
,-9.246,-1.213,-3.307,-9.311,-1.366,-3.23,2.31,1.26,0.91
,-9.316,-1.273,-3.173,-9.263,-1.326,-3.25,1.68,1.33,0.91
1741.0,-9.28,-1.266,-3.276,-9.306,-1.244,-3.305,2.66,1.54,0.84
,-9.325,-1.268,-3.264,-9.282,-1.297,-3.297,2.59,1.4,0.84
,-9.301,-1.235,-3.266,-9.299,-1.302,-3.29,2.45,1.47,0.77
,-9.304,-1.275,-3.281,-9.308,-1.268,-3.329,2.31,1.33,0.7
1817.0,-9.296,-1.249,-3.278,-9.287,-1.256,-3.202,2.59,1.33,0.77
,-9.282,-1.29,-3.245,-9.27,-1.285,-3.235,2.59,1.19,0.7
,-9.292,-1.297,-3.266,-9.292,-1.318,-3.206,2.59,1.12,0.7
,-9.265,-1.273,-3.257,-9.292,-1.287,-3.252,2.73,1.05,0.7
1893.0,-9.294,-1.299,-3.209,-9.277,-1.263,-3.218,2.66,1.33,0.84
,-9.306,-1.271,-3.199,-9.273,-1.29,-3.235,2.66,1.33,0.84
,-9.27,-1.29,-3.221,-9.294,-1.283,-3.209,2.59,1.47,0.84
,-9.284,-1.273,-3.216,-9.306,-1.266,-3.257,2.66,1.54,0.77
1968.0,-9.306,-1.278,-3.245,-9.342,-1.271,-3.271,2.59,1.54,0.7
,-9.273,-1.311,-3.25,-9.289,-1.24,-3.271,2.59,1.54,0.63
,-9.277,-1.275,-3.264,-9.27,-1.307,-3.252,2.73,1.47,0.7
,-9.304,-1.28,-3.257,-9.28,-1.307,-3.252,2.8,1.47,0.63
2044.0,-9.244,-1.321,-3.242,-9.301,-1.307,-3.247,2.59,1.4,0.7
,-9.316,-1.29,-3.281,-9.294,-1.292,-3.247,2.59,1.47,0.77
,-9.251,-1.275,-3.259,-9.284,-1.268,-3.264,2.59,1.4,0.63
,-9.299,-1.316,-3.295,-9.239,-1.268,-3.278,2.45,1.26,0.63
2120.0,-9.299,-1.307,-3.266,-9.296,-1.285,-3.247,2.66,1.47,0.7
,-9.282,-1.328,-3.245,-9.287,-1.33,-3.211,2.66,1.4,0.7
,-9.273,-1.309,-3.271,-9.292,-1.314,-3.259,2.94,1.33,0.63
,-9.284,-1.261,-3.269,-9.313,-1.29,-3.283,3.15,1.4,0.56
2196.0,-9.217,-1.299,-3.247,-9.256,-1.273,-3.24,2.66,1.26,0.7
,-9.287,-1.261,-3.314,-9.265,-1.318,-3.266,2.66,1.47,0.77
,-9.261,-1.24,-3.271,-9.273,-1.304,-3.223,2.59,1.26,0.7
,-9.296,-1.307,-3.269,-9.263,-1.316,-3.269,2.59,1.12,0.63
2271.0,-9.277,-1.307,-3.254,-9.304,-1.249,-3.283,2.87,1.12,0.49
,-9.273,-1.28,-3.259,-9.265,-1.311,-3.195,2.73,1.12,0.63
,-9.256,-1.314,-3.24,-9.296,-1.316,-3.19,2.66,1.12,0.56
,-9.28,-1.33,-3.391,-9.313,-1.335,-3.187,2.66,1.12,0.56
2347.0,-9.277,-1.316,-3.19,-9.301,-1.218,-3.262,2.17,0.98,0.63
,-9.265,-1.35,-3.192,-9.261,-1.278,-3.262,2.17,1.12,0.7
,-9.284,-1.378,-3.264,-9.299,-1.304,-3.266,2.45,1.26,0.91
,-9.287,-1.309,-3.266,-9.292,-1.285,-3.269,2.94,1.26,0.98
2422.0,-9.318,-1.302,-3.297,-9.301,-1.292,-3.293,2.17,0.77,0.63
,-9.28,-1.323,-3.288,-9.337,-1.457,-3.384,2.38,0.77,0.7
,-9.253,-1.261,-3.295,-9.208,-1.184,-3.288,2.52,0.7,0.63
,-9.263,-1.263,-3.288,-9.318,-1.194,-3.197,2.59,0.7,0.63
2498.0,-9.306,-1.242,-3.147,-9.316,-1.374,-3.034,1.96,0.63,0.7
,-9.28,-1.371,-3.092,-9.301,-1.34,-3.084,1.26,0.63,0.7
,-9.265,-1.299,-3.037,-9.33,-1.271,-3.063,1.75,0.77,0.77
,-9.33,-1.311,-3.046,-9.33,-1.307,-3.096,2.17,1.12,0.84
2574.0,-9.277,-1.342,-3.159,-9.313,-1.259,-3.285,1.61,1.89,0.77
,-9.28,-1.359,-3.19,-9.304,-1.24,-3.264,1.82,1.89,0.84
,-9.313,-1.33,-3.221,-9.306,-1.295,-3.252,2.03,2.03,0.77
,-9.273,-1.273,-3.288,-9.335,-1.304,-3.254,2.17,2.03,0.77
2650.0,-9.28,-1.287,-3.3,-9.234,-1.249,-3.305,2.03,1.75,0.7
,-9.27,-1.278,-3.257,-9.239,-1.302,-3.271,1.96,1.68,0.7
,-9.268,-1.28,-3.273,-9.28,-1.314,-3.312,2.03,1.61,0.77
,-9.28,-1.271,-3.266,-9.304,-1.333,-3.218,2.17,1.47,0.77
2725.0,-9.284,-1.309,-3.254,-9.263,-1.369,-3.187,2.45,1.12,0.77
,-9.28,-1.309,-3.25,-9.325,-1.345,-3.005,2.45,1.26,0.77
,-9.301,-1.287,-3.187,-9.342,-1.405,-3.039,2.38,1.12,0.63
,-9.284,-1.323,-3.221,-9.292,-1.28,-3.199,2.31,1.26,0.7
2801.0,-9.308,-1.211,-3.257,-9.318,-1.316,-3.252,3.43,1.33,0.7
,-9.313,-1.182,-3.302,-9.301,-1.256,-3.199,2.87,1.33,0.77
,-9.275,-1.249,-3.283,-9.292,-1.287,-3.223,2.45,1.54,0.77
,-9.335,-1.268,-3.283,-9.287,-1.323,-3.238,2.38,1.68,0.84
2877.0,-9.268,-1.307,-3.305,-9.308,-1.266,-3.319,2.03,1.47,0.84
,-9.261,-1.287,-3.312,-9.287,-1.285,-3.266,2.45,1.33,0.91
,-9.304,-1.283,-3.317,-9.332,-1.316,-3.228,2.66,1.26,0.91
,-9.294,-1.283,-3.333,-9.229,-1.297,-3.216,2.66,1.33,0.91
2953.0,-9.282,-1.256,-3.226,-9.313,-1.302,-3.209,2.94,1.19,0.91
,-9.277,-1.292,-3.187,-9.318,-1.304,-3.163,2.87,1.05,0.77
,-9.335,-1.316,-3.216,-9.299,-1.283,-3.159,2.94,1.12,0.77
,-9.323,-1.263,-3.195,-9.34,-1.295,-3.163,2.8,1.19,0.77
3029.0,-9.332,-1.311,-3.206,-9.28,-1.261,-3.235,2.66,1.68,0.84
,-9.328,-1.278,-3.204,-9.256,-1.287,-3.302,2.59,1.68,0.91
,-9.32,-1.307,-3.195,-9.296,-1.28,-3.3,2.59,1.75,0.84
,-9.292,-1.314,-3.288,-9.268,-1.292,-3.295,2.66,1.75,0.91
3104.0,-9.265,-1.304,-3.29,-9.287,-1.283,-3.288,2.31,1.33,0.63
,-9.292,-1.254,-3.297,-9.289,-1.323,-3.252,2.38,1.26,0.84
,-9.296,-1.249,-3.276,-9.296,-1.29,-3.235,2.52,1.12,0.7
,-9.287,-1.273,-3.264,-9.301,-1.34,-3.266,2.59,0.98,0.63
3180.0,-9.318,-1.28,-3.266,-9.282,-1.302,-3.197,2.94,0.84,0.7
,-9.311,-1.29,-3.228,-9.294,-1.333,-3.168,2.94,0.91,0.7
,-9.284,-1.287,-3.218,-9.256,-1.33,-3.171,2.87,0.84,0.7
,-9.304,-1.278,-3.214,-9.301,-1.278,-3.151,2.8,0.98,0.63
3255.0,-9.332,-1.29,-3.209,-9.292,-1.338,-3.242,2.94,1.33,0.77
,-9.301,-1.278,-3.195,-9.335,-1.311,-3.271,2.87,1.26,0.63
,-9.284,-1.307,-3.209,-9.306,-1.307,-3.206,2.8,1.4,0.63
,-9.301,-1.297,-3.233,-9.335,-1.297,-3.257,2.87,1.47,0.7
3331.0,-9.318,-1.278,-3.252,-9.28,-1.283,-3.242,2.94,1.47,0.84
,-9.296,-1.278,-3.218,-9.301,-1.268,-3.214,2.87,1.4,0.77
,-9.313,-1.311,-3.216,-9.289,-1.292,-3.238,2.73,1.33,0.7
,-9.308,-1.263,-3.202,-9.268,-1.307,-3.259,2.73,1.33,0.63
3407.0,-9.342,-1.297,-3.226,-9.268,-1.33,-3.204,2.24,1.47,0.7
,-9.282,-1.318,-3.269,-9.332,-1.304,-3.156,2.45,1.33,0.7
,-9.306,-1.292,-3.23,-9.33,-1.297,-3.192,2.45,1.26,0.63
,-9.301,-1.28,-3.197,-9.32,-1.295,-3.195,2.38,1.05,0.63
3483.0,-9.308,-1.316,-3.216,-9.316,-1.29,-3.25,2.1,1.26,0.56
,-9.33,-1.307,-3.175,-9.33,-1.256,-3.25,2.38,1.47,0.7
,-9.306,-1.316,-3.206,-9.296,-1.283,-3.226,2.45,1.54,0.7
,-9.296,-1.307,-3.199,-9.284,-1.285,-3.247,2.45,1.4,0.77
3558.0,-9.284,-1.28,-3.278,-9.287,-1.287,-3.293,2.66,1.26,0.7
,-9.215,-1.29,-3.223,-9.306,-1.283,-3.235,2.66,1.33,0.77
,-9.287,-1.244,-3.247,-9.294,-1.316,-3.23,2.87,1.4,0.98
,-9.337,-1.268,-3.266,-9.306,-1.323,-3.149,2.94,1.12,0.77
3634.0,-9.325,-1.24,-3.202,-9.332,-1.256,-3.137,2.87,1.05,0.56
,-9.34,-1.268,-3.171,-9.32,-1.275,-3.139,2.31,1.19,0.7
,-9.342,-1.307,-3.151,-9.335,-1.285,-3.123,2.24,1.19,0.56
,-9.296,-1.278,-3.159,-9.325,-1.333,-3.125,2.31,1.05,0.49
3709.0,-9.287,-1.316,-3.154,-9.296,-1.316,-3.257,2.38,1.75,0.77
,-9.282,-1.299,-3.166,-9.268,-1.278,-3.329,2.31,1.82,0.77
,-9.33,-1.316,-3.216,-9.268,-1.328,-3.314,2.31,1.82,0.77
,-9.328,-1.357,-3.259,-9.323,-1.299,-3.324,2.24,1.75,0.77
3785.0,-9.275,-1.309,-3.338,-9.268,-1.29,-3.276,2.45,1.33,0.84
,-9.308,-1.271,-3.297,-9.299,-1.302,-3.257,2.52,1.26,0.84
,-9.282,-1.299,-3.283,-9.256,-1.287,-3.242,2.59,1.05,0.7
,-9.287,-1.314,-3.288,-9.34,-1.278,-3.214,2.66,1.05,0.77
3861.0,-9.289,-1.283,-3.202,-9.316,-1.287,-3.156,2.94,0.7,0.84
,-9.296,-1.249,-3.214,-9.292,-1.283,-3.156,2.8,0.77,0.84
,-9.311,-1.304,-3.151,-9.32,-1.299,-3.166,2.8,0.98,0.91
,-9.328,-1.304,-3.161,-9.294,-1.295,-3.139,2.94,0.84,0.77
3937.0,-9.282,-1.275,-3.173,-9.342,-1.275,-3.221,2.94,1.12,0.77
,-9.316,-1.28,-3.228,-9.301,-1.275,-3.226,2.87,1.12,0.84
,-9.282,-1.278,-3.209,-9.342,-1.278,-3.221,2.66,1.19,0.77
,-9.296,-1.285,-3.242,-9.335,-1.275,-3.209,2.59,1.12,0.7
4013.0,-9.328,-1.302,-3.223,-9.292,-1.311,-3.144,2.31,1.12,0.7
,-9.289,-1.304,-3.18,-9.306,-1.302,-3.156,2.38,1.05,0.63
,-9.299,-1.318,-3.175,-9.301,-1.283,-3.175,2.45,1.12,0.7
,-9.337,-1.321,-3.159,-9.301,-1.302,-3.111,2.52,1.12,0.63
4088.0,-9.292,-1.345,-3.135,-9.27,-1.292,-3.19,2.52,1.54,0.63
,-9.316,-1.326,-3.18,-9.277,-1.266,-3.209,2.73,1.4,0.63
,-9.308,-1.328,-3.168,-9.306,-1.314,-3.218,2.87,1.47,0.77
,-9.289,-1.251,-3.12,-9.304,-1.314,-3.202,2.87,1.47,0.63
4164.0,-9.311,-1.328,-3.247,-9.313,-1.278,-3.23,2.52,1.68,0.77
,-9.328,-1.302,-3.24,-9.32,-1.271,-3.221,2.59,1.47,0.7
,-9.28,-1.297,-3.23,-9.289,-1.297,-3.199,2.52,1.47,0.77
,-9.304,-1.287,-3.19,-9.313,-1.285,-3.18,2.45,1.54,0.7
4240.0,-9.318,-1.302,-3.19,-9.299,-1.323,-3.209,2.52,1.47,0.56
,-9.33,-1.287,-3.173,-9.287,-1.304,-3.156,2.45,1.47,0.7
,-9.316,-1.314,-3.175,-9.27,-1.347,-3.187,2.38,1.61,0.7
,-9.246,-1.307,-3.214,-9.313,-1.323,-3.144,2.52,1.61,0.63
4316.0,-9.308,-1.328,-3.12,-9.299,-1.12,-3.491,2.17,1.75,0.56
,-9.38,-1.452,-3.24,-9.287,-1.125,-3.398,2.03,1.75,0.77
,-9.299,-1.393,-3.178,-9.296,-1.235,-3.281,4.06,1.75,0.7
,-9.289,-1.177,-3.379,-9.261,-1.247,-3.106,5.46,1.82,0.56
4391.0,-9.304,-1.421,-3.111,-9.284,-1.254,-3.297,0.56,1.96,0.77
,-9.27,-1.438,-3.199,-9.273,-1.249,-3.281,1.33,1.82,0.77
,-9.287,-1.378,-3.211,-9.316,-1.256,-3.271,2.17,1.61,0.7
,-9.27,-1.278,-3.259,-9.308,-1.273,-3.278,2.59,1.61,0.63
4467.0,-9.328,-1.299,-3.235,-9.296,-1.333,-3.233,2.1,1.54,0.84
,-9.337,-1.342,-3.216,-9.292,-1.311,-3.187,2.17,1.54,0.77
,-9.306,-1.333,-3.204,-9.316,-1.347,-3.226,2.31,1.4,0.84
,-9.296,-1.323,-3.197,-9.294,-1.304,-3.206,2.38,1.47,0.84
4542.0,-9.289,-1.278,-3.204,-9.335,-1.263,-3.214,2.66,1.54,0.91
,-9.313,-1.304,-3.221,-9.32,-1.316,-3.226,2.73,1.68,1.05
,-9.275,-1.268,-3.209,-9.32,-1.29,-3.245,2.59,1.68,0.91
,-9.263,-1.299,-3.202,-9.33,-1.271,-3.242,2.52,1.68,0.91
4618.0,-9.294,-1.261,-3.202,-9.294,-1.311,-3.23,2.38,1.61,0.77
,-9.311,-1.299,-3.221,-9.275,-1.345,-3.257,2.59,1.54,0.91
,-9.301,-1.302,-3.23,-9.313,-1.307,-3.223,2.52,1.61,0.91
,-9.308,-1.321,-3.271,-9.282,-1.314,-3.257,2.66,1.68,0.91
4694.0,-9.32,-1.29,-3.273,-9.263,-1.34,-3.247,3.22,1.54,1.05
,-9.311,-1.259,-3.269,-9.308,-1.28,-3.226,3.22,1.26,0.84
,-9.289,-1.287,-3.297,-9.347,-1.249,-3.185,3.15,1.19,0.84
,-9.292,-1.307,-3.266,-9.273,-1.223,-3.192,3.08,1.05,0.91
4770.0,-9.294,-1.237,-3.137,-9.342,-1.266,-3.23,2.66,1.33,0.91
,-9.294,-1.285,-3.173,-9.289,-1.266,-3.214,2.73,1.19,0.91
,-9.311,-1.309,-3.187,-9.304,-1.287,-3.254,2.8,1.05,0.77
,-9.292,-1.287,-3.226,-9.306,-1.29,-3.187,2.87,1.26,0.84
4845.0,-9.325,-1.302,-3.254,-9.313,-1.285,-3.233,2.45,1.33,0.7
,-9.284,-1.285,-3.199,-9.27,-1.271,-3.226,2.52,1.33,0.7
,-9.306,-1.302,-3.228,-9.313,-1.278,-3.235,2.59,1.12,0.63
,-9.337,-1.304,-3.216,-9.296,-1.307,-3.218,2.59,1.33,0.77
4921.0,-9.306,-1.273,-3.245,-9.316,-1.285,-3.192,2.45,1.19,0.63
,-9.261,-1.304,-3.259,-9.311,-1.29,-3.23,2.24,1.33,0.56
,-9.301,-1.333,-3.211,-9.289,-1.278,-3.159,2.24,1.33,0.56
,-9.337,-1.316,-3.192,-9.299,-1.33,-3.168,2.45,1.26,0.63
4997.0,-9.328,-1.28,-3.175,-9.32,-1.254,-3.163,2.45,1.33,0.7
,-9.332,-1.311,-3.192,-9.318,-1.273,-3.24,2.66,1.4,0.77
,-9.304,-1.316,-3.19,-9.273,-1.309,-3.24,2.8,1.47,0.7
,-9.308,-1.295,-3.195,-9.275,-1.292,-3.264,2.87,1.68,0.7
5073.0,-9.265,-1.275,-3.252,-9.316,-1.311,-3.24,2.66,1.61,0.63
,-9.306,-1.333,-3.211,-9.263,-1.311,-3.235,2.73,1.4,0.56
,-9.308,-1.273,-3.278,-9.318,-1.335,-3.24,2.73,1.61,0.63
,-9.325,-1.256,-3.281,-9.301,-1.326,-3.218,2.8,1.47,0.7
5149.0,-9.316,-1.311,-3.197,-9.325,-1.338,-3.171,2.87,1.19,0.7
,-9.34,-1.287,-3.202,-9.265,-1.352,-3.168,2.87,1.19,0.7
,-9.313,-1.304,-3.185,-9.323,-1.29,-3.178,2.87,1.26,0.7
,-9.335,-1.34,-3.199,-9.306,-1.302,-3.154,2.73,1.19,0.63
5224.0,-9.299,-1.323,-3.178,-9.296,-1.338,-3.209,2.87,1.47,0.77
,-9.301,-1.318,-3.206,-9.301,-1.307,-3.195,2.87,1.33,0.77
,-9.284,-1.278,-3.204,-9.311,-1.302,-3.218,2.73,1.4,0.77
,-9.277,-1.29,-3.192,-9.328,-1.299,-3.211,2.87,1.54,0.7
5300.0,-9.306,-1.268,-3.226,-9.306,-1.326,-3.25,2.38,1.4,0.7
,-9.232,-1.297,-3.271,-9.28,-1.273,-3.226,2.17,1.33,0.63
,-9.301,-1.307,-3.29,-9.27,-1.302,-3.281,2.17,1.26,0.7
,-9.261,-1.318,-3.273,-9.325,-1.295,-3.273,2.17,1.33,0.7
5375.0,-9.34,-1.328,-3.247,-9.263,-1.328,-3.264,2.38,1.19,0.7
,-9.299,-1.316,-3.257,-9.287,-1.28,-3.221,2.52,0.98,0.63
,-9.311,-1.307,-3.233,-9.328,-1.307,-3.221,2.52,1.05,0.7
,-9.301,-1.316,-3.24,-9.299,-1.285,-3.221,2.66,1.19,0.7
5451.0,-9.287,-1.309,-3.18,-9.306,-1.318,-3.175,3.01,1.05,0.77
,-9.289,-1.323,-3.221,-9.299,-1.307,-3.202,3.08,1.12,0.7
,-9.34,-1.311,-3.221,-9.292,-1.285,-3.185,3.01,0.98,0.7
,-9.304,-1.278,-3.245,-9.311,-1.309,-3.163,3.08,1.05,0.77
5527.0,-9.313,-1.326,-3.187,-9.263,-1.314,-3.151,2.59,1.05,0.63
,-9.299,-1.259,-3.183,-9.308,-1.34,-3.171,2.66,1.05,0.7
,-9.304,-1.251,-3.168,-9.292,-1.287,-3.171,2.66,1.19,0.7
,-9.282,-1.321,-3.183,-9.273,-1.326,-3.202,2.45,1.47,0.7
5603.0,-9.318,-1.263,-3.183,-9.294,-1.278,-3.214,2.24,1.4,0.63
,-9.33,-1.323,-3.183,-9.277,-1.299,-3.226,2.31,1.54,0.63
,-9.299,-1.345,-3.173,-9.33,-1.266,-3.281,2.45,1.61,0.63
,-9.318,-1.287,-3.166,-9.311,-1.321,-3.262,2.45,1.68,0.77
5678.0,-9.287,-1.304,-3.252,-9.299,-1.254,-3.242,2.38,1.54,0.84
,-9.306,-1.321,-3.264,-9.296,-1.335,-3.197,2.17,1.47,0.77
,-9.301,-1.297,-3.204,-9.296,-1.33,-3.257,2.17,1.47,0.7
,-9.265,-1.316,-3.195,-9.277,-1.328,-3.252,2.1,1.47,0.77
5754.0,-9.275,-1.328,-3.259,-9.304,-1.309,-3.166,2.52,1.33,0.77
,-9.294,-1.29,-3.211,-9.299,-1.35,-3.171,2.87,1.33,0.91
,-9.282,-1.316,-3.18,-9.306,-1.304,-3.214,2.94,1.4,0.98
,-9.316,-1.268,-3.216,-9.332,-1.28,-3.156,2.87,1.26,0.91
5830.0,-9.301,-1.283,-3.18,-9.32,-1.297,-3.252,2.94,1.68,1.05
,-9.335,-1.28,-3.159,-9.296,-1.285,-3.221,3.01,1.75,1.05
,-9.301,-1.295,-3.156,-9.287,-1.304,-3.257,2.87,1.54,0.98
,-9.335,-1.287,-3.19,-9.253,-1.292,-3.257,2.73,1.54,0.91
5906.0,-9.256,-1.302,-3.257,-9.313,-1.29,-3.228,2.1,1.54,0.77
,-9.306,-1.283,-3.266,-9.289,-1.285,-3.204,2.1,1.54,0.77
,-9.296,-1.28,-3.247,-9.306,-1.311,-3.18,2.31,1.47,0.84
,-9.316,-1.268,-3.233,-9.308,-1.29,-3.221,2.45,1.26,0.77
5982.0,-9.28,-1.321,-3.24,-9.296,-1.426,-2.888,2.73,1.26,0.63
,-9.289,-1.278,-3.259,-9.28,-1.491,-2.982,2.8,1.33,0.7
,-9.28,-1.287,-3.333,-9.241,-1.417,-3.082,2.73,1.26,0.7
,-9.299,-1.273,-3.163,-9.28,-1.297,-3.173,2.66,1.26,0.84
6057.0,-9.33,-1.263,-3.412,-9.34,-1.362,-3.096,3.85,1.05,0.7
,-9.277,-1.151,-3.374,-9.308,-1.304,-3.223,4.06,1.26,0.7
,-9.292,-1.17,-3.513,-9.294,-1.352,-3.175,3.57,1.05,0.49
,-9.229,-1.18,-3.233,-9.373,-1.364,-3.376,2.31,1.26,0.56
6133.0,-9.294,-1.235,-3.295,-9.311,-1.275,-3.197,2.38,1.4,0.84
,-9.316,-1.266,-3.273,-9.306,-1.295,-3.211,2.8,1.4,0.91
,-9.316,-1.311,-3.199,-9.328,-1.321,-3.221,2.94,1.4,0.91
,-9.261,-1.268,-3.202,-9.292,-1.326,-3.23,3.15,1.47,0.98
6208.0,-9.313,-1.263,-3.214,-9.33,-1.244,-3.147,2.73,1.33,0.77
,-9.277,-1.318,-3.235,-9.301,-1.283,-3.163,2.59,1.26,0.84
,-9.323,-1.249,-3.235,-9.296,-1.29,-3.142,2.45,1.33,0.84
,-9.325,-1.242,-3.19,-9.289,-1.347,-3.202,2.52,1.4,0.84
6284.0,-9.335,-1.311,-3.216,-9.332,-1.299,-3.242,2.45,1.54,0.98
,-9.325,-1.307,-3.25,-9.263,-1.266,-3.271,2.59,1.47,0.84
,-9.296,-1.295,-3.238,-9.284,-1.321,-3.262,2.59,1.54,0.84
,-9.299,-1.287,-3.25,-9.306,-1.278,-3.242,2.59,1.47,0.77
6360.0,-9.296,-1.256,-3.25,-9.284,-1.316,-3.199,2.94,1.4,0.84
,-9.28,-1.28,-3.216,-9.292,-1.287,-3.178,2.73,1.4,0.77
,-9.316,-1.285,-3.238,-9.273,-1.278,-3.199,2.59,1.4,0.7
,-9.313,-1.311,-3.199,-9.306,-1.273,-3.156,2.59,1.12,0.63
6436.0,-9.323,-1.302,-3.185,-9.328,-1.297,-3.221,2.24,1.33,0.77
,-9.335,-1.295,-3.151,-9.318,-1.271,-3.226,2.38,1.33,0.77
,-9.296,-1.304,-3.192,-9.323,-1.304,-3.209,2.24,1.33,0.63
,-9.273,-1.278,-3.206,-9.292,-1.302,-3.19,2.45,1.47,0.77
6511.0,-9.28,-1.342,-3.257,-9.277,-1.287,-3.221,2.52,1.33,0.7
,-9.284,-1.309,-3.195,-9.287,-1.283,-3.245,2.66,1.26,0.7
,-9.275,-1.304,-3.25,-9.284,-1.307,-3.206,2.59,1.33,0.7
,-9.311,-1.283,-3.223,-9.316,-1.261,-3.202,2.45,1.4,0.63
6587.0,-9.294,-1.242,-3.187,-9.347,-1.304,-3.175,2.66,1.19,0.56
,-9.328,-1.29,-3.233,-9.318,-1.287,-3.204,2.45,1.19,0.63
,-9.277,-1.326,-3.199,-9.268,-1.278,-3.178,2.24,1.26,0.63
,-9.294,-1.333,-3.178,-9.313,-1.302,-3.156,2.38,1.33,0.7
6663.0,-9.294,-1.316,-3.125,-9.263,-1.287,-3.202,2.24,1.33,0.49
,-9.323,-1.34,-3.216,-9.289,-1.287,-3.266,2.17,1.54,0.56
,-9.323,-1.287,-3.204,-9.241,-1.273,-3.254,2.17,1.54,0.77
,-9.337,-1.295,-3.156,-9.299,-1.307,-3.233,2.24,1.33,0.56
6739.0,-9.284,-1.328,-3.252,-9.335,-1.297,-3.226,2.24,1.26,0.63
,-9.308,-1.304,-3.254,-9.306,-1.302,-3.233,2.31,1.4,0.56
,-9.304,-1.273,-3.202,-9.294,-1.285,-3.226,2.17,1.33,0.63
,-9.284,-1.314,-3.233,-9.265,-1.256,-3.154,2.38,1.33,0.56
6814.0,-9.33,-1.352,-3.159,-9.316,-1.318,-3.13,2.24,1.26,0.49
,-9.287,-1.369,-3.151,-9.318,-1.302,-3.175,2.31,1.19,0.42
,-9.301,-1.335,-3.173,-9.296,-1.314,-3.166,2.59,1.26,0.49
,-9.359,-1.335,-3.125,-9.337,-1.28,-3.192,2.8,1.33,0.7
6890.0,-9.306,-1.309,-3.183,-9.263,-1.292,-3.23,2.24,1.54,0.7
,-9.316,-1.304,-3.214,-9.294,-1.304,-3.168,2.17,1.47,0.63
,-9.299,-1.304,-3.204,-9.313,-1.259,-3.144,2.17,1.47,0.63
,-9.294,-1.323,-3.19,-9.332,-1.338,-3.19,2.1,1.61,0.63
6966.0,-9.282,-1.275,-3.238,-9.304,-1.307,-3.226,2.66,1.4,0.77
,-9.268,-1.309,-3.235,-9.287,-1.383,-3.254,2.87,1.61,0.77
,-9.296,-1.347,-3.278,-9.258,-1.35,-3.262,3.01,1.54,0.77
,-9.292,-1.321,-3.254,-9.273,-1.323,-3.228,3.22,1.54,0.84
7041.0,-9.289,-1.364,-3.204,-9.277,-1.307,-3.206,2.73,1.26,0.63
,-9.261,-1.311,-3.204,-9.284,-1.35,-3.209,2.8,1.26,0.84
,-9.261,-1.323,-3.192,-9.292,-1.309,-3.199,2.73,1.05,0.77
,-9.282,-1.273,-3.187,-9.289,-1.316,-3.218,2.66,1.19,0.7
7117.0,-9.289,-1.321,-3.221,-9.306,-1.326,-3.18,2.38,0.98,0.63
,-9.287,-1.33,-3.202,-9.289,-1.285,-3.183,2.24,0.84,0.56
,-9.296,-1.371,-3.221,-9.313,-1.251,-3.163,2.24,0.98,0.77
,-9.282,-1.371,-3.226,-9.361,-1.283,-3.139,2.52,0.98,0.84
7193.0,-9.332,-1.335,-3.161,-9.368,-1.29,-3.214,2.59,1.4,0.91
,-9.299,-1.299,-3.163,-9.299,-1.263,-3.123,2.59,1.4,0.91
,-9.313,-1.345,-3.202,-9.237,-1.314,-3.156,2.52,1.26,0.77
,-9.306,-1.297,-3.187,-9.363,-1.33,-3.144,2.52,1.4,0.84
7269.0,-9.292,-1.309,-3.197,-9.304,-1.232,-3.183,2.03,1.61,0.77
,-9.313,-1.345,-3.132,-9.313,-1.295,-3.233,1.96,1.61,0.77
,-9.342,-1.33,-3.242,-9.306,-1.321,-3.262,2.1,1.61,0.91
,-9.342,-1.273,-3.226,-9.28,-1.297,-3.257,2.1,1.61,0.77
7344.0,-9.256,-1.292,-3.266,-9.268,-1.318,-3.173,2.66,1.4,0.84
,-9.363,-1.273,-3.245,-9.335,-1.328,-3.206,2.87,1.33,0.84
,-9.304,-1.287,-3.223,-9.294,-1.295,-3.159,2.8,1.19,0.7
,-9.308,-1.278,-3.214,-9.299,-1.309,-3.147,2.59,1.19,0.7
7420.0,-9.294,-1.263,-3.175,-9.306,-1.292,-3.116,2.73,1.4,0.56
,-9.296,-1.299,-3.149,-9.301,-1.283,-3.171,2.8,1.4,0.63
,-9.292,-1.299,-3.147,-9.323,-1.33,-3.142,2.59,1.33,0.56
,-9.296,-1.302,-3.163,-9.289,-1.316,-3.137,2.73,1.47,0.56
7496.0,-9.277,-1.335,-3.223,-9.28,-1.295,-3.23,2.8,1.89,0.77
,-9.308,-1.302,-3.221,-9.282,-1.268,-3.283,2.8,1.96,0.77
,-9.249,-1.326,-3.235,-9.28,-1.323,-3.264,2.73,1.68,0.63
,-9.28,-1.292,-3.24,-9.287,-1.323,-3.252,2.73,1.54,0.49
7572.0,-9.294,-1.299,-3.307,-9.313,-1.292,-3.187,2.73,1.33,0.63
,-9.27,-1.271,-3.257,-9.34,-1.292,-3.218,2.66,1.33,0.63
,-9.268,-1.328,-3.214,-9.301,-1.316,-3.175,2.59,1.33,0.63
,-9.332,-1.338,-3.204,-9.328,-1.35,-3.197,2.8,1.12,0.56
7647.0,-9.318,-1.345,-3.154,-9.299,-1.311,-3.173,2.87,1.26,0.63
,-9.328,-1.309,-3.183,-9.33,-1.321,-3.202,2.87,1.33,0.63
,-9.27,-1.35,-3.175,-9.292,-1.307,-3.206,2.73,1.12,0.56
,-9.277,-1.326,-3.161,-9.325,-1.323,-3.166,2.8,1.26,0.7
7723.0,-9.316,-1.354,-3.199,-9.347,-1.278,-3.19,2.8,1.54,0.7
,-9.284,-1.273,-3.195,-9.294,-1.318,-3.242,2.73,1.4,0.56
,-9.328,-1.299,-3.228,-9.316,-1.335,-3.211,2.59,1.47,0.63
,-9.342,-1.299,-3.204,-9.301,-1.318,-3.228,2.52,1.47,0.63
7798.0,-9.282,-1.29,-3.197,-9.328,-1.335,-3.178,2.52,1.12,0.56
,-9.284,-1.328,-3.161,-9.304,-1.35,-3.166,2.38,1.4,0.56
,-9.299,-1.318,-3.183,-9.251,-1.323,-3.159,2.17,1.4,0.56
,-9.356,-1.347,-3.171,-9.33,-1.366,-3.19,2.17,1.33,0.56
7874.0,-9.301,-1.354,-3.187,-9.273,-1.326,-3.206,2.17,1.4,0.56
,-9.349,-1.33,-3.254,-9.308,-1.342,-3.283,2.24,1.33,0.56
,-9.344,-1.314,-3.202,-9.308,-1.304,-3.23,2.17,1.4,0.56
,-9.323,-1.323,-3.187,-9.28,-1.34,-3.23,2.31,1.54,0.56
7950.0,-9.304,-1.328,-3.209,-9.284,-1.297,-3.199,2.94,1.47,0.7
,-9.361,-1.295,-3.214,-9.308,-1.326,-3.19,3.08,1.4,0.7
,-9.273,-1.316,-3.252,-9.306,-1.326,-3.185,3.08,1.26,0.63
,-9.294,-1.304,-3.183,-9.294,-1.345,-3.161,3.15,1.33,0.7
8026.0,-9.277,-1.397,-3.156,-9.337,-1.345,-3.139,2.66,1.19,0.56
,-9.342,-1.354,-3.137,-9.337,-1.326,-3.154,2.8,1.33,0.63
,-9.332,-1.34,-3.171,-9.301,-1.302,-3.159,2.73,1.47,0.7
,-9.363,-1.318,-3.154,-9.306,-1.357,-3.135,2.52,1.47,0.77
8102.0,-9.363,-1.362,-3.173,-9.32,-1.34,-3.23,2.45,1.89,0.77
,-9.313,-1.35,-3.195,-9.296,-1.287,-3.273,2.52,1.75,0.77
,-9.318,-1.309,-3.216,-9.294,-1.34,-3.257,2.66,1.82,0.91
,-9.256,-1.333,-3.228,-9.275,-1.335,-3.245,2.59,1.82,0.77
8177.0,-9.249,-1.35,-3.25,-9.308,-1.338,-3.185,2.31,1.4,0.91
,-9.273,-1.328,-3.24,-9.313,-1.338,-3.185,2.52,1.54,0.98
,-9.28,-1.314,-3.278,-9.292,-1.364,-3.209,2.59,1.47,0.91
,-9.296,-1.318,-3.245,-9.325,-1.374,-3.173,2.59,1.4,0.98
8253.0,-9.284,-1.335,-3.175,-9.299,-1.328,-3.128,2.87,1.4,1.05
,-9.296,-1.309,-3.187,-9.292,-1.34,-3.166,2.8,1.4,1.05
,-9.356,-1.338,-3.199,-9.292,-1.359,-3.171,2.59,1.4,1.12
,-9.311,-1.321,-3.151,-9.313,-1.311,-3.195,2.52,1.54,0.98
8329.0,-9.33,-1.321,-3.187,-9.299,-1.283,-3.238,2.38,1.68,1.05
,-9.289,-1.33,-3.216,-9.277,-1.328,-3.278,2.38,1.68,1.05
,-9.316,-1.307,-3.218,-9.299,-1.28,-3.228,2.38,1.96,1.19
,-9.277,-1.299,-3.247,-9.316,-1.299,-3.235,2.31,1.82,1.12
8405.0,-9.328,-1.309,-3.271,-9.287,-1.244,-3.223,2.38,1.33,0.91
,-9.294,-1.283,-3.264,-9.282,-1.316,-3.166,2.31,1.33,1.05
,-9.344,-1.285,-3.271,-9.296,-1.307,-3.199,2.38,1.26,1.05
,-9.323,-1.251,-3.206,-9.282,-1.326,-3.221,2.52,1.33,1.12
8480.0,-9.304,-1.354,-3.23,-9.363,-1.347,-3.214,2.66,1.26,0.91
,-9.292,-1.326,-3.216,-9.325,-1.311,-3.185,2.8,1.4,0.91
,-9.282,-1.316,-3.185,-9.294,-1.28,-3.204,2.73,1.12,0.84
,-9.344,-1.34,-3.187,-9.318,-1.271,-3.24,2.66,1.26,0.77
8556.0,-9.323,-1.254,-3.23,-9.284,-1.283,-3.266,2.45,1.33,0.91
,-9.325,-1.311,-3.216,-9.299,-1.266,-3.228,2.24,1.33,0.7
,-9.263,-1.304,-3.173,-9.294,-1.287,-3.216,2.31,1.33,0.63
,-9.306,-1.292,-3.204,-9.349,-1.307,-3.185,2.59,1.33,0.84
8631.0,-9.284,-1.326,-3.204,-9.328,-1.275,-3.168,2.17,1.19,0.7
,-9.313,-1.287,-3.168,-9.294,-1.302,-3.197,2.24,1.26,0.7
,-9.328,-1.292,-3.168,-9.332,-1.292,-3.171,2.24,1.19,0.63
,-9.347,-1.29,-3.144,-9.299,-1.287,-3.18,2.17,1.19,0.77
8707.0,-9.33,-1.304,-3.195,-9.294,-1.278,-3.209,2.52,1.61,0.63
,-9.318,-1.297,-3.19,-9.301,-1.33,-3.226,2.45,1.33,0.56
,-9.301,-1.318,-3.24,-9.316,-1.297,-3.247,2.31,1.4,0.63
,-9.308,-1.287,-3.211,-9.344,-1.333,-3.259,2.24,1.4,0.56
8783.0,-9.284,-1.352,-3.221,-9.263,-1.35,-3.19,2.66,1.12,0.56
,-9.287,-1.285,-3.23,-9.32,-1.323,-3.233,2.87,1.19,0.56
,-9.311,-1.309,-3.209,-9.294,-1.309,-3.206,2.94,1.26,0.63
,-9.253,-1.338,-3.197,-9.304,-1.314,-3.23,2.94,1.05,0.56
8859.0,-9.325,-1.326,-3.183,-9.325,-1.345,-3.159,2.87,1.12,0.7
,-9.318,-1.347,-3.178,-9.325,-1.299,-3.142,2.94,1.19,0.7
,-9.332,-1.326,-3.185,-9.335,-1.292,-3.187,3.01,1.19,0.7
,-9.354,-1.342,-3.195,-9.28,-1.307,-3.206,3.01,1.19,0.63
8934.0,-9.28,-1.309,-3.161,-9.318,-1.287,-3.211,2.8,1.19,0.7
,-9.28,-1.333,-3.206,-9.304,-1.326,-3.214,2.94,1.4,0.7
,-9.277,-1.35,-3.195,-9.304,-1.345,-3.228,2.8,1.26,0.56
,-9.306,-1.297,-3.173,-9.289,-1.314,-3.206,2.87,1.19,0.56
9010.0,-9.32,-1.309,-3.223,-9.294,-1.321,-3.135,2.94,1.26,0.7
,-9.313,-1.323,-3.235,-9.304,-1.323,-3.187,2.94,1.26,0.63
,-9.301,-1.314,-3.195,-9.294,-1.357,-3.18,3.01,1.12,0.63
,-9.318,-1.323,-3.178,-9.332,-1.326,-3.192,3.08,1.05,0.7
9086.0,-9.294,-1.357,-3.192,-9.332,-1.333,-3.209,3.01,1.19,0.63
,-9.323,-1.333,-3.163,-9.246,-1.297,-3.206,2.87,1.26,0.7
,-9.296,-1.323,-3.13,-9.299,-1.295,-3.192,2.73,1.47,0.84
,-9.347,-1.304,-3.197,-9.359,-1.307,-3.252,2.73,1.54,0.77
9162.0,-9.351,-1.292,-3.209,-9.318,-1.311,-3.242,2.87,1.33,0.77
,-9.332,-1.311,-3.221,-9.306,-1.323,-3.202,2.87,1.33,0.77
,-9.277,-1.318,-3.23,-9.342,-1.314,-3.197,3.08,1.33,0.7
,-9.306,-1.323,-3.211,-9.325,-1.371,-3.252,3.08,1.19,0.77
9238.0,-9.237,-1.295,-3.202,-9.328,-1.323,-3.094,3.57,1.05,0.84
,-9.304,-1.304,-3.228,-9.33,-1.366,-3.082,3.29,1.26,0.63
,-9.33,-1.321,-3.156,-9.292,-1.352,-3.113,3.01,1.19,0.7
,-9.38,-1.318,-3.137,-9.316,-1.34,-3.123,2.87,1.26,0.77
9313.0,-9.287,-1.364,-3.118,-9.313,-1.347,-3.259,2.52,1.82,0.84
,-9.32,-1.323,-3.123,-9.287,-1.335,-3.247,2.8,1.89,0.84
,-9.323,-1.314,-3.197,-9.28,-1.311,-3.238,2.59,1.75,0.84
,-9.287,-1.307,-3.223,-9.256,-1.314,-3.228,2.52,1.68,0.77
9389.0,-9.306,-1.318,-3.238,-9.32,-1.318,-3.206,2.73,1.47,0.77
,-9.292,-1.316,-3.24,-9.332,-1.352,-3.259,2.73,1.47,0.7
,-9.275,-1.302,-3.247,-9.304,-1.335,-3.202,2.8,1.4,0.77
,-9.342,-1.345,-3.218,-9.28,-1.369,-3.185,2.59,1.33,0.7
9464.0,-9.32,-1.316,-3.206,-9.328,-1.34,-3.137,2.66,1.12,0.77
,-9.316,-1.297,-3.197,-9.294,-1.357,-3.132,2.66,0.98,0.77
,-9.287,-1.316,-3.187,-9.304,-1.352,-3.183,2.59,0.98,0.77
,-9.318,-1.321,-3.161,-9.311,-1.299,-3.139,2.45,0.98,0.84
9540.0,-9.301,-1.335,-3.159,-9.335,-1.35,-3.202,2.24,1.19,0.77
,-9.335,-1.309,-3.149,-9.299,-1.316,-3.166,2.03,1.19,0.7
,-9.316,-1.335,-3.12,-9.332,-1.304,-3.221,1.96,1.47,0.84
,-9.299,-1.393,-3.151,-9.337,-1.311,-3.209,2.17,1.54,0.77
9616.0,-9.328,-1.326,-3.223,-9.273,-1.309,-3.151,2.38,1.61,0.77
,-9.299,-1.345,-3.214,-9.268,-1.299,-3.12,2.38,1.61,0.77
,-9.337,-1.347,-3.226,-9.313,-1.307,-3.192,2.52,1.4,0.7
,-9.304,-1.309,-3.123,-9.284,-1.321,-3.139,2.66,1.47,0.77
9692.0,-9.323,-1.342,-3.183,-9.337,-1.352,-3.199,2.66,1.61,0.77
,-9.354,-1.299,-3.166,-9.284,-1.374,-3.183,2.73,1.4,0.7
,-9.356,-1.338,-3.171,-9.263,-1.321,-3.233,2.59,1.68,0.84
,-9.311,-1.323,-3.144,-9.289,-1.345,-3.218,2.38,1.61,0.77
9767.0,-9.33,-1.295,-3.245,-9.268,-1.304,-3.202,2.8,1.61,0.91
,-9.258,-1.287,-3.206,-9.311,-1.28,-3.211,2.66,1.4,0.7
,-9.294,-1.335,-3.23,-9.335,-1.292,-3.166,2.8,1.61,0.84
,-9.277,-1.34,-3.242,-9.328,-1.347,-3.154,2.87,1.47,0.77
