Timestamp,AccX,AccY,AccZ,GyroX,GyroY,GyroZ,MagnX,MagnY,MagnZ
0.0,-9.447,-0.101,-2.996,-9.469,-0.086,-2.989,3.99,1.12,0.7
,-9.457,-0.115,-2.967,-9.416,-0.057,-3.025,3.57,0.84,0.63
,-9.462,-0.182,-2.974,-9.435,-0.091,-3.029,3.43,1.05,0.63
,-9.45,-0.136,-2.946,-9.416,-0.081,-3.022,3.5,1.26,0.77
75.0,-9.45,-0.122,-3.065,-9.447,-0.122,-3.041,2.8,1.33,0.63
,-9.464,-0.081,-3.037,-9.433,-0.141,-3.008,2.87,1.33,0.56
,-9.409,-0.096,-3.135,-9.445,-0.091,-3.197,2.8,1.4,0.63
,-9.402,-0.098,-3.113,-9.387,-0.101,-3.037,2.66,1.26,0.56
150.0,-9.435,-0.172,-3.015,-9.45,-0.096,-3.017,2.8,1.05,0.56
,-9.387,-0.091,-3.12,-9.471,-0.124,-2.974,3.15,1.12,0.84
,-9.416,-0.098,-2.989,-9.423,-0.124,-2.972,2.8,1.33,0.84
,-9.454,-0.093,-2.979,-9.478,-0.17,-3.003,2.66,1.26,0.77
226.0,-9.502,-0.12,-2.991,-9.478,-0.048,-3.113,2.17,1.61,0.77
,-9.481,-0.112,-3.02,-9.421,-0.069,-3.13,2.1,1.61,0.7
,-9.421,-0.081,-3.037,-9.416,-0.045,-3.12,2.17,1.82,0.7
,-9.512,-0.06,-3.056,-9.404,-0.093,-3.049,2.1,1.82,0.7
302.0,-9.464,-0.05,-3.041,-9.474,-0.053,-3.094,2.45,1.33,0.84
,-9.488,-0.06,-3.025,-9.426,-0.115,-3.075,2.24,1.33,0.7
,-9.471,-0.117,-2.994,-9.383,-0.086,-3.058,2.03,1.33,0.63
,-9.435,-0.151,-3.046,-9.462,-0.127,-3.046,2.24,1.33,0.56
378.0,-9.447,-0.151,-3.068,-9.418,-0.141,-3.017,2.59,1.54,0.84
,-9.452,-0.105,-3.017,-9.428,-0.112,-3.029,2.73,1.33,0.84
,-9.481,-0.101,-3.025,-9.43,-0.105,-3.039,2.8,1.54,0.84
,-9.402,-0.093,-2.994,-9.507,-0.084,-3.027,2.66,1.47,0.84
453.0,-9.457,-0.103,-3.025,-9.45,-0.093,-3.025,2.52,1.47,0.77
,-9.421,-0.115,-3.056,-9.426,-0.086,-3.089,2.59,1.54,0.84
,-9.44,-0.105,-3.082,-9.445,-0.11,-3.053,2.66,1.68,0.91
,-9.399,-0.086,-3.084,-9.445,-0.12,-3.056,2.66,1.54,0.91
529.0,-9.454,-0.124,-3.07,-9.459,-0.098,-3.015,2.66,1.4,0.84
,-9.447,-0.098,-3.065,-9.457,-0.144,-2.984,2.66,1.26,0.91
,-9.43,-0.115,-3.01,-9.421,-0.122,-2.962,2.66,1.47,1.05
,-9.433,-0.053,-2.991,-9.469,-0.074,-3.022,2.59,1.54,1.05
604.0,-9.445,-0.117,-3.08,-9.478,-0.007,-3.125,2.17,1.89,1.19
,-9.462,-0.026,-3.032,-9.428,-0.057,-3.139,2.17,1.89,1.05
,-9.418,-0.098,-3.075,-9.45,-0.074,-3.12,1.82,1.75,0.98
,-9.409,-0.077,-3.075,-9.452,-0.072,-3.156,1.89,1.75,0.98
680.0,-9.414,-0.081,-3.171,-9.416,-0.124,-3.053,2.38,1.19,0.91
,-9.409,-0.072,-3.128,-9.447,-0.105,-3.077,2.59,1.05,0.98
,-9.469,-0.067,-3.056,-9.399,-0.168,-3.094,2.73,1.12,0.91
,-9.478,-0.098,-3.077,-9.418,-0.053,-3.063,2.59,1.05,0.91
756.0,-9.433,-0.103,-3.051,-9.43,-0.098,-2.979,2.94,0.84,0.98
,-9.435,-0.129,-2.974,-9.457,-0.144,-2.979,3.01,0.84,0.98
,-9.416,-0.108,-2.95,-9.442,-0.127,-3.025,3.01,0.98,0.98
,-9.521,-0.06,-2.974,-9.447,-0.098,-2.998,3.08,0.84,0.98
832.0,-9.469,-0.115,-2.982,-9.454,-0.022,-3.01,2.52,1.54,1.12
,-9.466,-0.048,-2.996,-9.442,-0.05,-2.977,2.45,1.61,1.05
,-9.442,-0.014,-2.967,-9.459,-0.139,-2.996,2.24,1.68,0.98
,-9.462,-0.024,-2.965,-9.435,-0.156,-2.994,2.03,1.68,0.98
908.0,-9.409,-0.151,-3.003,-9.44,-0.148,-3.185,3.01,1.96,1.33
,-9.421,-0.139,-3.037,-9.416,-0.117,-3.214,2.87,2.1,1.47
,-9.44,-0.199,-3.077,-9.452,-0.005,-3.238,2.45,2.1,1.47
,-9.433,-0.144,-3.12,-9.407,-0.031,-3.183,1.96,2.03,1.33
983.0,-9.416,0.014,-3.142,-9.454,-0.129,-3.044,1.26,1.19,1.12
,-9.445,-0.043,-3.106,-9.442,-0.122,-3.046,1.54,0.98,1.12
,-9.481,-0.036,-3.07,-9.457,-0.11,-3.005,1.82,1.05,1.12
,-9.407,-0.043,-3.08,-9.464,-0.081,-3.032,1.96,0.98,1.26
1059.0,-9.476,-0.084,-2.924,-9.474,-0.067,-3.041,2.52,1.19,1.19
,-9.466,-0.043,-2.929,-9.423,-0.079,-3.015,2.38,1.12,1.19
,-9.485,-0.101,-2.953,-9.416,0.007,-3.037,2.17,1.12,1.26
,-9.481,-0.141,-2.912,-9.457,-0.005,-3.053,2.45,1.54,1.33
1135.0,-9.476,-0.029,-3.051,-9.426,-0.022,-3.072,2.1,1.54,1.19
,-9.459,-0.06,-3.099,-9.438,-0.045,-3.077,1.96,1.61,1.26
,-9.445,-0.05,-3.034,-9.485,-0.057,-3.008,1.75,1.54,1.12
,-9.452,-0.053,-3.072,-9.481,-0.034,-2.996,1.89,1.54,1.05
1211.0,-9.469,0.034,-2.989,-9.409,-0.053,-3.072,1.96,1.47,1.05
,-9.493,-0.043,-2.996,-9.44,-0.019,-3.041,1.75,1.54,1.12
,-9.428,-0.026,-3.029,-9.416,0.017,-3.017,1.82,1.47,0.91
,-9.466,-0.026,-3.058,-9.447,-0.038,-3.01,1.82,1.54,0.84
1286.0,-9.44,-0.091,-2.984,-9.433,-0.005,-3.118,2.45,1.68,0.98
,-9.428,-0.072,-3.008,-9.452,0.014,-3.116,2.38,1.47,0.91
,-9.49,-0.036,-3.034,-9.485,0.01,-3.07,2.38,1.4,0.77
,-9.452,-0.074,-3.084,-9.495,-0.031,-3.039,2.31,1.61,0.98
1362.0,-9.44,-0.072,-3.027,-9.452,-0.002,-3.032,2.31,1.47,0.98
,-9.445,-0.007,-3.046,-9.45,0.005,-2.95,2.38,1.54,0.91
,-9.457,-0.055,-3.025,-9.45,-0.108,-2.979,2.52,1.4,0.91
,-9.435,-0.019,-3.022,-9.469,-0.101,-2.929,2.59,1.4,0.84
1437.0,-9.45,-0.112,-2.915,-9.45,-0.022,-3.065,2.73,1.89,1.12
,-9.442,-0.089,-3.025,-9.452,0.022,-3.063,2.66,1.96,0.98
,-9.462,-0.093,-3.022,-9.44,0.002,-3.07,2.45,1.75,0.98
,-9.428,-0.041,-2.998,-9.392,-0.014,-3.061,2.1,1.82,1.05
1513.0,-9.416,0.024,-3.113,-9.459,0.022,-3.139,1.82,1.75,0.77
,-9.485,-0.007,-3.19,-9.395,-0.014,-3.075,2.03,1.75,0.77
,-9.426,-0.029,-3.137,-9.44,-0.072,-3.063,2.24,1.68,0.77
,-9.476,-0.002,-3.147,-9.469,-0.074,-3.063,2.24,1.26,0.7
1589.0,-9.43,-0.086,-3.029,-9.421,-0.069,-2.998,2.8,1.26,0.77
,-9.43,-0.043,-2.998,-9.416,-0.029,-2.974,3.01,1.26,0.7
,-9.45,0.01,-3.039,-9.43,-0.05,-3.003,3.01,1.12,0.63
,-9.426,-0.038,-3.037,-9.442,-0.079,-2.991,2.73,1.26,0.56
1665.0,-9.445,-0.012,-2.984,-9.438,-0.069,-2.984,2.66,1.47,0.7
,-9.44,-0.036,-2.972,-9.447,-0.031,-3.013,2.73,1.68,0.77
,-9.454,-0.038,-3.001,-9.478,-0.069,-3.013,2.66,1.68,0.63
,-9.442,0.002,-2.991,-9.43,-0.084,-2.994,2.52,1.61,0.56
1741.0,-9.442,-0.026,-3.039,-9.366,-0.045,-3.139,2.73,1.82,0.84
,-9.445,0.026,-3.013,-9.404,-0.036,-3.159,2.38,1.89,0.77
,-9.452,-0.014,-3.106,-9.39,0.0,-3.065,2.03,1.89,0.7
,-9.38,-0.036,-3.106,-9.481,-0.005,-3.087,1.96,1.82,0.77
1816.0,-9.399,-0.041,-3.058,-9.438,-0.048,-3.044,1.82,1.61,0.77
,-9.45,-0.084,-3.084,-9.457,-0.065,-3.049,1.96,1.54,0.7
,-9.433,-0.062,-3.068,-9.414,-0.031,-3.039,2.45,1.68,0.7
,-9.416,-0.045,-3.07,-9.454,-0.041,-3.008,2.66,1.54,0.7
1892.0,-9.462,-0.034,-3.082,-9.447,-0.043,-3.058,2.66,1.47,0.84
,-9.462,-0.074,-3.075,-9.464,-0.06,-3.063,2.66,1.47,0.63
,-9.442,-0.043,-3.082,-9.457,-0.091,-3.032,2.8,1.4,0.63
,-9.397,-0.029,-3.101,-9.44,-0.091,-3.017,2.87,1.47,0.7
1968.0,-9.454,-0.065,-2.989,-9.423,-0.041,-3.101,3.01,1.47,0.77
,-9.474,-0.043,-2.979,-9.411,-0.007,-3.063,2.8,1.54,0.7
,-9.385,-0.05,-3.049,-9.447,0.0,-3.01,2.73,1.54,0.7
,-9.411,-0.029,-3.111,-9.462,0.017,-3.025,2.8,1.68,0.7
2044.0,-9.447,-0.055,-2.965,-9.433,-0.038,-3.089,2.52,1.47,0.7
,-9.457,-0.101,-2.97,-9.442,-0.041,-3.072,2.66,1.61,0.77
,-9.488,-0.105,-2.994,-9.421,-0.029,-3.094,2.87,1.68,0.84
,-9.454,-0.053,-3.07,-9.414,-0.012,-3.104,2.87,1.68,0.84
2119.0,-9.402,0.0,-3.142,-9.481,-0.055,-3.051,2.52,1.54,0.7
,-9.435,0.002,-3.08,-9.488,-0.079,-3.084,2.59,1.4,0.7
,-9.426,-0.026,-3.075,-9.395,-0.072,-3.041,2.66,1.4,0.77
,-9.423,-0.019,-3.061,-9.447,-0.069,-3.056,2.87,1.4,0.7
2195.0,-9.433,-0.079,-3.008,-9.426,-0.043,-2.998,2.94,1.33,0.84
,-9.435,-0.024,-3.022,-9.483,-0.024,-3.051,2.73,1.33,0.77
,-9.428,-0.036,-3.015,-9.485,-0.041,-3.044,2.59,1.33,0.63
,-9.459,-0.06,-3.02,-9.459,-0.031,-3.034,2.59,1.47,0.77
2270.0,-9.454,-0.012,-3.056,-9.418,-0.055,-3.022,2.1,1.54,0.7
,-9.466,-0.043,-3.084,-9.462,-0.048,-3.029,2.24,1.54,0.84
,-9.442,-0.029,-3.051,-9.435,-0.067,-3.013,2.1,1.4,0.77
,-9.452,-0.079,-3.058,-9.442,-0.007,-3.041,2.1,1.54,0.77
2346.0,-9.469,-0.029,-3.041,-9.44,-0.034,-3.084,2.31,1.61,0.77
,-9.43,-0.017,-3.013,-9.407,-0.019,-3.075,2.17,1.68,0.77
,-9.45,-0.069,-3.034,-9.411,-0.022,-3.072,2.45,1.54,0.84
,-9.495,-0.041,-3.049,-9.445,-0.005,-3.044,2.59,1.47,0.77
2422.0,-9.466,-0.065,-3.056,-9.395,-0.034,-3.025,2.59,1.4,0.77
,-9.423,-0.112,-3.025,-9.435,-0.038,-3.072,2.73,1.68,0.98
,-9.447,-0.115,-3.061,-9.435,-0.014,-3.104,2.87,1.47,0.98
,-9.459,-0.053,-3.106,-9.416,-0.024,-3.166,3.08,1.47,0.91
2498.0,-9.44,0.024,-3.108,-9.433,-0.05,-3.08,2.87,1.12,0.84
,-9.411,0.024,-3.132,-9.411,-0.048,-3.027,3.01,1.12,0.84
,-9.407,-0.01,-3.096,-9.438,-0.06,-2.996,3.01,0.77,0.7
,-9.423,-0.002,-3.154,-9.488,-0.074,-2.927,2.94,0.91,0.7
2574.0,-9.524,-0.077,-2.977,-9.471,-0.017,-3.008,3.01,1.26,0.91
,-9.454,-0.105,-2.946,-9.438,-0.026,-3.087,3.08,1.4,0.98
,-9.476,-0.112,-2.941,-9.421,-0.048,-3.072,2.94,1.47,0.98
,-9.469,-0.096,-2.967,-9.414,-0.019,-3.051,2.87,1.82,0.91
2649.0,-9.423,-0.024,-3.068,-9.416,-0.012,-3.106,2.38,1.89,0.91
,-9.399,-0.053,-3.008,-9.442,-0.038,-3.13,2.45,1.82,0.91
,-9.454,-0.019,-3.008,-9.378,-0.024,-3.187,2.45,1.82,0.91
,-9.485,-0.079,-3.082,-9.421,0.026,-3.123,2.45,1.89,0.91
2725.0,-9.428,0.007,-3.135,-9.428,-0.038,-3.063,2.52,1.4,0.7
,-9.421,0.055,-3.137,-9.454,-0.057,-3.072,2.45,1.12,0.56
,-9.445,-0.026,-3.082,-9.418,-0.074,-3.013,2.45,0.84,0.49
,-9.485,-0.017,-3.053,-9.433,-0.065,-3.032,2.59,0.91,0.63
2801.0,-9.459,-0.11,-2.943,-9.488,-0.06,-2.989,3.01,1.19,0.84
,-9.447,-0.091,-2.95,-9.445,-0.002,-3.027,2.94,1.12,0.7
,-9.464,-0.122,-2.936,-9.445,-0.034,-3.063,2.87,1.33,0.7
,-9.478,-0.055,-2.989,-9.445,0.031,-3.135,2.87,1.26,0.63
2877.0,-9.474,-0.019,-3.077,-9.462,-0.079,-3.058,2.8,1.33,0.7
,-9.421,-0.034,-3.039,-9.416,-0.077,-3.022,2.52,1.26,0.56
,-9.462,-0.031,-3.013,-9.423,-0.062,-3.065,2.45,1.4,0.63
,-9.454,-0.038,-3.025,-9.418,-0.093,-3.104,2.59,1.47,0.7
2952.0,-9.462,-0.081,-3.053,-9.43,-0.067,-3.022,2.17,1.47,0.7
,-9.407,-0.101,-3.065,-9.423,-0.067,-3.029,2.17,1.54,0.7
,-9.438,-0.105,-3.068,-9.435,-0.024,-3.041,2.03,1.33,0.77
,-9.428,-0.038,-3.039,-9.462,-0.05,-3.08,2.17,1.61,0.91
3028.0,-9.457,-0.05,-3.056,-9.454,-0.036,-3.075,2.1,1.4,0.84
,-9.476,-0.055,-3.058,-9.442,-0.079,-3.065,2.24,1.33,0.84
,-9.416,-0.029,-3.082,-9.459,-0.096,-3.029,2.24,1.19,0.77
,-9.421,-0.007,-3.142,-9.421,-0.041,-3.032,2.17,1.12,0.84
3103.0,-9.438,-0.055,-3.063,-9.447,-0.067,-2.962,2.66,0.98,0.91
,-9.404,-0.067,-3.034,-9.447,-0.079,-2.982,2.8,1.33,1.05
,-9.445,-0.093,-3.01,-9.433,-0.057,-2.96,2.8,1.12,1.05
,-9.44,-0.086,-3.025,-9.435,-0.043,-2.967,2.73,1.12,1.05
3179.0,-9.474,-0.05,-3.003,-9.416,0.002,-3.151,2.66,1.4,0.91
,-9.485,-0.019,-3.017,-9.409,0.065,-3.159,2.73,1.47,0.98
,-9.512,-0.065,-3.072,-9.44,0.05,-3.168,2.73,1.47,0.98
,-9.5,-0.019,-3.154,-9.421,0.043,-3.161,2.59,1.33,0.91
3255.0,-9.469,0.005,-3.118,-9.416,-0.005,-3.058,3.01,0.63,0.7
,-9.466,-0.072,-3.118,-9.409,-0.065,-3.039,3.43,0.35,0.63
,-9.404,0.024,-3.053,-9.464,-0.036,-2.986,3.64,0.35,0.77
,-9.454,-0.048,-3.132,-9.426,-0.026,-2.903,3.64,0.28,0.63
3331.0,-9.493,-0.093,-2.907,-9.459,-0.089,-2.883,3.43,0.49,0.77
,-9.466,-0.012,-2.891,-9.476,-0.06,-2.917,3.71,0.77,0.84
,-9.488,-0.024,-2.864,-9.447,-0.062,-2.922,3.36,0.91,0.77
,-9.509,-0.103,-2.855,-9.45,-0.067,-2.943,2.94,1.12,0.7
3406.0,-9.445,-0.086,-2.915,-9.414,0.005,-3.084,2.73,1.82,0.84
,-9.418,-0.053,-2.934,-9.404,-0.036,-3.065,2.73,1.96,0.91
,-9.447,-0.036,-3.001,-9.435,-0.026,-3.082,2.59,1.96,0.84
,-9.423,-0.062,-3.049,-9.45,-0.038,-3.08,2.38,2.17,0.77
3482.0,-9.442,0.014,-3.094,-9.438,-0.012,-3.065,2.24,1.68,0.63
,-9.435,-0.026,-3.051,-9.447,-0.026,-2.979,2.17,1.75,0.63
,-9.45,-0.055,-3.058,-9.442,-0.045,-2.991,2.31,1.75,0.63
,-9.478,0.012,-3.049,-9.505,-0.05,-3.037,2.66,1.54,0.56
3558.0,-9.433,-0.069,-3.056,-9.483,-0.045,-2.962,2.73,1.26,0.42
,-9.421,-0.053,-3.056,-9.45,-0.074,-2.977,2.87,1.33,0.49
,-9.43,-0.043,-3.056,-9.514,-0.048,-3.061,3.01,1.47,0.7
,-9.438,-0.048,-3.015,-9.466,-0.045,-3.049,3.01,1.47,0.7
3634.0,-9.447,-0.036,-3.082,-9.45,-0.077,-2.994,2.87,1.26,0.56
,-9.411,-0.034,-3.044,-9.442,-0.077,-2.996,3.01,1.26,0.56
,-9.44,-0.031,-3.072,-9.45,-0.112,-3.02,2.94,1.19,0.56
,-9.464,-0.06,-2.989,-9.462,-0.069,-2.991,3.08,1.12,0.56
3710.0,-9.45,-0.074,-3.008,-9.433,-0.012,-2.974,3.29,1.12,0.56
,-9.466,-0.069,-2.931,-9.426,-0.077,-3.053,3.22,1.54,0.7
,-9.478,-0.053,-2.965,-9.457,-0.05,-3.077,3.15,1.54,0.77
,-9.481,-0.034,-2.97,-9.452,-0.05,-3.058,3.08,1.68,0.77
3785.0,-9.43,-0.024,-3.051,-9.435,-0.072,-3.013,2.59,1.4,0.63
,-9.435,-0.057,-3.063,-9.409,-0.089,-2.97,2.66,1.61,0.77
,-9.462,-0.036,-3.032,-9.464,-0.062,-2.994,2.59,1.47,0.7
,-9.445,-0.084,-3.029,-9.45,-0.055,-2.962,2.59,1.4,0.63
3861.0,-9.466,-0.077,-2.984,-9.433,-0.081,-2.989,2.73,1.54,0.77
,-9.421,-0.084,-3.025,-9.421,-0.072,-3.017,2.66,1.54,0.7
,-9.435,-0.038,-2.965,-9.462,-0.031,-3.02,2.52,1.68,0.84
,-9.45,-0.053,-3.032,-9.474,-0.057,-2.996,2.38,1.47,0.77
3936.0,-9.454,-0.089,-2.998,-9.454,-0.041,-3.049,2.66,1.68,0.91
,-9.442,-0.091,-3.065,-9.474,-0.045,-3.08,2.8,1.61,0.91
,-9.426,-0.086,-3.029,-9.442,-0.057,-3.027,2.73,1.68,0.91
,-9.438,-0.062,-3.068,-9.44,-0.093,-3.061,2.73,1.68,0.84
4012.0,-9.421,-0.017,-3.07,-9.49,-0.057,-2.986,2.87,1.33,0.91
,-9.45,-0.024,-3.077,-9.447,-0.062,-3.015,2.66,1.47,0.84
,-9.445,-0.081,-3.013,-9.459,-0.074,-2.984,2.45,1.47,0.84
,-9.411,-0.074,-3.013,-9.454,-0.134,-2.982,2.59,1.47,0.91
4088.0,-9.462,-0.067,-2.991,-9.457,0.024,-3.029,3.01,1.75,1.05
,-9.452,-0.057,-2.929,-9.459,-0.022,-2.996,2.94,1.75,0.91
,-9.462,-0.091,-2.972,-9.485,-0.045,-3.123,2.66,1.75,0.84
,-9.43,-0.089,-2.991,-9.447,-0.067,-3.108,2.59,1.82,0.91
4164.0,-9.418,-0.026,-3.104,-9.478,-0.036,-3.02,2.31,1.61,0.84
,-9.45,-0.007,-3.144,-9.45,-0.053,-2.998,2.38,1.47,0.84
,-9.366,-0.022,-3.089,-9.433,-0.098,-3.005,2.31,1.54,0.84
,-9.469,-0.072,-3.092,-9.454,-0.11,-3.044,2.38,1.12,0.77
4239.0,-9.471,-0.098,-3.039,-9.466,-0.045,-2.941,2.45,1.47,0.7
,-9.426,-0.045,-3.022,-9.497,-0.062,-2.929,2.52,1.26,0.7
,-9.454,-0.067,-3.003,-9.459,-0.11,-2.917,2.31,1.33,0.77
,-9.421,-0.074,-2.982,-9.478,-0.096,-2.953,2.31,1.54,0.77
4315.0,-9.481,-0.069,-2.991,-9.407,-0.012,-3.111,2.38,1.82,0.91
,-9.435,-0.11,-3.034,-9.476,-0.022,-3.092,2.24,1.96,0.98
,-9.452,-0.077,-3.056,-9.392,-0.01,-3.096,2.1,2.1,0.98
,-9.395,-0.081,-3.111,-9.45,-0.034,-3.116,2.1,1.96,0.91
4390.0,-9.416,-0.053,-3.12,-9.442,-0.029,-3.025,2.38,1.47,0.91
,-9.395,-0.062,-3.125,-9.457,-0.057,-3.017,2.31,1.4,0.84
,-9.409,-0.072,-3.07,-9.433,-0.045,-3.072,2.45,1.4,0.91
,-9.404,-0.048,-3.051,-9.442,-0.074,-3.08,2.59,1.54,1.12
4466.0,-9.452,-0.034,-3.101,-9.474,-0.065,-2.948,2.45,1.26,0.7
,-9.409,-0.067,-3.058,-9.43,-0.053,-2.998,2.52,1.26,0.77
,-9.435,-0.041,-3.025,-9.493,-0.091,-3.032,2.59,1.26,0.84
,-9.454,-0.041,-3.015,-9.409,-0.11,-3.01,2.66,1.19,0.84
4542.0,-9.385,-0.072,-3.034,-9.416,-0.086,-2.984,2.45,1.47,0.77
,-9.469,-0.055,-3.034,-9.438,-0.041,-3.013,2.38,1.61,0.84
,-9.471,-0.002,-3.032,-9.457,-0.041,-3.008,2.38,1.61,0.84
,-9.471,-0.026,-2.991,-9.45,-0.031,-3.061,2.17,1.47,0.77
4618.0,-9.466,-0.072,-3.051,-9.452,-0.026,-3.008,2.45,1.82,1.05
,-9.43,-0.069,-3.013,-9.44,-0.036,-3.001,2.45,1.96,0.98
,-9.43,-0.122,-3.022,-9.478,-0.101,-2.958,2.31,2.03,0.98
,-9.476,-0.062,-3.022,-9.457,-0.072,-2.962,2.45,1.96,1.05
4694.0,-9.502,-0.055,-3.013,-9.435,-0.017,-3.168,2.87,2.31,1.19
,-9.457,-0.05,-3.061,-9.387,0.005,-3.137,2.73,2.03,1.05
,-9.44,-0.029,-3.116,-9.399,0.014,-3.19,2.52,2.17,0.91
,-9.402,-0.034,-3.173,-9.409,0.057,-3.108,2.59,2.17,0.98
4769.0,-9.423,-0.005,-3.171,-9.45,-0.024,-3.051,2.52,1.33,0.77
,-9.411,-0.017,-3.151,-9.462,-0.067,-3.017,2.59,1.26,0.77
,-9.421,-0.038,-3.08,-9.452,-0.093,-3.015,2.73,1.12,0.84
,-9.416,-0.002,-3.034,-9.481,-0.055,-3.025,2.8,1.19,0.7
4845.0,-9.438,-0.057,-3.051,-9.438,-0.017,-2.989,2.66,1.26,0.77
,-9.416,-0.017,-3.061,-9.421,-0.069,-3.029,2.59,1.54,0.91
,-9.39,-0.012,-3.058,-9.459,-0.019,-3.02,2.59,1.4,0.91
,-9.428,-0.038,-3.029,-9.45,-0.086,-3.058,2.45,1.4,0.91
4921.0,-9.45,-0.065,-3.003,-9.409,-0.053,-3.058,2.45,1.61,0.91
,-9.462,-0.096,-3.037,-9.428,-0.038,-3.099,2.52,1.68,0.91
,-9.459,-0.069,-3.022,-9.397,-0.022,-3.094,2.59,1.75,0.98
,-9.428,-0.022,-3.044,-9.447,-0.038,-3.051,2.45,1.68,0.84
4997.0,-9.411,-0.043,-3.077,-9.445,-0.012,-3.087,2.38,1.47,0.84
,-9.442,-0.014,-3.068,-9.438,0.014,-3.046,2.45,1.33,0.84
,-9.45,-0.022,-3.044,-9.43,-0.089,-3.01,2.52,1.4,0.91
,-9.471,-0.043,-3.092,-9.476,-0.072,-3.02,2.52,1.47,0.84
5072.0,-9.469,-0.079,-2.998,-9.399,-0.06,-3.022,2.1,1.33,0.77
,-9.435,-0.074,-3.003,-9.428,-0.05,-3.046,2.31,1.47,0.77
,-9.452,-0.074,-2.986,-9.45,-0.038,-3.037,2.31,1.61,0.84
,-9.421,-0.041,-3.061,-9.462,-0.026,-3.077,2.38,1.75,0.91
5148.0,-9.464,-0.017,-3.084,-9.466,-0.041,-3.096,2.24,1.4,0.84
,-9.447,-0.077,-3.147,-9.45,-0.031,-3.061,2.17,1.33,0.77
,-9.395,-0.002,-3.108,-9.433,-0.055,-3.037,2.45,1.4,0.84
,-9.404,0.0,-3.106,-9.423,-0.057,-2.982,2.59,1.26,0.77
5223.0,-9.45,-0.048,-3.01,-9.43,-0.043,-3.017,2.66,1.19,0.7
,-9.402,-0.105,-2.998,-9.442,-0.031,-3.068,2.59,1.4,0.77
,-9.397,-0.093,-3.02,-9.462,-0.06,-3.058,2.59,1.4,0.84
,-9.395,-0.038,-3.005,-9.423,-0.045,-3.029,2.8,1.33,0.84
5299.0,-9.423,-0.036,-3.013,-9.44,-0.031,-3.077,2.52,1.61,0.98
,-9.45,-0.048,-3.061,-9.462,-0.019,-3.07,2.66,1.75,1.05
,-9.454,-0.029,-3.022,-9.411,-0.007,-3.075,2.59,1.75,1.05
,-9.44,-0.038,-3.063,-9.407,-0.022,-3.082,2.52,1.75,1.05
5375.0,-9.45,-0.002,-3.084,-9.469,-0.017,-3.092,2.31,1.4,0.91
,-9.423,-0.038,-3.116,-9.428,-0.048,-3.051,2.38,1.33,0.84
,-9.411,-0.05,-3.094,-9.438,-0.041,-3.013,2.38,1.26,0.84
,-9.428,-0.05,-3.08,-9.395,-0.019,-3.051,2.45,1.33,0.91
5451.0,-9.409,0.019,-3.072,-9.488,-0.041,-3.017,2.45,1.33,0.84
,-9.466,-0.048,-3.046,-9.457,-0.045,-3.005,2.52,1.33,0.84
,-9.404,-0.014,-3.029,-9.421,-0.057,-3.068,2.73,1.47,0.84
,-9.397,-0.038,-3.025,-9.435,-0.017,-3.096,2.59,1.4,0.84
5527.0,-9.433,-0.002,-3.089,-9.457,-0.012,-3.027,2.31,1.4,0.84
,-9.416,-0.041,-3.065,-9.428,-0.017,-3.017,2.31,1.47,0.84
,-9.435,-0.029,-3.032,-9.43,-0.041,-3.034,2.31,1.54,0.77
,-9.428,0.029,-3.044,-9.426,-0.05,-3.008,2.31,1.33,0.77
5602.0,-9.433,-0.074,-3.046,-9.43,-0.072,-3.037,2.31,1.26,0.7
,-9.435,-0.093,-3.049,-9.426,0.002,-3.003,2.38,1.33,0.7
,-9.428,-0.022,-3.005,-9.497,0.005,-3.008,2.52,1.54,0.84
,-9.435,-0.012,-2.979,-9.471,-0.041,-3.015,2.38,1.47,0.91
5678.0,-9.433,0.01,-3.082,-9.464,-0.022,-3.075,2.31,1.47,0.84
,-9.462,-0.05,-3.087,-9.426,-0.038,-3.084,2.59,1.4,0.77
,-9.428,-0.022,-3.053,-9.411,-0.045,-3.084,2.8,1.54,0.98
,-9.45,-0.002,-3.056,-9.411,-0.057,-3.041,2.94,1.4,0.91
5754.0,-9.426,-0.045,-3.017,-9.454,-0.086,-3.065,2.66,1.47,0.84
,-9.454,-0.034,-3.068,-9.411,-0.069,-3.034,2.8,1.33,0.84
,-9.469,-0.01,-3.015,-9.435,-0.026,-3.037,2.38,1.33,0.84
,-9.454,-0.062,-3.041,-9.45,-0.034,-3.065,2.45,1.4,0.91
5830.0,-9.402,-0.01,-3.049,-9.426,-0.038,-3.046,2.45,1.54,0.91
,-9.476,-0.036,-3.005,-9.457,-0.045,-3.032,2.52,1.54,0.98
,-9.454,-0.057,-3.07,-9.44,-0.034,-3.037,2.66,1.61,0.98
,-9.45,-0.029,-3.058,-9.409,-0.007,-3.051,2.66,1.47,0.91
5905.0,-9.414,-0.007,-3.051,-9.409,-0.019,-3.061,2.59,1.68,0.98
,-9.397,0.014,-3.049,-9.445,-0.005,-3.041,2.66,1.33,0.84
,-9.45,-0.002,-3.061,-9.414,0.012,-3.068,2.66,1.33,0.91
,-9.447,-0.036,-3.037,-9.438,-0.024,-3.089,2.73,1.54,0.84
5981.0,-9.43,-0.024,-3.063,-9.45,0.031,-3.063,2.66,1.47,0.91
,-9.45,0.002,-3.029,-9.428,-0.005,-3.053,2.52,1.54,0.84
,-9.438,-0.012,-3.029,-9.481,-0.029,-3.087,2.45,1.4,0.84
,-9.421,-0.045,-3.065,-9.409,0.007,-3.039,2.38,1.4,0.77
6057.0,-9.435,-0.045,-3.068,-9.407,-0.084,-2.96,2.73,1.19,0.77
,-9.433,-0.048,-3.056,-9.466,-0.045,-2.972,2.66,1.26,0.84
,-9.462,-0.065,-2.965,-9.462,0.01,-3.039,2.8,1.4,0.91
,-9.507,-0.031,-2.989,-9.454,-0.029,-3.008,2.87,1.61,0.91
6133.0,-9.462,-0.031,-3.025,-9.474,0.043,-3.128,2.52,1.61,0.91
,-9.49,-0.053,-3.07,-9.397,0.019,-3.195,2.45,1.68,0.91
,-9.44,-0.012,-3.108,-9.395,0.029,-3.187,2.45,1.68,0.84
,-9.397,0.031,-3.051,-9.445,0.026,-3.082,2.52,1.68,0.77
6208.0,-9.423,0.031,-3.123,-9.469,-0.038,-2.984,2.87,1.12,0.63
,-9.433,-0.005,-3.094,-9.469,-0.069,-2.965,2.73,1.12,0.63
,-9.454,-0.065,-3.008,-9.483,-0.086,-2.96,2.66,0.84,0.56
,-9.462,-0.043,-2.991,-9.457,-0.057,-2.989,3.01,1.12,0.7
6284.0,-9.471,-0.038,-3.008,-9.471,0.007,-3.008,2.87,1.4,0.77
,-9.447,-0.043,-2.972,-9.474,-0.019,-3.044,2.8,1.68,0.77
,-9.457,-0.067,-3.005,-9.464,-0.062,-3.027,2.8,1.68,0.84
,-9.462,-0.012,-3.02,-9.433,-0.048,-3.053,2.8,1.61,0.84
6359.0,-9.462,-0.05,-3.13,-9.442,-0.017,-3.075,2.8,1.89,0.91
,-9.387,-0.038,-3.111,-9.462,-0.012,-3.072,3.01,1.89,0.91
,-9.442,0.022,-3.125,-9.471,-0.026,-3.02,2.87,1.82,0.91
,-9.385,0.038,-3.113,-9.493,0.002,-3.061,2.8,1.82,0.98
6435.0,-9.44,-0.022,-3.01,-9.45,-0.024,-3.025,2.73,1.26,0.7
,-9.418,-0.06,-3.07,-9.426,-0.029,-3.005,2.94,1.4,0.77
,-9.438,-0.012,-3.089,-9.466,-0.065,-3.046,3.08,1.61,0.84
,-9.454,-0.029,-3.046,-9.488,-0.05,-3.063,3.08,1.54,0.77
6511.0,-9.466,-0.062,-3.08,-9.407,-0.014,-3.089,2.66,1.75,0.84
,-9.428,-0.067,-3.051,-9.414,0.024,-3.077,2.8,1.54,0.7
,-9.457,-0.041,-3.094,-9.457,-0.01,-3.039,2.73,1.54,0.77
,-9.423,-0.041,-3.111,-9.442,-0.024,-3.07,2.59,1.54,0.7
6587.0,-9.426,-0.014,-3.077,-9.474,-0.031,-3.125,2.52,1.4,0.7
,-9.43,-0.022,-3.099,-9.442,-0.043,-3.089,2.52,1.26,0.77
,-9.438,-0.014,-3.087,-9.452,-0.06,-3.087,2.45,1.19,0.7
,-9.411,0.036,-3.092,-9.454,-0.022,-3.061,2.66,1.19,0.7
6663.0,-9.423,-0.057,-3.065,-9.445,-0.05,-2.943,2.94,1.05,0.77
,-9.421,-0.024,-3.017,-9.474,-0.072,-2.989,2.87,0.91,0.7
,-9.421,-0.065,-2.996,-9.493,-0.055,-3.005,2.87,1.05,0.84
,-9.435,-0.069,-2.955,-9.411,-0.045,-3.015,2.87,1.12,0.84
6738.0,-9.457,-0.048,-3.092,-9.44,0.017,-3.049,2.73,1.47,0.84
,-9.466,-0.012,-3.116,-9.478,-0.026,-3.058,2.59,1.4,0.77
,-9.433,-0.01,-3.046,-9.423,0.012,-3.003,2.38,1.4,0.7
,-9.433,0.002,-3.096,-9.433,-0.034,-3.032,2.24,1.47,0.77
6814.0,-9.459,-0.041,-3.039,-9.442,-0.036,-3.032,2.38,1.54,0.77
,-9.445,-0.005,-3.041,-9.418,-0.081,-3.056,2.52,1.4,0.7
,-9.433,-0.01,-2.97,-9.462,-0.029,-3.049,2.59,1.26,0.84
,-9.452,-0.022,-3.032,-9.433,-0.024,-3.022,2.45,1.47,0.91
6890.0,-9.45,-0.026,-3.051,-9.416,-0.041,-3.013,2.38,1.47,0.7
,-9.43,-0.012,-3.003,-9.435,-0.029,-2.972,2.38,1.68,0.77
,-9.457,-0.01,-3.02,-9.485,-0.055,-3.003,2.24,1.82,0.77
,-9.462,-0.005,-2.998,-9.464,-0.024,-3.005,2.38,1.75,0.7
6966.0,-9.452,-0.041,-3.104,-9.397,0.002,-3.123,2.24,1.82,0.84
,-9.457,-0.06,-3.132,-9.445,0.038,-3.041,2.17,1.75,0.77
,-9.454,-0.017,-3.192,-9.483,0.024,-3.075,2.45,1.68,0.84
,-9.414,0.014,-3.161,-9.445,-0.026,-3.037,2.52,1.61,0.84
7041.0,-9.407,-0.065,-3.049,-9.452,-0.05,-3.099,2.8,1.47,0.84
,-9.442,-0.129,-3.101,-9.395,-0.045,-3.022,2.94,1.47,0.84
,-9.442,-0.065,-3.108,-9.435,0.0,-3.037,3.01,1.47,0.84
,-9.452,-0.022,-3.08,-9.481,-0.036,-3.096,2.8,1.33,0.84
7117.0,-9.43,-0.014,-3.008,-9.426,-0.034,-3.096,2.66,1.47,1.05
,-9.476,-0.067,-3.034,-9.478,-0.01,-3.132,2.87,1.47,0.98
,-9.457,-0.093,-3.058,-9.378,-0.041,-3.156,2.8,1.47,0.98
,-9.442,-0.022,-3.027,-9.399,-0.017,-3.144,2.8,1.47,0.91
7192.0,-9.383,-0.036,-3.106,-9.464,-0.029,-3.051,2.52,1.26,0.77
,-9.423,0.017,-3.063,-9.435,-0.012,-3.041,2.66,1.19,0.84
,-9.402,-0.057,-3.046,-9.407,-0.06,-3.058,2.45,1.19,0.84
,-9.421,-0.091,-3.005,-9.428,-0.026,-3.075,2.52,1.26,0.84
7268.0,-9.435,-0.017,-3.013,-9.464,-0.084,-2.996,2.45,1.26,0.91
,-9.445,-0.05,-2.97,-9.395,-0.057,-3.058,2.45,1.4,1.05
,-9.5,-0.034,-2.936,-9.414,-0.055,-3.072,2.31,1.47,1.12
,-9.474,-0.067,-2.929,-9.385,0.036,-3.128,2.31,1.75,1.12
7344.0,-9.442,0.034,-3.132,-9.399,0.053,-3.161,2.31,1.47,0.84
,-9.383,0.036,-3.123,-9.397,0.0,-3.125,2.31,1.47,0.91
,-9.414,0.0,-3.087,-9.411,-0.031,-3.087,2.24,1.47,1.05
,-9.459,0.022,-3.089,-9.445,-0.005,-3.089,2.31,1.33,0.91
7420.0,-9.462,-0.031,-3.01,-9.44,-0.029,-3.027,2.8,1.05,0.84
,-9.454,-0.002,-3.068,-9.421,-0.005,-3.039,2.87,1.19,0.91
,-9.471,-0.014,-3.015,-9.464,-0.029,-3.005,2.87,1.05,0.98
,-9.471,-0.043,-2.994,-9.433,0.005,-2.967,2.87,0.98,0.91
7496.0,-9.476,-0.041,-3.013,-9.418,0.017,-3.065,2.59,1.4,0.91
,-9.435,-0.038,-2.996,-9.457,0.022,-3.022,2.45,1.33,0.84
,-9.395,0.012,-3.02,-9.445,-0.005,-3.029,2.45,1.4,0.91
,-9.45,-0.036,-3.034,-9.414,-0.005,-3.118,2.59,1.47,0.98
7571.0,-9.466,0.005,-3.128,-9.495,0.0,-3.061,2.1,1.4,0.77
,-9.418,0.007,-3.106,-9.44,-0.062,-3.044,2.24,1.54,0.77
,-9.414,0.017,-3.111,-9.478,0.0,-3.034,2.38,1.33,0.84
,-9.438,0.022,-3.106,-9.442,-0.01,-3.087,2.66,1.33,0.84
7647.0,-9.421,-0.034,-3.049,-9.442,0.0,-2.994,2.66,1.19,0.77
,-9.397,-0.029,-3.032,-9.435,-0.048,-3.032,2.66,1.26,0.84
,-9.411,-0.041,-3.005,-9.49,-0.024,-3.046,2.66,1.12,0.91
,-9.509,0.026,-3.022,-9.452,-0.024,-3.07,2.8,1.33,0.91
7723.0,-9.416,-0.005,-3.139,-9.452,-0.057,-2.989,2.73,1.19,0.7
,-9.44,0.0,-3.092,-9.423,-0.065,-3.017,2.73,1.19,0.7
,-9.433,0.038,-3.034,-9.411,-0.036,-3.058,2.66,1.19,0.77
,-9.464,0.007,-3.005,-9.476,-0.029,-3.116,2.52,1.12,0.77
7799.0,-9.438,-0.019,-3.084,-9.43,-0.048,-2.991,2.66,1.19,0.77
,-9.454,0.0,-3.058,-9.464,-0.05,-3.068,2.66,1.19,0.7
,-9.471,0.014,-3.02,-9.428,-0.036,-3.027,2.52,1.19,0.77
,-9.452,-0.007,-3.013,-9.421,0.01,-3.099,2.38,1.19,0.77
7874.0,-9.426,0.026,-3.08,-9.474,-0.045,-2.989,2.87,1.26,0.84
,-9.409,0.026,-3.087,-9.454,-0.043,-3.022,2.66,1.47,0.84
,-9.43,-0.024,-3.022,-9.438,-0.06,-2.989,2.66,1.26,0.84
,-9.442,-0.026,-3.063,-9.44,-0.05,-3.037,2.66,1.33,0.98
7950.0,-9.452,-0.022,-3.01,-9.442,-0.005,-3.08,2.59,1.33,0.91
,-9.392,-0.024,-3.003,-9.411,-0.024,-3.02,2.66,1.54,0.84
,-9.442,-0.012,-3.082,-9.483,-0.01,-3.061,2.66,1.68,0.84
,-9.454,-0.005,-3.113,-9.433,0.0,-2.996,2.45,1.54,0.91
8025.0,-9.433,-0.024,-2.96,-9.428,-0.034,-3.053,2.52,1.33,0.77
,-9.397,-0.019,-2.989,-9.464,-0.048,-3.029,2.73,1.47,0.84
,-9.423,-0.019,-2.977,-9.474,-0.065,-3.099,2.73,1.54,0.77
,-9.464,-0.036,-3.077,-9.411,0.017,-3.082,2.73,1.4,0.91
8101.0,-9.454,0.045,-3.068,-9.404,-0.002,-3.041,2.24,1.54,0.77
,-9.5,0.06,-3.094,-9.407,-0.024,-3.07,2.45,1.47,0.77
,-9.418,0.034,-3.142,-9.397,-0.043,-3.008,2.52,1.33,0.77
,-9.438,-0.002,-3.104,-9.481,-0.05,-2.994,2.73,1.19,0.84
8177.0,-9.471,-0.093,-2.95,-9.435,-0.005,-2.95,2.87,0.98,0.7
,-9.452,-0.024,-2.977,-9.454,0.029,-2.924,2.94,0.91,0.7
,-9.454,-0.086,-3.005,-9.481,-0.031,-2.907,2.8,1.12,0.7
,-9.418,-0.022,-2.962,-9.497,-0.053,-2.891,3.01,1.19,0.84
8253.0,-9.478,-0.048,-2.97,-9.411,0.041,-3.173,1.82,1.89,0.91
,-9.466,-0.024,-3.025,-9.414,0.024,-3.154,1.82,1.82,0.77
,-9.464,0.026,-3.077,-9.445,0.007,-3.154,1.82,1.82,0.7
,-9.428,0.024,-3.13,-9.407,-0.029,-3.192,1.89,1.61,0.7
8329.0,-9.442,-0.055,-3.065,-9.428,-0.031,-2.953,2.59,1.19,0.84
,-9.426,-0.06,-3.065,-9.462,-0.034,-3.027,2.8,1.19,0.91
,-9.45,-0.031,-3.017,-9.404,-0.017,-3.058,2.94,0.91,0.84
,-9.485,-0.069,-2.998,-9.471,-0.012,-3.051,2.94,1.12,0.84
8404.0,-9.471,0.01,-3.077,-9.476,-0.017,-2.986,2.8,1.12,0.91
,-9.459,0.026,-3.046,-9.421,-0.041,-3.017,2.66,1.19,0.84
,-9.457,-0.007,-3.017,-9.469,-0.072,-3.02,2.52,1.26,0.84
,-9.457,-0.002,-3.061,-9.442,-0.01,-3.003,2.66,1.33,0.77
8480.0,-9.452,-0.084,-3.01,-9.485,-0.024,-3.077,2.31,1.47,0.91
,-9.435,-0.055,-3.015,-9.395,0.022,-3.092,2.24,1.47,0.84
,-9.481,-0.01,-3.013,-9.447,-0.012,-3.084,2.24,1.47,0.91
,-9.454,-0.014,-3.037,-9.502,0.057,-3.089,2.17,1.4,0.77
8556.0,-9.433,0.045,-3.077,-9.416,-0.089,-3.056,2.17,1.4,0.77
,-9.387,0.019,-3.044,-9.397,-0.019,-3.056,2.52,1.33,0.84
,-9.445,-0.017,-3.041,-9.447,-0.002,-3.027,2.66,1.12,0.77
,-9.435,-0.029,-3.075,-9.442,-0.034,-2.989,2.73,0.98,0.7
8632.0,-9.438,-0.053,-2.998,-9.474,-0.053,-3.034,2.66,1.12,0.84
,-9.457,-0.05,-2.924,-9.445,-0.038,-3.01,2.73,1.33,0.98
,-9.488,-0.057,-2.972,-9.418,-0.036,-3.025,2.8,1.33,0.91
,-9.464,-0.014,-3.015,-9.524,0.012,-3.075,2.87,1.54,0.91
8707.0,-9.428,-0.002,-3.096,-9.397,0.01,-3.07,2.8,1.47,0.98
,-9.407,-0.029,-3.063,-9.469,0.019,-3.111,2.59,1.4,0.84
,-9.428,0.024,-3.072,-9.44,-0.034,-3.056,2.59,1.4,0.84
,-9.416,-0.002,-3.101,-9.421,-0.038,-3.027,2.66,1.54,0.77
8783.0,-9.445,0.007,-2.991,-9.452,-0.074,-2.977,2.38,1.33,0.77
,-9.457,-0.017,-3.001,-9.474,-0.031,-2.998,2.45,1.47,0.77
,-9.44,-0.007,-2.989,-9.459,-0.017,-3.044,2.38,1.4,0.77
,-9.476,0.005,-2.991,-9.43,-0.017,-3.029,2.38,1.47,0.77
8858.0,-9.447,-0.005,-3.003,-9.507,-0.017,-2.967,2.59,1.68,0.84
,-9.418,-0.019,-3.008,-9.481,-0.055,-2.991,2.52,1.54,0.84
,-9.428,0.0,-3.003,-9.44,-0.031,-3.025,2.52,1.54,0.77
,-9.457,-0.01,-2.972,-9.399,-0.055,-3.039,2.59,1.61,0.77
8934.0,-9.378,-0.024,-3.051,-9.457,-0.026,-3.001,2.73,1.61,0.98
,-9.457,0.017,-3.063,-9.483,-0.031,-3.094,2.87,1.75,0.98
,-9.478,0.01,-3.049,-9.371,-0.007,-3.087,2.66,1.68,0.98
,-9.428,-0.041,-2.943,-9.428,0.045,-3.075,2.52,1.61,0.98
9010.0,-9.447,0.038,-3.106,-9.45,0.041,-3.077,3.01,1.54,0.84
,-9.43,-0.002,-3.094,-9.43,-0.019,-3.07,2.94,1.54,0.91
,-9.383,-0.019,-3.077,-9.454,-0.065,-3.025,3.01,1.33,0.84
,-9.416,0.034,-3.101,-9.447,-0.055,-2.974,3.08,1.33,0.84
9086.0,-9.435,-0.043,-2.938,-9.49,-0.072,-2.977,3.01,1.4,0.84
,-9.466,-0.012,-2.936,-9.447,-0.12,-2.934,2.73,1.54,0.91
,-9.43,-0.053,-2.943,-9.493,-0.041,-2.991,2.52,1.54,0.84
,-9.466,-0.019,-2.967,-9.45,0.031,-3.032,2.52,1.61,0.84
9161.0,-9.423,0.034,-3.084,-9.416,0.06,-3.113,2.1,2.03,0.91
,-9.438,0.012,-3.147,-9.395,0.041,-3.118,2.03,2.03,0.91
,-9.402,0.026,-3.156,-9.404,0.022,-3.087,2.1,1.89,0.91
,-9.43,0.079,-3.185,-9.445,-0.014,-3.104,2.1,1.61,0.91
9237.0,-9.416,-0.014,-3.049,-9.474,-0.029,-3.037,2.38,1.12,0.63
,-9.407,-0.036,-3.061,-9.471,-0.007,-3.02,2.38,1.19,0.7
,-9.445,0.002,-3.049,-9.474,-0.036,-3.015,2.52,1.12,0.7
,-9.447,0.0,-3.092,-9.44,-0.074,-2.977,2.66,1.19,0.77
9313.0,-9.459,-0.014,-2.982,-9.462,-0.036,-2.998,2.66,1.47,0.84
,-9.464,0.002,-3.003,-9.407,-0.012,-3.046,2.59,1.4,0.77
,-9.466,-0.031,-2.977,-9.402,0.005,-3.072,2.59,1.54,0.84
,-9.454,-0.002,-2.986,-9.426,0.043,-3.082,2.52,1.4,0.7
9389.0,-9.469,0.019,-3.072,-9.45,-0.01,-3.077,2.45,1.4,0.7
,-9.423,-0.026,-3.065,-9.44,-0.024,-3.065,2.45,1.4,0.7
,-9.421,0.043,-3.056,-9.466,0.002,-3.051,2.52,1.33,0.84
,-9.407,-0.029,-3.065,-9.462,-0.034,-3.003,2.38,1.26,0.7
9465.0,-9.454,-0.041,-3.017,-9.476,-0.072,-2.955,2.73,1.26,0.7
,-9.44,0.0,-2.986,-9.466,-0.086,-2.977,2.73,1.4,0.77
,-9.423,-0.005,-3.051,-9.474,0.0,-3.008,2.45,1.19,0.56
,-9.423,-0.038,-3.003,-9.442,-0.034,-2.946,2.38,1.33,0.7
9540.0,-9.426,0.019,-3.077,-9.428,-0.002,-3.092,2.45,1.54,0.77
,-9.402,-0.019,-3.087,-9.452,-0.01,-3.061,2.45,1.61,0.77
,-9.44,-0.012,-3.106,-9.43,0.012,-3.027,2.45,1.47,0.77
,-9.426,0.031,-3.077,-9.44,-0.024,-3.034,2.66,1.61,0.77
9616.0,-9.416,-0.034,-3.008,-9.459,-0.002,-3.027,2.8,1.61,0.91
,-9.416,-0.026,-3.049,-9.452,-0.026,-3.013,2.87,1.54,0.84
,-9.43,-0.026,-2.972,-9.488,0.0,-3.039,2.73,1.82,0.84
,-9.442,-0.05,-3.02,-9.45,-0.007,-3.037,2.8,1.82,0.91
9691.0,-9.395,0.014,-3.034,-9.45,0.007,-2.989,2.45,1.4,0.7
,-9.392,0.007,-3.075,-9.474,-0.081,-3.001,2.59,1.47,0.7
,-9.43,-0.041,-3.044,-9.474,-0.055,-3.015,2.73,1.47,0.77
,-9.397,0.002,-3.061,-9.457,-0.045,-3.017,2.87,1.54,0.84
9767.0,-9.414,-0.026,-3.044,-9.464,0.002,-3.044,2.45,1.89,0.91
,-9.423,-0.017,-3.077,-9.418,-0.014,-3.049,2.31,1.82,0.91
,-9.423,-0.005,-3.063,-9.476,-0.01,-3.094,2.31,1.75,0.84
,-9.493,0.0,-3.08,-9.423,-0.065,-3.13,2.24,1.82,0.91
