Timestamp,AccX,AccY,AccZ,GyroX,GyroY,GyroZ,MagnX,MagnY,MagnZ
0.0,-8.82,0.593,-4.513,-8.804,0.586,-4.487,2.94,1.61,1.19
,-8.832,0.62,-4.542,-8.806,0.589,-4.499,3.01,1.54,1.19
,-8.772,0.596,-4.491,-8.77,0.589,-4.506,3.15,1.47,1.12
,-8.815,0.613,-4.511,-8.832,0.56,-4.503,3.22,1.68,1.26
75.0,-8.811,0.483,-4.654,-8.746,0.847,-4.659,4.62,1.47,1.61
,-8.789,0.668,-4.621,-8.787,0.498,-4.628,6.37,1.12,1.89
,-8.705,0.964,-4.748,-8.715,0.598,-4.561,6.23,1.19,1.75
,-8.727,1.07,-4.752,-8.77,0.735,-4.628,4.2,1.54,1.4
150.0,-8.756,0.797,-4.609,-8.775,0.562,-4.542,3.15,1.26,1.05
,-8.787,0.778,-4.549,-8.796,0.648,-4.597,2.31,1.54,0.77
,-8.804,0.637,-4.58,-8.794,0.751,-4.64,1.54,1.68,0.63
,-8.794,0.553,-4.551,-8.748,0.73,-4.657,1.54,1.68,0.7
226.0,-8.758,0.68,-4.645,-8.784,0.589,-4.523,1.12,1.54,0.63
,-8.753,0.653,-4.611,-8.777,0.656,-4.556,0.91,1.54,0.63
,-8.782,0.637,-4.52,-8.796,0.605,-4.614,1.12,1.47,0.49
,-8.811,0.622,-4.549,-8.83,0.634,-4.558,1.4,1.33,0.56
302.0,-8.804,0.629,-4.556,-8.775,0.648,-4.535,2.03,1.12,0.7
,-8.794,0.653,-4.563,-8.794,0.68,-4.506,2.31,1.05,0.84
,-8.837,0.66,-4.551,-8.772,0.723,-4.491,2.45,1.26,0.91
,-8.792,0.668,-4.489,-8.804,0.701,-4.563,2.66,1.19,0.91
378.0,-8.715,0.658,-4.496,-8.82,0.668,-4.53,2.59,1.4,0.91
,-8.777,0.704,-4.513,-8.777,0.653,-4.599,2.45,1.26,0.77
,-8.815,0.622,-4.515,-8.775,0.701,-4.609,2.52,1.26,0.77
,-8.851,0.608,-4.518,-8.763,0.625,-4.618,2.94,1.54,1.05
453.0,-8.758,0.629,-4.669,-8.765,0.692,-4.537,2.66,1.19,0.91
,-8.813,0.668,-4.621,-8.808,0.67,-4.515,2.52,1.12,0.98
,-8.758,0.672,-4.582,-8.737,0.682,-4.511,2.45,1.05,0.91
,-8.808,0.672,-4.549,-8.741,0.711,-4.494,2.52,1.05,0.98
529.0,-8.825,0.663,-4.415,-8.792,0.668,-4.602,2.38,1.4,0.77
,-8.861,0.586,-4.451,-8.732,0.768,-4.616,2.45,1.54,0.84
,-8.837,0.534,-4.456,-8.741,0.725,-4.614,2.66,1.47,0.91
,-8.765,0.589,-4.58,-8.854,0.591,-4.549,3.01,1.33,0.91
605.0,-8.835,0.596,-4.487,-8.82,0.66,-4.53,2.17,1.33,1.05
,-8.832,0.596,-4.468,-8.782,0.646,-4.57,2.8,1.33,1.05
,-8.815,0.696,-4.484,-8.799,0.644,-4.621,3.08,1.4,0.98
,-8.763,0.713,-4.489,-8.746,0.658,-4.628,3.01,1.47,0.98
681.0,-8.792,0.665,-4.606,-8.811,0.668,-4.439,2.8,1.26,1.05
,-8.722,0.68,-4.645,-8.863,0.641,-4.415,2.8,1.19,0.91
,-8.784,0.699,-4.58,-8.827,0.579,-4.424,2.45,1.26,0.91
,-8.76,0.692,-4.511,-8.78,0.617,-4.523,2.38,1.33,0.91
757.0,-8.756,0.723,-4.561,-8.765,0.648,-4.575,3.15,1.47,0.91
,-8.751,0.713,-4.597,-8.734,0.641,-4.602,2.87,1.4,0.91
,-8.784,0.699,-4.645,-8.796,0.658,-4.549,2.59,1.47,0.91
,-8.78,0.658,-4.618,-8.804,0.629,-4.508,2.31,1.4,0.84
832.0,-8.77,0.663,-4.544,-8.78,0.68,-4.544,2.52,1.4,0.84
,-8.808,0.67,-4.573,-8.768,0.646,-4.496,2.17,1.26,0.77
,-8.775,0.687,-4.582,-8.787,0.682,-4.472,2.03,1.12,0.7
,-8.76,0.663,-4.554,-8.839,0.648,-4.482,2.17,1.4,0.84
908.0,-8.813,0.617,-4.518,-8.705,0.653,-4.614,2.8,1.19,0.63
,-8.741,0.696,-4.566,-8.777,0.668,-4.496,2.8,1.26,0.7
,-8.722,0.711,-4.604,-8.784,0.653,-4.487,2.52,1.33,0.63
,-8.799,0.713,-4.614,-8.851,0.687,-4.508,2.24,1.47,0.63
983.0,-8.806,0.646,-4.446,-8.808,0.684,-4.578,2.38,1.19,0.42
,-8.839,0.634,-4.52,-8.763,0.682,-4.606,2.45,1.26,0.42
,-8.794,0.625,-4.558,-8.82,0.67,-4.518,2.59,1.4,0.49
,-8.744,0.625,-4.592,-8.827,0.641,-4.458,2.73,1.54,0.63
1059.0,-8.804,0.665,-4.468,-8.729,0.735,-4.573,2.38,1.54,0.42
,-8.806,0.644,-4.535,-8.777,0.684,-4.57,2.59,1.54,0.63
,-8.813,0.663,-4.57,-8.808,0.641,-4.477,2.66,1.4,0.49
,-8.76,0.708,-4.57,-8.837,0.601,-4.508,2.8,1.4,0.56
1135.0,-8.818,0.627,-4.544,-8.768,0.613,-4.625,2.59,1.4,0.63
,-8.792,0.648,-4.58,-8.772,0.672,-4.597,2.59,1.26,0.63
,-8.784,0.641,-4.566,-8.806,0.639,-4.549,2.38,1.4,0.63
,-8.813,0.603,-4.604,-8.782,0.653,-4.527,2.38,1.33,0.63
1211.0,-8.796,0.627,-4.487,-8.794,0.67,-4.551,2.59,1.19,0.7
,-8.813,0.613,-4.515,-8.811,0.646,-4.501,2.87,1.12,0.7
,-8.799,0.641,-4.482,-8.76,0.66,-4.523,3.08,1.05,0.77
,-8.768,0.625,-4.532,-8.772,0.617,-4.472,3.29,1.19,0.91
1286.0,-8.82,0.62,-4.547,-8.751,0.61,-4.58,2.8,1.47,0.98
,-8.801,0.677,-4.537,-8.796,0.672,-4.582,2.87,1.47,0.91
,-8.813,0.677,-4.558,-8.787,0.608,-4.501,2.66,1.54,0.84
,-8.756,0.682,-4.7,-8.835,0.591,-4.401,2.45,1.47,0.77
1362.0,-8.811,0.634,-4.487,-8.806,0.634,-4.499,2.8,1.26,0.91
,-8.811,0.665,-4.496,-8.823,0.596,-4.508,3.15,1.4,0.91
,-8.734,0.737,-4.513,-8.818,0.603,-4.515,2.87,1.33,0.77
,-8.744,0.704,-4.597,-8.813,0.581,-4.535,2.38,1.54,0.7
1438.0,-8.792,0.668,-4.515,-8.808,0.617,-4.57,3.36,1.68,0.91
,-8.77,0.672,-4.551,-8.813,0.653,-4.611,3.29,1.61,0.84
,-8.792,0.672,-4.554,-8.806,0.641,-4.585,2.87,1.54,0.91
,-8.82,0.613,-4.582,-8.787,0.66,-4.573,2.73,1.47,0.84
1514.0,-8.796,0.634,-4.551,-8.768,0.675,-4.515,2.8,1.33,0.91
,-8.758,0.648,-4.558,-8.775,0.68,-4.535,2.73,1.33,0.91
,-8.815,0.634,-4.511,-8.837,0.598,-4.52,2.8,1.33,0.91
,-8.808,0.696,-4.53,-8.827,0.603,-4.547,2.8,1.33,0.91
1590.0,-8.796,0.646,-4.489,-8.758,0.672,-4.556,2.8,1.4,0.84
,-8.772,0.675,-4.523,-8.78,0.718,-4.551,2.8,1.33,0.84
,-8.799,0.701,-4.525,-8.765,0.713,-4.566,2.59,1.47,0.84
,-8.801,0.684,-4.568,-8.806,0.61,-4.561,2.45,1.4,0.77
1665.0,-8.804,0.634,-4.575,-8.768,0.648,-4.582,2.24,1.33,0.77
,-8.789,0.672,-4.587,-8.818,0.596,-4.554,2.38,1.4,0.7
,-8.758,0.699,-4.614,-8.842,0.603,-4.513,2.24,1.4,0.7
,-8.799,0.68,-4.57,-8.777,0.663,-4.549,2.03,1.26,0.56
1741.0,-8.78,0.725,-4.597,-8.796,0.658,-4.489,3.08,1.12,0.91
,-8.756,0.72,-4.53,-8.83,0.735,-4.448,2.87,0.98,0.77
,-8.787,0.605,-4.52,-8.832,0.653,-4.48,2.73,0.98,0.77
,-8.784,0.625,-4.511,-8.83,0.644,-4.477,2.8,1.12,0.91
1816.0,-8.837,0.629,-4.551,-8.825,0.629,-4.508,2.87,1.19,0.63
,-8.796,0.608,-4.511,-8.825,0.641,-4.532,3.22,1.33,0.77
,-8.787,0.696,-4.57,-8.827,0.67,-4.556,3.08,1.4,0.77
,-8.801,0.66,-4.511,-8.799,0.622,-4.606,2.8,1.54,0.7
1892.0,-8.722,0.656,-4.654,-8.78,0.704,-4.508,2.94,1.4,0.7
,-8.703,0.644,-4.683,-8.794,0.663,-4.451,2.87,1.26,0.7
,-8.794,0.699,-4.609,-8.825,0.596,-4.446,2.59,1.05,0.56
,-8.758,0.715,-4.566,-8.801,0.62,-4.465,2.31,1.05,0.49
1968.0,-8.825,0.603,-4.491,-8.823,0.644,-4.554,2.94,1.33,0.63
,-8.787,0.665,-4.52,-8.813,0.646,-4.575,3.08,1.33,0.56
,-8.818,0.699,-4.52,-8.801,0.627,-4.539,2.87,1.26,0.42
,-8.804,0.706,-4.554,-8.763,0.658,-4.597,2.38,1.19,0.35
2044.0,-8.804,0.668,-4.611,-8.82,0.605,-4.52,2.1,1.12,0.49
,-8.78,0.615,-4.602,-8.784,0.601,-4.458,1.82,1.26,0.42
,-8.835,0.605,-4.558,-8.78,0.598,-4.542,1.82,1.4,0.35
,-8.772,0.589,-4.52,-8.772,0.613,-4.547,1.82,1.26,0.42
2119.0,-8.787,0.689,-4.525,-8.835,0.634,-4.482,2.31,0.98,0.63
,-8.794,0.694,-4.508,-8.77,0.617,-4.523,2.1,1.33,0.7
,-8.825,0.61,-4.496,-8.813,0.648,-4.472,2.17,1.26,0.7
,-8.835,0.613,-4.532,-8.837,0.615,-4.439,2.45,1.19,0.7
2195.0,-8.825,0.591,-4.484,-8.775,0.66,-4.542,2.52,1.4,0.77
,-8.827,0.648,-4.489,-8.789,0.73,-4.558,2.73,1.47,0.7
,-8.839,0.629,-4.48,-8.796,0.689,-4.561,2.73,1.47,0.7
,-8.813,0.637,-4.463,-8.815,0.641,-4.585,3.01,1.61,0.77
2271.0,-8.792,0.62,-4.602,-8.808,0.61,-4.448,2.24,1.26,0.63
,-8.801,0.644,-4.523,-8.818,0.608,-4.463,2.38,1.19,0.63
,-8.792,0.648,-4.527,-8.784,0.605,-4.515,2.31,1.19,0.63
,-8.772,0.677,-4.47,-8.835,0.629,-4.539,2.31,1.47,0.63
2347.0,-8.748,0.646,-4.566,-8.751,0.634,-4.523,2.73,1.4,0.77
,-8.768,0.61,-4.563,-8.815,0.658,-4.472,2.59,1.33,0.77
,-8.789,0.639,-4.558,-8.842,0.648,-4.424,2.52,1.26,0.49
,-8.772,0.663,-4.542,-8.863,0.581,-4.434,2.38,1.19,0.63
2422.0,-8.842,0.598,-4.499,-8.792,0.615,-4.523,3.01,1.54,0.77
,-8.787,0.634,-4.491,-8.801,0.639,-4.551,3.29,1.54,0.84
,-8.813,0.637,-4.537,-8.768,0.672,-4.578,3.15,1.61,0.84
,-8.825,0.668,-4.57,-8.823,0.622,-4.599,3.01,1.4,0.7
2498.0,-8.777,0.62,-4.57,-8.78,0.718,-4.46,2.87,1.26,0.77
,-8.777,0.629,-4.582,-8.854,0.646,-4.432,2.94,1.33,0.84
,-8.801,0.684,-4.57,-8.794,0.553,-4.434,2.66,1.26,0.7
,-8.739,0.725,-4.542,-8.849,0.584,-4.465,2.52,1.33,0.63
2574.0,-8.739,0.663,-4.508,-8.825,0.639,-4.637,3.15,1.54,0.7
,-8.784,0.637,-4.549,-8.811,0.648,-4.594,3.01,1.54,0.63
,-8.823,0.67,-4.606,-8.777,0.639,-4.578,2.66,1.54,0.56
,-8.763,0.663,-4.621,-8.796,0.665,-4.518,2.31,1.26,0.42
2649.0,-8.801,0.699,-4.472,-8.768,0.692,-4.494,1.82,1.19,0.21
,-8.806,0.694,-4.501,-8.775,0.732,-4.487,1.68,1.05,0.21
,-8.799,0.615,-4.499,-8.775,0.677,-4.424,1.54,0.98,0.14
,-8.796,0.613,-4.499,-8.823,0.641,-4.453,1.96,1.05,0.35
2725.0,-8.868,0.495,-4.41,-8.832,0.572,-4.511,1.54,1.54,0.14
,-8.813,0.51,-4.436,-8.839,0.498,-4.53,2.38,1.54,0.28
,-8.796,0.644,-4.424,-8.885,0.493,-4.549,2.73,1.68,0.35
,-8.789,0.663,-4.491,-8.787,0.586,-4.681,2.45,1.82,0.49
2801.0,-8.734,0.639,-4.666,-8.813,0.55,-4.513,3.15,1.47,0.84
,-8.693,0.668,-4.712,-8.823,0.577,-4.513,2.66,1.33,0.77
,-8.768,0.646,-4.7,-8.806,0.677,-4.458,2.24,1.33,0.7
,-8.799,0.596,-4.64,-8.832,0.615,-4.47,2.03,1.19,0.7
2877.0,-8.794,0.574,-4.427,-8.801,0.658,-4.441,2.73,0.91,0.77
,-8.801,0.598,-4.448,-8.818,0.627,-4.393,3.36,1.05,0.91
,-8.835,0.598,-4.47,-8.835,0.553,-4.422,3.64,1.05,0.91
,-8.796,0.711,-4.489,-8.839,0.572,-4.463,3.64,1.05,0.91
2952.0,-8.799,0.672,-4.523,-8.851,0.574,-4.532,3.71,1.4,0.84
,-8.77,0.684,-4.556,-8.82,0.62,-4.578,3.29,1.61,0.77
,-8.794,0.637,-4.515,-8.818,0.601,-4.59,2.73,1.61,0.56
,-8.825,0.608,-4.491,-8.801,0.627,-4.57,2.73,1.75,0.56
3028.0,-8.811,0.634,-4.609,-8.784,0.62,-4.532,2.87,1.26,0.63
,-8.787,0.646,-4.633,-8.801,0.644,-4.525,2.94,1.26,0.7
,-8.78,0.668,-4.64,-8.82,0.625,-4.506,3.08,1.4,0.84
,-8.746,0.629,-4.582,-8.83,0.639,-4.482,3.01,1.19,0.7
3104.0,-8.815,0.646,-4.46,-8.77,0.62,-4.518,2.73,1.19,0.49
,-8.842,0.586,-4.499,-8.787,0.672,-4.52,2.38,1.33,0.56
,-8.844,0.574,-4.532,-8.789,0.598,-4.532,2.59,1.19,0.42
,-8.777,0.644,-4.52,-8.825,0.603,-4.563,3.08,1.19,0.42
3180.0,-8.787,0.637,-4.508,-8.818,0.605,-4.523,2.87,1.33,0.42
,-8.806,0.632,-4.496,-8.849,0.598,-4.499,2.8,1.33,0.42
,-8.782,0.648,-4.439,-8.804,0.589,-4.537,2.66,1.26,0.28
,-8.827,0.584,-4.475,-8.775,0.66,-4.547,2.59,1.19,0.28
3255.0,-8.823,0.648,-4.53,-8.83,0.629,-4.573,2.73,1.26,0.28
,-8.789,0.632,-4.582,-8.813,0.646,-4.587,2.59,1.19,0.21
,-8.83,0.579,-4.547,-8.799,0.646,-4.549,2.59,1.26,0.28
,-8.806,0.615,-4.57,-8.792,0.608,-4.625,2.73,1.26,0.28
3331.0,-8.787,0.538,-4.496,-8.808,0.605,-4.489,2.17,0.98,-0.07
,-8.801,0.62,-4.444,-8.837,0.658,-4.58,2.38,1.19,0.14
,-8.823,0.579,-4.451,-8.837,0.524,-4.484,2.03,1.19,0.0
,-8.887,0.574,-4.477,-8.909,0.534,-4.561,2.17,0.98,0.07
3406.0,-8.818,0.593,-4.599,-8.753,0.859,-4.767,3.15,1.05,0.63
,-8.844,0.622,-4.649,-8.693,0.785,-4.503,3.01,0.7,0.56
,-8.701,0.785,-4.676,-8.873,0.593,-4.451,2.87,0.63,0.28
,-8.703,0.873,-4.719,-8.887,0.464,-4.36,1.89,0.84,-0.14
3482.0,-8.863,0.313,-4.41,-8.832,0.689,-4.444,-0.35,1.05,-0.56
,-8.868,0.711,-4.771,-8.801,0.5,-4.372,1.68,1.19,-0.21
,-8.787,0.536,-4.494,-8.918,0.397,-4.276,1.68,1.19,-0.21
,-8.744,0.708,-4.539,-8.811,0.51,-4.271,1.54,1.26,-0.14
3558.0,-8.899,0.526,-4.391,-8.859,0.495,-4.506,2.73,1.54,-0.07
,-8.811,0.503,-4.393,-8.82,0.526,-4.575,3.22,1.61,0.14
,-8.842,0.447,-4.429,-8.796,0.622,-4.556,3.71,1.82,0.21
,-8.832,0.469,-4.53,-8.758,0.62,-4.506,4.06,1.75,0.49
3634.0,-8.837,0.546,-4.539,-8.866,0.469,-4.503,3.08,1.75,0.49
,-8.818,0.57,-4.458,-8.801,0.579,-4.513,3.01,1.68,0.49
,-8.844,0.486,-4.448,-8.801,0.596,-4.563,3.15,1.4,0.49
,-8.856,0.491,-4.448,-8.796,0.584,-4.561,3.71,1.61,0.7
3710.0,-8.801,0.558,-4.59,-8.825,0.55,-4.539,3.64,1.4,0.7
,-8.775,0.598,-4.566,-8.815,0.519,-4.53,3.57,1.47,0.7
,-8.789,0.684,-4.575,-8.804,0.51,-4.539,3.5,1.4,0.63
,-8.763,0.61,-4.525,-8.827,0.531,-4.587,3.29,1.54,0.84
3785.0,-8.818,0.579,-4.604,-8.835,0.605,-4.427,3.08,1.19,0.77
,-8.811,0.589,-4.585,-8.878,0.543,-4.42,2.73,0.98,0.7
,-8.777,0.708,-4.523,-8.875,0.414,-4.369,2.66,1.12,0.63
,-8.705,0.715,-4.52,-8.837,0.457,-4.405,2.03,1.05,0.63
3861.0,-8.839,0.526,-4.427,-8.813,0.56,-4.578,4.62,1.47,1.26
,-8.83,0.452,-4.515,-8.837,0.546,-4.566,4.2,1.47,1.19
,-8.844,0.488,-4.554,-8.811,0.498,-4.532,3.99,1.61,1.26
,-8.808,0.617,-4.535,-8.849,0.514,-4.53,3.92,1.54,0.98
3937.0,-8.813,0.613,-4.523,-8.768,0.56,-4.535,3.15,1.47,1.12
,-8.744,0.61,-4.537,-8.818,0.486,-4.487,2.87,1.47,0.84
,-8.815,0.622,-4.547,-8.899,0.519,-4.475,2.38,1.33,0.77
,-8.789,0.558,-4.535,-8.863,0.503,-4.484,2.1,1.4,0.56
4013.0,-8.806,0.505,-4.52,-8.849,0.526,-4.513,3.15,1.19,1.05
,-8.799,0.486,-4.558,-8.82,0.519,-4.53,3.29,1.05,1.12
,-8.768,0.505,-4.573,-8.808,0.577,-4.535,3.5,1.05,1.19
,-8.775,0.546,-4.549,-8.82,0.553,-4.52,3.36,1.05,1.12
4088.0,-8.827,0.55,-4.496,-8.813,0.538,-4.472,2.8,0.98,1.12
,-8.823,0.524,-4.477,-8.811,0.505,-4.511,2.87,1.05,1.19
,-8.844,0.503,-4.496,-8.815,0.558,-4.52,2.87,1.05,1.19
,-8.818,0.538,-4.465,-8.811,0.591,-4.489,3.01,0.98,1.19
4164.0,-8.792,0.639,-4.468,-8.796,0.694,-4.432,2.87,0.91,1.05
,-8.815,0.637,-4.508,-8.878,0.646,-4.408,2.52,1.12,0.91
,-8.765,0.641,-4.444,-8.892,0.529,-4.405,2.24,1.33,0.77
,-8.808,0.718,-4.446,-8.827,0.558,-4.48,2.03,1.54,0.56
4239.0,-8.811,0.574,-4.544,-8.804,0.538,-4.551,1.75,1.82,0.28
,-8.808,0.543,-4.549,-8.823,0.584,-4.561,1.61,1.75,0.28
,-8.856,0.476,-4.53,-8.839,0.565,-4.57,1.4,1.89,0.42
,-8.815,0.543,-4.537,-8.837,0.598,-4.556,1.89,1.61,0.49
4315.0,-8.804,0.558,-4.523,-8.782,0.663,-4.482,1.89,1.61,0.49
,-8.806,0.591,-4.484,-8.815,0.531,-4.472,2.17,1.61,0.56
,-8.787,0.629,-4.451,-8.88,0.486,-4.547,2.38,1.47,0.56
,-8.804,0.68,-4.475,-8.787,0.555,-4.58,2.24,1.61,0.49
4391.0,-8.753,0.68,-4.599,-8.737,0.893,-4.53,2.73,1.47,0.56
,-8.746,0.699,-4.602,-8.806,0.68,-4.434,1.75,1.47,0.49
,-8.737,0.66,-4.604,-8.949,0.361,-4.362,0.98,1.33,0.28
,-8.672,0.79,-4.539,-8.902,0.311,-4.386,0.91,1.4,-0.07
4467.0,-8.88,0.304,-4.362,-8.914,0.211,-4.482,1.54,1.96,0.28
,-8.849,0.467,-4.317,-8.868,0.306,-4.501,2.31,2.1,0.49
,-8.804,0.581,-4.391,-8.866,0.445,-4.542,2.17,2.1,0.56
,-8.863,0.369,-4.396,-8.787,0.536,-4.549,1.33,2.31,0.49
4543.0,-8.78,0.57,-4.602,-8.799,0.574,-4.532,3.64,1.68,1.75
,-8.844,0.591,-4.614,-8.796,0.634,-4.513,3.01,1.89,1.61
,-8.837,0.512,-4.604,-8.808,0.62,-4.53,3.08,1.68,1.47
,-8.83,0.534,-4.58,-8.804,0.56,-4.52,3.29,1.54,1.54
4618.0,-8.827,0.524,-4.523,-8.753,0.682,-4.537,3.64,1.68,1.61
,-8.813,0.558,-4.499,-8.76,0.763,-4.597,3.64,1.47,1.54
,-8.878,0.517,-4.518,-8.763,0.668,-4.547,3.57,1.54,1.54
,-8.815,0.546,-4.503,-8.77,0.517,-4.52,3.71,1.61,1.68
4694.0,-8.844,0.546,-4.513,-8.775,0.5,-4.604,2.45,1.68,1.19
,-8.851,0.529,-4.59,-8.789,0.51,-4.585,2.87,1.75,1.26
,-8.818,0.57,-4.575,-8.808,0.546,-4.625,2.94,1.61,1.19
,-8.818,0.555,-4.563,-8.815,0.562,-4.57,2.73,1.75,1.19
4770.0,-8.77,0.632,-4.59,-8.756,0.589,-4.499,2.94,1.26,1.33
,-8.835,0.644,-4.558,-8.796,0.589,-4.508,2.52,1.12,1.4
,-8.808,0.562,-4.535,-8.799,0.682,-4.475,2.45,0.98,1.4
,-8.835,0.541,-4.484,-8.78,0.696,-4.487,2.73,0.98,1.33
4846.0,-8.804,0.704,-4.496,-8.784,0.646,-4.482,2.66,1.19,1.19
,-8.772,0.637,-4.499,-8.871,0.656,-4.499,2.66,1.4,1.12
,-8.83,0.625,-4.508,-8.815,0.644,-4.527,2.59,1.4,1.05
,-8.801,0.629,-4.439,-8.837,0.596,-4.59,2.66,1.61,1.05
4921.0,-8.782,0.617,-4.647,-8.811,0.555,-4.53,1.54,1.47,0.49
,-8.751,0.637,-4.611,-8.859,0.534,-4.472,1.47,1.54,0.63
,-8.756,0.584,-4.587,-8.801,0.589,-4.489,1.33,1.4,0.63
,-8.763,0.598,-4.597,-8.827,0.622,-4.503,1.4,1.54,0.7
4997.0,-8.823,0.629,-4.542,-8.77,0.598,-4.491,2.03,1.19,0.63
,-8.799,0.586,-4.544,-8.811,0.61,-4.432,2.17,1.33,0.77
,-8.842,0.541,-4.523,-8.861,0.541,-4.41,2.1,1.26,0.77
,-8.839,0.541,-4.499,-8.835,0.589,-4.429,2.17,1.19,0.84
5072.0,-8.801,0.543,-4.453,-8.746,0.617,-4.592,2.24,1.89,0.84
,-8.799,0.579,-4.527,-8.756,0.653,-4.578,2.31,1.61,0.77
,-8.794,0.546,-4.549,-8.811,0.605,-4.585,2.38,1.54,0.91
,-8.753,0.625,-4.573,-8.796,0.56,-4.53,2.66,1.61,1.05
5148.0,-8.83,0.538,-4.52,-8.775,0.634,-4.511,2.59,1.26,0.84
,-8.83,0.603,-4.52,-8.78,0.632,-4.48,3.01,1.33,0.91
,-8.76,0.684,-4.527,-8.818,0.558,-4.472,2.87,1.47,0.91
,-8.794,0.675,-4.563,-8.804,0.51,-4.491,2.52,1.54,0.77
5224.0,-8.839,0.526,-4.468,-8.744,0.615,-4.614,2.59,1.54,0.84
,-8.849,0.553,-4.518,-8.782,0.627,-4.566,2.73,1.61,0.84
,-8.789,0.601,-4.582,-8.777,0.553,-4.573,2.8,1.61,0.98
,-8.811,0.644,-4.597,-8.794,0.538,-4.537,2.73,1.47,0.91
5300.0,-8.796,0.634,-4.463,-8.799,0.596,-4.532,2.8,1.47,1.12
,-8.787,0.637,-4.456,-8.815,0.603,-4.57,2.73,1.4,0.98
,-8.792,0.675,-4.451,-8.746,0.653,-4.544,2.52,1.47,0.84
,-8.82,0.562,-4.475,-8.772,0.629,-4.566,2.52,1.33,0.98
5376.0,-8.789,0.634,-4.525,-8.792,0.637,-4.592,2.45,1.75,0.91
,-8.82,0.581,-4.511,-8.76,0.641,-4.606,2.17,1.68,0.77
,-8.861,0.531,-4.484,-8.72,0.651,-4.635,2.24,1.68,0.84
,-8.856,0.536,-4.585,-8.729,0.689,-4.597,2.73,1.61,0.91
5451.0,-8.796,0.644,-4.578,-8.868,0.524,-4.484,1.68,1.54,0.56
,-8.827,0.646,-4.477,-8.784,0.596,-4.487,1.61,1.54,0.7
,-8.856,0.543,-4.503,-8.768,0.581,-4.578,2.1,1.54,0.77
,-8.847,0.555,-4.475,-8.801,0.66,-4.537,2.8,1.47,0.84
5527.0,-8.782,0.653,-4.451,-8.815,0.641,-4.494,2.66,1.4,0.84
,-8.815,0.572,-4.439,-8.806,0.67,-4.508,2.24,1.61,0.77
,-8.811,0.581,-4.482,-8.76,0.637,-4.549,2.24,1.54,0.63
,-8.806,0.641,-4.441,-8.789,0.637,-4.602,2.52,1.75,0.63
5603.0,-8.82,0.541,-4.604,-8.789,0.637,-4.537,2.31,1.89,0.77
,-8.811,0.591,-4.649,-8.847,0.62,-4.501,2.59,1.68,0.63
,-8.799,0.605,-4.602,-8.806,0.536,-4.57,2.59,1.68,0.63
,-8.748,0.627,-4.566,-8.729,0.601,-4.556,2.66,1.68,0.77
5679.0,-8.768,0.641,-4.518,-8.827,0.591,-4.451,2.45,1.4,0.63
,-8.83,0.593,-4.525,-8.775,0.608,-4.537,2.31,1.54,0.63
,-8.801,0.572,-4.499,-8.825,0.579,-4.503,2.31,1.47,0.7
,-8.801,0.541,-4.506,-8.792,0.61,-4.544,2.52,1.47,0.7
5754.0,-8.787,0.62,-4.544,-8.775,0.613,-4.566,3.01,1.75,0.91
,-8.813,0.639,-4.556,-8.787,0.608,-4.58,3.01,1.54,0.77
,-8.806,0.639,-4.57,-8.782,0.572,-4.599,2.8,1.54,0.84
,-8.811,0.615,-4.561,-8.77,0.61,-4.59,2.66,1.47,0.84
5830.0,-8.806,0.62,-4.556,-8.875,0.498,-4.401,2.45,1.61,0.77
,-8.806,0.61,-4.539,-8.832,0.55,-4.501,2.38,1.75,0.77
,-8.789,0.62,-4.491,-8.794,0.572,-4.523,2.1,1.61,0.63
,-8.856,0.486,-4.472,-8.799,0.581,-4.618,2.17,1.68,0.7
5905.0,-8.76,0.641,-4.623,-8.796,0.572,-4.568,3.01,1.75,0.84
,-8.756,0.641,-4.599,-8.765,0.622,-4.53,3.01,1.75,0.91
,-8.801,0.629,-4.616,-8.777,0.589,-4.616,2.87,1.75,1.05
,-8.825,0.598,-4.535,-8.784,0.648,-4.614,3.01,1.61,0.98
5981.0,-8.751,0.634,-4.53,-8.775,0.615,-4.544,2.59,1.47,0.77
,-8.823,0.596,-4.551,-8.777,0.637,-4.594,2.45,1.47,0.84
,-8.832,0.598,-4.489,-8.748,0.672,-4.566,2.52,1.33,0.77
,-8.801,0.555,-4.535,-8.787,0.608,-4.549,2.8,1.26,0.84
6057.0,-8.789,0.581,-4.525,-8.827,0.574,-4.58,2.03,1.54,0.7
,-8.787,0.531,-4.544,-8.777,0.534,-4.573,2.31,1.61,0.7
,-8.801,0.567,-4.53,-8.746,0.548,-4.575,2.59,1.61,0.84
,-8.815,0.558,-4.523,-8.751,0.61,-4.602,2.45,1.47,0.7
6133.0,-8.789,0.603,-4.604,-8.784,0.622,-4.501,2.52,1.4,0.84
,-8.815,0.572,-4.523,-8.82,0.61,-4.561,2.45,1.19,0.77
,-8.815,0.627,-4.527,-8.794,0.644,-4.558,2.59,1.4,0.84
,-8.799,0.601,-4.542,-8.763,0.622,-4.599,2.73,1.12,0.7
6208.0,-8.789,0.615,-4.587,-8.794,0.574,-4.453,2.52,1.33,0.63
,-8.806,0.601,-4.501,-8.83,0.572,-4.489,2.24,1.05,0.56
,-8.796,0.543,-4.523,-8.849,0.579,-4.544,2.17,1.26,0.56
,-8.796,0.589,-4.463,-8.77,0.596,-4.539,2.31,1.26,0.56
6284.0,-8.725,0.641,-4.527,-8.801,0.562,-4.532,2.17,1.4,0.49
,-8.756,0.641,-4.578,-8.813,0.522,-4.525,2.1,1.4,0.56
,-8.813,0.603,-4.544,-8.847,0.512,-4.542,1.89,1.47,0.56
,-8.806,0.605,-4.542,-8.842,0.498,-4.547,1.89,1.61,0.63
6360.0,-8.815,0.538,-4.592,-8.811,0.598,-4.525,3.01,1.54,0.98
,-8.815,0.586,-4.592,-8.784,0.603,-4.491,3.08,1.4,0.98
,-8.784,0.608,-4.58,-8.777,0.531,-4.506,2.87,1.47,0.98
,-8.789,0.596,-4.542,-8.784,0.541,-4.47,2.73,1.54,0.98
6436.0,-8.777,0.574,-4.532,-8.777,0.61,-4.578,2.94,1.68,1.05
,-8.794,0.581,-4.547,-8.854,0.495,-4.59,3.08,1.54,1.05
,-8.787,0.656,-4.518,-8.818,0.526,-4.551,3.08,1.54,0.98
,-8.765,0.653,-4.597,-8.792,0.617,-4.558,3.01,1.61,0.98
6512.0,-8.746,0.648,-4.532,-8.796,0.625,-4.592,2.8,1.61,0.91
,-8.847,0.57,-4.57,-8.792,0.598,-4.647,2.59,1.47,0.77
,-8.815,0.541,-4.568,-8.763,0.658,-4.623,2.59,1.47,0.84
,-8.772,0.543,-4.551,-8.696,0.648,-4.64,2.8,1.61,1.05
6587.0,-8.77,0.608,-4.551,-8.806,0.548,-4.499,2.03,1.19,0.77
,-8.789,0.577,-4.511,-8.815,0.565,-4.477,2.24,1.33,0.91
,-8.78,0.593,-4.472,-8.796,0.613,-4.554,2.17,1.33,0.77
,-8.811,0.601,-4.489,-8.727,0.653,-4.594,2.31,1.33,0.77
6663.0,-8.804,0.586,-4.592,-8.792,0.615,-4.527,2.45,1.26,0.84
,-8.813,0.574,-4.568,-8.844,0.589,-4.556,2.38,1.26,0.77
,-8.777,0.589,-4.535,-8.796,0.598,-4.558,2.66,1.19,0.98
,-8.775,0.608,-4.542,-8.789,0.617,-4.575,2.8,0.98,0.84
6738.0,-8.772,0.644,-4.539,-8.787,0.562,-4.41,2.31,1.19,0.91
,-8.787,0.591,-4.582,-8.827,0.584,-4.48,2.1,1.19,0.91
,-8.775,0.558,-4.503,-8.854,0.546,-4.537,2.17,1.33,0.91
,-8.77,0.562,-4.477,-8.837,0.601,-4.609,2.52,1.26,0.91
6814.0,-8.746,0.627,-4.676,-8.76,0.701,-4.628,2.8,1.4,0.91
,-8.744,0.608,-4.671,-8.801,0.644,-4.506,2.45,1.26,0.84
,-8.784,0.639,-4.704,-8.827,0.627,-4.506,2.1,1.26,0.84
,-8.777,0.625,-4.611,-8.82,0.577,-4.482,2.03,1.05,0.84
6890.0,-8.799,0.562,-4.477,-8.847,0.5,-4.487,2.24,1.19,0.91
,-8.792,0.538,-4.465,-8.775,0.546,-4.448,2.87,1.12,0.91
,-8.811,0.591,-4.491,-8.787,0.534,-4.53,3.01,1.05,0.84
,-8.804,0.543,-4.439,-8.787,0.682,-4.551,2.66,1.12,0.77
6966.0,-8.772,0.66,-4.549,-8.784,0.601,-4.53,2.52,1.33,0.91
,-8.796,0.589,-4.554,-8.801,0.589,-4.549,2.1,1.33,0.77
,-8.815,0.622,-4.503,-8.784,0.581,-4.587,1.96,1.4,0.77
,-8.787,0.644,-4.513,-8.792,0.529,-4.633,2.1,1.4,0.7
7041.0,-8.77,0.562,-4.59,-8.82,0.605,-4.549,2.31,1.33,0.98
,-8.741,0.579,-4.582,-8.792,0.584,-4.513,2.38,1.12,1.05
,-8.758,0.639,-4.561,-8.799,0.603,-4.573,2.59,1.12,1.05
,-8.775,0.665,-4.527,-8.823,0.615,-4.547,2.59,1.19,1.12
7117.0,-8.777,0.558,-4.508,-8.818,0.605,-4.513,2.38,1.19,0.91
,-8.77,0.562,-4.554,-8.799,0.608,-4.499,2.38,1.05,0.91
,-8.784,0.541,-4.551,-8.792,0.632,-4.448,2.38,1.19,1.05
,-8.806,0.598,-4.503,-8.827,0.617,-4.451,2.38,1.05,0.98
7192.0,-8.782,0.543,-4.448,-8.751,0.62,-4.618,2.38,1.68,1.12
,-8.808,0.562,-4.518,-8.758,0.632,-4.599,2.8,1.61,1.12
,-8.758,0.615,-4.532,-8.808,0.653,-4.506,3.08,1.4,1.19
,-8.76,0.663,-4.616,-8.772,0.596,-4.475,2.87,1.4,1.05
7268.0,-8.801,0.541,-4.523,-8.76,0.646,-4.597,2.52,1.26,0.98
,-8.804,0.608,-4.508,-8.806,0.634,-4.599,2.8,1.33,1.05
,-8.796,0.646,-4.53,-8.784,0.601,-4.527,2.73,1.26,1.05
,-8.765,0.644,-4.609,-8.82,0.596,-4.377,2.45,1.26,0.91
7344.0,-8.827,0.634,-4.434,-8.794,0.613,-4.527,2.59,1.4,1.05
,-8.782,0.651,-4.491,-8.784,0.632,-4.518,2.59,1.47,0.98
,-8.82,0.625,-4.482,-8.808,0.663,-4.547,2.38,1.54,0.91
,-8.801,0.574,-4.499,-8.78,0.632,-4.558,2.31,1.4,0.84
7420.0,-8.789,0.591,-4.597,-8.775,0.641,-4.515,2.24,1.54,0.91
,-8.765,0.601,-4.542,-8.792,0.648,-4.468,2.52,1.54,0.98
,-8.739,0.675,-4.578,-8.811,0.625,-4.475,2.45,1.4,0.84
,-8.78,0.656,-4.551,-8.792,0.584,-4.499,1.96,1.33,0.63
7496.0,-8.808,0.581,-4.52,-8.813,0.622,-4.535,2.38,1.19,0.7
,-8.777,0.591,-4.515,-8.746,0.637,-4.551,2.59,1.33,0.77
,-8.787,0.625,-4.535,-8.78,0.634,-4.544,2.52,1.47,0.84
,-8.839,0.593,-4.563,-8.796,0.596,-4.539,2.45,1.47,0.77
7571.0,-8.815,0.565,-4.561,-8.804,0.632,-4.518,2.45,1.33,0.84
,-8.811,0.644,-4.604,-8.808,0.57,-4.494,2.66,1.61,0.98
,-8.741,0.711,-4.642,-8.811,0.574,-4.468,2.45,1.33,0.84
,-8.756,0.653,-4.594,-8.823,0.55,-4.415,2.31,1.26,0.84
7647.0,-8.827,0.562,-4.444,-8.792,0.675,-4.518,3.08,1.33,0.91
,-8.825,0.617,-4.46,-8.763,0.699,-4.535,3.29,1.4,0.77
,-8.837,0.622,-4.475,-8.768,0.665,-4.585,3.15,1.47,0.91
,-8.777,0.668,-4.506,-8.837,0.62,-4.547,3.01,1.68,0.98
7723.0,-8.818,0.581,-4.592,-8.792,0.598,-4.561,2.17,1.68,0.49
,-8.777,0.603,-4.59,-8.813,0.538,-4.506,2.31,1.61,0.49
,-8.772,0.692,-4.654,-8.815,0.531,-4.568,2.17,1.68,0.63
,-8.804,0.653,-4.604,-8.796,0.598,-4.487,1.75,1.61,0.49
7799.0,-8.796,0.648,-4.513,-8.851,0.579,-4.494,2.94,1.47,0.77
,-8.751,0.617,-4.453,-8.777,0.632,-4.501,2.73,1.61,0.77
,-8.789,0.581,-4.468,-8.815,0.658,-4.542,2.8,1.61,0.84
,-8.806,0.529,-4.456,-8.775,0.62,-4.592,2.94,1.54,0.84
7874.0,-8.792,0.61,-4.633,-8.744,0.589,-4.554,2.66,1.68,0.84
,-8.789,0.593,-4.59,-8.784,0.615,-4.499,2.73,1.68,0.98
,-8.763,0.66,-4.59,-8.82,0.653,-4.578,2.8,1.75,0.98
,-8.775,0.627,-4.578,-8.856,0.627,-4.465,2.59,1.68,0.98
7950.0,-8.823,0.593,-4.494,-8.737,0.68,-4.592,2.66,1.47,0.7
,-8.799,0.617,-4.48,-8.775,0.593,-4.604,3.08,1.54,0.77
,-8.782,0.603,-4.556,-8.792,0.579,-4.566,3.08,1.54,0.84
,-8.734,0.67,-4.597,-8.758,0.593,-4.556,3.15,1.47,0.84
8025.0,-8.775,0.603,-4.482,-8.801,0.603,-4.542,2.03,1.54,0.63
,-8.777,0.579,-4.501,-8.787,0.648,-4.609,2.1,1.54,0.49
,-8.82,0.608,-4.458,-8.777,0.625,-4.611,2.03,1.61,0.42
,-8.813,0.572,-4.508,-8.782,0.62,-4.642,2.31,1.75,0.63
8101.0,-8.789,0.596,-4.602,-8.758,0.548,-4.381,2.73,1.54,0.7
,-8.792,0.596,-4.604,-8.842,0.534,-4.532,2.8,1.54,0.91
,-8.818,0.61,-4.563,-8.758,0.543,-4.537,2.87,1.4,0.84
,-8.775,0.648,-4.592,-8.804,0.646,-4.53,2.73,1.26,0.7
8177.0,-8.804,0.684,-4.503,-8.765,0.57,-4.489,2.45,1.4,0.7
,-8.792,0.555,-4.515,-8.792,0.61,-4.554,2.59,1.68,0.84
,-8.746,0.629,-4.482,-8.787,0.648,-4.542,2.73,1.54,0.84
,-8.823,0.572,-4.487,-8.765,0.615,-4.599,2.66,1.61,0.84
8253.0,-8.782,0.634,-4.575,-8.808,0.632,-4.566,2.87,1.54,0.84
,-8.744,0.627,-4.623,-8.823,0.601,-4.566,2.94,1.47,0.91
,-8.799,0.634,-4.621,-8.796,0.622,-4.594,2.87,1.4,0.91
,-8.758,0.665,-4.625,-8.796,0.648,-4.606,2.73,1.4,0.63
8329.0,-8.775,0.637,-4.585,-8.83,0.605,-4.494,2.8,1.19,0.84
,-8.739,0.601,-4.58,-8.818,0.601,-4.491,2.73,1.19,0.84
,-8.763,0.581,-4.532,-8.851,0.546,-4.446,2.66,1.05,0.84
,-8.753,0.577,-4.477,-8.787,0.637,-4.549,2.8,1.05,0.77
8404.0,-8.784,0.658,-4.537,-8.837,0.534,-4.539,2.94,1.68,0.77
,-8.727,0.653,-4.549,-8.837,0.596,-4.506,2.66,1.82,0.7
,-8.76,0.629,-4.547,-8.837,0.605,-4.544,2.24,1.68,0.7
,-8.744,0.574,-4.539,-8.729,0.622,-4.604,2.24,1.54,0.49
8480.0,-8.748,0.584,-4.568,-8.717,0.593,-4.561,2.94,1.61,0.84
,-8.753,0.577,-4.602,-8.758,0.656,-4.563,2.94,1.82,0.91
,-8.808,0.57,-4.585,-8.806,0.627,-4.48,2.8,1.54,0.84
,-8.77,0.579,-4.59,-8.839,0.553,-4.501,2.94,1.33,0.7
8556.0,-8.808,0.577,-4.535,-8.727,0.644,-4.645,2.87,1.82,0.77
,-8.789,0.596,-4.573,-8.787,0.57,-4.597,3.08,1.47,0.84
,-8.756,0.622,-4.628,-8.796,0.555,-4.542,3.36,1.33,0.91
,-8.751,0.675,-4.676,-8.806,0.529,-4.566,3.01,1.33,0.91
8632.0,-8.792,0.62,-4.501,-8.772,0.67,-4.623,2.94,1.26,0.84
,-8.78,0.637,-4.489,-8.746,0.668,-4.59,2.87,1.05,0.7
,-8.789,0.637,-4.561,-8.789,0.615,-4.621,2.8,1.47,0.7
,-8.789,0.605,-4.556,-8.799,0.591,-4.599,2.8,1.47,0.77
8707.0,-8.713,0.625,-4.637,-8.82,0.526,-4.568,2.87,1.47,0.7
,-8.77,0.658,-4.599,-8.772,0.61,-4.556,2.52,1.26,0.63
,-8.808,0.613,-4.599,-8.804,0.625,-4.547,2.24,1.26,0.49
,-8.78,0.584,-4.597,-8.758,0.61,-4.57,2.17,1.4,0.63
8783.0,-8.784,0.625,-4.587,-8.775,0.589,-4.57,1.96,1.12,0.49
,-8.777,0.591,-4.525,-8.768,0.665,-4.604,2.03,0.98,0.42
,-8.792,0.641,-4.549,-8.775,0.677,-4.597,2.38,1.12,0.49
,-8.832,0.565,-4.523,-8.758,0.658,-4.618,2.59,1.26,0.56
8858.0,-8.76,0.648,-4.554,-8.794,0.589,-4.494,1.61,1.26,0.35
,-8.784,0.617,-4.513,-8.839,0.567,-4.554,1.4,1.47,0.35
,-8.842,0.562,-4.506,-8.811,0.603,-4.563,1.54,1.4,0.42
,-8.806,0.543,-4.487,-8.784,0.543,-4.554,1.96,1.33,0.35
8934.0,-8.811,0.526,-4.513,-8.83,0.608,-4.501,2.59,1.4,0.63
,-8.811,0.543,-4.518,-8.801,0.514,-4.63,2.87,1.4,0.77
,-8.837,0.555,-4.513,-8.758,0.593,-4.676,3.15,1.33,0.84
,-8.827,0.615,-4.518,-8.789,0.608,-4.7,3.43,1.33,0.91
9010.0,-8.777,0.634,-4.702,-8.813,0.555,-4.451,2.94,1.05,0.7
,-8.753,0.646,-4.604,-8.851,0.507,-4.503,2.38,0.98,0.7
,-8.789,0.586,-4.496,-8.792,0.589,-4.535,2.17,1.12,0.7
,-8.808,0.531,-4.491,-8.746,0.634,-4.573,2.31,1.05,0.84
9086.0,-8.78,0.67,-4.64,-8.799,0.553,-4.424,3.22,0.91,0.91
,-8.78,0.646,-4.587,-8.827,0.562,-4.434,2.59,0.84,0.77
,-8.758,0.572,-4.547,-8.839,0.57,-4.475,2.38,1.05,0.84
,-8.825,0.529,-4.508,-8.782,0.61,-4.508,2.52,1.33,0.84
9162.0,-8.76,0.613,-4.558,-8.758,0.541,-4.501,2.94,1.4,0.91
,-8.787,0.608,-4.578,-8.789,0.555,-4.458,2.73,1.61,1.05
,-8.818,0.603,-4.566,-8.83,0.586,-4.558,2.45,1.4,0.91
,-8.76,0.584,-4.575,-8.804,0.572,-4.592,2.45,1.4,0.91
9237.0,-8.78,0.627,-4.621,-8.832,0.577,-4.489,3.01,1.33,0.84
,-8.746,0.646,-4.611,-8.808,0.543,-4.465,2.87,1.4,0.84
,-8.744,0.656,-4.597,-8.801,0.526,-4.506,2.52,1.12,0.77
,-8.799,0.629,-4.573,-8.789,0.591,-4.515,2.24,1.26,0.77
9313.0,-8.806,0.622,-4.501,-8.782,0.648,-4.537,3.08,1.26,0.91
,-8.815,0.61,-4.551,-8.76,0.615,-4.606,2.87,1.4,1.05
,-8.823,0.555,-4.542,-8.78,0.637,-4.599,2.94,1.33,1.05
,-8.796,0.577,-4.575,-8.794,0.625,-4.556,3.01,1.54,0.98
9389.0,-8.772,0.658,-4.628,-8.777,0.524,-4.582,2.31,1.47,0.84
,-8.82,0.61,-4.561,-8.772,0.593,-4.568,1.96,1.4,0.77
,-8.77,0.62,-4.599,-8.746,0.555,-4.58,2.1,1.4,0.84
,-8.811,0.56,-4.561,-8.775,0.598,-4.57,2.1,1.54,0.77
9465.0,-8.772,0.598,-4.549,-8.787,0.536,-4.503,2.03,0.98,0.84
,-8.782,0.577,-4.496,-8.799,0.538,-4.539,2.1,1.12,0.84
,-8.844,0.629,-4.465,-8.808,0.577,-4.547,2.24,1.19,0.98
,-8.811,0.553,-4.458,-8.811,0.598,-4.561,2.24,1.12,0.91
9540.0,-8.804,0.572,-4.592,-8.804,0.579,-4.494,2.38,1.4,0.98
,-8.813,0.567,-4.585,-8.811,0.572,-4.57,2.38,1.26,0.98
,-8.782,0.593,-4.52,-8.804,0.591,-4.558,2.45,1.26,0.91
,-8.835,0.613,-4.561,-8.777,0.651,-4.59,2.52,1.47,1.12
9616.0,-8.782,0.634,-4.59,-8.808,0.637,-4.48,2.52,1.05,1.05
,-8.806,0.61,-4.59,-8.811,0.625,-4.511,2.24,1.26,0.98
,-8.753,0.601,-4.573,-8.787,0.591,-4.496,2.31,1.19,0.98
,-8.82,0.634,-4.48,-8.792,0.615,-4.549,2.45,1.26,1.05
9691.0,-8.792,0.663,-4.573,-8.794,0.622,-4.597,2.59,1.4,0.91
,-8.832,0.615,-4.602,-8.796,0.605,-4.578,2.24,1.33,0.84
,-8.799,0.596,-4.549,-8.808,0.639,-4.587,2.24,1.26,0.7
,-8.784,0.617,-4.544,-8.751,0.675,-4.563,2.31,1.4,0.91
9767.0,-8.794,0.603,-4.58,-8.787,0.584,-4.494,1.82,1.19,0.7
,-8.787,0.591,-4.582,-8.775,0.632,-4.499,1.89,0.98,0.7
,-8.801,0.62,-4.535,-8.837,0.665,-4.489,2.17,1.12,0.84
,-8.777,0.603,-4.535,-8.808,0.62,-4.465,2.52,1.26,0.98
