Timestamp,AccX,AccY,AccZ,GyroX,GyroY,GyroZ,MagnX,MagnY,MagnZ
0.0,-9.225,-0.507,-3.597,-9.225,-0.62,-3.597,2.38,1.05,0.77
,-9.275,-0.596,-3.522,-9.239,-0.57,-3.53,2.1,0.98,0.63
,-9.201,-0.62,-3.534,-9.287,-0.553,-3.515,2.31,0.98,0.63
,-9.206,-0.687,-3.628,-9.284,-0.62,-3.498,2.52,0.84,0.7
76.0,-9.284,-0.574,-3.542,-9.251,-0.555,-3.518,2.1,0.7,0.7
,-9.256,-0.629,-3.527,-9.256,-0.524,-3.551,2.17,0.84,0.63
,-9.27,-0.615,-3.486,-9.222,-0.579,-3.52,2.31,0.98,0.77
,-9.27,-0.491,-3.518,-9.244,-0.589,-3.537,2.66,1.05,0.84
152.0,-9.289,-0.598,-3.518,-9.263,-0.584,-3.431,3.15,1.05,0.91
,-9.265,-0.589,-3.513,-9.284,-0.541,-3.506,3.29,1.12,0.91
,-9.27,-0.529,-3.47,-9.253,-0.531,-3.52,3.15,1.05,0.84
,-9.258,-0.574,-3.486,-9.263,-0.55,-3.539,3.01,1.19,0.77
227.0,-9.249,-0.541,-3.537,-9.225,-0.591,-3.527,2.52,1.19,0.56
,-9.289,-0.57,-3.568,-9.258,-0.629,-3.458,2.52,1.05,0.56
,-9.263,-0.562,-3.585,-9.299,-0.55,-3.446,2.73,0.98,0.56
,-9.261,-0.581,-3.58,-9.292,-0.512,-3.446,3.01,0.91,0.56
302.0,-9.289,-0.498,-3.422,-9.273,-0.543,-3.489,3.5,1.12,0.63
,-9.304,-0.548,-3.391,-9.234,-0.572,-3.515,3.01,1.05,0.49
,-9.246,-0.56,-3.486,-9.258,-0.503,-3.491,2.94,1.19,0.49
,-9.28,-0.615,-3.494,-9.225,-0.562,-3.592,2.8,1.4,0.49
378.0,-9.28,-0.579,-3.587,-9.241,-0.572,-3.537,2.45,1.33,0.42
,-9.284,-0.579,-3.623,-9.239,-0.584,-3.477,2.8,1.19,0.42
,-9.27,-0.546,-3.575,-9.258,-0.584,-3.496,3.08,0.98,0.42
,-9.237,-0.558,-3.573,-9.244,-0.634,-3.436,3.29,0.84,0.35
454.0,-9.263,-0.625,-3.388,-9.282,-0.553,-3.436,3.36,1.12,0.56
,-9.304,-0.584,-3.372,-9.256,-0.555,-3.503,3.43,1.4,0.49
,-9.282,-0.553,-3.408,-9.27,-0.603,-3.565,3.15,1.4,0.35
,-9.294,-0.598,-3.422,-9.251,-0.637,-3.563,2.8,1.54,0.35
530.0,-9.234,-0.55,-3.573,-9.253,-0.634,-3.484,2.59,1.54,0.35
,-9.273,-0.565,-3.618,-9.244,-0.596,-3.532,2.59,1.47,0.35
,-9.229,-0.634,-3.551,-9.263,-0.586,-3.436,2.66,1.12,0.28
,-9.222,-0.596,-3.527,-9.268,-0.613,-3.405,2.94,1.19,0.42
605.0,-9.316,-0.613,-3.455,-9.308,-0.581,-3.508,2.73,1.33,0.56
,-9.27,-0.608,-3.434,-9.275,-0.622,-3.57,2.73,1.33,0.56
,-9.287,-0.637,-3.448,-9.234,-0.617,-3.58,2.8,1.4,0.56
,-9.273,-0.577,-3.484,-9.232,-0.639,-3.582,2.8,1.4,0.42
681.0,-9.251,-0.639,-3.589,-9.253,-0.608,-3.51,3.22,1.12,0.56
,-9.292,-0.567,-3.575,-9.287,-0.653,-3.408,3.5,1.19,0.63
,-9.27,-0.562,-3.51,-9.258,-0.608,-3.388,3.57,0.91,0.49
,-9.287,-0.562,-3.527,-9.263,-0.589,-3.417,3.57,0.84,0.49
757.0,-9.27,-0.601,-3.446,-9.277,-0.665,-3.518,3.57,1.12,0.77
,-9.265,-0.603,-3.434,-9.256,-0.639,-3.467,3.29,1.12,0.77
,-9.249,-0.574,-3.479,-9.282,-0.634,-3.429,3.08,1.19,0.63
,-9.244,-0.634,-3.498,-9.28,-0.66,-3.355,2.73,1.05,0.56
833.0,-9.332,-0.61,-3.393,-9.261,-0.689,-3.494,3.5,1.47,0.7
,-9.332,-0.617,-3.417,-9.237,-0.593,-3.465,3.64,1.47,0.77
,-9.292,-0.603,-3.47,-9.253,-0.589,-3.424,3.5,1.47,0.77
,-9.263,-0.677,-3.472,-9.292,-0.627,-3.465,3.5,1.26,0.7
909.0,-9.306,-0.648,-3.451,-9.229,-0.584,-3.465,3.22,1.47,0.7
,-9.296,-0.672,-3.408,-9.217,-0.615,-3.443,3.29,1.54,0.63
,-9.203,-0.553,-3.467,-9.28,-0.615,-3.429,3.29,1.68,0.7
,-9.256,-0.579,-3.479,-9.294,-0.593,-3.417,3.22,1.82,0.63
984.0,-9.335,-0.577,-3.41,-9.282,-0.593,-3.427,2.87,1.75,0.63
,-9.294,-0.565,-3.391,-9.275,-0.625,-3.486,2.73,1.89,0.56
,-9.299,-0.634,-3.384,-9.225,-0.627,-3.439,2.52,1.96,0.7
,-9.287,-0.627,-3.446,-9.246,-0.555,-3.448,2.45,1.96,0.63
1060.0,-9.306,-0.555,-3.513,-9.256,-0.682,-3.649,1.75,2.24,0.28
,-9.258,-0.572,-3.546,-9.244,-0.672,-3.604,1.4,2.03,0.21
,-9.22,-0.613,-3.57,-9.275,-0.67,-3.553,1.19,1.96,0.21
,-9.268,-0.641,-3.589,-9.227,-0.653,-3.508,1.26,1.89,0.21
1135.0,-9.261,-0.601,-3.465,-9.253,-0.689,-3.489,2.87,1.47,0.56
,-9.249,-0.56,-3.544,-9.251,-0.644,-3.51,2.59,1.54,0.56
,-9.268,-0.696,-3.446,-9.263,-0.637,-3.484,2.24,1.54,0.49
,-9.244,-0.692,-3.453,-9.258,-0.603,-3.463,2.17,1.4,0.35
1211.0,-9.294,-0.605,-3.453,-9.196,-0.641,-3.573,3.71,1.61,0.91
,-9.294,-0.572,-3.412,-9.234,-0.701,-3.558,3.64,1.68,0.84
,-9.263,-0.577,-3.467,-9.244,-0.73,-3.575,3.22,1.82,0.63
,-9.296,-0.586,-3.496,-9.239,-0.634,-3.522,2.8,1.61,0.49
1287.0,-9.316,-0.656,-3.496,-9.251,-0.627,-3.506,3.29,1.26,0.7
,-9.239,-0.68,-3.446,-9.241,-0.613,-3.494,3.43,1.54,0.84
,-9.215,-0.613,-3.436,-9.265,-0.67,-3.52,3.5,1.54,0.91
,-9.244,-0.57,-3.489,-9.275,-0.639,-3.527,3.43,1.47,0.91
1363.0,-9.316,-0.605,-3.518,-9.241,-0.627,-3.558,3.29,1.4,1.05
,-9.241,-0.558,-3.472,-9.249,-0.73,-3.556,2.94,1.4,0.98
,-9.282,-0.574,-3.486,-9.22,-0.72,-3.577,2.59,1.4,0.84
,-9.265,-0.617,-3.489,-9.258,-0.735,-3.611,2.31,1.33,0.77
1438.0,-9.289,-0.637,-3.575,-9.292,-0.562,-3.386,3.71,0.84,1.05
,-9.253,-0.584,-3.477,-9.261,-0.598,-3.3,3.99,0.91,0.98
,-9.265,-0.593,-3.403,-9.275,-0.62,-3.393,3.5,0.84,0.77
,-9.258,-0.56,-3.422,-9.323,-0.617,-3.352,3.15,0.98,0.77
1514.0,-9.239,-0.644,-3.357,-9.294,-0.648,-3.472,2.03,1.33,0.63
,-9.323,-0.651,-3.364,-9.27,-0.613,-3.498,1.89,1.47,0.7
,-9.301,-0.615,-3.393,-9.306,-0.591,-3.542,1.96,1.75,0.63
,-9.284,-0.646,-3.431,-9.232,-0.586,-3.565,1.82,1.75,0.63
1590.0,-9.237,-0.625,-3.661,-9.256,-0.608,-3.51,1.68,1.54,0.7
,-9.253,-0.67,-3.609,-9.294,-0.579,-3.47,1.96,1.4,0.77
,-9.21,-0.66,-3.623,-9.253,-0.605,-3.379,2.52,1.12,0.84
,-9.256,-0.639,-3.561,-9.292,-0.584,-3.386,3.08,1.26,1.05
1666.0,-9.287,-0.637,-3.386,-9.239,-0.66,-3.463,2.87,1.33,1.05
,-9.268,-0.644,-3.326,-9.32,-0.613,-3.489,2.73,1.54,1.05
,-9.253,-0.62,-3.405,-9.253,-0.608,-3.467,2.8,1.4,1.12
,-9.277,-0.692,-3.439,-9.258,-0.625,-3.451,2.87,1.61,1.19
1742.0,-9.277,-0.646,-3.508,-9.256,-0.584,-3.539,3.78,1.68,1.26
,-9.258,-0.634,-3.518,-9.239,-0.61,-3.532,3.92,1.96,1.33
,-9.22,-0.622,-3.52,-9.306,-0.567,-3.508,4.13,1.75,1.33
,-9.21,-0.593,-3.525,-9.304,-0.589,-3.472,4.34,1.75,1.33
1817.0,-9.258,-0.593,-3.424,-9.275,-0.572,-3.482,3.22,1.47,1.12
,-9.244,-0.579,-3.46,-9.287,-0.605,-3.503,3.01,1.33,0.98
,-9.253,-0.572,-3.451,-9.249,-0.603,-3.501,2.59,1.19,0.84
,-9.287,-0.56,-3.448,-9.289,-0.637,-3.465,2.38,1.4,0.84
1893.0,-9.268,-0.615,-3.47,-9.301,-0.57,-3.472,1.68,1.4,0.56
,-9.294,-0.646,-3.484,-9.261,-0.589,-3.494,1.75,1.4,0.56
,-9.263,-0.622,-3.501,-9.229,-0.637,-3.465,1.82,1.26,0.63
,-9.301,-0.615,-3.489,-9.251,-0.617,-3.429,2.1,1.33,0.63
1968.0,-9.299,-0.615,-3.393,-9.332,-0.603,-3.388,2.31,1.26,0.56
,-9.304,-0.61,-3.357,-9.277,-0.608,-3.412,2.17,1.26,0.49
,-9.275,-0.579,-3.357,-9.246,-0.665,-3.477,2.1,1.61,0.56
,-9.354,-0.601,-3.379,-9.237,-0.668,-3.501,2.1,1.89,0.56
2044.0,-9.287,-0.632,-3.558,-9.261,-0.627,-3.475,2.66,1.82,0.63
,-9.306,-0.593,-3.52,-9.273,-0.589,-3.47,2.73,1.75,0.63
,-9.268,-0.572,-3.534,-9.318,-0.577,-3.491,2.59,1.54,0.56
,-9.217,-0.596,-3.522,-9.292,-0.596,-3.486,2.8,1.4,0.63
2120.0,-9.234,-0.632,-3.498,-9.258,-0.637,-3.46,2.8,1.47,0.63
,-9.258,-0.632,-3.451,-9.265,-0.622,-3.465,2.8,1.33,0.56
,-9.249,-0.641,-3.443,-9.275,-0.598,-3.458,2.8,1.54,0.56
,-9.27,-0.66,-3.472,-9.292,-0.586,-3.496,2.73,1.54,0.49
2196.0,-9.273,-0.653,-3.592,-9.263,-0.651,-3.472,2.24,1.61,0.49
,-9.225,-0.627,-3.556,-9.306,-0.646,-3.434,2.45,1.26,0.49
,-9.237,-0.591,-3.58,-9.241,-0.596,-3.422,2.59,1.12,0.49
,-9.251,-0.67,-3.525,-9.268,-0.639,-3.41,2.87,1.19,0.7
2271.0,-9.239,-0.617,-3.467,-9.277,-0.586,-3.465,2.45,0.98,0.42
,-9.265,-0.663,-3.508,-9.299,-0.562,-3.463,2.38,1.19,0.42
,-9.237,-0.708,-3.522,-9.301,-0.608,-3.419,2.66,1.12,0.56
,-9.241,-0.694,-3.496,-9.268,-0.577,-3.441,3.01,1.12,0.7
2347.0,-9.246,-0.62,-3.415,-9.287,-0.665,-3.448,3.01,1.05,0.63
,-9.258,-0.639,-3.434,-9.296,-0.625,-3.403,3.01,1.19,0.63
,-9.27,-0.66,-3.451,-9.27,-0.627,-3.419,2.94,1.33,0.63
,-9.328,-0.665,-3.436,-9.275,-0.608,-3.479,3.22,1.33,0.7
2423.0,-9.268,-0.625,-3.482,-9.263,-0.617,-3.376,2.73,1.61,0.56
,-9.299,-0.699,-3.41,-9.287,-0.613,-3.4,2.59,1.54,0.56
,-9.292,-0.68,-3.412,-9.251,-0.605,-3.333,2.94,1.68,0.63
,-9.256,-0.637,-3.398,-9.284,-0.596,-3.429,3.29,1.68,0.63
2499.0,-9.22,-0.677,-3.384,-9.342,-0.706,-3.451,1.96,2.24,0.49
,-9.263,-0.627,-3.412,-9.244,-0.682,-3.441,2.24,2.38,0.56
,-9.273,-0.665,-3.484,-9.284,-0.634,-3.522,2.38,2.38,0.63
,-9.273,-0.625,-3.448,-9.301,-0.608,-3.556,2.24,2.31,0.77
2574.0,-9.229,-0.637,-3.575,-9.27,-0.648,-3.64,2.66,2.17,0.77
,-9.239,-0.593,-3.644,-9.246,-0.577,-3.611,2.66,2.17,0.77
,-9.263,-0.711,-3.623,-9.282,-0.605,-3.599,2.38,1.82,0.63
,-9.249,-0.646,-3.62,-9.282,-0.648,-3.565,2.66,1.75,0.63
2650.0,-9.249,-0.615,-3.532,-9.284,-0.591,-3.374,3.22,0.91,0.84
,-9.28,-0.596,-3.47,-9.28,-0.593,-3.381,3.22,0.77,0.77
,-9.258,-0.653,-3.436,-9.265,-0.704,-3.35,3.22,0.91,0.77
,-9.301,-0.608,-3.4,-9.261,-0.732,-3.345,3.36,1.12,0.77
2725.0,-9.275,-0.687,-3.369,-9.225,-0.658,-3.453,2.24,1.33,0.49
,-9.251,-0.672,-3.362,-9.275,-0.634,-3.455,2.38,1.61,0.49
,-9.273,-0.634,-3.412,-9.237,-0.613,-3.501,2.59,1.82,0.63
,-9.289,-0.605,-3.4,-9.304,-0.613,-3.527,2.59,1.82,0.63
2801.0,-9.265,-0.651,-3.477,-9.256,-0.68,-3.434,2.52,2.1,0.63
,-9.265,-0.632,-3.518,-9.28,-0.656,-3.398,2.73,2.1,0.84
,-9.263,-0.67,-3.477,-9.244,-0.646,-3.439,2.73,1.82,0.77
,-9.237,-0.677,-3.46,-9.284,-0.663,-3.539,2.8,1.89,0.77
2877.0,-9.316,-0.656,-3.609,-9.284,-0.622,-3.494,2.31,1.89,0.7
,-9.237,-0.684,-3.553,-9.282,-0.61,-3.518,2.66,1.47,0.63
,-9.225,-0.68,-3.549,-9.273,-0.629,-3.434,2.94,1.54,0.84
,-9.253,-0.672,-3.506,-9.251,-0.708,-3.443,2.94,1.68,0.84
2953.0,-9.256,-0.694,-3.451,-9.246,-0.622,-3.534,2.73,1.61,0.56
,-9.265,-0.644,-3.508,-9.229,-0.617,-3.434,2.87,1.4,0.56
,-9.21,-0.682,-3.503,-9.253,-0.675,-3.369,3.08,1.47,0.63
,-9.244,-0.651,-3.475,-9.308,-0.663,-3.355,3.22,1.61,0.77
3029.0,-9.33,-0.646,-3.36,-9.244,-0.61,-3.439,2.31,1.75,0.56
,-9.304,-0.646,-3.314,-9.241,-0.653,-3.463,2.1,1.96,0.7
,-9.294,-0.589,-3.369,-9.258,-0.639,-3.455,1.89,2.1,0.63
,-9.273,-0.586,-3.424,-9.27,-0.591,-3.537,1.61,2.24,0.63
3104.0,-9.27,-0.589,-3.587,-9.22,-0.684,-3.654,0.91,2.17,0.42
,-9.225,-0.637,-3.611,-9.313,-0.629,-3.558,0.77,2.24,0.49
,-9.225,-0.704,-3.642,-9.251,-0.617,-3.506,1.12,2.03,0.42
,-9.227,-0.73,-3.601,-9.268,-0.653,-3.479,1.61,2.03,0.63
3180.0,-9.227,-0.672,-3.496,-9.232,-0.687,-3.498,2.1,1.54,0.77
,-9.256,-0.677,-3.496,-9.246,-0.692,-3.503,2.24,1.54,0.7
,-9.258,-0.672,-3.463,-9.217,-0.696,-3.431,2.38,1.61,0.84
,-9.215,-0.672,-3.53,-9.323,-0.684,-3.491,2.52,1.61,0.91
3256.0,-9.32,-0.605,-3.53,-9.261,-0.68,-3.534,2.94,1.75,1.05
,-9.229,-0.622,-3.544,-9.251,-0.603,-3.532,2.8,1.61,0.98
,-9.213,-0.658,-3.575,-9.318,-0.615,-3.539,2.87,1.68,1.05
,-9.227,-0.67,-3.57,-9.287,-0.593,-3.702,3.29,1.75,1.19
3332.0,-9.198,-0.589,-3.508,-9.325,-0.605,-3.427,3.43,1.33,1.05
,-9.273,-0.617,-3.391,-9.323,-0.627,-3.491,3.01,1.4,0.98
,-9.263,-0.634,-3.391,-9.32,-0.617,-3.534,2.8,1.75,1.05
,-9.234,-0.637,-3.321,-9.246,-0.627,-3.623,2.8,1.82,1.12
3407.0,-9.251,-0.651,-3.656,-9.292,-0.615,-3.527,2.17,1.61,0.77
,-9.246,-0.639,-3.642,-9.208,-0.658,-3.441,2.38,1.54,0.84
,-9.239,-0.637,-3.57,-9.275,-0.66,-3.475,2.8,1.4,0.91
,-9.335,-0.56,-3.549,-9.246,-0.66,-3.463,2.94,1.19,0.77
3483.0,-9.306,-0.634,-3.451,-9.249,-0.586,-3.477,2.94,1.26,0.63
,-9.277,-0.625,-3.429,-9.244,-0.586,-3.458,2.59,1.33,0.77
,-9.246,-0.648,-3.412,-9.273,-0.589,-3.501,2.52,1.33,0.7
,-9.244,-0.572,-3.424,-9.234,-0.632,-3.467,2.66,1.54,0.63
3558.0,-9.313,-0.613,-3.453,-9.191,-0.639,-3.563,2.38,1.54,0.56
,-9.287,-0.598,-3.431,-9.237,-0.644,-3.594,2.45,1.61,0.49
,-9.27,-0.581,-3.475,-9.234,-0.625,-3.582,2.17,1.61,0.49
,-9.196,-0.615,-3.534,-9.311,-0.567,-3.537,1.96,1.61,0.49
3634.0,-9.225,-0.622,-3.539,-9.258,-0.692,-3.496,2.73,1.33,0.42
,-9.261,-0.646,-3.51,-9.268,-0.658,-3.532,2.66,1.33,0.49
,-9.241,-0.665,-3.506,-9.256,-0.694,-3.494,2.59,1.26,0.49
,-9.284,-0.677,-3.513,-9.246,-0.677,-3.465,2.52,1.19,0.42
3710.0,-9.282,-0.672,-3.475,-9.244,-0.629,-3.587,2.8,1.33,0.56
,-9.296,-0.656,-3.439,-9.22,-0.675,-3.51,2.87,1.12,0.56
,-9.275,-0.62,-3.475,-9.261,-0.658,-3.561,2.8,1.05,0.63
,-9.28,-0.615,-3.479,-9.273,-0.665,-3.472,2.66,1.12,0.56
3786.0,-9.268,-0.644,-3.441,-9.292,-0.589,-3.534,3.15,1.12,0.63
,-9.253,-0.634,-3.439,-9.244,-0.648,-3.551,2.94,1.26,0.56
,-9.275,-0.675,-3.419,-9.253,-0.637,-3.544,2.8,1.19,0.42
,-9.282,-0.598,-3.463,-9.244,-0.701,-3.501,2.66,1.26,0.35
3862.0,-9.287,-0.629,-3.434,-9.191,-0.727,-3.498,2.17,1.05,0.35
,-9.28,-0.601,-3.441,-9.208,-0.742,-3.522,2.17,1.05,0.42
,-9.313,-0.665,-3.436,-9.256,-0.708,-3.527,1.96,0.91,0.28
,-9.27,-0.675,-3.475,-9.258,-0.677,-3.479,2.03,0.77,0.28
3937.0,-9.306,-0.672,-3.436,-9.287,-0.603,-3.47,4.13,1.33,0.91
,-9.261,-0.696,-3.398,-9.251,-0.629,-3.52,4.34,1.33,0.91
,-9.308,-0.625,-3.431,-9.222,-0.644,-3.475,4.48,1.47,0.98
,-9.308,-0.622,-3.482,-9.208,-0.625,-3.494,4.2,1.4,0.91
4013.0,-9.256,-0.639,-3.477,-9.256,-0.589,-3.494,3.22,1.12,0.56
,-9.234,-0.648,-3.501,-9.265,-0.672,-3.439,3.22,1.33,0.7
,-9.289,-0.608,-3.415,-9.249,-0.67,-3.494,2.87,1.33,0.7
,-9.284,-0.593,-3.417,-9.275,-0.675,-3.513,2.66,1.4,0.56
4089.0,-9.246,-0.718,-3.484,-9.249,-0.704,-3.546,2.03,1.19,0.42
,-9.263,-0.727,-3.467,-9.206,-0.694,-3.606,2.24,1.33,0.56
,-9.268,-0.72,-3.508,-9.237,-0.67,-3.652,2.45,1.4,0.63
,-9.244,-0.715,-3.52,-9.304,-0.565,-3.496,2.52,1.4,0.56
4165.0,-9.22,-0.692,-3.558,-9.265,-0.675,-3.424,3.29,0.63,0.77
,-9.249,-0.692,-3.51,-9.301,-0.648,-3.396,3.29,0.63,0.98
,-9.27,-0.708,-3.47,-9.289,-0.656,-3.333,3.64,0.42,0.98
,-9.277,-0.663,-3.489,-9.284,-0.704,-3.4,3.57,0.21,0.84
4240.0,-9.277,-0.713,-3.398,-9.284,-0.639,-3.364,2.66,0.21,0.84
,-9.292,-0.653,-3.405,-9.249,-0.639,-3.35,2.66,0.28,0.84
,-9.284,-0.67,-3.374,-9.292,-0.634,-3.355,2.87,0.42,0.98
,-9.287,-0.682,-3.405,-9.256,-0.653,-3.396,3.01,0.56,0.98
4316.0,-9.249,-0.646,-3.355,-9.27,-0.665,-3.321,2.24,0.98,0.77
,-9.328,-0.637,-3.4,-9.265,-0.625,-3.424,2.17,0.98,0.77
,-9.318,-0.634,-3.386,-9.287,-0.668,-3.427,2.17,1.19,0.84
,-9.284,-0.605,-3.384,-9.277,-0.665,-3.405,2.24,1.19,0.84
4391.0,-9.261,-0.648,-3.451,-9.253,-0.665,-3.491,1.89,1.54,0.77
,-9.265,-0.651,-3.482,-9.304,-0.651,-3.496,2.24,1.75,0.84
,-9.287,-0.658,-3.508,-9.301,-0.658,-3.546,2.24,1.61,0.84
,-9.313,-0.608,-3.518,-9.258,-0.711,-3.518,2.03,1.4,0.7
4467.0,-9.292,-0.711,-3.484,-9.292,-0.61,-3.513,3.01,0.98,0.77
,-9.268,-0.727,-3.482,-9.217,-0.66,-3.513,3.36,0.84,0.77
,-9.253,-0.653,-3.477,-9.265,-0.658,-3.501,3.57,0.77,0.77
,-9.261,-0.66,-3.544,-9.27,-0.67,-3.467,3.64,0.56,0.7
4543.0,-9.332,-0.625,-3.472,-9.28,-0.708,-3.367,3.36,0.21,0.7
,-9.325,-0.589,-3.419,-9.265,-0.646,-3.35,3.22,0.14,0.63
,-9.318,-0.534,-3.417,-9.294,-0.663,-3.415,3.15,0.28,0.63
,-9.311,-0.629,-3.4,-9.294,-0.665,-3.398,2.73,0.21,0.49
4619.0,-9.251,-0.711,-3.427,-9.258,-0.634,-3.477,2.31,0.21,0.42
,-9.244,-0.713,-3.422,-9.251,-0.656,-3.496,2.66,0.14,0.35
,-9.287,-0.701,-3.465,-9.296,-0.699,-3.532,3.01,0.28,0.49
,-9.275,-0.684,-3.451,-9.265,-0.648,-3.565,3.36,0.28,0.49
4694.0,-9.284,-0.68,-3.544,-9.289,-0.696,-3.29,3.92,-0.35,0.42
,-9.313,-0.677,-3.515,-9.313,-0.665,-3.3,4.13,-0.63,0.42
,-9.265,-0.672,-3.417,-9.34,-0.68,-3.293,4.34,-0.84,0.49
,-9.351,-0.644,-3.386,-9.325,-0.672,-3.336,4.34,-0.7,0.42
4770.0,-9.313,-0.692,-3.36,-9.263,-0.617,-3.362,3.22,-0.7,0.14
,-9.313,-0.732,-3.333,-9.323,-0.605,-3.29,3.29,-0.49,0.28
,-9.296,-0.689,-3.336,-9.342,-0.72,-3.266,3.57,-0.63,0.28
,-9.282,-0.67,-3.336,-9.337,-0.749,-3.254,3.78,-0.56,0.28
4846.0,-9.289,-0.737,-3.278,-9.356,-0.701,-3.276,3.36,0.07,0.35
,-9.299,-0.727,-3.226,-9.332,-0.735,-3.271,3.29,0.21,0.42
,-9.308,-0.713,-3.216,-9.328,-0.73,-3.329,3.22,0.28,0.42
,-9.328,-0.68,-3.269,-9.284,-0.735,-3.376,3.08,0.28,0.35
4922.0,-9.325,-0.696,-3.381,-9.284,-0.646,-3.336,3.08,0.42,0.49
,-9.289,-0.761,-3.352,-9.344,-0.68,-3.266,3.22,0.42,0.56
,-9.287,-0.701,-3.343,-9.33,-0.682,-3.262,3.57,0.42,0.63
,-9.347,-0.725,-3.324,-9.284,-0.713,-3.204,3.99,0.7,0.77
4998.0,-9.347,-0.742,-3.202,-9.397,-0.644,-3.214,3.85,0.91,0.7
,-9.325,-0.706,-3.209,-9.34,-0.653,-3.271,3.92,0.98,0.7
,-9.318,-0.73,-3.116,-9.366,-0.677,-3.283,3.57,1.05,0.7
,-9.354,-0.677,-3.154,-9.332,-0.713,-3.302,3.01,1.19,0.63
5073.0,-9.32,-0.689,-3.283,-9.337,-0.684,-3.415,2.24,1.89,0.56
,-9.313,-0.663,-3.223,-9.28,-0.701,-3.424,2.17,1.82,0.56
,-9.351,-0.648,-3.283,-9.27,-0.749,-3.482,1.89,2.03,0.49
,-9.366,-0.656,-3.348,-9.273,-0.785,-3.458,1.4,1.82,0.42
5149.0,-9.258,-0.751,-3.408,-9.289,-0.811,-3.348,2.24,1.19,0.63
,-9.32,-0.739,-3.453,-9.342,-0.72,-3.367,2.52,1.19,0.56
,-9.299,-0.763,-3.439,-9.368,-0.653,-3.391,2.66,1.05,0.63
,-9.277,-0.773,-3.405,-9.308,-0.629,-3.403,3.01,0.84,0.77
5224.0,-9.277,-0.692,-3.458,-9.34,-0.701,-3.264,3.15,0.28,0.84
,-9.304,-0.778,-3.46,-9.306,-0.704,-3.218,3.43,0.21,0.91
,-9.275,-0.756,-3.436,-9.395,-0.66,-3.13,3.64,0.07,0.98
,-9.27,-0.792,-3.367,-9.371,-0.608,-3.128,4.06,0.07,1.05
5300.0,-9.296,-0.694,-3.113,-9.373,-0.713,-3.235,2.94,0.21,0.84
,-9.306,-0.725,-3.087,-9.342,-0.672,-3.238,2.73,0.49,0.77
,-9.335,-0.792,-3.084,-9.304,-0.713,-3.192,2.8,0.91,0.91
,-9.371,-0.73,-3.173,-9.299,-0.725,-3.233,3.01,1.19,0.84
5376.0,-9.332,-0.663,-3.264,-9.332,-0.725,-3.285,3.08,1.33,0.77
,-9.33,-0.66,-3.293,-9.375,-0.715,-3.283,2.94,1.33,0.7
,-9.383,-0.653,-3.305,-9.354,-0.653,-3.24,2.45,1.4,0.7
,-9.361,-0.696,-3.29,-9.375,-0.639,-3.254,2.03,1.33,0.63
5452.0,-9.313,-0.668,-3.321,-9.32,-0.766,-3.408,1.4,1.19,0.42
,-9.318,-0.718,-3.379,-9.308,-0.735,-3.393,1.33,1.19,0.42
,-9.277,-0.749,-3.431,-9.294,-0.718,-3.338,1.75,1.12,0.42
,-9.344,-0.756,-3.427,-9.359,-0.682,-3.329,2.24,1.05,0.49
5527.0,-9.34,-0.708,-3.262,-9.311,-0.715,-3.281,3.22,0.63,0.77
,-9.359,-0.773,-3.206,-9.313,-0.677,-3.281,3.36,0.63,0.98
,-9.33,-0.735,-3.23,-9.316,-0.737,-3.317,3.29,0.56,0.77
,-9.375,-0.723,-3.235,-9.287,-0.737,-3.338,3.15,0.63,0.77
5603.0,-9.347,-0.684,-3.307,-9.332,-0.766,-3.092,3.57,0.56,0.84
,-9.313,-0.632,-3.271,-9.335,-0.744,-3.087,3.43,0.56,0.84
,-9.344,-0.684,-3.238,-9.368,-0.692,-3.046,3.22,0.56,0.77
,-9.335,-0.771,-3.173,-9.385,-0.653,-3.123,3.22,0.49,0.91
5678.0,-9.397,-0.699,-3.214,-9.354,-0.711,-3.223,2.66,1.4,0.7
,-9.351,-0.751,-3.187,-9.395,-0.668,-3.257,2.17,1.61,0.63
,-9.337,-0.754,-3.187,-9.356,-0.675,-3.254,2.24,1.54,0.63
,-9.363,-0.684,-3.218,-9.351,-0.718,-3.233,2.66,1.68,0.63
5754.0,-9.311,-0.749,-3.247,-9.313,-0.72,-3.331,2.66,2.1,0.77
,-9.304,-0.723,-3.266,-9.34,-0.723,-3.271,2.87,1.96,0.7
,-9.332,-0.682,-3.295,-9.375,-0.742,-3.245,2.73,1.89,0.63
,-9.349,-0.725,-3.305,-9.304,-0.72,-3.257,2.59,1.89,0.56
5830.0,-9.344,-0.706,-3.238,-9.273,-0.778,-3.352,3.01,1.75,0.7
,-9.351,-0.648,-3.259,-9.313,-0.72,-3.348,2.94,1.82,0.7
,-9.363,-0.675,-3.331,-9.344,-0.696,-3.348,2.52,1.68,0.56
,-9.273,-0.718,-3.348,-9.356,-0.713,-3.35,2.45,1.61,0.56
5906.0,-9.399,-0.692,-3.372,-9.351,-0.744,-3.319,2.8,1.26,0.56
,-9.351,-0.744,-3.376,-9.294,-0.711,-3.307,2.8,0.98,0.49
,-9.313,-0.782,-3.367,-9.361,-0.682,-3.269,3.29,0.84,0.63
,-9.299,-0.771,-3.357,-9.351,-0.711,-3.254,3.85,0.84,0.7
5982.0,-9.33,-0.723,-3.283,-9.344,-0.787,-3.137,3.43,0.56,0.56
,-9.335,-0.754,-3.285,-9.407,-0.708,-3.159,3.43,0.63,0.63
,-9.311,-0.723,-3.218,-9.385,-0.735,-3.132,3.43,0.84,0.7
,-9.311,-0.773,-3.154,-9.39,-0.689,-3.187,3.71,0.7,0.77
6057.0,-9.43,-0.696,-3.226,-9.287,-0.72,-3.149,3.08,1.12,0.77
,-9.344,-0.72,-3.202,-9.371,-0.711,-3.183,2.8,1.12,0.84
,-9.332,-0.737,-3.204,-9.371,-0.692,-3.199,2.94,1.05,0.7
,-9.375,-0.778,-3.216,-9.356,-0.725,-3.262,3.08,1.12,0.84
6133.0,-9.335,-0.68,-3.245,-9.407,-0.754,-3.187,2.38,1.12,0.77
,-9.311,-0.744,-3.278,-9.342,-0.787,-3.178,2.52,1.05,0.84
,-9.344,-0.742,-3.252,-9.378,-0.763,-3.183,2.8,1.33,0.84
,-9.32,-0.711,-3.25,-9.337,-0.739,-3.187,2.73,1.47,0.84
6209.0,-9.366,-0.78,-3.223,-9.387,-0.711,-3.204,2.17,1.26,0.84
,-9.356,-0.787,-3.276,-9.335,-0.692,-3.245,2.17,1.4,0.98
,-9.323,-0.761,-3.25,-9.363,-0.701,-3.247,2.73,1.61,1.05
,-9.342,-0.742,-3.228,-9.359,-0.732,-3.257,3.29,1.47,1.05
6285.0,-9.325,-0.768,-3.233,-9.361,-0.687,-3.23,3.15,1.33,0.98
,-9.356,-0.761,-3.235,-9.337,-0.701,-3.23,3.43,1.47,1.19
,-9.33,-0.754,-3.245,-9.347,-0.723,-3.264,3.5,1.4,1.12
,-9.414,-0.696,-3.187,-9.351,-0.756,-3.288,3.57,1.4,1.12
6360.0,-9.354,-0.739,-3.257,-9.371,-0.632,-3.223,2.94,1.47,1.12
,-9.323,-0.747,-3.238,-9.371,-0.637,-3.252,3.15,1.26,1.05
,-9.325,-0.723,-3.235,-9.371,-0.701,-3.269,3.36,1.4,1.12
,-9.373,-0.692,-3.23,-9.328,-0.756,-3.317,3.36,1.47,1.19
6436.0,-9.325,-0.814,-3.259,-9.426,-0.672,-3.19,2.87,1.12,0.77
,-9.395,-0.763,-3.245,-9.378,-0.696,-3.139,3.22,1.26,0.91
,-9.332,-0.749,-3.183,-9.33,-0.715,-3.18,3.43,1.4,0.84
,-9.387,-0.692,-3.147,-9.296,-0.778,-3.211,3.29,1.26,0.84
6511.0,-9.323,-0.749,-3.183,-9.383,-0.677,-3.166,3.08,1.68,0.7
,-9.34,-0.708,-3.185,-9.371,-0.694,-3.223,3.43,1.82,0.77
,-9.342,-0.639,-3.204,-9.354,-0.727,-3.238,3.22,1.75,0.63
,-9.368,-0.665,-3.18,-9.342,-0.727,-3.259,2.59,1.82,0.7
6587.0,-9.313,-0.706,-3.295,-9.325,-0.723,-3.278,2.38,1.68,0.63
,-9.332,-0.761,-3.269,-9.354,-0.754,-3.302,2.17,1.82,0.63
,-9.294,-0.768,-3.276,-9.351,-0.737,-3.309,2.31,1.82,0.7
,-9.328,-0.742,-3.293,-9.373,-0.754,-3.295,2.45,1.75,0.84
6663.0,-9.375,-0.756,-3.285,-9.34,-0.718,-3.312,2.59,1.33,0.77
,-9.335,-0.763,-3.364,-9.34,-0.715,-3.24,2.87,1.05,0.77
,-9.311,-0.739,-3.381,-9.351,-0.711,-3.221,3.01,1.12,0.91
,-9.28,-0.749,-3.283,-9.349,-0.713,-3.199,3.22,1.05,0.98
6739.0,-9.33,-0.701,-3.209,-9.38,-0.725,-3.12,3.01,0.84,0.84
,-9.332,-0.737,-3.111,-9.337,-0.73,-3.132,2.8,1.12,0.84
,-9.385,-0.715,-3.12,-9.344,-0.713,-3.092,2.8,1.19,0.7
,-9.363,-0.689,-3.161,-9.349,-0.677,-3.07,2.8,1.26,0.63
6814.0,-9.392,-0.675,-3.106,-9.304,-0.744,-3.185,2.8,1.96,0.49
,-9.375,-0.629,-3.142,-9.344,-0.708,-3.25,2.45,1.82,0.28
,-9.392,-0.639,-3.142,-9.366,-0.677,-3.209,1.96,1.82,0.21
,-9.356,-0.761,-3.163,-9.397,-0.725,-3.204,1.82,2.24,0.35
6890.0,-9.347,-0.735,-3.216,-9.385,-0.775,-3.393,2.24,2.45,0.28
,-9.361,-0.708,-3.214,-9.325,-0.768,-3.355,2.31,2.38,0.28
,-9.325,-0.732,-3.307,-9.301,-0.747,-3.36,2.31,2.31,0.21
,-9.351,-0.773,-3.367,-9.335,-0.723,-3.278,2.52,2.24,0.35
6966.0,-9.34,-0.699,-3.281,-9.44,-0.759,-3.257,3.64,2.1,0.49
,-9.395,-0.711,-3.233,-9.344,-0.704,-3.29,3.22,1.89,0.42
,-9.356,-0.735,-3.276,-9.304,-0.749,-3.259,2.94,1.68,0.14
,-9.349,-0.723,-3.281,-9.304,-0.739,-3.245,2.87,1.75,0.07
7042.0,-9.316,-0.732,-3.24,-9.373,-0.787,-3.178,1.89,1.26,-0.21
,-9.33,-0.826,-3.245,-9.361,-0.749,-3.142,2.03,1.47,0.0
,-9.301,-0.799,-3.214,-9.349,-0.739,-3.209,2.31,1.47,0.14
,-9.363,-0.797,-3.197,-9.332,-0.749,-3.254,2.73,1.4,0.14
7118.0,-9.328,-0.742,-3.329,-9.318,-0.749,-3.419,2.31,1.75,0.35
,-9.325,-0.782,-3.352,-9.313,-0.744,-3.36,2.17,1.61,0.21
,-9.304,-0.766,-3.34,-9.34,-0.773,-3.34,2.45,1.4,0.35
,-9.282,-0.747,-3.436,-9.335,-0.775,-3.331,2.73,1.4,0.42
7193.0,-9.347,-0.787,-3.223,-9.378,-0.725,-3.175,3.57,0.84,0.77
,-9.366,-0.768,-3.257,-9.385,-0.763,-3.113,3.71,0.77,0.84
,-9.354,-0.763,-3.269,-9.359,-0.799,-3.096,3.64,0.84,0.84
,-9.335,-0.727,-3.159,-9.335,-0.804,-3.07,3.5,0.63,0.63
7269.0,-9.318,-0.778,-3.089,-9.359,-0.739,-3.168,3.43,1.54,0.91
,-9.351,-0.761,-3.082,-9.335,-0.759,-3.266,3.22,1.75,0.84
,-9.347,-0.773,-3.118,-9.294,-0.768,-3.283,2.87,1.89,0.84
,-9.351,-0.778,-3.171,-9.311,-0.711,-3.35,2.66,1.75,0.77
7344.0,-9.323,-0.737,-3.324,-9.323,-0.756,-3.235,2.38,1.75,0.42
,-9.332,-0.711,-3.329,-9.287,-0.814,-3.151,2.45,1.68,0.56
,-9.335,-0.711,-3.293,-9.328,-0.823,-3.116,2.45,1.89,0.56
,-9.306,-0.771,-3.317,-9.359,-0.775,-3.197,2.52,1.75,0.63
7420.0,-9.349,-0.725,-3.195,-9.335,-0.761,-3.305,2.66,1.75,0.56
,-9.356,-0.775,-3.271,-9.342,-0.711,-3.262,2.17,1.82,0.49
,-9.335,-0.79,-3.252,-9.366,-0.727,-3.206,2.24,1.68,0.56
,-9.359,-0.802,-3.314,-9.356,-0.725,-3.278,2.8,1.47,0.56
7496.0,-9.294,-0.744,-3.288,-9.328,-0.78,-3.221,2.59,1.54,0.42
,-9.344,-0.749,-3.336,-9.294,-0.761,-3.171,2.31,1.47,0.35
,-9.318,-0.806,-3.369,-9.361,-0.725,-3.221,2.59,1.61,0.56
,-9.308,-0.809,-3.29,-9.316,-0.735,-3.12,3.15,1.54,0.63
7572.0,-9.378,-0.79,-3.171,-9.32,-0.771,-3.257,2.52,1.82,0.63
,-9.34,-0.842,-3.175,-9.313,-0.711,-3.283,2.73,1.96,0.7
,-9.38,-0.785,-3.211,-9.323,-0.715,-3.319,2.94,1.82,0.7
,-9.349,-0.782,-3.254,-9.328,-0.739,-3.345,2.94,1.75,0.7
7647.0,-9.332,-0.763,-3.307,-9.313,-0.775,-3.295,2.1,1.54,0.42
,-9.342,-0.804,-3.276,-9.366,-0.842,-3.269,1.89,1.47,0.35
,-9.332,-0.804,-3.305,-9.323,-0.847,-3.247,1.82,1.54,0.49
,-9.304,-0.787,-3.305,-9.335,-0.821,-3.221,2.03,1.68,0.56
7723.0,-9.33,-0.84,-3.214,-9.378,-0.768,-3.23,2.66,1.47,0.7
,-9.351,-0.83,-3.195,-9.344,-0.794,-3.197,2.87,1.4,0.77
,-9.335,-0.802,-3.154,-9.354,-0.809,-3.211,3.01,1.54,0.84
,-9.373,-0.804,-3.161,-9.28,-0.751,-3.281,3.22,1.82,1.05
7799.0,-9.277,-0.747,-3.276,-9.38,-0.727,-3.281,2.87,1.75,0.84
,-9.363,-0.749,-3.283,-9.328,-0.771,-3.235,2.87,1.89,0.91
,-9.316,-0.744,-3.264,-9.325,-0.72,-3.319,2.73,1.82,0.84
,-9.308,-0.785,-3.262,-9.301,-0.732,-3.319,2.66,1.75,0.84
7875.0,-9.318,-0.761,-3.314,-9.316,-0.761,-3.245,1.61,1.54,0.7
,-9.375,-0.794,-3.3,-9.306,-0.766,-3.271,1.75,1.61,0.63
,-9.337,-0.778,-3.317,-9.33,-0.754,-3.252,1.89,1.54,0.63
,-9.304,-0.754,-3.242,-9.335,-0.83,-3.269,1.96,1.54,0.7
7951.0,-9.351,-0.799,-3.271,-9.347,-0.799,-3.259,2.03,1.4,0.56
,-9.366,-0.778,-3.348,-9.378,-0.79,-3.329,2.1,1.26,0.63
,-9.347,-0.751,-3.305,-9.304,-0.735,-3.336,2.1,1.4,0.63
,-9.313,-0.766,-3.29,-9.292,-0.792,-3.3,2.17,1.54,0.7
8026.0,-9.304,-0.823,-3.336,-9.332,-0.768,-3.135,2.8,1.12,0.77
,-9.308,-0.794,-3.269,-9.342,-0.785,-3.094,3.22,1.05,0.63
,-9.34,-0.737,-3.262,-9.383,-0.794,-3.077,3.29,1.05,0.77
,-9.287,-0.785,-3.211,-9.337,-0.826,-3.132,3.15,1.19,0.91
8102.0,-9.38,-0.754,-3.269,-9.342,-0.732,-3.293,2.45,1.68,0.84
,-9.337,-0.826,-3.312,-9.344,-0.759,-3.297,2.31,1.54,0.84
,-9.313,-0.799,-3.319,-9.318,-0.756,-3.271,2.45,1.68,1.05
,-9.344,-0.778,-3.288,-9.368,-0.723,-3.276,2.66,1.54,1.05
8177.0,-9.342,-0.737,-3.336,-9.308,-0.792,-3.226,2.52,1.54,0.91
,-9.356,-0.692,-3.34,-9.337,-0.787,-3.175,2.1,1.33,0.84
,-9.289,-0.749,-3.295,-9.371,-0.771,-3.197,2.03,1.26,0.7
,-9.299,-0.79,-3.288,-9.359,-0.806,-3.19,2.17,1.26,0.77
8253.0,-9.316,-0.802,-3.216,-9.335,-0.823,-3.142,2.1,1.47,0.77
,-9.392,-0.778,-3.221,-9.351,-0.747,-3.183,2.17,1.47,0.7
,-9.328,-0.775,-3.216,-9.423,-0.629,-3.209,2.38,1.61,0.7
,-9.325,-0.811,-3.159,-9.373,-0.66,-3.297,2.38,1.47,0.7
8329.0,-9.342,-0.727,-3.29,-9.332,-0.751,-3.288,2.38,1.82,0.7
,-9.306,-0.759,-3.352,-9.344,-0.761,-3.262,2.66,1.89,0.7
,-9.33,-0.744,-3.338,-9.363,-0.759,-3.285,2.94,1.89,0.7
,-9.359,-0.715,-3.34,-9.332,-0.725,-3.314,2.87,1.68,0.63
8405.0,-9.313,-0.804,-3.302,-9.325,-0.771,-3.247,2.59,1.54,0.56
,-9.308,-0.79,-3.269,-9.306,-0.713,-3.278,2.59,1.54,0.63
,-9.354,-0.792,-3.297,-9.323,-0.778,-3.309,2.59,1.47,0.63
,-9.318,-0.787,-3.262,-9.399,-0.775,-3.403,2.73,1.47,0.63
8480.0,-9.378,-0.785,-3.393,-9.328,-0.696,-3.199,3.01,1.19,0.63
,-9.344,-0.828,-3.357,-9.354,-0.696,-3.178,3.5,1.12,0.7
,-9.316,-0.799,-3.312,-9.387,-0.799,-3.204,3.78,1.19,0.77
,-9.313,-0.761,-3.233,-9.368,-0.823,-3.228,3.85,0.98,0.77
8556.0,-9.344,-0.79,-3.24,-9.311,-0.646,-3.147,2.73,1.12,0.49
,-9.323,-0.761,-3.228,-9.363,-0.742,-3.132,2.87,1.19,0.42
,-9.337,-0.751,-3.233,-9.337,-0.792,-3.163,3.01,1.19,0.49
,-9.316,-0.771,-3.195,-9.332,-0.802,-3.166,2.94,1.33,0.42
8632.0,-9.323,-0.771,-3.228,-9.335,-0.826,-3.333,2.31,1.75,0.56
,-9.328,-0.816,-3.226,-9.344,-0.785,-3.309,2.38,1.68,0.56
,-9.351,-0.818,-3.259,-9.375,-0.811,-3.374,2.59,1.75,0.7
,-9.306,-0.809,-3.295,-9.356,-0.854,-3.393,2.45,1.82,0.63
8708.0,-9.323,-0.78,-3.372,-9.363,-0.78,-3.278,2.73,1.61,0.7
,-9.332,-0.785,-3.329,-9.342,-0.792,-3.242,2.8,1.4,0.77
,-9.325,-0.756,-3.283,-9.34,-0.816,-3.252,2.87,1.33,0.7
,-9.275,-0.739,-3.288,-9.361,-0.756,-3.235,2.66,1.19,0.56
8783.0,-9.33,-0.768,-3.223,-9.359,-0.83,-3.242,2.1,1.19,0.63
,-9.301,-0.816,-3.209,-9.34,-0.859,-3.343,2.03,1.12,0.56
,-9.313,-0.771,-3.214,-9.289,-0.873,-3.276,2.03,1.33,0.56
,-9.354,-0.785,-3.23,-9.325,-0.845,-3.285,2.17,1.54,0.7
8859.0,-9.359,-0.787,-3.245,-9.354,-0.78,-3.259,3.29,1.4,1.12
,-9.328,-0.785,-3.209,-9.33,-0.811,-3.288,3.22,1.61,1.26
,-9.356,-0.78,-3.245,-9.328,-0.794,-3.293,2.94,1.33,0.98
,-9.337,-0.821,-3.242,-9.349,-0.725,-3.283,2.87,1.33,1.05
8935.0,-9.316,-0.742,-3.271,-9.313,-0.766,-3.235,3.15,1.26,1.19
,-9.311,-0.754,-3.242,-9.304,-0.749,-3.259,3.08,1.47,1.26
,-9.392,-0.766,-3.257,-9.349,-0.766,-3.271,3.01,1.33,1.19
,-9.404,-0.804,-3.238,-9.296,-0.739,-3.25,3.01,1.4,1.12
9010.0,-9.395,-0.711,-3.319,-9.316,-0.754,-3.259,2.66,1.26,0.84
,-9.318,-0.79,-3.288,-9.328,-0.751,-3.273,2.59,1.19,0.84
,-9.316,-0.809,-3.216,-9.371,-0.754,-3.24,2.66,0.98,0.77
,-9.356,-0.725,-3.238,-9.349,-0.79,-3.295,2.8,1.19,0.7
9086.0,-9.328,-0.787,-3.369,-9.368,-0.713,-3.228,2.52,1.05,0.7
,-9.253,-0.802,-3.333,-9.383,-0.759,-3.123,2.8,1.19,0.7
,-9.308,-0.787,-3.252,-9.38,-0.814,-3.118,2.8,1.26,0.63
,-9.301,-0.713,-3.209,-9.368,-0.852,-3.144,2.8,1.12,0.63
9162.0,-9.33,-0.869,-3.139,-9.371,-0.826,-3.18,2.31,1.33,0.63
,-9.347,-0.804,-3.166,-9.328,-0.833,-3.202,2.45,1.33,0.7
,-9.34,-0.735,-3.214,-9.328,-0.806,-3.247,2.73,1.68,0.77
,-9.368,-0.747,-3.19,-9.328,-0.78,-3.269,2.17,1.61,0.77
9238.0,-9.306,-0.744,-3.331,-9.366,-0.725,-3.259,2.59,1.68,0.98
,-9.323,-0.794,-3.314,-9.349,-0.742,-3.235,2.8,1.75,1.05
,-9.299,-0.79,-3.264,-9.359,-0.739,-3.204,2.94,1.68,1.05
,-9.342,-0.747,-3.285,-9.325,-0.751,-3.211,2.94,1.68,1.05
9313.0,-9.318,-0.792,-3.238,-9.34,-0.787,-3.281,1.96,1.61,0.84
,-9.33,-0.809,-3.307,-9.301,-0.766,-3.295,1.89,1.61,0.91
,-9.349,-0.835,-3.218,-9.325,-0.768,-3.254,2.17,1.61,0.98
,-9.308,-0.804,-3.252,-9.378,-0.751,-3.257,2.52,1.54,0.91
9389.0,-9.361,-0.725,-3.271,-9.361,-0.725,-3.276,2.94,1.4,1.05
,-9.33,-0.725,-3.235,-9.344,-0.742,-3.259,2.8,1.47,0.98
,-9.368,-0.737,-3.312,-9.316,-0.79,-3.25,2.66,1.33,0.91
,-9.371,-0.749,-3.24,-9.32,-0.818,-3.228,2.52,1.33,0.84
9465.0,-9.301,-0.816,-3.245,-9.383,-0.775,-3.175,1.96,1.05,0.63
,-9.323,-0.768,-3.293,-9.39,-0.78,-3.187,2.1,1.12,0.77
,-9.32,-0.742,-3.264,-9.308,-0.754,-3.137,1.96,1.05,0.63
,-9.328,-0.771,-3.238,-9.304,-0.699,-3.156,1.96,1.12,0.7
9541.0,-9.325,-0.732,-3.216,-9.313,-0.811,-3.228,2.66,1.61,0.77
,-9.378,-0.725,-3.226,-9.328,-0.763,-3.25,2.52,1.54,0.84
,-9.361,-0.739,-3.245,-9.354,-0.761,-3.259,2.45,1.54,0.84
,-9.335,-0.811,-3.276,-9.332,-0.787,-3.266,2.45,1.47,0.7
9616.0,-9.385,-0.799,-3.324,-9.316,-0.742,-3.223,2.24,1.4,0.63
,-9.342,-0.804,-3.324,-9.375,-0.708,-3.18,2.45,1.33,0.63
,-9.33,-0.818,-3.295,-9.349,-0.78,-3.113,3.01,1.33,0.77
,-9.325,-0.766,-3.262,-9.368,-0.785,-3.094,3.22,1.26,0.7
9692.0,-9.359,-0.806,-3.077,-9.356,-0.749,-3.185,2.59,1.61,0.84
,-9.368,-0.785,-3.151,-9.351,-0.751,-3.29,2.52,1.82,0.84
,-9.359,-0.78,-3.159,-9.304,-0.704,-3.329,2.31,1.96,0.84
,-9.354,-0.749,-3.226,-9.311,-0.713,-3.367,2.45,2.1,0.84
9767.0,-9.344,-0.723,-3.386,-9.323,-0.775,-3.281,2.24,1.54,0.63
,-9.351,-0.749,-3.386,-9.361,-0.759,-3.183,2.31,1.47,0.7
,-9.313,-0.744,-3.393,-9.363,-0.756,-3.161,2.59,1.33,0.7
,-9.356,-0.756,-3.307,-9.328,-0.782,-3.166,2.94,1.4,0.77
