Timestamp,AccX,AccY,AccZ,GyroX,GyroY,GyroZ,MagnX,MagnY,MagnZ
0.0,-9.483,-0.275,-2.974,-9.445,-0.376,-2.919,2.8,1.12,0.98
,-9.474,-0.311,-2.915,-9.464,-0.359,-2.919,2.73,1.26,1.05
,-9.474,-0.292,-2.886,-9.454,-0.333,-2.879,2.8,1.12,0.98
,-9.481,-0.309,-2.898,-9.495,-0.361,-2.962,2.52,1.19,0.91
75.0,-9.466,-0.282,-2.974,-9.464,-0.299,-2.96,2.8,1.33,1.12
,-9.452,-0.311,-2.958,-9.483,-0.299,-2.898,2.66,1.12,0.98
,-9.505,-0.318,-2.948,-9.5,-0.321,-2.979,2.73,1.12,0.91
,-9.471,-0.261,-2.936,-9.469,-0.342,-2.917,2.94,1.26,1.12
150.0,-9.454,-0.333,-2.886,-9.471,-0.28,-2.84,2.52,0.91,0.91
,-9.488,-0.335,-2.886,-9.433,-0.352,-2.84,2.38,0.98,0.91
,-9.447,-0.34,-2.855,-9.519,-0.299,-2.898,2.24,1.19,0.98
,-9.476,-0.27,-2.869,-9.476,-0.29,-2.855,2.03,1.19,0.91
226.0,-9.459,-0.342,-2.831,-9.495,-0.51,-2.967,1.75,1.75,0.98
,-9.476,-0.237,-2.769,-9.5,-0.45,-3.068,1.54,1.61,1.05
,-9.485,-0.158,-2.9,-9.418,-0.294,-3.123,0.7,1.47,0.98
,-9.514,-0.287,-2.886,-9.512,-0.179,-3.151,0.07,1.61,0.84
302.0,-9.469,-0.177,-3.049,-9.442,-0.33,-2.972,2.52,1.19,1.05
,-9.478,-0.256,-3.01,-9.433,-0.311,-2.955,2.03,0.91,0.98
,-9.402,-0.337,-3.013,-9.49,-0.304,-2.852,2.38,0.77,0.98
,-9.442,-0.328,-2.996,-9.493,-0.321,-2.85,2.94,0.7,1.12
378.0,-9.495,-0.309,-2.814,-9.495,-0.325,-2.788,2.45,0.77,1.19
,-9.502,-0.302,-2.776,-9.505,-0.249,-2.781,2.45,0.91,1.26
,-9.526,-0.261,-2.749,-9.466,-0.215,-2.898,2.17,0.91,1.19
,-9.454,-0.349,-2.764,-9.529,-0.366,-2.869,1.96,1.12,1.33
453.0,-9.497,-0.407,-2.927,-9.505,-0.275,-2.855,1.33,1.96,1.4
,-9.454,-0.244,-2.895,-9.452,-0.345,-2.855,1.61,1.75,1.47
,-9.483,-0.218,-2.915,-9.493,-0.378,-3.02,1.4,1.61,1.47
,-9.447,-0.235,-2.871,-9.505,-0.256,-2.962,0.35,1.47,1.4
529.0,-9.483,-0.246,-2.955,-9.452,-0.311,-2.927,0.98,1.19,1.68
,-9.471,-0.249,-2.996,-9.454,-0.23,-2.893,0.49,1.05,1.75
,-9.483,-0.27,-2.962,-9.471,-0.246,-2.891,0.07,1.05,1.75
,-9.507,-0.337,-2.974,-9.457,-0.213,-2.85,-0.07,1.12,1.82
604.0,-9.474,-0.28,-2.917,-9.481,-0.254,-2.934,-0.7,0.84,2.03
,-9.502,-0.361,-2.895,-9.488,-0.249,-2.871,-0.63,0.77,2.17
,-9.478,-0.373,-2.869,-9.481,-0.27,-2.845,0.0,0.91,2.24
,-9.519,-0.304,-2.905,-9.462,-0.242,-2.888,0.28,0.91,2.31
680.0,-9.483,-0.254,-2.874,-9.457,-0.23,-2.883,-0.35,1.19,2.66
,-9.493,-0.232,-2.871,-9.454,-0.211,-2.924,-0.42,1.12,2.73
,-9.5,-0.17,-2.898,-9.481,-0.163,-2.891,-0.49,1.05,2.8
,-9.507,-0.22,-2.917,-9.502,-0.11,-2.958,-0.77,1.05,2.8
756.0,-9.481,-0.211,-2.893,-9.488,-0.227,-2.864,-2.73,0.77,3.01
,-9.514,-0.306,-2.953,-9.5,-0.244,-2.814,-2.94,0.98,3.08
,-9.469,-0.263,-2.881,-9.469,-0.208,-2.742,-2.66,0.91,3.15
,-9.471,-0.323,-2.867,-9.488,-0.208,-2.843,-2.45,0.91,3.22
832.0,-9.478,-0.187,-2.845,-9.445,-0.079,-2.639,-1.96,1.12,3.78
,-9.488,-0.103,-2.843,-9.538,-0.093,-2.869,-1.82,1.05,3.85
,-9.438,-0.101,-2.802,-9.502,-0.089,-2.893,-1.82,1.12,3.99
,-9.497,-0.105,-2.848,-9.541,-0.136,-2.864,-2.59,1.05,3.99
908.0,-9.5,-0.29,-2.91,-9.509,-0.029,-2.941,-5.25,1.12,4.41
,-9.519,-0.246,-2.769,-9.478,-0.079,-2.781,-4.55,1.12,4.55
,-9.512,-0.146,-3.044,-9.521,-0.211,-2.886,-3.71,1.26,4.83
,-9.514,0.0,-2.745,-9.502,-0.223,-2.941,-4.41,1.33,4.9
983.0,-9.497,-0.203,-2.682,-9.457,-0.005,-2.986,-6.23,1.82,5.39
,-9.438,-0.098,-2.874,-9.416,0.026,-2.946,-5.67,1.96,5.53
,-9.466,-0.101,-3.01,-9.495,-0.156,-3.013,-5.25,1.75,5.6
,-9.485,-0.041,-2.962,-9.471,-0.261,-2.917,-5.6,1.47,5.6
1059.0,-9.462,-0.065,-2.893,-9.457,0.081,-2.685,-7.7,1.4,6.16
,-9.562,0.122,-2.934,-9.512,0.055,-2.694,-7.91,1.26,6.16
,-9.445,0.258,-2.814,-9.471,-0.017,-2.656,-8.12,1.05,6.16
,-9.545,0.117,-2.769,-9.452,0.041,-2.766,-8.33,1.12,6.09
1135.0,-9.514,0.144,-2.807,-9.452,0.072,-2.929,-6.09,2.03,7.35
,-9.49,0.153,-2.831,-9.435,0.093,-2.998,-5.95,2.1,7.56
,-9.445,0.191,-2.881,-9.409,0.022,-3.065,-5.95,2.1,7.7
,-9.43,0.215,-2.955,-9.433,0.05,-3.029,-6.44,2.03,7.84
1211.0,-9.464,0.201,-3.029,-9.416,0.294,-2.836,-3.36,1.89,8.96
,-9.454,0.364,-3.037,-9.416,0.201,-2.828,-3.36,1.54,8.89
,-9.457,0.424,-2.91,-9.416,0.225,-2.826,-4.97,1.47,8.4
,-9.447,0.304,-2.838,-9.452,0.33,-2.907,-6.79,1.33,8.05
1286.0,-9.481,0.44,-2.931,-9.404,0.251,-3.039,-4.34,1.68,9.66
,-9.407,0.177,-2.8,-9.442,0.225,-3.108,-4.48,1.89,9.8
,-9.418,0.141,-2.816,-9.466,0.211,-3.032,-3.57,1.82,10.08
,-9.442,0.175,-2.922,-9.584,0.443,-3.044,-3.71,1.96,10.29
1362.0,-9.529,0.902,-3.027,-9.497,1.314,-2.67,-6.86,1.4,9.24
,-9.421,1.146,-2.891,-9.495,1.285,-2.666,-7.35,1.33,8.89
,-9.407,1.117,-2.843,-9.49,1.091,-2.723,-8.54,1.26,8.47
,-9.411,1.053,-2.702,-9.464,1.113,-2.754,-8.33,1.12,8.33
1437.0,-9.459,1.117,-2.824,-9.564,1.474,-2.644,-7.14,1.26,7.35
,-9.49,0.976,-2.862,-9.514,1.393,-2.529,-6.79,1.47,7.07
,-9.493,1.113,-2.797,-9.636,1.405,-2.333,-6.16,1.47,6.79
,-9.507,1.393,-2.812,-9.478,1.642,-2.096,-6.16,1.26,6.37
1513.0,-9.538,1.555,-1.998,-9.445,0.302,-2.252,-7.49,2.73,4.13
,-9.586,1.357,-1.881,-9.45,0.364,-2.548,-8.05,3.64,3.85
,-9.543,0.931,-1.914,-9.521,0.555,-2.824,-7.98,4.76,3.64
,-9.536,0.534,-2.027,-9.483,0.818,-3.046,-6.86,5.88,3.78
1589.0,-9.485,0.94,-3.271,-9.251,1.153,-3.331,0.98,9.1,4.9
,-9.385,0.905,-3.338,-9.227,1.031,-3.214,0.84,8.89,4.55
,-9.43,0.854,-3.4,-9.246,0.962,-3.168,1.19,8.05,4.2
,-9.316,1.173,-3.329,-9.399,0.986,-3.151,0.7,7.21,3.85
1665.0,-9.304,1.003,-3.13,-9.509,0.706,-3.479,-5.53,4.9,3.43
,-9.258,0.854,-3.309,-9.289,0.701,-3.345,-6.79,4.62,3.5
,-9.277,0.723,-3.36,-9.351,0.584,-3.374,-8.05,4.41,3.71
,-9.34,0.593,-3.381,-9.383,0.742,-3.305,-7.21,4.2,3.92
1740.0,-9.414,1.156,-3.309,-9.471,1.213,-2.359,-1.12,3.5,3.99
,-9.387,1.187,-3.013,-9.545,1.311,-2.249,-0.28,3.85,3.92
,-9.44,1.187,-2.888,-9.526,1.45,-2.201,1.75,4.2,3.71
,-9.445,1.223,-2.663,-9.5,1.519,-2.201,5.04,4.83,4.06
1816.0,-9.361,1.34,-2.273,-9.399,1.421,-2.85,15.26,9.66,3.71
,-9.428,0.893,-2.402,-9.481,1.235,-3.082,15.4,10.57,3.78
,-9.387,0.914,-2.481,-9.277,1.165,-3.24,17.01,11.55,4.2
,-9.409,1.242,-2.704,-9.098,0.902,-3.326,17.22,12.04,4.06
1892.0,-9.213,1.0,-3.534,-9.213,1.022,-3.477,13.72,12.95,3.15
,-9.325,1.235,-3.544,-9.103,0.809,-3.446,15.05,12.74,3.29
,-9.225,1.484,-3.573,-9.203,0.998,-3.472,14.98,12.46,3.01
,-9.337,1.328,-3.542,-9.299,0.995,-3.477,13.79,12.32,2.73
1968.0,-9.256,0.84,-3.372,-9.189,0.936,-3.393,14.98,11.83,3.15
,-9.115,0.854,-3.314,-9.359,0.952,-3.345,14.28,11.76,3.36
,-9.191,0.921,-3.439,-9.263,1.077,-3.108,13.93,11.55,3.64
,-9.189,0.967,-3.496,-9.292,1.201,-3.015,12.88,11.27,3.57
2044.0,-9.194,1.173,-2.871,-9.359,1.077,-2.804,10.5,13.65,3.36
,-9.074,0.888,-2.781,-9.356,0.735,-2.888,9.1,14.49,3.29
,-9.213,0.964,-2.692,-9.256,0.768,-2.979,8.82,15.33,3.22
,-9.414,1.156,-2.833,-9.191,0.919,-3.156,7.63,16.38,2.94
2119.0,-9.179,1.247,-3.331,-9.182,1.058,-3.408,13.44,21.56,3.64
,-9.112,1.366,-3.513,-9.201,1.153,-3.551,12.67,22.26,3.5
,-9.136,1.256,-3.501,-9.179,0.974,-3.63,11.97,22.75,2.8
,-9.119,0.986,-3.408,-9.21,0.945,-3.783,12.25,23.31,2.38
2195.0,-9.263,1.108,-3.955,-9.356,0.955,-3.845,14.35,26.25,0.98
,-9.246,1.237,-4.092,-9.213,1.709,-3.79,13.65,26.6,0.21
,-9.198,0.747,-4.022,-9.273,1.467,-3.819,12.04,27.23,-0.42
,-9.191,0.302,-3.953,-9.397,1.005,-3.821,15.12,27.79,-0.35
2270.0,-9.325,1.173,-3.912,-9.344,0.809,-3.869,18.41,30.1,-1.26
,-9.354,1.194,-4.034,-9.474,0.893,-4.771,19.32,30.66,-0.98
,-9.313,0.948,-4.008,-9.536,0.287,-4.645,19.67,31.71,-0.98
,-9.38,0.694,-3.893,-10.153,-0.644,-3.448,20.79,32.48,-1.33
2346.0,-9.313,1.816,-4.068,-9.993,-0.584,-3.865,21.98,38.71,-4.48
,-10.94,2.379,-4.331,-9.84,1.204,-3.984,19.95,39.97,-6.58
,-10.11,2.144,-4.326,-9.596,1.34,-4.101,11.62,41.3,-10.08
,-9.859,-1.318,-4.123,-9.277,0.182,-3.987,7.42,43.61,-10.92
2422.0,-9.191,-0.026,-3.97,-9.009,0.689,-4.413,19.25,50.68,-9.52
,-9.074,0.431,-4.073,-9.028,0.675,-4.348,21.91,52.15,-9.45
,-9.069,0.586,-4.283,-8.887,0.474,-4.305,22.89,53.55,-9.87
,-8.966,0.55,-4.367,-8.851,0.376,-4.233,22.75,54.67,-10.43
2498.0,-8.827,0.467,-4.116,-8.684,0.208,-3.975,26.32,60.48,-9.52
,-8.808,0.562,-4.121,-8.641,-0.129,-3.9,25.83,61.88,-8.96
,-8.796,0.56,-4.006,-8.569,-0.397,-3.867,23.59,63.42,-8.82
,-8.794,0.397,-3.999,-8.514,-0.5,-3.68,20.16,64.89,-9.1
2573.0,-8.495,-0.682,-3.23,-8.949,-0.818,-2.486,17.5,76.3,-4.62
,-8.722,-0.938,-2.804,-9.093,-1.318,-2.649,21.7,79.59,-0.84
,-8.875,-0.897,-2.386,-9.32,-1.704,-3.065,24.92,82.88,3.22
,-8.983,-0.778,-2.362,-9.356,-2.022,-3.238,29.4,86.52,6.44
2649.0,-9.495,-1.823,-3.8,-9.002,1.005,-7.27,45.99,101.01,27.3
,-9.402,-1.228,-4.506,-9.038,1.878,-7.88,53.69,101.64,29.33
,-9.378,-0.735,-5.36,-9.11,1.833,-8.591,59.57,101.57,29.19
,-8.911,0.227,-6.095,-9.148,2.051,-9.093,65.24,101.5,27.23
2725.0,-8.66,1.744,-9.318,-6.619,0.292,-9.215,34.58,99.05,17.78
,-8.217,1.07,-9.15,-6.257,0.036,-9.229,30.31,96.39,18.41
,-7.791,0.747,-9.045,-5.824,-0.156,-9.33,30.66,90.79,18.69
,-7.229,0.651,-9.459,-5.501,-0.503,-9.225,29.19,83.51,17.99
2801.0,-5.327,-0.771,-9.086,-5.583,-0.168,-8.284,22.89,35.0,18.69
,-5.568,-0.871,-8.784,-5.662,0.036,-8.277,27.09,24.29,21.42
,-5.808,-0.668,-8.528,-5.602,-0.055,-8.406,29.54,11.13,22.54
,-5.796,-0.39,-8.469,-5.489,-0.337,-8.301,29.47,-3.08,21.28
2876.0,-5.446,-0.512,-8.351,-5.374,-2.166,-7.753,4.48,-66.43,16.45
,-5.176,-0.639,-8.804,-5.652,-2.06,-7.65,-0.42,-77.77,15.68
,-5.078,-1.098,-8.696,-5.98,-1.632,-7.877,-6.44,-87.01,14.77
,-5.14,-1.62,-8.48,-6.123,-1.175,-8.234,-9.24,-95.41,14.28
2952.0,-5.901,-0.912,-8.521,-6.356,-0.912,-8.37,-19.88,-136.57,15.47
,-5.791,-1.039,-8.528,-6.54,-1.072,-8.107,-25.2,-141.54,16.45
,-5.987,-1.024,-8.346,-6.717,-1.072,-7.865,-26.25,-147.07,16.24
,-6.193,-0.919,-8.339,-6.729,-1.048,-7.696,-25.27,-153.3,15.61
3028.0,-6.717,-1.055,-7.624,-6.636,-0.51,-7.504,-22.75,-179.2,16.31
,-6.746,-0.933,-7.684,-6.865,-0.208,-7.327,-23.24,-183.19,15.19
,-6.758,-0.713,-7.775,-6.856,0.206,-7.418,-24.22,-187.04,13.86
,-6.669,-0.519,-8.035,-6.853,0.412,-7.612,-24.92,-190.89,12.53
3103.0,-6.796,0.412,-7.42,-7.619,-0.282,-5.75,-34.93,-206.64,-0.91
,-7.05,0.306,-7.09,-7.892,-0.208,-5.547,-37.52,-209.16,-4.48
,-7.169,0.168,-6.516,-8.133,-0.191,-5.317,-37.59,-210.07,-8.4
,-7.456,-0.189,-6.09,-8.538,-0.179,-4.838,-38.57,-211.33,-12.53
3179.0,-8.739,-0.33,-4.207,-8.806,-0.459,-0.455,-35.21,-203.07,-17.5
,-8.842,-0.412,-3.704,-9.33,-0.136,-0.483,-35.63,-197.75,-17.22
,-8.859,-0.392,-2.749,-9.136,0.263,-0.156,-35.98,-191.31,-16.87
,-8.703,-0.479,-1.608,-8.672,0.101,0.842,-36.33,-181.86,-16.31
3255.0,-8.452,-0.67,0.988,-7.937,-0.79,2.295,-37.87,-112.28,-19.95
,-7.976,-1.268,0.823,-8.126,-0.041,1.843,-41.79,-93.03,-16.8
,-7.463,-1.57,1.424,-8.021,0.364,1.539,-39.06,-72.59,-11.41
,-7.588,-1.433,1.993,-8.019,0.244,1.216,-30.24,-52.01,-5.53
3331.0,-8.16,0.134,0.579,-10.878,-1.625,-1.907,-33.04,46.48,7.42
,-8.181,-0.029,-0.163,-18.799,-7.471,3.946,-38.5,62.93,9.31
,-8.117,-0.141,-0.742,-20.337,-7.76,4.228,-43.33,77.14,12.04
,-8.567,-0.318,-1.24,-12.491,-1.094,1.263,-46.34,88.34,15.12
3406.0,-8.882,2.589,1.132,-8.588,-1.677,0.086,-15.4,44.24,-8.82
,-9.048,-2.412,0.802,-9.832,-0.457,-3.178,-46.27,58.8,7.07
,-10.955,-6.604,1.685,-9.485,1.24,-4.204,-38.08,76.44,27.79
,-10.189,-5.475,0.735,-8.071,2.668,-3.967,-1.54,96.6,49.07
3482.0,-7.396,3.116,-3.707,-10.151,1.95,-3.589,37.03,81.76,23.31
,-7.715,3.568,-4.432,-10.51,0.715,-3.666,17.43,74.97,19.88
,-7.918,4.685,-5.044,-9.756,0.45,-3.903,3.92,73.57,21.7
,-8.799,4.156,-4.513,-9.014,0.246,-3.434,-7.07,73.36,24.08
3558.0,-9.232,0.39,-3.336,-9.679,2.383,-4.192,3.22,56.56,17.01
,-9.643,0.943,-3.656,-9.088,1.247,-4.372,7.21,54.46,15.12
,-9.897,1.764,-3.735,-9.009,0.163,-4.458,5.32,52.15,12.04
,-9.883,2.702,-3.963,-9.196,-0.117,-4.302,-6.79,49.84,9.45
3634.0,-9.28,0.187,-3.869,-9.557,1.275,-3.101,-29.89,36.96,2.8
,-9.392,0.826,-3.333,-9.471,0.888,-3.216,-22.89,34.65,3.99
,-9.672,1.357,-3.118,-9.464,0.639,-3.441,-19.74,32.55,5.04
,-9.708,1.531,-3.056,-9.387,0.436,-3.561,-20.44,31.08,6.37
3709.0,-9.399,0.395,-3.709,-9.619,1.254,-3.3,-5.81,25.2,12.11
,-9.464,0.447,-3.774,-9.624,1.606,-3.039,0.56,24.29,13.3
,-9.517,0.689,-3.606,-9.696,1.984,-2.848,6.02,23.31,14.21
,-9.572,0.895,-3.539,-9.785,2.024,-2.742,9.24,22.26,14.14
3785.0,-9.701,1.941,-2.91,-9.481,1.804,-3.022,0.84,18.69,8.12
,-9.435,1.632,-3.025,-9.593,1.768,-3.305,1.54,18.06,7.77
,-9.237,1.493,-3.111,-9.239,1.381,-3.264,4.83,17.64,7.77
,-9.261,1.519,-2.994,-9.177,1.079,-3.34,8.19,17.5,7.84
3860.0,-9.404,1.074,-3.498,-9.402,0.538,-3.606,2.45,15.4,4.06
,-9.44,1.031,-3.654,-9.304,1.168,-3.422,1.68,14.56,3.57
,-9.378,0.658,-3.723,-9.256,1.318,-3.147,1.33,14.35,3.99
,-9.385,0.256,-3.597,-9.505,1.168,-2.816,4.55,13.93,5.11
3936.0,-9.517,1.168,-2.431,-9.438,1.175,-2.213,13.23,12.67,5.32
,-9.421,1.383,-2.099,-9.395,0.897,-2.335,12.53,13.37,4.62
,-9.526,1.357,-2.046,-9.392,0.653,-2.534,11.06,14.42,3.99
,-9.586,1.357,-2.079,-9.34,0.529,-2.615,8.82,15.75,3.5
4012.0,-9.232,0.838,-2.685,-9.153,1.237,-3.458,11.62,22.61,4.41
,-9.179,1.067,-2.828,-9.119,1.299,-3.676,12.67,23.66,4.62
,-9.105,1.077,-2.974,-9.167,1.354,-3.853,12.46,24.64,4.97
,-9.234,1.149,-3.171,-9.239,1.218,-3.903,12.46,24.99,5.18
4088.0,-9.258,1.005,-3.869,-8.935,0.95,-3.51,11.2,24.92,4.97
,-9.162,1.007,-3.865,-9.064,0.584,-3.458,12.74,24.85,5.39
,-8.995,1.163,-3.726,-9.287,0.541,-3.25,13.58,24.85,5.95
,-8.976,1.199,-3.676,-9.349,1.098,-3.159,13.16,24.99,5.88
4164.0,-9.215,1.168,-3.099,-9.533,1.39,-2.862,18.97,28.77,6.51
,-9.194,0.627,-2.879,-9.713,1.548,-3.051,16.87,30.59,6.02
,-9.141,0.514,-2.814,-9.576,1.527,-3.233,17.71,32.2,5.81
,-9.335,1.094,-2.828,-9.507,1.216,-3.266,19.53,33.95,5.74
4239.0,-9.562,1.235,-3.513,-9.141,0.297,-4.31,6.44,40.81,2.73
,-9.572,1.149,-3.898,-9.261,0.627,-4.463,6.79,42.28,2.31
,-9.462,1.328,-4.039,-8.99,0.883,-4.393,9.03,43.12,3.29
,-9.648,1.517,-3.975,-9.153,1.177,-4.573,9.8,44.45,2.8
4315.0,-9.225,1.397,-4.939,-9.947,1.929,-4.554,22.96,49.14,-0.56
,-9.447,0.768,-5.068,-10.749,5.741,-4.937,23.17,49.91,-1.75
,-9.567,0.488,-5.035,-10.335,3.312,-4.544,26.25,50.75,-1.75
,-9.569,0.646,-4.798,-8.691,-2.264,-3.558,31.08,51.45,-1.12
4391.0,-9.067,-2.359,-2.761,-9.543,0.761,-2.879,20.09,58.03,-7.91
,-9.543,1.866,-2.881,-9.849,1.201,-3.015,38.36,59.01,-4.62
,-9.627,2.737,-2.67,-9.787,0.452,-2.912,28.84,62.16,-7.35
,-9.308,0.998,-2.69,-9.548,-0.732,-2.663,12.04,66.01,-12.6
4467.0,-9.462,-0.998,-2.601,-9.78,-0.744,-1.783,4.76,83.02,-14.84
,-9.569,-0.471,-2.599,-9.887,-0.888,-1.443,11.76,86.31,-12.46
,-9.72,-0.069,-2.63,-9.974,-1.103,-0.95,15.4,89.74,-10.85
,-9.753,-0.395,-2.343,-10.057,-1.419,-0.778,17.01,93.31,-9.17
4542.0,-10.079,-2.029,-0.474,-9.634,-0.847,-3.747,36.26,114.73,11.27
,-10.292,-1.85,-1.228,-9.11,-0.541,-4.795,46.2,119.07,15.89
,-10.175,-1.57,-1.754,-9.227,0.053,-6.049,55.79,122.78,19.39
,-9.88,-1.383,-2.642,-9.988,1.235,-8.112,62.86,126.7,22.54
4618.0,-10.184,1.254,-8.576,-8.569,1.737,-10.854,69.09,137.34,24.78
,-9.636,1.307,-8.095,-8.325,2.139,-11.496,65.17,135.03,23.31
,-10.077,1.359,-10.658,-5.875,1.814,-11.498,60.27,126.0,21.07
,-9.067,1.653,-11.01,-6.58,0.677,-11.168,55.72,112.98,17.22
4693.0,-5.977,0.553,-12.065,-6.152,0.828,-9.275,26.67,37.03,8.89
,-3.963,0.096,-12.446,-5.776,1.417,-9.246,25.48,26.6,10.57
,-4.434,-0.048,-11.359,-5.48,1.137,-8.703,31.71,19.46,14.07
,-5.229,-0.048,-9.698,-5.245,0.706,-8.538,36.12,7.42,16.66
4769.0,-4.709,0.522,-8.741,-4.506,-1.357,-8.375,-17.22,-92.4,15.4
,-4.676,0.462,-8.624,-4.628,-1.414,-8.191,-25.34,-104.44,16.45
,-4.465,0.151,-8.835,-4.681,-1.199,-8.37,-33.53,-115.29,17.36
,-4.47,-0.663,-8.722,-4.391,-1.01,-8.638,-38.43,-125.02,18.06
4845.0,-4.18,-0.754,-8.696,-5.049,0.227,-8.509,-18.34,-170.66,6.72
,-4.422,-0.376,-8.495,-5.061,-0.223,-8.263,-16.87,-175.7,5.95
,-4.829,0.352,-8.545,-5.083,-0.459,-8.148,-20.37,-182.42,6.09
,-4.848,0.682,-8.756,-5.214,-0.481,-8.15,-28.49,-189.49,8.47
4921.0,-5.434,-0.459,-8.193,-6.193,-0.349,-7.617,-38.5,-212.73,12.04
,-5.686,-0.369,-8.299,-6.468,0.196,-7.435,-36.4,-216.44,11.55
,-5.896,-0.215,-8.818,-6.616,0.653,-7.442,-34.3,-220.71,10.64
,-5.712,-0.206,-8.538,-6.944,0.9,-7.272,-27.93,-222.11,10.08
4996.0,-7.289,1.168,-6.942,-8.861,0.928,-5.401,-20.58,-230.09,1.61
,-7.602,1.254,-6.705,-9.064,0.309,-4.752,-23.8,-229.74,-0.56
,-8.236,1.218,-6.344,-8.823,0.172,-4.118,-28.56,-228.97,-3.57
,-8.547,1.187,-6.018,-8.746,-0.407,-3.128,-35.28,-227.99,-7.28
5072.0,-8.746,-1.089,-1.713,-9.325,0.045,-0.005,-57.33,-199.71,-26.18
,-9.832,-1.388,-1.441,-8.878,-0.5,-0.144,-48.58,-188.3,-27.86
,-9.947,-0.883,-0.653,-7.849,-0.838,1.412,-40.67,-175.98,-28.84
,-9.864,-0.263,-0.215,-7.416,-0.962,2.699,-39.97,-161.98,-28.42
5148.0,-7.301,-1.208,3.345,-7.473,0.407,0.696,-45.64,-49.91,-11.48
,-7.035,-0.878,3.494,-7.533,0.452,-0.189,-44.8,-20.72,-8.33
,-6.904,-0.476,3.13,-7.633,0.313,-1.041,-45.43,9.73,-3.08
,-7.148,-0.002,1.981,-8.234,0.246,-1.816,-47.95,38.85,1.54
5224.0,-11.395,-1.448,-2.69,-7.526,2.931,-0.055,-66.78,121.24,17.71
,-20.948,-9.371,8.744,-9.452,-3.553,1.022,-54.32,83.23,23.8
,-20.117,-7.339,2.467,-11.072,-4.396,0.268,-17.22,50.05,21.84
,-10.919,1.515,0.536,-8.983,-0.584,-0.302,-10.71,49.91,-1.96
5300.0,-8.366,2.623,-1.256,-7.119,2.761,-6.7,-7.42,102.9,40.04
,-9.519,2.359,-3.273,-7.566,3.29,-6.604,0.21,108.29,38.43
,-9.847,1.424,-5.183,-8.964,3.271,-6.339,-6.02,105.07,28.14
,-7.842,1.579,-6.044,-9.72,2.328,-6.162,-5.53,97.3,24.78
5375.0,-10.603,0.964,-5.217,-8.832,0.617,-3.664,-15.05,64.47,10.78
,-10.17,0.01,-4.07,-9.325,0.876,-3.747,-14.98,60.62,14.07
,-9.493,-0.266,-3.783,-9.371,0.766,-3.8,-10.5,57.47,15.82
,-9.203,0.287,-3.685,-9.203,0.357,-3.553,-11.13,54.88,14.14
5451.0,-9.49,-0.318,-3.235,-9.414,2.027,-2.814,-37.24,44.8,7.91
,-9.88,-0.45,-3.008,-9.557,2.316,-2.891,-24.64,42.91,9.66
,-9.806,0.251,-2.958,-9.679,2.663,-3.003,-7.77,41.72,12.18
,-9.497,1.314,-2.888,-9.524,2.711,-3.113,4.27,40.04,13.58
5526.0,-9.524,2.101,-2.922,-9.411,0.132,-3.451,-15.75,30.8,8.47
,-9.497,1.943,-3.123,-9.55,-0.412,-3.616,-18.83,29.26,7.84
,-9.524,1.596,-3.218,-9.615,-0.134,-3.563,-18.34,28.0,7.35
,-9.474,1.079,-3.589,-9.651,0.538,-3.601,-15.75,26.74,7.14
5602.0,-9.34,1.117,-3.575,-9.261,0.074,-3.68,7.0,23.87,5.88
,-9.442,0.859,-3.659,-9.22,0.517,-3.771,3.71,23.17,5.81
,-9.622,0.562,-3.869,-9.148,0.905,-3.467,3.99,22.61,5.95
,-9.416,0.156,-3.884,-9.342,1.333,-3.364,8.54,22.05,6.72
5678.0,-9.356,1.441,-3.209,-9.435,1.33,-2.477,20.79,18.62,7.98
,-9.277,1.385,-3.099,-9.407,1.596,-2.584,15.12,18.41,6.93
,-9.177,1.134,-2.797,-9.471,1.613,-2.68,11.2,18.48,6.65
,-9.282,1.232,-2.618,-9.493,1.362,-2.86,9.52,18.55,6.23
5754.0,-9.548,0.883,-3.096,-9.354,1.385,-3.302,1.54,20.44,5.74
,-9.361,0.625,-3.204,-9.359,1.515,-3.238,3.15,20.93,6.02
,-9.229,0.689,-3.307,-9.239,1.558,-3.137,5.74,21.28,6.44
,-9.28,1.115,-3.369,-9.215,1.491,-3.092,6.44,21.28,6.02
5829.0,-9.249,1.244,-2.934,-9.328,0.574,-2.505,-1.33,22.33,4.13
,-9.318,1.199,-2.824,-9.363,0.715,-2.615,-0.42,23.1,4.13
,-9.328,0.96,-2.613,-9.373,0.617,-2.848,0.56,24.15,3.92
,-9.308,0.605,-2.465,-9.292,0.553,-3.061,2.52,25.83,3.57
5905.0,-9.426,0.672,-3.309,-9.361,0.426,-3.611,8.68,32.62,3.22
,-9.392,0.905,-3.537,-9.505,0.66,-3.57,8.89,33.53,2.94
,-9.289,0.948,-3.687,-9.536,1.122,-3.556,8.33,34.44,2.8
,-9.275,0.699,-3.709,-9.529,1.019,-3.345,8.19,35.28,2.8
5980.0,-9.555,0.627,-3.175,-9.77,1.091,-3.154,16.73,39.97,3.5
,-9.533,0.682,-3.096,-9.902,1.735,-3.369,19.32,41.79,4.13
,-9.639,0.838,-3.037,-9.792,0.957,-3.597,20.86,43.47,4.06
,-9.722,0.818,-3.168,-9.777,0.945,-3.714,20.23,45.57,3.36
6056.0,-9.634,0.744,-3.642,-9.959,1.804,-3.838,15.68,53.9,-0.35
,-9.543,0.771,-3.687,-11.163,5.599,-4.487,19.25,55.93,0.0
,-9.426,1.041,-3.678,-11.0,3.005,-4.379,22.26,57.89,0.14
,-9.533,1.053,-3.786,-9.383,-2.257,-3.69,23.87,59.64,-0.42
6132.0,-9.596,-1.907,-2.869,-9.488,-1.146,-2.637,20.37,69.72,-7.42
,-9.986,1.653,-2.972,-9.581,-0.926,-2.723,35.77,71.19,-4.2
,-10.177,1.96,-2.833,-9.646,-0.421,-2.883,27.93,74.27,-6.58
,-9.61,-0.146,-2.682,-9.876,-0.101,-3.075,14.77,78.26,-10.08
6208.0,-9.852,-0.175,-3.175,-9.931,-1.685,-1.522,14.21,92.75,-5.95
,-9.77,-0.376,-3.027,-9.988,-2.032,-1.314,12.67,95.76,-3.99
,-9.756,-0.543,-2.821,-10.031,-2.101,-1.462,14.07,98.63,-1.26
,-9.785,-0.981,-2.235,-9.842,-2.063,-1.474,18.27,101.57,2.8
6284.0,-9.71,-1.275,-2.462,-8.727,-0.117,-6.722,78.89,116.34,31.43
,-9.483,-0.737,-3.807,-8.966,0.627,-8.059,83.02,116.34,33.67
,-9.215,-0.598,-5.102,-9.206,0.675,-9.244,81.27,115.92,35.21
,-8.909,-0.385,-6.09,-9.043,0.514,-8.792,78.47,116.06,35.98
6359.0,-9.055,1.522,-9.852,-6.578,1.551,-10.098,64.96,105.63,30.03
,-8.107,2.309,-9.753,-5.915,1.163,-10.057,62.51,96.32,28.98
,-7.65,2.01,-9.653,-5.272,1.247,-10.383,56.14,86.8,28.84
,-7.298,1.795,-9.787,-4.487,0.555,-10.541,49.7,74.06,27.79
6435.0,-3.869,-0.096,-10.412,-5.784,-0.239,-8.224,21.21,19.95,22.47
,-4.219,-0.378,-10.002,-5.427,0.412,-7.999,19.18,10.71,22.54
,-4.886,-0.467,-9.095,-5.384,0.313,-7.887,18.9,-0.35,23.66
,-5.441,-0.589,-8.416,-4.941,0.67,-8.394,19.11,-15.19,24.43
6511.0,-4.774,0.567,-8.469,-4.128,-0.4,-8.885,-6.72,-99.47,17.36
,-4.436,0.464,-8.526,-4.322,-0.251,-8.813,-12.53,-110.11,18.48
,-4.015,0.098,-8.839,-4.712,-0.093,-8.631,-18.69,-120.05,19.11
,-3.975,-0.471,-8.679,-5.437,0.029,-8.236,-22.54,-129.64,17.43
6587.0,-6.023,0.309,-8.241,-5.899,-0.785,-8.236,-21.77,-168.14,1.75
,-6.047,0.692,-8.32,-6.528,-1.352,-7.887,-31.78,-176.4,3.64
,-5.882,0.56,-8.246,-6.817,-1.311,-7.839,-44.03,-183.75,5.88
,-5.492,-0.072,-8.32,-6.645,-0.739,-7.944,-50.61,-188.51,8.19
6662.0,-6.389,-0.373,-8.071,-7.239,-0.151,-7.148,-23.24,-211.05,14.0
,-6.372,-0.347,-8.023,-7.437,-0.086,-6.877,-23.17,-213.43,13.86
,-6.54,-0.27,-7.873,-7.715,0.086,-6.542,-20.79,-215.88,13.93
,-6.966,-0.215,-7.452,-7.83,0.244,-6.289,-16.59,-218.61,13.86
6738.0,-8.351,0.232,-5.76,-9.174,-0.361,-2.656,-14.0,-231.7,6.72
,-8.449,0.459,-5.293,-9.775,-0.615,-2.087,-15.82,-232.12,2.8
,-8.672,0.278,-4.578,-10.048,-0.526,-1.424,-19.25,-230.02,-2.1
,-9.021,0.01,-3.491,-9.971,-0.321,-1.536,-21.63,-225.26,-6.79
6813.0,-9.746,-0.586,-1.776,-8.437,-2.29,1.833,-27.58,-180.81,-26.6
,-9.153,-1.062,-1.295,-8.191,-1.536,2.242,-31.78,-167.93,-27.79
,-8.39,-1.814,0.84,-7.48,-0.596,2.96,-26.39,-151.27,-24.99
,-8.6,-2.527,1.163,-7.272,-0.603,3.324,-17.57,-134.33,-22.96
6889.0,-7.734,-1.065,3.075,-8.2,0.287,0.38,-7.42,-27.16,-11.97
,-8.193,-1.027,2.596,-8.334,0.249,-0.251,-9.31,-4.34,-7.28
,-8.241,-0.407,1.888,-8.397,0.378,-0.914,-13.23,16.45,-3.64
,-8.263,0.086,1.153,-8.402,0.876,-1.649,-21.63,35.28,-0.7
6965.0,-8.768,1.469,-2.271,-12.213,1.287,1.438,-58.17,101.5,9.31
,-11.204,0.191,-2.845,-9.153,3.984,1.06,-67.13,101.78,10.08
,-17.691,-5.099,3.092,-8.842,0.536,0.349,-63.7,77.42,16.87
,-18.519,-4.326,3.484,-10.754,-2.86,1.608,-28.98,51.31,24.57
7041.0,-9.66,-3.013,2.123,-9.005,1.249,-4.877,-54.18,84.56,16.66
,-9.351,-2.898,3.065,-6.956,2.79,-5.2,-29.12,99.75,39.76
,-11.352,-1.917,1.275,-5.733,3.013,-4.078,-5.32,112.42,54.81
,-11.4,0.005,-2.115,-7.428,2.936,-5.2,9.73,114.8,42.21
7116.0,-8.78,1.859,-6.071,-9.686,-0.29,-4.721,-28.0,73.71,10.78
,-9.064,0.481,-5.336,-9.529,-0.646,-4.547,-29.19,73.43,16.52
,-9.342,0.055,-5.03,-9.433,-0.565,-4.422,-15.19,72.1,21.7
,-9.629,-0.014,-4.745,-9.505,0.112,-4.147,-4.55,68.67,21.56
7192.0,-9.622,1.539,-3.994,-9.076,2.118,-3.656,-3.71,52.64,8.82
,-9.572,2.828,-3.982,-8.792,0.531,-2.807,-13.93,49.49,5.11
,-9.572,3.534,-4.03,-9.296,-0.256,-2.096,-29.54,46.48,2.17
,-9.433,3.453,-4.18,-10.033,0.462,-1.914,-47.32,43.4,0.98
7268.0,-9.983,1.742,-1.998,-9.6,-0.347,-3.163,-29.75,34.09,2.17
,-9.677,1.957,-2.261,-9.574,0.361,-3.941,-27.51,34.65,5.18
,-9.481,1.182,-2.465,-9.311,1.046,-4.547,-28.21,35.49,7.98
,-9.474,0.048,-2.828,-9.21,1.512,-4.855,-24.78,36.12,9.38
7344.0,-9.227,1.601,-5.037,-9.366,1.304,-4.109,0.98,29.82,8.96
,-9.359,1.441,-5.135,-9.485,1.687,-3.838,1.89,27.37,8.33
,-9.33,1.256,-4.903,-9.584,1.871,-3.939,3.99,24.78,8.33
,-9.318,1.144,-4.42,-9.275,1.601,-3.814,8.19,22.96,8.54
7420.0,-9.332,0.878,-3.496,-9.378,1.204,-3.058,1.89,15.19,3.57
,-9.407,0.924,-3.439,-9.332,1.055,-2.95,1.4,14.0,2.94
,-9.39,1.158,-3.333,-9.38,0.907,-2.84,2.73,13.44,2.87
,-9.483,1.45,-3.171,-9.404,1.015,-2.898,2.38,13.09,2.66
7495.0,-9.435,1.295,-2.931,-9.316,1.036,-2.958,8.61,14.28,1.54
,-9.328,1.541,-2.91,-9.39,0.938,-3.142,7.28,14.56,1.54
,-9.203,1.354,-2.965,-9.387,0.979,-3.211,4.55,15.19,1.82
,-9.246,1.211,-2.953,-9.153,1.153,-3.35,2.52,15.47,1.82
7571.0,-9.203,1.213,-3.384,-9.378,0.95,-2.979,-2.73,15.68,0.49
,-9.265,0.94,-3.369,-9.191,1.462,-3.175,-4.69,15.75,0.42
,-9.275,0.522,-3.056,-9.232,1.251,-3.082,-4.06,16.66,0.91
,-9.387,0.567,-3.041,-9.009,1.012,-3.178,-0.7,17.22,1.54
7646.0,-9.083,0.66,-3.128,-9.064,0.038,-3.278,-2.24,20.23,1.05
,-9.127,0.797,-3.218,-9.203,0.424,-3.187,-0.91,20.51,1.33
,-9.179,0.809,-3.338,-9.28,0.785,-2.934,-0.14,20.93,1.26
,-9.043,0.373,-3.352,-9.227,1.22,-2.809,-0.49,21.84,1.54
7722.0,-9.287,1.18,-2.814,-9.079,0.948,-2.967,3.99,26.39,3.29
,-9.134,0.905,-2.864,-9.361,1.376,-2.721,2.1,27.93,3.29
,-9.057,0.766,-3.001,-9.284,1.799,-2.68,2.52,29.33,3.43
,-8.978,0.876,-3.08,-9.203,1.601,-2.814,4.2,30.73,3.36
7798.0,-9.0,1.285,-3.005,-9.5,0.818,-4.073,1.33,38.01,-1.47
,-9.174,1.254,-3.355,-9.552,1.019,-4.35,3.29,39.27,-1.19
,-9.273,1.359,-3.685,-9.801,1.161,-4.654,5.32,40.25,-0.7
,-9.378,1.228,-3.915,-9.94,0.972,-4.893,6.02,41.51,-0.7
7874.0,-9.923,0.646,-4.987,-10.823,2.213,-4.614,16.45,45.5,0.7
,-10.033,0.67,-5.099,-10.414,-2.003,-3.697,19.95,46.55,0.21
,-10.514,1.907,-4.855,-9.871,-0.57,-2.919,23.52,47.32,-0.14
,-11.79,4.609,-4.357,-10.505,1.314,-2.728,24.57,46.48,-2.38
7949.0,-10.053,0.761,-2.63,-9.694,-0.196,-2.802,20.86,59.15,-7.0
,-9.895,-0.57,-2.335,-9.392,-0.938,-3.094,17.43,62.86,-9.17
,-9.847,0.385,-2.429,-9.313,-0.421,-3.264,16.73,65.73,-9.45
,-9.801,0.933,-2.637,-9.318,0.438,-3.405,10.71,68.95,-9.73
8025.0,-9.313,0.57,-3.405,-9.174,-0.517,-3.147,10.29,84.21,-3.99
,-9.304,0.179,-3.709,-9.244,-0.986,-3.001,8.12,87.08,-2.73
,-9.368,0.299,-3.544,-9.378,-1.455,-2.584,8.4,89.18,-0.21
,-9.56,-0.012,-3.23,-9.347,-2.096,-2.065,9.8,91.07,1.47
8101.0,-9.459,-2.182,-1.876,-9.131,-0.503,-3.441,53.55,105.91,24.5
,-9.478,-1.924,-1.342,-8.969,-0.266,-4.518,66.57,109.06,30.87
,-9.392,-1.115,-2.0,-8.614,0.302,-5.633,78.33,111.37,36.68
,-9.342,-0.689,-2.73,-8.495,0.972,-6.741,84.77,112.98,41.79
8177.0,-8.641,1.417,-8.179,-8.863,2.084,-9.983,77.42,102.48,38.92
,-8.72,1.613,-8.725,-7.875,1.811,-10.419,65.24,97.93,35.49
,-8.882,1.831,-9.359,-7.066,0.847,-10.357,58.03,94.64,33.18
,-8.933,1.91,-9.933,-6.31,-0.089,-10.342,56.98,93.31,32.76
8252.0,-5.891,-0.404,-10.392,-4.87,-0.292,-9.507,43.4,64.47,32.83
,-5.446,-0.268,-10.747,-4.965,-0.354,-8.868,39.06,50.82,30.94
,-4.704,0.074,-10.38,-5.408,-0.407,-8.674,39.41,41.02,32.62
,-4.769,0.005,-10.141,-5.334,0.038,-8.366,38.01,33.04,34.79
8328.0,-5.422,0.459,-8.184,-4.377,-0.304,-8.796,21.91,-33.04,25.34
,-5.152,0.928,-8.643,-4.137,-0.948,-8.65,13.58,-46.48,21.77
,-4.676,0.833,-8.775,-4.214,-1.385,-8.538,3.01,-57.54,20.86
,-4.592,0.349,-8.921,-4.491,-1.57,-8.244,-6.02,-67.69,20.58
8404.0,-4.47,-1.228,-8.373,-5.341,-1.436,-8.167,-19.11,-120.05,11.41
,-4.501,-0.964,-8.595,-5.449,-1.553,-7.995,-21.63,-129.64,10.36
,-4.728,-1.067,-8.536,-5.619,-1.486,-7.854,-23.94,-137.2,10.64
,-5.104,-1.266,-8.332,-5.719,-1.452,-7.87,-24.85,-145.04,10.78
8479.0,-5.628,-1.326,-7.942,-6.083,-0.821,-7.971,-26.6,-183.82,9.31
,-5.501,-1.208,-8.265,-6.456,-0.577,-7.681,-25.48,-190.96,9.45
,-5.489,-1.139,-8.229,-6.731,-0.282,-7.511,-22.19,-196.49,9.31
,-5.812,-1.201,-7.961,-6.75,-0.012,-7.485,-19.11,-201.67,8.68
8555.0,-6.949,-0.007,-7.282,-8.059,-0.414,-5.867,-16.73,-222.81,0.84
,-7.186,0.031,-7.009,-8.39,-0.27,-5.53,-19.53,-225.82,-0.7
,-7.411,-0.06,-6.746,-8.636,-0.112,-5.286,-20.51,-227.99,-2.45
,-7.858,-0.304,-6.226,-8.99,-0.069,-4.755,-20.65,-229.74,-4.62
8631.0,-9.296,-0.084,-4.068,-9.945,-0.524,-1.321,-20.51,-223.51,-18.2
,-9.306,-0.122,-3.403,-9.966,-0.546,-1.338,-20.93,-217.7,-20.37
,-9.485,-0.27,-2.589,-9.641,-0.651,-1.46,-20.65,-210.21,-22.96
,-9.713,-0.483,-1.756,-9.055,-1.065,-1.462,-19.39,-201.74,-25.97
8707.0,-8.332,-1.713,1.156,-7.83,-0.38,2.201,3.36,-138.53,-24.78
,-8.88,-2.417,1.12,-7.633,-0.045,2.431,20.44,-121.8,-21.91
,-8.478,-1.85,1.809,-7.748,0.165,2.343,38.29,-104.09,-19.53
,-8.038,-1.048,2.082,-7.791,0.285,2.07,51.59,-85.33,-14.42
8782.0,-7.911,0.144,1.699,-8.375,0.486,-0.584,42.21,12.39,6.51
,-7.944,0.017,1.196,-8.454,0.893,-1.11,38.43,29.4,8.75
,-8.004,0.038,0.699,-8.39,1.271,-1.603,35.56,44.52,10.99
,-8.208,0.199,-0.043,-8.617,1.443,-2.113,32.76,57.68,12.67
8858.0,-10.373,0.682,-3.336,-10.067,4.987,0.897,-13.3,94.43,13.23
,-17.53,-4.736,-1.321,-8.074,4.542,1.598,-26.46,67.69,14.42
,-18.947,-3.573,8.435,-9.629,-0.804,1.242,31.5,33.95,33.32
,-15.657,-1.106,0.273,-9.916,-2.603,2.115,53.76,14.42,15.26
8934.0,-8.545,-3.587,1.515,-9.806,2.927,-3.575,-40.67,69.79,21.91
,-9.969,-4.35,2.699,-7.743,2.18,-3.575,-2.45,84.0,41.16
,-12.62,-0.775,0.644,-7.851,1.78,-3.458,29.05,89.95,41.23
,-12.079,2.228,-1.34,-8.78,1.328,-3.652,35.35,88.62,25.97
9010.0,-9.49,-0.136,-3.34,-8.787,-0.498,-3.68,-19.88,69.16,10.99
,-9.938,-1.519,-3.175,-8.806,-0.634,-3.671,-13.79,67.41,13.02
,-9.916,-1.455,-3.857,-9.153,0.084,-3.601,-2.94,64.82,14.84
,-9.313,-0.593,-3.963,-9.203,1.024,-3.604,10.99,61.88,17.01
9085.0,-9.627,2.453,-3.551,-9.474,0.802,-2.479,29.75,46.69,11.41
,-9.921,3.424,-3.113,-9.818,0.05,-2.864,16.87,44.45,9.73
,-9.89,3.307,-2.917,-9.622,0.395,-2.924,-1.61,42.49,8.68
,-9.407,2.23,-2.68,-9.512,0.948,-3.104,-17.85,40.32,7.28
9161.0,-9.495,1.811,-2.991,-9.552,1.713,-2.833,3.99,29.82,7.35
,-9.579,2.441,-2.991,-9.631,0.579,-2.833,0.14,27.3,5.46
,-9.675,2.714,-2.979,-9.562,-0.254,-2.694,-8.96,25.2,3.85
,-9.584,2.594,-2.917,-9.708,-0.165,-2.525,-20.02,23.59,3.22
9236.0,-9.72,0.907,-2.438,-9.502,1.266,-2.058,-2.66,18.13,5.46
,-9.612,1.799,-2.398,-9.591,0.933,-2.156,2.8,17.43,6.65
,-9.569,2.273,-2.302,-9.653,0.663,-2.395,1.47,16.73,6.51
,-9.445,2.082,-2.201,-9.648,0.407,-2.582,-3.78,16.66,5.81
9312.0,-9.643,0.378,-2.962,-9.198,1.144,-3.771,7.98,16.59,6.3
,-9.691,0.826,-3.254,-9.282,0.313,-3.455,11.97,15.68,5.81
,-9.524,1.374,-3.463,-9.509,0.196,-3.302,12.11,14.21,5.11
,-9.414,1.457,-3.668,-9.538,0.304,-2.974,8.12,12.32,4.2
9388.0,-9.567,0.873,-2.706,-9.459,1.436,-2.063,18.2,7.56,5.81
,-9.591,1.347,-2.412,-9.507,1.208,-1.998,19.32,7.07,5.25
,-9.856,1.591,-2.369,-9.478,0.938,-1.895,16.31,6.51,3.64
,-9.636,1.725,-2.321,-9.538,0.924,-2.182,12.39,6.37,3.08
9464.0,-9.464,1.074,-2.304,-9.404,0.51,-2.414,19.88,9.52,3.5
,-9.495,1.165,-2.395,-9.402,0.424,-2.338,19.74,9.8,3.22
,-9.404,1.199,-2.541,-9.49,0.806,-2.257,17.57,9.73,2.66
,-9.397,0.725,-2.503,-9.512,1.189,-2.453,14.77,10.01,2.59
9540.0,-9.493,1.297,-2.568,-9.514,1.053,-2.771,18.34,12.88,3.5
,-9.557,1.199,-2.728,-9.622,1.089,-2.888,18.69,13.58,3.78
,-9.605,0.979,-2.73,-9.56,1.151,-3.111,19.46,13.79,3.57
,-9.375,1.0,-2.754,-9.55,1.232,-3.348,21.63,13.86,3.78
9615.0,-9.256,1.287,-3.379,-9.447,0.227,-3.12,31.78,13.02,3.71
,-9.194,0.727,-3.424,-9.409,0.412,-3.132,32.34,13.09,3.78
,-9.165,-0.017,-3.223,-9.351,0.268,-3.206,34.51,13.3,4.69
,-9.284,-0.182,-3.101,-9.368,-0.048,-3.374,41.51,13.93,6.16
9691.0,-9.206,0.325,-3.436,-9.04,1.709,-3.53,68.32,18.27,11.55
,-9.213,0.641,-3.443,-9.052,1.448,-3.463,71.96,18.34,11.97
,-9.792,0.83,-3.374,-9.239,1.024,-3.496,72.45,17.29,10.64
,-9.474,1.876,-3.599,-9.141,0.541,-3.477,69.51,15.26,9.03
9767.0,-9.206,0.462,-3.266,-9.43,1.072,-3.087,68.67,15.19,9.59
,-9.323,0.66,-3.142,-9.32,1.015,-3.041,72.38,15.89,9.52
,-9.581,1.034,-3.168,-9.672,0.962,-2.943,74.27,16.52,8.61
,-9.464,1.18,-3.08,-9.421,1.852,-2.948,74.34,17.85,8.33
9843.0,-9.306,1.735,-2.685,-9.375,1.407,-2.931,68.88,20.72,4.41
,-9.428,1.558,-2.343,-9.284,1.249,-3.108,65.87,21.84,3.57
,-9.39,1.582,-2.369,-9.428,1.192,-3.242,65.38,22.82,2.73
,-9.457,1.436,-2.632,-9.576,1.036,-3.384,65.73,23.73,1.96
9918.0,-9.694,0.687,-3.927,-8.21,-2.046,-3.551,60.13,25.55,0.49
,-9.744,0.416,-4.293,-9.036,0.318,-4.212,60.27,24.71,0.28
,-9.564,0.249,-4.625,-9.552,3.178,-4.779,60.34,23.59,0.21
,-9.387,-0.464,-4.898,-7.971,0.436,-5.846,60.69,22.96,1.05
9994.0,-8.995,-0.467,-5.698,-8.44,-0.112,-6.155,116.76,16.59,32.34
,-8.478,1.036,-6.033,-8.411,-0.912,-6.013,126.28,13.72,34.3
,-8.155,0.658,-6.066,-8.533,-1.321,-5.843,127.26,11.9,39.55
,-8.466,0.464,-6.102,-8.509,-0.986,-5.741,122.08,9.38,41.72
10069.0,-8.466,-0.622,-5.501,-9.241,0.12,-4.614,133.84,-2.52,45.08
,-8.607,-0.34,-5.102,-9.34,0.244,-4.468,136.08,-3.36,47.46
,-8.959,0.069,-5.018,-9.28,0.294,-4.405,136.08,-4.76,49.35
,-9.105,0.168,-4.846,-9.21,0.412,-4.424,133.98,-6.09,50.68
10145.0,-9.407,0.402,-4.57,-8.124,-0.814,-4.264,133.28,-13.79,58.66
,-9.136,0.402,-4.759,-8.301,-1.127,-4.357,134.75,-15.68,59.92
,-8.995,0.124,-4.616,-8.452,-1.082,-3.845,137.27,-17.01,63.07
,-8.559,-0.23,-4.499,-8.99,-0.672,-3.881,141.4,-18.34,66.29
10221.0,-9.069,0.11,-3.972,-8.701,0.34,-3.857,182.84,-19.67,78.26
,-8.918,0.605,-4.022,-8.904,-0.069,-3.972,180.18,-19.81,77.56
,-8.801,0.732,-3.872,-9.064,-0.306,-3.604,174.09,-19.88,76.65
,-8.804,0.66,-3.877,-9.32,-0.251,-3.731,166.81,-20.3,75.11
10297.0,-9.325,-0.309,-3.62,-9.296,-0.823,-2.989,154.98,-26.04,68.04
,-9.244,-0.534,-3.352,-9.273,-0.936,-3.056,154.07,-26.53,66.5
,-9.088,-0.704,-2.948,-9.112,-1.015,-3.07,154.91,-25.83,65.8
,-9.201,-0.871,-2.891,-9.038,-0.945,-3.211,157.15,-24.71,65.73
10372.0,-9.256,-0.773,-3.513,-9.213,-0.354,-3.202,174.23,-18.62,67.48
,-9.359,-0.648,-3.453,-9.186,-0.235,-3.197,177.73,-18.06,66.99
,-9.318,-0.512,-3.369,-9.16,-0.148,-3.163,181.09,-16.8,66.99
,-9.186,-0.395,-3.266,-9.043,-0.158,-3.051,185.36,-15.33,67.2
10448.0,-9.055,-0.208,-2.96,-9.256,0.457,-3.199,190.33,-12.11,64.96
,-8.933,-0.091,-2.955,-9.363,0.665,-3.36,188.23,-11.9,64.61
,-8.835,0.081,-2.903,-9.27,0.845,-3.398,186.48,-11.41,64.54
,-9.095,0.273,-3.072,-9.115,0.785,-3.348,184.94,-11.27,64.26
10524.0,-9.103,0.861,-3.29,-9.251,2.431,-3.037,174.65,-9.38,62.51
,-9.0,1.144,-3.218,-9.325,2.848,-2.927,173.6,-9.03,61.95
,-9.031,1.598,-3.223,-9.359,3.195,-2.754,171.01,-9.24,60.69
,-9.1,1.965,-3.156,-9.418,3.494,-2.68,166.25,-9.1,58.73
10600.0,-9.359,3.618,-2.532,-9.43,2.682,-1.984,108.08,-6.86,41.09
,-9.462,3.798,-2.398,-9.548,1.9,-2.438,90.44,-6.09,35.84
,-9.44,3.85,-2.343,-9.617,1.464,-2.402,69.65,-5.11,29.68
,-9.371,3.506,-2.13,-9.574,1.524,-2.309,47.53,-3.22,23.45
10676.0,-9.617,1.89,-2.166,-9.99,0.995,-2.139,-14.14,0.91,-3.57
,-9.643,2.259,-2.242,-9.89,0.464,-2.187,-23.52,1.89,-6.02
,-9.73,2.003,-2.139,-9.78,0.081,-2.041,-34.37,3.15,-7.21
,-9.911,1.488,-2.089,-9.643,-0.062,-1.823,-42.91,4.62,-7.42
10751.0,-9.507,-0.048,-1.984,-9.296,-0.029,-2.446,-21.0,8.19,2.17
,-9.342,0.019,-1.981,-9.354,-0.213,-2.637,-12.95,9.66,4.27
,-9.225,0.165,-2.24,-9.43,-0.316,-2.742,-7.77,10.57,5.74
,-9.282,0.096,-2.414,-9.414,-0.203,-2.864,-5.25,11.97,6.93
10827.0,-9.342,-0.048,-3.092,-9.342,1.955,-3.171,-2.17,15.89,6.65
,-9.304,0.261,-3.077,-9.275,2.027,-3.386,-1.89,16.45,6.44
,-9.351,0.622,-2.984,-9.241,1.639,-3.343,-3.15,16.38,6.09
,-9.39,1.196,-3.068,-9.263,1.23,-3.326,-4.9,15.82,5.39
10902.0,-9.414,0.916,-3.357,-9.194,0.136,-3.874,-17.29,14.42,6.65
,-9.411,0.995,-3.403,-9.301,-0.031,-4.14,-13.3,13.65,7.07
,-9.335,0.861,-3.661,-9.265,0.024,-4.262,-12.25,12.88,7.49
,-9.201,0.459,-3.857,-9.014,-0.007,-4.302,-12.95,12.32,8.26
10978.0,-9.177,0.17,-4.405,-9.107,2.048,-4.908,3.08,10.64,13.58
,-9.375,0.474,-4.535,-8.906,1.926,-4.7,9.38,9.52,14.21
,-9.385,1.048,-4.611,-8.837,1.74,-4.444,15.4,8.19,14.42
,-9.304,1.756,-4.848,-9.086,1.462,-4.178,18.13,6.51,14.21
11054.0,-9.215,1.35,-3.757,-9.421,2.283,-2.907,8.47,-0.56,10.36
,-9.244,1.374,-3.472,-9.349,2.515,-2.891,9.73,-0.56,10.71
,-9.141,1.498,-3.132,-9.208,2.309,-2.864,11.76,-0.21,11.13
,-9.27,1.866,-2.927,-9.194,2.012,-2.814,14.49,0.28,11.41
11130.0,-9.198,2.065,-2.678,-9.172,1.73,-2.958,11.62,3.5,9.31
,-9.234,2.268,-2.69,-9.165,1.311,-3.001,12.32,4.27,8.61
,-9.354,2.465,-2.781,-9.261,1.28,-3.171,11.06,4.97,7.91
,-9.287,2.297,-2.919,-9.308,1.67,-3.422,8.47,5.74,7.49
11205.0,-9.206,1.713,-3.707,-9.158,1.263,-3.664,13.72,7.21,6.37
,-8.997,1.28,-3.814,-9.117,1.551,-3.513,10.99,7.0,5.95
,-8.988,0.94,-3.771,-9.002,1.606,-3.46,11.34,7.07,6.37
,-9.083,0.955,-3.747,-9.155,1.67,-3.475,14.35,6.93,6.86
11281.0,-9.119,1.517,-3.556,-9.131,1.094,-3.508,10.5,6.86,6.86
,-9.06,1.031,-3.546,-9.294,1.637,-3.52,9.8,7.07,7.07
,-9.093,0.711,-3.63,-9.241,2.034,-3.637,11.9,7.63,7.91
,-9.098,0.586,-3.632,-9.115,1.881,-3.733,15.75,8.19,8.68
11356.0,-9.009,1.474,-3.716,-9.105,1.534,-3.235,14.63,9.31,8.33
,-8.997,1.201,-3.632,-9.048,1.56,-3.209,16.94,9.73,8.54
,-8.99,1.297,-3.458,-9.055,1.433,-3.125,20.16,10.01,8.89
,-9.06,1.405,-3.283,-9.16,1.472,-3.204,21.84,10.15,8.96
11432.0,-9.091,1.362,-3.206,-8.854,1.732,-3.001,18.83,14.14,9.38
,-9.316,1.328,-3.099,-8.954,1.857,-2.936,17.92,14.56,8.75
,-9.057,1.809,-3.049,-9.05,2.283,-3.063,16.1,14.42,8.4
,-8.811,1.711,-3.077,-8.973,2.41,-3.34,14.42,15.4,9.03
11508.0,-8.88,1.845,-3.632,-9.105,0.266,-4.329,-0.49,19.32,8.4
,-8.866,1.455,-3.987,-9.081,0.416,-4.302,-1.4,19.6,8.19
,-8.938,0.964,-4.171,-9.115,0.852,-4.324,1.05,20.3,8.61
,-9.055,0.505,-4.305,-8.964,1.156,-4.477,5.32,21.21,9.17
11584.0,-9.0,0.854,-4.279,-9.165,1.907,-3.967,15.68,24.01,11.41
,-9.167,0.816,-4.008,-9.079,1.747,-4.164,18.2,24.92,12.11
,-9.275,0.811,-3.831,-9.062,1.295,-4.257,23.1,26.11,13.37
,-9.294,1.409,-3.783,-8.806,0.962,-4.616,27.37,27.16,14.49
11660.0,-8.947,2.68,-4.439,-9.253,1.646,-4.908,35.84,31.5,21.91
,-9.765,2.285,-4.408,-9.337,1.041,-4.898,40.32,31.43,21.7
,-8.725,0.115,-4.432,-9.378,1.163,-4.968,45.78,34.16,19.81
,-9.179,1.625,-4.85,-9.555,2.402,-4.752,48.44,34.51,20.58
11735.0,-10.237,4.539,-4.575,-8.966,0.799,-4.125,48.23,35.7,16.94
,-10.285,3.659,-4.558,-9.158,1.972,-4.463,33.46,36.4,12.6
,-9.196,0.481,-4.389,-9.086,1.589,-4.561,21.42,38.57,11.2
,-8.842,-0.584,-4.113,-9.062,0.83,-4.489,27.09,40.11,13.3
11811.0,-9.148,0.897,-4.415,-8.866,0.991,-3.853,28.77,47.11,8.61
,-9.201,1.108,-4.386,-8.794,0.833,-3.711,31.64,48.65,8.75
,-9.031,1.247,-4.197,-8.813,0.651,-3.575,33.39,50.4,9.1
,-8.923,1.173,-4.089,-8.904,0.378,-3.398,34.51,52.5,10.15
11887.0,-9.026,0.17,-3.266,-9.495,-1.692,-2.52,46.2,65.17,17.43
,-9.105,-0.177,-3.068,-9.55,-1.965,-2.391,47.88,68.39,19.53
,-9.201,-0.627,-2.828,-9.708,-2.233,-2.194,50.19,72.17,22.54
,-9.342,-1.194,-2.721,-9.914,-2.106,-2.257,54.04,76.3,26.32
11963.0,-10.103,-1.852,-2.529,-9.548,-1.043,-5.518,96.81,98.07,51.24
,-10.136,-1.45,-3.084,-9.397,-0.436,-6.521,103.67,101.36,55.58
,-9.981,-1.228,-3.702,-9.127,0.857,-7.44,107.45,104.02,59.22
,-9.773,-1.204,-4.377,-8.842,1.852,-8.911,111.3,105.7,62.02
12038.0,-8.777,2.491,-9.316,-7.236,1.838,-9.986,110.25,103.39,59.85
,-8.715,2.201,-8.672,-6.602,1.307,-10.242,98.42,105.63,57.96
,-8.985,2.192,-9.576,-6.341,0.256,-10.526,85.33,103.32,54.46
,-7.999,1.977,-9.899,-5.86,-1.098,-10.11,71.89,96.95,49.7
12114.0,-5.956,-1.744,-9.734,-5.671,-0.136,-8.485,35.0,43.96,45.85
,-5.303,-1.723,-9.55,-5.528,0.227,-8.179,42.42,30.03,48.58
,-5.327,-1.335,-9.509,-5.406,0.546,-8.086,49.91,17.22,51.38
,-5.269,-0.826,-9.076,-5.181,0.644,-8.394,53.62,5.04,52.36
12189.0,-5.236,0.514,-8.495,-4.57,-1.718,-8.332,16.31,-68.6,42.91
,-5.054,0.144,-8.425,-5.037,-2.175,-7.911,7.21,-81.9,44.73
,-4.456,-0.258,-8.71,-5.327,-1.948,-8.007,1.68,-92.75,46.62
,-4.226,-1.0,-8.569,-5.408,-1.697,-7.863,0.84,-101.43,46.34
12265.0,-5.561,-1.168,-8.086,-6.131,-0.794,-7.645,25.97,-151.2,41.44
,-5.382,-0.816,-8.406,-6.595,-0.591,-7.547,26.46,-159.04,41.16
,-5.403,-0.756,-8.308,-6.475,-0.385,-7.667,26.18,-164.43,40.39
,-5.705,-0.794,-8.052,-6.595,-0.261,-7.504,26.39,-169.61,39.83
12341.0,-6.502,-0.141,-7.562,-6.77,0.67,-7.401,15.12,-201.53,33.04
,-6.368,0.019,-7.614,-6.887,0.945,-7.44,9.66,-205.66,28.84
,-6.47,0.151,-7.559,-7.131,1.027,-7.332,4.97,-209.51,23.66
,-6.616,0.337,-7.504,-7.057,0.988,-7.174,0.14,-213.57,18.13
12417.0,-7.423,0.577,-6.356,-8.727,-0.342,-4.025,-16.31,-229.81,-8.19
,-7.696,0.079,-5.7,-9.007,-0.235,-3.644,-15.68,-230.44,-13.79
,-7.877,-0.124,-5.281,-9.225,0.05,-3.065,-13.44,-230.65,-18.13
,-8.289,-0.428,-4.755,-9.38,0.002,-2.501,-10.78,-229.53,-20.93
12492.0,-9.77,0.124,-1.9,-9.239,-0.433,0.512,-2.17,-200.97,-27.65
,-9.77,0.12,-1.065,-9.165,-0.589,0.208,-4.2,-191.1,-27.37
,-9.596,0.069,-0.438,-8.83,-0.445,0.67,-6.86,-179.34,-26.6
,-9.564,-0.175,-0.175,-8.516,-0.601,1.541,-10.15,-166.18,-25.55
12568.0,-8.459,-0.558,2.027,-8.05,0.189,2.462,-3.92,-85.54,-13.23
,-8.275,-0.337,2.393,-8.019,0.416,1.933,-2.94,-66.29,-10.01
,-8.078,-0.151,2.654,-8.136,0.61,1.431,-4.2,-46.48,-6.09
,-8.021,0.077,2.625,-8.33,0.517,0.802,-7.0,-26.46,-2.24
12644.0,-8.306,0.373,0.069,-8.368,0.536,-1.953,-48.3,60.48,12.46
,-8.244,0.244,-0.438,-10.732,-0.859,-2.015,-53.69,72.8,14.07
,-8.021,0.416,-1.022,-17.873,-6.612,5.626,-57.89,83.44,15.47
,-7.956,0.694,-1.539,-19.447,-6.415,3.632,-62.16,92.61,16.66
12720.0,-12.685,-1.015,0.134,-9.88,-4.415,1.036,-7.77,36.61,5.32
,-8.789,2.321,0.213,-10.639,-2.761,0.421,-30.52,40.88,-12.74
,-7.669,-0.565,-0.239,-11.426,-0.424,-2.374,-64.61,49.77,-1.82
,-10.529,-5.106,0.268,-10.493,2.395,-3.594,-71.96,63.49,17.01
12796.0,-7.837,4.798,-4.094,-9.112,1.476,-4.865,31.64,96.95,31.15
,-6.652,5.176,-4.336,-9.088,1.692,-4.621,7.28,91.14,23.45
,-7.145,3.597,-4.499,-9.696,1.357,-4.288,-17.5,84.56,18.13
,-8.66,1.874,-4.965,-10.122,-0.12,-3.987,-31.01,77.77,14.91
12871.0,-9.978,-1.326,-3.628,-9.505,2.01,-4.137,-11.34,56.28,22.26
,-9.842,-1.792,-3.599,-9.651,3.257,-4.176,0.84,55.44,24.15
,-9.34,-1.29,-3.786,-9.399,3.51,-4.034,15.54,54.11,23.45
,-9.311,0.354,-4.006,-9.342,2.206,-3.75,27.16,51.45,20.37
12947.0,-9.335,0.349,-3.419,-9.775,0.622,-2.309,-40.11,37.8,6.51
,-9.215,-0.665,-3.017,-9.799,1.596,-2.197,-36.96,36.19,7.07
,-9.404,-1.039,-2.699,-9.73,2.367,-2.245,-24.22,34.93,9.1
,-9.785,-0.436,-2.436,-9.493,2.627,-2.541,-8.75,32.76,10.78
13022.0,-9.284,1.996,-2.848,-9.684,1.283,-3.778,-6.09,30.8,12.6
,-9.366,1.05,-3.099,-9.61,1.96,-3.917,-5.6,30.73,13.02
,-9.423,0.414,-3.379,-9.189,2.448,-4.106,1.33,30.24,13.58
,-9.5,0.567,-3.486,-9.182,2.326,-3.711,12.46,28.98,14.56
13098.0,-9.411,2.046,-3.836,-9.407,1.067,-2.946,13.93,21.35,9.59
,-9.426,1.711,-3.611,-9.631,1.247,-2.864,9.45,20.23,8.19
,-9.533,1.424,-3.415,-9.541,1.491,-2.895,6.93,19.25,7.42
,-9.308,1.345,-3.204,-9.378,1.278,-3.015,7.0,18.83,7.21
13174.0,-9.328,1.003,-2.998,-9.306,0.804,-3.384,5.95,17.43,5.46
,-9.351,1.0,-3.18,-9.229,1.213,-3.405,7.42,17.22,5.81
,-9.215,0.804,-3.259,-9.296,1.189,-3.302,8.33,16.87,6.09
,-9.196,0.62,-3.317,-9.371,1.0,-3.439,10.43,16.94,6.58
13250.0,-9.22,0.869,-3.381,-9.347,1.694,-3.278,9.73,15.89,5.46
,-9.191,1.089,-3.333,-9.323,1.709,-3.331,11.13,15.75,5.6
,-9.234,1.292,-3.285,-9.239,1.479,-3.393,11.76,16.1,5.6
,-9.332,1.508,-3.223,-9.213,1.472,-3.494,11.2,16.1,5.32
13325.0,-9.225,1.51,-3.51,-9.33,1.424,-3.345,7.35,15.68,4.06
,-9.11,1.536,-3.475,-9.366,1.058,-3.259,6.79,15.96,3.92
,-9.191,1.596,-3.424,-9.423,0.799,-3.08,5.95,16.1,3.64
,-9.189,1.596,-3.417,-9.299,0.897,-2.986,4.97,16.1,3.36
13401.0,-9.342,1.228,-2.852,-9.189,1.079,-2.434,9.31,17.78,4.27
,-9.347,1.553,-2.761,-9.117,1.268,-2.304,7.0,18.41,3.92
,-9.229,1.46,-2.63,-9.115,1.206,-2.383,2.17,19.46,3.36
,-9.22,1.096,-2.563,-9.186,0.481,-2.314,-1.4,20.72,3.22
13477.0,-9.359,-0.254,-2.405,-9.373,0.979,-3.173,-1.89,29.61,3.22
,-9.493,-0.278,-2.589,-9.304,0.644,-3.367,7.21,31.78,4.41
,-9.481,0.651,-2.804,-9.328,0.632,-3.508,13.65,33.6,5.32
,-9.426,1.077,-2.938,-9.38,1.079,-3.664,13.37,35.49,5.25
13553.0,-9.481,1.45,-3.838,-9.277,1.589,-3.932,10.15,41.16,4.69
,-9.423,1.388,-3.987,-9.282,1.316,-3.903,8.05,41.72,3.78
,-9.426,1.299,-4.027,-9.194,0.778,-4.099,7.63,42.35,3.57
,-9.418,1.354,-4.051,-9.239,1.381,-4.257,7.14,43.19,3.71
13629.0,-9.44,1.086,-4.192,-10.074,2.201,-4.355,20.37,49.21,3.01
,-9.639,0.902,-4.276,-11.053,5.65,-4.592,24.43,50.89,3.08
,-9.478,1.022,-4.365,-11.323,3.515,-4.398,29.68,52.57,3.29
,-9.572,1.417,-4.381,-9.524,-1.586,-3.549,34.09,53.9,3.22
13704.0,-9.452,-2.395,-2.558,-9.782,-0.062,-2.467,26.46,62.79,-3.29
,-10.055,1.615,-2.704,-9.966,0.199,-2.493,47.32,63.7,-0.42
,-10.108,2.67,-2.733,-9.868,-0.084,-2.448,40.46,66.71,-3.99
,-9.737,0.878,-2.565,-9.519,-0.768,-2.491,22.47,70.91,-8.82
13780.0,-9.483,-0.823,-2.582,-9.722,-0.928,-1.929,8.82,89.6,-13.09
,-9.651,-0.036,-2.86,-9.651,-1.503,-1.314,9.38,91.84,-12.25
,-9.753,0.201,-2.929,-9.619,-2.125,-0.96,7.28,94.71,-10.78
,-9.727,-0.251,-2.615,-9.665,-2.321,-1.017,5.53,97.58,-8.47
13855.0,-9.847,-2.381,-1.039,-8.93,-0.653,-5.19,45.99,116.06,21.49
,-9.959,-2.005,-1.859,-8.753,0.101,-6.092,57.4,118.86,27.09
,-9.677,-1.634,-2.594,-9.081,0.794,-7.145,65.66,121.52,31.5
,-9.361,-1.129,-3.927,-9.675,1.228,-8.483,71.12,123.9,34.51
13931.0,-9.976,1.855,-9.251,-7.638,3.79,-10.407,70.63,128.66,33.39
,-9.701,2.563,-9.615,-6.994,3.116,-10.814,65.17,121.45,29.75
,-9.445,3.276,-10.562,-6.04,1.534,-11.304,59.5,112.49,27.65
,-8.674,3.707,-10.617,-5.583,0.459,-11.283,49.42,99.61,24.71
14007.0,-5.803,-0.086,-10.672,-5.896,0.893,-8.938,22.12,43.26,10.29
,-5.631,0.304,-10.232,-5.379,0.44,-8.78,30.45,28.0,10.64
,-5.633,0.732,-9.945,-5.288,-0.325,-8.827,34.79,11.83,11.97
,-5.86,1.094,-9.186,-4.884,-0.931,-8.679,31.22,-4.97,12.88
14083.0,-5.171,-0.972,-8.227,-4.314,-1.266,-8.433,-4.06,-83.79,15.12
,-5.011,-0.842,-8.54,-4.578,-1.256,-8.361,-4.55,-96.81,16.59
,-4.274,-0.835,-8.722,-4.563,-1.108,-8.48,-7.35,-108.36,17.29
,-3.972,-1.041,-8.885,-4.281,-0.562,-8.641,-8.33,-117.39,17.29
14158.0,-4.523,-0.091,-8.689,-4.96,-0.225,-8.311,-6.16,-163.45,9.52
,-4.731,0.062,-8.636,-4.903,-0.656,-8.277,-13.58,-171.01,9.38
,-4.81,0.304,-8.471,-4.884,-1.082,-8.402,-21.63,-177.8,9.38
,-5.047,0.163,-8.241,-4.903,-1.271,-8.521,-31.36,-185.29,9.59
14234.0,-5.073,-1.189,-8.346,-6.726,0.656,-7.727,-17.64,-219.38,7.63
,-5.312,-0.778,-8.626,-6.849,1.12,-7.368,-6.3,-225.33,5.53
,-5.597,-0.316,-8.567,-7.217,1.309,-6.904,3.78,-230.23,3.64
,-6.245,0.079,-8.205,-7.686,1.247,-6.585,10.01,-234.15,1.54
14310.0,-8.239,1.278,-6.214,-9.134,0.567,-4.654,-11.97,-241.22,-7.07
,-8.567,1.132,-5.87,-8.512,-0.177,-3.398,-20.23,-238.98,-8.4
,-8.863,1.175,-5.614,-8.409,-1.182,-1.91,-29.12,-235.41,-10.57
,-9.179,1.034,-5.307,-9.203,-1.402,-1.752,-39.06,-230.72,-12.95
14386.0,-9.837,-0.517,-1.689,-8.186,-0.845,0.306,-46.48,-179.97,-31.99
,-9.409,0.175,-1.33,-7.894,-1.192,0.23,-49.56,-164.43,-31.99
,-8.945,0.191,-0.794,-7.583,-1.127,0.845,-58.73,-146.44,-32.48
,-8.471,-0.254,-0.031,-7.681,-0.957,1.077,-68.81,-126.77,-32.27
14461.0,-7.956,-0.457,0.888,-9.775,0.347,-1.417,-48.09,-7.35,-9.66
,-7.997,0.553,0.44,-14.221,-2.556,0.857,-42.91,15.54,-5.88
,-7.842,1.228,-0.213,-16.193,-4.511,3.345,-43.19,37.52,-2.24
,-8.224,1.29,-0.763,-12.761,-3.424,1.206,-47.81,58.03,1.82
14537.0,-9.509,-2.012,0.041,-11.414,0.457,-2.898,-14.98,77.35,9.45
,-8.227,-2.326,-0.048,-8.579,1.132,-4.465,-23.31,78.82,16.66
,-11.038,-3.029,1.35,-6.935,0.431,-4.59,-16.24,84.49,35.49
,-13.214,-1.426,-1.364,-7.296,-0.043,-4.92,0.14,89.81,38.08
14612.0,-8.184,0.708,-5.623,-9.194,2.01,-5.042,4.34,86.24,24.5
,-8.586,1.575,-6.628,-10.026,2.034,-4.448,0.14,79.87,22.96
,-8.189,1.917,-6.317,-10.282,1.833,-3.877,-1.54,76.16,22.68
,-8.658,1.843,-5.817,-10.373,1.065,-3.08,-1.05,71.61,18.48
14688.0,-9.938,0.553,-2.663,-9.184,0.864,-3.601,-35.7,52.43,10.5
,-9.6,0.672,-2.654,-9.318,0.354,-3.317,-33.32,50.33,9.31
,-9.509,0.675,-3.106,-9.593,0.325,-3.297,-27.72,48.02,8.26
,-9.076,1.01,-3.58,-9.675,0.826,-3.372,-21.84,45.71,8.4
14764.0,-9.56,0.988,-3.331,-9.593,0.905,-2.675,-14.0,34.72,9.31
,-9.418,0.945,-3.163,-9.66,1.292,-2.85,-17.22,33.46,9.94
,-9.418,0.792,-2.883,-9.579,1.433,-3.001,-18.69,32.2,10.71
,-9.524,0.617,-2.694,-9.507,1.33,-3.051,-17.22,31.5,10.99
14840.0,-9.612,1.467,-3.288,-9.33,1.536,-3.783,0.35,27.93,12.25
,-9.56,1.582,-3.475,-9.505,1.474,-3.743,2.31,26.39,11.34
,-9.5,1.709,-3.676,-9.548,1.381,-3.683,2.38,24.71,10.15
,-9.442,1.687,-3.838,-9.562,1.275,-3.647,0.98,22.82,8.89
14916.0,-9.392,1.065,-3.467,-9.6,0.993,-2.637,-8.89,15.47,3.78
,-9.457,0.945,-3.259,-9.402,0.955,-2.525,-7.28,14.77,3.78
,-9.481,1.012,-3.087,-9.378,0.89,-2.62,-5.32,14.21,3.36
,-9.454,1.05,-2.917,-9.493,0.68,-2.728,-4.69,14.42,3.01
14991.0,-9.392,0.553,-2.955,-9.454,0.72,-3.123,-1.61,16.24,3.01
,-9.328,0.443,-3.087,-9.387,0.84,-3.104,0.84,16.45,3.57
,-9.342,0.56,-3.128,-9.328,0.864,-3.139,2.66,16.73,4.41
,-9.378,0.495,-2.998,-9.318,0.763,-3.116,4.27,17.01,4.76
15067.0,-9.373,0.493,-3.003,-9.435,1.189,-2.599,5.39,19.39,5.04
,-9.347,0.522,-2.91,-9.43,1.079,-2.544,7.77,19.88,6.02
,-9.399,0.617,-2.759,-9.33,1.029,-2.553,10.22,20.3,6.58
,-9.418,1.266,-2.709,-9.325,0.955,-2.503,10.64,20.65,6.86
15143.0,-9.186,1.065,-2.446,-9.268,0.804,-2.541,0.14,25.55,5.46
,-9.289,0.881,-2.371,-9.32,0.998,-2.824,-1.26,26.81,4.97
,-9.304,0.847,-2.374,-9.237,1.163,-2.984,-0.98,28.28,4.9
,-9.323,0.761,-2.424,-9.263,1.115,-3.204,-0.21,29.82,4.9
15219.0,-9.196,0.89,-3.489,-9.435,1.407,-3.934,-0.14,35.7,3.43
,-9.167,0.548,-3.637,-9.371,1.039,-3.841,2.66,36.47,3.85
,-9.328,0.474,-3.759,-9.397,0.849,-3.707,7.7,36.96,4.48
,-9.509,1.046,-3.948,-9.505,0.787,-3.709,11.97,37.1,4.48
15294.0,-9.517,0.916,-3.752,-9.529,1.295,-4.101,14.21,39.55,3.5
,-9.545,1.012,-3.838,-9.706,0.895,-3.695,15.75,40.39,3.57
,-9.679,1.039,-3.912,-9.538,0.771,-3.915,16.52,41.37,3.29
,-9.722,1.127,-3.944,-9.653,0.883,-3.857,16.73,43.12,2.59
15370.0,-9.435,1.194,-3.642,-10.117,3.522,-3.424,22.89,48.44,0.91
,-9.509,1.165,-3.573,-10.754,4.606,-4.133,22.05,49.84,-0.07
,-9.387,1.433,-3.486,-9.811,1.062,-4.022,20.09,51.24,-0.56
,-9.517,1.548,-3.515,-9.641,-1.594,-3.618,19.32,52.85,-1.19
15445.0,-9.959,0.06,-3.518,-9.423,-0.68,-3.23,22.47,61.81,-3.64
,-10.249,1.445,-3.542,-9.514,-0.479,-3.29,29.26,63.98,-2.03
,-9.995,0.452,-3.422,-9.426,-0.337,-3.403,24.64,66.92,-3.43
,-9.514,-0.715,-3.247,-9.545,0.074,-3.522,22.61,69.86,-4.06
15521.0,-9.545,0.443,-3.575,-9.234,-0.402,-3.053,21.77,82.25,-4.06
,-9.423,0.526,-3.489,-9.16,-0.555,-2.522,16.73,84.77,-4.13
,-9.349,0.282,-3.396,-9.373,-0.806,-2.022,12.04,86.73,-3.92
,-9.256,-0.151,-3.228,-9.529,-1.048,-1.704,10.29,89.18,-2.8
15597.0,-9.562,-1.206,-1.658,-8.837,-0.66,-3.915,42.07,103.95,16.31
,-9.483,-1.163,-1.723,-8.806,-0.194,-5.08,50.26,106.47,21.56
,-9.361,-0.907,-2.285,-8.849,0.177,-5.951,57.82,108.22,25.69
,-9.177,-0.773,-2.879,-8.631,0.936,-6.616,63.14,109.76,28.42
15673.0,-8.799,1.307,-7.849,-8.447,1.62,-9.304,52.08,117.25,26.11
,-9.026,1.371,-8.674,-7.932,1.886,-9.78,46.34,116.41,21.98
,-9.069,1.385,-9.093,-7.31,1.814,-10.103,40.25,113.19,18.9
,-8.583,1.517,-9.208,-6.521,1.443,-10.38,38.92,108.57,19.39
15748.0,-6.013,0.838,-10.524,-5.176,-0.309,-9.529,32.83,59.22,12.81
,-5.159,0.163,-10.407,-5.465,0.122,-9.428,23.94,47.53,8.05
,-4.702,-0.27,-10.412,-5.504,0.562,-8.983,23.24,38.85,6.72
,-4.944,-0.462,-10.213,-5.741,0.816,-8.538,25.62,30.24,7.42
15824.0,-5.621,0.9,-8.442,-4.788,0.72,-8.928,9.52,-43.89,4.62
,-5.288,0.995,-8.469,-4.326,0.304,-8.961,1.47,-59.78,1.05
,-5.25,1.139,-8.583,-4.063,-0.364,-8.622,-6.37,-72.59,-0.42
,-5.03,0.766,-8.715,-4.573,-0.823,-8.437,-15.89,-84.21,-0.77
15900.0,-4.913,-1.015,-8.461,-5.042,-0.713,-8.638,-32.13,-130.9,-7.35
,-5.061,-0.869,-8.418,-4.922,-0.864,-8.576,-29.12,-140.0,-8.89
,-5.377,-0.567,-8.545,-5.157,-1.175,-8.301,-30.38,-148.54,-9.17
,-5.398,-0.553,-8.567,-5.628,-1.33,-8.062,-33.04,-157.29,-7.84
15976.0,-5.836,-1.058,-8.035,-5.595,-0.053,-8.189,-17.22,-187.67,0.35
,-6.088,-0.598,-8.066,-5.872,0.098,-7.937,-13.72,-194.25,2.1
,-5.901,-0.242,-8.37,-6.298,0.342,-8.009,-15.26,-201.04,3.85
,-5.698,-0.115,-8.248,-6.368,0.464,-7.952,-16.87,-204.89,5.46
16052.0,-6.607,0.311,-7.463,-7.777,-0.029,-6.174,-19.95,-223.02,4.48
,-6.892,0.184,-7.26,-8.246,-0.129,-5.609,-19.39,-226.24,3.15
,-6.892,0.206,-7.164,-8.844,-0.048,-5.092,-17.01,-229.25,1.26
,-7.351,0.06,-6.82,-9.105,0.194,-4.384,-12.25,-230.58,-0.49
16127.0,-9.162,0.397,-3.924,-9.366,-0.507,-0.28,-6.44,-221.48,-10.01
,-9.579,0.68,-3.489,-9.672,-0.266,-0.601,-9.8,-214.62,-10.85
,-9.722,0.656,-2.84,-9.519,0.045,0.019,-16.31,-206.5,-11.55
,-9.289,-0.05,-1.18,-9.399,-0.132,0.077,-24.92,-195.16,-11.97
16203.0,-8.894,-0.278,0.11,-8.088,-1.376,2.218,-39.9,-123.9,-22.4
,-8.275,-0.773,0.96,-8.007,-0.811,2.19,-45.64,-104.58,-21.14
,-8.107,-1.452,1.551,-7.995,0.036,1.764,-43.54,-83.65,-17.99
,-8.143,-1.783,2.051,-7.875,0.653,1.086,-37.45,-62.51,-14.84
16278.0,-8.078,0.632,0.357,-9.11,0.048,-2.19,-43.68,44.87,2.8
,-8.37,0.426,-0.352,-11.697,-1.496,-2.242,-49.56,62.16,6.09
,-8.559,0.134,-1.058,-17.662,-6.181,3.898,-52.78,76.65,8.75
,-8.552,0.084,-1.761,-17.219,-4.826,1.811,-53.41,88.62,11.34
16354.0,-10.988,-0.433,-0.395,-10.124,-2.776,1.393,19.81,43.82,11.55
,-8.256,2.034,0.756,-10.45,-1.543,1.323,-0.7,45.99,-3.01
,-8.552,-0.072,0.67,-10.893,0.383,-0.771,-30.45,51.17,3.57
,-10.656,-2.749,0.998,-10.543,0.744,-3.343,-39.97,58.59,12.88
16430.0,-8.775,1.586,-3.982,-9.603,1.101,-3.826,18.55,92.82,31.5
,-7.327,1.945,-3.738,-9.902,0.672,-3.951,17.15,86.24,27.65
,-7.346,2.144,-3.606,-9.524,0.586,-3.678,11.48,79.59,23.59
,-8.617,1.883,-3.709,-9.552,0.433,-3.644,3.71,75.6,20.16
16506.0,-9.478,0.177,-3.527,-9.32,2.594,-4.075,12.04,62.93,19.18
,-9.469,0.227,-3.326,-9.359,2.534,-4.317,12.95,60.2,19.39
,-9.442,0.677,-3.455,-9.284,1.857,-4.295,12.67,58.03,17.85
,-9.488,1.39,-3.733,-9.313,0.948,-4.295,10.08,55.72,13.65
16581.0,-9.639,0.203,-4.216,-9.586,1.709,-3.001,-26.95,39.48,5.53
,-9.653,0.146,-4.058,-9.756,2.333,-2.95,-17.78,36.26,6.02
,-9.373,0.699,-3.754,-9.588,2.345,-2.948,-9.24,33.39,7.49
,-9.313,1.184,-3.317,-9.538,1.804,-3.039,-4.06,31.29,8.89
16657.0,-9.598,0.981,-3.013,-9.533,1.723,-3.259,-14.21,25.34,7.77
,-9.612,0.469,-3.149,-9.474,2.017,-3.202,-7.42,24.78,7.84
,-9.538,0.555,-3.214,-9.502,2.075,-3.216,2.17,24.22,8.05
,-9.497,1.213,-3.106,-9.507,2.094,-3.108,10.57,23.24,8.05
16732.0,-9.562,1.747,-3.185,-9.474,2.19,-2.807,-8.89,17.71,0.91
,-9.497,1.201,-3.061,-9.407,2.819,-2.635,-11.55,16.59,0.42
,-9.416,0.928,-2.972,-9.392,2.304,-2.663,-8.96,15.96,1.47
,-9.469,1.311,-2.804,-9.43,1.017,-2.639,-4.06,14.77,2.45
16808.0,-9.521,-0.316,-2.737,-9.45,0.706,-3.101,-22.75,12.81,0.63
,-9.359,-0.95,-2.86,-9.44,0.735,-3.123,-13.09,13.65,1.4
,-9.433,-0.531,-3.068,-9.474,0.316,-3.061,-1.89,14.28,2.38
,-9.502,0.239,-3.168,-9.392,0.529,-2.986,3.99,14.84,3.01
16884.0,-9.366,0.663,-2.986,-9.418,1.07,-3.264,-2.59,16.66,2.52
,-9.507,0.988,-3.12,-9.332,1.017,-3.19,-1.26,16.52,3.22
,-9.366,1.127,-3.104,-9.335,0.902,-3.113,-0.35,16.73,4.13
,-9.426,1.17,-3.173,-9.306,1.072,-2.958,0.77,16.73,4.69
16960.0,-9.263,1.247,-2.826,-9.497,0.725,-2.254,1.47,16.8,6.02
,-9.311,0.919,-2.647,-9.464,1.098,-2.137,0.21,17.36,6.37
,-9.351,0.589,-2.515,-9.416,1.359,-2.264,0.28,18.27,6.79
,-9.435,0.474,-2.391,-9.34,1.263,-2.111,3.78,19.39,6.86
17036.0,-9.289,1.285,-2.257,-9.371,0.689,-2.458,4.34,25.83,4.97
,-9.361,1.173,-2.412,-9.284,1.027,-2.675,4.41,27.51,4.13
,-9.32,0.871,-2.412,-9.354,0.962,-2.876,5.18,29.12,3.71
,-9.373,0.663,-2.41,-9.21,0.641,-3.027,8.4,31.01,3.99
17111.0,-9.189,0.51,-3.094,-9.16,1.194,-3.817,8.89,36.68,3.08
,-9.249,0.613,-3.197,-9.206,1.086,-4.422,9.8,37.45,3.64
,-9.296,0.948,-3.352,-9.438,0.833,-4.771,10.15,38.22,3.92
,-9.141,1.247,-3.577,-9.454,0.524,-5.013,8.89,38.92,4.27
17187.0,-9.541,0.706,-5.073,-9.548,1.665,-3.534,16.66,39.13,4.06
,-9.725,1.113,-4.7,-9.557,1.378,-3.288,20.72,38.85,4.13
,-9.689,1.857,-4.346,-9.514,1.438,-3.094,20.44,38.22,3.57
,-9.509,2.051,-3.905,-9.545,1.991,-3.216,16.66,38.71,3.08
17263.0,-9.45,1.709,-3.223,-11.156,4.13,-3.884,13.93,45.99,1.12
,-9.399,1.07,-3.202,-9.804,-0.684,-3.491,11.27,48.44,0.56
,-9.835,0.852,-3.247,-9.746,-2.706,-2.606,15.82,50.61,0.21
,-10.603,4.288,-3.209,-10.124,0.227,-2.443,24.15,52.08,-1.12
17339.0,-10.249,1.634,-2.764,-9.526,-0.897,-3.46,28.21,66.71,-2.52
,-9.876,0.258,-2.879,-9.375,-0.581,-3.647,17.36,70.77,-5.53
,-9.708,-1.005,-3.082,-9.268,-0.022,-3.776,12.6,73.92,-6.3
,-9.636,-1.082,-3.36,-9.158,0.345,-3.855,14.63,76.93,-5.25
17414.0,-9.093,0.416,-3.881,-9.002,-0.254,-2.491,14.98,88.2,-3.64
,-9.048,0.294,-3.728,-9.222,-0.644,-2.046,12.88,90.02,-3.22
,-8.995,0.232,-3.46,-9.306,-1.019,-1.721,12.25,91.77,-2.17
,-8.928,-0.031,-3.077,-9.452,-1.177,-1.835,14.14,94.29,0.21
17490.0,-9.397,-1.022,-2.166,-8.6,-0.096,-5.508,52.64,109.62,22.05
,-9.177,-1.022,-2.288,-8.342,0.184,-6.291,59.57,111.58,26.18
,-8.93,-0.895,-2.934,-8.564,0.761,-7.473,65.8,113.26,29.61
,-8.701,-0.534,-4.219,-9.208,1.125,-8.586,69.93,114.59,31.01
17565.0,-8.995,1.127,-9.387,-7.502,2.355,-10.352,44.45,113.19,24.43
,-9.05,1.491,-9.95,-6.887,2.319,-10.708,38.43,108.85,21.7
,-8.648,1.613,-9.624,-6.31,1.945,-10.517,36.47,101.57,20.16
,-7.837,2.118,-10.055,-5.765,1.701,-10.823,38.78,93.24,19.81
17641.0,-4.922,1.115,-11.352,-4.585,-0.11,-9.428,24.64,42.14,9.73
,-3.96,0.436,-10.883,-4.628,0.311,-9.107,21.49,33.53,7.7
,-3.733,0.158,-10.591,-4.726,0.668,-9.131,23.52,26.46,7.63
,-4.156,-0.242,-9.897,-4.566,0.782,-8.818,27.23,18.13,9.1
17717.0,-4.826,0.73,-8.409,-4.824,-0.103,-8.251,7.63,-48.23,10.85
,-4.7,0.323,-8.074,-4.228,-0.177,-8.555,2.73,-61.39,9.38
,-4.858,0.237,-8.131,-3.747,-0.876,-8.528,1.05,-72.66,7.56
,-5.121,0.093,-8.069,-4.063,-1.584,-8.385,-2.17,-83.58,6.79
17793.0,-4.599,-2.036,-8.224,-5.508,-0.653,-8.454,-13.65,-121.38,6.02
,-5.013,-1.768,-8.126,-5.638,-0.79,-8.344,-7.14,-127.89,4.27
,-5.564,-1.23,-8.167,-5.709,-1.11,-8.239,-6.72,-134.75,3.08
,-5.707,-0.739,-8.433,-5.738,-1.419,-8.138,-10.01,-141.61,3.92
17868.0,-5.894,-1.618,-8.045,-6.229,-0.414,-7.858,-17.92,-167.3,12.11
,-6.052,-1.426,-7.964,-6.454,-0.129,-7.789,-11.06,-171.57,13.37
,-6.123,-1.017,-7.978,-6.782,0.112,-7.385,-6.58,-176.47,13.93
,-6.083,-0.663,-7.928,-7.057,0.452,-7.303,-4.62,-180.11,14.21
17944.0,-7.258,0.689,-7.061,-8.028,0.474,-6.267,-10.15,-193.76,7.14
,-7.416,0.701,-6.939,-8.035,0.369,-6.011,-13.72,-195.79,4.13
,-7.609,0.692,-6.782,-8.325,0.127,-5.841,-18.34,-198.17,0.49
,-7.798,0.682,-6.58,-8.483,-0.242,-5.363,-22.33,-200.2,-3.99
18020.0,-8.665,-0.278,-5.106,-9.734,-0.39,-2.893,-37.24,-203.0,-24.64
,-8.782,-0.395,-4.822,-9.529,-0.431,-2.178,-35.42,-200.34,-25.76
,-9.323,-0.534,-4.343,-9.301,-0.656,-1.318,-32.9,-197.19,-25.9
,-9.734,-0.574,-3.539,-9.325,-0.512,-0.811,-30.73,-193.69,-25.55
18096.0,-9.541,-0.268,-0.924,-8.521,-1.28,0.835,-13.09,-151.55,-26.04
,-9.476,-0.117,-1.055,-8.157,-1.165,1.211,-8.61,-140.77,-25.9
,-8.952,-0.148,-1.003,-7.736,-0.696,1.517,-6.58,-128.59,-25.06
,-8.459,-0.519,0.203,-7.906,-0.392,1.603,-2.8,-114.73,-22.68
18172.0,-8.157,-0.074,1.589,-8.098,-0.235,0.584,18.34,-32.62,-4.41
,-8.21,0.055,1.517,-8.296,-0.069,0.007,17.08,-15.26,-1.33
,-8.124,0.089,1.304,-8.332,0.242,-0.352,13.3,1.61,0.91
,-8.033,-0.144,1.065,-8.402,0.632,-0.96,9.45,17.43,3.22
18247.0,-8.476,1.158,-1.321,-19.031,-5.657,7.124,-10.85,76.3,10.08
,-8.715,1.467,-1.948,-16.083,-2.86,0.562,-20.65,83.16,9.66
,-9.718,1.029,-2.565,-10.103,2.639,0.84,-31.99,85.89,8.54
,-14.925,-2.781,-1.232,-9.16,2.371,0.711,-39.83,69.58,9.38
18323.0,-9.323,-2.032,1.34,-10.993,-0.4,2.843,-55.93,23.66,-3.71
,-9.854,-4.013,2.242,-12.319,2.819,0.943,-50.47,36.96,4.34
,-8.564,-3.02,2.907,-11.225,5.257,-0.873,-28.91,50.54,10.99
,-8.722,-2.022,3.295,-9.531,4.262,-2.07,-7.42,62.09,19.81
18398.0,-8.533,2.316,-2.522,-9.557,0.175,-3.149,-49.07,76.37,9.8
,-8.748,1.663,-2.539,-9.495,-1.694,-2.962,-55.93,71.89,10.78
,-9.184,2.347,-2.453,-9.361,-2.151,-2.699,-53.06,65.94,10.99
,-9.39,2.084,-2.888,-9.514,-1.247,-2.769,-54.6,61.53,10.08
18474.0,-9.768,-0.555,-2.912,-9.641,0.692,-2.828,4.55,51.52,17.57
,-9.629,-0.464,-2.95,-9.713,1.84,-2.737,8.4,51.03,17.29
,-9.474,-0.39,-2.936,-9.524,2.316,-2.903,9.45,51.1,16.87
,-9.43,-0.148,-2.883,-9.366,1.778,-2.994,8.26,50.33,15.19
18550.0,-9.277,0.725,-3.015,-9.698,0.321,-2.848,-64.47,40.53,1.96
,-9.354,-0.378,-2.96,-9.701,1.012,-2.821,-66.85,38.57,2.24
,-9.407,-0.823,-3.034,-9.598,1.115,-2.551,-56.28,36.54,3.22
,-9.55,-0.529,-2.888,-9.512,0.723,-2.391,-39.48,34.72,5.11
18626.0,-9.598,0.38,-2.345,-9.634,1.072,-2.785,-18.83,29.12,11.13
,-9.639,0.318,-2.498,-9.596,0.943,-2.819,-18.2,28.63,10.29
,-9.497,0.613,-2.527,-9.533,0.579,-2.816,-15.89,28.35,10.08
,-9.545,0.931,-2.611,-9.493,0.56,-2.883,-12.32,28.07,10.43
18701.0,-9.445,0.503,-3.051,-9.641,1.445,-3.355,15.61,25.48,13.65
,-9.445,0.747,-3.075,-9.596,1.46,-3.64,20.23,24.99,13.86
,-9.557,1.106,-3.209,-9.548,1.108,-3.754,22.19,24.15,13.51
,-9.524,1.216,-3.264,-9.497,1.027,-3.716,21.28,23.17,12.6
18777.0,-9.529,0.864,-3.707,-9.201,1.261,-3.063,14.07,14.42,7.49
,-9.694,1.065,-3.573,-9.311,0.739,-2.754,13.79,12.32,6.23
,-9.734,1.778,-3.494,-9.572,0.464,-2.51,10.92,9.38,4.2
,-9.375,2.039,-3.455,-9.643,0.845,-2.355,5.11,7.7,3.29
18852.0,-9.737,1.376,-2.383,-9.411,0.639,-2.752,6.16,7.84,2.38
,-9.502,1.517,-2.467,-9.517,0.83,-2.888,4.62,8.26,2.31
,-9.497,1.17,-2.596,-9.485,0.828,-3.039,3.78,8.75,2.45
,-9.304,0.916,-2.611,-9.368,0.778,-3.132,4.97,9.1,2.52
18928.0,-9.459,0.792,-3.087,-9.342,-0.254,-2.682,14.49,9.31,2.17
,-9.351,1.036,-3.113,-9.328,-0.376,-2.402,15.68,8.82,2.03
,-9.21,0.665,-3.075,-9.33,-0.33,-2.075,15.61,9.1,2.31
,-9.215,0.261,-2.895,-9.497,0.342,-1.905,16.94,9.73,3.01
19004.0,-9.663,1.266,-1.948,-9.505,0.943,-2.974,38.22,15.47,7.07
,-9.605,1.661,-2.103,-9.368,0.926,-3.463,34.79,16.24,6.65
,-9.481,1.529,-2.362,-9.22,0.861,-3.711,30.1,17.08,6.09
,-9.428,1.146,-2.702,-9.17,0.665,-4.006,26.88,17.64,5.39
19080.0,-9.043,0.23,-4.097,-9.282,0.546,-3.4,32.48,17.71,3.78
,-9.139,0.079,-4.094,-9.268,0.715,-3.204,37.31,17.71,4.48
,-9.232,0.065,-3.896,-9.34,0.692,-2.965,43.89,18.2,5.04
,-9.349,0.024,-3.613,-9.505,0.593,-2.845,49.91,19.18,5.67
19156.0,-9.588,0.912,-2.867,-9.162,1.567,-3.36,67.9,24.08,6.86
,-9.395,1.35,-3.171,-9.225,1.06,-3.386,70.0,24.85,6.44
,-9.466,1.091,-3.159,-9.294,0.66,-3.498,69.37,25.62,5.88
,-9.308,1.563,-3.238,-9.371,0.675,-3.671,68.74,25.34,4.76
19231.0,-9.361,0.981,-3.752,-9.679,1.517,-4.212,70.91,26.6,2.73
,-9.45,1.419,-3.857,-9.569,0.811,-4.396,72.8,26.6,2.24
,-9.67,1.747,-3.879,-9.564,-0.091,-4.472,73.64,26.74,1.61
,-9.782,1.864,-4.039,-9.598,-0.507,-4.525,73.08,26.53,0.98
19307.0,-9.426,-0.651,-4.604,-9.935,-2.252,-7.128,80.43,21.28,2.38
,-9.481,-0.912,-4.618,-8.098,-1.429,-5.14,82.88,20.58,3.71
,-9.428,-1.151,-4.681,-9.593,2.615,-4.049,83.16,19.53,3.92
,-9.198,-1.35,-4.621,-9.342,3.434,-3.735,83.02,19.04,4.48
19383.0,-8.763,-0.713,-4.039,-8.497,-0.067,-5.453,114.59,19.11,37.17
,-9.261,-0.196,-4.544,-8.586,-0.328,-5.542,125.44,18.48,31.5
,-8.918,0.373,-4.779,-8.483,-1.376,-5.688,129.5,17.29,35.7
,-8.55,0.05,-5.121,-8.509,-1.957,-5.695,125.58,15.96,39.41
19459.0,-8.461,-1.515,-5.702,-8.796,-0.416,-5.264,112.07,7.84,34.02
,-8.507,-1.034,-5.726,-8.612,-0.634,-4.649,114.73,5.81,33.88
,-8.703,-0.718,-5.674,-8.583,-0.708,-4.697,114.8,3.43,33.95
,-8.916,-0.433,-5.523,-8.512,-0.538,-4.642,112.91,1.54,34.23
19534.0,-8.48,-0.278,-4.563,-8.452,-0.299,-4.712,116.83,-2.8,41.79
,-8.581,-0.148,-4.669,-8.595,-0.452,-4.882,117.95,-3.71,43.19
,-8.48,-0.132,-4.599,-8.619,-0.615,-4.838,118.37,-4.76,44.24
,-8.49,-0.211,-4.635,-8.658,-0.883,-4.757,118.65,-5.67,45.5
19610.0,-8.653,-1.103,-4.669,-8.547,-1.039,-4.451,123.13,-11.2,51.1
,-8.516,-1.342,-4.57,-8.751,-0.883,-4.353,125.58,-12.04,52.36
,-8.378,-1.342,-4.499,-8.93,-0.696,-4.137,129.15,-12.95,53.41
,-8.457,-1.228,-4.458,-9.112,-0.39,-4.145,132.37,-13.72,53.9
19686.0,-9.246,-0.378,-4.073,-9.206,-0.986,-3.656,130.2,-18.76,50.96
,-9.287,-0.558,-3.917,-9.088,-1.096,-3.594,125.72,-19.6,49.84
,-9.349,-0.735,-3.833,-9.024,-1.254,-3.379,121.59,-20.58,48.58
,-9.332,-0.883,-3.728,-9.072,-1.314,-3.223,119.21,-21.07,47.74
19762.0,-9.287,-1.106,-3.321,-9.354,-0.768,-2.938,133.63,-21.0,51.59
,-9.502,-0.768,-3.343,-9.392,-1.086,-2.601,137.06,-21.63,51.66
,-9.457,-0.572,-3.312,-9.495,-1.146,-2.223,137.34,-22.4,51.73
,-9.387,-0.529,-3.173,-9.529,-0.809,-2.352,136.22,-22.19,52.57
19837.0,-9.421,-0.383,-2.335,-9.402,-0.397,-2.819,152.25,-17.22,58.87
,-9.306,0.012,-2.395,-9.234,-0.993,-2.874,150.36,-16.38,58.24
,-9.347,0.246,-2.599,-9.083,-1.452,-2.9,145.88,-16.24,57.05
,-9.385,0.079,-2.694,-9.031,-1.622,-3.01,141.96,-14.7,56.7
19913.0,-9.129,-1.606,-3.089,-8.983,-0.591,-2.709,171.64,-5.53,63.84
,-9.1,-1.223,-3.068,-9.005,-0.211,-2.723,181.16,-5.18,64.75
,-8.947,-0.995,-3.017,-9.17,0.201,-2.848,188.09,-4.27,65.52
,-8.981,-0.818,-2.891,-9.27,0.608,-2.886,193.69,-2.17,66.08
19988.0,-9.359,0.826,-3.053,-9.052,0.637,-2.824,184.8,3.36,66.78
,-9.359,0.687,-3.142,-9.098,0.821,-2.862,177.59,4.13,67.13
,-9.354,0.586,-3.037,-9.22,0.936,-2.821,171.43,4.41,67.06
,-9.308,0.476,-2.86,-9.282,1.204,-2.776,166.18,4.34,66.78
20064.0,-9.366,1.393,-2.797,-9.481,1.833,-2.41,144.2,4.13,58.87
,-9.505,1.555,-2.649,-9.579,1.955,-2.364,140.42,4.34,58.24
,-9.672,1.546,-2.486,-9.66,1.907,-2.252,137.06,4.41,57.89
,-9.586,1.656,-2.381,-9.631,2.091,-2.13,132.93,4.34,57.26
20140.0,-9.574,2.273,-2.015,-9.732,1.744,-1.855,105.21,0.07,49.28
,-9.634,2.417,-1.996,-9.665,1.589,-1.728,97.58,-1.47,46.97
,-9.689,2.335,-1.922,-9.478,1.529,-1.783,87.85,-3.15,44.17
,-9.694,2.113,-1.864,-9.299,1.335,-1.642,79.03,-4.62,41.65
20216.0,-9.246,0.766,-1.579,-8.949,0.833,-2.134,52.36,-6.02,29.82
,-9.256,0.505,-1.876,-8.928,0.972,-2.477,49.63,-4.06,27.16
,-9.04,0.706,-1.955,-9.064,0.967,-2.434,48.86,-1.4,24.78
,-8.99,0.751,-2.008,-9.32,0.816,-2.529,47.53,1.54,22.19
20292.0,-9.746,0.737,-2.541,-10.859,1.869,-1.601,14.49,12.04,3.5
,-10.129,0.885,-2.28,-10.632,1.601,-1.22,8.75,12.04,0.56
,-10.433,1.249,-1.792,-10.208,0.943,-1.295,2.17,12.04,-2.38
,-10.656,1.675,-1.661,-9.801,0.541,-1.613,-7.42,12.95,-4.9
20367.0,-9.43,0.61,-1.802,-8.861,1.18,-3.826,-20.44,21.56,-2.66
,-9.282,0.924,-2.245,-8.871,0.471,-4.128,-16.03,22.12,-1.75
,-9.217,1.28,-2.881,-9.052,0.007,-4.322,-15.68,21.7,-1.96
,-9.045,1.407,-3.453,-9.354,-0.184,-4.372,-18.41,21.21,-2.31
20443.0,-9.608,-0.117,-4.429,-8.942,0.723,-3.546,-13.86,14.49,2.17
,-9.562,0.39,-4.317,-9.304,0.809,-3.252,-7.21,12.67,3.99
,-9.155,0.754,-4.156,-9.66,1.07,-3.159,-2.38,11.48,6.51
,-8.839,0.739,-3.924,-9.861,1.211,-3.022,0.21,10.57,9.17
20519.0,-9.541,1.675,-3.326,-9.088,0.845,-4.652,2.59,7.42,11.83
,-9.282,1.828,-3.798,-8.973,0.61,-4.75,0.98,7.14,11.41
,-9.344,1.601,-4.075,-8.756,0.213,-4.453,-0.35,6.51,10.5
,-9.186,1.192,-4.453,-8.839,0.495,-4.24,-0.07,5.95,9.73
20595.0,-9.119,1.048,-3.934,-9.206,0.397,-3.635,10.78,0.56,10.71
,-9.43,1.522,-3.721,-9.107,0.108,-3.676,8.96,-0.21,10.15
,-9.464,1.39,-3.542,-9.232,0.692,-3.819,5.32,-0.21,10.01
,-9.387,0.818,-3.486,-9.536,1.122,-3.575,4.69,0.14,10.57
20670.0,-9.572,1.665,-3.582,-9.332,1.933,-2.912,33.6,0.91,13.02
,-9.387,2.058,-3.441,-9.294,2.381,-2.869,31.43,1.12,12.11
,-9.215,1.931,-3.163,-9.246,2.826,-2.745,28.49,1.68,11.9
,-9.34,1.845,-3.02,-9.016,3.072,-2.802,27.51,2.24,11.55
20746.0,-9.115,2.886,-2.606,-9.483,1.555,-1.89,10.22,0.42,5.95
,-9.0,2.563,-2.333,-9.433,1.271,-1.845,4.48,0.91,5.18
,-9.32,2.034,-2.072,-9.442,1.4,-2.029,0.77,1.47,4.06
,-9.299,2.0,-1.974,-9.478,1.596,-2.285,-0.98,2.45,3.64
20821.0,-9.442,1.536,-2.855,-9.036,1.189,-4.283,-7.56,10.43,2.38
,-9.318,1.029,-3.321,-9.081,1.369,-4.384,-7.7,11.76,2.73
,-9.124,0.847,-3.719,-9.081,1.687,-4.496,-3.15,12.6,3.43
,-9.1,0.816,-4.104,-9.095,1.701,-4.41,3.64,12.6,4.13
20897.0,-9.002,1.893,-4.331,-9.162,1.61,-3.623,9.1,6.44,3.71
,-8.894,1.859,-4.13,-8.995,1.218,-3.46,8.96,5.53,3.92
,-9.093,1.986,-3.922,-9.174,1.031,-3.4,8.47,4.2,3.5
,-9.083,1.962,-3.752,-9.21,1.354,-3.374,7.63,3.64,3.22
20973.0,-9.191,1.376,-3.364,-9.292,1.338,-3.254,7.77,5.18,4.34
,-9.244,1.266,-3.331,-9.225,1.565,-3.276,7.07,5.88,4.55
,-9.263,1.175,-3.297,-9.1,1.505,-3.424,7.07,6.23,4.41
,-9.146,1.189,-3.281,-9.251,1.431,-3.384,8.19,7.14,4.41
21049.0,-9.028,1.701,-3.527,-9.165,1.295,-3.259,5.95,8.05,3.64
,-8.873,1.182,-3.501,-9.129,1.347,-3.195,4.83,8.47,3.85
,-8.82,1.039,-3.522,-9.124,1.362,-3.195,5.81,8.75,4.48
,-9.064,0.888,-3.379,-9.127,1.189,-3.216,9.03,9.38,5.11
21125.0,-9.129,1.187,-3.446,-8.971,1.804,-3.795,12.04,13.16,6.44
,-9.124,1.22,-3.573,-8.897,1.577,-3.719,13.09,13.58,6.72
,-9.086,1.531,-3.766,-8.976,1.089,-3.711,13.3,13.44,6.65
,-9.016,1.663,-3.841,-8.923,0.835,-3.649,11.9,13.72,6.23
21200.0,-9.04,0.952,-3.597,-9.024,1.144,-3.757,11.83,15.19,7.0
,-9.127,1.402,-3.743,-8.983,1.192,-3.52,13.79,15.61,7.07
,-9.115,1.519,-3.774,-9.021,1.594,-3.484,12.6,16.45,7.35
,-9.11,1.29,-3.678,-9.088,1.481,-3.364,11.34,17.15,7.63
21276.0,-9.095,1.627,-3.419,-8.942,1.496,-4.212,13.65,20.09,8.12
,-8.993,1.515,-3.695,-8.969,1.503,-4.137,12.88,20.72,8.26
,-8.868,1.754,-4.025,-9.177,1.56,-4.161,11.83,20.58,8.12
,-8.686,1.4,-4.214,-9.244,1.551,-4.274,11.34,21.0,8.12
21352.0,-9.191,1.491,-4.484,-9.842,2.082,-4.439,14.77,22.82,8.68
,-9.277,1.299,-4.484,-10.184,1.524,-4.771,15.68,23.17,8.89
,-9.363,1.402,-4.499,-9.933,0.629,-4.329,17.43,23.66,9.45
,-9.653,1.783,-4.456,-9.952,0.409,-4.31,19.25,24.5,9.8
21428.0,-9.988,0.467,-4.25,-9.457,1.347,-3.963,34.37,29.47,13.16
,-9.567,1.402,-4.307,-9.311,1.374,-3.951,35.14,30.45,13.58
,-9.622,1.117,-4.061,-9.177,1.462,-3.924,32.76,31.78,12.46
,-9.469,1.242,-3.975,-9.083,1.472,-3.967,31.36,33.39,11.55
21503.0,-8.916,1.402,-3.9,-8.423,0.981,-4.089,32.76,40.6,12.6
,-8.763,1.68,-3.994,-8.478,1.034,-4.075,34.23,42.0,13.16
,-8.839,1.692,-4.07,-8.557,1.022,-3.955,34.16,43.4,13.16
,-8.689,1.251,-4.159,-8.607,0.62,-3.886,33.67,44.8,13.3
21579.0,-8.71,0.316,-3.771,-8.969,-0.488,-3.412,34.16,53.76,16.1
,-8.739,0.05,-3.659,-9.179,-0.732,-3.386,35.7,55.65,17.43
,-8.823,0.019,-3.51,-9.407,-1.034,-3.376,37.24,58.45,19.18
,-8.89,-0.191,-3.489,-9.615,-1.397,-3.419,38.85,61.18,21.28
21654.0,-9.873,-1.766,-3.271,-9.665,-1.517,-4.233,60.06,79.24,40.67
,-9.933,-2.099,-3.235,-9.371,-1.103,-5.099,71.12,83.3,46.34
,-10.043,-2.036,-3.384,-9.148,-0.732,-5.808,85.19,86.8,51.31
,-9.962,-1.919,-3.668,-8.856,-0.402,-6.53,99.47,90.02,56.35
21730.0,-8.607,0.019,-6.789,-8.461,2.812,-8.437,141.89,93.1,71.89
,-8.638,0.778,-7.038,-8.605,2.024,-8.507,148.05,92.75,71.82
,-8.521,1.673,-7.645,-8.753,1.5,-8.509,146.09,93.17,68.88
,-8.471,2.627,-8.15,-8.224,1.216,-8.815,131.46,94.57,64.4
21806.0,-7.358,0.699,-9.313,-6.564,-1.125,-8.904,37.17,75.46,43.89
,-7.052,0.06,-9.646,-6.542,-0.421,-8.653,29.33,66.36,43.75
,-6.435,-0.56,-9.952,-6.351,0.483,-8.155,30.87,58.24,46.34
,-6.396,-1.28,-9.526,-6.255,1.192,-8.069,39.34,50.26,49.21
21882.0,-5.946,1.376,-7.999,-6.097,-1.184,-7.717,47.74,-27.23,44.73
,-6.059,1.017,-7.822,-5.932,-1.522,-7.655,35.49,-39.48,41.72
,-6.195,0.246,-7.626,-5.939,-1.646,-7.669,25.2,-51.45,40.39
,-6.183,-0.629,-7.669,-5.925,-1.742,-7.722,18.55,-64.61,40.11
21957.0,-5.556,-1.539,-7.854,-5.932,-1.347,-7.648,38.99,-128.8,43.61
,-5.224,-1.304,-7.916,-6.511,-1.165,-7.215,39.97,-139.86,44.03
,-5.351,-1.254,-7.887,-6.6,-0.778,-7.181,38.15,-150.15,44.03
,-5.523,-1.381,-7.94,-6.2,-0.622,-7.571,37.52,-159.11,44.17
22033.0,-6.257,-0.519,-7.334,-7.274,0.354,-7.217,36.89,-199.08,35.7
,-6.619,-0.467,-7.174,-7.097,0.522,-7.231,34.65,-204.61,31.22
,-6.923,-0.237,-7.167,-7.138,0.543,-6.935,31.99,-210.21,26.18
,-7.126,0.072,-7.16,-7.222,0.517,-6.712,27.86,-215.46,20.93
22108.0,-7.219,0.304,-6.569,-8.471,-0.132,-5.154,-10.22,-230.79,-4.13
,-7.396,0.127,-6.339,-8.557,-0.067,-4.616,-15.05,-232.68,-8.54
,-7.619,-0.156,-5.946,-8.811,-0.208,-3.592,-16.24,-233.1,-12.46
,-8.019,-0.302,-5.497,-8.856,-0.447,-2.276,-16.17,-232.19,-16.1
22184.0,-9.155,-0.481,-1.263,-9.184,0.34,0.079,-19.74,-204.75,-31.5
,-9.469,-0.34,-0.682,-8.961,-0.254,0.4,-14.63,-193.34,-34.72
,-9.658,0.306,-0.376,-8.679,-0.553,0.794,-12.18,-181.37,-36.61
,-9.277,0.555,-0.29,-8.394,-0.565,0.708,-14.91,-168.07,-36.26
22260.0,-8.11,-0.912,1.338,-8.191,-0.055,1.783,-23.17,-88.13,-25.69
,-8.217,-0.902,1.89,-8.26,0.031,1.558,-17.71,-70.42,-21.63
,-8.052,-0.455,1.953,-8.313,0.297,1.053,-15.54,-52.43,-18.34
,-8.028,-0.189,1.965,-8.392,0.524,0.529,-15.47,-33.6,-14.49
22336.0,-8.497,0.555,0.16,-8.66,0.627,-1.895,-35.84,46.69,3.64
,-8.495,0.33,-0.51,-9.713,0.196,-2.158,-42.0,58.87,7.07
,-8.418,0.335,-0.861,-14.484,-3.606,-0.459,-45.92,69.37,10.08
,-8.552,0.503,-1.508,-18.727,-8.007,7.253,-47.95,77.84,12.95
22412.0,-16.102,-5.389,1.522,-10.849,-3.965,-0.05,4.13,37.94,21.56
,-9.981,0.555,-0.012,-10.931,-1.857,0.558,12.18,38.64,1.12
,-8.492,1.668,-0.318,-11.299,-1.977,-2.572,-12.95,44.87,-0.42
,-9.191,-2.28,-0.498,-10.258,0.139,-3.589,-40.11,56.77,18.48
22487.0,-8.143,1.907,-4.164,-9.028,0.615,-4.523,37.03,89.04,36.19
,-6.837,3.338,-3.867,-9.174,0.246,-3.922,20.58,81.13,27.79
,-7.121,3.23,-4.501,-9.505,0.225,-3.972,-3.08,74.62,22.47
,-8.509,1.788,-4.922,-9.926,0.567,-3.843,-22.4,71.19,20.58
22563.0,-10.002,-0.263,-3.307,-9.43,1.39,-3.381,-6.93,54.6,22.96
,-9.899,-1.249,-2.848,-9.45,2.929,-4.123,-5.18,54.18,25.48
,-9.883,-1.464,-2.599,-9.6,3.764,-4.377,1.96,53.48,26.46
,-9.576,-0.302,-2.809,-9.335,3.302,-4.448,14.21,51.38,25.83
22639.0,-9.093,1.273,-3.843,-9.591,1.247,-2.223,-29.26,37.03,11.62
,-9.402,-0.526,-3.214,-9.753,1.718,-2.173,-28.49,35.42,11.34
,-9.514,-0.517,-2.967,-9.72,1.778,-2.247,-17.36,33.32,9.87
,-9.567,0.357,-2.525,-9.56,1.685,-2.474,-9.1,32.13,8.75
22715.0,-9.493,1.366,-2.718,-9.249,1.407,-3.659,-7.28,30.52,12.74
,-9.502,1.125,-3.245,-9.454,1.661,-3.498,-1.89,29.61,13.23
,-9.646,1.115,-3.463,-9.55,2.041,-3.513,4.2,28.14,13.16
,-9.464,1.242,-3.848,-9.483,2.024,-3.355,8.68,26.25,12.67
22790.0,-9.471,1.309,-3.285,-9.576,1.046,-3.142,-7.42,20.72,7.7
,-9.552,0.639,-3.297,-9.402,1.505,-3.209,-6.93,20.44,7.7
,-9.519,0.189,-3.173,-9.318,1.563,-3.151,-1.26,20.09,7.77
,-9.474,0.531,-3.132,-9.33,1.565,-3.269,5.53,19.53,7.91
22866.0,-9.39,1.512,-3.187,-9.229,1.764,-3.041,-0.49,17.29,4.76
,-9.483,1.421,-3.436,-9.189,2.328,-2.994,-3.22,16.1,3.78
,-9.234,1.316,-3.419,-9.22,2.647,-2.931,-5.6,15.12,3.5
,-9.091,1.393,-3.197,-9.318,2.003,-2.682,-6.93,14.7,3.78
22941.0,-9.493,0.579,-2.666,-9.387,0.318,-3.01,-30.45,12.95,2.45
,-9.653,-0.778,-2.721,-9.282,1.242,-2.941,-23.17,14.35,2.73
,-9.73,-1.074,-2.879,-9.328,1.208,-2.895,-8.82,15.54,3.43
,-9.521,-0.644,-3.044,-9.452,0.773,-2.778,3.85,16.59,4.55
23017.0,-9.495,0.586,-2.635,-9.079,1.441,-2.826,-8.12,19.39,3.15
,-9.521,0.933,-2.57,-9.194,0.993,-2.766,-3.36,19.53,3.5
,-9.316,1.381,-2.654,-9.332,0.203,-2.692,0.98,19.95,4.27
,-9.067,1.577,-2.749,-9.469,-0.132,-2.678,2.73,20.65,4.97
23093.0,-9.466,0.567,-2.747,-9.27,0.842,-3.556,13.65,25.48,5.46
,-9.28,1.187,-2.86,-9.139,0.646,-3.831,14.14,26.74,5.74
,-9.28,1.175,-2.996,-9.067,0.522,-3.905,10.15,27.58,5.11
,-9.282,1.098,-3.276,-9.055,0.701,-3.831,6.37,28.35,4.69
23169.0,-9.21,0.967,-3.9,-8.885,1.395,-3.592,12.6,30.24,5.81
,-9.117,1.261,-3.903,-8.928,1.536,-3.482,11.2,30.17,5.32
,-9.021,1.402,-3.817,-9.009,1.534,-3.427,8.75,30.31,5.18
,-8.902,1.362,-3.735,-9.11,1.314,-3.374,6.09,30.73,4.97
23244.0,-9.062,1.125,-3.486,-9.371,0.833,-4.384,3.01,33.46,3.92
,-9.098,1.017,-3.656,-9.538,0.797,-4.518,5.67,34.58,4.2
,-9.208,0.945,-3.848,-9.545,0.555,-4.429,8.26,35.7,4.13
,-9.261,0.897,-4.099,-9.653,0.61,-4.281,11.06,36.75,3.92
23320.0,-9.624,0.931,-4.197,-9.387,0.785,-4.204,28.77,41.02,4.62
,-9.684,1.223,-4.238,-9.268,0.677,-4.123,28.98,42.07,3.85
,-9.677,1.424,-4.223,-9.203,0.596,-4.14,27.65,42.56,3.08
,-9.423,1.175,-4.171,-9.27,0.945,-4.042,26.67,43.96,2.17
23396.0,-9.679,2.24,-3.91,-9.481,-1.33,-3.463,40.04,51.1,0.49
,-10.493,4.606,-4.429,-9.588,1.467,-3.723,37.8,51.38,-3.22
,-10.079,2.233,-4.463,-9.469,2.132,-3.9,20.58,53.55,-8.33
,-9.069,-1.608,-3.896,-9.44,1.433,-4.056,13.93,57.26,-7.42
23472.0,-9.596,0.869,-4.092,-9.282,0.029,-3.338,20.23,66.22,-11.06
,-9.66,0.11,-3.927,-9.268,0.129,-3.417,17.15,68.18,-12.18
,-9.49,-0.579,-3.64,-9.189,-0.077,-3.403,17.57,70.77,-12.18
,-9.33,-0.455,-3.439,-9.131,-0.388,-3.379,21.42,73.43,-11.06
23548.0,-9.134,-0.615,-3.218,-9.765,-0.897,-2.611,23.03,86.1,-4.27
,-9.203,-0.833,-2.977,-9.665,-1.043,-2.599,27.79,88.83,-1.54
,-9.313,-0.909,-2.776,-9.639,-1.072,-2.881,31.29,91.56,1.33
,-9.517,-0.821,-2.682,-9.679,-0.804,-3.276,33.04,94.71,4.76
23623.0,-9.545,-0.232,-3.97,-9.402,1.139,-7.444,47.53,108.43,22.96
,-9.222,0.304,-5.03,-9.588,1.326,-7.868,48.79,110.95,24.99
,-9.253,1.0,-5.958,-9.174,2.008,-8.229,47.39,113.33,26.53
,-9.39,1.218,-6.868,-8.528,2.838,-8.39,44.59,115.15,28.07
23699.0,-7.775,3.577,-9.095,-5.899,-0.447,-9.507,25.62,92.05,21.84
,-6.726,3.264,-9.765,-5.915,-0.847,-9.11,14.98,84.56,19.25
,-6.303,2.029,-10.062,-5.774,-0.507,-9.306,4.69,78.26,16.03
,-5.769,0.73,-9.849,-5.451,-0.124,-9.21,0.91,69.93,14.0
23774.0,-5.281,-0.019,-8.904,-5.487,0.455,-8.641,31.29,-0.77,14.7
,-5.547,0.022,-8.325,-4.927,-0.019,-8.823,31.36,-15.19,12.32
,-5.875,0.273,-8.354,-4.831,-0.577,-8.61,27.58,-33.18,9.03
,-5.43,0.467,-8.538,-5.001,-1.015,-8.571,23.8,-49.63,7.28
23850.0,-5.461,-1.043,-8.313,-5.468,0.06,-9.014,6.37,-108.43,5.04
,-5.8,-0.754,-8.241,-5.683,-0.182,-8.818,5.81,-120.26,3.71
,-5.832,-0.287,-8.402,-6.049,-0.464,-8.677,2.38,-131.46,2.8
,-5.621,0.124,-8.722,-6.155,-0.737,-8.626,-5.11,-140.91,3.01
23926.0,-6.178,-1.153,-8.433,-6.664,-1.141,-7.676,-28.42,-173.81,4.62
,-6.234,-1.541,-8.105,-6.949,-0.541,-7.55,-25.41,-177.38,5.04
,-6.42,-1.622,-8.069,-7.085,0.146,-7.485,-19.88,-181.23,5.25
,-6.435,-1.462,-7.909,-7.097,0.491,-7.463,-13.16,-184.1,5.53
24002.0,-7.107,0.558,-7.404,-7.059,-0.16,-6.609,-15.33,-191.38,7.42
,-7.16,0.388,-7.265,-7.109,-0.203,-6.214,-21.07,-192.85,6.3
,-7.05,0.165,-7.061,-7.167,-0.093,-6.193,-24.57,-194.32,4.13
,-6.997,0.014,-6.791,-7.475,-0.026,-5.915,-25.48,-196.0,1.61
24077.0,-7.942,0.218,-5.602,-8.911,0.201,-3.709,-18.2,-198.94,-12.32
,-8.378,0.44,-5.346,-9.232,0.227,-3.288,-17.15,-198.24,-13.37
,-8.495,0.323,-4.736,-9.512,0.215,-3.001,-16.45,-195.65,-13.65
,-8.753,0.282,-4.116,-9.734,-0.275,-2.264,-15.89,-192.36,-14.91
24153.0,-9.469,-0.531,-1.029,-9.012,-0.077,-0.503,-20.58,-162.68,-19.74
,-9.04,-0.103,-0.909,-8.885,-0.098,0.361,-24.43,-153.09,-23.1
,-8.847,0.129,-0.768,-8.804,-0.383,0.4,-29.54,-140.84,-25.06
,-8.89,0.043,-0.761,-8.564,-0.704,0.672,-34.3,-127.12,-23.52
24228.0,-8.413,-1.098,1.034,-8.224,-0.479,0.593,-43.26,-54.74,-13.58
,-8.337,-1.28,1.103,-8.026,-0.024,0.304,-38.78,-38.5,-9.24
,-8.181,-1.216,1.017,-8.016,0.299,0.034,-33.67,-22.33,-5.18
,-8.282,-0.964,0.95,-7.906,0.44,-0.558,-29.96,-7.42,-1.96
24304.0,-7.882,0.436,-1.113,-17.99,-6.595,5.41,-46.2,61.39,11.9
,-7.889,0.471,-1.539,-18.246,-6.638,3.75,-46.41,72.03,14.07
,-8.5,0.486,-2.024,-11.479,-1.869,0.72,-46.69,80.01,15.05
,-11.481,-1.134,-2.158,-8.059,1.551,-0.089,-50.19,79.66,15.47
24380.0,-8.325,-1.771,-0.747,-11.869,0.464,-1.414,-24.22,48.86,7.56
,-11.024,-5.379,0.359,-10.742,3.195,-5.097,-19.95,59.92,20.23
,-10.569,-6.061,3.422,-7.289,3.75,-3.955,13.58,75.18,35.14
,-12.252,-4.286,1.445,-5.942,2.649,-3.008,55.58,91.77,56.7
24456.0,-6.698,2.405,-2.702,-9.206,1.742,-3.999,17.78,84.56,24.64
,-8.847,2.264,-3.503,-9.596,0.773,-3.542,1.96,76.58,16.03
,-9.43,2.156,-4.384,-9.943,0.112,-3.065,-11.34,72.45,13.3
,-9.074,2.23,-4.515,-9.789,-0.11,-2.874,-18.62,69.72,14.0
24532.0,-9.488,-0.378,-2.994,-9.737,3.206,-3.798,-10.01,56.14,15.19
,-9.292,0.05,-2.883,-9.524,3.599,-4.238,-0.07,55.58,13.93
,-9.552,0.928,-3.185,-9.134,2.728,-4.343,7.56,54.11,13.37
,-9.835,1.993,-3.446,-8.964,1.438,-4.46,7.28,50.26,11.48
24607.0,-9.15,0.608,-4.594,-9.892,0.349,-3.281,-40.74,36.19,1.82
,-9.301,-0.117,-4.365,-9.799,1.168,-3.352,-34.72,33.53,1.54
,-9.292,-0.424,-3.594,-9.328,1.417,-3.13,-26.88,30.94,2.94
,-9.452,-0.22,-3.35,-9.227,0.919,-2.692,-17.99,29.19,5.39
24683.0,-9.737,0.704,-2.469,-9.328,0.876,-3.486,-9.94,25.55,9.87
,-9.852,1.031,-2.67,-9.347,0.522,-3.276,-6.72,24.36,9.45
,-9.521,1.318,-3.039,-9.672,0.639,-3.173,-3.08,24.15,9.66
,-9.402,1.275,-3.429,-9.612,1.553,-3.137,0.42,24.08,9.94
24759.0,-9.531,1.981,-3.063,-9.124,0.799,-2.97,14.49,23.1,10.57
,-9.603,2.048,-3.075,-9.423,1.101,-2.96,10.71,22.82,9.87
,-9.447,1.752,-3.202,-9.462,1.577,-3.297,6.16,22.12,8.54
,-9.117,1.106,-3.02,-9.387,1.316,-3.565,3.36,21.98,8.12
24835.0,-9.349,0.699,-3.711,-9.139,1.074,-4.051,-3.78,19.25,4.41
,-9.225,0.727,-3.929,-9.22,1.043,-3.941,-1.82,18.69,3.36
,-9.17,0.919,-4.061,-9.301,0.895,-3.628,0.56,17.85,2.8
,-9.11,0.998,-4.113,-9.531,1.05,-3.534,0.77,16.52,2.94
24910.0,-9.445,1.196,-3.455,-9.284,1.45,-3.252,3.5,12.95,3.43
,-9.189,1.055,-3.431,-9.284,1.433,-3.245,3.08,13.09,3.85
,-9.05,1.012,-3.281,-9.299,1.352,-3.324,3.08,13.3,4.27
,-9.263,1.247,-3.338,-9.182,1.33,-3.355,2.66,13.09,3.85
24986.0,-9.112,1.144,-3.453,-9.335,1.314,-3.446,-4.97,14.63,2.24
,-9.165,1.017,-3.431,-9.32,1.211,-3.525,-3.01,15.26,2.52
,-9.313,0.976,-3.441,-9.304,1.182,-3.587,0.35,15.12,2.45
,-9.368,1.173,-3.573,-9.174,1.113,-3.575,3.29,15.05,2.38
25061.0,-9.189,1.139,-3.498,-9.17,1.003,-3.125,5.39,15.47,1.89
,-9.22,1.271,-3.539,-9.062,0.79,-3.029,5.32,15.4,1.75
,-9.206,1.242,-3.381,-9.105,0.73,-3.072,3.92,15.26,1.82
,-9.158,1.082,-3.233,-9.177,0.682,-3.037,3.64,15.54,1.96
25137.0,-9.265,0.715,-3.001,-9.007,1.457,-2.733,5.67,19.25,2.31
,-9.215,0.785,-2.95,-8.806,1.412,-2.833,5.95,20.51,2.66
,-9.143,1.101,-2.793,-8.839,1.082,-2.8,5.39,21.56,2.38
,-9.119,1.412,-2.795,-8.971,0.945,-2.793,2.87,22.4,1.61
25213.0,-9.107,0.902,-2.704,-9.349,0.388,-3.242,-6.02,28.28,0.07
,-9.196,0.864,-2.742,-9.416,0.139,-3.515,-3.92,29.82,0.35
,-8.978,0.653,-2.747,-9.514,0.115,-3.79,-2.8,31.71,0.28
,-9.229,0.596,-2.807,-9.524,0.854,-3.996,-1.75,33.67,-0.14
25289.0,-9.318,1.426,-4.173,-9.093,1.326,-4.566,8.12,41.72,-1.33
,-9.246,1.802,-4.346,-9.098,1.194,-4.714,4.27,41.51,-2.31
,-9.009,1.661,-4.468,-9.423,1.295,-4.977,0.07,41.79,-2.59
,-9.007,1.385,-4.515,-9.502,0.517,-4.886,-0.42,42.49,-2.66
25364.0,-10.048,1.809,-4.98,-9.777,-1.905,-3.575,17.92,45.29,-1.61
,-10.983,4.058,-5.257,-10.021,1.05,-3.544,21.77,45.43,-2.87
,-10.672,2.261,-5.207,-9.909,2.096,-3.467,12.11,46.9,-6.58
,-9.658,-1.649,-4.475,-9.691,0.919,-3.422,9.1,50.05,-6.02
25440.0,-9.773,-0.084,-3.364,-9.38,-0.404,-3.065,15.96,60.69,-8.61
,-9.837,-0.151,-3.388,-9.277,0.043,-2.996,15.26,63.21,-9.38
,-9.828,-0.249,-3.34,-9.354,0.316,-3.008,16.45,66.36,-9.73
,-9.591,-0.459,-3.238,-9.387,0.211,-3.08,17.85,69.86,-9.31
25516.0,-9.392,-0.11,-3.025,-10.306,-1.259,-1.685,21.7,86.73,-5.81
,-9.481,-0.352,-2.716,-10.553,-1.632,-1.359,24.29,90.3,-3.36
,-9.789,-0.735,-2.343,-10.727,-1.938,-1.443,29.05,94.08,0.14
,-10.06,-0.969,-1.984,-10.826,-2.091,-1.9,35.21,98.0,4.83
25592.0,-10.622,-1.993,-2.271,-8.875,1.249,-6.37,66.43,119.21,37.31
,-10.242,-1.658,-2.883,-8.832,1.823,-7.368,77.07,122.08,42.0
,-9.634,-0.723,-4.044,-8.897,2.395,-8.416,87.5,122.99,44.17
,-9.182,0.302,-5.19,-9.06,2.807,-9.028,92.4,122.5,44.17
25668.0,-8.894,3.175,-9.45,-6.375,0.723,-10.318,46.13,106.96,30.24
,-8.571,3.417,-9.746,-5.796,0.148,-10.191,38.29,101.85,27.79
,-7.609,3.008,-10.189,-5.626,0.213,-10.349,33.81,97.09,25.9
,-6.985,2.044,-10.412,-5.315,0.244,-10.153,26.6,90.02,23.38
25743.0,-5.236,0.507,-9.988,-5.669,1.022,-9.194,14.35,23.66,13.23
,-5.427,0.766,-9.505,-5.164,0.534,-9.476,17.01,12.04,12.67
,-5.896,1.12,-9.184,-4.527,0.139,-9.277,15.19,-2.87,8.61
,-5.901,1.213,-9.229,-4.424,-0.323,-9.15,8.54,-19.32,5.11
25819.0,-3.881,-0.936,-9.062,-4.214,-1.271,-8.698,-15.05,-86.73,7.14
,-3.759,-1.345,-8.842,-3.915,-0.775,-8.818,-14.7,-97.86,7.84
,-4.209,-1.79,-8.478,-4.346,-0.68,-8.648,-10.57,-110.74,7.77
,-4.444,-1.792,-8.617,-4.896,-0.766,-8.557,-3.85,-125.16,7.0
25894.0,-5.374,-0.62,-8.457,-5.487,-0.969,-7.875,-13.65,-167.72,6.65
,-5.506,-0.397,-8.346,-5.595,-1.223,-8.043,-15.05,-174.09,8.33
,-5.671,-0.538,-7.959,-5.645,-1.263,-7.88,-18.06,-179.9,10.29
,-5.532,-0.773,-7.856,-5.863,-1.192,-7.602,-21.63,-185.57,11.55
25970.0,-6.021,-0.625,-7.533,-6.853,0.797,-7.023,-9.66,-207.13,9.94
,-6.078,0.081,-7.71,-7.27,0.821,-6.714,-7.98,-211.54,7.56
,-6.2,0.608,-7.861,-7.447,0.749,-6.552,-9.52,-215.39,5.18
,-6.31,0.852,-7.588,-7.614,0.591,-6.298,-9.94,-217.49,2.8
26046.0,-7.899,0.215,-5.906,-9.555,-0.723,-3.912,-27.51,-226.45,-14.91
,-8.291,-0.127,-5.492,-9.385,-0.543,-3.173,-29.33,-225.61,-17.36
,-8.708,-0.244,-5.061,-9.296,-0.577,-2.276,-28.91,-224.0,-19.81
,-9.174,-0.57,-4.506,-9.311,-0.766,-0.708,-29.05,-221.06,-21.7
26122.0,-9.751,-0.644,-0.359,-8.536,-0.311,0.648,-24.92,-178.5,-30.59
,-10.017,0.091,-0.395,-8.045,-1.235,1.213,-25.48,-166.11,-32.2
,-9.474,0.548,0.163,-7.897,-1.665,1.919,-31.64,-151.55,-32.62
,-8.983,0.361,0.392,-7.923,-1.591,2.23,-40.95,-135.03,-32.34
26197.0,-7.803,-1.29,2.441,-7.88,0.378,0.409,-28.28,-36.19,-13.86
,-7.65,-0.56,1.955,-7.858,0.598,-0.23,-25.13,-15.4,-9.17
,-7.483,-0.005,1.639,-7.921,0.866,-0.964,-27.86,5.6,-4.97
,-7.662,0.335,1.096,-7.846,1.117,-1.644,-32.83,25.41,-1.12
26273.0,-8.124,1.366,-2.101,-17.172,-6.329,1.721,-54.67,97.02,14.0
,-9.16,1.003,-2.618,-10.043,-0.345,-0.153,-59.22,102.27,15.4
,-13.745,-2.194,-1.168,-7.554,1.967,-0.447,-64.26,92.33,16.8
,-19.71,-7.483,8.995,-7.995,-2.103,-0.246,-39.9,60.69,25.62
26349.0,-11.194,-3.676,0.706,-9.105,0.651,-4.336,-42.42,64.61,27.16
,-11.51,-1.661,0.254,-7.16,1.804,-3.908,-18.76,75.81,36.89
,-11.297,0.203,-1.421,-6.793,2.589,-4.121,3.92,87.99,45.29
,-10.677,0.864,-3.575,-7.918,2.374,-4.245,14.84,97.3,45.43
26425.0,-9.112,1.656,-4.24,-10.385,0.256,-3.096,-12.39,74.48,16.17
,-9.153,1.082,-3.75,-9.82,0.72,-3.266,-17.64,71.96,16.66
,-9.282,0.656,-3.333,-9.019,0.701,-3.128,-18.27,68.81,16.17
,-10.213,0.103,-2.919,-8.674,0.608,-3.183,-17.71,64.96,14.77
26501.0,-9.32,0.799,-3.544,-9.536,1.084,-4.326,-20.3,54.81,12.04
,-9.344,1.512,-3.91,-9.438,0.057,-4.537,-20.16,52.36,9.17
,-9.378,2.158,-4.027,-9.287,-0.373,-4.494,-28.21,49.42,7.98
,-9.603,1.938,-4.166,-9.033,0.074,-4.152,-39.76,46.06,6.51
26576.0,-9.265,0.433,-3.924,-9.457,0.598,-3.242,-22.82,34.23,6.72
,-9.586,1.187,-3.824,-9.474,0.462,-3.209,-19.53,31.57,5.81
,-9.445,1.73,-3.757,-9.574,0.727,-3.139,-21.49,29.82,5.74
,-9.318,1.287,-3.479,-9.452,1.448,-3.137,-25.34,28.91,7.49
26652.0,-9.426,1.902,-3.254,-9.469,0.916,-4.247,-5.46,25.13,8.89
,-9.404,2.044,-3.319,-9.385,0.802,-4.429,-6.02,24.5,8.33
,-9.402,1.766,-3.611,-9.335,0.689,-4.369,-8.47,23.66,7.42
,-9.361,1.228,-3.881,-9.45,0.969,-4.255,-10.01,22.75,6.86
26727.0,-9.423,1.335,-4.054,-9.452,1.189,-3.285,2.45,15.89,4.97
,-9.378,1.555,-3.841,-9.409,1.242,-3.436,0.91,14.77,4.06
,-9.395,1.412,-3.561,-9.208,1.029,-3.518,-3.36,13.79,2.66
,-9.44,1.347,-3.345,-9.234,0.861,-3.489,-6.65,12.88,1.61
26803.0,-9.337,0.794,-3.403,-9.265,0.988,-3.345,-4.2,10.92,0.98
,-9.385,1.094,-3.391,-9.356,0.641,-3.206,-3.01,10.43,0.56
,-9.284,1.232,-3.441,-9.282,0.201,-2.941,-4.48,10.29,0.35
,-9.253,1.106,-3.297,-9.361,0.601,-2.967,-6.37,10.43,0.56
26879.0,-9.328,0.921,-2.989,-9.383,0.675,-3.008,3.08,13.02,2.1
,-9.335,0.969,-3.032,-9.323,0.754,-3.037,2.31,13.72,2.31
,-9.186,0.715,-3.111,-9.201,0.943,-3.022,0.91,14.49,2.38
,-9.301,0.577,-3.015,-9.229,1.012,-3.08,1.26,15.12,2.73
26955.0,-9.184,0.845,-2.986,-9.095,0.558,-2.876,-1.05,17.64,2.66
,-9.098,0.462,-2.876,-9.141,0.9,-2.821,-2.52,18.9,3.29
,-9.088,0.172,-2.812,-9.165,1.055,-2.962,-1.26,20.37,3.99
,-9.16,0.235,-2.85,-9.062,0.723,-2.891,1.26,21.28,4.76
27030.0,-9.055,0.503,-2.8,-9.368,1.268,-2.814,3.5,28.14,7.14
,-9.194,0.38,-2.675,-9.186,1.668,-3.113,8.12,29.75,7.98
,-9.179,0.775,-2.599,-9.117,1.687,-3.269,11.97,31.5,8.33
,-9.206,1.048,-2.699,-9.17,1.517,-3.544,12.67,33.11,8.19
27106.0,-9.119,1.426,-4.092,-9.634,1.369,-4.637,-0.77,38.01,4.06
,-9.1,1.098,-4.482,-9.507,1.397,-4.537,0.7,38.29,3.85
,-9.21,1.125,-4.738,-9.44,1.445,-4.336,4.55,38.43,3.85
,-9.474,1.232,-4.736,-9.524,1.419,-4.2,9.24,38.78,3.57
27182.0,-9.548,1.127,-4.128,-10.756,3.833,-3.427,15.82,43.19,1.12
,-9.519,0.751,-4.152,-10.794,3.778,-3.745,19.11,43.61,3.22
,-9.785,0.727,-3.671,-10.024,-0.371,-3.714,25.27,44.59,3.36
,-9.914,1.737,-3.704,-9.727,-1.809,-3.381,28.14,46.41,2.38
27258.0,-10.038,0.177,-3.264,-9.423,-0.967,-3.826,23.38,56.21,-2.1
,-10.122,1.517,-3.728,-9.598,-0.335,-3.862,26.39,58.24,-2.03
,-9.866,0.254,-3.944,-9.605,0.156,-3.896,18.97,61.18,-4.48
,-9.564,-1.015,-3.886,-9.545,0.524,-3.915,16.24,64.26,-5.04
27333.0,-9.488,0.579,-3.869,-9.521,0.038,-3.424,21.56,75.32,-4.2
,-9.512,0.11,-3.75,-9.495,0.017,-3.254,19.04,77.7,-3.15
,-9.627,-0.129,-3.644,-9.541,-0.534,-2.726,21.07,79.8,-1.75
,-9.593,0.0,-3.527,-9.6,-1.101,-2.192,24.36,82.04,0.0
27409.0,-9.708,-1.529,-1.886,-9.485,-1.409,-2.446,50.54,98.7,22.89
,-9.761,-1.723,-1.721,-9.131,-1.082,-3.116,60.9,102.83,29.82
,-9.801,-1.67,-1.735,-8.928,-0.522,-4.264,70.07,106.89,36.75
,-9.715,-1.536,-2.065,-8.619,0.397,-5.336,78.68,110.39,43.33
27484.0,-8.569,1.278,-6.48,-8.801,2.489,-9.268,105.14,107.87,50.12
,-8.744,2.075,-7.693,-8.514,2.3,-9.938,93.38,103.18,45.08
,-8.906,2.699,-8.327,-7.861,1.91,-10.345,74.9,97.58,39.76
,-8.77,2.577,-9.103,-6.822,0.962,-10.598,56.35,93.59,36.19
27560.0,-5.879,0.146,-10.486,-4.018,-1.048,-9.914,35.77,70.56,34.23
,-5.542,-0.62,-10.412,-4.527,-0.823,-9.6,33.67,60.62,32.83
,-4.989,-1.029,-10.29,-4.453,-0.452,-8.976,29.89,48.02,30.66
,-4.31,-1.024,-10.297,-4.965,0.321,-8.521,28.14,35.84,29.33
27636.0,-4.829,0.883,-8.483,-4.901,-0.043,-8.026,36.75,-26.25,25.55
,-4.518,1.034,-8.373,-5.004,-0.546,-8.002,26.25,-39.2,21.28
,-4.611,0.83,-8.418,-4.688,-0.902,-8.275,15.47,-51.66,17.43
,-4.561,0.483,-8.222,-4.637,-1.156,-8.48,5.74,-63.42,14.98
27712.0,-5.169,-1.357,-8.16,-6.111,-0.811,-8.179,-21.7,-113.61,7.49
,-5.719,-1.18,-8.308,-6.114,-1.027,-8.076,-22.33,-121.66,5.67
,-6.281,-1.086,-7.997,-6.329,-1.421,-8.107,-23.17,-129.43,5.04
,-6.379,-0.828,-8.177,-6.535,-1.718,-7.899,-26.53,-136.71,4.69
27788.0,-6.588,-1.747,-7.676,-6.748,-0.084,-7.545,-20.58,-162.05,9.73
,-6.662,-1.433,-7.538,-6.815,0.184,-7.521,-13.72,-165.9,10.92
,-6.614,-1.024,-7.499,-6.71,0.357,-7.65,-8.61,-168.84,11.48
,-6.688,-0.512,-7.533,-6.674,0.196,-7.329,-7.0,-171.22,11.9
27863.0,-6.868,0.079,-7.253,-7.413,-0.005,-6.935,-22.19,-183.82,10.22
,-7.066,-0.038,-7.081,-7.377,0.01,-6.6,-22.54,-186.97,8.75
,-7.193,0.007,-7.152,-7.693,-0.019,-6.078,-22.47,-190.89,6.51
,-7.231,0.038,-7.045,-7.827,0.141,-5.762,-22.12,-194.11,4.06
27939.0,-8.21,0.325,-5.439,-9.337,0.806,-3.252,-13.3,-201.46,-10.57
,-8.674,0.493,-5.004,-9.43,0.258,-2.63,-11.9,-199.99,-11.34
,-8.77,0.73,-4.614,-9.253,-0.335,-1.991,-11.97,-198.24,-13.09
,-9.083,0.952,-3.963,-9.469,-0.902,-1.33,-12.18,-195.23,-15.05
28015.0,-9.466,-1.029,-1.098,-8.411,-0.29,0.23,-13.37,-156.24,-16.45
,-9.282,-0.948,-0.818,-8.031,-0.294,0.967,-6.93,-144.83,-15.12
,-9.172,-0.866,-0.361,-8.071,-0.33,1.266,-1.82,-133.14,-14.49
,-9.11,-0.581,-0.323,-8.193,-0.225,1.558,-0.28,-120.82,-14.98
28091.0,-8.334,0.239,1.577,-8.251,-0.369,0.778,-0.56,-39.34,-3.71
,-8.282,0.629,1.462,-8.313,-0.349,0.39,-5.67,-23.03,-2.45
,-8.107,0.531,1.311,-8.437,0.091,-0.034,-12.95,-6.79,-1.19
,-8.16,0.091,1.141,-8.502,0.531,-0.617,-18.27,9.52,0.98
28166.0,-8.734,0.756,-0.936,-16.403,-4.336,1.519,-31.85,72.1,9.8
,-9.502,0.426,-1.536,-9.837,1.776,0.95,-39.27,77.77,10.57
,-13.769,-2.3,-1.419,-8.447,2.931,1.168,-45.43,69.09,11.13
,-18.265,-5.276,6.257,-9.497,-0.763,1.57,-22.4,41.65,20.3
28242.0,-10.644,-3.819,2.206,-10.837,0.603,0.5,-69.93,43.4,2.1
,-10.055,-3.654,2.393,-10.711,3.819,-0.876,-46.55,60.41,11.41
,-9.631,-2.97,2.477,-9.457,4.685,-2.345,-15.75,75.53,21.0
,-10.426,-1.426,1.984,-8.71,4.247,-3.467,10.43,84.14,27.86
28317.0,-8.05,3.819,-3.384,-9.856,-0.976,-3.099,-45.78,74.62,10.64
,-7.98,3.355,-3.34,-9.696,-1.591,-3.065,-54.88,67.06,8.61
,-8.72,2.163,-3.295,-9.519,-1.548,-2.941,-61.39,61.39,7.07
,-9.409,0.581,-3.154,-9.701,-1.522,-3.116,-61.74,58.31,8.89
28393.0,-9.825,-1.393,-2.946,-9.366,1.594,-2.735,0.07,53.13,17.29
,-9.718,-1.165,-2.948,-9.316,2.434,-2.838,6.58,52.71,17.36
,-9.505,-0.565,-2.828,-9.612,2.893,-3.029,11.69,52.22,17.22
,-9.514,0.304,-2.718,-9.407,2.553,-3.209,11.41,51.1,15.96
28469.0,-9.11,1.29,-3.285,-9.581,0.273,-3.273,-68.6,40.88,4.55
,-9.119,0.208,-3.369,-9.555,1.077,-3.046,-64.82,38.85,4.83
,-9.435,-0.385,-3.501,-9.787,1.771,-2.845,-47.74,37.1,6.23
,-9.775,-0.416,-3.494,-9.734,2.35,-2.685,-25.9,34.79,9.17
28545.0,-9.529,2.659,-2.716,-9.495,-0.225,-3.027,-17.71,25.83,7.91
,-9.435,2.324,-2.759,-9.686,0.081,-3.111,-31.29,25.55,6.93
,-9.354,1.208,-2.958,-9.608,0.785,-3.154,-38.36,25.34,6.72
,-9.32,0.199,-2.977,-9.581,1.369,-3.429,-34.51,25.13,7.42
28621.0,-9.548,1.594,-3.635,-9.536,0.957,-3.75,11.13,20.58,12.11
,-9.375,1.539,-3.757,-9.574,0.756,-3.668,7.77,19.18,11.34
,-9.306,1.407,-3.776,-9.404,0.555,-3.372,4.9,17.57,10.92
,-9.411,1.249,-3.819,-9.512,0.711,-3.096,3.29,15.89,10.08
28696.0,-9.567,1.156,-2.977,-9.421,1.17,-3.123,13.23,9.59,9.31
,-9.658,1.51,-2.943,-9.409,1.146,-3.168,12.11,8.47,8.47
,-9.411,1.697,-3.008,-9.418,1.027,-2.905,8.96,7.91,8.05
,-9.351,1.405,-3.092,-9.368,1.165,-2.766,6.16,7.7,8.12
28772.0,-9.447,1.452,-2.596,-9.395,0.995,-2.532,7.28,6.44,6.79
,-9.572,1.579,-2.587,-9.495,1.158,-2.441,6.16,6.44,6.16
,-9.438,1.555,-2.632,-9.545,1.299,-2.424,4.2,6.65,5.88
,-9.332,1.247,-2.623,-9.5,1.385,-2.493,2.45,6.79,5.74
28848.0,-9.43,1.196,-2.608,-9.227,0.66,-2.651,6.02,9.03,5.95
,-9.375,1.012,-2.651,-9.325,0.503,-2.611,6.72,9.52,6.02
,-9.438,1.015,-2.694,-9.43,0.613,-2.548,8.61,9.59,6.09
,-9.387,1.027,-2.764,-9.519,1.034,-2.625,10.08,10.01,6.23
28924.0,-9.418,1.374,-2.862,-9.32,0.735,-2.814,23.8,13.16,9.1
,-9.225,1.374,-2.814,-9.273,0.897,-2.694,23.66,13.86,9.38
,-9.122,1.156,-2.929,-9.246,1.132,-2.467,24.01,14.28,9.59
,-9.265,0.842,-2.86,-9.34,1.555,-2.587,25.83,14.7,10.15
28999.0,-9.328,1.563,-2.943,-9.088,0.385,-3.831,32.69,17.5,11.48
,-9.282,1.266,-3.283,-9.17,0.696,-3.726,30.24,17.71,11.48
,-9.129,0.814,-3.558,-9.328,1.177,-3.501,29.26,18.2,11.48
,-9.055,0.335,-3.743,-9.404,1.582,-3.352,31.64,18.62,12.04
29075.0,-9.131,1.409,-3.123,-9.921,1.127,-1.857,44.87,21.07,14.63
,-9.026,0.878,-2.783,-9.761,2.441,-2.082,46.41,22.68,15.54
,-9.1,0.706,-2.56,-9.593,2.534,-2.68,51.94,24.57,16.66
,-9.292,0.424,-2.13,-9.318,1.711,-3.293,58.73,26.74,17.57
29150.0,-8.918,0.842,-3.972,-9.136,1.263,-5.181,47.11,30.38,15.12
,-8.737,0.675,-4.422,-9.134,0.742,-5.128,55.02,30.66,15.89
,-8.894,1.062,-4.769,-9.198,0.282,-4.855,63.07,29.96,16.94
,-9.083,1.421,-5.039,-9.354,0.785,-4.57,67.69,29.19,17.22
29226.0,-9.292,1.732,-4.496,-9.395,2.582,-3.632,80.78,27.09,17.78
,-9.057,1.816,-4.355,-10.388,4.18,-3.556,78.05,27.51,17.29
,-9.067,1.637,-4.185,-9.304,2.123,-4.319,75.46,28.35,17.36
,-8.89,0.909,-5.453,-10.419,3.637,-4.563,71.61,28.84,18.06
29302.0,-10.167,2.687,-5.08,-8.538,-0.366,-6.076,94.92,29.12,25.97
,-9.081,0.909,-5.403,-8.39,0.524,-6.088,83.3,30.1,25.83
,-8.947,-0.646,-5.736,-8.342,1.161,-6.018,82.32,29.75,24.5
,-8.658,-0.964,-5.961,-8.069,1.247,-6.078,90.3,28.07,23.52
29378.0,-8.083,0.878,-6.023,-7.7,1.125,-5.76,84.49,21.7,19.39
,-7.832,0.572,-5.992,-7.688,1.488,-5.846,85.75,20.51,21.0
,-7.681,0.488,-5.879,-7.664,1.524,-5.918,91.21,19.39,23.24
,-7.581,0.711,-5.872,-7.724,1.326,-5.961,98.07,17.99,25.97
29453.0,-7.767,1.024,-5.925,-7.767,0.27,-5.891,106.54,13.44,35.21
,-7.722,0.744,-5.872,-7.691,0.196,-5.906,107.8,12.6,36.61
,-7.743,0.553,-5.865,-7.71,-0.086,-5.757,110.11,11.9,38.22
,-7.787,0.404,-5.954,-7.813,-0.141,-5.741,112.84,10.92,39.69
29529.0,-7.949,-0.22,-5.652,-8.205,-1.005,-5.59,121.17,6.93,44.52
,-8.145,-0.345,-5.669,-8.133,-1.06,-5.554,122.57,6.16,45.01
,-8.222,-0.55,-5.635,-8.145,-1.158,-5.544,123.06,5.53,45.57
,-8.244,-0.773,-5.602,-8.21,-1.184,-5.47,124.25,5.11,46.55
29604.0,-8.406,-1.031,-5.64,-8.454,-0.491,-5.542,138.11,2.73,51.73
,-8.533,-0.823,-5.642,-8.402,-0.395,-5.41,140.35,1.89,52.5
,-8.552,-0.644,-5.64,-8.418,-0.237,-5.434,141.47,1.05,52.92
,-8.48,-0.531,-5.516,-8.378,-0.249,-5.441,141.26,0.63,53.41
29680.0,-8.332,-0.361,-5.367,-8.256,-0.749,-5.197,134.61,-1.89,55.58
,-8.234,-0.486,-5.339,-8.327,-0.828,-5.138,133.28,-1.96,56.28
,-8.189,-0.634,-5.202,-8.311,-0.962,-5.068,133.84,-1.89,57.05
,-8.258,-0.706,-5.229,-8.409,-1.0,-5.075,134.82,-2.45,57.75
29756.0,-8.591,-1.007,-5.068,-8.753,-0.952,-4.886,139.86,-3.22,63.63
,-8.82,-0.926,-4.977,-8.622,-1.141,-4.695,141.96,-3.57,64.96
,-9.052,-0.83,-5.087,-8.531,-1.29,-4.688,142.94,-4.06,65.94
,-8.99,-0.821,-5.068,-8.641,-1.196,-4.767,141.75,-4.41,66.99
29832.0,-8.763,-1.132,-4.905,-8.244,-1.594,-4.501,144.9,-5.39,74.69
,-8.636,-1.177,-4.795,-8.236,-1.445,-4.532,145.25,-5.74,76.3
,-8.588,-1.362,-4.719,-8.356,-1.153,-4.666,145.81,-5.67,77.98
,-8.406,-1.503,-4.659,-8.524,-0.859,-4.618,147.0,-5.81,79.38
29908.0,-8.562,-0.55,-4.558,-8.492,-0.268,-4.104,156.73,-7.14,82.04
,-8.533,-0.507,-4.429,-8.634,-0.208,-4.087,154.77,-7.35,81.34
,-8.363,-0.534,-4.183,-8.701,-0.105,-4.056,151.83,-7.35,80.5
,-8.392,-0.328,-3.953,-8.76,-0.017,-4.075,149.73,-7.56,79.31
29983.0,-8.703,-0.036,-3.915,-9.028,-0.208,-3.829,118.23,-10.85,69.51
,-8.598,-0.026,-3.711,-9.191,-0.297,-3.948,111.23,-11.13,67.41
,-8.662,-0.079,-3.613,-9.208,-0.507,-3.733,104.86,-10.92,65.45
,-8.784,-0.165,-3.788,-9.184,-0.727,-3.585,99.61,-10.92,63.63
30059.0,-9.119,-0.945,-3.472,-9.318,-0.615,-3.477,91.35,-9.94,59.08
,-9.021,-1.007,-3.448,-9.356,-0.565,-3.501,93.66,-9.8,59.57
,-9.143,-0.847,-3.412,-9.342,-0.392,-3.573,96.39,-10.01,60.06
,-9.21,-0.742,-3.41,-9.33,-0.282,-3.551,98.98,-10.01,60.9
30135.0,-9.296,-0.273,-3.685,-8.88,-0.414,-3.496,113.47,-10.43,68.88
,-9.148,-0.122,-3.611,-8.856,-0.024,-3.601,117.53,-10.5,69.93
,-9.095,-0.45,-3.601,-8.904,0.29,-3.549,121.38,-10.22,71.12
,-8.993,-0.591,-3.518,-9.196,0.357,-3.424,126.49,-9.87,72.59
30211.0,-9.435,0.373,-3.257,-9.229,1.027,-2.644,138.67,-10.99,70.98
,-9.397,0.644,-3.139,-9.383,0.806,-2.74,135.73,-11.34,69.44
,-9.277,0.972,-2.941,-9.469,0.761,-2.74,130.41,-11.9,67.55
,-9.158,1.041,-2.706,-9.574,0.713,-2.637,123.48,-11.62,65.45
30286.0,-9.653,0.725,-2.623,-9.246,0.316,-2.711,88.55,-9.73,46.48
,-9.579,0.73,-2.644,-9.294,0.278,-2.802,80.08,-8.89,42.49
,-9.428,0.689,-2.673,-9.306,0.266,-2.974,70.14,-8.12,38.36
,-9.351,0.514,-2.69,-9.306,0.333,-3.008,60.41,-7.28,34.16
30362.0,-9.359,0.208,-3.226,-10.51,-0.057,-3.135,12.04,-0.84,8.26
,-9.459,0.062,-3.135,-10.5,0.141,-2.919,-0.07,0.7,2.66
,-9.77,-0.139,-3.269,-10.239,0.232,-2.809,-11.62,1.75,-1.82
,-10.258,-0.184,-3.376,-9.847,0.27,-2.405,-20.72,2.24,-4.62
30437.0,-9.584,0.199,-2.654,-8.906,0.503,-3.008,-26.25,5.46,-2.87
,-9.39,0.246,-2.74,-8.875,0.419,-2.984,-20.37,6.16,-0.77
,-9.186,0.44,-2.797,-8.983,0.297,-3.005,-12.67,6.86,1.96
,-9.024,0.562,-2.96,-9.182,0.098,-2.927,-6.58,6.93,4.48
30513.0,-9.416,-0.01,-3.154,-9.524,0.749,-3.25,5.81,8.54,8.68
,-9.495,-0.172,-3.051,-9.249,1.22,-3.467,5.81,8.89,8.68
,-9.564,-0.06,-2.852,-9.165,1.206,-3.384,5.46,9.31,8.82
,-9.617,0.122,-3.135,-9.292,0.955,-3.391,3.29,9.24,8.12
30589.0,-9.304,0.562,-3.403,-9.421,0.043,-3.005,-18.97,10.36,5.81
,-9.241,0.191,-3.185,-9.426,0.165,-3.106,-15.54,10.71,7.91
,-9.203,-0.179,-2.994,-9.229,0.433,-3.288,-8.61,11.27,10.22
,-9.201,-0.187,-2.84,-9.261,0.529,-3.439,0.14,11.97,12.18
30665.0,-9.239,0.792,-3.659,-9.091,1.113,-4.145,9.17,12.67,13.09
,-9.265,1.235,-3.838,-9.186,1.402,-4.262,7.07,12.25,12.25
,-9.253,1.345,-4.066,-9.107,1.709,-4.458,2.73,11.55,11.41
,-9.119,1.223,-4.154,-8.839,1.835,-4.463,-0.7,10.78,11.34
30740.0,-8.784,1.089,-4.48,-9.282,1.625,-3.836,-7.28,5.11,9.24
,-8.708,0.022,-4.123,-9.093,2.015,-3.893,-9.24,4.97,10.01
,-9.22,-0.433,-3.714,-9.031,1.972,-3.96,-4.2,4.48,10.71
,-9.713,0.4,-3.764,-8.985,1.381,-3.826,1.96,2.8,9.73
30816.0,-9.287,1.11,-3.941,-9.186,0.706,-3.707,-6.65,1.54,8.61
,-9.012,1.084,-4.058,-9.249,1.213,-3.558,-7.98,0.7,8.4
,-8.789,0.404,-3.948,-9.112,1.51,-3.429,-7.7,0.98,9.66
,-9.014,0.318,-3.853,-9.05,1.362,-3.25,-4.13,0.84,10.5
30892.0,-9.165,1.082,-2.998,-9.306,2.139,-2.972,-3.5,3.15,10.71
,-9.239,1.316,-2.864,-9.34,1.902,-3.084,0.7,3.99,11.06
,-9.32,1.563,-2.718,-9.241,1.433,-3.235,3.57,4.97,10.92
,-9.273,2.163,-2.8,-9.174,1.333,-3.362,3.01,5.53,10.29
30968.0,-9.143,1.376,-3.446,-9.014,1.259,-3.91,6.93,10.22,9.38
,-9.117,1.407,-3.587,-8.959,1.278,-4.066,9.45,10.57,9.03
,-9.112,1.383,-3.704,-9.007,1.144,-4.178,10.92,10.78,8.82
,-9.105,1.393,-3.786,-8.916,1.089,-4.188,11.41,11.06,8.47
31044.0,-9.052,1.048,-4.025,-8.978,1.61,-4.53,15.4,11.34,8.75
,-9.232,1.287,-4.073,-8.976,1.321,-4.575,18.83,11.2,9.17
,-9.076,1.627,-4.152,-9.028,1.261,-4.621,20.16,10.99,9.24
,-9.076,1.833,-4.286,-9.052,1.283,-4.681,19.04,10.78,9.03
31119.0,-8.959,1.041,-4.597,-9.024,2.194,-3.888,20.65,9.45,8.4
,-9.014,0.881,-4.389,-9.194,2.139,-3.678,23.66,9.59,8.96
,-9.131,1.027,-4.2,-9.076,1.515,-3.384,27.86,9.8,9.52
,-9.06,1.577,-3.994,-9.34,1.321,-2.991,30.17,9.66,9.45
31195.0,-8.923,2.218,-3.02,-8.952,1.019,-3.18,20.16,10.36,6.23
,-8.923,1.871,-3.013,-9.012,0.869,-3.281,17.01,11.55,6.09
,-8.746,1.438,-2.996,-9.072,0.637,-3.221,14.49,13.02,6.3
,-8.88,1.072,-3.111,-9.04,0.424,-3.285,15.19,14.21,6.65
31270.0,-9.131,0.548,-3.34,-9.237,0.749,-3.872,17.15,21.63,7.77
,-9.177,0.835,-3.525,-9.134,1.57,-4.128,17.08,23.03,7.91
,-9.083,0.981,-3.716,-9.165,1.981,-4.228,15.75,24.57,7.98
,-9.153,0.766,-3.848,-8.964,1.984,-4.381,15.82,26.39,8.4
31346.0,-9.146,1.651,-4.314,-9.091,1.168,-4.87,14.56,29.61,7.98
,-9.301,1.508,-4.453,-8.978,1.266,-4.91,14.35,30.1,7.42
,-9.373,1.091,-4.666,-9.021,1.05,-4.86,14.84,30.45,7.21
,-9.074,1.424,-4.865,-8.949,1.015,-4.843,16.24,30.52,7.21
31422.0,-9.005,1.005,-4.759,-10.086,2.546,-4.671,25.83,33.67,7.77
,-9.122,1.247,-4.795,-9.806,1.187,-4.575,29.19,34.51,8.12
,-9.387,1.838,-4.774,-9.457,0.227,-4.288,31.22,35.07,7.7
,-9.753,2.618,-4.666,-9.301,0.866,-4.149,30.66,35.77,6.09
31498.0,-9.349,1.426,-4.279,-8.904,0.675,-4.501,31.5,41.72,4.06
,-9.251,1.208,-4.329,-8.923,1.048,-4.398,29.26,43.47,2.8
,-9.026,0.715,-4.472,-8.952,1.194,-4.276,27.23,45.22,2.1
,-8.942,0.517,-4.475,-8.952,1.084,-4.13,27.79,46.48,2.03
31573.0,-8.76,0.809,-3.881,-9.007,-0.022,-3.192,26.46,54.39,1.05
,-8.701,0.591,-3.699,-8.966,-0.419,-3.044,26.53,56.7,1.96
,-8.849,0.498,-3.575,-9.016,-0.763,-2.907,27.72,59.08,3.15
,-8.995,0.278,-3.422,-8.954,-1.029,-2.874,28.98,61.6,4.69
31649.0,-8.928,-1.175,-2.716,-8.997,-0.603,-4.14,46.41,78.47,22.26
,-8.971,-1.184,-2.704,-9.107,-1.074,-4.429,54.88,82.32,27.09
,-9.253,-0.83,-3.278,-9.028,-1.184,-4.92,62.58,84.98,30.66
,-9.146,-0.677,-3.872,-9.045,-1.163,-5.52,65.66,88.13,33.81
31725.0,-8.928,-1.082,-6.044,-8.172,2.388,-8.074,88.55,92.75,49.49
,-8.667,-0.775,-6.365,-8.368,2.24,-8.646,96.53,92.82,50.61
,-8.636,0.266,-6.875,-8.413,1.869,-8.65,103.25,93.17,50.12
,-8.646,1.553,-7.755,-7.99,1.649,-8.861,102.13,93.66,49.07
31801.0,-7.356,1.479,-9.072,-6.248,-0.498,-9.363,66.64,92.89,44.24
,-7.073,1.034,-9.043,-5.922,-1.307,-9.172,57.19,86.52,41.09
,-6.755,0.548,-9.045,-5.652,-1.881,-8.938,44.59,77.91,39.06
,-6.444,0.175,-8.957,-5.494,-1.843,-8.813,33.39,67.55,38.78
31877.0,-5.97,-1.496,-8.583,-6.109,0.981,-8.215,50.33,24.08,46.9
,-6.243,-0.797,-8.11,-5.666,0.811,-8.622,57.47,10.99,44.66
,-6.329,0.098,-7.894,-5.439,0.196,-8.425,58.87,-3.01,41.72
,-6.219,0.68,-7.966,-5.016,-0.567,-8.476,50.33,-18.41,36.68
31952.0,-4.824,-1.129,-8.433,-5.829,-1.357,-8.162,-3.43,-79.31,29.61
,-5.116,-1.543,-8.15,-5.468,-1.194,-8.224,-2.31,-88.76,29.26
,-5.547,-1.78,-7.932,-5.607,-1.134,-8.088,1.61,-98.77,28.98
,-6.174,-1.747,-7.65,-5.65,-1.06,-8.074,5.46,-110.74,28.21
32028.0,-5.86,-0.888,-7.964,-6.296,-0.469,-7.674,8.68,-150.36,32.69
,-5.992,-0.727,-7.789,-6.176,-0.182,-7.602,10.43,-157.36,33.67
,-6.32,-0.625,-7.724,-6.116,0.124,-7.629,11.55,-164.92,34.23
,-6.281,-0.591,-7.827,-6.238,0.275,-7.514,13.86,-171.71,34.51
32103.0,-6.461,0.498,-7.605,-7.251,0.436,-6.81,4.13,-194.88,23.03
,-6.487,0.742,-7.846,-7.437,0.242,-6.734,-2.1,-199.15,20.02
,-6.691,0.749,-7.801,-7.55,0.127,-6.451,-5.25,-201.53,17.64
,-6.951,0.644,-7.248,-7.746,-0.06,-6.21,-6.02,-202.51,15.05
32179.0,-7.947,-0.163,-5.989,-9.019,0.201,-4.212,-14.77,-212.17,-2.24
,-8.002,-0.012,-5.575,-9.409,0.225,-3.74,-15.26,-212.66,-5.95
,-8.112,0.17,-5.051,-9.359,0.165,-3.216,-14.77,-210.49,-9.24
,-8.514,0.148,-4.628,-9.201,0.175,-2.611,-16.1,-207.27,-12.18
32255.0,-9.375,0.055,-2.156,-9.086,-0.402,-0.318,-29.82,-177.24,-21.49
,-9.49,-0.261,-1.63,-8.921,-0.567,0.177,-31.78,-167.93,-22.26
,-9.677,-0.436,-0.969,-8.629,-0.342,0.199,-32.34,-157.99,-22.82
,-9.493,-0.369,-0.68,-8.346,-0.189,0.407,-33.88,-147.28,-24.22
32331.0,-8.337,-0.285,0.955,-8.282,-0.06,1.388,-39.06,-74.69,-21.21
,-8.323,-0.409,1.275,-8.244,-0.067,1.086,-39.2,-57.89,-17.71
,-8.284,-0.455,1.452,-8.337,-0.081,0.72,-38.78,-40.95,-14.42
,-8.294,-0.22,1.529,-8.452,0.144,0.215,-38.85,-24.08,-11.06
32406.0,-8.469,0.328,-0.376,-9.911,-0.404,-1.823,-49.49,51.8,6.79
,-8.497,0.323,-0.823,-15.554,-4.424,0.503,-52.92,63.07,9.59
,-8.212,0.483,-1.251,-18.576,-6.188,4.779,-55.51,73.01,11.83
,-8.366,0.558,-1.665,-14.195,-3.151,1.302,-57.61,80.92,13.51
32482.0,-9.22,1.113,0.5,-9.713,-3.063,2.175,-5.32,37.24,-7.35
,-8.184,0.79,1.132,-10.491,-1.68,1.634,-37.17,44.17,-6.09
,-9.517,-3.142,1.158,-11.73,-0.328,-0.361,-52.71,54.39,9.38
,-10.103,-4.168,1.548,-10.749,1.041,-4.168,-40.95,66.22,19.11
32558.0,-7.971,2.623,-4.867,-9.686,0.972,-3.865,15.61,100.1,35.35
,-6.351,2.647,-4.032,-9.505,1.031,-4.214,6.16,93.45,31.08
,-6.865,2.173,-3.845,-8.978,1.101,-3.989,-2.03,84.77,24.36
,-8.756,1.196,-3.63,-9.351,0.61,-3.977,-11.27,78.54,16.38
32634.0,-9.746,0.134,-3.932,-9.423,2.453,-3.819,-4.48,63.14,19.88
,-9.797,0.168,-3.565,-9.663,3.726,-4.389,-4.55,60.97,19.39
,-9.445,0.309,-3.374,-9.363,3.991,-4.645,-3.99,59.15,18.34
,-9.239,0.967,-3.355,-9.16,3.144,-4.733,-1.82,57.19,14.98
32709.0,-9.222,1.263,-4.74,-9.414,0.163,-3.252,-62.44,41.58,2.59
,-9.397,-0.44,-4.592,-9.574,0.828,-3.065,-60.48,38.36,1.61
,-9.244,-1.089,-4.214,-9.615,1.218,-3.037,-47.95,35.35,1.75
,-9.217,-0.579,-3.716,-9.56,1.173,-3.309,-32.41,33.39,3.08
32785.0,-9.351,0.706,-3.312,-9.521,1.833,-4.185,-22.19,30.66,9.94
,-9.354,0.285,-3.384,-9.296,2.163,-4.46,-17.85,30.24,10.71
,-9.488,0.51,-3.62,-9.261,2.075,-4.24,-9.52,29.19,10.85
,-9.569,1.151,-3.838,-9.237,1.766,-4.324,-0.63,28.14,10.71
32860.0,-9.217,1.354,-4.19,-9.373,1.137,-3.738,-1.54,18.27,6.65
,-9.38,0.912,-4.166,-9.361,1.165,-3.503,-1.89,16.87,6.44
,-9.464,0.826,-4.147,-9.344,0.943,-3.283,-0.91,15.61,6.02
,-9.402,1.017,-3.955,-9.438,0.826,-3.022,-0.42,14.35,5.67
32936.0,-9.598,0.699,-3.168,-9.117,1.005,-3.738,-1.05,13.16,3.78
,-9.402,0.823,-3.178,-9.249,0.945,-3.743,3.36,13.58,4.13
,-9.294,0.926,-3.441,-9.407,0.998,-3.733,7.14,13.72,4.48
,-9.146,1.091,-3.558,-9.191,1.187,-3.544,9.38,13.44,4.76
33012.0,-9.16,1.015,-3.36,-9.225,1.445,-3.094,10.15,12.04,5.88
,-9.28,1.297,-3.285,-9.273,1.156,-2.871,9.24,11.48,5.18
,-9.273,1.527,-3.24,-9.323,0.969,-2.642,7.21,11.34,4.9
,-9.328,1.441,-3.233,-9.282,0.797,-2.412,4.13,11.55,4.41
33088.0,-9.366,0.701,-2.321,-9.33,0.591,-2.484,1.89,16.59,5.11
,-9.306,0.727,-2.28,-9.177,0.586,-2.596,3.36,18.13,5.46
,-9.282,0.572,-2.237,-9.136,0.672,-2.625,4.27,20.09,5.53
,-9.287,0.603,-2.304,-9.186,0.66,-2.742,6.02,21.98,6.09
33164.0,-9.153,0.675,-2.771,-9.107,1.328,-3.312,4.97,29.19,6.09
,-9.15,0.692,-2.714,-9.11,1.127,-3.419,4.48,30.66,6.23
,-9.198,1.031,-2.816,-9.239,0.967,-3.503,5.39,31.92,6.58
,-9.107,1.299,-3.061,-9.191,0.931,-3.546,4.97,32.83,6.44
33239.0,-9.232,1.094,-3.685,-9.287,1.053,-4.202,1.75,37.8,4.55
,-9.186,1.082,-3.927,-9.421,1.455,-4.24,2.59,38.57,4.69
,-9.105,0.792,-4.075,-9.526,1.543,-4.252,3.92,39.41,4.97
,-9.251,0.625,-4.147,-9.689,1.438,-4.283,7.0,40.18,5.53
33315.0,-9.655,1.206,-4.408,-9.677,1.034,-4.532,11.62,43.61,4.83
,-9.78,1.192,-4.573,-9.462,0.873,-4.503,14.63,44.8,4.97
,-9.775,1.034,-4.578,-9.557,0.998,-4.346,17.92,45.08,6.65
,-9.591,1.192,-4.537,-9.978,1.445,-4.319,22.05,46.27,7.07
33391.0,-10.625,4.111,-3.989,-9.763,-0.206,-2.852,38.78,52.5,1.89
,-11.28,3.805,-4.322,-9.909,1.395,-3.022,26.11,53.76,-3.57
,-9.998,-0.414,-4.011,-9.584,0.421,-3.147,13.02,57.12,-6.44
,-9.648,-2.352,-3.288,-9.325,-0.833,-3.092,22.54,60.13,-3.22
33467.0,-9.438,-0.443,-2.917,-9.392,-0.179,-2.938,25.62,73.71,-3.22
,-9.572,0.438,-2.91,-9.617,0.223,-2.998,26.04,76.79,-3.64
,-9.497,0.481,-2.91,-9.801,0.311,-3.161,22.47,80.01,-4.76
,-9.32,0.007,-2.948,-9.734,-0.05,-3.068,18.41,83.72,-4.41
33542.0,-9.588,-0.639,-2.603,-9.84,-1.096,-2.307,22.05,98.98,7.42
,-9.629,-1.153,-2.056,-9.708,-0.828,-2.864,30.38,102.9,13.02
,-9.746,-1.33,-1.9,-9.411,-0.438,-3.704,41.72,106.54,19.11
,-9.804,-1.321,-1.912,-9.103,-0.244,-4.606,53.55,109.2,24.71
33618.0,-8.559,-0.098,-5.614,-8.93,1.027,-8.591,71.61,118.58,40.18
,-8.569,0.371,-6.571,-8.801,1.591,-8.878,72.17,120.19,39.62
,-8.72,0.316,-7.318,-8.069,2.163,-9.124,72.24,121.1,40.53
,-8.964,0.668,-8.196,-7.863,2.759,-9.799,74.13,119.14,41.02
33693.0,-7.447,2.529,-9.385,-5.205,0.751,-10.756,74.41,84.63,33.67
,-7.416,2.278,-10.01,-4.731,0.005,-10.84,67.69,74.27,30.87
,-6.707,1.534,-10.156,-5.444,-0.57,-9.962,50.19,63.0,25.76
,-6.016,1.05,-10.194,-5.994,-0.72,-9.062,32.83,51.8,19.95
33769.0,-6.255,-0.261,-8.916,-5.128,0.826,-8.78,29.33,6.79,23.94
,-5.961,0.589,-8.923,-4.977,0.364,-8.715,25.27,-10.36,20.51
,-5.81,1.232,-8.918,-5.138,-0.16,-8.5,12.32,-26.32,18.13
,-5.446,1.206,-8.636,-5.006,-0.66,-8.612,-3.08,-41.23,16.45
33845.0,-4.496,-1.132,-8.536,-4.956,-1.697,-8.425,-30.94,-101.15,9.94
,-3.91,-1.383,-8.562,-5.363,-1.106,-8.334,-30.1,-108.57,8.26
,-4.142,-1.701,-8.313,-5.434,-0.629,-8.232,-27.44,-114.73,6.51
,-4.826,-1.89,-8.402,-5.233,-0.56,-8.497,-22.4,-124.32,4.2
33921.0,-5.004,-0.72,-8.387,-5.389,-0.826,-8.586,-23.03,-166.18,9.8
,-4.891,-0.957,-8.167,-5.444,-0.873,-8.516,-25.13,-172.83,11.34
,-4.953,-1.108,-7.961,-5.607,-0.849,-8.119,-23.59,-179.34,11.69
,-5.209,-0.993,-7.956,-5.726,-0.462,-7.93,-21.07,-186.55,10.71
33997.0,-5.824,0.079,-7.944,-6.545,0.311,-7.767,-9.66,-211.82,7.49
,-6.114,0.462,-8.043,-6.691,0.27,-7.629,-15.26,-216.65,6.16
,-6.262,0.593,-8.098,-6.932,0.244,-7.43,-22.82,-220.57,5.18
,-6.497,0.426,-7.911,-7.284,0.17,-7.243,-29.4,-224.42,3.71
34072.0,-7.696,0.342,-7.124,-8.906,0.29,-4.075,-36.33,-242.27,-17.85
,-8.009,0.754,-7.021,-8.851,-0.156,-2.333,-33.11,-242.83,-21.91
,-8.586,0.916,-6.2,-9.557,-0.459,-1.843,-32.13,-240.52,-25.55
,-9.368,0.842,-4.905,-10.258,0.0,-1.29,-37.31,-236.6,-30.1
34148.0,-10.134,0.534,-0.596,-8.095,-2.123,1.405,-57.61,-186.41,-46.62
,-9.452,0.249,0.196,-7.478,-1.907,2.245,-67.62,-167.09,-45.71
,-9.06,-0.972,0.601,-7.389,-1.651,2.67,-75.18,-145.32,-42.63
,-8.78,-1.91,0.885,-7.497,-1.196,2.618,-74.13,-122.5,-37.24
34224.0,-7.442,-0.593,2.245,-7.894,0.639,-1.12,-16.17,7.77,-1.26
,-7.502,0.086,1.575,-10.077,-0.639,-1.85,-16.45,32.55,4.34
,-7.468,0.663,0.907,-17.928,-6.152,2.491,-22.4,55.02,8.47
,-7.519,0.926,-0.06,-18.839,-5.855,2.967,-30.03,75.46,12.6
34300.0,-11.192,-0.704,1.285,-9.698,-4.369,0.436,24.64,55.16,17.5
,-8.449,1.792,0.72,-9.837,-1.101,-0.225,5.88,59.64,-0.63
,-8.808,-1.764,0.859,-10.156,0.57,-2.608,-23.17,68.25,7.0
,-10.909,-5.602,1.218,-9.885,2.252,-3.008,-22.89,79.87,23.03
34375.0,-8.002,3.266,-4.042,-8.696,3.168,-5.659,49.35,104.3,35.98
,-6.762,3.575,-4.453,-8.875,3.795,-4.901,26.18,98.28,26.53
,-7.212,2.819,-5.25,-9.631,3.36,-4.791,7.07,92.4,21.91
,-8.315,2.429,-5.762,-10.1,2.675,-4.329,-1.19,87.22,20.23
34451.0,-10.156,1.677,-4.259,-9.194,0.4,-4.197,-26.25,61.46,11.55
,-9.871,0.584,-4.247,-9.488,1.441,-4.355,-28.7,59.78,10.43
,-9.371,0.144,-4.063,-9.557,2.496,-4.286,-26.6,57.54,9.24
,-8.942,0.196,-4.128,-9.466,2.704,-4.176,-20.44,54.53,9.03
34526.0,-9.38,2.101,-4.204,-9.509,0.318,-2.934,-42.14,37.73,0.63
,-9.261,1.225,-3.888,-9.517,0.993,-3.037,-50.26,35.84,-0.21
,-9.383,0.309,-3.668,-9.828,1.414,-3.061,-50.54,33.95,0.49
,-9.529,-0.139,-3.403,-9.667,1.747,-3.214,-44.45,31.57,1.12
34602.0,-9.332,1.467,-3.202,-9.356,0.584,-3.654,-24.29,25.97,5.04
,-9.351,0.749,-3.252,-9.5,0.562,-3.721,-25.2,25.69,5.53
,-9.526,0.601,-3.441,-9.653,0.715,-3.721,-22.54,25.06,5.32
,-9.45,0.603,-3.668,-9.462,1.125,-3.764,-18.83,23.94,4.9
34678.0,-9.426,1.055,-3.819,-9.474,0.787,-3.716,-5.11,19.6,5.11
,-9.28,0.883,-3.857,-9.485,1.139,-3.671,-5.18,18.62,4.69
,-9.296,0.481,-3.79,-9.356,1.381,-3.47,-4.34,17.71,4.9
,-9.354,0.464,-3.699,-9.399,1.603,-3.273,-1.89,16.66,4.76
34754.0,-9.464,1.371,-3.111,-9.351,0.835,-3.008,-10.22,12.88,0.49
,-9.351,0.948,-2.967,-9.232,0.428,-2.871,-10.08,13.02,0.77
,-9.227,0.873,-2.886,-9.258,0.239,-2.788,-6.86,13.3,1.61
,-9.399,0.921,-2.972,-9.423,0.129,-2.625,-3.22,13.44,2.31
34829.0,-9.363,0.392,-2.635,-9.366,0.625,-2.675,7.98,17.71,6.02
,-9.435,0.584,-2.62,-9.395,0.634,-2.534,8.12,18.41,6.51
,-9.344,0.83,-2.773,-9.356,0.826,-2.424,6.58,19.11,7.07
,-9.287,0.732,-2.816,-9.284,0.931,-2.297,5.18,20.02,7.63
34905.0,-9.174,1.027,-2.28,-9.062,0.443,-2.228,8.47,26.04,8.47
,-9.143,1.122,-2.283,-9.234,0.677,-2.367,6.86,27.37,8.05
,-9.083,1.053,-2.24,-9.275,0.852,-2.745,4.83,28.98,7.84
,-9.119,0.565,-2.268,-9.232,0.804,-2.982,3.85,30.52,7.56
34980.0,-9.265,0.522,-3.206,-9.395,0.993,-3.494,6.72,38.43,8.47
,-9.225,0.852,-3.34,-9.469,1.247,-3.805,8.54,39.27,8.47
,-9.337,1.208,-3.309,-9.588,1.242,-4.075,8.12,40.25,7.63
,-9.363,1.106,-3.417,-9.61,0.737,-4.329,6.3,41.58,7.0
35056.0,-9.643,0.562,-4.369,-9.852,0.747,-4.264,9.24,45.15,7.7
,-9.876,0.876,-4.36,-9.849,1.034,-3.984,11.97,45.71,8.12
,-9.84,1.005,-4.389,-9.823,1.536,-4.018,11.9,46.48,7.84
,-10.029,0.9,-4.147,-9.83,1.003,-4.054,12.53,48.23,7.28
35132.0,-9.517,1.462,-4.204,-9.21,1.17,-4.185,20.3,54.46,6.09
,-9.519,1.139,-4.202,-9.493,1.74,-4.326,21.84,55.93,5.95
,-9.371,1.11,-4.238,-10.407,4.949,-4.295,24.36,57.4,5.95
,-9.244,0.96,-4.14,-10.689,3.893,-4.568,27.86,59.01,6.02
35208.0,-9.359,-0.771,-4.348,-9.246,0.34,-3.408,10.71,66.85,-6.09
,-9.139,-2.264,-3.735,-9.083,-0.254,-3.223,22.89,68.95,-1.89
,-9.433,-0.273,-3.537,-9.232,0.373,-3.111,41.72,69.72,2.94
,-9.557,1.091,-3.594,-9.588,0.998,-3.137,45.85,72.1,3.22
35284.0,-9.588,0.739,-3.144,-9.995,-0.818,-2.053,19.88,85.05,-2.52
,-9.631,-0.218,-3.166,-10.29,-0.907,-1.529,15.12,88.27,-2.52
,-9.6,-0.713,-3.008,-10.371,-1.108,-1.316,17.01,91.07,-0.42
,-9.806,-0.785,-2.704,-10.388,-1.354,-1.369,23.66,94.15,3.78
35359.0,-10.194,-1.56,-1.594,-8.815,0.311,-5.59,72.59,111.44,33.39
,-10.132,-1.462,-2.216,-8.737,1.563,-6.174,80.29,113.33,38.15
,-9.698,-1.194,-3.025,-9.1,2.41,-7.784,85.61,115.36,41.23
,-9.241,-0.495,-4.499,-9.519,2.752,-8.454,90.65,116.34,42.0
35435.0,-9.426,2.95,-8.454,-7.676,2.828,-10.392,57.75,117.32,25.34
,-9.421,3.242,-8.902,-6.844,1.651,-10.806,48.79,113.19,23.38
,-9.016,3.52,-9.368,-5.836,0.27,-11.137,38.5,105.0,20.86
,-8.212,3.47,-9.502,-5.039,-0.909,-11.467,30.24,95.97,18.83
35511.0,-5.087,-1.395,-10.562,-5.772,-0.225,-8.44,-1.4,40.39,8.82
,-6.016,-1.22,-9.947,-5.154,0.101,-8.634,10.29,25.76,11.41
,-6.207,-0.902,-9.282,-4.896,0.304,-8.981,18.13,6.02,13.02
,-5.724,-0.378,-8.775,-4.566,0.019,-8.99,23.87,-11.48,13.86
35587.0,-4.274,-0.11,-9.064,-3.738,-1.01,-8.681,2.17,-91.28,11.06
,-4.037,-0.354,-8.741,-3.934,-0.601,-8.648,-2.73,-104.37,10.85
,-4.192,-0.826,-8.504,-4.819,-0.179,-8.681,-6.72,-119.77,8.12
,-3.8,-1.0,-8.715,-5.537,-0.146,-8.653,-8.47,-133.35,4.48
35662.0,-5.832,-0.06,-8.607,-5.24,-2.094,-8.914,-28.98,-178.64,-5.81
,-5.566,-0.153,-8.538,-5.262,-2.716,-8.641,-39.55,-186.55,-3.43
,-5.377,-0.694,-8.521,-5.81,-2.831,-7.959,-49.35,-194.25,-1.75
,-5.169,-1.381,-8.638,-6.131,-2.137,-7.861,-53.97,-201.6,-1.33
35738.0,-6.214,-1.189,-7.944,-6.693,0.823,-7.779,4.83,-223.02,0.14
,-6.303,-0.352,-8.052,-6.822,0.818,-7.643,6.3,-226.31,0.07
,-6.363,0.33,-8.177,-7.203,0.503,-6.755,2.66,-229.95,-0.14
,-6.437,0.756,-7.99,-7.758,0.211,-6.262,-2.73,-232.26,-0.91
35813.0,-8.119,0.048,-5.968,-8.935,0.438,-3.994,-17.57,-234.01,-15.33
,-8.547,0.055,-5.465,-8.727,0.117,-2.711,-19.18,-231.35,-18.69
,-8.787,0.034,-4.817,-9.105,-0.251,-2.216,-23.94,-227.99,-22.47
,-8.837,0.371,-4.472,-9.481,-0.141,-1.582,-28.63,-222.81,-25.97
35889.0,-9.505,0.249,-1.273,-8.2,-0.699,0.404,-35.98,-168.84,-38.29
,-9.155,0.483,-1.022,-8.126,-0.916,1.101,-41.72,-155.05,-39.55
,-8.753,0.177,-0.622,-8.074,-0.806,1.385,-49.7,-139.65,-39.2
,-8.502,-0.404,-0.565,-8.193,-0.452,1.45,-54.81,-122.5,-36.82
35965.0,-8.165,-0.546,1.376,-7.827,0.622,-0.395,-33.6,-21.98,-13.44
,-7.909,-0.577,1.184,-7.782,1.007,-0.926,-33.25,-0.77,-7.7
,-7.794,-0.392,0.768,-7.882,1.244,-1.393,-32.27,19.46,-1.54
,-7.798,0.091,0.261,-8.94,0.979,-2.029,-31.5,38.15,4.62
36041.0,-14.427,-1.96,-1.039,-7.576,1.122,0.761,-53.2,85.54,24.99
,-20.17,-7.073,6.822,-9.438,-2.405,0.663,-42.0,57.33,28.0
,-15.24,-5.58,2.024,-11.137,-3.123,1.57,-15.61,47.46,18.83
,-8.985,-0.388,1.517,-10.787,-1.63,-0.225,-13.79,50.4,-3.92
36117.0,-12.278,0.596,-1.804,-5.463,4.511,-4.494,6.58,117.39,58.24
,-11.019,-0.019,-5.427,-8.038,3.561,-5.106,18.06,117.95,47.67
,-8.148,1.845,-5.475,-9.574,1.883,-5.121,17.22,108.85,36.05
,-5.353,3.704,-3.85,-9.464,0.871,-4.432,11.55,94.92,29.68
36192.0,-9.399,0.079,-4.803,-9.349,-3.439,-3.886,-43.68,67.27,16.59
,-9.629,-0.62,-4.384,-9.117,-3.128,-3.788,-39.9,62.86,13.58
,-9.935,-1.529,-4.36,-9.15,-1.091,-4.192,-35.7,60.27,14.63
,-9.648,-2.572,-4.034,-9.359,1.522,-4.274,-31.36,59.78,17.71
36268.0,-9.667,2.86,-4.391,-9.502,0.311,-3.317,6.93,49.63,19.18
,-9.564,3.735,-4.513,-9.569,0.522,-3.02,-8.82,45.08,13.79
,-9.337,3.285,-4.396,-9.619,1.405,-2.824,-24.15,41.58,11.48
,-9.313,1.51,-3.812,-9.481,2.364,-2.781,-31.15,39.27,12.11
36344.0,-9.435,2.594,-2.699,-9.237,1.366,-4.226,0.63,32.06,12.32
,-9.584,2.326,-2.783,-9.347,1.182,-4.312,-7.28,31.71,11.83
,-9.667,2.027,-3.431,-9.371,1.271,-4.563,-13.93,30.8,10.01
,-9.495,1.828,-3.91,-9.134,1.204,-4.381,-17.85,29.82,8.61
36420.0,-9.158,0.919,-4.171,-9.316,1.4,-3.405,-10.43,20.16,6.72
,-9.404,0.706,-3.874,-9.344,1.194,-3.245,-10.15,18.55,6.37
,-9.452,0.864,-3.592,-9.497,0.713,-3.317,-8.89,17.36,6.58
,-9.404,1.304,-3.415,-9.579,0.349,-3.441,-8.47,16.1,6.79
36495.0,-9.454,0.347,-3.484,-9.167,0.756,-3.666,-4.41,13.79,6.23
,-9.306,0.725,-3.723,-9.263,0.773,-3.549,0.7,13.37,6.65
,-9.32,1.022,-3.819,-9.368,1.003,-3.309,2.87,12.67,6.86
,-9.229,0.981,-3.762,-9.383,1.462,-3.199,3.08,12.32,7.21
36571.0,-9.306,1.625,-3.025,-9.533,0.263,-2.182,6.65,10.99,6.79
,-9.222,1.563,-2.773,-9.387,0.105,-2.123,2.24,11.27,6.44
,-9.349,1.113,-2.486,-9.318,0.292,-2.101,-1.47,12.25,6.23
,-9.509,0.622,-2.278,-9.237,0.639,-2.168,-1.82,13.51,6.79
36646.0,-9.354,0.668,-2.158,-9.172,1.295,-2.876,9.73,21.91,9.66
,-9.411,0.634,-2.209,-8.945,1.39,-3.269,9.38,23.87,9.59
,-9.428,0.507,-2.312,-8.952,1.28,-3.494,10.64,25.83,9.87
,-9.445,0.713,-2.458,-8.964,1.117,-3.46,12.74,27.16,9.59
36722.0,-9.136,1.201,-3.439,-9.186,0.826,-3.312,5.11,29.4,8.26
,-9.27,1.134,-3.259,-9.162,0.598,-3.513,5.11,30.03,8.19
,-9.155,1.079,-3.125,-9.196,0.536,-3.666,5.67,31.01,8.61
,-9.182,1.003,-3.128,-9.402,0.613,-3.829,7.28,32.2,9.31
36798.0,-9.464,0.668,-3.723,-9.277,1.366,-4.118,14.42,37.03,8.54
,-9.323,1.072,-3.862,-9.469,1.412,-4.238,13.09,37.24,8.05
,-9.146,1.311,-3.972,-9.557,1.216,-4.508,11.41,37.8,8.05
,-9.105,1.452,-4.037,-9.586,1.718,-4.53,9.8,38.5,8.05
36874.0,-9.715,1.366,-4.523,-9.548,1.182,-4.235,28.14,42.14,13.23
,-9.715,1.079,-4.568,-9.569,1.242,-4.207,35.91,43.47,11.97
,-9.476,1.948,-4.628,-9.576,1.429,-4.202,37.94,44.17,10.99
,-9.562,1.536,-4.326,-9.887,1.929,-4.166,35.0,44.87,9.73
36949.0,-10.648,4.19,-3.967,-9.698,0.586,-3.008,41.23,50.05,3.57
,-10.541,2.802,-4.101,-9.952,2.391,-3.106,28.21,52.01,-1.4
,-9.308,-1.311,-3.728,-9.787,2.029,-3.128,18.55,55.51,-2.73
,-9.411,-2.19,-3.027,-9.648,0.799,-3.092,31.78,57.96,1.19
37025.0,-9.514,-0.306,-2.958,-9.488,-0.763,-3.032,10.99,71.26,-8.96
,-9.512,-0.802,-2.886,-9.383,-0.785,-2.982,10.08,74.34,-7.84
,-9.512,-0.883,-2.974,-9.246,-1.024,-2.955,12.32,77.42,-6.09
,-9.543,-0.897,-3.005,-9.182,-1.321,-2.759,15.05,80.64,-4.27
37101.0,-9.213,-1.747,-2.424,-9.177,-1.551,-2.802,35.98,98.42,15.61
,-9.375,-2.123,-2.34,-9.22,-0.797,-3.431,46.27,102.55,21.49
,-9.316,-2.142,-2.496,-9.342,-0.184,-4.252,56.98,105.84,26.95
,-9.277,-2.003,-2.45,-8.988,0.273,-5.224,68.88,108.64,32.34
37177.0,-8.765,0.581,-6.128,-9.466,2.785,-9.095,79.59,112.28,39.55
,-8.813,1.048,-6.703,-9.158,3.032,-9.32,76.23,112.35,37.03
,-9.095,1.709,-7.633,-8.603,3.113,-9.694,71.26,112.0,33.39
,-9.356,2.472,-8.547,-7.901,3.12,-9.847,62.51,111.16,31.36
37253.0,-6.865,3.092,-10.251,-4.068,-0.567,-10.558,24.15,87.92,14.91
,-6.174,2.544,-10.534,-4.027,-1.206,-10.27,12.25,76.93,11.2
,-5.626,1.505,-10.703,-4.276,-1.115,-9.732,1.54,64.75,7.28
,-5.08,0.498,-10.586,-5.264,-0.481,-8.945,-8.54,52.36,5.04
37328.0,-5.674,0.287,-8.454,-5.008,0.66,-8.77,30.45,-1.96,7.21
,-5.803,0.641,-8.138,-4.535,0.254,-8.672,27.79,-18.34,5.39
,-5.461,0.756,-8.239,-4.188,-0.34,-8.703,21.49,-36.33,2.31
,-5.145,0.962,-8.488,-4.087,-1.273,-8.483,14.0,-51.31,0.14
37404.0,-4.436,-1.809,-8.346,-5.336,-0.244,-8.473,-11.55,-108.08,-0.63
,-4.547,-1.79,-8.428,-5.676,0.01,-8.413,-5.39,-119.77,-3.43
,-4.714,-1.508,-8.502,-5.609,0.103,-8.5,-0.56,-130.34,-6.51
,-4.666,-0.756,-8.686,-5.69,-0.005,-8.284,1.26,-138.18,-8.33
37479.0,-5.726,-0.321,-8.251,-5.2,-1.606,-8.588,-39.97,-172.06,-3.57
,-5.609,-0.835,-8.205,-5.717,-1.709,-7.858,-44.59,-178.64,-2.52
,-5.633,-1.271,-8.107,-6.248,-1.204,-7.605,-43.89,-184.8,-1.89
,-5.568,-1.522,-8.607,-6.377,-0.457,-7.7,-39.48,-191.03,-1.82
