Timestamp,AccX,AccY,AccZ,GyroX,GyroY,GyroZ,MagnX,MagnY,MagnZ
0.0,-9.093,-0.668,-3.929,-9.038,-0.648,-4.147,2.45,1.33,0.7
,-9.031,-0.634,-3.994,-9.0,-0.62,-4.149,2.66,1.54,0.77
,-9.062,-0.613,-4.058,-8.966,-0.699,-4.116,2.73,1.54,0.7
,-9.045,-0.596,-4.073,-8.997,-0.66,-4.085,2.73,1.47,0.91
76.0,-9.091,-0.593,-4.078,-9.036,-0.613,-4.056,3.15,1.47,0.91
,-9.048,-0.625,-4.08,-9.088,-0.584,-3.979,2.66,1.47,0.7
,-9.021,-0.653,-4.082,-9.088,-0.56,-3.999,2.31,1.33,0.7
,-9.009,-0.613,-4.068,-9.083,-0.567,-4.03,2.59,1.4,0.77
152.0,-9.072,-0.663,-4.116,-9.067,-0.62,-4.073,2.17,1.54,0.63
,-8.966,-0.646,-4.056,-9.007,-0.637,-4.054,2.1,1.68,0.7
,-9.04,-0.663,-4.111,-9.067,-0.61,-4.018,2.17,1.68,0.7
,-8.997,-0.682,-4.089,-9.1,-0.593,-4.051,2.17,1.54,0.56
227.0,-8.997,-0.641,-4.097,-9.069,-0.593,-4.073,2.17,1.4,0.77
,-9.016,-0.725,-4.133,-9.024,-0.61,-4.011,2.1,1.47,0.84
,-8.99,-0.711,-4.099,-9.048,-0.613,-4.039,2.59,1.54,0.98
,-8.988,-0.651,-4.082,-9.062,-0.632,-4.001,2.8,1.4,0.98
302.0,-8.993,-0.632,-4.042,-8.971,-0.732,-4.078,2.24,1.75,0.98
,-9.043,-0.61,-4.116,-9.009,-0.632,-4.027,2.24,1.75,0.91
,-9.024,-0.656,-4.039,-9.064,-0.586,-4.03,2.17,1.68,1.05
,-9.019,-0.677,-4.025,-9.019,-0.55,-4.054,2.03,1.61,0.91
378.0,-9.05,-0.622,-4.054,-9.124,-0.553,-4.171,2.03,1.68,0.98
,-9.005,-0.653,-4.025,-9.139,-0.579,-4.302,2.1,1.89,1.12
,-9.009,-0.646,-4.082,-8.964,-0.67,-4.314,2.17,2.03,1.19
,-9.086,-0.608,-4.128,-8.952,-0.648,-4.393,2.31,2.1,1.19
454.0,-8.949,-0.651,-4.381,-9.122,-0.644,-3.833,1.54,0.63,1.12
,-8.899,-0.622,-4.29,-9.184,-0.622,-3.867,1.61,0.21,1.19
,-8.969,-0.637,-4.147,-9.11,-0.694,-3.86,1.75,0.14,1.33
,-8.938,-0.646,-4.046,-8.997,-0.715,-3.893,1.82,0.07,1.4
530.0,-8.949,-0.804,-4.018,-9.038,-0.66,-4.037,1.12,0.77,1.96
,-8.957,-0.797,-4.118,-9.028,-0.591,-4.037,1.54,1.05,2.03
,-8.995,-0.756,-4.149,-8.99,-0.656,-4.156,2.1,1.12,2.38
,-8.983,-0.708,-4.075,-8.981,-0.522,-4.207,2.31,1.12,2.59
605.0,-9.014,-0.622,-4.221,-9.012,-0.536,-4.03,2.03,0.49,3.29
,-8.995,-0.653,-4.161,-8.997,-0.579,-3.944,2.1,0.49,3.43
,-9.038,-0.536,-4.145,-9.055,-0.61,-3.967,2.38,0.07,3.29
,-9.024,-0.57,-4.078,-9.028,-0.629,-3.958,2.03,0.0,3.36
681.0,-9.036,-0.617,-3.903,-8.99,-0.536,-3.884,-0.28,0.21,3.5
,-9.127,-0.55,-3.917,-9.019,-0.601,-3.908,-0.28,0.56,3.57
,-9.067,-0.471,-3.924,-9.028,-0.601,-3.826,-0.98,0.42,3.57
,-9.088,-0.455,-4.02,-9.036,-0.574,-3.845,-2.1,0.42,3.57
757.0,-9.093,-0.51,-3.848,-9.05,-0.605,-3.881,-4.34,1.4,3.85
,-9.05,-0.548,-3.807,-9.074,-0.469,-3.853,-5.18,1.82,3.99
,-9.012,-0.632,-3.826,-9.131,-0.433,-3.881,-5.6,2.1,3.92
,-9.062,-0.634,-3.929,-9.119,-0.412,-4.116,-5.53,2.31,3.99
833.0,-8.981,-0.467,-4.147,-8.985,-0.581,-4.087,-7.42,2.73,4.69
,-8.921,-0.467,-4.226,-9.048,-0.531,-4.042,-8.05,2.73,4.83
,-8.923,-0.507,-4.212,-9.016,-0.572,-3.824,-8.54,2.45,4.9
,-9.005,-0.625,-4.178,-8.988,-0.713,-3.771,-8.47,2.31,5.18
909.0,-8.978,-0.639,-3.898,-9.158,-0.337,-3.74,-8.4,3.22,6.44
,-8.945,-0.675,-3.783,-8.976,-0.426,-3.987,-8.61,3.71,6.93
,-9.016,-0.603,-3.812,-8.976,-0.22,-4.451,-8.96,4.13,7.14
,-9.158,-0.443,-3.92,-8.894,-0.22,-4.214,-9.66,4.34,7.21
984.0,-8.789,-0.543,-4.336,-9.038,-0.452,-4.247,-19.74,2.59,5.81
,-8.763,-0.591,-4.46,-9.064,-0.199,-4.264,-21.7,1.89,5.6
,-8.756,-0.969,-4.262,-8.964,-0.278,-4.269,-23.38,1.68,5.53
,-8.815,-0.799,-4.233,-8.72,-0.452,-4.171,-23.73,1.54,5.39
1060.0,-8.658,-0.682,-4.147,-8.949,-0.177,-3.714,-27.93,0.63,6.09
,-8.83,-0.431,-4.106,-9.273,0.802,-3.929,-25.69,0.98,7.0
,-9.012,-0.349,-4.044,-9.385,1.496,-4.07,-23.94,1.47,7.63
,-8.839,-0.579,-3.865,-9.229,1.795,-4.147,-22.75,2.17,8.4
1135.0,-9.167,1.747,-4.209,-9.301,1.29,-4.092,-14.63,2.45,8.33
,-9.103,1.409,-4.176,-9.34,1.323,-4.044,-14.14,2.38,7.98
,-9.129,1.156,-4.154,-9.072,1.019,-4.063,-11.97,2.52,7.84
,-9.215,1.187,-4.14,-8.988,0.359,-3.898,-9.73,2.52,7.28
1211.0,-9.002,-0.026,-3.898,-9.15,1.07,-3.599,-1.54,4.48,6.58
,-9.067,0.263,-3.798,-9.0,0.491,-3.544,7.63,6.16,8.4
,-9.232,0.771,-3.764,-9.052,0.089,-3.611,14.63,7.7,9.17
,-9.208,1.249,-3.64,-9.115,0.148,-3.903,17.36,8.54,9.1
1287.0,-8.88,-0.022,-3.96,-8.861,0.424,-3.991,22.89,12.11,8.75
,-8.837,0.182,-4.061,-8.993,0.704,-3.948,23.73,12.88,8.68
,-8.961,0.436,-4.209,-8.938,0.897,-3.831,23.73,13.09,8.26
,-8.906,0.44,-4.168,-8.88,0.859,-3.637,22.05,13.44,8.12
1363.0,-8.973,0.625,-3.467,-9.081,1.122,-3.195,13.16,16.31,6.02
,-9.074,0.546,-3.24,-8.988,0.62,-3.357,11.06,17.36,5.46
,-9.112,0.715,-3.07,-8.811,0.019,-3.484,8.05,18.34,4.48
,-9.067,0.969,-3.022,-8.758,-0.005,-3.719,3.99,19.46,3.57
1438.0,-8.837,0.273,-3.881,-8.71,-0.165,-4.738,-2.45,26.95,2.31
,-8.835,0.646,-4.111,-8.844,-0.105,-4.937,-1.26,28.42,2.31
,-8.76,0.648,-4.269,-8.885,0.239,-5.08,-1.61,29.4,2.1
,-8.763,0.165,-4.547,-8.703,0.692,-5.111,-0.84,30.45,2.24
1514.0,-8.672,0.778,-5.185,-8.748,-0.043,-4.977,13.86,33.04,3.29
,-8.373,0.998,-5.114,-8.894,0.005,-4.458,12.95,32.48,3.29
,-8.71,1.18,-5.296,-9.086,0.503,-4.231,10.99,32.13,2.52
,-8.66,0.581,-5.08,-9.225,0.369,-3.632,8.89,31.92,1.89
1589.0,-9.22,0.409,-3.687,-8.871,-3.709,-4.022,16.59,41.44,1.75
,-9.38,0.105,-3.769,-10.584,-0.407,-3.759,18.9,44.38,1.54
,-9.301,0.014,-3.867,-9.966,0.249,-3.936,23.52,48.09,1.61
,-11.029,0.304,-4.408,-10.56,-0.677,-4.068,30.38,55.16,0.56
1665.0,-9.823,-0.218,-3.838,-11.031,0.235,-3.999,35.21,67.9,1.82
,-10.002,-0.211,-3.69,-9.83,-3.477,-3.183,36.68,71.68,1.33
,-10.435,1.431,-3.877,-10.376,-1.744,-2.704,35.98,74.9,-0.63
,-11.314,2.881,-4.042,-10.818,-0.093,-3.022,31.43,77.56,-5.6
1741.0,-10.524,-0.737,-3.23,-12.359,-1.998,-1.682,24.22,99.19,-6.09
,-10.474,-1.575,-2.814,-12.864,-2.223,-0.457,20.37,103.95,-6.51
,-11.156,-1.192,-2.592,-13.321,-0.952,0.648,23.03,108.78,-5.39
,-11.962,-1.156,-2.57,-13.975,-0.165,1.871,26.53,114.1,-3.64
1817.0,-14.166,-0.677,1.498,-10.806,2.754,-4.011,57.26,144.9,25.13
,-13.506,-1.443,0.713,-12.771,4.147,-8.619,56.14,148.68,32.97
,-12.379,-1.699,-0.345,-12.132,5.126,-10.893,64.05,153.02,40.46
,-10.488,-0.651,-0.165,-11.462,3.637,-11.854,81.76,159.11,44.94
1893.0,-10.861,2.601,-12.254,-6.75,-3.752,-12.637,15.33,129.71,7.63
,-10.146,1.627,-12.089,-5.958,-3.68,-12.295,-10.99,110.11,8.4
,-8.593,0.589,-12.307,-6.329,-2.91,-11.493,-31.5,88.62,12.74
,-7.1,-1.933,-12.283,-6.205,-2.237,-10.565,-41.51,71.54,18.97
1968.0,-5.98,-1.835,-9.361,-4.099,-0.727,-9.77,31.92,-28.28,50.4
,-5.607,-1.139,-8.868,-3.704,-0.964,-9.488,24.71,-53.34,52.85
,-5.544,-1.046,-9.342,-3.396,-0.916,-9.356,11.9,-79.45,52.92
,-4.721,-0.876,-9.526,-3.297,-0.928,-9.016,-0.49,-103.32,53.48
2044.0,-3.429,-1.031,-9.055,-3.312,-0.988,-9.115,-27.86,-189.56,50.05
,-3.565,-1.0,-8.851,-3.195,-0.821,-9.581,-29.12,-205.87,46.55
,-3.503,-0.933,-9.107,-3.017,-0.845,-9.596,-27.93,-222.74,43.68
,-3.216,-1.129,-9.019,-3.068,-0.603,-9.586,-25.76,-237.51,39.62
2120.0,-3.166,-0.787,-9.33,-4.843,-0.337,-8.392,-39.27,-293.93,18.76
,-3.295,-1.113,-9.428,-5.19,0.469,-8.141,-38.78,-303.8,10.71
,-3.113,-1.476,-8.835,-5.525,1.218,-7.514,-29.75,-310.1,2.31
,-3.886,-1.137,-8.593,-5.65,1.347,-6.6,-15.05,-313.32,-5.6
2196.0,-6.748,1.467,-6.356,-8.16,-2.553,-1.589,-28.91,-318.29,-53.76
,-8.713,0.936,-5.664,-7.813,-4.094,-0.129,-46.06,-311.22,-56.49
,-8.942,-0.189,-3.163,-7.088,-4.011,0.206,-63.84,-301.7,-61.11
,-8.686,-1.9,-2.529,-6.681,-2.764,0.416,-73.36,-286.23,-65.38
2271.0,-6.107,-2.13,2.402,-5.963,1.84,-0.153,-52.08,-113.47,-28.56
,-5.937,-1.366,4.558,-5.353,1.484,-3.252,-44.8,-65.45,-15.26
,-6.554,0.409,4.283,-6.466,-0.572,-6.037,-38.36,-15.05,-5.88
,-6.789,1.756,2.489,-21.857,-14.92,-0.945,-42.49,34.65,-0.63
2347.0,-26.145,-10.467,10.156,-8.77,-1.931,-8.09,29.12,126.07,51.59
,-15.027,1.835,-3.697,-4.865,-0.366,-8.05,53.83,149.94,36.33
,-5.004,4.702,-10.139,-7.42,2.632,-10.251,-1.96,155.33,17.15
,-7.014,-1.768,-6.502,-5.135,2.79,-12.316,-41.58,153.58,28.21
2422.0,-4.707,2.79,-11.919,-8.559,-2.285,-6.363,-29.89,122.29,10.36
,-6.198,2.489,-12.115,-9.904,-1.783,-5.652,-37.73,113.19,-2.45
,-7.791,0.273,-10.0,-9.849,-0.022,-5.59,-46.76,103.95,-7.0
,-8.138,-1.831,-7.519,-8.44,1.304,-5.913,-52.71,93.66,-6.02
2498.0,-7.344,1.311,-6.305,-9.215,3.527,-5.81,-13.93,71.68,14.77
,-8.299,0.821,-5.989,-9.349,3.362,-5.925,-6.65,67.41,19.46
,-9.368,1.117,-5.497,-9.232,1.905,-5.889,5.11,64.05,23.8
,-9.21,2.532,-5.434,-8.806,0.419,-5.784,15.61,60.41,25.83
2574.0,-8.918,-0.737,-6.164,-8.928,0.689,-6.011,-19.32,42.56,10.71
,-8.61,-1.184,-6.47,-9.04,1.347,-5.37,-9.24,41.37,11.41
,-8.6,-1.486,-6.43,-9.256,1.321,-4.544,4.2,40.6,14.0
,-8.904,-0.687,-6.348,-9.49,0.945,-4.075,17.78,38.43,15.54
2650.0,-9.517,0.811,-4.037,-8.906,0.869,-4.58,7.28,28.91,8.19
,-9.387,0.672,-4.247,-8.818,1.57,-4.669,6.93,28.42,8.4
,-9.239,0.412,-4.602,-8.658,1.766,-4.329,7.98,28.28,8.26
,-8.906,0.211,-4.427,-8.705,1.287,-4.044,11.06,28.77,9.38
2726.0,-8.818,0.926,-3.771,-9.45,0.711,-2.812,1.61,30.8,8.68
,-8.969,0.849,-3.74,-9.643,1.082,-2.551,1.68,32.2,8.33
,-9.301,0.392,-3.467,-9.684,0.215,-2.127,0.0,33.53,8.19
,-9.383,0.026,-2.96,-9.907,-0.986,-1.737,-0.91,35.56,8.89
2801.0,-10.517,-2.187,-0.883,-10.287,-1.797,0.297,-8.54,53.55,13.23
,-10.345,0.309,-0.495,-10.622,-2.393,-0.091,2.31,59.08,18.13
,-10.725,-0.297,0.005,-10.536,-2.206,-0.711,6.93,65.94,18.55
,-10.699,-1.902,0.304,-10.957,-2.422,-1.534,13.3,74.2,17.15
2877.0,-11.139,-2.221,-2.252,-11.929,-2.213,-1.989,17.43,114.59,3.22
,-11.333,-1.871,-2.625,-13.092,0.357,-1.299,16.59,121.24,0.7
,-11.665,-1.357,-2.611,-15.721,2.56,-2.95,15.96,127.54,-0.84
,-11.744,-1.685,-2.446,-14.422,-2.678,0.038,15.82,133.77,-0.77
2953.0,-14.441,-5.394,4.116,-18.392,-1.974,4.503,37.8,170.17,10.78
,-17.758,-3.144,7.617,-16.712,-1.639,2.816,70.0,181.86,26.81
,-19.517,-2.168,9.103,-14.066,1.929,0.708,84.7,191.24,35.7
,-19.538,-2.027,7.775,-16.856,4.018,-5.781,75.46,197.19,35.42
3029.0,-17.724,6.633,-12.125,-8.538,2.103,-15.106,124.32,206.85,19.88
,-14.891,6.925,-14.604,-5.434,-2.503,-16.899,76.58,185.78,5.04
,-13.099,5.547,-15.317,-5.915,-4.748,-15.449,22.75,155.33,-6.58
,-13.07,4.312,-14.853,-8.382,-4.527,-13.118,-36.75,114.38,-17.71
3104.0,-8.076,-3.479,-12.692,-1.802,-1.007,-10.56,26.74,-13.58,26.04
,-5.827,-2.127,-11.878,-1.278,-1.046,-10.072,42.14,-52.36,33.04
,-4.066,-1.232,-11.584,-1.491,-1.216,-9.258,48.16,-86.38,40.67
,-2.589,-1.089,-11.168,-1.24,-0.574,-9.11,47.67,-116.48,46.83
3180.0,-0.57,0.134,-9.251,-1.151,-0.256,-8.83,17.57,-219.31,56.56
,-0.541,0.385,-9.277,-1.419,-0.541,-9.521,2.59,-236.95,54.04
,-0.12,0.526,-9.493,-1.4,0.383,-10.366,-8.47,-252.0,50.33
,-0.29,0.759,-9.201,-1.524,0.421,-10.517,-12.18,-264.39,45.85
3255.0,-1.61,-0.715,-10.591,-3.319,-0.357,-10.287,-17.71,-343.91,18.2
,-1.622,-1.182,-10.278,-3.939,0.572,-9.854,-20.02,-353.92,8.68
,-2.237,-1.347,-10.124,-4.972,1.077,-7.71,-17.08,-362.11,0.21
,-2.86,-1.024,-10.45,-6.528,2.838,-7.059,-13.58,-369.95,-6.16
3331.0,-8.713,2.9,-5.193,-7.148,-3.333,-0.952,-19.74,-351.19,-36.96
,-9.39,3.57,-4.664,-5.64,-4.922,-0.139,-31.08,-335.16,-50.47
,-9.73,2.97,-3.362,-3.853,-2.666,0.926,-58.73,-312.69,-61.81
,-8.502,0.089,-1.756,-3.982,-0.065,3.585,-103.04,-281.19,-66.15
3407.0,-5.24,1.039,3.046,-29.217,-16.08,1.752,-73.71,-8.47,-9.8
,-5.633,2.864,0.029,-33.46,-11.189,7.597,-69.44,51.52,-3.08
,-5.351,3.826,-3.687,-9.722,3.355,-0.589,-79.59,104.23,3.15
,-5.776,2.163,-7.219,-8.418,-0.388,-8.174,-95.62,145.25,11.06
3483.0,-11.163,-8.71,-6.336,-3.082,7.94,-14.96,-102.41,180.46,22.82
,-9.811,-2.259,-11.582,-2.257,6.064,-14.628,-45.57,192.5,31.5
,-4.317,3.049,-12.649,-6.025,3.082,-13.419,2.31,185.92,26.18
,-3.697,7.327,-14.472,-9.009,-1.443,-11.132,-3.99,167.79,16.73
3558.0,-8.038,-3.939,-9.239,-8.15,1.606,-5.525,-101.85,98.35,-11.97
,-7.973,-4.934,-6.561,-7.306,-0.105,-5.43,-70.28,94.08,8.19
,-9.703,-3.671,-5.365,-8.751,0.134,-5.537,-25.55,93.17,24.22
,-10.577,-0.089,-5.322,-8.942,2.132,-6.133,8.05,94.08,31.22
3634.0,-9.072,3.944,-6.683,-8.894,-0.39,-5.303,14.49,72.45,27.51
,-9.234,4.403,-6.827,-8.882,-0.658,-4.963,4.34,66.36,20.86
,-9.189,4.027,-6.753,-9.201,0.378,-5.284,-14.07,59.99,14.07
,-8.926,1.752,-6.162,-9.148,0.94,-5.351,-31.5,55.44,10.78
3710.0,-8.875,0.538,-4.963,-9.131,-0.263,-5.224,-22.68,42.56,4.9
,-8.837,-0.172,-4.762,-8.995,-0.881,-5.396,-27.09,40.53,2.24
,-8.947,-0.33,-4.621,-8.756,-0.938,-5.329,-28.21,38.78,0.28
,-9.177,-0.077,-4.965,-8.648,-0.34,-5.556,-30.59,37.52,-0.42
3786.0,-8.521,0.483,-5.477,-8.492,-0.964,-5.078,-13.51,36.96,9.03
,-9.062,1.077,-6.04,-9.057,0.098,-4.781,-14.0,36.12,9.52
,-8.961,0.134,-5.839,-9.287,0.524,-3.877,-18.06,35.91,10.64
,-8.469,-1.134,-5.281,-9.509,0.806,-3.111,-15.12,37.1,14.14
3862.0,-9.854,0.696,-2.381,-9.646,-1.082,-0.414,0.77,43.61,21.98
,-9.789,1.072,-1.558,-10.021,-1.374,-0.445,-2.87,46.55,22.75
,-9.643,0.943,-1.177,-10.615,-1.508,-0.553,-5.88,51.1,23.59
,-9.49,-0.043,-0.835,-11.05,-1.778,-0.864,-4.76,56.91,24.29
3937.0,-11.275,-2.146,-1.003,-11.199,-2.127,-0.9,45.92,94.57,31.99
,-11.278,-2.06,-0.967,-11.62,-2.702,-0.821,48.86,102.41,29.61
,-11.038,-2.364,-0.842,-12.046,-3.58,-0.641,45.92,110.6,25.06
,-10.938,-2.333,-0.991,-13.319,-0.821,0.622,42.63,118.65,19.95
4013.0,-16.762,2.757,-1.498,-19.45,-2.962,6.624,44.52,160.51,9.8
,-16.04,-1.924,-0.11,-18.366,-2.082,5.106,26.46,169.61,10.99
,-16.061,-6.097,4.417,-17.631,-1.929,4.058,33.6,183.33,26.11
,-18.531,-4.427,7.227,-15.855,-1.883,1.204,67.69,196.14,42.91
4088.0,-12.84,0.68,-3.185,-12.34,4.865,-15.377,140.14,217.91,62.23
,-14.168,5.721,-9.763,-11.551,4.752,-16.028,168.77,214.76,45.36
,-15.389,5.621,-13.577,-8.1,1.364,-15.451,149.66,202.16,25.62
,-14.31,5.798,-16.166,-3.467,-2.221,-17.49,98.98,178.43,7.0
4164.0,-2.642,-3.068,-17.674,-4.422,-1.189,-11.065,-5.39,45.22,33.74
,-4.614,-3.206,-13.908,-3.094,-0.826,-10.658,24.22,34.44,38.99
,-5.669,-3.278,-11.919,-1.823,-1.409,-10.488,38.78,2.66,45.29
,-5.245,-2.515,-11.919,-1.756,-1.438,-10.098,49.28,-34.65,54.04
4240.0,-0.704,-0.826,-9.648,-0.175,-0.136,-10.077,21.91,-168.84,67.55
,-0.5,0.002,-9.404,-0.084,-0.079,-9.773,12.53,-185.15,65.52
,-0.445,0.002,-9.579,-0.646,-0.239,-9.572,-6.16,-202.79,62.16
,-0.378,-0.29,-9.536,-0.998,-1.146,-9.124,-23.59,-220.22,58.87
4316.0,-0.991,-1.534,-9.392,-2.185,-0.325,-10.05,-34.44,-301.21,35.35
,-0.438,-1.23,-9.675,-2.242,-1.06,-10.158,-30.73,-315.14,26.39
,-0.656,-0.436,-9.763,-2.704,-1.517,-10.804,-29.26,-325.71,17.57
,-1.551,-0.002,-9.634,-3.525,-0.725,-10.998,-31.64,-336.0,10.92
4391.0,-5.051,0.215,-9.407,-9.801,2.132,-3.482,1.47,-371.14,-10.85
,-5.75,0.115,-8.019,-11.053,3.465,-2.091,1.96,-371.35,-18.2
,-6.08,0.069,-5.82,-9.768,2.659,-0.885,8.26,-363.51,-23.94
,-8.275,0.526,-4.803,-8.2,-1.407,0.692,13.51,-352.94,-25.34
4467.0,-7.1,-4.939,0.546,-5.899,-0.239,4.274,-111.09,-217.77,-44.17
,-5.2,-4.271,0.952,-5.698,1.831,0.445,-101.78,-169.26,-34.58
,-4.561,-1.979,3.951,-5.841,2.596,-3.422,-79.17,-116.34,-21.07
,-5.272,-1.378,6.097,-5.872,1.709,-6.659,-59.99,-58.66,-10.29
4543.0,-9.77,-2.06,-11.699,-8.985,-8.959,-2.941,-68.32,162.12,18.13
,-37.188,-20.084,17.703,-12.044,-9.323,-4.635,-4.48,99.82,57.19
,-22.309,1.95,-1.761,-6.628,0.048,-6.033,34.79,84.77,9.87
,-3.08,2.752,0.306,-8.564,8.442,-10.392,-69.3,114.45,-1.96
4619.0,-6.916,9.725,-13.556,-8.392,-0.656,-10.1,-20.23,158.69,4.48
,-2.958,6.896,-13.118,-8.722,-2.022,-8.339,-86.94,140.14,-10.64
,-2.407,3.644,-11.967,-8.851,-2.943,-5.688,-114.24,128.17,-18.13
,-5.659,1.445,-12.443,-9.847,-1.297,-5.276,-104.16,119.91,-17.71
4695.0,-9.725,3.025,-5.765,-7.995,-1.723,-5.987,13.37,85.82,25.06
,-8.562,3.778,-6.131,-8.842,-1.12,-6.549,-0.28,81.62,18.2
,-9.009,1.299,-6.344,-8.918,0.469,-7.262,-22.12,77.28,10.29
,-8.155,-0.481,-6.128,-8.916,1.735,-7.557,-31.57,72.73,13.58
4770.0,-9.098,1.433,-6.834,-9.239,-0.309,-5.099,-3.29,51.38,18.13
,-9.134,0.491,-6.085,-9.064,-0.402,-5.095,-6.93,46.55,17.78
,-9.275,-0.156,-5.501,-9.005,-0.215,-4.891,-4.27,42.63,16.66
,-9.392,-0.316,-5.298,-9.074,0.586,-4.669,-1.33,39.69,15.4
4846.0,-9.098,1.137,-4.633,-9.476,-0.072,-3.877,3.92,29.89,10.29
,-9.028,1.211,-4.625,-9.337,0.421,-3.776,-3.08,27.86,8.61
,-8.904,0.854,-4.252,-9.186,1.22,-3.403,-9.1,26.67,8.54
,-9.074,0.043,-3.802,-9.167,1.613,-3.25,-10.08,26.32,9.73
4922.0,-9.091,1.323,-3.364,-9.112,0.419,-3.149,-21.7,26.25,9.52
,-8.911,0.782,-3.089,-8.914,0.294,-2.917,-28.98,27.93,9.52
,-9.148,0.318,-2.977,-8.897,0.263,-3.092,-31.57,29.61,8.75
,-9.244,0.333,-3.044,-8.871,0.053,-3.319,-30.66,31.36,8.05
4998.0,-8.897,-0.938,-2.953,-9.198,-0.443,-1.33,-26.04,40.95,12.6
,-8.885,-1.802,-2.292,-9.493,0.194,-1.761,-17.64,44.38,16.24
,-9.124,-1.814,-1.802,-9.552,-0.136,-2.012,-2.45,48.72,20.09
,-9.256,-1.266,-1.469,-9.663,-0.522,-2.295,12.74,53.62,22.82
5073.0,-9.849,-0.034,-2.307,-9.746,-0.61,-3.855,38.36,78.61,27.09
,-9.887,1.498,-2.697,-9.966,-1.338,-4.13,42.14,83.51,29.19
,-10.11,0.136,-3.039,-10.062,-1.773,-4.173,40.81,88.34,28.14
,-9.981,-0.462,-3.463,-10.026,-1.962,-4.164,41.23,92.4,26.46
5149.0,-10.256,-2.24,-4.252,-12.359,-4.64,-2.544,55.44,113.89,27.44
,-10.519,-2.472,-4.556,-14.276,-2.649,-1.527,65.31,119.77,29.96
,-12.907,1.692,-5.264,-14.099,-0.093,-1.565,91.63,125.79,31.5
,-13.599,-1.582,-5.449,-13.809,-1.216,-0.974,91.84,130.97,29.12
5224.0,-13.185,-3.326,-0.634,-11.531,1.027,-5.004,113.75,155.82,53.06
,-12.524,-3.319,-0.541,-10.732,2.74,-7.928,121.73,160.79,57.82
,-11.965,-2.309,-1.474,-9.239,3.357,-9.818,131.6,162.75,59.36
,-11.45,-0.761,-2.615,-9.076,2.46,-11.275,137.2,162.47,57.54
5300.0,-8.729,1.046,-14.216,-1.907,-0.603,-11.038,80.5,123.06,26.18
,-7.253,0.878,-13.558,-3.096,-0.816,-10.603,66.01,99.26,21.56
,-4.537,1.357,-13.35,-3.836,-0.943,-10.431,47.53,74.62,20.79
,-2.23,0.605,-12.527,-3.786,-0.299,-9.663,30.73,55.3,22.82
5376.0,-3.278,-0.134,-9.923,-1.996,-0.206,-10.359,36.96,-55.02,62.86
,-2.644,-0.225,-9.811,-1.809,-0.512,-10.182,27.09,-79.38,62.65
,-2.175,0.235,-10.033,-2.261,-1.106,-10.301,17.01,-101.85,60.9
,-1.661,-0.029,-9.933,-2.84,-2.592,-10.067,8.12,-119.35,59.15
5452.0,-2.953,-4.465,-9.093,-3.204,-0.603,-11.153,-10.5,-168.07,53.27
,-3.697,-5.2,-9.072,-3.585,1.029,-10.553,11.48,-177.52,58.66
,-3.489,-4.795,-9.526,-3.678,0.914,-10.096,37.1,-188.23,60.69
,-3.221,-2.938,-10.763,-4.343,-0.043,-9.648,58.38,-196.7,63.49
5527.0,-5.016,0.069,-9.672,-4.295,-1.362,-8.681,6.51,-209.58,35.84
,-4.618,0.586,-9.794,-5.171,-2.778,-7.798,4.27,-208.67,27.51
,-4.037,0.794,-9.66,-5.98,-3.594,-7.428,-4.48,-206.36,17.36
,-4.039,0.01,-9.399,-6.48,-3.601,-7.633,-18.97,-202.09,8.47
5603.0,-6.777,-3.544,-7.262,-7.085,-3.027,-4.566,15.12,-160.51,1.26
,-6.765,-3.465,-6.655,-7.37,-1.632,-4.379,30.8,-149.38,8.12
,-7.15,-3.759,-6.19,-7.167,-0.168,-4.515,45.78,-136.64,17.43
,-6.913,-3.745,-4.951,-7.033,0.203,-4.783,62.58,-122.36,28.98
5679.0,-7.346,-0.725,-4.793,-7.265,-0.359,-3.738,102.41,-48.16,41.65
,-7.303,-1.637,-4.369,-7.588,0.768,-3.671,102.97,-33.39,44.73
,-7.294,-1.488,-4.267,-8.177,1.019,-3.702,107.52,-20.65,46.69
,-7.167,-1.062,-3.853,-8.32,0.921,-4.044,110.81,-10.29,46.13
5755.0,-7.971,0.407,-3.276,-14.939,-0.531,0.218,57.75,17.29,26.81
,-8.588,0.062,-2.503,-14.752,-0.29,-0.818,42.77,19.18,18.69
,-10.904,0.146,-2.735,-12.321,-1.34,-2.096,26.04,15.47,7.42
,-13.271,-1.158,-1.419,-9.296,-2.974,-2.099,16.31,6.23,-0.63
5831.0,-8.648,-3.697,-2.534,-8.492,-0.924,-4.597,-46.27,31.71,-17.85
,-9.155,-2.084,-2.659,-8.607,-0.462,-3.965,-30.8,31.43,-18.06
,-8.665,-0.424,-3.659,-8.911,-0.108,-3.137,-27.02,29.54,-16.59
,-8.241,-0.514,-4.917,-9.28,-0.311,-2.711,-30.03,27.3,-12.67
5906.0,-9.605,-0.342,-2.429,-9.541,-0.282,-3.57,-8.82,23.38,0.63
,-9.742,0.108,-2.907,-9.493,-1.642,-3.534,-6.51,22.26,1.12
,-9.442,0.605,-3.01,-9.232,-2.072,-4.118,-8.82,20.86,0.91
,-9.328,0.663,-3.393,-9.249,-1.103,-4.566,-12.81,20.23,0.49
5982.0,-9.306,0.388,-5.102,-8.605,1.433,-5.662,19.46,19.18,10.15
,-9.385,1.137,-5.437,-8.811,0.725,-5.269,20.23,16.73,8.12
,-9.6,1.156,-5.81,-9.201,0.151,-4.671,16.66,13.93,5.25
,-9.361,1.115,-5.683,-9.024,-0.732,-3.79,10.78,10.15,2.73
6057.0,-9.04,-1.318,-2.895,-9.445,0.928,-2.548,10.15,-0.42,6.58
,-9.507,-0.713,-2.546,-9.371,0.809,-2.874,17.22,0.14,7.77
,-9.837,0.189,-2.429,-9.203,0.115,-3.089,19.6,1.26,7.14
,-9.574,0.615,-2.381,-9.344,-0.409,-3.4,17.85,2.45,7.28
6133.0,-9.093,-0.311,-3.843,-9.217,1.096,-5.085,26.39,4.55,10.78
,-9.112,0.024,-4.025,-9.275,1.103,-5.188,32.9,4.34,11.9
,-9.407,0.593,-4.63,-9.229,1.129,-5.118,36.61,3.36,11.55
,-9.311,1.077,-4.987,-9.301,1.007,-4.934,38.78,2.38,11.27
6209.0,-9.363,0.916,-4.731,-9.127,0.184,-3.989,57.47,-6.23,12.53
,-9.433,0.883,-4.448,-9.038,-1.067,-3.896,61.67,-7.84,12.32
,-9.464,1.034,-4.357,-9.194,-1.496,-3.484,64.33,-9.31,11.55
,-9.296,0.89,-4.233,-9.667,-0.558,-3.388,64.82,-10.78,10.15
6285.0,-9.519,0.493,-3.398,-9.33,0.29,-2.685,94.85,-10.57,11.13
,-9.241,0.72,-2.982,-9.284,0.242,-2.472,94.15,-9.73,11.27
,-9.495,0.495,-2.936,-9.799,-0.184,-2.608,92.05,-8.75,10.78
,-9.416,0.397,-2.96,-9.67,0.163,-2.649,92.19,-7.77,10.22
6360.0,-9.383,0.292,-2.551,-9.548,-0.45,-2.194,90.37,-4.97,5.67
,-9.414,-0.16,-2.721,-9.67,-0.313,-2.357,87.99,-3.71,6.09
,-9.366,-0.17,-2.532,-9.581,-0.151,-2.424,88.41,-2.87,5.74
,-9.363,0.065,-2.324,-9.646,0.227,-3.051,87.85,-1.82,5.95
6436.0,-9.485,0.768,-3.202,-9.61,0.361,-3.23,95.27,0.77,8.54
,-9.32,0.787,-2.965,-9.572,-0.436,-2.965,94.85,0.91,9.17
,-9.588,0.457,-2.871,-10.189,0.321,-3.599,94.71,1.26,9.45
,-9.459,0.364,-3.039,-9.837,1.871,-3.932,97.09,1.75,10.01
6511.0,-9.426,2.134,-4.011,-9.296,-0.572,-3.877,92.26,-4.9,4.41
,-9.354,0.488,-3.869,-9.335,-0.979,-4.006,82.95,-6.3,2.45
,-9.284,-0.38,-3.908,-9.189,-1.12,-3.814,83.09,-7.35,1.75
,-9.148,-0.237,-3.979,-9.112,-1.409,-3.489,86.73,-8.26,2.03
6587.0,-9.069,-1.333,-3.453,-9.373,-0.273,-2.532,102.48,-12.81,8.4
,-9.213,-1.302,-3.321,-9.407,-1.369,-2.438,105.91,-14.14,9.03
,-9.488,-1.074,-3.032,-9.301,-1.876,-2.213,106.82,-16.24,7.84
,-9.428,-0.467,-2.814,-9.603,-2.357,-2.134,104.65,-17.71,5.39
6663.0,-9.564,-2.441,-2.127,-9.469,-1.189,-2.563,112.28,-12.25,8.68
,-9.335,-1.563,-2.051,-9.318,-1.17,-2.34,119.56,-11.76,11.48
,-9.493,-1.122,-2.297,-9.273,-1.261,-2.4,123.27,-11.48,13.79
,-9.596,-1.228,-2.611,-9.117,-1.175,-2.058,125.02,-11.55,15.47
6739.0,-9.39,-1.134,-2.355,-9.842,-0.452,-2.139,136.78,-10.78,22.4
,-9.813,-0.692,-2.312,-9.715,-0.799,-2.149,136.57,-11.69,21.21
,-9.852,0.043,-2.448,-9.452,-1.843,-1.814,133.35,-13.09,19.74
,-9.959,0.014,-2.601,-9.49,-2.111,-2.233,127.68,-13.79,18.76
6815.0,-9.426,-1.326,-2.29,-9.194,-1.036,-1.974,133.49,-10.15,21.63
,-9.627,-0.828,-2.379,-9.418,-1.359,-1.814,135.66,-10.36,23.03
,-9.579,-1.067,-2.199,-9.557,-1.761,-1.874,136.43,-9.45,25.27
,-9.261,-1.017,-2.096,-9.237,-2.091,-1.874,140.14,-8.4,27.79
6890.0,-8.969,-2.312,-1.668,-9.646,-1.218,-1.462,172.2,-1.68,42.28
,-9.239,-1.945,-1.855,-9.684,-0.928,-1.519,183.61,-0.35,46.48
,-9.45,-1.819,-1.649,-9.493,-0.916,-1.299,193.55,1.12,50.26
,-9.536,-1.606,-1.452,-9.385,-0.883,-1.287,202.79,2.94,53.9
6966.0,-9.636,-0.656,-1.448,-9.923,-0.156,-1.539,226.73,12.11,64.19
,-9.811,-0.739,-1.412,-10.067,0.359,-1.57,229.6,14.28,65.45
,-9.928,-0.835,-1.613,-10.057,0.84,-1.637,232.19,16.94,66.99
,-9.864,-0.541,-1.627,-10.1,0.969,-1.603,235.62,19.39,68.25
7042.0,-9.378,0.967,-1.586,-9.868,2.113,-2.048,204.12,27.44,54.39
,-9.21,0.821,-1.682,-9.768,2.261,-1.919,190.33,30.94,51.38
,-9.543,1.067,-1.74,-9.629,2.328,-1.756,180.04,33.04,48.51
,-9.734,1.589,-1.986,-9.763,2.316,-1.706,169.4,33.53,44.24
7118.0,-9.835,2.194,-1.56,-9.67,1.223,-1.232,87.92,28.56,13.79
,-9.742,2.048,-1.441,-9.543,0.871,-1.223,75.04,28.07,8.96
,-9.663,1.922,-1.577,-9.533,0.479,-1.335,64.19,27.51,4.62
,-9.758,1.579,-1.417,-9.478,0.541,-1.429,54.81,26.74,0.28
7193.0,-9.495,0.821,-1.618,-9.71,1.452,-2.18,40.95,29.47,-3.08
,-9.634,0.826,-1.929,-9.677,1.503,-2.06,40.18,28.91,-2.73
,-9.67,0.94,-2.13,-9.653,1.383,-2.194,39.62,27.65,-2.59
,-9.617,1.218,-2.166,-9.555,1.24,-2.187,40.11,26.32,-2.03
7269.0,-9.488,1.175,-2.127,-9.596,1.127,-1.931,38.85,19.81,0.56
,-9.44,1.163,-2.173,-9.404,0.79,-1.747,38.92,18.34,1.61
,-9.462,1.194,-2.175,-9.514,1.275,-1.577,39.06,17.01,3.01
,-9.44,1.22,-2.075,-9.758,1.95,-1.563,38.92,15.47,4.55
7344.0,-10.519,2.369,-1.874,-9.409,1.821,-2.34,28.56,8.4,9.94
,-10.397,2.28,-1.656,-9.136,0.445,-2.051,17.71,5.04,10.22
,-10.22,2.752,-1.498,-9.038,-0.302,-1.761,7.49,3.01,11.69
,-9.842,2.742,-2.17,-9.404,-0.299,-1.677,-6.58,1.75,11.2
7420.0,-9.428,-0.414,-1.989,-9.591,0.177,-2.546,-2.24,13.44,11.69
,-9.363,-0.725,-1.984,-9.761,0.354,-2.235,3.71,17.36,11.83
,-9.356,-0.57,-2.302,-9.981,0.598,-1.929,10.08,20.16,12.11
,-9.428,-0.201,-2.654,-10.167,0.622,-1.697,13.37,21.28,11.41
7496.0,-10.105,0.517,-1.338,-9.555,0.199,-1.575,-5.74,27.23,4.27
,-10.005,0.246,-1.132,-9.423,0.395,-1.922,-9.73,29.4,3.36
,-9.871,0.194,-1.086,-9.323,0.469,-2.357,-11.55,31.64,2.94
,-9.708,0.165,-1.383,-9.16,0.646,-2.685,-12.67,33.88,2.59
7572.0,-9.062,0.754,-3.077,-8.949,0.036,-4.427,-8.12,38.64,6.02
,-8.873,0.849,-3.625,-8.866,-0.201,-4.293,-9.03,38.29,6.02
,-8.789,0.665,-3.903,-8.825,0.053,-4.616,-10.64,37.31,5.88
,-8.933,0.586,-3.979,-8.899,0.897,-4.52,-10.5,36.05,6.16
7647.0,-9.328,1.278,-4.836,-8.368,-2.266,-4.47,-10.92,29.96,0.21
,-9.289,0.972,-4.975,-8.904,-2.139,-4.606,-19.46,27.86,-1.33
,-8.83,-0.007,-4.987,-9.153,-1.237,-5.027,-26.46,25.9,-0.07
,-8.387,-1.455,-4.874,-8.938,0.067,-5.087,-27.93,25.06,3.64
7723.0,-8.744,1.345,-5.202,-9.445,1.742,-5.037,29.12,23.59,20.72
,-8.83,1.732,-5.037,-9.328,2.379,-5.583,24.64,22.33,20.79
,-9.031,1.527,-4.86,-9.375,2.754,-6.121,18.27,21.35,19.67
,-9.127,1.376,-4.58,-8.949,2.864,-6.186,15.26,20.3,17.99
7799.0,-8.662,2.417,-5.717,-9.363,1.91,-4.736,-1.75,8.96,3.08
,-8.782,1.716,-5.257,-9.045,1.977,-4.944,-1.89,7.49,2.24
,-8.811,1.529,-4.805,-8.727,1.328,-4.891,0.28,6.37,2.03
,-9.134,1.603,-4.568,-8.557,0.268,-4.716,2.73,5.74,2.24
7875.0,-8.906,-0.258,-4.671,-8.775,0.488,-4.578,7.14,3.85,4.34
,-9.146,0.005,-4.922,-8.722,0.455,-4.101,15.96,3.99,5.25
,-9.038,0.194,-4.843,-8.916,0.335,-3.963,21.42,4.06,6.23
,-8.961,0.378,-5.008,-8.966,0.419,-3.85,24.08,3.85,6.37
7951.0,-8.923,0.498,-3.496,-8.748,0.335,-2.759,25.34,4.9,8.47
,-8.966,0.529,-3.3,-9.043,0.639,-2.67,24.57,5.39,9.24
,-9.074,0.467,-3.235,-9.368,1.153,-2.714,23.8,6.65,9.38
,-8.811,0.352,-3.001,-9.268,1.505,-2.635,22.82,8.33,10.15
8026.0,-8.966,1.407,-2.395,-9.117,0.526,-1.563,11.48,18.69,8.89
,-8.997,1.017,-2.273,-9.038,0.285,-1.505,8.61,21.21,8.61
,-9.057,0.859,-2.139,-9.005,0.462,-1.785,8.12,24.08,8.4
,-9.072,0.751,-1.823,-9.074,0.79,-2.288,8.47,27.37,8.89
8102.0,-8.93,0.909,-3.096,-8.361,0.172,-5.226,7.35,44.17,8.96
,-8.67,0.558,-3.747,-8.638,0.285,-5.406,5.53,46.41,9.24
,-8.557,0.471,-4.429,-8.715,0.809,-5.307,6.02,47.53,9.52
,-8.373,0.491,-5.013,-8.971,1.046,-5.331,7.07,48.3,9.94
8177.0,-9.131,0.68,-5.3,-8.918,0.689,-5.846,3.57,49.84,8.96
,-8.842,0.849,-5.343,-9.485,2.319,-6.432,3.92,50.61,8.82
,-8.787,1.254,-6.037,-9.107,0.924,-5.487,5.39,51.31,8.82
,-8.686,0.864,-5.875,-9.418,1.0,-4.874,5.53,52.22,8.89
8253.0,-9.914,0.474,-4.527,-12.395,3.963,-3.242,14.42,57.05,10.01
,-10.124,0.739,-4.302,-13.618,2.895,-3.891,22.47,60.13,11.55
,-10.479,1.175,-4.006,-11.716,-4.106,-2.479,27.72,63.77,12.11
,-11.139,1.141,-3.63,-11.819,-5.195,-1.122,30.31,67.69,11.06
8329.0,-12.132,-1.764,-0.933,-12.422,-3.489,-0.177,37.59,97.02,9.31
,-12.118,-1.89,-1.067,-13.664,-4.111,1.484,34.79,105.21,8.26
,-11.302,-3.374,-0.689,-14.523,-3.338,3.185,29.05,113.12,7.7
,-11.493,-3.539,-0.581,-15.568,-2.0,4.101,33.04,121.73,10.71
8405.0,-15.403,-1.304,3.161,-11.172,1.371,-4.958,87.22,165.97,47.6
,-14.7,-0.83,1.905,-12.596,2.678,-9.17,85.26,169.61,52.22
,-14.188,-0.665,0.428,-13.183,3.025,-11.816,90.72,170.24,55.51
,-12.862,-0.383,-1.56,-11.938,3.336,-12.886,101.15,169.96,55.51
8480.0,-11.182,2.704,-12.972,-5.791,-1.962,-14.281,33.04,119.35,9.59
,-10.019,0.988,-12.993,-6.356,-1.472,-12.503,4.9,95.34,11.83
,-7.856,-1.34,-12.864,-6.916,-0.986,-11.572,-4.97,75.81,19.6
,-6.894,-2.391,-13.843,-6.927,-0.723,-10.897,7.0,62.02,29.19
8556.0,-6.068,-0.579,-10.335,-3.817,-0.091,-10.239,48.3,-54.11,57.82
,-4.771,-0.672,-10.036,-3.632,0.227,-10.01,38.29,-82.18,59.5
,-4.384,-0.751,-9.969,-3.601,0.421,-9.773,29.33,-104.09,59.78
,-4.099,-0.366,-9.988,-3.336,0.065,-9.696,23.24,-124.25,61.32
8631.0,-3.029,-0.175,-9.541,-1.759,-0.845,-9.301,-24.36,-211.05,36.89
,-3.101,-0.153,-9.462,-1.902,-0.376,-9.34,-27.02,-226.66,31.99
,-2.771,-0.493,-9.261,-2.039,0.007,-9.438,-24.5,-243.74,27.93
,-1.945,-0.893,-9.299,-2.314,0.469,-9.622,-18.06,-258.93,22.05
8707.0,-2.376,0.543,-9.677,-3.941,-2.089,-8.591,-34.93,-320.04,-14.14
,-2.505,0.103,-9.715,-5.288,-1.555,-7.978,-40.32,-331.87,-23.03
,-2.326,-0.938,-9.586,-6.159,-1.519,-6.645,-37.31,-340.13,-30.24
,-2.931,-1.833,-9.134,-6.959,-1.713,-4.539,-26.74,-344.4,-35.28
8783.0,-6.782,-0.826,-3.032,-8.2,1.173,0.443,10.08,-323.54,-38.08
,-8.157,0.983,-1.283,-6.698,0.519,0.227,7.84,-300.72,-37.59
,-9.323,1.747,-0.648,-5.439,-0.505,1.024,-4.62,-270.55,-38.57
,-9.366,1.732,0.34,-5.288,-2.058,2.379,-26.32,-235.55,-40.11
8859.0,-5.97,-2.003,2.223,-10.17,-0.895,-6.638,-64.19,-2.66,-11.13
,-6.248,0.172,0.747,-25.434,-15.257,12.24,-49.07,48.02,2.1
,-6.279,1.766,-1.51,-23.683,-5.705,0.421,-47.67,93.03,12.18
,-6.64,2.084,-4.068,-17.31,0.33,-9.715,-54.46,129.78,20.02
8935.0,-0.66,3.637,-9.777,-7.538,0.692,-9.871,-11.06,173.46,15.82
,-1.314,3.8,-10.069,-8.014,-1.486,-10.804,-34.09,155.4,17.5
,-5.458,3.216,-10.613,-6.707,2.233,-11.235,-56.14,128.94,-3.43
,-5.934,3.317,-8.282,-7.136,4.893,-10.531,-73.92,110.39,-13.65
9010.0,-8.593,1.445,-8.313,-9.21,-3.448,-6.396,-92.96,95.76,-24.29
,-8.662,-3.386,-7.004,-8.196,-0.72,-7.061,-93.73,89.46,-16.03
,-8.447,-5.114,-6.033,-7.55,0.907,-7.26,-74.06,84.56,-0.98
,-9.052,-5.334,-5.982,-8.234,1.187,-7.301,-43.33,81.41,12.67
9086.0,-8.483,1.519,-7.205,-9.117,0.67,-5.918,-3.29,60.97,19.81
,-8.323,1.366,-6.719,-9.256,1.058,-5.901,-10.43,57.96,20.02
,-8.887,0.567,-6.092,-9.268,1.256,-5.762,-12.04,55.51,19.25
,-9.189,0.156,-5.839,-8.976,1.17,-5.659,-8.96,52.57,18.13
9162.0,-8.763,0.809,-5.296,-9.529,2.084,-4.334,7.28,40.25,19.53
,-8.641,0.45,-4.848,-9.296,2.386,-4.006,8.19,38.29,18.27
,-8.885,0.55,-4.448,-9.294,1.85,-4.039,8.4,36.54,16.52
,-9.483,1.062,-4.398,-8.949,0.421,-3.996,6.44,33.25,12.32
9238.0,-8.71,-0.622,-4.051,-8.985,1.117,-5.24,-17.71,28.35,7.91
,-8.813,-0.323,-4.214,-8.811,0.191,-5.116,-7.63,29.68,10.92
,-9.148,0.744,-4.786,-8.878,-0.993,-4.757,0.56,30.45,12.39
,-9.186,1.419,-5.236,-9.153,-1.175,-4.487,1.26,31.01,12.32
9313.0,-9.801,-0.835,-4.302,-10.352,0.491,-1.962,2.52,37.1,15.4
,-10.254,-1.024,-3.924,-10.294,3.704,-1.074,4.41,39.97,17.29
,-10.234,-1.78,-3.171,-10.514,0.936,-0.081,4.13,43.54,20.02
,-9.562,-1.821,-2.953,-10.467,-2.553,0.605,8.96,48.86,23.45
9389.0,-10.196,-2.489,0.861,-10.931,-2.206,0.0,25.2,79.52,29.05
,-10.936,-2.254,1.151,-11.101,-1.429,-0.503,29.4,88.41,27.3
,-11.036,-2.565,0.656,-11.177,-1.062,-1.108,30.66,97.51,22.89
,-10.988,-2.654,0.101,-11.464,-1.132,-1.799,31.15,106.61,17.36
9464.0,-11.847,-1.259,-2.027,-14.185,-4.606,0.402,9.45,144.9,4.69
,-12.568,-1.941,-2.276,-15.824,-5.291,3.908,14.28,151.9,8.19
,-14.994,3.786,-1.773,-16.975,-4.18,6.135,36.54,158.55,9.8
,-16.841,2.125,-1.979,-17.942,-3.587,7.985,23.59,163.38,3.43
9540.0,-17.839,-1.656,6.104,-16.492,4.716,-9.301,102.2,200.76,59.99
,-17.375,-0.127,3.783,-16.011,4.824,-14.424,107.87,200.27,61.88
,-14.546,0.256,-0.239,-13.991,3.944,-14.836,112.63,200.9,59.5
,-12.288,5.147,-4.86,-12.328,3.972,-14.788,130.2,210.14,50.05
9616.0,-12.12,2.749,-14.92,-7.416,-4.2,-13.36,-24.85,87.57,-11.62
,-6.664,-0.22,-15.614,-6.554,-3.805,-12.374,-57.33,57.89,-2.24
,-4.757,-2.367,-17.612,-5.552,-2.197,-11.737,-44.59,52.64,10.71
,-4.666,-3.965,-15.992,-4.692,-0.768,-11.062,-9.38,52.71,20.44
9692.0,-3.144,-0.775,-10.768,-1.17,-0.474,-9.074,44.03,-106.75,57.68
,-1.63,-1.144,-10.529,-1.24,-0.069,-9.189,35.77,-131.04,61.81
,-1.22,-0.732,-10.395,-0.797,-0.022,-9.277,32.76,-149.73,66.92
,-1.165,-0.699,-10.005,-0.603,0.201,-9.229,29.54,-166.11,70.14
9768.0,-0.397,0.311,-9.543,-1.07,-0.129,-9.191,-19.95,-250.32,53.2
,-0.955,-0.732,-8.801,-1.24,-0.101,-9.418,-16.24,-265.79,52.22
,-1.62,-1.716,-8.722,-1.498,-0.543,-9.572,-3.85,-283.29,49.0
,-1.007,-1.108,-8.894,-2.13,-0.859,-10.021,5.88,-299.53,42.28
9843.0,-2.525,-0.526,-10.383,-5.272,0.948,-7.734,-4.27,-358.4,13.16
,-2.843,0.246,-10.593,-5.989,0.625,-6.011,-6.65,-368.27,5.18
,-3.611,0.704,-10.83,-8.325,0.936,-3.893,-12.95,-375.27,-1.89
,-4.551,0.931,-9.818,-8.959,0.842,-3.266,-19.32,-379.89,-10.64
9919.0,-10.409,2.304,-2.455,-4.176,-2.962,0.928,-26.46,-313.6,-45.29
,-10.304,2.625,-2.07,-3.388,-1.151,3.343,-56.77,-283.78,-50.61
,-8.351,-0.005,-0.739,-4.391,0.17,2.862,-101.5,-243.74,-50.4
,-6.071,-2.422,-0.045,-5.02,1.855,0.127,-126.42,-194.74,-43.4
9995.0,-4.968,2.206,-3.577,-15.032,8.672,-4.231,-63.91,106.26,6.51
,-5.623,0.771,-7.169,-1.441,4.207,-7.308,-74.2,151.2,14.84
,-30.321,-16.456,2.977,-9.95,-6.272,-7.212,-103.95,135.73,28.42
,-35.437,-8.681,5.415,-8.21,-2.924,-8.777,-32.13,104.93,38.64
10071.0,-6.707,2.809,-10.486,-5.406,0.51,-12.065,-55.58,180.67,-3.08
,-5.638,7.77,-16.463,-8.5,-3.671,-10.055,-44.94,172.41,-0.21
,-3.032,9.1,-14.972,-8.279,-4.724,-9.17,-85.05,153.3,-14.28
,-2.067,6.475,-13.331,-8.356,-6.528,-6.968,-136.15,135.1,-37.8
10146.0,-10.165,-5.159,-5.987,-8.894,3.85,-6.956,6.16,99.61,40.53
,-9.294,-0.412,-6.535,-8.811,4.044,-6.997,49.0,97.86,45.64
,-7.267,2.422,-6.956,-8.94,3.793,-6.999,61.32,91.28,39.83
,-7.559,3.479,-6.978,-8.765,2.706,-6.896,50.12,82.39,29.12
10222.0,-8.885,1.89,-6.899,-9.134,-1.07,-4.681,-30.03,54.39,7.21
,-8.904,0.474,-6.444,-8.988,-1.34,-3.841,-32.97,49.91,4.34
,-8.983,-0.424,-6.119,-8.899,-0.948,-3.903,-28.35,47.11,5.39
,-9.253,-0.694,-5.518,-8.818,0.098,-4.042,-22.33,44.59,7.28
10297.0,-9.22,0.792,-4.424,-8.976,-0.804,-5.341,-11.76,37.59,6.79
,-9.177,0.637,-4.57,-8.753,-0.555,-5.092,-23.03,35.14,4.76
,-8.961,-0.069,-4.491,-8.748,0.112,-5.652,-30.8,33.6,4.41
,-9.119,-0.524,-4.874,-8.868,0.644,-5.475,-30.8,32.83,4.97
10373.0,-8.713,0.302,-4.812,-9.938,1.029,-2.938,-11.41,34.72,14.28
,-8.973,-0.558,-3.783,-10.005,1.323,-3.087,-12.46,36.26,16.8
,-9.344,-0.395,-3.278,-9.904,1.39,-3.446,-6.02,37.66,18.55
,-9.701,0.507,-3.063,-9.818,0.531,-3.348,-0.14,39.9,18.9
10449.0,-10.136,-0.775,-2.728,-10.62,-1.871,1.151,-14.07,52.64,19.32
,-10.218,-0.62,-1.735,-10.435,-2.556,2.07,-3.43,57.54,26.46
,-10.866,0.189,-0.457,-10.574,-2.687,1.912,11.55,63.63,31.99
,-11.034,-0.955,0.467,-10.593,-2.68,1.756,24.85,71.61,32.76
10525.0,-10.627,-2.015,0.916,-13.214,2.991,-0.268,38.99,120.26,21.63
,-10.768,-1.582,0.081,-16.403,3.905,-3.482,29.26,129.71,16.66
,-11.096,-1.732,-0.773,-14.142,-3.972,-1.496,19.11,138.18,12.67
,-11.531,-2.261,-1.304,-14.386,-6.671,-0.538,13.58,146.3,11.27
10600.0,-14.934,-6.643,2.355,-16.647,-1.4,3.185,46.62,188.51,39.9
,-18.167,-7.301,5.966,-13.955,-1.503,1.474,95.55,203.28,63.07
,-20.1,-4.185,6.442,-12.438,3.381,-3.276,138.88,213.71,71.89
,-18.753,-2.412,4.695,-14.862,3.783,-9.234,149.73,215.32,71.19
10676.0,-14.671,4.96,-14.377,-6.75,1.139,-15.173,156.52,190.26,30.1
,-11.957,6.138,-14.826,-3.13,-2.814,-16.827,103.6,162.05,15.33
,-11.388,4.566,-15.037,-4.202,-3.716,-16.837,46.2,132.37,10.85
,-11.464,3.343,-15.41,-5.693,-2.438,-13.881,-6.86,94.5,10.78
10752.0,-6.056,-1.35,-12.553,-2.154,-0.818,-10.555,50.61,9.73,53.48
,-5.69,0.242,-12.654,-1.697,-0.711,-10.335,48.23,-27.65,59.64
,-5.018,0.747,-11.553,-0.818,-0.182,-10.639,33.67,-61.53,60.41
,-3.716,0.16,-11.005,-0.627,-0.134,-10.043,14.56,-94.5,59.01
10828.0,-1.204,-0.553,-9.521,-0.572,-1.237,-9.753,-26.6,-190.47,50.26
,-1.204,-1.079,-9.402,-0.074,-1.838,-9.744,-36.54,-210.35,43.26
,-0.625,-1.321,-9.564,0.127,-1.838,-9.82,-45.08,-226.87,37.1
,-0.763,-1.165,-9.56,0.426,-1.397,-9.981,-50.82,-244.3,34.23
10904.0,-0.33,-0.826,-10.297,-1.515,-0.634,-11.094,-26.74,-320.81,7.35
,-0.823,-0.421,-10.041,-1.922,-0.383,-11.893,-31.29,-333.76,-2.03
,-1.704,-0.416,-9.797,-3.144,-0.39,-11.113,-33.32,-347.06,-11.13
,-1.893,-0.732,-10.292,-4.956,-0.983,-8.866,-37.17,-361.27,-22.26
10979.0,-6.016,-1.615,-6.391,-10.787,2.173,-0.9,-27.79,-369.88,-53.41
,-8.727,-2.919,-3.393,-9.265,0.634,0.33,-19.04,-356.23,-50.54
,-9.411,-2.0,-2.771,-7.7,-1.058,1.113,4.34,-338.1,-52.57
,-10.732,1.005,-2.24,-6.363,-1.168,-0.086,13.02,-315.14,-53.97
11055.0,-4.424,0.199,3.786,-6.123,2.314,-2.144,-82.67,-106.96,-24.57
,-4.968,-0.5,6.205,-6.657,1.51,-5.7,-70.56,-52.92,-14.0
,-6.054,-0.168,4.704,-9.411,-0.988,-8.969,-57.96,3.15,-8.54
,-6.123,1.601,1.737,-31.101,-19.983,16.155,-54.6,56.21,-3.71
11130.0,-23.427,-4.738,2.915,-6.777,0.507,-7.574,-0.91,92.96,27.65
,-8.385,1.917,-1.783,-8.701,4.905,-9.143,-20.09,118.65,9.03
,-8.198,-3.096,-4.427,-8.189,5.482,-11.859,-84.14,130.62,7.42
,-8.576,-6.044,-6.435,-5.425,6.439,-11.866,-85.19,147.56,14.84
11206.0,-3.355,6.169,-11.661,-8.476,-4.616,-6.334,-88.62,119.77,-12.95
,-4.996,4.145,-12.039,-9.244,-6.176,-4.714,-108.5,109.2,-21.63
,-7.99,-0.012,-10.132,-10.038,-1.996,-4.86,-111.16,98.49,-19.53
,-8.681,-2.266,-8.904,-9.34,1.122,-4.561,-103.18,87.64,-9.17
11282.0,-10.105,4.389,-5.221,-9.588,0.117,-6.092,30.73,75.32,15.89
,-8.617,4.654,-5.698,-9.316,-1.108,-6.202,-1.54,71.4,14.42
,-7.834,3.214,-6.466,-8.945,-1.773,-6.049,-24.64,67.62,16.8
,-9.019,2.036,-6.183,-8.739,-1.917,-6.42,-31.85,63.21,15.82
11358.0,-8.914,-1.304,-6.801,-9.067,-0.01,-4.544,15.82,44.73,22.89
,-8.873,-0.471,-6.626,-9.261,1.323,-4.058,21.98,41.37,24.22
,-8.758,-0.529,-6.013,-9.347,1.802,-3.632,20.23,37.66,24.78
,-8.832,-0.912,-5.296,-9.342,1.862,-3.527,20.23,34.86,24.92
11433.0,-9.263,1.749,-3.398,-9.055,2.101,-3.855,7.14,26.6,19.25
,-9.009,1.575,-2.965,-9.019,1.778,-3.884,4.48,26.39,18.27
,-8.961,1.732,-3.08,-9.27,1.338,-4.171,1.47,26.32,15.4
,-9.0,2.06,-3.35,-9.172,0.794,-4.346,-4.76,26.25,11.83
11509.0,-8.873,0.079,-4.331,-9.217,-0.244,-4.891,-34.3,28.77,3.78
,-8.794,-0.139,-4.489,-8.765,-0.268,-4.654,-30.73,29.19,4.97
,-8.801,0.201,-4.831,-8.892,-0.622,-3.987,-26.53,29.4,6.3
,-8.83,0.041,-4.941,-8.973,-0.613,-3.317,-24.85,29.47,7.28
11585.0,-9.048,-0.321,-2.783,-8.966,-0.589,-0.208,1.96,34.93,13.58
,-9.275,-0.278,-1.919,-8.894,0.584,-0.148,7.63,38.29,14.14
,-9.495,-0.424,-1.194,-9.282,0.928,-0.486,10.85,41.79,13.3
,-8.882,-0.256,-0.617,-9.117,0.273,-1.043,13.44,45.92,13.16
11661.0,-9.351,0.117,-2.223,-10.163,-1.342,-5.176,18.76,73.08,22.4
,-9.392,0.151,-3.475,-10.56,-1.424,-5.372,22.68,77.63,22.96
,-9.567,-0.273,-4.429,-11.764,2.431,-4.635,23.73,81.13,22.82
,-9.811,-0.96,-4.987,-12.881,0.759,-5.458,25.41,84.0,21.77
11737.0,-11.677,-4.168,-3.941,-13.331,-1.476,-0.56,33.53,103.6,10.57
,-12.103,-3.714,-2.675,-13.343,-2.611,0.596,55.3,110.81,17.01
,-12.924,-1.309,-1.773,-14.511,-3.68,1.378,74.13,117.11,20.37
,-13.261,-0.369,-1.618,-15.015,-4.384,1.675,76.58,122.57,20.09
11812.0,-14.336,-4.908,1.036,-10.818,0.742,-3.422,101.64,165.34,47.67
,-13.257,-4.563,0.55,-9.15,2.273,-5.93,114.94,172.9,56.98
,-12.718,-3.525,-0.261,-8.909,3.685,-9.172,132.72,178.36,65.45
,-12.022,-1.433,-1.357,-9.935,3.965,-12.058,156.17,181.72,71.33
11888.0,-9.17,3.652,-13.36,-3.587,-0.756,-12.551,97.58,133.84,29.61
,-8.349,3.218,-14.063,-3.726,-1.905,-12.828,67.41,114.38,24.92
,-6.839,2.295,-13.484,-4.52,-1.79,-12.288,36.96,94.5,20.44
,-5.523,1.115,-12.977,-3.917,-1.407,-11.646,9.8,73.01,17.08
11963.0,-3.955,-0.62,-10.792,-1.876,1.96,-10.708,42.0,-17.29,42.14
,-3.802,0.225,-10.129,-1.146,1.965,-10.816,38.22,-41.37,41.58
,-3.549,0.995,-9.636,-1.742,1.302,-10.476,29.61,-65.31,40.67
,-3.106,1.591,-10.12,-2.364,0.534,-10.17,13.86,-91.0,40.32
12039.0,-2.603,-0.428,-9.828,-2.862,-1.661,-9.567,-64.19,-177.66,13.86
,-2.462,-1.591,-9.861,-2.749,-1.486,-9.974,-64.05,-196.21,8.96
,-1.969,-2.103,-9.591,-3.999,-1.347,-10.048,-54.04,-210.42,4.97
,-1.455,-2.125,-8.593,-4.233,-1.371,-9.789,-42.98,-218.68,1.4
12115.0,-4.396,-1.216,-9.753,-4.64,1.005,-8.777,-39.27,-262.57,-10.57
,-4.362,-0.51,-10.1,-4.582,1.268,-7.787,-42.07,-268.31,-19.46
,-3.838,-0.041,-9.95,-5.298,1.182,-7.466,-44.52,-268.73,-26.39
,-4.257,0.333,-9.313,-6.145,0.943,-7.763,-45.78,-266.7,-33.67
12191.0,-7.676,1.266,-6.997,-6.726,-5.475,-3.702,-89.67,-244.86,-81.48
,-7.133,0.019,-5.461,-6.291,-4.841,-2.316,-114.73,-231.14,-83.37
,-7.554,-2.977,-3.829,-6.001,-2.745,-1.424,-129.99,-214.06,-88.9
,-7.1,-4.329,-4.13,-5.822,0.062,-1.816,-125.16,-193.9,-88.55
12266.0,-7.693,0.816,-3.173,-7.753,1.165,-4.63,-60.55,-55.16,-32.83
,-8.452,0.735,-4.798,-8.557,1.603,-5.032,-68.18,-39.97,-35.07
,-7.705,1.194,-5.018,-9.306,1.517,-5.169,-74.55,-29.61,-37.38
,-7.224,1.022,-4.934,-9.588,0.749,-4.755,-83.3,-22.12,-39.48
12342.0,-9.703,-0.144,-3.482,-10.747,-2.84,-1.228,-119.56,-22.68,-33.11
,-9.983,-1.122,-2.352,-15.322,-2.465,-3.778,-121.03,-21.49,-28.56
,-10.644,-1.984,-2.022,-16.006,-12.283,-0.871,-118.44,-16.8,-22.75
,-10.739,-2.211,-1.505,-11.079,-15.056,-0.22,-113.26,-9.24,-13.23
12418.0,-6.93,-8.875,0.263,-9.045,2.41,-2.211,-23.24,63.84,29.82
,-7.351,-1.759,-0.043,-9.5,0.761,-1.742,4.2,70.0,32.2
,-9.368,3.369,-1.015,-10.495,1.945,-1.275,2.1,68.53,26.04
,-10.036,5.025,-1.788,-9.363,0.294,-1.835,-24.29,62.16,16.17
12494.0,-7.064,-2.417,-3.843,-8.861,-0.086,-5.774,-96.6,41.58,20.79
,-9.251,-2.891,-5.334,-9.349,-1.615,-5.803,-39.76,43.19,29.54
,-9.16,1.57,-5.896,-9.442,-2.154,-5.733,-8.89,41.23,29.82
,-8.442,2.266,-5.568,-9.246,-1.175,-4.637,-8.82,38.15,31.85
12569.0,-9.624,-0.258,-4.197,-9.555,-0.17,-2.431,-40.53,26.18,3.99
,-9.375,-0.299,-3.52,-9.493,0.211,-2.252,-49.56,24.78,0.42
,-9.387,0.431,-2.886,-9.6,1.079,-2.486,-52.57,24.01,0.56
,-9.564,0.402,-2.773,-9.725,0.821,-2.441,-51.59,23.66,2.31
12645.0,-9.825,0.794,-2.333,-8.921,0.218,-4.044,-27.44,25.9,4.62
,-9.864,0.943,-2.714,-8.815,-0.809,-3.812,-32.13,25.27,1.26
,-9.526,0.869,-3.288,-9.179,-1.101,-3.204,-35.98,24.57,-0.77
,-9.194,0.732,-3.879,-9.469,-0.333,-2.493,-37.73,23.45,-2.31
12721.0,-9.629,0.653,-2.601,-9.229,0.44,-3.391,-20.02,26.04,1.82
,-9.713,0.969,-2.812,-9.366,0.112,-3.479,-25.62,26.04,0.0
,-9.608,0.928,-3.108,-9.208,0.134,-3.285,-33.53,24.92,-2.8
,-9.15,0.816,-3.257,-9.196,-0.086,-3.147,-40.39,24.5,-4.41
12797.0,-9.414,-0.428,-3.017,-9.04,-0.699,-3.436,-35.0,28.49,-5.46
,-9.402,-0.493,-2.888,-9.11,-0.369,-3.539,-31.64,30.87,-6.02
,-9.155,-0.414,-3.34,-9.139,-0.11,-3.57,-28.84,33.04,-6.09
,-9.148,-0.531,-3.424,-9.136,-0.139,-3.81,-27.3,33.46,-6.09
12873.0,-9.227,0.239,-4.305,-9.127,0.61,-4.104,-20.58,33.88,-7.14
,-9.284,0.715,-4.247,-8.981,0.479,-3.831,-20.93,32.9,-8.54
,-9.076,0.823,-4.377,-9.194,0.852,-4.257,-24.22,31.36,-10.22
,-9.184,0.866,-4.279,-9.009,0.555,-4.367,-29.19,29.61,-11.34
12948.0,-8.727,0.084,-4.25,-8.579,-2.139,-4.448,-78.26,28.98,-32.97
,-8.543,-0.4,-4.204,-8.839,-1.342,-5.556,-88.34,30.52,-37.52
,-8.677,-0.83,-4.161,-8.26,-0.921,-6.372,-95.2,31.71,-43.68
,-8.279,-1.414,-4.159,-7.798,-1.917,-7.026,-102.41,33.39,-51.45
13024.0,-7.609,-2.558,-7.365,-8.404,1.07,-6.834,-160.93,29.05,-95.62
,-7.655,-1.962,-7.588,-8.478,0.974,-6.688,-159.95,26.95,-99.4
,-7.923,-0.536,-7.385,-8.37,0.711,-6.296,-160.65,23.94,-102.69
,-8.21,0.395,-7.148,-8.748,0.742,-6.411,-167.23,20.51,-105.98
13099.0,-8.799,0.486,-6.265,-8.05,0.73,-6.181,-201.6,2.87,-116.06
,-8.543,0.366,-6.152,-7.743,0.062,-6.162,-202.51,0.14,-114.73
,-8.485,0.498,-5.927,-7.547,-0.194,-6.176,-202.86,-2.66,-114.17
,-8.318,0.864,-5.552,-7.784,-0.148,-6.279,-204.4,-6.16,-114.45
13175.0,-7.782,-0.285,-5.848,-8.423,-1.448,-5.549,-212.8,-18.06,-113.54
,-8.193,-0.306,-5.755,-8.483,-2.331,-4.664,-213.22,-19.67,-113.4
,-8.282,-0.299,-5.779,-9.024,-1.814,-4.262,-213.08,-21.0,-112.07
,-8.361,-0.663,-5.664,-9.761,-0.759,-3.723,-211.4,-22.12,-109.13
13251.0,-9.866,0.318,-3.453,-8.849,-0.933,-3.513,-150.99,-16.66,-71.4
,-9.567,0.505,-3.355,-8.887,-1.364,-3.329,-143.36,-15.75,-65.87
,-9.34,0.33,-3.396,-8.961,-0.972,-3.573,-137.69,-14.77,-61.6
,-8.823,0.065,-3.57,-8.813,-0.95,-3.199,-134.54,-13.37,-58.52
13327.0,-8.978,-0.857,-3.601,-8.868,-0.153,-5.121,-111.02,-1.96,-47.11
,-8.784,-1.235,-3.845,-8.921,-0.191,-5.446,-107.59,0.7,-45.5
,-8.701,-1.531,-4.324,-8.708,0.227,-5.542,-101.22,3.01,-43.33
,-8.861,-1.022,-4.755,-8.732,0.244,-5.341,-94.01,4.48,-41.86
13402.0,-8.744,-0.074,-5.351,-8.284,0.603,-4.704,-109.48,1.4,-51.03
,-8.796,-0.134,-5.279,-8.203,0.706,-4.255,-115.29,0.49,-54.32
,-8.751,-0.251,-4.949,-8.404,0.488,-3.941,-120.89,0.0,-57.05
,-8.512,-0.038,-4.855,-8.559,0.452,-3.668,-124.67,-0.77,-59.43
13478.0,-8.89,0.512,-3.455,-8.698,1.371,-4.111,-132.79,1.82,-58.66
,-9.026,0.696,-3.355,-8.521,0.957,-4.432,-126.98,3.43,-55.37
,-9.153,0.933,-3.364,-8.574,0.282,-4.752,-120.12,5.04,-51.03
,-9.007,0.983,-3.644,-8.878,0.019,-5.099,-112.77,5.81,-46.62
13553.0,-8.734,0.34,-5.36,-8.169,1.144,-5.686,-83.93,7.42,-31.5
,-8.703,0.749,-5.284,-8.205,0.835,-5.705,-76.65,6.93,-28.63
,-8.734,0.838,-5.695,-8.169,0.675,-5.508,-71.4,6.16,-26.53
,-8.413,1.06,-5.611,-8.571,0.526,-5.453,-67.2,5.11,-24.85
13629.0,-8.667,0.44,-5.659,-7.911,-0.345,-5.688,-53.55,0.49,-17.85
,-8.43,0.17,-5.666,-7.937,0.51,-5.903,-47.11,0.14,-14.84
,-8.447,0.117,-5.877,-8.071,1.302,-5.748,-37.8,0.07,-11.27
,-8.212,-0.285,-6.078,-8.586,1.046,-5.75,-27.93,-0.21,-6.93
13705.0,-8.954,0.019,-5.757,-8.626,0.261,-4.542,2.66,-5.46,1.75
,-8.291,0.002,-5.099,-9.66,0.943,-4.85,4.34,-6.65,1.82
,-7.968,-0.007,-4.575,-9.658,1.759,-5.245,10.43,-6.44,4.55
,-8.437,0.096,-4.298,-9.045,1.519,-5.75,17.36,-5.18,7.42
13781.0,-8.607,1.015,-6.157,-9.239,1.082,-4.74,18.34,-6.09,10.85
,-7.999,-0.467,-6.042,-8.603,1.804,-4.001,12.67,-7.42,11.41
,-8.236,-1.134,-5.307,-8.653,1.529,-3.463,15.61,-7.84,13.37
,-9.265,-0.457,-5.128,-8.851,0.22,-3.161,22.4,-8.82,12.74
13857.0,-8.689,-1.015,-2.685,-9.428,2.218,-2.793,-5.11,-8.33,8.47
,-9.198,-0.816,-2.331,-9.445,2.096,-3.716,3.92,-4.48,11.34
,-9.739,-0.053,-2.151,-8.701,1.297,-4.202,13.37,-0.7,12.67
,-9.667,1.261,-2.257,-8.442,0.378,-4.417,17.43,1.54,12.04
13932.0,-8.748,1.177,-4.913,-8.811,1.187,-5.09,4.13,3.71,5.81
,-8.727,1.694,-4.913,-8.26,0.292,-5.171,1.75,2.87,4.76
,-9.304,1.275,-4.695,-8.514,0.273,-5.188,-3.64,1.54,2.66
,-9.014,1.84,-4.994,-8.543,0.318,-4.716,-7.0,-0.07,1.4
14008.0,-8.579,0.091,-3.965,-9.131,0.256,-4.575,-5.46,0.35,2.94
,-9.11,-0.256,-3.51,-8.921,0.371,-5.147,-5.74,2.31,2.38
,-9.452,-0.555,-3.446,-8.641,0.51,-5.602,-3.92,4.13,2.45
,-9.229,-0.333,-3.735,-8.306,0.024,-5.855,0.56,6.16,3.78
14084.0,-8.303,-0.244,-5.989,-7.791,-0.601,-6.36,18.55,8.26,7.49
,-8.394,0.613,-6.202,-7.94,0.395,-5.989,27.3,7.77,8.61
,-8.035,1.189,-6.545,-8.157,1.283,-5.245,30.73,6.65,9.73
,-7.842,-0.215,-6.516,-8.169,0.744,-4.396,33.32,6.23,11.76
14160.0,-8.306,0.292,-3.556,-9.332,4.436,-3.238,38.92,6.44,8.89
,-9.028,0.613,-3.02,-8.454,3.829,-3.994,41.51,8.33,8.96
,-9.895,3.35,-3.051,-8.325,1.747,-4.556,39.76,7.49,4.41
,-9.572,4.846,-3.376,-8.043,0.469,-4.901,20.02,4.55,-1.47
14235.0,-8.765,0.323,-5.497,-8.811,0.108,-5.183,-26.39,-1.47,-11.9
,-8.502,0.354,-5.887,-8.574,0.345,-5.044,-22.68,-1.19,-11.62
,-8.686,-0.577,-5.939,-8.442,-0.074,-4.568,-20.86,-1.12,-11.48
,-8.686,-0.342,-5.573,-8.844,-0.304,-4.551,-14.07,-1.05,-10.57
14311.0,-8.957,-0.191,-4.594,-8.655,1.931,-4.673,0.0,2.24,-3.71
,-8.6,-1.12,-4.578,-8.818,1.833,-4.982,4.13,4.55,-0.63
,-8.727,-1.883,-4.269,-8.837,1.168,-5.315,14.49,7.21,3.15
,-9.112,0.242,-4.575,-8.344,0.598,-5.508,25.97,7.77,4.76
14386.0,-8.397,0.072,-5.377,-8.737,0.613,-4.676,25.55,3.22,8.05
,-8.514,0.759,-5.305,-8.583,0.893,-4.484,33.11,3.01,9.73
,-8.65,0.849,-5.238,-8.78,0.773,-4.403,33.88,2.1,9.87
,-8.507,0.481,-4.716,-8.804,0.287,-4.212,32.27,1.89,10.15
14462.0,-8.827,-0.036,-4.063,-9.055,1.098,-3.747,25.9,3.36,8.19
,-8.887,0.237,-4.07,-8.949,1.589,-3.762,28.84,4.62,8.89
,-8.839,0.677,-4.056,-8.997,1.618,-4.006,27.93,5.53,8.19
,-8.732,0.972,-3.903,-8.677,1.113,-4.113,24.01,6.58,7.35
14538.0,-8.737,0.567,-4.381,-8.756,0.66,-4.63,5.11,9.87,-2.66
,-8.705,0.682,-4.444,-8.607,0.313,-4.647,6.16,10.43,-3.43
,-8.603,0.462,-4.374,-8.591,0.452,-4.712,6.93,11.41,-2.94
,-8.792,0.407,-4.508,-8.641,0.718,-4.764,9.03,12.39,-2.59
14614.0,-8.698,0.816,-5.152,-8.447,1.132,-5.264,12.74,16.38,-3.22
,-8.598,0.833,-5.365,-8.71,0.704,-4.968,12.46,16.45,-4.06
,-8.315,0.835,-5.463,-8.878,0.572,-4.618,11.41,16.17,-5.18
,-8.39,1.12,-5.52,-8.76,0.838,-4.362,9.66,15.47,-6.93
14690.0,-8.76,1.254,-4.48,-8.897,0.23,-4.731,4.13,16.52,-11.2
,-8.435,1.05,-4.487,-8.911,0.268,-4.752,0.35,17.01,-12.39
,-8.354,0.541,-4.513,-8.624,0.701,-5.023,-2.38,17.78,-13.3
,-8.648,0.357,-4.542,-8.495,0.292,-5.317,-2.17,18.97,-13.86
14765.0,-8.342,-0.031,-5.65,-9.325,-0.311,-5.657,-4.06,22.4,-17.43
,-8.737,-0.275,-5.899,-9.497,0.378,-5.59,-1.61,22.61,-17.85
,-8.978,-0.421,-5.891,-9.797,0.39,-5.573,1.54,23.03,-17.99
,-9.014,-0.61,-5.791,-9.708,-0.06,-5.26,5.88,23.94,-17.22
14841.0,-9.555,-0.526,-4.87,-9.402,0.242,-3.408,4.06,28.7,-22.19
,-9.55,-0.325,-4.432,-9.292,0.304,-3.652,4.34,30.87,-23.38
,-9.428,-0.146,-3.929,-9.139,-0.309,-3.96,3.92,33.53,-24.64
,-9.258,-0.108,-3.518,-9.155,-0.333,-4.245,3.22,36.54,-26.32
14917.0,-9.591,0.94,-4.602,-9.45,-0.156,-4.893,5.32,50.89,-35.7
,-9.787,1.378,-5.245,-9.457,0.665,-5.006,2.59,52.08,-39.13
,-9.517,-0.414,-5.212,-9.21,0.847,-5.063,-3.64,52.99,-41.02
,-9.548,-1.146,-5.087,-9.127,0.912,-5.016,-0.21,55.02,-40.18
14993.0,-9.17,1.199,-4.547,-10.45,1.192,-1.855,-1.26,62.16,-46.83
,-9.363,1.531,-3.824,-10.751,1.18,-1.558,-2.87,64.68,-49.07
,-9.682,1.441,-3.092,-11.161,1.06,-1.122,-5.04,67.97,-51.03
,-9.964,1.34,-2.56,-11.656,0.761,-0.443,-7.21,71.75,-51.52
15068.0,-11.823,0.089,0.158,-12.168,2.594,-1.251,-18.62,98.63,-35.07
,-11.61,-0.481,0.565,-12.091,2.752,-2.788,-19.11,104.37,-31.29
,-10.641,-0.361,1.438,-11.637,2.773,-4.549,-16.52,110.6,-27.51
,-10.548,1.421,0.761,-11.256,3.556,-6.102,2.59,117.67,-27.16
15144.0,-11.376,3.343,-7.42,-9.665,1.376,-10.208,-30.8,117.88,-51.38
,-11.414,2.852,-8.435,-9.557,1.45,-10.847,-51.38,115.5,-53.83
,-10.998,2.414,-8.988,-9.765,1.639,-10.809,-66.5,111.37,-54.6
,-10.27,1.838,-9.469,-10.256,1.919,-10.684,-72.94,105.42,-54.25
15219.0,-10.151,1.807,-10.785,-6.777,-0.704,-10.849,-74.83,43.4,-64.26
,-9.407,1.366,-10.708,-5.575,-0.814,-11.328,-81.9,23.17,-64.89
,-8.413,0.727,-10.806,-4.858,-1.256,-10.605,-83.72,3.08,-64.68
,-7.653,-0.263,-10.735,-4.503,-1.455,-10.4,-84.28,-15.82,-62.51
15295.0,-3.934,-1.216,-10.048,-2.929,0.038,-10.426,-33.95,-104.23,-43.19
,-3.817,-0.548,-9.954,-2.328,-0.177,-10.225,-24.01,-122.64,-40.6
,-3.611,-0.034,-10.294,-2.35,-0.22,-9.907,-18.76,-140.77,-38.92
,-3.084,0.227,-10.29,-2.584,-0.27,-9.914,-20.86,-157.99,-38.71
15371.0,-2.383,0.141,-9.806,-2.615,0.246,-9.758,-29.68,-229.32,-30.87
,-2.601,0.45,-9.622,-2.596,-0.036,-10.077,-31.29,-240.87,-28.35
,-2.625,0.498,-9.457,-2.62,-0.017,-10.136,-35.21,-252.7,-26.32
,-2.807,0.558,-9.622,-3.116,0.366,-10.108,-42.63,-264.39,-26.04
15447.0,-3.79,1.01,-10.144,-4.769,-0.931,-6.047,-46.06,-310.94,-38.78
,-4.389,1.78,-10.029,-6.336,-1.84,-3.683,-40.88,-314.79,-42.42
,-5.451,1.929,-9.332,-8.928,-0.871,-3.264,-43.82,-317.31,-46.83
,-5.698,0.488,-7.763,-9.569,0.213,-2.498,-53.9,-319.48,-52.01
15522.0,-9.397,-0.041,-2.249,-7.758,-3.113,0.431,-48.86,-271.53,-48.09
,-9.799,-1.498,-0.424,-6.896,-2.864,0.55,-63.07,-247.45,-46.48
,-9.16,-2.268,0.029,-6.229,-2.13,1.082,-64.89,-218.33,-39.55
,-8.54,-2.508,-0.16,-6.578,-1.843,2.101,-57.54,-185.99,-31.71
15598.0,-6.978,-0.869,2.448,-6.602,2.056,-3.798,14.84,-8.19,17.78
,-6.911,1.161,1.493,-6.37,1.385,-6.114,18.41,29.75,24.64
,-6.963,2.489,-0.129,-6.714,0.756,-7.787,10.99,64.47,28.07
,-7.112,2.51,-1.945,-15.099,-7.416,-4.168,-5.11,94.15,28.07
15674.0,-32.646,-14.805,11.579,-6.547,-2.383,-6.344,10.29,120.61,72.03
,-22.524,-1.575,-8.973,-7.071,-3.51,-4.769,38.57,108.57,4.69
,-4.104,8.418,-7.578,-10.103,-2.115,-8.83,17.43,106.89,-10.57
,-3.798,6.882,-6.267,-8.65,2.91,-11.182,-64.68,96.32,-10.71
15750.0,-5.769,5.877,-10.177,-8.002,-3.077,-6.391,-53.76,109.27,9.24
,-6.174,4.07,-9.296,-8.567,-2.934,-5.559,-86.03,100.17,-12.32
,-7.763,-1.149,-8.452,-9.682,-3.084,-4.941,-94.01,94.08,-15.33
,-8.562,-3.795,-7.167,-9.715,-0.648,-4.965,-72.59,87.08,-7.35
15826.0,-8.622,1.637,-5.09,-8.495,0.627,-6.26,24.78,74.34,31.78
,-8.078,2.577,-5.712,-8.825,-0.421,-5.855,16.66,67.9,24.43
,-8.617,2.589,-6.104,-9.438,0.447,-5.977,1.05,61.74,19.25
,-8.693,2.17,-6.494,-9.323,1.881,-6.092,-14.77,57.47,18.9
15901.0,-9.064,1.728,-5.901,-8.997,-0.318,-4.963,-9.17,42.49,12.67
,-9.124,0.416,-5.659,-9.026,1.015,-5.097,-15.05,40.25,12.88
,-9.016,-0.775,-5.437,-9.115,1.792,-5.307,-12.04,39.2,14.77
,-8.928,-1.05,-5.104,-9.086,1.539,-5.229,-0.77,38.5,16.31
15977.0,-9.081,0.601,-4.984,-9.112,0.325,-4.216,-9.94,26.74,7.98
,-9.007,-0.211,-4.724,-9.234,0.878,-3.936,-9.94,25.83,7.63
,-8.995,-0.294,-4.669,-9.048,1.407,-3.74,-4.62,25.41,7.28
,-8.897,-0.017,-4.417,-9.093,1.814,-3.697,0.98,25.48,7.98
16052.0,-9.136,1.565,-3.384,-9.119,-0.617,-2.3,-11.62,26.53,8.33
,-9.122,1.01,-3.104,-9.112,-0.675,-2.283,-18.76,27.65,7.84
,-9.244,0.455,-2.905,-9.021,-0.68,-2.235,-21.77,29.26,8.19
,-9.349,-0.151,-2.635,-8.935,-0.371,-2.314,-21.35,32.06,9.38
16128.0,-9.392,0.017,-2.759,-8.744,-0.512,-3.539,-4.48,49.84,12.11
,-9.576,-0.062,-2.972,-8.82,-0.407,-3.927,-8.82,52.22,9.1
,-9.359,-0.124,-3.192,-9.074,-0.452,-3.896,-13.02,54.11,8.05
,-8.722,-0.254,-3.403,-9.323,0.639,-4.106,-12.74,56.84,10.22
16204.0,-9.792,0.388,-4.044,-10.77,-0.701,-3.613,16.94,72.17,17.78
,-10.285,-0.51,-3.699,-10.77,-0.869,-3.556,20.09,76.02,17.01
,-10.337,-0.115,-3.589,-11.031,-0.529,-3.649,25.27,80.29,16.24
,-10.759,-0.316,-3.486,-11.237,-0.61,-3.47,26.88,84.77,14.91
16280.0,-11.366,-0.876,-3.056,-13.766,-1.773,-0.787,31.85,108.92,7.21
,-11.536,-1.263,-2.675,-12.591,-5.504,1.558,34.09,114.8,7.21
,-12.364,0.029,-2.254,-14.951,-3.017,3.508,40.95,120.33,6.93
,-14.685,3.85,-3.798,-15.997,-2.795,5.219,44.38,123.97,1.61
16355.0,-16.772,-3.683,6.097,-12.278,-0.101,2.079,72.66,172.27,36.54
,-16.911,-3.094,5.403,-13.735,5.044,-7.667,74.48,179.48,39.9
,-16.77,-2.496,3.587,-14.881,5.178,-9.655,76.65,183.33,44.24
,-15.939,-2.087,1.819,-13.628,5.724,-13.771,84.84,185.64,50.96
16431.0,-11.426,4.013,-14.542,-3.711,-3.79,-15.973,54.25,157.99,2.45
,-11.646,2.57,-14.46,-3.963,-4.482,-15.908,14.84,132.79,-3.85
,-11.373,1.479,-14.025,-4.659,-3.934,-13.072,-19.95,99.26,-2.03
,-7.425,-0.861,-13.774,-5.796,-2.556,-10.306,-42.14,69.02,9.1
16506.0,-5.946,-0.928,-10.936,-3.269,0.426,-10.34,85.26,-2.59,67.69
,-4.946,0.062,-10.809,-2.453,0.861,-10.787,74.34,-33.81,72.8
,-3.865,0.306,-10.026,-2.156,0.845,-10.493,53.9,-60.34,74.76
,-3.64,0.215,-10.203,-2.264,0.158,-10.294,34.09,-87.5,73.99
16582.0,-2.015,-0.873,-10.146,-1.417,-1.917,-8.485,-45.08,-182.63,56.7
,-2.206,-1.565,-9.749,-1.888,-1.24,-8.476,-50.89,-199.22,50.47
,-1.704,-1.869,-9.304,-1.79,-0.129,-8.866,-45.29,-216.23,45.43
,-1.531,-2.056,-8.973,-1.299,0.799,-9.036,-30.94,-232.89,41.51
16658.0,-1.455,0.723,-9.423,-2.57,-1.347,-10.115,-41.44,-297.15,23.1
,-1.443,-0.436,-9.361,-3.556,-0.378,-9.852,-56.28,-306.95,15.54
,-1.663,-1.883,-9.332,-4.451,0.232,-9.753,-56.56,-316.68,7.14
,-2.142,-2.111,-9.696,-4.939,0.818,-9.124,-44.45,-326.27,-0.42
16734.0,-5.583,1.225,-7.763,-10.187,0.67,-1.086,-11.97,-352.17,-37.87
,-5.853,0.919,-6.162,-9.78,0.522,-0.833,-19.88,-346.5,-39.13
,-7.868,0.96,-5.918,-8.866,-1.184,-0.428,-29.54,-337.89,-38.99
,-8.868,0.378,-2.589,-7.566,-3.582,-0.206,-43.26,-325.36,-44.87
16810.0,-6.167,-4.463,-0.203,-6.317,1.347,2.453,-101.08,-173.67,-40.95
,-5.035,-3.12,2.417,-6.487,2.285,0.019,-74.69,-129.01,-27.3
,-5.257,-2.187,4.068,-6.274,2.022,-2.967,-50.12,-80.29,-12.74
,-5.832,-0.79,4.109,-5.832,1.122,-6.619,-32.9,-28.91,-0.98
16885.0,-5.53,0.275,-9.217,-7.248,7.897,-6.15,-63.91,163.45,20.44
,-23.106,-10.687,-7.294,-5.676,-2.292,-5.607,-66.01,146.58,29.47
,-35.437,-10.014,6.99,-9.466,-3.616,-8.011,20.79,88.83,52.92
,-17.889,2.18,-3.632,-7.641,-3.029,-7.224,18.55,97.37,3.43
16961.0,-8.44,1.61,-9.703,-7.995,1.603,-9.99,-0.21,160.16,31.57
,-4.757,6.638,-10.567,-9.722,2.005,-9.682,-9.73,143.71,14.7
,-2.761,6.169,-11.299,-9.368,-2.539,-7.844,-52.78,128.1,-12.53
,-5.324,3.484,-11.96,-8.703,-6.595,-5.729,-74.62,118.02,-21.42
17037.0,-8.026,-4.915,-4.896,-8.787,3.525,-6.683,-7.28,87.78,30.59
,-8.047,-0.526,-5.238,-9.002,4.133,-6.746,21.21,84.7,22.75
,-8.583,2.067,-5.884,-8.949,3.57,-6.549,24.08,80.22,17.99
,-8.624,2.745,-6.296,-9.079,1.249,-6.396,15.05,75.6,18.55
17113.0,-9.296,-1.039,-6.21,-8.82,-0.038,-5.93,-35.56,49.49,9.1
,-9.407,-1.094,-6.193,-8.787,-0.491,-5.518,-16.73,46.41,8.33
,-9.079,0.124,-6.162,-9.079,-0.27,-5.205,-0.56,43.82,11.48
,-8.904,0.38,-6.281,-9.249,0.704,-5.121,7.42,41.23,14.98
17188.0,-9.186,1.476,-5.09,-9.237,-0.325,-3.702,10.64,31.71,10.78
,-9.222,1.263,-4.755,-9.411,0.242,-3.666,5.11,29.82,9.59
,-9.246,0.416,-4.341,-9.402,0.692,-3.699,1.68,28.28,8.26
,-8.985,-0.069,-3.697,-9.103,0.912,-3.824,4.83,27.58,9.38
17264.0,-9.115,0.938,-4.106,-9.007,0.201,-3.786,17.71,29.05,12.32
,-8.99,0.696,-4.247,-9.1,0.751,-3.664,11.34,28.77,11.34
,-8.789,-0.05,-4.068,-9.325,1.316,-3.924,5.46,29.12,11.13
,-8.792,-0.29,-3.843,-9.086,1.57,-3.965,5.46,30.03,12.04
17339.0,-8.801,1.163,-3.979,-9.517,1.194,-2.898,1.54,35.42,13.79
,-8.586,0.751,-3.948,-9.61,0.385,-2.003,0.91,36.54,14.28
,-8.593,1.079,-3.917,-9.452,-0.23,-1.082,2.31,37.17,14.14
,-9.083,1.472,-3.491,-9.698,-0.459,-0.574,1.4,37.38,13.58
17415.0,-10.043,-0.122,-0.309,-9.871,-1.199,-0.687,6.02,56.0,16.31
,-10.146,-0.507,0.045,-10.146,-1.24,-1.536,6.51,62.86,15.89
,-9.756,-1.05,0.261,-10.558,-1.292,-2.283,9.1,70.84,15.89
,-9.749,-1.261,-0.318,-10.991,-1.529,-2.642,12.95,79.45,15.68
17491.0,-11.534,-1.517,-2.723,-15.181,4.984,-4.46,24.22,115.08,7.07
,-11.62,-0.739,-2.733,-15.274,-1.383,-2.089,28.98,121.38,7.14
,-11.74,-0.67,-2.204,-12.46,-7.559,0.637,31.01,127.68,8.26
,-12.417,-0.05,-2.027,-14.989,-5.095,3.769,36.12,134.75,8.82
17567.0,-16.272,-3.891,5.173,-15.946,-4.305,1.711,76.44,178.43,33.6
,-17.873,-4.202,5.707,-13.305,-2.218,1.606,78.4,188.3,37.31
,-17.533,-3.345,4.791,-14.013,3.656,-6.755,69.51,194.11,33.32
,-16.935,-3.609,3.443,-14.542,5.142,-9.993,58.03,198.31,32.97
17643.0,-14.381,6.454,-13.374,-7.021,0.737,-15.293,115.29,187.53,9.73
,-12.656,5.439,-14.898,-3.63,-2.548,-16.351,65.66,164.92,-0.91
,-11.852,4.647,-14.984,-5.056,-3.635,-15.159,25.2,137.34,-9.73
,-11.33,3.877,-15.374,-6.466,-2.331,-13.127,-15.05,100.45,-15.54
17718.0,-6.748,-1.062,-12.252,-2.544,-0.175,-10.541,60.69,3.78,33.46
,-5.386,-0.285,-11.869,-2.204,-0.452,-10.134,63.7,-33.25,38.08
,-3.659,0.165,-11.213,-1.326,-0.218,-10.072,59.5,-63.7,43.47
,-2.883,0.112,-10.976,-0.646,0.347,-10.062,50.4,-89.39,47.11
17794.0,-0.991,0.392,-9.828,-1.749,-0.842,-8.593,-6.86,-192.85,46.13
,-1.184,0.208,-9.517,-1.687,-1.204,-8.839,-24.22,-211.12,41.79
,-0.969,0.053,-9.261,-1.407,-0.955,-9.347,-35.84,-227.29,39.83
,-1.472,-0.105,-8.768,-0.694,-0.852,-9.627,-39.13,-243.25,38.29
17870.0,-0.632,-0.962,-9.428,-3.168,-1.003,-9.593,-38.78,-315.0,18.06
,-1.127,-1.369,-8.727,-3.58,-0.912,-9.292,-40.46,-323.68,13.51
,-2.032,-1.78,-8.782,-3.845,-0.672,-8.629,-37.31,-334.39,7.56
,-2.735,-1.352,-9.15,-4.511,-0.364,-8.074,-31.08,-345.03,0.21
17946.0,-4.86,-0.313,-6.403,-10.627,1.788,-1.06,-18.69,-362.95,-36.82
,-6.537,-0.201,-5.138,-9.251,0.692,-0.175,-11.27,-352.45,-33.18
,-8.789,0.172,-3.104,-7.894,-3.759,0.833,-7.84,-339.15,-35.07
,-10.653,1.335,-2.603,-5.748,-6.018,2.891,-6.51,-323.12,-41.72
18021.0,-4.891,-4.054,4.056,-7.016,2.343,0.263,-42.0,-137.48,-17.92
,-4.776,-1.505,6.085,-7.124,2.804,-3.85,-14.21,-80.15,-4.34
,-5.611,-0.354,6.411,-7.088,2.324,-7.069,-0.14,-20.72,4.9
,-6.528,0.974,4.027,-17.7,-6.815,-14.551,-0.14,37.66,10.43
18097.0,-31.9,-9.962,6.454,-7.444,-5.98,-9.033,-3.85,108.85,47.46
,-16.693,3.467,-3.084,-5.681,1.237,-7.954,15.96,110.95,9.66
,-10.749,3.147,-4.178,-8.756,5.097,-10.194,-55.23,140.28,-0.42
,-5.992,-5.944,-5.456,-8.126,7.102,-13.273,-104.23,153.44,9.8
18172.0,-3.238,6.607,-11.33,-8.772,-3.556,-7.224,-67.48,131.88,-2.52
,-3.735,3.565,-11.665,-8.626,-7.449,-5.116,-95.27,122.22,-21.49
,-7.404,0.16,-9.978,-8.952,-4.092,-5.008,-95.55,112.49,-24.43
,-9.469,-1.735,-8.681,-8.356,1.082,-5.829,-84.98,102.2,-15.05
18248.0,-8.409,3.386,-6.49,-9.306,3.309,-6.143,29.54,83.79,21.07
,-8.552,3.276,-6.569,-9.416,2.18,-6.301,16.03,79.52,24.5
,-8.552,3.264,-6.348,-9.172,0.775,-6.248,6.16,73.78,24.01
,-8.844,3.704,-6.198,-9.208,0.275,-6.277,-0.56,67.76,19.67
18324.0,-9.072,0.266,-6.15,-9.05,-0.06,-5.363,-2.66,47.6,11.2
,-9.028,0.39,-6.085,-8.983,-0.053,-5.37,2.52,44.66,11.41
,-9.062,0.292,-5.899,-8.859,-0.038,-5.051,3.85,41.51,10.71
,-9.081,0.05,-5.642,-8.902,-0.132,-4.628,2.8,38.71,9.52
18400.0,-8.959,-0.069,-3.989,-9.361,1.354,-3.975,-10.08,26.32,1.4
,-9.229,0.503,-3.386,-8.775,1.273,-3.967,-11.27,24.57,-0.49
,-9.318,0.981,-3.271,-8.914,0.622,-3.654,-14.63,23.59,-0.91
,-9.497,0.878,-3.326,-8.782,0.153,-3.307,-20.23,22.96,-1.19
18475.0,-8.882,-0.191,-3.096,-9.009,-0.723,-2.592,-29.12,29.33,3.5
,-9.273,-0.172,-2.611,-9.153,-0.627,-2.967,-27.37,31.36,3.85
,-9.122,0.397,-2.69,-9.16,-0.203,-3.343,-28.0,33.18,4.34
,-9.217,-0.017,-2.74,-9.148,-0.266,-3.623,-31.01,35.84,5.32
18551.0,-9.088,-0.859,-3.448,-9.854,-0.22,-1.639,-15.54,50.96,11.69
,-9.316,-1.362,-3.005,-10.292,-0.672,-1.481,-10.08,54.18,14.14
,-9.751,-1.285,-2.534,-10.431,-1.534,-1.503,0.49,58.38,17.08
,-10.464,-1.077,-2.218,-10.021,-1.165,-1.883,9.8,62.93,20.09
18627.0,-10.306,-1.369,-1.752,-10.438,-0.577,-2.182,39.76,92.26,20.79
,-10.347,-1.086,-1.613,-10.636,-0.34,-2.821,33.6,97.93,16.31
,-10.268,-0.847,-1.594,-10.849,-0.112,-3.245,24.71,103.6,12.32
,-10.412,-0.625,-1.902,-10.998,-0.668,-3.537,15.61,108.85,9.03
18703.0,-11.426,-0.802,-4.475,-14.003,-5.889,0.34,10.01,133.91,11.06
,-13.771,3.896,-5.016,-14.762,-4.929,1.84,29.12,136.36,10.15
,-14.513,0.919,-5.106,-15.209,-4.188,2.843,18.13,139.16,6.58
,-13.005,-5.09,-3.046,-15.087,-2.623,3.9,14.91,147.42,16.8
18779.0,-15.556,-0.68,2.367,-12.446,4.841,-10.426,161.91,184.45,80.36
,-14.697,0.861,-0.201,-12.675,3.656,-11.809,164.85,182.35,78.61
,-12.426,1.797,-2.666,-11.711,3.496,-13.664,161.84,181.79,73.5
,-10.845,3.503,-5.339,-10.412,3.515,-13.683,160.51,185.78,62.51
18854.0,-9.526,3.62,-14.003,-4.319,-2.91,-12.941,17.5,94.92,-2.73
,-6.817,1.441,-13.597,-5.748,-2.235,-11.797,-24.29,63.84,5.39
,-4.238,-2.132,-13.836,-5.154,-1.182,-11.452,-39.9,46.97,18.13
,-3.589,-3.479,-14.204,-4.011,-0.924,-11.306,-19.04,42.0,31.15
18930.0,-3.357,-1.077,-10.833,-0.871,-0.928,-9.878,11.27,-90.51,59.01
,-2.704,-1.192,-10.589,-0.675,-0.826,-10.031,3.85,-113.75,61.18
,-1.914,-1.117,-10.493,-0.756,-0.931,-9.974,-2.73,-135.31,63.7
,-1.431,-1.125,-10.244,-1.015,-1.089,-10.223,-8.61,-153.86,63.42
19005.0,-0.893,-1.22,-10.057,-0.333,-0.558,-10.823,-48.09,-241.5,56.77
,-0.388,-1.438,-10.014,-0.581,-1.237,-11.156,-39.34,-263.13,55.93
,0.555,-0.842,-10.971,-0.826,-1.725,-11.261,-32.06,-280.91,49.77
,0.445,-0.553,-10.888,-0.792,-1.443,-11.907,-32.34,-292.95,41.65
19081.0,-0.534,-0.4,-12.046,-5.683,-1.144,-7.284,-12.6,-357.14,-0.7
,-1.534,0.751,-11.984,-9.502,-1.668,-5.578,1.96,-362.88,-6.72
,-2.979,1.326,-12.297,-10.39,-1.622,-4.846,7.98,-367.29,-13.72
,-4.025,0.704,-10.689,-10.194,-0.237,-2.852,10.5,-365.05,-19.32
19157.0,-9.797,-0.833,-1.29,-3.556,-1.323,1.266,63.7,-279.72,0.49
,-8.77,-2.718,0.615,-3.898,0.519,2.804,43.82,-241.5,6.58
,-6.423,-3.463,1.28,-5.324,1.862,2.388,33.53,-194.53,12.81
,-4.532,-3.19,1.072,-5.786,1.993,0.976,38.64,-142.17,17.5
19233.0,-6.159,1.742,-1.266,-29.045,-0.062,0.022,3.36,91.91,3.15
,-5.918,0.986,-2.845,-13.053,7.662,-3.644,-26.74,122.85,-0.56
,-8.591,-2.436,-3.343,-4.956,-0.524,0.127,-56.84,156.73,16.03
,-33.503,-14.884,6.86,-6.033,-8.837,-1.575,-60.9,102.97,16.73
19308.0,-8.811,-5.195,-1.565,-5.477,0.512,-8.696,-106.26,80.64,-31.01
,-10.388,4.913,-4.269,-4.145,-0.718,-9.476,-47.6,105.98,-17.64
,-11.574,7.306,-7.423,-7.928,-0.577,-8.15,-40.46,113.61,-7.0
,-10.1,4.216,-10.132,-10.718,0.964,-6.801,-83.79,105.56,-20.02
19384.0,-10.321,-2.422,-4.819,-9.938,-1.809,-3.046,-21.35,55.58,14.63
,-8.985,0.799,-4.424,-8.784,-1.196,-3.228,2.73,53.76,17.36
,-7.267,1.536,-4.032,-9.294,-0.373,-3.022,0.63,48.23,9.03
,-10.51,-0.223,-3.546,-9.828,-0.543,-2.986,-18.9,45.08,-0.7
19460.0,-9.82,-1.445,-3.092,-8.949,1.505,-5.824,-14.21,47.53,7.07
,-9.481,-0.974,-3.644,-9.072,1.216,-6.102,9.45,48.02,12.95
,-9.273,0.773,-4.252,-9.196,0.847,-5.989,29.96,46.97,16.03
,-8.976,1.512,-5.049,-9.282,-0.639,-5.652,37.87,44.1,17.64
19536.0,-8.995,-1.933,-4.786,-9.82,-0.012,-2.673,17.29,24.01,11.2
,-8.966,-2.187,-4.209,-9.993,0.79,-2.328,29.82,22.75,14.49
,-9.107,-1.852,-3.656,-10.057,1.539,-2.86,43.82,22.47,18.41
,-9.256,-0.993,-3.029,-9.567,1.692,-3.24,55.93,22.89,22.61
19612.0,-9.311,1.493,-3.544,-9.095,0.524,-3.778,54.95,22.75,20.44
,-9.052,1.309,-4.037,-9.407,0.773,-3.484,52.08,21.42,18.41
,-8.88,1.397,-4.3,-9.655,1.177,-3.635,50.05,19.81,17.29
,-8.957,0.797,-4.013,-9.258,1.247,-3.565,48.37,18.13,17.15
19687.0,-9.098,0.663,-3.235,-9.284,0.409,-4.07,37.1,14.21,11.83
,-9.512,0.256,-3.482,-8.993,0.648,-4.223,36.47,14.21,10.43
,-9.325,0.151,-3.434,-8.799,0.5,-4.305,37.1,14.77,9.45
,-9.306,0.024,-3.75,-8.894,0.345,-4.116,39.13,15.05,8.82
19763.0,-9.093,0.134,-3.977,-9.423,2.111,-5.391,62.86,15.4,11.13
,-9.208,0.043,-4.267,-8.837,1.589,-5.446,71.61,15.61,12.18
,-9.548,0.794,-4.446,-8.696,-0.067,-5.363,79.94,14.77,12.88
,-10.311,1.307,-5.169,-8.966,0.124,-5.083,79.17,12.18,9.38
19838.0,-8.957,0.665,-4.625,-8.705,-0.031,-3.439,78.75,4.83,7.7
,-9.287,0.565,-4.379,-8.837,-0.263,-3.252,79.73,3.71,6.72
,-9.069,0.704,-4.101,-9.076,-0.536,-3.07,81.9,3.29,6.51
,-8.964,0.244,-3.874,-9.268,-0.797,-2.795,83.65,3.57,6.37
19914.0,-9.483,-0.646,-2.735,-9.325,2.491,-3.094,113.75,9.45,11.69
,-9.433,-0.232,-2.632,-9.299,2.197,-3.257,116.83,10.01,11.83
,-9.868,0.392,-3.039,-9.423,1.721,-3.013,117.04,9.52,10.5
,-9.718,1.452,-3.111,-9.536,0.924,-2.883,112.91,7.84,8.33
19990.0,-9.411,-0.069,-2.553,-10.01,0.593,-4.891,79.38,11.69,7.14
,-9.301,-0.194,-2.565,-9.569,1.043,-3.996,82.67,14.0,7.63
,-9.574,-0.335,-2.962,-9.698,1.505,-3.855,85.4,15.19,7.7
,-9.49,-1.543,-3.281,-10.337,1.991,-4.855,94.5,16.1,9.38
20066.0,-9.966,1.685,-5.796,-8.457,0.129,-6.947,86.59,12.46,7.07
,-9.462,1.194,-6.336,-8.186,-0.352,-6.301,84.56,8.33,6.65
,-9.296,0.029,-6.82,-8.49,-1.295,-5.913,88.27,4.69,7.56
,-9.112,-0.266,-7.174,-8.502,-1.826,-5.497,97.23,1.26,9.73
20141.0,-8.311,-1.986,-4.996,-8.512,-0.938,-4.192,130.62,-8.33,30.73
,-8.09,-1.78,-4.714,-8.502,-0.852,-4.298,141.96,-8.4,36.68
,-8.157,-1.307,-4.549,-8.284,-0.251,-4.46,151.06,-7.7,42.98
,-8.358,-1.029,-4.279,-8.105,0.677,-4.606,158.83,-5.95,50.82
20217.0,-8.05,1.132,-4.8,-8.124,1.05,-4.247,198.73,8.33,83.23
,-8.102,0.907,-4.862,-8.205,1.015,-3.829,196.42,9.94,84.0
,-7.961,0.723,-4.879,-8.887,1.362,-4.326,196.07,11.27,84.56
,-8.04,0.876,-4.307,-9.33,1.316,-4.48,198.66,12.67,85.89
20293.0,-9.481,0.818,-4.322,-9.579,-0.208,-3.061,178.99,5.46,84.7
,-9.663,-0.268,-3.989,-9.902,1.713,-3.104,173.04,2.38,83.44
,-9.519,-1.675,-3.783,-10.218,2.599,-3.025,172.83,0.77,83.02
,-9.351,-1.986,-3.125,-10.029,2.103,-2.706,179.76,-0.14,83.93
20369.0,-9.579,1.445,-1.486,-9.564,-1.713,-2.596,123.76,-4.13,48.02
,-9.849,0.747,-1.713,-9.27,-2.431,-2.623,107.59,-2.8,42.42
,-9.775,-0.11,-2.374,-9.131,-2.819,-2.812,92.26,-1.61,37.38
,-9.643,-1.027,-2.469,-9.038,-2.941,-3.037,82.11,0.21,35.28
20444.0,-8.892,-2.659,-2.912,-9.608,-0.56,-2.814,125.79,13.72,47.6
,-8.83,-1.917,-2.749,-9.574,-0.246,-2.96,142.17,16.1,50.96
,-8.926,-1.409,-2.187,-9.225,-0.191,-2.819,153.65,19.11,54.39
,-9.33,-0.89,-2.548,-9.229,-0.395,-2.446,160.79,21.0,56.0
20520.0,-9.572,-0.548,-2.307,-9.887,-0.072,-2.178,160.3,13.58,57.96
,-9.758,-0.625,-2.12,-9.895,0.014,-2.314,166.04,12.95,60.2
,-9.818,-0.354,-1.85,-9.765,0.077,-2.749,171.78,12.95,62.16
,-9.859,-0.065,-2.084,-9.545,0.251,-2.541,175.91,12.81,63.14
20596.0,-9.469,0.608,-2.737,-9.603,1.826,-2.785,186.2,9.52,70.35
,-9.328,1.012,-2.871,-9.646,1.859,-2.699,186.76,7.42,70.63
,-9.335,1.414,-3.092,-9.505,1.89,-2.295,185.22,4.48,69.93
,-9.552,1.668,-2.996,-9.411,1.888,-2.034,181.09,1.47,68.18
20672.0,-9.572,1.783,-2.115,-9.11,-0.136,-1.977,139.51,-6.23,53.97
,-9.586,1.543,-1.984,-8.887,0.055,-1.732,131.18,-6.44,51.73
,-9.524,0.754,-1.883,-8.985,0.677,-1.979,125.51,-5.74,51.59
,-9.502,0.077,-2.041,-9.265,1.263,-2.146,124.04,-4.34,53.13
20748.0,-9.665,1.905,-2.216,-9.45,2.809,-1.941,134.68,3.71,53.55
,-9.777,2.56,-2.367,-9.33,2.986,-2.106,127.68,5.32,51.87
,-9.665,2.668,-2.046,-9.421,2.577,-2.764,116.69,6.3,50.05
,-9.524,2.74,-1.823,-9.44,1.491,-3.171,104.23,7.63,47.6
20823.0,-9.093,0.517,-2.958,-8.89,-0.287,-3.518,32.9,12.67,25.62
,-8.923,0.024,-2.316,-9.32,-0.215,-3.958,25.55,12.6,20.09
,-9.002,-0.158,-2.639,-9.916,-0.474,-3.175,18.06,13.51,13.16
,-8.801,-0.39,-3.159,-10.481,-0.44,-2.651,9.24,15.61,6.72
20899.0,-10.646,-0.531,-2.816,-8.873,0.823,-3.81,-25.27,20.93,-4.34
,-10.335,-0.079,-2.929,-8.923,0.821,-3.965,-21.21,21.84,-1.96
,-9.878,0.211,-3.269,-9.014,0.974,-4.089,-14.49,22.33,0.49
,-9.258,0.632,-3.429,-8.799,1.065,-4.082,-6.3,22.75,3.15
20974.0,-8.794,1.271,-3.924,-9.273,1.405,-4.494,15.54,19.67,12.46
,-9.153,1.586,-4.027,-9.098,0.828,-4.657,15.96,18.83,12.67
,-9.167,1.744,-4.113,-8.976,0.486,-4.704,12.95,18.06,12.11
,-9.134,1.737,-4.008,-9.076,0.579,-4.877,9.03,17.22,11.41
21050.0,-9.079,1.208,-5.118,-8.346,-1.228,-4.767,-4.27,12.95,2.8
,-9.11,1.292,-5.197,-8.612,-1.34,-4.422,-10.78,11.48,-0.21
,-8.878,0.842,-5.355,-8.806,-0.426,-4.52,-18.48,9.8,-2.38
,-8.507,-0.299,-5.118,-8.866,0.402,-4.398,-23.66,8.47,-2.17
21126.0,-9.031,0.749,-4.307,-9.115,0.321,-4.164,2.8,7.42,4.83
,-9.296,0.842,-4.334,-9.139,0.842,-3.893,-0.49,6.65,4.55
,-9.201,0.842,-4.683,-9.287,1.464,-3.939,-3.99,5.46,3.85
,-8.897,0.471,-4.427,-9.395,1.685,-3.958,-7.0,4.34,3.78
21202.0,-8.985,1.189,-3.575,-9.378,0.168,-2.539,-7.84,3.78,3.22
,-8.708,-0.048,-3.197,-9.617,1.022,-3.25,-9.31,5.46,4.69
,-8.945,-0.696,-2.938,-9.289,1.603,-4.039,-3.08,7.56,6.16
,-9.244,-0.507,-2.757,-8.815,1.307,-4.542,6.02,10.5,7.98
21277.0,-8.703,0.814,-4.932,-8.689,0.773,-4.683,10.64,15.19,9.45
,-8.737,0.847,-5.118,-8.691,0.433,-4.338,15.75,15.05,10.15
,-8.894,1.134,-5.178,-8.935,0.507,-4.032,20.09,14.56,10.64
,-8.916,1.211,-5.049,-9.048,0.931,-3.86,20.51,13.65,10.43
21353.0,-9.057,1.067,-3.577,-9.265,1.213,-4.066,20.93,14.0,10.29
,-9.155,0.701,-3.405,-8.949,1.496,-4.647,18.62,15.19,10.29
,-9.143,0.345,-3.144,-8.605,0.912,-5.027,19.25,16.38,10.71
,-9.244,0.653,-3.431,-8.648,0.179,-5.339,23.45,18.06,10.85
21428.0,-8.713,0.115,-5.176,-8.624,1.117,-4.42,25.69,19.04,9.31
,-8.892,0.646,-5.224,-8.952,1.206,-4.202,30.8,18.97,9.38
,-8.684,1.259,-5.008,-9.15,1.424,-4.044,31.5,18.55,9.66
,-8.607,1.309,-4.676,-9.129,1.259,-4.078,26.39,17.99,9.31
21504.0,-8.99,1.086,-4.109,-8.588,1.364,-4.697,15.61,20.58,8.4
,-8.794,0.96,-4.046,-8.478,0.586,-4.618,16.38,21.7,9.17
,-8.784,1.108,-4.135,-8.402,0.541,-4.609,18.27,22.96,9.59
,-8.792,1.395,-4.432,-8.227,1.225,-4.503,18.48,23.45,8.68
21580.0,-8.327,1.546,-4.477,-9.119,1.216,-3.585,9.31,23.8,4.55
,-8.325,1.63,-4.247,-9.294,1.28,-3.611,4.13,23.94,3.57
,-8.591,1.548,-3.91,-8.997,1.4,-3.671,-0.28,24.64,2.73
,-8.801,1.385,-3.659,-8.789,0.988,-4.046,-2.45,25.76,2.03
21656.0,-9.191,0.17,-4.441,-9.715,-1.015,-5.398,-5.88,35.42,1.82
,-9.026,-0.232,-4.824,-9.916,-1.17,-5.221,-0.98,37.73,3.01
,-9.407,-0.369,-5.262,-9.971,-0.763,-4.908,4.83,39.83,4.55
,-9.641,-0.503,-5.465,-9.902,-0.567,-4.448,8.89,41.72,5.6
21732.0,-9.809,-0.443,-4.022,-9.541,1.019,-3.903,25.27,54.04,8.26
,-9.672,-0.148,-3.924,-10.203,2.297,-3.979,25.97,57.12,7.91
,-9.457,0.246,-3.805,-11.309,3.276,-4.377,25.55,60.41,7.49
,-9.387,0.572,-3.81,-10.754,0.294,-4.051,24.99,63.63,6.93
21807.0,-9.713,-2.752,-3.185,-9.885,-2.151,-2.828,7.21,79.17,-0.28
,-10.014,-1.575,-2.625,-9.988,-2.615,-2.62,20.93,84.42,4.41
,-10.278,-0.041,-2.898,-10.249,-2.438,-1.788,27.23,88.9,6.37
,-10.239,-0.871,-3.001,-10.971,-1.656,-0.974,23.38,93.17,6.02
21883.0,-11.792,-1.06,-0.34,-12.749,-1.338,-1.019,61.25,122.08,25.69
,-12.326,-0.909,-0.072,-11.95,-0.816,-2.103,67.55,127.75,30.1
,-12.692,-1.292,0.129,-10.809,0.194,-4.042,71.96,133.35,35.63
,-12.943,-1.658,-0.144,-10.156,0.905,-6.186,80.15,138.04,42.42
21959.0,-10.261,1.685,-8.399,-9.765,2.027,-11.969,104.23,151.69,36.4
,-10.756,1.735,-9.454,-7.954,2.211,-11.95,93.1,152.25,32.9
,-11.807,1.395,-10.531,-6.152,0.78,-11.811,80.85,144.83,23.8
,-10.553,1.512,-11.429,-5.642,-1.546,-12.06,69.44,130.9,17.64
22035.0,-6.446,-2.647,-11.993,-5.583,0.416,-10.256,14.98,45.64,17.64
,-7.121,-1.878,-11.249,-5.547,-0.488,-9.478,34.79,29.54,22.96
,-7.054,-0.268,-10.735,-4.759,-0.823,-9.646,40.11,5.18,27.44
,-5.987,0.802,-10.885,-4.422,-0.589,-9.622,31.64,-20.3,29.19
22110.0,-4.137,-0.199,-9.308,-3.242,-1.417,-9.43,-6.93,-114.94,36.75
,-4.015,-0.325,-9.002,-3.769,-2.113,-9.055,-14.7,-131.46,37.38
,-3.865,-0.44,-9.287,-3.738,-2.223,-8.6,-25.06,-149.94,34.51
,-3.62,-0.787,-9.399,-3.592,-1.852,-8.514,-32.48,-166.67,31.36
22186.0,-3.9,-1.723,-8.423,-4.398,-0.684,-8.485,3.29,-231.91,27.02
,-4.154,-1.438,-8.337,-4.353,-0.928,-8.076,10.71,-243.81,28.14
,-4.393,-0.95,-8.71,-4.322,-1.031,-7.858,11.62,-255.29,29.89
,-4.439,-0.577,-8.653,-4.563,-0.907,-7.849,9.66,-264.39,31.15
22261.0,-5.176,-0.5,-7.875,-5.415,1.225,-6.449,18.34,-293.72,27.79
,-5.54,0.101,-7.94,-5.875,1.881,-5.085,18.34,-298.13,24.29
,-6.028,0.299,-7.722,-6.111,2.369,-4.786,14.14,-301.14,18.2
,-5.729,0.761,-7.258,-8.969,2.127,-2.879,7.63,-303.38,8.89
22337.0,-9.481,1.213,-1.792,-7.755,-2.472,-0.397,-53.41,-266.35,-38.29
,-9.744,-0.194,-1.792,-7.26,-3.08,0.68,-60.9,-248.22,-45.5
,-9.239,-1.0,-1.122,-6.98,-2.927,1.529,-67.27,-226.8,-48.02
,-8.581,-1.661,-0.668,-6.746,-1.969,1.508,-72.45,-201.32,-45.85
22413.0,-6.887,-0.613,1.103,-5.798,0.316,-5.092,-41.02,-21.07,-7.77
,-6.832,0.737,0.029,-6.822,-0.132,-6.456,-39.76,20.72,-2.87
,-6.576,1.46,-1.838,-20.218,-9.172,2.706,-42.35,60.76,0.77
,-6.152,0.957,-3.807,-28.342,-8.244,6.308,-47.18,96.95,5.04
22489.0,-16.454,-0.859,-4.24,-6.92,-1.426,-4.774,23.66,128.17,24.01
,-4.384,3.467,-8.914,-8.93,3.204,-6.439,-19.6,131.95,1.19
,-4.401,-1.467,-6.1,-7.887,3.719,-10.747,-56.49,125.93,6.72
,-9.519,-4.025,-5.968,-6.076,3.252,-10.969,-44.94,115.71,6.3
22564.0,-5.494,3.879,-10.431,-8.909,-2.508,-5.14,-42.42,110.81,-5.88
,-8.093,0.833,-8.725,-9.158,-1.9,-4.599,-49.84,101.85,-11.55
,-9.079,-2.804,-6.803,-8.311,-0.05,-5.035,-49.14,91.35,-8.47
,-9.249,-2.745,-5.664,-8.428,1.85,-5.492,-37.45,83.86,2.45
22640.0,-8.966,3.089,-5.623,-9.225,2.264,-5.396,20.65,69.23,18.9
,-9.028,3.62,-5.528,-9.38,2.027,-5.425,5.81,64.05,18.83
,-8.923,3.479,-5.367,-9.22,0.498,-5.413,-7.91,59.5,17.85
,-9.107,2.216,-5.279,-9.122,-0.794,-5.497,-13.51,55.16,14.28
22716.0,-8.93,-0.873,-5.58,-8.983,1.314,-5.968,-1.54,44.17,11.83
,-8.863,-0.347,-5.705,-8.823,0.919,-5.937,8.61,42.63,13.58
,-8.985,0.237,-5.666,-8.6,0.426,-5.592,14.98,40.6,13.93
,-9.1,1.062,-5.843,-8.82,0.098,-5.013,16.59,38.22,12.32
22792.0,-9.031,0.325,-4.594,-9.196,1.129,-4.104,8.26,27.37,6.65
,-9.237,1.077,-4.822,-9.275,1.388,-3.905,11.2,25.76,5.81
,-9.134,1.079,-4.702,-9.196,2.166,-3.558,7.77,24.29,5.25
,-8.892,1.122,-4.451,-9.184,2.647,-3.197,4.97,23.31,5.81
22868.0,-9.074,2.393,-2.505,-9.208,-0.579,-1.747,-19.25,20.51,3.29
,-9.1,1.519,-2.149,-9.057,-0.737,-2.096,-26.18,22.4,3.71
,-9.301,0.371,-1.778,-9.134,-1.479,-2.307,-27.65,25.76,5.46
,-9.179,-0.426,-1.627,-9.246,-2.199,-2.62,-24.15,29.54,7.91
22943.0,-9.5,-2.261,-3.345,-9.402,-1.307,-3.431,-12.46,51.31,8.47
,-9.517,-1.419,-3.745,-9.428,-1.271,-2.979,-9.38,54.6,7.77
,-9.347,-0.584,-3.862,-9.866,0.098,-2.443,-9.24,57.47,7.98
,-9.507,-0.816,-3.821,-10.045,1.51,-1.732,-9.94,60.83,9.31
23019.0,-9.962,1.06,-1.29,-10.72,0.541,-2.352,14.14,80.22,13.79
,-9.842,0.385,-1.304,-10.782,0.57,-2.742,11.9,85.4,10.92
,-9.974,-0.098,-1.505,-10.964,-0.605,-2.886,11.69,91.56,9.66
,-10.342,-0.007,-2.036,-11.302,-1.874,-2.915,14.91,97.65,9.24
23094.0,-12.096,-1.311,-2.726,-14.769,-5.135,2.388,31.36,126.07,12.18
,-14.709,2.821,-4.094,-16.145,-4.434,4.515,42.56,130.83,8.61
,-14.613,-1.89,-2.235,-17.363,-3.85,6.77,25.9,136.57,3.85
,-12.862,-6.71,0.048,-17.571,-2.596,5.446,28.56,146.79,10.15
23170.0,-16.884,-2.359,3.824,-15.015,5.468,-8.346,83.44,191.52,40.74
,-15.997,-1.462,1.902,-14.996,6.975,-12.055,80.43,194.53,44.45
,-14.338,-0.512,0.799,-13.573,5.224,-13.795,91.07,196.91,49.35
,-12.237,3.786,-2.503,-12.266,4.544,-13.85,129.57,203.42,48.72
23246.0,-12.082,4.508,-14.661,-8.928,-2.809,-11.759,-31.22,100.03,-28.84
,-7.406,1.534,-15.406,-8.89,-1.201,-12.024,-64.12,72.03,-25.06
,-4.776,-2.9,-15.882,-7.03,-0.273,-11.816,-54.04,70.0,-9.94
,-7.306,-4.08,-13.972,-5.248,-0.153,-11.694,-10.85,67.06,0.56
23322.0,-3.676,-0.495,-11.397,-0.931,-0.184,-10.275,36.12,-96.04,32.9
,-2.919,-0.864,-10.636,-0.581,0.002,-10.108,30.03,-119.21,38.64
,-2.647,-0.962,-10.462,-0.905,-0.098,-9.474,23.73,-142.87,43.33
,-1.948,-0.66,-10.182,-0.924,0.101,-8.983,18.83,-165.13,44.52
23397.0,-0.919,-0.268,-8.567,-0.215,-0.029,-9.758,-23.38,-252.91,38.15
,-1.019,-1.153,-8.502,-0.613,-0.601,-9.727,-16.59,-271.88,37.24
,-0.57,-1.067,-9.177,-1.158,-1.397,-9.873,-7.84,-290.57,35.07
,0.05,-0.34,-9.462,-1.828,-1.232,-9.682,-4.55,-302.75,30.73
23473.0,-2.412,-0.656,-9.935,-5.599,0.141,-6.741,-22.19,-358.96,-6.3
,-2.929,-0.146,-9.943,-6.937,0.488,-5.181,-22.33,-365.05,-12.74
,-3.888,-0.345,-9.191,-8.567,-0.215,-2.682,-20.65,-366.87,-19.53
,-4.769,0.036,-8.114,-10.129,1.749,-2.056,-13.86,-364.56,-25.34
23548.0,-10.282,2.785,-1.385,-5.324,-2.74,-0.139,-29.89,-272.37,-47.67
,-9.143,0.952,-0.873,-5.401,-2.029,1.426,-61.46,-239.26,-53.97
,-7.588,-1.756,0.005,-6.449,-0.775,1.158,-91.91,-200.41,-51.31
,-6.329,-2.946,-0.562,-6.506,1.043,-0.816,-103.67,-157.36,-43.82
23624.0,-6.301,1.053,-3.632,-5.121,-3.537,-2.759,-60.34,81.76,-1.47
,-12.438,-5.698,-7.724,-13.206,-5.171,-3.838,-68.81,109.62,5.88
,-25.535,-11.91,6.71,-13.707,-1.318,-7.918,-27.51,111.93,35.42
,-15.633,-1.761,-0.885,-8.875,5.642,-10.304,6.93,132.09,24.5
23700.0,-2.024,8.174,-12.185,-7.574,4.003,-12.12,22.82,164.43,8.96
,-0.701,6.013,-12.005,-9.256,-0.225,-9.598,-35.07,147.49,1.19
,-3.896,2.283,-12.637,-9.048,-4.171,-6.939,-68.88,132.79,2.03
,-5.841,2.934,-12.704,-8.244,-6.525,-5.305,-70.07,120.61,-7.77
23776.0,-8.105,-4.209,-4.96,-8.059,1.397,-5.549,-32.06,88.62,17.85
,-9.048,-1.165,-5.513,-8.758,1.931,-5.568,-2.52,86.17,16.52
,-9.04,1.242,-6.413,-8.957,3.216,-5.733,6.3,84.21,19.6
,-8.038,1.74,-6.126,-9.409,3.9,-6.109,1.12,81.13,22.68
23852.0,-9.359,2.9,-6.111,-8.729,-0.488,-6.595,-21.84,58.24,8.82
,-8.933,0.979,-6.088,-8.777,0.134,-6.372,-28.21,54.53,8.96
,-8.827,-0.378,-6.236,-8.851,0.936,-6.023,-22.75,51.52,10.01
,-8.82,-0.677,-6.47,-8.904,1.273,-5.568,-11.62,48.72,10.43
23927.0,-9.196,1.113,-5.02,-8.861,0.797,-4.709,-5.04,34.58,5.74
,-9.368,0.55,-4.755,-8.804,1.206,-4.776,-9.03,32.9,4.27
,-9.203,0.084,-4.369,-9.04,1.321,-5.193,-6.86,32.27,4.9
,-9.139,0.385,-4.57,-9.076,1.012,-5.796,-0.98,31.22,5.67
24003.0,-8.753,0.826,-5.968,-8.878,-0.278,-4.621,-15.47,24.99,0.63
,-8.55,0.711,-6.009,-9.122,-0.625,-4.085,-17.92,24.15,0.35
,-8.581,0.369,-5.662,-9.265,-0.663,-3.632,-18.83,24.22,0.98
,-8.634,0.163,-5.154,-9.629,-0.55,-2.871,-18.13,24.57,2.03
24079.0,-9.73,0.101,-2.682,-8.849,-1.201,-1.496,0.14,34.44,16.73
,-9.658,-0.158,-2.58,-8.854,-1.029,-1.4,0.91,38.5,18.62
,-9.34,-0.926,-2.175,-9.146,-0.89,-1.558,1.75,43.26,19.95
,-8.957,-1.115,-1.682,-9.514,-1.163,-1.922,6.65,48.79,21.28
24155.0,-9.88,-1.79,-2.077,-10.943,0.136,-1.39,23.17,74.97,18.2
,-10.232,-2.132,-2.044,-10.641,1.003,-1.22,27.44,80.78,18.06
,-10.457,-1.716,-1.582,-10.538,0.479,-1.223,33.32,87.36,17.64
,-10.754,-0.761,-1.414,-10.67,0.089,-1.555,36.05,93.94,15.82
24230.0,-11.584,0.345,-1.991,-13.733,-4.724,0.689,11.34,124.81,3.85
,-14.343,5.327,-3.051,-15.02,-4.716,1.61,20.51,130.13,-0.14
,-14.85,0.857,-2.02,-16.427,-5.171,3.891,-1.96,135.31,-6.16
,-12.331,-5.396,0.098,-18.303,-4.642,3.687,-8.54,144.97,-0.21
24306.0,-17.483,-3.12,3.135,-12.075,6.037,-6.49,111.51,195.58,54.18
,-16.724,-1.802,1.835,-14.173,6.446,-11.998,122.15,197.26,63.14
,-15.499,-0.861,0.601,-13.568,6.016,-14.214,139.3,197.12,70.28
,-13.044,1.776,-0.136,-12.111,5.542,-13.824,159.32,198.59,66.71
24381.0,-11.027,5.001,-14.178,-7.495,-1.656,-12.534,6.23,119.56,-20.93
,-8.579,3.429,-14.247,-6.913,-0.419,-12.888,-33.18,87.64,-20.02
,-5.532,0.069,-14.506,-6.571,-0.148,-12.635,-41.86,74.27,-8.89
,-6.245,-2.158,-14.307,-5.066,-0.333,-12.249,-21.56,70.77,0.91
24457.0,-3.364,-0.541,-11.998,-2.008,-0.785,-10.127,6.16,-70.07,20.37
,-2.706,-0.495,-11.787,-1.486,-0.67,-10.038,3.08,-92.05,23.17
,-2.62,-0.428,-11.043,-0.701,-0.761,-10.086,-0.21,-113.61,25.62
,-2.245,-0.756,-10.66,-0.555,-0.914,-9.734,-7.42,-133.63,27.44
24533.0,-0.938,-1.053,-9.191,-0.273,-1.388,-9.969,-43.96,-222.39,22.12
,-1.515,-1.479,-8.619,-0.62,-0.677,-10.684,-50.19,-242.27,19.39
,-1.737,-2.089,-9.057,-1.079,-0.613,-10.065,-49.77,-263.62,16.24
,-0.924,-2.01,-9.591,-1.795,-1.098,-9.899,-43.05,-280.77,14.7
24609.0,-2.084,-1.407,-10.091,-4.082,0.385,-10.065,-37.94,-331.24,-6.72
,-2.123,-1.271,-10.421,-4.044,0.586,-8.782,-31.01,-341.81,-13.79
,-2.362,-0.646,-10.562,-5.621,0.105,-6.65,-23.73,-350.0,-19.11
,-3.398,-0.002,-10.689,-7.557,0.445,-4.903,-18.06,-355.95,-22.75
24685.0,-9.514,0.909,-3.845,-8.107,-2.84,0.268,8.75,-329.35,-32.97
,-10.251,1.749,-3.721,-6.87,-3.324,0.048,3.57,-312.34,-41.44
,-10.005,1.517,-2.094,-5.614,-1.61,0.136,-19.39,-288.47,-45.71
,-9.062,-0.622,-0.505,-5.111,-0.347,2.711,-47.04,-257.6,-45.29
24760.0,-5.779,-0.718,3.759,-7.038,1.345,-5.324,-30.59,-32.55,-3.01
,-6.298,0.459,2.379,-16.03,-6.193,-10.543,-22.96,17.78,2.52
,-6.446,2.103,-0.041,-29.165,-10.203,9.505,-26.81,64.54,6.23
,-6.396,2.477,-2.685,-16.939,0.921,-3.484,-43.12,104.02,8.75
24836.0,-11.29,3.443,-4.793,-7.662,4.369,-6.372,-32.69,123.62,-2.59
,-7.085,-2.663,-5.348,-8.722,6.387,-10.467,-85.05,131.88,4.55
,-8.263,-5.461,-7.638,-6.693,5.987,-10.912,-69.09,139.72,7.35
,-5.774,-0.256,-7.516,-4.75,4.917,-9.861,-28.14,144.41,5.39
24912.0,-6.171,2.35,-9.172,-9.342,-4.14,-4.853,-99.47,109.62,-20.16
,-8.698,-0.881,-7.653,-9.239,0.01,-5.331,-92.12,100.87,-16.38
,-9.024,-2.398,-6.454,-8.576,2.749,-5.975,-78.4,92.47,-4.48
,-8.65,-4.815,-5.31,-8.758,3.13,-6.356,-54.53,89.11,13.86
24988.0,-8.603,1.831,-6.188,-8.988,2.079,-6.198,-5.67,70.7,18.83
,-8.181,0.943,-5.987,-9.184,1.024,-5.985,-11.13,66.29,17.92
,-8.571,1.015,-6.147,-9.184,-0.103,-5.827,-9.17,62.16,16.17
,-8.938,1.965,-6.2,-9.241,-0.383,-5.963,-9.66,57.68,13.02
25063.0,-9.275,-0.115,-6.068,-9.062,0.225,-5.544,-8.89,41.02,10.43
,-9.014,-0.483,-5.949,-9.287,0.529,-5.212,-2.94,38.64,12.18
,-8.904,-0.663,-5.688,-9.11,0.718,-5.054,4.27,36.54,13.09
,-8.904,-0.29,-5.757,-8.973,0.62,-4.649,11.27,34.09,12.46
25139.0,-9.11,0.498,-4.417,-8.689,0.931,-4.432,0.0,22.54,7.35
,-9.261,0.792,-4.908,-8.741,0.014,-3.955,3.43,21.07,6.65
,-8.959,1.251,-4.941,-9.079,-0.452,-3.475,4.76,19.81,6.23
,-8.681,1.354,-4.685,-9.538,-0.213,-3.154,2.24,19.39,5.95
25214.0,-9.749,0.352,-3.173,-8.49,0.01,-3.601,0.49,24.71,8.4
,-9.672,0.632,-3.259,-8.265,-0.541,-3.518,-1.68,26.32,8.47
,-9.497,0.78,-3.652,-8.674,-0.802,-3.077,-6.79,26.74,7.07
,-8.923,0.704,-3.812,-9.05,-0.919,-2.402,-12.81,27.3,6.23
25290.0,-9.268,-0.244,-1.993,-9.304,-0.419,-1.271,-6.16,38.01,10.22
,-9.509,-0.349,-1.498,-9.617,-0.5,-1.613,-2.52,42.0,11.83
,-9.323,-0.802,-1.106,-9.902,-0.28,-1.771,2.66,46.48,14.07
,-9.301,-0.663,-1.187,-9.794,0.94,-1.778,12.25,51.87,16.52
25366.0,-10.01,0.526,-1.965,-10.617,-0.761,-3.357,28.63,76.23,17.92
,-10.225,0.318,-1.991,-10.849,-1.027,-3.496,26.6,80.99,15.4
,-10.237,0.261,-2.458,-10.967,-1.17,-3.271,23.1,85.47,12.39
,-10.502,-0.067,-3.254,-11.359,-0.572,-3.396,18.06,89.74,9.31
25442.0,-13.154,3.324,-4.092,-12.819,-3.24,-1.653,31.29,113.05,5.32
,-13.345,0.168,-4.283,-13.953,-2.046,-0.22,16.24,116.62,-0.49
,-11.074,-6.308,-3.367,-14.13,-1.584,0.866,12.04,123.55,4.06
,-11.96,-6.085,-2.41,-13.821,-2.486,1.637,42.35,131.39,14.98
25517.0,-13.709,-3.439,1.24,-11.347,2.0,-3.563,90.58,166.6,49.42
,-12.891,-3.197,0.926,-10.321,3.68,-6.332,104.37,172.9,58.94
,-12.517,-1.859,0.017,-9.531,5.044,-8.337,127.19,177.66,66.43
,-12.448,-0.089,-1.479,-11.144,4.886,-12.788,149.59,178.92,69.02
25593.0,-10.526,3.589,-13.951,-3.659,-0.603,-13.451,83.23,142.87,14.84
,-9.765,2.716,-13.592,-3.805,-1.689,-13.872,55.65,122.99,5.81
,-8.485,2.185,-12.946,-4.221,-2.23,-12.565,28.0,98.49,2.03
,-6.291,1.041,-13.51,-4.587,-1.577,-11.646,1.61,72.73,4.48
25669.0,-3.941,-0.682,-11.256,-1.998,0.045,-9.457,32.48,-12.25,35.28
,-3.764,0.077,-10.644,-1.919,-0.392,-9.318,24.36,-36.82,39.97
,-2.994,-0.072,-9.682,-1.984,-1.261,-9.294,14.28,-57.61,44.94
,-2.778,0.201,-9.387,-2.123,-2.386,-7.992,3.01,-79.59,47.25
25745.0,-2.58,-2.534,-8.26,-2.307,-2.276,-9.258,-56.35,-168.63,29.4
,-1.852,-2.163,-8.701,-2.484,-1.524,-9.141,-49.21,-184.73,26.81
,-2.022,-2.192,-8.921,-3.032,-0.617,-9.153,-41.72,-198.94,24.15
,-2.079,-2.414,-9.038,-3.386,-0.242,-9.799,-30.52,-211.61,22.05
25821.0,-3.329,-0.246,-10.089,-4.736,-1.17,-9.665,-28.84,-254.94,13.65
,-3.568,-0.675,-9.787,-4.867,-0.737,-9.275,-35.84,-260.75,9.59
,-3.786,-0.962,-9.763,-4.664,-0.196,-8.22,-39.83,-267.12,3.08
,-4.092,-1.055,-9.773,-5.485,1.117,-7.76,-40.95,-272.58,-3.22
25896.0,-6.753,2.422,-7.2,-9.866,1.149,-5.793,-8.96,-266.77,-31.64
,-8.071,2.84,-7.052,-9.476,-0.438,-4.695,-17.78,-261.52,-41.44
,-8.863,2.606,-6.339,-9.069,-2.644,-3.434,-37.24,-254.31,-48.44
,-9.378,1.871,-5.384,-8.758,-4.281,-2.651,-58.17,-247.8,-59.29
25972.0,-8.851,-4.908,-2.522,-7.423,0.093,1.524,-115.85,-184.03,-64.54
,-8.689,-4.011,-1.586,-7.533,-1.077,1.625,-106.05,-164.43,-59.08
,-7.992,-1.551,-0.481,-7.143,-2.039,1.089,-101.71,-142.03,-57.47
,-7.442,-0.002,0.732,-6.748,-1.974,0.33,-107.8,-115.85,-57.26
26047.0,-6.624,-1.173,-0.708,-7.157,1.137,-4.673,-126.35,32.9,-31.01
,-6.712,-0.555,-1.773,-9.435,-0.019,-6.451,-124.53,53.83,-25.62
,-6.963,0.017,-2.548,-11.96,-4.099,-4.477,-123.55,71.26,-20.51
,-6.932,0.976,-3.448,-20.105,-10.27,4.269,-123.06,84.7,-16.66
26123.0,-17.497,-1.35,1.287,-8.725,-2.027,-3.08,-54.32,37.73,5.88
,-9.646,3.022,-0.333,-9.308,-2.871,-3.874,-56.14,35.77,-3.08
,-10.232,-2.893,-0.648,-8.906,-4.319,-5.013,-85.82,41.16,1.89
,-9.974,-5.001,-1.481,-6.947,-1.381,-5.791,-77.98,54.95,12.67
26199.0,-6.825,2.087,-6.286,-8.629,1.634,-4.463,-9.1,80.08,30.17
,-8.531,3.271,-6.274,-8.248,0.256,-4.929,-23.24,73.36,23.87
,-10.163,3.446,-5.422,-9.466,-0.457,-4.915,-42.49,66.29,20.65
,-10.189,2.577,-4.494,-9.667,-0.538,-4.893,-60.83,59.99,17.92
26275.0,-9.378,0.101,-3.982,-9.596,1.615,-2.8,-25.97,46.06,24.36
,-9.744,1.658,-3.396,-8.978,0.108,-2.749,-24.57,44.52,21.14
,-10.019,2.668,-3.206,-9.117,-1.352,-2.67,-39.62,42.21,11.55
,-9.837,2.857,-2.955,-9.335,-1.397,-2.898,-66.29,40.18,0.49
26350.0,-9.639,-0.359,-3.089,-9.028,-1.627,-4.511,-57.82,42.42,3.01
,-9.555,0.983,-3.118,-9.153,-0.177,-3.563,-48.93,41.37,5.32
,-9.208,1.421,-3.582,-9.698,3.013,-3.187,-53.2,40.39,4.76
,-9.421,-0.491,-4.006,-9.931,3.144,-2.821,-60.55,39.76,3.71
26426.0,-9.978,1.965,-3.139,-8.88,-0.763,-4.192,-103.32,35.42,-27.65
,-9.045,-0.572,-3.293,-9.284,0.007,-4.508,-123.41,35.28,-33.25
,-8.856,-3.034,-3.309,-8.997,-0.45,-5.418,-123.06,37.38,-36.05
,-8.82,-2.398,-3.68,-8.926,-1.577,-5.934,-111.86,38.92,-39.55
26502.0,-8.698,-1.711,-6.293,-7.944,0.584,-5.705,-150.01,29.89,-69.02
,-8.507,-0.61,-6.439,-8.059,-0.211,-4.932,-149.87,27.72,-73.15
,-8.361,0.689,-6.573,-8.476,-0.208,-4.573,-157.01,24.85,-77.98
,-8.267,0.871,-6.31,-8.681,0.579,-4.475,-169.96,21.77,-84.07
26578.0,-8.827,0.916,-4.891,-8.181,-0.041,-6.382,-194.67,14.14,-91.28
,-8.55,1.302,-4.858,-8.179,-1.18,-6.616,-195.65,13.23,-91.35
,-8.684,1.508,-5.75,-7.691,-1.728,-6.066,-198.8,11.41,-93.1
,-8.421,1.137,-6.253,-8.153,-1.106,-5.779,-204.19,8.89,-95.69
26654.0,-8.665,-0.036,-5.597,-9.036,0.342,-4.302,-179.97,2.66,-81.97
,-8.871,0.282,-5.386,-8.983,1.211,-3.96,-174.16,2.31,-78.26
,-8.806,-0.072,-5.035,-9.081,1.579,-4.377,-169.89,1.82,-74.48
,-8.871,-0.093,-4.733,-8.504,1.106,-4.549,-162.89,1.61,-70.14
26729.0,-7.806,-0.629,-4.681,-8.892,0.986,-5.334,-152.95,-2.52,-61.95
,-8.346,-0.536,-4.75,-8.789,1.125,-5.152,-142.1,-2.24,-57.61
,-8.804,0.524,-4.831,-9.019,0.943,-5.207,-129.99,-1.82,-52.71
,-9.002,0.689,-5.245,-9.083,0.699,-5.245,-121.24,-1.75,-48.09
26805.0,-8.892,0.474,-5.097,-8.787,0.05,-5.437,-91.56,-3.64,-34.44
,-9.332,0.433,-5.415,-8.873,0.641,-5.702,-88.27,-4.55,-34.23
,-8.839,-0.512,-5.465,-8.579,0.512,-5.604,-88.55,-5.6,-34.44
,-8.39,-0.797,-5.243,-8.569,0.318,-5.48,-84.91,-5.88,-33.81
26880.0,-8.78,0.608,-5.111,-7.779,0.426,-4.547,-71.96,-11.34,-31.92
,-8.648,0.878,-5.011,-7.712,0.668,-4.582,-66.85,-12.18,-29.19
,-8.39,0.538,-5.025,-8.461,-0.294,-4.915,-62.16,-13.58,-26.11
,-7.827,-0.235,-4.683,-8.942,-1.24,-5.217,-53.27,-13.79,-20.09
26956.0,-8.971,-0.596,-5.257,-9.083,-0.29,-5.559,29.54,-14.21,19.53
,-9.775,0.294,-6.176,-8.734,0.558,-4.815,29.82,-15.89,19.04
,-9.531,0.081,-6.207,-8.916,0.909,-4.324,21.07,-17.43,16.38
,-9.383,-0.651,-5.98,-8.947,0.972,-3.843,14.77,-18.13,13.51
27032.0,-8.823,0.589,-3.568,-7.684,-1.692,-4.085,2.66,-20.16,6.72
,-9.055,0.414,-3.582,-8.981,5.499,-3.204,1.96,-19.04,7.14
,-9.529,-0.156,-3.601,-9.756,4.022,-2.324,0.42,-17.29,4.41
,-8.76,-3.003,-4.621,-9.452,-0.613,-2.034,-7.42,-11.9,-4.97
27108.0,-9.682,-0.646,-3.015,-8.947,-2.907,-3.869,13.58,-11.13,12.04
,-8.938,1.23,-3.798,-9.083,-2.178,-3.745,28.14,-9.8,13.3
,-9.229,0.101,-3.951,-9.16,0.522,-3.944,21.14,-8.82,10.85
,-9.21,-1.651,-3.934,-9.012,1.871,-3.874,14.21,-6.65,7.77
27183.0,-9.239,1.031,-3.733,-9.512,0.579,-1.972,16.73,-0.42,3.36
,-9.06,0.093,-3.446,-9.792,2.094,-2.462,14.07,0.28,2.52
,-8.945,-0.433,-3.051,-9.459,2.446,-2.757,16.73,1.89,3.15
,-9.246,-0.316,-2.546,-9.06,1.354,-2.694,21.98,4.2,4.27
27259.0,-9.081,0.553,-2.962,-9.6,2.032,-3.719,2.52,6.37,-2.66
,-9.153,0.653,-3.223,-9.256,1.874,-3.991,10.29,7.63,-1.12
,-8.997,0.861,-3.032,-9.091,1.431,-4.357,16.59,8.89,0.98
,-9.294,1.469,-3.154,-9.05,1.34,-4.81,21.14,9.31,2.31
27335.0,-9.028,1.22,-4.853,-9.38,0.096,-3.405,8.68,4.2,-1.26
,-8.842,1.479,-4.503,-9.05,-0.306,-3.506,5.25,2.52,-2.52
,-9.134,1.302,-3.915,-9.007,-0.488,-3.664,-1.61,1.26,-4.27
,-9.32,0.675,-3.422,-8.945,-0.771,-3.996,-7.21,0.98,-5.53
27411.0,-8.909,-0.672,-3.97,-8.935,0.706,-4.547,-2.45,6.16,-5.04
,-9.184,0.079,-4.142,-9.076,0.885,-4.568,0.7,6.44,-4.34
,-9.026,0.402,-4.274,-8.775,0.464,-4.417,0.35,6.23,-4.27
,-8.818,0.627,-4.396,-8.978,0.218,-4.257,-1.54,5.74,-4.2
27486.0,-9.189,0.16,-4.121,-9.134,1.491,-3.183,-14.49,1.75,-7.0
,-8.949,0.098,-3.747,-9.064,1.187,-2.927,-15.33,1.89,-7.14
,-9.225,0.57,-3.367,-9.107,0.888,-2.879,-14.98,2.24,-6.93
,-9.316,1.223,-3.19,-9.234,0.787,-3.424,-16.52,2.31,-7.49
27562.0,-9.11,0.258,-3.805,-9.038,0.364,-4.448,-24.43,6.09,-5.32
,-8.952,-0.625,-3.869,-9.021,0.488,-4.69,-22.47,7.98,-4.34
,-9.06,-0.641,-4.049,-8.698,0.067,-4.745,-16.31,9.1,-5.18
,-8.995,0.079,-4.288,-8.586,-0.866,-4.499,-13.51,9.87,-6.09
27638.0,-8.813,-0.476,-4.355,-9.115,0.436,-3.276,-20.23,10.36,-11.62
,-9.083,0.06,-4.262,-9.155,0.644,-2.962,-16.24,11.34,-11.48
,-9.287,0.804,-3.888,-9.062,0.797,-2.807,-15.33,11.62,-11.62
,-9.167,0.94,-3.649,-9.196,0.57,-2.754,-17.85,12.67,-11.62
27713.0,-9.182,0.979,-3.171,-8.545,-0.51,-5.135,-19.11,18.2,-13.37
,-8.935,0.749,-3.568,-8.715,0.081,-5.65,-23.38,18.83,-14.28
,-8.796,-0.034,-4.171,-8.619,0.026,-5.75,-25.62,19.53,-14.91
,-8.562,-0.713,-4.695,-8.454,-0.258,-5.489,-23.52,20.37,-14.35
27789.0,-8.679,-0.177,-5.011,-9.016,0.68,-3.678,-6.58,20.02,-12.95
,-8.77,0.672,-4.59,-8.744,0.474,-3.922,-2.17,20.09,-12.88
,-8.856,1.213,-4.183,-8.775,0.246,-4.468,-2.59,19.95,-12.95
,-9.002,0.907,-3.62,-8.622,0.034,-5.068,-6.09,20.16,-13.23
27865.0,-8.457,-0.024,-5.343,-8.418,0.211,-5.185,-10.64,22.19,-16.87
,-8.461,0.098,-5.48,-8.507,0.275,-4.994,-9.24,22.05,-17.36
,-8.598,0.457,-5.566,-8.552,0.51,-4.695,-8.19,21.63,-18.34
,-8.423,0.412,-5.403,-8.672,0.677,-4.726,-9.17,20.86,-18.48
27941.0,-8.574,0.672,-4.786,-8.406,0.194,-5.142,-9.8,20.65,-20.37
,-8.681,0.139,-4.908,-8.382,0.187,-5.185,-11.34,20.86,-21.0
,-8.507,-0.258,-5.02,-8.186,0.553,-4.838,-9.94,21.35,-20.93
,-8.363,-0.325,-4.956,-7.121,-1.208,-5.877,-5.39,22.05,-20.44
28016.0,-8.368,-0.835,-6.724,-8.279,0.29,-6.076,-2.66,23.17,-31.43
,-8.567,0.648,-6.466,-8.402,0.239,-5.867,-6.51,21.63,-32.34
,-8.327,-0.306,-6.143,-8.366,-0.412,-5.511,-12.74,21.0,-34.23
,-8.27,-0.273,-6.03,-8.457,-0.869,-5.154,-10.92,20.93,-36.47
28092.0,-8.772,-0.424,-4.834,-9.282,-1.278,-4.824,-6.44,21.84,-39.55
,-9.253,0.538,-4.838,-9.174,-1.005,-4.585,-1.4,23.45,-39.27
,-9.864,1.165,-5.061,-9.074,-0.242,-4.719,-1.12,24.5,-40.25
,-9.701,-0.034,-5.274,-8.933,-0.72,-4.669,-5.18,25.13,-40.74
28168.0,-8.83,-0.608,-4.707,-9.73,-0.287,-5.595,12.32,33.67,-37.31
,-9.284,0.153,-4.867,-9.675,-0.706,-5.377,13.23,35.49,-39.83
,-9.586,0.744,-4.884,-9.775,-0.184,-5.114,9.87,36.89,-43.96
,-9.835,0.503,-5.465,-9.727,0.486,-4.807,2.73,37.8,-48.79
28244.0,-9.404,0.194,-4.164,-9.462,-0.622,-2.453,-10.78,43.96,-59.29
,-9.263,-0.146,-3.575,-9.686,-0.771,-2.228,-16.38,45.92,-60.62
,-9.229,-0.057,-3.171,-10.225,-0.632,-2.06,-20.37,48.37,-61.88
,-9.308,-0.27,-2.764,-11.062,-0.57,-2.134,-24.5,51.8,-62.93
28319.0,-11.29,-0.596,-0.61,-12.477,1.007,-2.242,-31.01,75.39,-68.53
,-11.318,0.759,0.038,-11.517,-1.464,-3.896,-20.44,83.09,-72.52
,-12.261,4.374,-0.943,-10.112,-2.498,-4.879,-7.63,87.99,-82.67
,-12.247,4.161,-0.967,-9.737,-0.912,-6.521,-18.34,90.3,-90.79
28395.0,-10.043,1.232,-6.93,-9.359,6.825,-8.363,-50.82,84.98,-57.05
,-10.636,3.783,-7.782,-8.957,5.365,-8.093,-50.54,82.53,-55.51
,-10.866,6.59,-7.653,-8.48,3.661,-8.1,-59.43,77.35,-59.64
,-10.297,7.731,-8.062,-8.181,2.73,-8.27,-81.62,69.09,-62.51
28470.0,-8.004,2.149,-8.643,-7.394,2.18,-9.785,-115.71,20.65,-54.74
,-7.825,1.711,-8.698,-6.983,2.075,-9.6,-102.97,9.59,-56.77
,-7.937,1.318,-8.88,-7.085,1.783,-9.682,-89.67,-2.66,-60.83
,-7.99,1.709,-9.744,-6.975,1.926,-9.95,-78.54,-16.45,-65.87
28546.0,-6.961,2.249,-10.117,-5.841,1.491,-10.194,-73.71,-82.11,-76.23
,-6.784,2.07,-9.763,-5.453,0.849,-10.096,-83.79,-94.85,-78.05
,-6.513,2.237,-9.966,-4.996,0.538,-10.258,-92.26,-107.87,-79.8
,-6.133,2.039,-10.141,-4.669,-0.103,-9.945,-102.41,-120.61,-80.5
28622.0,-4.436,-0.613,-10.033,-4.343,-1.441,-9.493,-135.38,-178.29,-74.97
,-4.221,-1.216,-9.847,-4.389,-1.261,-9.447,-131.04,-188.3,-71.96
,-4.446,-1.548,-9.751,-4.434,-1.261,-9.095,-122.15,-198.59,-68.81
,-4.379,-1.608,-9.617,-4.879,-1.374,-8.658,-109.62,-207.62,-64.82
28698.0,-5.142,-1.517,-8.117,-6.234,-0.725,-6.59,-42.35,-234.71,-37.24
,-5.097,-1.677,-7.71,-6.659,-0.352,-6.614,-31.71,-240.1,-30.8
,-5.298,-1.756,-7.337,-6.652,-0.397,-6.324,-20.44,-245.0,-23.94
,-5.702,-1.311,-7.035,-6.456,-0.311,-6.023,-10.01,-248.57,-16.45
28774.0,-6.547,0.325,-4.659,-9.543,0.663,-0.785,-15.47,-248.15,1.19
,-6.851,0.079,-3.197,-8.744,0.421,0.316,-17.5,-238.0,3.15
,-8.514,0.323,-2.273,-8.466,1.031,-0.349,-10.57,-224.63,-0.84
,-9.268,0.931,-1.646,-8.153,0.476,-0.577,-6.72,-209.72,-6.58
28849.0,-7.889,-1.07,-0.397,-7.016,-1.237,-1.347,-88.41,-97.37,-19.81
,-7.368,-2.154,-0.134,-7.279,-0.756,-2.402,-91.28,-67.9,-14.84
,-7.169,-2.06,-0.313,-7.401,-0.57,-3.096,-81.62,-37.45,-9.8
,-7.344,-1.969,-0.589,-7.684,-0.117,-3.903,-69.37,-6.86,-5.81
28925.0,-8.26,-0.29,-4.585,-8.425,1.606,-8.957,-39.2,117.04,19.81
,-13.415,-4.982,-1.503,-1.993,4.441,-7.956,-40.11,126.91,23.8
,-18.421,-7.44,9.091,-3.848,4.728,-9.478,-19.46,133.42,31.85
,-24.357,-5.197,-3.805,-5.999,2.288,-6.406,-12.74,159.53,36.33
29001.0,-8.854,2.962,-6.145,-9.146,-1.663,-9.675,-79.03,87.99,-19.88
,-9.653,3.257,-10.677,-8.588,-5.719,-8.538,-97.09,87.64,-16.59
,-6.308,3.623,-12.154,-7.997,-5.829,-6.549,-108.99,93.24,-11.34
,-5.863,2.357,-10.136,-8.614,-3.778,-5.963,-108.99,95.55,-10.71
29077.0,-9.373,-1.247,-6.473,-8.33,0.613,-6.683,20.58,75.88,24.71
,-8.504,0.57,-6.872,-8.547,0.084,-6.329,20.16,72.38,26.81
,-8.038,1.077,-6.547,-8.942,-0.086,-6.123,8.82,67.48,23.94
,-8.38,0.916,-6.714,-8.887,0.244,-5.645,-7.56,61.88,19.25
29152.0,-9.112,0.376,-5.173,-9.227,2.187,-5.477,10.22,46.41,22.61
,-9.342,0.555,-4.822,-8.94,2.484,-5.855,15.4,44.31,24.5
,-9.268,1.041,-4.774,-8.741,2.125,-5.956,18.48,42.63,24.36
,-9.249,1.589,-5.075,-8.792,1.855,-5.736,19.53,40.95,22.75
29228.0,-8.892,1.656,-5.47,-9.306,0.357,-3.69,-3.08,25.48,7.84
,-8.892,1.426,-4.836,-9.328,0.912,-3.683,-4.48,23.38,6.23
,-9.028,0.696,-4.135,-9.249,1.196,-3.829,-6.16,22.4,5.46
,-9.189,0.302,-3.719,-9.155,1.244,-4.424,-4.48,22.54,5.46
29303.0,-8.78,0.818,-4.525,-9.179,0.491,-3.795,-14.56,22.89,3.29
,-8.586,-0.196,-4.195,-8.93,0.644,-3.838,-16.73,24.57,4.34
,-8.751,-0.794,-3.888,-8.83,-0.079,-3.754,-13.09,27.02,5.74
,-9.299,-0.491,-3.738,-8.746,-0.821,-3.805,-7.07,29.19,6.3
29379.0,-8.909,-1.299,-3.817,-9.653,-0.163,-3.599,-10.71,38.78,9.94
,-9.442,-1.07,-3.79,-9.866,0.163,-3.142,-7.98,40.95,9.94
,-9.385,-0.392,-3.941,-10.01,-0.158,-2.201,-8.89,42.77,10.43
,-9.591,-0.546,-3.573,-10.16,-0.211,-1.579,-13.09,44.87,11.69
29455.0,-9.883,0.211,-1.539,-10.371,-0.57,-1.601,17.5,67.06,21.07
,-9.978,0.01,-1.402,-10.464,-0.218,-2.12,15.12,72.24,19.53
,-10.112,-0.782,-1.354,-10.754,0.464,-2.685,14.35,77.84,18.48
,-10.251,-0.708,-1.388,-11.254,0.512,-2.783,17.22,84.21,17.64
29531.0,-11.646,-0.299,-2.836,-14.843,-0.503,-1.764,14.91,113.61,8.26
,-11.921,-1.259,-2.644,-12.781,-6.523,0.182,18.2,120.05,9.73
,-12.74,-1.079,-2.51,-13.927,-5.147,0.962,28.14,127.05,12.32
,-14.594,3.19,-2.702,-14.585,-5.47,3.424,40.39,132.37,10.99
29607.0,-16.516,-5.307,5.918,-14.336,0.593,-0.68,87.08,181.65,54.46
,-16.971,-3.017,6.844,-11.766,1.606,-3.795,113.12,192.71,62.3
,-17.956,-0.555,4.738,-13.113,4.389,-7.861,125.23,197.12,64.33
,-16.102,0.84,2.852,-15.432,2.694,-10.357,129.5,198.1,68.81
29682.0,-14.393,2.41,-12.51,-5.867,-2.991,-15.951,77.49,174.51,21.63
,-12.682,2.838,-13.154,-7.913,-2.029,-14.161,41.86,142.24,2.52
,-9.273,2.429,-13.668,-8.94,-0.656,-12.838,0.84,106.68,-2.17
,-6.506,-1.12,-15.08,-8.021,0.555,-13.089,-21.14,84.35,9.59
29758.0,-6.832,0.675,-12.601,-2.101,-0.526,-11.144,33.39,-42.35,44.94
,-5.027,-0.148,-12.508,-1.888,-0.577,-10.713,22.05,-74.41,44.73
,-2.785,-0.725,-12.761,-1.809,-0.826,-10.392,16.17,-97.3,45.5
,-2.067,-0.639,-12.091,-1.51,-1.4,-10.191,13.16,-114.24,49.98
29834.0,-1.318,-1.759,-10.105,-2.149,-1.206,-8.392,-24.57,-211.26,45.78
,-0.854,-1.397,-9.332,-1.656,-0.727,-9.375,-24.99,-225.4,44.1
,-1.338,-1.225,-7.808,-1.237,-0.263,-9.191,-24.57,-239.33,43.47
,-2.127,-1.412,-8.047,-1.996,-0.347,-9.024,-23.24,-256.83,39.2
29910.0,-2.204,-0.871,-9.177,-3.027,0.012,-9.82,-30.66,-316.68,14.0
,-2.034,-1.113,-9.768,-3.51,0.048,-9.517,-31.92,-326.2,7.35
,-1.936,-0.727,-10.455,-3.238,-0.73,-8.363,-29.75,-335.02,-1.26
,-2.156,-0.323,-10.261,-3.972,-1.141,-7.485,-27.16,-341.32,-10.5
29985.0,-4.941,-0.936,-6.121,-10.311,2.278,-1.936,-5.46,-342.65,-34.16
,-7.162,0.404,-4.889,-9.519,-0.455,-0.208,3.08,-334.11,-31.85
,-9.411,1.677,-3.625,-8.55,-3.218,1.022,3.85,-321.58,-34.37
,-10.33,3.154,-3.589,-6.714,-3.331,-0.086,-7.63,-305.62,-42.07
30061.0,-5.056,-1.986,1.857,-6.741,2.723,0.227,-62.51,-134.05,-17.08
,-5.465,-1.529,4.59,-6.793,3.008,-2.936,-50.96,-81.76,-3.92
,-6.58,-1.299,4.587,-6.829,1.618,-6.588,-38.36,-25.9,4.2
,-6.892,0.725,2.785,-13.628,-5.456,-13.252,-30.94,28.56,8.05
30136.0,-32.137,-14.704,15.013,-8.37,-7.868,-10.256,-9.66,113.05,54.67
,-19.469,1.692,-3.585,-3.324,-5.03,-8.004,25.69,116.62,15.4
,-9.847,6.231,-4.054,-6.782,0.854,-7.602,-32.13,149.38,-1.26
,-5.535,-2.754,-6.078,-7.772,4.468,-10.976,-99.68,165.41,9.31
30212.0,-3.314,7.193,-12.867,-8.421,-1.019,-7.566,-34.93,139.09,1.82
,-4.621,5.894,-11.943,-8.282,-4.422,-5.791,-59.15,133.77,-14.49
,-7.904,3.558,-10.306,-8.679,-3.293,-5.293,-72.87,124.39,-15.47
,-9.698,1.548,-8.6,-8.399,-0.22,-6.566,-74.83,111.23,-9.52
30288.0,-7.755,1.586,-7.184,-9.217,3.398,-7.743,35.42,86.66,31.71
,-8.189,2.797,-7.138,-8.997,0.871,-7.909,35.77,79.38,30.31
,-8.935,4.233,-7.315,-8.634,-0.237,-7.755,23.45,71.61,27.79
,-9.375,5.073,-7.617,-8.449,-1.01,-6.272,2.17,65.24,22.96
30364.0,-8.942,-1.977,-6.277,-9.177,0.433,-4.889,-4.2,45.78,11.69
,-8.926,-2.046,-5.602,-9.179,1.259,-4.81,6.93,43.47,15.33
,-8.82,-1.498,-5.231,-9.11,1.5,-4.618,17.29,41.72,18.9
,-8.949,-0.543,-5.078,-9.258,1.496,-4.044,25.27,40.18,20.16
30439.0,-9.45,1.84,-4.037,-8.945,2.249,-4.233,19.81,31.99,13.58
,-9.139,2.01,-3.922,-8.839,1.553,-4.484,21.28,30.66,13.02
,-9.246,2.333,-3.944,-8.878,1.019,-4.539,20.65,29.26,11.97
,-9.098,2.419,-4.049,-9.062,0.514,-4.391,14.91,27.86,9.66
30515.0,-9.229,-0.409,-3.853,-9.201,0.55,-2.627,-26.74,26.46,0.63
,-9.246,-1.479,-3.128,-9.691,0.56,-2.328,-24.22,29.54,3.01
,-9.021,-1.503,-2.754,-9.521,0.053,-2.015,-16.03,32.62,5.74
,-9.263,-0.591,-2.398,-9.732,-0.651,-1.835,-10.29,34.72,6.58
30591.0,-9.344,-0.615,-2.003,-10.246,-0.548,-1.677,-23.24,52.78,10.85
,-9.555,0.493,-1.792,-10.208,-1.067,-1.962,-13.72,57.47,16.1
,-9.945,1.429,-1.965,-10.447,-1.735,-1.742,-7.0,62.72,21.14
,-10.297,0.376,-1.945,-10.78,-2.144,-1.405,-0.14,68.67,23.66
30667.0,-10.84,-2.398,-1.371,-11.515,-0.366,-1.73,26.11,99.89,17.78
,-10.878,-2.103,-1.347,-11.854,-0.407,-1.548,27.79,107.31,14.63
,-10.995,-1.027,-1.546,-12.247,-0.359,-1.402,25.97,114.38,10.78
,-11.342,-0.447,-1.601,-13.69,2.608,-1.043,18.34,120.82,7.28
30743.0,-15.666,1.62,-2.041,-18.454,-5.3,7.164,21.07,152.6,7.49
,-13.824,-4.786,-0.359,-18.705,-3.731,6.916,9.73,161.56,11.83
,-14.207,-6.779,1.831,-17.834,-1.426,3.91,30.8,173.81,25.55
,-15.951,-6.162,5.267,-15.178,-0.225,0.572,70.21,188.16,46.83
30818.0,-11.574,1.187,-2.515,-13.053,3.74,-14.034,146.79,218.05,71.05
,-13.403,5.602,-7.842,-11.065,4.188,-14.551,159.39,217.14,57.05
,-16.03,4.341,-10.651,-7.653,1.244,-14.941,139.86,204.61,42.98
,-15.485,4.448,-14.53,-5.08,-1.95,-16.683,105.14,182.07,26.46
30894.0,-5.788,-2.761,-15.626,-5.556,1.034,-11.596,13.72,64.61,15.61
,-7.552,-1.749,-13.384,-3.484,0.208,-11.18,41.44,43.54,21.0
,-7.667,-0.191,-12.656,-2.402,-0.426,-10.785,50.12,7.35,28.14
,-6.693,0.591,-12.446,-2.032,-0.242,-10.617,44.31,-27.79,34.58
30969.0,-1.63,-0.361,-10.304,-1.115,-0.285,-9.586,-1.19,-149.59,46.06
,-1.35,0.053,-9.337,-0.768,-0.019,-9.782,-3.57,-164.29,45.92
,-1.761,0.345,-9.373,-0.584,-0.196,-10.017,-12.95,-183.4,42.49
,-1.486,-0.012,-9.567,-0.83,-0.96,-9.665,-26.46,-204.89,39.34
31045.0,-1.074,-1.366,-9.701,-1.685,-0.292,-10.569,-37.52,-287.21,25.69
,-1.015,-1.043,-9.624,-1.417,-0.311,-11.194,-29.54,-301.91,20.72
,-0.854,-0.318,-10.06,-1.699,-0.364,-10.522,-26.88,-314.51,14.56
,-1.328,-0.081,-10.292,-2.991,-0.5,-9.935,-28.35,-325.36,10.29
31121.0,-3.252,-0.66,-9.768,-8.832,-0.103,-3.644,-32.06,-371.14,-18.13
,-3.699,-0.548,-8.698,-10.038,0.313,-2.486,-24.22,-370.72,-24.71
,-5.334,-0.605,-6.382,-10.079,1.015,-1.292,-10.85,-362.6,-27.23
,-6.348,0.251,-5.815,-9.854,0.634,-0.885,-0.14,-348.18,-22.96
31197.0,-8.052,-0.849,-0.644,-5.607,-0.266,0.893,-71.12,-207.97,-28.14
,-6.655,-1.941,-0.402,-6.222,1.173,-0.378,-79.1,-163.17,-23.1
,-5.413,-1.158,-0.62,-6.549,2.331,-2.584,-74.62,-115.71,-16.73
,-4.896,-0.72,0.61,-6.829,1.962,-5.14,-69.65,-67.06,-9.73
31272.0,-8.55,-0.581,-7.662,-3.106,3.123,-9.277,-99.05,139.3,6.3
,-24.341,-15.595,8.966,-6.492,-2.467,-8.586,-111.37,125.23,24.78
,-27.37,-9.141,5.059,-5.693,-3.324,-8.619,-42.84,123.55,42.49
,-15.264,3.235,-10.074,-7.083,1.213,-6.305,-7.28,136.29,-0.49
31348.0,-8.658,5.006,-11.536,-9.277,-2.618,-8.251,-24.01,136.57,4.69
,-5.927,6.255,-13.206,-8.954,-2.371,-6.772,-42.56,132.23,8.61
,-3.553,5.461,-11.409,-8.471,-4.07,-6.001,-72.45,123.97,-4.62
,-6.628,1.29,-9.957,-8.464,-2.611,-6.15,-90.93,113.61,-14.91
31423.0,-8.698,0.706,-6.463,-8.665,2.86,-5.925,24.29,85.82,31.29
,-9.06,1.833,-6.391,-8.861,2.407,-6.234,25.2,81.97,27.65
,-8.94,2.137,-6.37,-8.94,2.161,-6.377,17.85,77.77,23.94
,-8.638,3.032,-5.906,-9.361,0.847,-6.088,9.87,72.94,20.65
31499.0,-9.39,-0.232,-5.53,-9.11,1.996,-5.961,-16.94,52.92,12.39
,-9.107,-0.294,-5.43,-9.21,1.211,-5.865,-4.83,50.75,13.23
,-8.885,0.684,-5.657,-9.005,0.048,-5.76,7.63,48.3,13.51
,-8.815,1.857,-5.834,-8.832,-1.029,-5.645,11.06,45.15,12.6
31575.0,-8.835,-1.24,-5.556,-9.174,1.218,-4.64,0.07,32.2,5.39
,-8.954,-0.498,-5.303,-9.088,1.141,-4.8,10.71,31.22,6.72
,-9.072,0.352,-4.819,-8.741,0.873,-5.042,15.33,30.03,8.05
,-9.232,0.938,-4.683,-8.567,0.536,-5.209,13.37,28.14,8.05
31651.0,-8.772,0.861,-4.984,-9.048,-0.153,-3.944,-9.66,22.19,1.47
,-8.851,1.335,-4.817,-8.619,-0.625,-3.85,-12.88,21.56,0.21
,-9.016,1.579,-4.515,-8.315,-0.816,-3.455,-17.78,21.42,0.28
,-9.206,0.986,-4.156,-8.581,-0.641,-2.737,-21.56,22.12,1.47
31727.0,-9.335,0.144,-2.17,-9.366,-0.565,-0.23,4.41,31.92,16.17
,-9.634,0.928,-1.649,-9.629,-0.682,-0.189,5.04,35.42,17.99
,-9.366,0.637,-0.895,-9.954,-0.775,-0.5,3.36,40.25,19.74
,-9.275,-0.392,-0.364,-10.39,-0.51,-0.849,7.14,46.41,20.86
31802.0,-10.421,-1.091,-0.172,-10.806,-0.637,-3.154,32.55,80.99,20.58
,-10.321,-0.931,-0.503,-10.869,-0.39,-4.097,33.32,88.34,18.69
,-10.416,-0.419,-1.39,-10.926,-0.787,-4.525,30.87,94.92,15.26
,-10.553,-0.622,-2.333,-11.589,0.062,-5.126,23.87,100.66,11.69
31878.0,-13.405,4.87,-6.205,-12.728,-4.353,-1.732,21.49,119.77,-0.07
,-12.922,0.668,-5.087,-12.792,-6.274,0.146,3.5,121.52,-5.53
,-11.295,-5.207,-3.082,-13.747,-6.674,2.594,1.96,126.91,-0.84
,-12.06,-4.226,-1.883,-15.769,-4.082,3.266,29.96,134.47,9.52
31954.0,-16.21,-2.142,2.785,-10.871,4.137,-4.975,165.55,183.05,65.59
,-14.819,-1.194,3.247,-12.029,5.628,-9.392,163.45,187.39,68.32
,-13.592,0.409,0.562,-12.429,3.745,-9.363,162.96,188.44,67.55
,-11.759,1.85,-1.57,-11.455,2.699,-11.352,158.76,187.95,62.44
32030.0,-10.538,2.556,-12.254,-6.918,-1.024,-13.814,39.13,132.3,4.76
,-8.772,2.434,-13.116,-6.691,-0.488,-12.986,10.85,107.1,-2.59
,-6.784,1.01,-13.719,-5.829,-0.194,-12.369,-5.81,87.36,0.14
,-6.102,-0.558,-14.374,-5.293,-0.196,-11.512,-0.91,75.04,9.8
32105.0,-5.13,-0.268,-10.715,-1.187,-0.995,-10.854,17.22,-42.63,35.7
,-4.436,-0.404,-10.51,-1.273,-0.979,-10.663,6.16,-70.91,37.24
,-3.317,-0.756,-10.804,-0.782,-1.402,-10.778,-5.25,-98.28,37.17
,-1.847,-0.979,-11.204,-1.496,-1.878,-10.701,-10.64,-119.98,38.22
32181.0,-1.943,-1.677,-10.301,-0.938,-0.007,-11.012,-38.71,-207.97,36.47
,-0.692,-1.022,-10.658,-1.273,-0.053,-11.105,-32.34,-231.91,36.61
,-0.191,-0.663,-10.804,-1.098,-0.565,-11.129,-29.05,-250.39,33.88
,-0.34,-0.287,-11.206,-1.4,-1.242,-10.857,-30.66,-263.97,31.01
32256.0,-1.441,-1.381,-11.323,-2.656,-1.077,-10.505,-51.73,-330.47,-4.13
,-1.017,-1.503,-11.866,-4.183,-0.476,-8.978,-44.59,-338.24,-9.52
,-1.871,-1.929,-11.991,-5.8,0.443,-7.672,-32.83,-342.58,-12.46
,-2.706,-2.094,-11.67,-7.511,-0.833,-7.164,-14.77,-343.91,-14.56
32332.0,-8.107,-1.651,-5.425,-6.528,0.112,-2.3,46.62,-277.55,-2.52
,-7.729,-1.984,-3.874,-6.312,0.309,-2.149,54.11,-247.24,4.69
,-6.81,-1.381,-3.465,-6.413,-0.235,-1.074,63.84,-214.9,9.94
,-6.542,-0.756,-2.656,-6.741,0.139,-0.426,68.95,-181.93,16.87
32408.0,-7.009,0.811,-0.227,-8.437,0.735,-2.379,44.1,-21.56,24.71
,-7.387,0.771,-0.323,-13.451,-2.209,-4.769,29.47,7.98,20.23
,-7.564,0.407,-0.715,-23.721,-9.32,5.631,10.57,36.12,17.5
,-7.485,0.608,-1.019,-22.036,-2.355,2.106,-7.98,62.44,16.87
32484.0,-10.373,-2.639,1.385,-9.012,-0.57,-5.422,-78.61,49.7,-30.31
,-8.758,-6.48,2.536,-8.72,-0.005,-6.399,-106.96,60.2,-19.18
,-9.878,-6.037,-1.041,-7.942,2.448,-6.633,-86.66,80.29,-12.67
,-8.938,-1.85,-3.795,-6.485,4.676,-7.444,-51.94,103.67,-13.02
32560.0,-6.872,5.43,-9.371,-9.395,0.127,-5.305,-38.71,78.26,-17.43
,-7.619,4.798,-9.354,-8.536,-1.259,-4.661,-46.76,65.66,-17.85
,-8.622,2.816,-8.174,-9.923,-3.25,-3.743,-47.67,53.76,-8.61
,-9.564,-0.357,-6.224,-9.569,-2.467,-3.015,-36.4,45.78,3.92
32635.0,-9.213,0.4,-2.938,-9.749,-0.701,-2.575,-6.93,37.24,2.8
,-9.557,1.716,-2.797,-9.545,0.785,-3.068,-25.83,36.12,-0.56
,-9.588,-0.275,-2.383,-9.165,1.254,-3.623,-42.91,36.12,-1.4
,-9.418,-1.608,-2.266,-8.861,1.776,-4.135,-37.87,37.66,1.47
32711.0,-9.438,1.589,-4.472,-9.177,0.526,-5.307,11.83,35.35,9.31
,-9.591,0.321,-4.501,-9.115,0.842,-5.264,5.18,32.76,7.63
,-9.318,-0.428,-4.635,-8.983,0.672,-5.128,6.51,30.31,7.56
,-9.115,-0.108,-5.051,-8.854,-0.151,-4.489,13.79,28.35,7.77
32787.0,-9.206,-0.794,-3.905,-9.332,0.325,-3.039,19.18,15.05,7.56
,-9.287,-0.694,-3.439,-9.325,0.656,-3.116,24.78,14.91,8.54
,-9.517,-0.084,-3.391,-9.464,1.115,-3.211,30.45,15.26,9.66
,-9.555,0.122,-3.142,-9.313,1.242,-3.424,33.6,16.1,10.78
32863.0,-9.074,0.924,-3.872,-9.131,0.129,-3.798,36.19,14.84,9.52
,-9.019,0.342,-3.781,-9.483,0.407,-4.118,32.83,14.35,9.31
,-9.32,0.165,-3.881,-9.014,0.103,-4.192,34.16,13.93,8.89
,-9.392,-0.026,-3.936,-8.935,-0.022,-4.403,34.02,13.37,8.33
32938.0,-9.277,0.517,-4.484,-9.462,0.895,-3.235,41.3,10.08,9.17
,-9.067,0.658,-4.219,-9.627,1.034,-3.139,44.87,9.73,9.45
,-9.258,0.617,-3.987,-9.505,0.948,-3.369,48.02,9.73,9.66
,-9.229,0.684,-3.513,-9.368,0.979,-3.47,50.89,9.8,10.08
33014.0,-9.155,0.955,-3.587,-9.263,-1.694,-3.982,56.91,11.97,7.7
,-9.136,0.39,-3.491,-9.351,-1.292,-4.075,57.89,13.02,7.63
,-9.076,-0.84,-3.575,-8.985,-1.027,-4.018,58.59,14.14,8.26
,-8.952,-1.902,-3.467,-8.93,-0.141,-3.908,64.12,15.89,10.43
33089.0,-9.196,0.663,-3.924,-9.189,0.11,-3.549,93.52,19.81,13.3
,-9.174,0.866,-4.044,-9.155,0.184,-3.556,89.67,19.46,12.11
,-9.222,0.943,-3.989,-9.569,0.639,-3.85,86.52,19.18,11.13
,-9.21,0.541,-3.661,-9.524,1.201,-4.109,83.37,19.95,10.36
33165.0,-9.782,1.608,-4.231,-9.502,1.369,-4.209,73.5,19.39,0.63
,-9.541,1.335,-4.073,-9.899,1.651,-4.64,64.12,18.69,-0.07
,-9.146,0.962,-4.046,-9.837,1.445,-5.169,60.48,18.13,-0.98
,-9.227,0.991,-4.099,-9.591,0.916,-5.53,61.39,17.15,-1.26
33241.0,-9.172,0.124,-5.851,-8.531,-1.656,-5.135,54.67,8.82,-3.01
,-8.859,-0.672,-5.851,-8.787,-1.122,-4.896,58.52,6.72,-2.73
,-8.557,-1.137,-5.635,-9.024,-0.866,-4.614,63.21,4.76,-2.59
,-8.545,-1.28,-5.485,-8.849,-1.517,-4.401,67.48,3.08,-2.87
33317.0,-8.871,-1.443,-4.173,-9.179,0.034,-4.609,89.46,-0.42,9.73
,-8.863,-0.751,-4.209,-8.981,-0.663,-4.669,96.46,-0.42,14.35
,-9.349,-0.517,-4.238,-8.765,-1.326,-4.798,99.54,-0.28,18.34
,-9.359,-0.081,-4.405,-8.428,-1.414,-4.972,101.71,-0.42,21.35
33392.0,-7.717,-0.857,-4.886,-6.846,-0.567,-5.547,134.47,3.99,59.64
,-7.475,-0.601,-4.848,-7.1,-0.069,-5.657,145.11,6.23,69.51
,-7.284,-0.531,-5.279,-7.554,-0.117,-5.324,155.26,8.05,78.61
,-7.145,-0.591,-5.597,-8.186,-0.242,-4.771,164.15,9.24,86.59
33468.0,-8.545,-0.175,-4.953,-8.404,-3.07,-4.513,202.02,11.69,103.6
,-8.48,-0.23,-4.511,-8.378,-3.202,-4.515,200.97,11.2,103.39
,-8.789,-0.538,-4.238,-8.435,-2.333,-4.42,197.54,10.22,102.48
,-8.524,-2.079,-4.212,-8.729,-0.948,-4.384,191.73,9.94,100.94
33544.0,-9.239,0.51,-4.288,-10.182,1.931,-2.111,218.4,6.65,103.11
,-9.737,1.807,-4.003,-10.249,1.249,-2.106,210.7,2.52,98.98
,-10.05,2.453,-3.309,-10.273,0.325,-2.161,196.35,-1.33,93.17
,-10.316,2.359,-2.592,-10.11,-0.668,-2.28,178.71,-4.62,85.05
33620.0,-9.952,-1.273,-2.137,-9.208,-1.275,-2.539,138.67,-8.26,67.41
,-9.758,-1.35,-2.242,-9.284,-1.072,-2.895,145.46,-7.21,68.95
,-9.507,-1.381,-2.295,-9.457,-0.952,-3.005,152.67,-6.23,70.56
,-9.313,-1.34,-2.3,-9.378,-0.835,-3.07,158.9,-5.6,72.45
33696.0,-9.172,-0.385,-2.929,-9.277,0.593,-3.309,177.59,-6.51,75.39
,-9.115,0.227,-3.065,-9.081,0.706,-3.022,176.33,-6.93,73.64
,-9.069,0.617,-3.266,-9.072,0.739,-3.087,172.2,-7.42,71.26
,-9.16,0.629,-3.381,-9.136,0.591,-3.037,166.74,-7.98,69.16
33771.0,-9.143,0.802,-2.845,-9.55,0.187,-2.453,131.25,-5.39,54.53
,-9.177,0.718,-2.8,-9.593,0.306,-2.465,121.59,-4.97,50.61
,-9.261,0.567,-2.522,-9.797,0.536,-2.86,112.14,-3.64,46.69
,-9.294,0.421,-2.481,-10.014,0.433,-3.063,103.88,-1.4,42.77
33847.0,-9.964,0.483,-2.931,-9.545,1.376,-2.709,75.25,5.04,29.68
,-9.761,0.68,-2.539,-9.541,1.594,-2.67,73.85,5.46,28.84
,-9.777,1.046,-2.568,-9.541,1.778,-2.381,71.89,5.81,28.0
,-9.675,1.084,-2.599,-9.612,2.017,-2.34,69.02,6.02,27.51
33922.0,-9.476,2.182,-2.199,-9.368,0.785,-1.615,44.38,4.34,21.42
,-9.347,2.247,-2.115,-9.581,0.622,-1.677,35.77,5.74,19.88
,-9.335,1.823,-2.094,-9.634,0.646,-1.941,26.81,7.35,17.99
,-9.354,1.182,-1.881,-9.77,0.658,-2.142,19.6,8.75,15.89
33998.0,-9.641,1.228,-2.283,-8.983,-0.479,-4.118,3.22,11.83,7.35
,-9.576,1.024,-3.558,-8.969,-0.354,-4.228,-3.36,10.64,4.2
,-8.997,0.275,-3.62,-8.983,-0.972,-4.164,-9.87,10.71,3.92
,-8.823,-0.883,-3.082,-9.0,-1.397,-4.259,-11.06,12.18,4.83
34074.0,-9.127,-0.993,-4.233,-9.407,3.022,-3.699,5.04,17.15,9.87
,-9.225,-0.06,-4.29,-9.196,2.481,-3.479,12.11,16.73,11.55
,-9.605,0.905,-4.082,-9.351,1.462,-3.855,15.4,15.26,11.27
,-9.552,2.142,-3.833,-9.263,0.833,-4.247,15.61,13.16,10.85
34150.0,-9.045,0.311,-4.671,-8.964,-0.426,-4.582,14.56,8.75,18.13
,-8.756,-0.806,-4.769,-9.06,0.656,-4.176,17.57,8.68,19.67
,-8.701,-1.493,-4.764,-9.198,1.484,-3.857,24.22,8.82,21.49
,-8.789,-1.232,-4.788,-9.442,1.797,-3.714,33.67,8.96,22.54
34225.0,-9.392,1.907,-3.503,-9.292,2.422,-2.95,21.07,7.84,16.94
,-9.474,1.709,-3.247,-9.493,2.606,-3.297,17.01,7.42,15.68
,-9.574,1.871,-3.063,-9.308,2.065,-3.63,15.47,7.0,13.65
,-9.311,2.362,-3.013,-9.177,1.065,-3.843,15.61,7.0,13.09
34301.0,-8.859,0.749,-3.929,-8.847,-0.273,-3.979,-2.94,6.44,6.44
,-8.988,0.407,-3.881,-8.94,-0.065,-3.979,0.21,7.14,6.93
,-9.184,0.299,-3.951,-9.036,0.491,-3.877,3.71,8.05,7.7
,-8.988,0.034,-4.142,-9.134,1.022,-3.867,7.63,8.96,9.24
34377.0,-9.095,1.072,-3.891,-8.926,0.665,-3.266,22.75,11.83,13.3
,-8.892,0.799,-3.714,-8.93,0.481,-3.128,21.0,12.46,13.3
,-8.911,0.701,-3.568,-9.165,0.988,-3.24,21.98,13.16,13.79
,-9.04,0.871,-3.515,-9.148,1.378,-3.309,23.94,13.86,14.14
34453.0,-8.961,1.345,-3.305,-8.978,1.046,-3.699,24.43,19.74,15.26
,-8.897,1.192,-3.302,-9.05,1.158,-4.07,21.49,20.93,14.84
,-8.892,1.072,-3.321,-8.878,1.022,-4.338,19.18,21.63,14.21
,-8.885,0.988,-3.422,-8.638,0.68,-4.415,17.36,22.61,13.65
34529.0,-8.691,0.687,-4.35,-8.954,1.082,-3.563,11.55,25.2,12.46
,-8.882,0.859,-4.097,-8.99,0.409,-3.319,11.2,25.06,12.39
,-9.052,0.799,-3.752,-8.959,1.189,-3.159,9.73,25.69,12.46
,-9.328,0.902,-3.666,-8.751,1.307,-3.175,8.19,26.11,11.34
34604.0,-8.909,1.251,-3.235,-8.076,0.986,-5.767,5.04,31.78,15.4
,-8.725,1.11,-3.984,-8.105,0.864,-5.994,5.67,33.53,16.17
,-8.583,1.029,-4.666,-8.303,0.797,-6.128,6.86,35.07,17.29
,-8.124,0.964,-5.231,-8.495,0.842,-6.1,9.59,35.91,18.83
34680.0,-8.631,0.452,-5.887,-9.038,0.553,-5.633,14.42,34.79,20.65
,-8.629,0.12,-5.729,-8.904,0.517,-5.568,13.51,34.58,20.65
,-9.012,0.467,-5.559,-9.143,0.828,-5.446,14.42,34.65,20.65
,-9.16,0.833,-5.626,-9.316,0.957,-5.324,14.35,34.72,20.44
34755.0,-9.416,1.058,-5.03,-9.005,0.964,-4.683,25.06,39.06,25.06
,-9.217,1.094,-4.87,-9.11,1.01,-4.602,25.97,40.11,25.55
,-9.038,1.362,-4.783,-9.313,1.129,-4.542,26.25,41.44,25.97
,-9.043,1.108,-4.86,-9.265,1.017,-4.511,26.81,43.47,26.32
34831.0,-9.567,1.146,-4.513,-9.947,-3.771,-3.503,36.4,54.74,28.14
,-10.407,3.029,-4.216,-10.976,-1.74,-2.73,39.48,57.12,26.74
,-12.242,4.276,-4.886,-11.771,-0.144,-2.541,33.25,58.38,21.49
,-11.132,-0.263,-4.582,-11.548,-1.34,-2.046,13.51,60.13,18.41
34907.0,-11.381,-2.79,-1.163,-13.034,-4.283,1.522,40.95,88.41,36.47
,-11.828,-2.95,-0.436,-13.716,-4.372,2.072,47.6,95.69,41.23
,-12.501,-2.996,0.163,-14.099,-3.269,1.732,56.91,103.25,45.99
,-12.766,-3.486,0.474,-13.661,-2.307,-0.132,66.78,111.3,51.24
34983.0,-12.553,-2.12,-2.927,-12.036,-1.134,-10.687,127.75,142.94,71.68
,-11.278,-1.984,-4.807,-10.555,-2.089,-11.46,123.69,144.69,73.01
,-10.962,-0.735,-7.267,-8.894,-2.292,-11.151,124.95,148.05,73.29
,-11.663,-0.055,-8.289,-8.622,-1.819,-11.72,118.79,149.66,67.06
35058.0,-8.019,-1.785,-11.888,-8.485,0.629,-10.287,114.94,84.0,72.87
,-7.117,-1.177,-11.452,-7.82,0.936,-9.861,121.94,76.86,77.0
,-6.839,-0.526,-10.735,-6.987,0.754,-9.672,127.68,70.0,80.71
,-7.772,-0.06,-10.141,-5.877,0.29,-9.847,120.61,54.95,83.23
35134.0,-4.683,-0.577,-9.835,-4.085,-1.39,-9.227,7.49,-75.81,81.2
,-3.912,-1.012,-10.081,-3.338,-1.086,-9.459,2.87,-90.44,80.43
,-3.848,-1.407,-9.686,-2.702,-0.974,-9.593,5.25,-103.6,77.21
,-4.061,-1.484,-9.292,-2.675,-1.108,-9.026,7.42,-119.49,71.82
35210.0,-2.903,-0.981,-8.294,-2.685,-0.522,-8.909,16.94,-198.59,49.28
,-2.936,-0.948,-8.425,-2.501,-0.22,-9.002,20.09,-213.71,45.15
,-3.003,-0.928,-8.299,-2.895,-0.17,-8.892,19.74,-228.9,41.09
,-3.061,-0.725,-8.521,-3.084,-0.641,-8.835,16.17,-244.02,37.45
35286.0,-3.254,-0.938,-8.947,-5.992,0.318,-7.928,11.13,-291.62,17.29
,-3.699,-0.979,-9.028,-6.226,0.704,-7.255,18.69,-298.41,12.11
,-4.391,-0.814,-8.519,-6.77,1.273,-6.466,28.28,-302.75,7.91
,-5.465,-0.345,-8.143,-7.37,1.797,-4.891,34.02,-306.53,5.04
35361.0,-7.964,0.986,-2.534,-9.11,0.775,-0.823,-14.49,-294.0,-17.29
,-9.428,-0.151,-1.608,-8.078,0.369,0.053,-16.73,-279.44,-22.96
,-9.45,-0.347,-1.187,-7.349,-0.756,0.785,-12.11,-260.12,-26.67
,-10.141,-0.069,-0.962,-7.042,-1.663,1.316,-7.42,-237.3,-30.52
35437.0,-6.81,-1.328,1.443,-7.514,1.208,-3.118,-54.39,-69.51,-18.34
,-7.332,-1.053,1.35,-7.753,0.809,-4.513,-49.21,-27.86,-10.99
,-7.662,0.084,0.282,-14.98,-5.15,-1.764,-43.75,12.88,-4.62
,-7.559,1.132,-1.359,-23.19,-6.762,6.468,-44.59,51.66,0.42
35512.0,-17.181,0.053,-2.245,-5.432,2.034,-8.71,-15.26,138.39,10.43
,-7.229,-1.823,-5.358,-5.867,4.838,-5.86,-58.59,167.72,21.91
,-6.892,-3.384,-10.05,-8.208,4.429,-7.777,-68.25,168.56,12.81
,-4.013,-2.67,-7.717,-8.016,2.053,-10.916,-32.83,155.47,13.58
35588.0,-5.891,3.082,-11.036,-8.086,-4.724,-5.19,-72.24,105.42,-7.49
,-6.834,3.793,-8.981,-8.48,-2.682,-5.24,-70.07,102.62,-8.61
,-9.371,-0.634,-7.231,-9.684,-0.335,-5.642,-73.5,95.69,-7.14
,-9.115,-4.544,-6.025,-9.232,1.981,-5.872,-57.68,89.39,0.91
35664.0,-8.387,2.714,-5.791,-8.806,0.692,-5.298,21.63,73.85,25.06
,-8.37,2.501,-5.654,-9.098,0.431,-5.248,7.21,68.39,19.04
,-8.428,2.814,-6.083,-9.318,1.228,-5.315,-6.58,63.21,14.14
,-8.533,2.316,-5.963,-9.416,1.902,-5.403,-17.71,60.48,12.39
35740.0,-9.421,1.658,-5.575,-8.6,0.637,-6.028,-12.04,48.23,6.65
,-8.981,1.208,-5.683,-8.679,0.325,-5.647,-14.35,45.71,6.23
,-8.753,0.809,-5.769,-8.871,-0.311,-5.444,-12.88,43.19,5.53
,-8.677,0.725,-5.927,-9.143,-0.134,-4.975,-10.36,40.18,3.64
35816.0,-9.072,0.383,-4.886,-9.072,-0.316,-4.542,-20.51,28.35,-2.52
,-8.76,0.29,-4.819,-9.16,-0.12,-4.353,-24.78,26.67,-2.94
,-8.686,-0.206,-4.568,-9.033,0.452,-4.329,-27.58,26.32,-1.61
,-8.839,-0.421,-4.439,-8.957,0.842,-4.159,-25.55,26.74,-0.14
35891.0,-8.959,0.644,-4.049,-9.119,0.005,-3.716,-17.5,30.52,5.53
,-9.038,-0.373,-3.843,-9.366,0.771,-3.872,-19.04,32.06,6.72
,-9.103,-1.048,-3.709,-9.73,0.304,-3.522,-15.26,34.09,7.98
,-9.287,-1.139,-3.508,-9.828,-0.675,-3.245,-9.66,36.33,8.33
35967.0,-9.708,-0.457,-3.556,-10.234,-0.936,-1.23,-8.47,49.35,12.32
,-9.852,-0.194,-3.352,-10.402,-0.759,-1.007,-3.15,53.2,15.05
,-10.026,-0.067,-3.029,-10.572,-0.416,-0.514,0.63,56.0,18.34
,-10.057,-0.476,-2.209,-10.914,-0.761,-0.273,6.58,60.13,21.84
36043.0,-11.278,-0.869,-0.069,-11.541,-1.278,-1.469,25.55,94.5,15.26
,-11.551,-0.763,-0.034,-12.034,-1.835,-1.792,23.31,103.04,12.67
,-11.46,-0.483,-0.436,-13.137,-0.294,-1.644,19.95,111.09,10.22
,-11.381,-0.567,-0.943,-15.475,2.335,-3.053,16.03,119.07,8.68
36119.0,-14.925,-3.108,-1.642,-18.524,-2.654,8.392,15.47,151.9,6.3
,-14.197,-7.186,0.263,-19.691,-1.182,7.126,24.15,161.63,16.8
,-15.652,-5.913,4.075,-18.667,0.766,5.609,59.08,174.3,36.47
,-18.002,-3.948,6.844,-16.451,1.931,1.084,95.13,186.2,51.73
36194.0,-13.281,4.757,-3.36,-12.946,4.03,-14.503,149.59,213.71,59.01
,-15.781,8.562,-10.414,-11.362,1.778,-14.642,151.27,211.05,38.99
,-17.425,7.128,-12.34,-6.277,-2.903,-15.614,106.4,198.66,17.43
,-15.322,4.879,-13.264,-5.104,-4.374,-16.93,44.24,173.18,-2.17
36270.0,-5.738,-3.924,-14.927,-4.614,0.278,-11.807,7.84,59.78,23.59
,-7.619,-2.742,-12.807,-2.316,-0.134,-11.584,33.18,28.42,31.08
,-6.59,-2.12,-12.479,-1.718,-0.263,-11.017,41.44,-11.06,39.83
,-5.64,-0.663,-11.821,-0.914,-0.309,-11.129,41.86,-47.11,45.99
36345.0,-0.62,-0.093,-10.189,-0.024,-0.031,-9.351,-0.91,-165.34,51.59
,-0.704,-0.074,-9.517,0.675,0.096,-9.574,-9.24,-181.44,48.65
,-0.811,-0.431,-8.978,0.742,-0.127,-9.194,-20.23,-201.11,43.68
,-0.668,-0.27,-8.823,0.342,-0.742,-9.005,-28.49,-221.13,37.45
36421.0,0.534,-0.538,-9.22,-0.203,-1.687,-11.029,-23.38,-300.16,16.73
,0.227,0.048,-9.72,-0.773,-1.718,-10.708,-23.87,-316.33,9.87
,0.148,0.299,-10.636,-2.044,-0.976,-10.835,-30.52,-331.17,2.52
,-0.175,-0.634,-11.022,-3.329,0.436,-10.983,-36.33,-344.54,-5.67
36497.0,-3.836,1.206,-10.651,-11.409,-0.062,-0.613,-4.9,-389.34,-40.25
,-4.932,0.962,-7.755,-11.347,1.618,-0.416,-11.13,-383.6,-46.9
,-8.05,-0.302,-4.719,-10.931,1.259,-1.117,-22.33,-367.78,-41.86
,-10.546,-1.196,-2.032,-9.466,-1.225,-0.809,-23.8,-349.72,-46.13
36573.0,-7.195,-2.297,-0.388,-6.468,1.795,0.237,-88.69,-151.06,-33.32
,-5.039,-1.292,0.313,-5.954,2.508,-3.106,-77.7,-98.21,-22.12
,-4.697,-1.534,3.297,-7.559,0.56,-7.026,-67.55,-42.91,-8.96
,-6.566,-0.677,2.833,-22.326,-12.63,2.843,-55.09,14.63,0.84
36649.0,-29.852,-9.301,3.051,-4.015,-3.69,-8.21,-25.97,140.49,49.14
