Timestamp,AccX,AccY,AccZ,GyroX,GyroY,GyroZ,MagnX,MagnY,MagnZ
0.0,-9.421,-0.687,-3.108,-9.304,-0.644,-3.288,2.31,1.75,0.56
,-9.414,-0.637,-3.156,-9.335,-0.653,-3.324,1.96,1.96,0.49
,-9.375,-0.677,-3.192,-9.378,-0.668,-3.317,1.61,1.75,0.42
,-9.354,-0.66,-3.252,-9.39,-0.677,-3.355,1.61,1.82,0.42
75.0,-9.373,-0.675,-3.321,-9.349,-0.694,-3.266,2.31,1.54,0.63
,-9.344,-0.715,-3.266,-9.351,-0.72,-3.238,2.38,1.33,0.56
,-9.354,-0.639,-3.252,-9.387,-0.696,-3.252,2.59,1.26,0.56
,-9.375,-0.663,-3.281,-9.368,-0.689,-3.197,2.59,1.33,0.49
150.0,-9.347,-0.692,-3.25,-9.383,-0.668,-3.23,2.59,1.19,0.7
,-9.392,-0.68,-3.197,-9.39,-0.701,-3.283,2.59,1.4,0.7
,-9.39,-0.708,-3.214,-9.359,-0.704,-3.266,2.59,1.33,0.63
,-9.366,-0.704,-3.218,-9.383,-0.665,-3.195,2.66,1.19,0.56
226.0,-9.371,-0.682,-3.161,-9.351,-0.727,-3.233,3.57,1.26,0.84
,-9.366,-0.639,-3.166,-9.349,-0.751,-3.245,3.57,1.47,0.84
,-9.378,-0.646,-3.175,-9.407,-0.725,-3.24,3.15,1.4,0.77
,-9.354,-0.704,-3.192,-9.33,-0.682,-3.192,2.8,1.47,0.63
302.0,-9.404,-0.639,-3.199,-9.335,-0.689,-3.338,3.08,1.61,0.84
,-9.423,-0.608,-3.216,-9.299,-0.694,-3.345,2.73,1.47,0.7
,-9.375,-0.601,-3.235,-9.33,-0.684,-3.269,2.24,1.33,0.63
,-9.383,-0.658,-3.305,-9.38,-0.637,-3.228,2.31,1.26,0.56
378.0,-9.354,-0.644,-3.147,-9.387,-0.675,-3.123,3.08,1.12,0.7
,-9.366,-0.653,-3.144,-9.38,-0.706,-3.173,2.87,1.19,0.63
,-9.39,-0.684,-3.089,-9.399,-0.73,-3.118,2.66,1.26,0.49
,-9.418,-0.706,-3.147,-9.342,-0.696,-3.142,2.52,1.19,0.49
453.0,-9.38,-0.66,-3.163,-9.39,-0.735,-3.228,2.66,1.82,0.56
,-9.373,-0.639,-3.137,-9.366,-0.749,-3.221,2.52,1.89,0.49
,-9.354,-0.658,-3.195,-9.368,-0.763,-3.238,2.17,2.03,0.49
,-9.363,-0.67,-3.195,-9.368,-0.677,-3.271,2.31,1.96,0.49
529.0,-9.392,-0.658,-3.331,-9.32,-0.79,-3.374,3.22,1.54,0.56
,-9.373,-0.639,-3.364,-9.308,-0.823,-3.183,2.66,1.4,0.56
,-9.344,-0.646,-3.113,-9.313,-0.802,-3.245,2.73,1.4,0.56
,-9.351,-0.768,-3.139,-9.337,-0.677,-3.355,2.66,1.33,0.35
604.0,-9.325,-0.605,-3.312,-9.402,-0.68,-3.147,4.76,0.98,1.05
,-9.359,-0.646,-3.228,-9.349,-0.641,-3.18,4.48,0.98,0.98
,-9.342,-0.613,-3.221,-9.363,-0.763,-3.084,4.48,0.91,0.84
,-9.383,-0.591,-3.12,-9.385,-0.852,-3.113,4.34,0.77,0.77
680.0,-9.399,-0.725,-3.197,-9.349,-0.632,-3.128,3.99,0.91,0.7
,-9.43,-0.701,-3.151,-9.407,-0.66,-3.309,3.99,0.98,0.77
,-9.392,-0.62,-3.108,-9.378,-0.744,-3.161,3.5,0.98,0.63
,-9.361,-0.684,-3.161,-9.361,-0.629,-3.149,2.94,0.98,0.7
756.0,-9.356,-0.61,-3.238,-9.38,-0.711,-3.221,2.31,1.12,0.35
,-9.351,-0.763,-3.12,-9.39,-0.644,-3.25,1.68,1.05,0.42
,-9.354,-0.857,-3.199,-9.375,-0.622,-3.07,1.96,0.98,0.49
,-9.38,-0.849,-3.139,-9.378,-0.586,-3.257,3.29,1.33,0.77
832.0,-9.325,-0.603,-3.352,-9.378,-0.73,-3.343,2.52,0.98,0.7
,-9.337,-0.725,-3.324,-9.373,-0.682,-3.331,2.03,0.84,0.77
,-9.342,-0.794,-3.329,-9.335,-0.596,-3.278,2.38,0.56,0.77
,-9.323,-0.835,-3.34,-9.397,-0.617,-3.324,2.66,0.35,0.84
908.0,-9.359,-0.658,-3.307,-9.335,-0.713,-3.281,2.52,-0.63,0.63
,-9.371,-0.68,-3.384,-9.359,-0.625,-3.209,2.31,-0.98,0.56
,-9.32,-0.79,-3.429,-9.373,-0.715,-3.053,2.8,-1.26,0.7
,-9.311,-0.759,-3.333,-9.392,-0.72,-3.101,3.78,-1.33,0.84
983.0,-9.38,-0.778,-3.065,-9.418,-0.773,-2.943,1.89,-1.96,0.63
,-9.304,-0.871,-2.922,-9.371,-0.727,-3.008,1.61,-1.61,0.84
,-9.351,-0.876,-2.943,-9.418,-0.759,-2.855,1.82,-1.47,0.98
,-9.414,-0.847,-2.943,-9.409,-0.658,-2.862,2.1,-1.26,1.12
1059.0,-9.354,-0.629,-2.874,-9.342,-0.852,-2.843,1.68,-0.28,1.4
,-9.397,-0.677,-2.895,-9.359,-0.78,-2.726,1.26,0.0,1.47
,-9.378,-0.771,-2.953,-9.395,-0.66,-2.659,0.56,0.07,1.47
,-9.311,-0.876,-2.807,-9.469,-0.541,-2.721,1.12,0.56,1.82
1135.0,-9.404,-0.577,-2.682,-9.495,-0.613,-2.565,1.4,3.01,2.38
,-9.289,-0.751,-2.544,-9.564,-0.407,-2.85,0.42,3.71,2.66
,-9.282,-0.873,-2.407,-9.576,-0.33,-3.19,1.33,4.69,3.01
,-9.404,-0.759,-2.431,-9.507,-0.452,-3.436,3.29,5.88,3.29
1211.0,-9.301,-0.675,-3.503,-9.397,-0.634,-3.51,-5.46,5.46,2.03
,-9.323,-0.909,-3.489,-9.44,-0.519,-3.494,-5.53,5.53,2.38
,-9.282,-0.921,-3.515,-9.371,-0.73,-3.553,-3.92,5.32,2.73
,-9.301,-0.897,-3.537,-9.241,-0.95,-3.266,-1.75,5.32,3.01
1286.0,-9.34,-0.854,-3.214,-9.464,0.019,-2.821,-0.21,3.92,3.71
,-9.292,-0.689,-3.075,-9.416,-0.077,-3.096,0.7,3.85,3.36
,-9.454,-0.419,-2.903,-9.196,-0.495,-2.898,1.12,4.13,3.43
,-9.509,-0.117,-3.051,-9.131,-0.916,-2.843,-2.1,3.36,2.59
1362.0,-9.239,-0.845,-2.527,-9.292,-0.251,-3.159,-6.79,5.53,2.45
,-9.478,-0.498,-2.85,-9.244,-0.325,-2.974,-2.66,6.02,2.17
,-9.404,-0.201,-2.759,-9.38,-0.33,-2.929,-2.24,6.16,1.96
,-9.414,-0.062,-2.915,-9.392,-0.378,-2.86,-3.5,6.3,2.1
1437.0,-9.469,-0.419,-2.917,-9.206,-0.842,-2.929,-6.72,7.21,-0.35
,-9.335,-0.268,-3.262,-9.409,-0.591,-3.36,-8.19,6.51,-0.56
,-9.124,-0.443,-3.075,-9.366,-0.223,-3.515,-9.94,6.37,0.0
,-9.275,-0.713,-3.262,-9.368,0.0,-3.738,-10.5,7.07,0.63
1513.0,-9.17,-0.249,-3.924,-9.392,0.132,-3.077,-7.91,6.58,0.21
,-9.021,-0.668,-3.465,-9.351,0.29,-3.111,-7.35,7.77,0.56
,-9.155,-0.579,-3.197,-9.526,0.136,-3.254,-1.75,8.82,0.56
,-9.265,-0.258,-2.479,-9.34,-0.139,-3.922,5.18,10.36,-0.28
1589.0,-9.22,-0.66,-3.927,-9.232,-1.295,-3.503,-6.86,6.86,-1.96
,-9.182,-1.113,-3.829,-9.158,-1.089,-3.271,-4.69,8.05,-1.47
,-9.1,-1.29,-3.635,-9.119,-0.866,-3.417,0.21,8.61,-1.33
,-9.17,-1.223,-3.506,-8.861,-0.668,-3.518,5.25,8.61,-0.98
1665.0,-9.019,-0.605,-3.149,-9.421,-0.251,-3.228,9.31,10.5,2.73
,-9.375,-0.68,-3.128,-9.139,-0.498,-3.491,8.68,10.92,3.08
,-9.416,-0.536,-2.857,-8.897,-1.015,-3.386,9.52,11.48,2.94
,-9.655,-0.337,-2.965,-9.06,-1.225,-2.962,9.17,10.78,2.52
1740.0,-9.261,-0.936,-3.106,-8.997,-0.098,-3.376,11.62,16.1,2.73
,-9.213,-0.526,-3.025,-9.256,-0.211,-3.542,14.28,16.03,2.24
,-9.012,-0.165,-3.264,-9.21,-0.144,-3.594,13.93,16.87,2.38
,-8.765,0.053,-3.467,-9.083,-0.091,-3.57,10.29,17.78,2.66
1816.0,-9.067,-0.194,-3.372,-8.942,-0.235,-3.946,5.6,21.63,1.26
,-9.134,-0.354,-3.362,-8.507,-0.275,-4.013,4.69,20.37,0.91
,-9.215,-0.421,-3.496,-8.504,-0.424,-3.955,4.2,18.62,0.7
,-9.263,-0.29,-3.879,-8.882,-0.455,-3.9,3.92,17.71,0.35
1892.0,-9.158,-0.464,-4.223,-8.679,-0.967,-4.757,5.32,22.75,-0.77
,-9.167,-0.491,-4.384,-8.61,-1.113,-4.724,4.83,21.35,-0.49
,-9.069,-0.443,-4.649,-8.782,-1.108,-4.597,4.27,19.18,-0.14
,-8.897,-0.706,-4.578,-8.863,-0.979,-4.494,2.38,17.57,0.0
1968.0,-8.83,-0.725,-4.271,-9.002,0.019,-4.13,9.1,18.9,0.56
,-8.638,-0.529,-4.228,-9.158,0.136,-4.099,6.72,18.9,1.4
,-8.547,-0.378,-4.192,-9.098,0.354,-4.269,3.99,19.53,2.17
,-8.71,-0.189,-4.161,-8.758,0.196,-4.338,3.08,20.37,1.96
2044.0,-8.949,0.141,-4.606,-8.588,0.529,-5.042,-3.64,17.22,-0.21
,-8.904,-0.072,-5.016,-8.631,0.517,-4.984,-3.99,15.75,-0.77
,-9.076,-0.017,-4.867,-8.725,0.469,-5.013,-2.59,14.56,-1.96
,-8.815,0.325,-5.162,-8.789,0.129,-4.939,-0.28,13.65,-3.64
2119.0,-8.904,-0.292,-4.836,-8.547,-1.687,-5.011,-9.87,11.76,-7.28
,-8.792,-0.68,-4.731,-8.607,-1.862,-5.231,-11.41,11.62,-6.65
,-8.579,-1.139,-4.855,-8.648,-1.89,-5.389,-11.55,11.55,-5.74
,-8.567,-1.486,-4.944,-8.526,-1.809,-5.348,-10.57,11.48,-4.27
2195.0,-8.433,-1.579,-5.403,-8.418,-0.905,-5.413,3.78,13.65,1.82
,-8.516,-1.369,-5.324,-8.351,-0.857,-5.47,6.23,13.93,1.68
,-8.732,-1.208,-5.41,-8.189,-0.916,-5.547,7.07,13.37,1.82
,-8.772,-0.919,-5.374,-8.543,-0.998,-5.614,7.49,11.97,2.31
2270.0,-8.866,-0.919,-5.535,-8.411,-1.323,-5.183,9.31,9.03,4.62
,-8.78,-0.799,-5.379,-8.772,-1.204,-5.023,9.59,6.79,5.46
,-8.282,-1.017,-5.449,-9.012,-0.957,-4.92,7.98,5.32,6.16
,-8.076,-1.165,-5.341,-8.607,-0.543,-4.977,7.98,5.67,6.65
2346.0,-8.583,-0.201,-5.219,-8.629,0.605,-5.571,10.85,2.87,7.35
,-8.48,0.347,-5.41,-8.457,0.034,-5.587,9.94,2.73,6.58
,-8.543,0.648,-5.595,-8.15,-0.972,-5.322,7.98,1.96,5.74
,-8.488,0.739,-5.736,-8.44,-1.517,-5.121,6.16,1.05,4.2
2422.0,-8.536,-1.479,-4.733,-9.06,0.182,-4.862,7.56,-1.89,5.95
,-8.598,-1.043,-4.757,-8.524,0.244,-5.166,11.9,-2.03,5.67
,-8.603,-0.491,-4.834,-8.234,0.156,-5.37,13.86,-2.03,5.18
,-9.117,-0.038,-4.841,-8.263,-0.036,-5.274,12.6,-3.01,5.11
2498.0,-8.449,-0.261,-4.999,-8.825,-1.9,-4.436,-1.96,-4.76,5.25
,-8.646,-0.881,-4.848,-8.892,-1.235,-4.831,-2.8,-4.76,5.88
,-8.662,-1.555,-4.57,-8.811,-0.158,-5.049,-2.73,-3.99,7.0
,-8.753,-1.996,-4.482,-8.717,0.462,-4.836,-0.14,-2.8,8.47
2573.0,-8.574,0.648,-4.915,-8.681,0.129,-4.953,7.63,-0.28,6.37
,-8.559,0.651,-5.085,-8.698,0.091,-5.087,4.83,0.77,4.83
,-8.938,0.404,-4.755,-8.811,-0.06,-4.908,2.38,1.82,3.99
,-8.985,0.251,-4.786,-8.538,-0.112,-4.987,1.75,2.03,3.5
2649.0,-8.378,-0.034,-4.989,-8.574,-0.665,-5.116,3.43,5.6,0.98
,-8.655,0.16,-5.171,-8.452,-0.869,-5.243,3.29,6.51,0.35
,-9.038,0.022,-5.176,-8.402,-1.027,-5.31,1.82,6.65,-0.28
,-8.873,-0.412,-5.173,-8.591,-0.919,-5.389,0.98,6.37,-0.56
2724.0,-8.892,-0.704,-5.374,-8.693,-0.043,-5.36,2.17,7.28,-0.21
,-8.961,-0.433,-5.312,-8.689,0.163,-5.398,2.73,6.58,-0.28
,-8.658,-0.156,-5.305,-8.672,-0.156,-5.487,2.66,6.09,-0.42
,-8.693,-0.165,-5.2,-8.863,-0.637,-5.343,1.26,5.81,-0.56
2800.0,-8.863,-1.039,-5.281,-8.497,-1.158,-5.604,-3.92,2.66,-0.49
,-8.667,-1.096,-5.298,-8.636,-1.24,-5.441,-1.47,1.82,0.63
,-8.418,-1.074,-5.511,-8.715,-1.11,-5.456,0.56,1.26,1.61
,-8.406,-1.067,-5.614,-8.562,-0.96,-5.42,1.96,0.84,2.52
2876.0,-8.507,-0.699,-5.389,-8.547,-0.268,-5.269,4.34,-1.26,6.02
,-8.559,-0.565,-5.212,-8.71,-0.407,-5.255,5.04,-1.68,5.88
,-8.607,-0.371,-5.083,-8.772,-0.352,-5.506,4.9,-2.8,6.02
,-8.507,-0.187,-5.162,-8.703,-0.316,-5.446,4.06,-3.08,6.44
2952.0,-9.088,-0.33,-5.032,-8.167,0.093,-5.188,14.21,-0.56,3.15
,-9.189,-0.134,-4.984,-8.38,0.093,-5.219,16.45,-3.78,2.31
,-8.366,0.043,-5.26,-8.66,0.045,-5.188,16.31,-4.83,1.96
,-8.088,0.12,-5.207,-8.631,0.048,-5.358,15.89,-3.85,1.96
3028.0,-8.646,-0.211,-4.838,-8.677,-0.022,-4.872,9.24,-0.49,0.42
,-8.464,-0.237,-5.016,-8.866,0.089,-4.803,9.94,0.84,0.49
,-8.449,-0.263,-4.932,-9.074,0.072,-4.793,11.48,1.4,0.42
,-8.476,-0.189,-4.862,-8.973,-0.179,-4.803,13.37,0.84,0.0
3103.0,-8.638,-0.328,-4.759,-8.634,-0.12,-4.661,8.33,-4.62,0.28
,-8.366,-0.342,-4.774,-8.758,-0.108,-4.645,8.47,-4.41,0.28
,-8.421,-0.297,-4.719,-8.772,-0.433,-4.652,8.96,-4.34,0.07
,-8.437,-0.132,-4.762,-8.681,-0.708,-4.659,8.82,-5.46,-0.28
3179.0,-8.681,-0.943,-4.731,-8.574,-0.505,-4.759,1.19,-7.49,0.7
,-8.708,-1.043,-4.726,-8.686,-0.543,-4.972,3.08,-8.05,1.05
,-8.61,-0.89,-4.824,-8.765,-0.797,-4.585,5.6,-8.19,1.54
,-8.567,-0.653,-4.908,-8.787,-0.603,-4.618,7.0,-8.54,2.1
3255.0,-8.756,-0.34,-4.743,-9.055,-0.558,-4.286,7.07,-9.94,2.66
,-8.768,-0.223,-4.649,-9.045,-0.359,-4.401,5.32,-10.01,2.66
,-8.722,-0.177,-4.594,-8.818,-0.139,-4.642,3.36,-9.94,3.08
,-8.875,-0.421,-4.47,-8.715,-0.022,-4.602,2.17,-9.59,3.15
3331.0,-8.679,0.151,-4.606,-8.947,0.459,-4.453,3.08,-10.78,1.4
,-8.698,0.206,-4.575,-8.665,0.22,-4.441,3.08,-10.78,0.35
,-8.933,0.337,-4.396,-8.478,-0.27,-4.269,2.17,-11.2,-1.12
,-9.095,0.445,-4.317,-8.667,-0.5,-4.245,0.0,-12.11,-2.31
3406.0,-8.878,-0.443,-4.197,-8.993,-0.9,-4.051,-2.52,-10.85,-5.11
,-9.052,-0.404,-4.135,-8.78,-0.902,-4.29,-1.75,-11.13,-5.25
,-9.115,-0.337,-4.058,-8.679,-0.79,-4.197,-3.08,-11.76,-5.04
,-9.146,-0.627,-4.061,-8.825,-0.794,-4.255,-5.46,-11.9,-5.04
3482.0,-8.935,-0.567,-4.487,-8.875,-0.766,-4.085,-4.55,-11.62,-3.08
,-8.947,-0.641,-4.377,-9.014,-0.538,-4.154,-4.48,-11.48,-2.73
,-8.878,-0.785,-4.379,-9.1,-0.488,-4.027,-4.34,-11.55,-2.66
,-8.746,-0.83,-4.252,-8.959,-0.534,-3.939,-2.73,-11.41,-2.38
3557.0,-8.882,-0.692,-3.64,-9.201,-0.378,-4.034,-0.42,-11.48,-1.54
,-8.985,-0.708,-3.711,-8.916,-0.483,-4.025,-0.07,-11.2,-1.54
,-9.129,-0.62,-3.427,-8.868,-0.766,-4.034,1.26,-10.57,-1.4
,-9.318,-0.436,-3.709,-8.861,-0.948,-3.685,0.98,-11.06,-1.61
3633.0,-9.031,-0.706,-3.752,-9.134,-0.67,-3.338,5.11,-10.08,-0.91
,-9.206,-0.299,-3.666,-9.112,-0.581,-3.609,5.53,-10.29,-0.84
,-9.27,-0.278,-3.611,-9.177,-0.459,-3.659,2.8,-10.15,-0.7
,-9.112,-0.541,-3.431,-9.232,-0.163,-4.003,0.63,-9.31,-0.56
3709.0,-9.131,-0.316,-3.888,-9.1,-0.574,-3.003,1.26,-8.89,-1.26
,-9.072,-0.452,-3.664,-9.134,-0.692,-3.128,2.24,-7.98,-1.4
,-9.119,-0.534,-3.558,-9.15,-0.775,-2.948,3.85,-7.63,-1.61
,-9.153,-0.536,-3.307,-9.263,-0.754,-3.238,4.2,-7.21,-1.89
3785.0,-9.292,-0.653,-3.144,-9.189,-0.345,-3.716,2.8,-4.97,-0.98
,-9.277,-0.696,-3.362,-9.083,-0.347,-3.537,2.45,-4.41,-0.84
,-9.112,-0.593,-3.245,-9.143,-0.558,-3.326,3.43,-3.71,-0.35
,-9.15,-0.45,-3.542,-9.186,-0.687,-3.101,2.94,-4.06,-0.49
3860.0,-9.27,-0.55,-3.072,-9.043,-0.806,-3.424,6.02,-2.03,-0.49
,-9.323,-0.316,-3.142,-9.103,-0.866,-3.573,5.95,-1.82,-0.56
,-9.342,-0.182,-3.496,-9.182,-0.749,-3.609,3.5,-2.38,-0.91
,-9.088,-0.44,-3.46,-9.296,-0.51,-3.656,0.0,-2.45,-0.91
3936.0,-9.294,-0.464,-3.75,-9.253,-0.723,-3.539,6.3,-1.82,-0.35
,-9.28,-0.579,-3.812,-9.277,-0.651,-3.687,5.81,-2.31,-0.42
,-9.239,-0.589,-3.79,-9.16,-0.732,-3.618,5.74,-2.59,-0.63
,-9.172,-0.622,-3.692,-9.196,-0.732,-3.606,6.51,-2.52,-0.63
4012.0,-9.227,-0.809,-3.525,-9.045,-0.364,-3.872,4.76,-3.29,-0.21
,-9.373,-0.723,-3.652,-9.069,-0.524,-3.731,5.74,-3.57,-0.14
,-9.323,-0.488,-3.8,-9.217,-0.644,-3.436,6.02,-4.13,-0.21
,-9.277,-0.325,-4.073,-9.294,-0.641,-3.293,4.97,-4.9,-0.42
4088.0,-9.363,-0.744,-3.02,-9.308,-0.526,-2.924,3.43,-4.34,-0.21
,-9.428,-0.768,-2.962,-9.306,-0.562,-2.764,3.29,-4.34,-0.14
,-9.296,-0.651,-2.924,-9.32,-0.608,-2.647,2.87,-4.2,-0.35
,-9.349,-0.512,-2.948,-9.363,-0.68,-2.584,2.31,-3.85,-0.49
4164.0,-9.462,-0.696,-2.781,-9.143,-1.031,-3.027,1.26,0.07,-0.21
,-9.359,-0.713,-3.003,-9.392,-0.847,-2.927,1.33,0.28,0.0
,-9.227,-0.775,-3.072,-9.588,-0.483,-3.125,2.1,0.77,0.35
,-9.139,-0.909,-3.147,-9.581,-0.304,-3.388,3.71,1.54,0.63
4239.0,-9.373,-0.304,-3.422,-9.201,-0.732,-3.695,4.41,2.66,0.77
,-9.21,-0.526,-3.673,-9.34,-0.706,-3.446,2.31,2.31,0.42
,-9.11,-0.651,-3.747,-9.481,-0.596,-3.494,2.94,2.24,0.49
,-9.153,-0.718,-3.826,-9.447,-0.483,-3.561,4.2,2.1,0.56
4315.0,-9.251,-0.531,-3.472,-9.433,-0.684,-3.486,4.76,0.84,0.7
,-9.191,-0.665,-3.396,-9.33,-0.646,-3.498,3.57,0.77,0.7
,-9.251,-0.811,-3.362,-9.246,-0.701,-3.479,3.92,1.12,0.63
,-9.318,-0.845,-3.336,-9.177,-0.792,-3.455,4.76,1.19,0.84
4390.0,-9.17,-0.751,-3.386,-9.268,-0.608,-3.252,4.41,0.56,1.12
,-9.299,-0.581,-3.441,-9.301,-0.646,-3.163,4.9,0.42,0.98
,-9.356,-0.488,-3.396,-9.313,-0.651,-3.19,3.85,0.14,0.7
,-9.318,-0.529,-3.372,-9.349,-0.682,-3.223,2.31,0.07,0.42
4466.0,-9.368,-0.637,-3.19,-9.306,-0.572,-3.362,2.87,0.91,0.63
,-9.363,-0.639,-3.163,-9.325,-0.605,-3.434,2.8,0.98,0.56
,-9.366,-0.629,-3.214,-9.311,-0.708,-3.494,2.73,1.19,0.49
,-9.273,-0.622,-3.266,-9.246,-0.826,-3.47,2.45,1.26,0.42
4542.0,-9.206,-0.852,-3.453,-9.39,-0.491,-3.192,2.87,1.33,0.7
,-9.251,-0.771,-3.451,-9.397,-0.577,-3.108,4.48,1.54,0.91
,-9.246,-0.663,-3.218,-9.378,-0.656,-3.19,5.04,1.82,0.98
,-9.325,-0.546,-3.228,-9.277,-0.761,-3.216,4.9,1.54,0.84
4618.0,-9.196,-0.833,-3.278,-9.299,-0.644,-3.477,1.05,1.96,0.35
,-9.292,-0.768,-3.343,-9.282,-0.625,-3.47,2.17,1.82,0.49
,-9.316,-0.727,-3.333,-9.258,-0.653,-3.503,2.94,2.24,0.7
,-9.313,-0.747,-3.374,-9.273,-0.646,-3.577,3.36,2.45,0.84
4693.0,-9.225,-0.646,-3.57,-9.325,-0.818,-3.482,2.17,1.47,0.7
,-9.308,-0.66,-3.479,-9.373,-0.727,-3.582,2.31,1.33,0.77
,-9.38,-0.677,-3.522,-9.347,-0.625,-3.632,2.03,1.26,0.7
,-9.342,-0.849,-3.41,-9.237,-0.62,-3.553,1.82,1.05,0.91
4769.0,-9.234,-0.744,-3.405,-9.351,-0.629,-2.694,2.1,0.35,1.26
,-9.225,-0.73,-3.206,-9.402,-0.704,-2.632,2.87,0.42,1.33
,-9.34,-0.651,-3.022,-9.325,-0.794,-2.455,3.64,0.7,1.4
,-9.356,-0.57,-2.958,-9.344,-0.517,-2.659,3.15,0.91,1.26
4845.0,-9.301,-0.392,-2.623,-9.282,-0.696,-2.477,2.03,4.69,1.26
,-9.292,-0.323,-2.754,-9.39,-0.639,-2.864,0.07,5.46,1.19
,-9.258,-0.51,-2.659,-9.237,-0.802,-2.783,-1.68,6.37,1.19
,-9.253,-0.634,-2.572,-9.217,-0.847,-2.874,-1.82,7.56,1.4
4921.0,-9.227,-0.897,-2.783,-9.177,0.05,-4.058,-1.68,11.83,2.38
,-9.263,-0.806,-2.802,-9.131,-0.311,-4.386,0.07,12.88,2.66
,-9.5,-0.196,-3.482,-8.964,-0.838,-4.168,1.4,12.11,1.89
,-9.356,0.189,-4.097,-9.1,-1.237,-3.793,-2.66,10.22,0.84
4996.0,-9.225,-1.213,-3.472,-9.229,-0.38,-3.422,-5.88,9.17,1.61
,-9.213,-1.027,-3.343,-9.392,-0.505,-3.668,-3.85,8.82,1.68
,-9.263,-0.842,-2.745,-9.036,-0.294,-4.006,-3.01,9.03,2.17
,-9.521,-0.541,-3.396,-8.964,-0.39,-3.74,-4.69,7.28,2.1
5072.0,-9.091,-0.586,-3.91,-8.942,-0.079,-3.795,-9.31,3.78,1.26
,-9.06,-0.392,-4.228,-9.232,-0.428,-3.463,-6.51,1.82,0.7
,-8.887,-0.01,-4.271,-9.148,-0.653,-3.01,-4.34,0.98,0.28
,-8.966,0.158,-4.369,-9.368,-0.744,-2.343,-5.18,0.56,-0.49
5147.0,-9.301,-0.739,-2.735,-8.949,-0.861,-3.247,1.05,9.03,-0.91
,-9.06,-0.794,-2.532,-9.06,-0.873,-3.376,2.31,9.59,-0.21
,-9.282,-0.96,-2.757,-9.119,-0.579,-3.448,3.57,9.66,1.19
,-8.938,-0.957,-3.13,-9.234,-0.057,-3.352,2.52,9.03,1.68
5223.0,-9.043,0.335,-3.376,-9.021,-0.302,-3.209,5.74,15.82,-0.07
,-8.921,0.428,-3.199,-9.045,-0.179,-3.685,2.17,17.36,-1.05
,-9.072,0.206,-3.357,-9.229,-0.144,-3.759,-2.03,18.48,-1.54
,-8.839,-0.151,-3.087,-9.354,-0.261,-4.125,-3.57,19.53,-1.54
5299.0,-9.112,-0.526,-4.066,-8.942,-1.859,-3.628,5.88,19.88,-2.52
,-8.737,-0.888,-4.281,-8.847,-1.646,-3.726,6.44,20.16,-2.24
,-8.638,-1.505,-4.034,-8.911,-1.333,-3.896,6.93,20.93,-1.82
,-8.894,-1.814,-3.719,-8.978,-0.823,-4.346,8.75,21.07,-0.77
5375.0,-8.792,-0.512,-4.681,-8.789,-0.419,-4.666,8.26,18.83,3.92
,-8.619,-0.438,-4.63,-9.043,-0.488,-4.468,5.32,19.53,4.83
,-8.43,-0.44,-4.757,-9.083,-0.481,-4.295,3.36,20.3,5.18
,-8.457,-0.371,-4.683,-8.966,-0.632,-4.448,3.85,21.28,5.11
5451.0,-9.0,-0.651,-4.625,-8.708,-0.022,-4.764,6.51,20.51,5.53
,-8.971,-0.68,-4.862,-8.672,-0.122,-4.882,5.88,18.41,5.81
,-8.832,-0.567,-4.783,-8.571,-0.127,-4.884,6.23,16.52,6.23
,-8.882,-0.196,-4.836,-8.717,-0.11,-4.992,6.37,14.91,6.02
5526.0,-8.957,-0.153,-4.87,-8.349,0.955,-5.463,-7.98,12.25,3.71
,-8.954,-0.002,-5.02,-8.583,0.802,-5.305,-7.49,10.92,2.94
,-8.624,0.194,-5.071,-8.93,0.335,-4.96,-6.65,10.64,2.1
,-8.533,0.546,-5.205,-9.251,-0.215,-4.853,-5.88,8.96,1.47
5602.0,-9.019,-0.756,-4.838,-8.423,-2.087,-5.126,-10.99,8.96,-2.38
,-8.643,-1.156,-4.807,-8.586,-1.855,-5.013,-10.43,8.12,-0.35
,-8.296,-1.783,-4.996,-8.772,-1.496,-4.937,-10.01,7.77,2.17
,-8.344,-2.07,-4.982,-8.67,-0.905,-4.941,-6.93,8.19,4.2
5678.0,-8.55,-0.483,-5.006,-8.545,0.285,-5.066,1.61,6.72,8.26
,-8.433,-0.091,-5.339,-8.784,0.16,-5.114,-0.84,6.86,8.47
,-8.394,0.098,-5.288,-8.586,0.043,-5.056,-2.94,7.14,7.28
,-8.421,0.208,-5.188,-8.76,0.345,-5.403,-3.01,8.19,5.95
5754.0,-8.981,0.256,-5.611,-8.626,-0.146,-5.334,2.17,5.46,2.24
,-9.088,-0.141,-5.408,-8.485,-0.39,-5.073,3.71,5.11,0.42
,-8.993,-0.124,-5.324,-8.373,-0.526,-5.243,6.44,4.9,-1.33
,-8.997,-0.024,-5.504,-8.241,-0.62,-5.291,7.98,3.92,-2.45
5829.0,-8.536,-0.632,-5.398,-8.119,-1.096,-4.953,-2.17,-0.14,2.38
,-8.564,-0.83,-5.272,-7.949,-1.687,-4.817,-2.66,-0.35,2.73
,-8.466,-0.644,-5.408,-8.378,-2.187,-4.728,-2.17,-0.91,2.8
,-8.545,-0.605,-5.329,-8.894,-2.024,-4.413,-2.31,-1.12,4.06
5905.0,-9.143,-1.034,-4.415,-8.787,1.352,-4.934,9.94,2.38,13.09
,-8.849,-0.084,-4.594,-8.976,1.283,-4.738,12.67,2.73,13.3
,-8.571,0.436,-4.489,-9.009,1.156,-4.728,11.83,3.78,12.74
,-8.5,0.943,-3.996,-8.717,1.103,-4.977,10.22,4.2,11.55
5980.0,-8.509,0.78,-5.078,-8.66,0.079,-5.322,0.98,7.35,3.85
,-8.504,0.749,-5.307,-8.459,-0.498,-5.312,2.94,8.33,2.38
,-8.871,0.766,-5.389,-8.485,-0.761,-5.269,3.78,8.75,0.91
,-9.005,0.56,-5.315,-8.459,-0.909,-5.427,3.36,8.47,-0.14
6056.0,-8.452,-1.07,-5.552,-8.44,-0.211,-5.58,-0.21,8.75,0.77
,-8.466,-1.003,-5.587,-8.538,0.431,-5.827,0.56,8.54,1.33
,-8.531,-0.785,-5.489,-8.78,0.634,-5.848,0.98,8.19,1.89
,-8.509,-0.701,-5.439,-9.103,0.682,-5.599,1.4,7.63,2.38
6132.0,-9.263,0.407,-5.31,-8.514,-0.254,-5.485,0.35,5.25,-1.96
,-9.033,0.211,-5.209,-8.679,-0.615,-5.559,-0.35,4.48,-2.8
,-8.595,0.316,-5.317,-8.748,-0.864,-5.487,0.07,3.57,-2.87
,-8.325,0.062,-5.487,-8.559,-0.924,-5.458,-0.28,3.01,-2.8
6208.0,-8.119,-0.916,-5.511,-8.638,-0.517,-5.473,0.63,-1.33,1.96
,-8.078,-0.727,-5.561,-8.574,-0.292,-5.432,0.28,-1.47,3.22
,-8.234,-0.622,-5.547,-8.433,-0.041,-5.537,-0.42,-1.82,4.27
,-8.478,-0.584,-5.489,-8.423,-0.017,-5.501,-0.49,-1.89,5.18
6284.0,-8.476,-0.038,-5.497,-8.638,0.565,-5.564,2.31,-2.87,4.69
,-8.72,0.136,-5.339,-8.705,0.493,-5.552,4.48,-3.5,4.41
,-8.581,0.316,-5.439,-8.698,0.246,-5.418,6.79,-4.06,3.92
,-8.533,0.471,-5.489,-8.629,0.098,-5.288,8.26,-4.48,3.08
6359.0,-8.521,0.079,-5.298,-8.5,-0.187,-5.334,11.97,-4.41,-2.1
,-8.358,-0.057,-5.331,-8.514,-0.345,-5.087,12.81,-4.48,-2.03
,-8.337,-0.141,-5.398,-8.607,-0.306,-5.047,13.44,-4.83,-1.96
,-8.638,-0.292,-5.171,-8.591,-0.333,-5.023,14.98,-5.11,-2.38
6435.0,-8.531,-0.402,-5.078,-8.545,-0.328,-5.238,12.74,-5.53,-0.42
,-8.502,-0.402,-5.264,-8.667,-0.112,-5.111,10.64,-6.93,0.98
,-8.469,-0.488,-5.236,-8.631,-0.024,-5.087,9.1,-7.49,1.96
,-8.591,-0.471,-5.188,-8.622,0.067,-4.996,9.03,-8.61,2.03
6511.0,-8.753,0.012,-4.97,-8.521,-0.017,-4.759,8.82,-10.01,1.68
,-8.811,0.014,-5.138,-8.622,-0.134,-4.712,8.61,-9.8,1.19
,-8.698,0.201,-4.97,-8.777,-0.134,-4.877,8.96,-9.66,0.84
,-8.492,0.132,-4.963,-8.674,-0.232,-4.568,8.33,-9.38,0.98
6587.0,-8.818,-0.581,-4.477,-8.739,-0.053,-4.436,8.96,-10.78,1.4
,-8.753,-0.369,-4.64,-8.591,-0.086,-4.458,11.62,-11.2,1.4
,-8.729,-0.294,-4.489,-8.66,-0.153,-4.403,11.76,-11.55,1.26
,-8.703,-0.196,-4.391,-8.873,-0.158,-4.369,11.69,-11.62,1.05
6662.0,-8.928,-0.17,-4.401,-9.055,-0.175,-4.121,8.05,-12.25,0.56
,-8.811,-0.156,-4.243,-9.122,-0.129,-4.197,7.91,-12.11,0.0
,-8.88,-0.124,-4.178,-9.024,-0.117,-4.133,7.56,-11.9,-0.49
,-8.899,-0.213,-4.044,-8.82,-0.11,-4.195,6.65,-12.11,-1.05
6738.0,-8.739,0.002,-4.346,-8.914,-0.292,-4.149,1.19,-13.65,-2.1
,-8.842,0.031,-4.274,-8.88,-0.392,-4.164,1.05,-13.44,-2.52
,-8.933,0.048,-4.281,-8.949,-0.383,-4.372,0.49,-13.3,-3.08
,-8.804,-0.122,-4.286,-8.887,-0.436,-4.2,-0.91,-13.3,-3.57
6813.0,-8.988,-0.488,-4.063,-8.892,-0.627,-3.91,-0.42,-13.23,-3.85
,-9.057,-0.514,-4.202,-8.964,-0.596,-3.826,-0.35,-13.44,-3.85
,-8.894,-0.574,-4.161,-8.99,-0.493,-3.771,-1.12,-13.65,-4.06
,-8.832,-0.634,-3.965,-9.055,-0.438,-3.731,-0.98,-13.09,-3.43
6889.0,-8.983,-0.519,-3.721,-9.162,-0.462,-3.419,0.49,-12.39,-3.01
,-8.942,-0.586,-3.518,-9.048,-0.33,-3.527,0.98,-11.41,-2.66
,-9.007,-0.555,-3.417,-9.021,-0.51,-3.539,2.1,-10.57,-2.1
,-9.105,-0.56,-3.128,-9.031,-0.747,-3.518,3.43,-9.52,-1.68
6965.0,-9.05,-0.897,-3.056,-8.985,0.182,-3.948,1.61,-7.0,-0.49
,-9.177,-0.718,-3.003,-9.038,-0.199,-3.886,5.39,-5.95,-0.56
,-9.32,-0.206,-3.427,-9.148,-0.558,-3.63,6.37,-6.51,-1.12
,-9.148,0.199,-3.814,-9.256,-0.51,-3.664,2.03,-7.42,-1.47
7041.0,-9.165,-0.33,-3.458,-9.174,-0.826,-3.647,1.19,-5.11,-3.01
,-9.115,-0.469,-3.585,-9.167,-0.706,-3.577,-1.19,-5.39,-2.8
,-9.005,-0.663,-3.532,-9.129,-0.596,-3.331,-2.94,-5.88,-2.66
,-9.162,-0.797,-3.685,-9.201,-0.433,-3.419,-2.17,-5.95,-2.45
7116.0,-9.232,-0.325,-3.329,-9.148,-0.385,-3.826,0.42,-3.78,-1.89
,-9.33,-0.206,-3.489,-9.131,-0.474,-3.989,-1.05,-4.2,-2.1
,-9.323,-0.124,-3.874,-9.105,-0.471,-3.841,-2.94,-4.48,-2.45
,-9.206,-0.261,-3.812,-9.095,-0.464,-3.556,-3.57,-4.48,-2.52
7192.0,-9.215,-0.471,-3.482,-9.313,-0.625,-3.532,1.68,-4.41,-2.52
,-9.234,-0.538,-3.264,-9.258,-0.668,-3.877,0.77,-3.99,-2.45
,-9.268,-0.584,-3.128,-9.098,-0.677,-3.984,-0.42,-3.71,-2.38
,-9.337,-0.577,-3.285,-9.088,-0.699,-4.039,-1.68,-3.64,-2.24
7267.0,-9.04,-0.689,-3.927,-9.241,-0.859,-3.072,3.15,-4.55,-1.19
,-9.081,-0.639,-3.676,-9.318,-0.713,-3.142,5.53,-4.13,-0.63
,-9.201,-0.646,-3.386,-9.351,-0.57,-3.321,7.07,-3.92,-0.28
,-9.296,-0.751,-3.257,-9.196,-0.385,-3.46,7.07,-3.78,0.0
7343.0,-9.095,-0.349,-3.242,-9.454,-0.266,-2.723,8.4,-2.31,0.91
,-9.203,-0.376,-3.123,-9.426,-0.148,-2.927,8.96,-1.47,1.05
,-9.292,-0.488,-2.881,-9.313,-0.112,-3.355,9.1,-0.56,0.7
,-9.361,-0.428,-2.639,-9.249,-0.249,-3.821,9.59,0.28,0.49
7419.0,-9.05,-0.524,-3.927,-9.438,-0.562,-3.226,-0.21,-0.21,-1.4
,-9.074,-0.725,-3.855,-9.407,-0.44,-3.144,1.96,0.0,-1.12
,-9.088,-0.823,-3.599,-9.299,-0.462,-3.123,4.34,0.28,-1.12
,-9.304,-0.833,-3.312,-9.222,-0.658,-3.171,6.72,0.56,-0.84
7495.0,-9.165,-0.754,-3.132,-9.347,-0.486,-3.333,2.03,1.33,-1.19
,-9.251,-0.794,-3.13,-9.289,-0.409,-3.446,3.22,1.89,-0.91
,-9.308,-0.699,-3.185,-9.227,-0.378,-3.542,4.62,2.45,-0.63
,-9.328,-0.543,-3.238,-9.215,-0.421,-3.573,5.25,2.66,-0.56
7571.0,-9.258,-0.555,-3.532,-9.263,-0.668,-3.666,4.55,2.94,-0.63
,-9.306,-0.663,-3.587,-9.158,-0.876,-3.551,4.55,2.94,-0.63
,-9.335,-0.579,-3.699,-9.253,-0.873,-3.539,4.55,2.38,-0.7
,-9.27,-0.567,-3.644,-9.289,-0.79,-3.491,3.57,2.17,-0.84
7646.0,-9.323,-0.72,-3.465,-9.284,-0.66,-3.498,3.01,1.89,-0.28
,-9.289,-0.687,-3.479,-9.253,-0.579,-3.534,2.45,1.54,-0.28
,-9.273,-0.632,-3.52,-9.27,-0.656,-3.534,1.89,1.61,-0.14
,-9.241,-0.665,-3.451,-9.198,-0.704,-3.609,2.03,1.89,0.0
7722.0,-9.206,-0.751,-3.553,-9.387,-0.57,-3.381,1.82,1.4,0.42
,-9.229,-0.739,-3.484,-9.366,-0.548,-3.544,2.38,1.68,0.56
,-9.253,-0.782,-3.369,-9.337,-0.519,-3.728,2.59,1.82,0.56
,-9.282,-0.718,-3.331,-9.182,-0.622,-3.877,2.94,1.96,0.7
7798.0,-9.162,-0.747,-3.917,-9.206,-0.627,-3.63,1.89,0.49,0.56
,-9.179,-0.794,-3.965,-9.215,-0.644,-3.546,3.71,0.56,0.84
,-9.189,-0.818,-3.896,-9.22,-0.615,-3.379,5.25,0.07,1.05
,-9.213,-0.629,-3.826,-9.289,-0.723,-3.18,6.51,-0.21,1.19
7874.0,-9.256,-0.835,-3.084,-9.282,-0.4,-3.369,4.83,-0.07,1.47
,-9.289,-0.84,-2.989,-9.194,-0.591,-3.431,5.53,0.35,1.47
,-9.385,-0.646,-3.147,-9.15,-0.718,-3.396,5.88,0.42,1.4
,-9.409,-0.445,-3.281,-9.292,-0.754,-3.388,4.83,0.35,1.12
7949.0,-9.354,-0.55,-3.381,-9.129,-0.584,-3.611,4.48,1.05,0.77
,-9.371,-0.376,-3.441,-9.143,-0.802,-3.534,3.78,0.84,0.7
,-9.292,-0.342,-3.565,-9.268,-0.881,-3.443,2.03,0.77,0.42
,-9.282,-0.431,-3.587,-9.342,-0.773,-3.317,0.49,0.56,0.07
8025.0,-9.356,-0.61,-3.269,-9.22,-0.658,-3.4,3.22,1.05,0.35
,-9.323,-0.483,-3.293,-9.196,-0.732,-3.336,2.31,0.98,0.21
,-9.313,-0.493,-3.364,-9.261,-0.656,-3.309,1.4,1.19,0.21
,-9.246,-0.605,-3.41,-9.268,-0.605,-3.35,0.77,1.4,0.14
8100.0,-9.33,-0.646,-3.288,-9.275,-0.56,-3.381,2.59,1.96,0.42
,-9.328,-0.608,-3.293,-9.208,-0.637,-3.443,2.59,2.31,0.49
,-9.354,-0.534,-3.393,-9.292,-0.646,-3.558,2.31,2.38,0.35
,-9.359,-0.514,-3.405,-9.28,-0.634,-3.635,1.54,2.38,0.0
8176.0,-9.241,-0.684,-3.606,-9.28,-0.644,-3.687,2.45,1.96,0.14
,-9.251,-0.694,-3.587,-9.217,-0.651,-3.719,3.43,2.03,0.21
,-9.282,-0.761,-3.618,-9.191,-0.663,-3.702,4.34,1.82,0.21
,-9.313,-0.689,-3.62,-9.201,-0.684,-3.654,4.76,1.47,0.21
8252.0,-9.253,-0.644,-3.52,-9.428,-0.457,-3.269,4.27,0.56,0.42
,-9.301,-0.598,-3.372,-9.296,-0.493,-3.269,4.76,0.56,0.56
,-9.395,-0.562,-3.326,-9.337,-0.581,-3.367,4.41,0.84,0.56
,-9.351,-0.491,-3.195,-9.258,-0.536,-3.47,3.78,1.12,0.56
8328.0,-9.215,-0.579,-3.63,-9.22,-0.871,-3.477,-2.38,1.68,0.49
,-9.155,-0.773,-3.625,-9.237,-0.727,-3.293,-2.73,1.61,0.49
,-9.107,-0.907,-3.589,-9.222,-0.617,-2.934,-2.1,1.61,0.77
,-9.194,-0.993,-3.422,-9.337,-0.581,-2.96,0.07,1.82,1.19
8403.0,-9.282,-0.639,-2.761,-9.048,-0.536,-3.611,3.29,3.85,1.75
,-9.462,-0.627,-2.95,-9.131,-0.814,-3.372,3.36,3.92,1.75
,-9.45,-0.459,-3.628,-9.304,-1.003,-2.864,1.19,2.87,0.98
,-9.136,-0.476,-3.721,-9.505,-0.66,-3.027,-0.77,2.38,0.7
8479.0,-9.423,-0.213,-3.032,-9.299,-0.936,-3.865,5.6,5.25,0.84
,-9.385,-0.048,-3.264,-9.172,-1.022,-4.338,1.12,4.9,0.49
,-9.284,-0.249,-3.367,-9.012,-1.28,-4.393,-4.83,4.27,-0.07
,-9.308,-0.723,-3.376,-8.938,-1.371,-4.25,-7.84,4.06,-0.28
8555.0,-9.083,-1.321,-3.948,-9.22,0.323,-3.185,-1.4,0.91,1.89
,-9.229,-1.208,-3.841,-9.21,0.323,-3.302,2.8,0.35,2.03
,-9.21,-0.883,-3.257,-9.383,0.096,-3.491,6.79,0.42,2.66
,-9.328,-0.208,-3.015,-9.299,-0.416,-3.34,10.36,0.42,3.08
8631.0,-9.273,-0.759,-3.161,-9.277,-0.613,-1.943,-2.73,-0.21,0.0
,-9.155,-0.991,-2.596,-9.497,-0.168,-2.154,0.42,1.26,-0.56
,-8.985,-0.993,-2.254,-9.586,0.445,-2.57,3.92,3.22,-0.21
,-9.105,-0.976,-2.149,-9.462,0.603,-3.278,6.09,5.32,0.42
8707.0,-9.131,0.206,-3.482,-8.854,-1.015,-3.029,-3.78,4.55,-2.1
,-9.141,-0.273,-3.874,-9.074,-0.931,-2.376,-7.63,5.46,-2.52
,-8.973,-0.675,-4.125,-9.349,-0.543,-2.194,-8.75,6.72,-3.29
,-8.734,-0.962,-3.503,-9.593,-0.404,-2.587,-5.25,9.31,-3.36
8782.0,-9.749,-0.629,-3.02,-8.777,-2.479,-3.532,-2.73,7.91,-2.31
,-9.531,-0.888,-3.515,-8.777,-1.816,-3.766,-9.17,6.58,-1.61
,-9.014,-1.491,-3.853,-8.748,-0.699,-4.101,-11.9,8.47,-0.7
,-8.612,-2.194,-3.704,-8.674,0.321,-4.338,-8.33,12.81,0.7
8858.0,-8.949,0.768,-3.824,-9.474,-0.369,-3.908,13.79,16.66,1.26
,-9.445,1.043,-3.905,-9.088,-1.149,-3.843,9.8,16.03,-0.49
,-9.483,1.086,-3.958,-8.897,-1.981,-3.719,4.06,14.21,-2.31
,-9.73,0.455,-3.836,-8.521,-2.213,-3.649,-1.61,13.16,-2.73
8933.0,-8.792,-1.857,-3.553,-8.571,0.223,-4.295,10.92,17.29,0.84
,-9.043,-1.065,-3.826,-8.815,-0.345,-3.982,17.57,17.36,0.49
,-9.292,-0.383,-3.855,-9.048,-0.95,-3.912,18.62,15.82,0.42
,-9.124,0.194,-4.133,-9.323,-1.029,-4.128,13.44,13.09,1.26
9009.0,-9.189,-1.101,-4.403,-9.055,-1.45,-4.29,-3.92,14.35,1.61
,-8.935,-1.106,-4.602,-9.139,-1.11,-4.247,-2.59,14.35,2.59
,-8.634,-1.211,-4.508,-8.894,-0.45,-4.614,-1.05,15.33,3.29
,-8.66,-1.366,-4.262,-8.6,-0.151,-4.424,1.68,16.03,3.36
9085.0,-8.804,0.086,-4.295,-8.976,-0.44,-4.882,3.01,11.41,4.41
,-8.969,0.01,-4.527,-8.772,-0.644,-4.781,-1.47,11.13,3.85
,-9.184,-0.122,-4.621,-9.069,-0.909,-4.262,-5.18,10.85,3.71
,-9.153,-0.227,-4.877,-8.734,-0.845,-4.635,-6.79,10.57,3.5
9161.0,-8.459,-0.665,-4.917,-9.115,0.38,-4.594,-3.43,5.88,4.27
,-8.832,-0.366,-4.748,-9.143,0.735,-4.604,-0.84,6.09,3.99
,-9.119,-0.134,-4.738,-9.083,0.9,-4.903,1.68,5.88,2.8
,-9.112,0.139,-4.661,-8.445,0.603,-5.185,2.73,6.02,1.12
9236.0,-8.16,-0.404,-4.97,-9.213,-2.869,-4.231,-12.46,3.92,-2.17
,-8.528,-1.457,-4.738,-9.048,-2.381,-4.391,-13.93,4.97,-1.05
,-8.969,-2.335,-4.578,-8.765,-1.57,-4.525,-11.2,5.18,0.21
,-9.16,-2.816,-4.511,-8.655,-0.797,-4.556,-5.32,4.83,1.26
9312.0,-8.65,-0.115,-4.824,-8.748,-0.199,-4.329,10.01,1.68,4.34
,-8.734,0.124,-4.836,-9.009,-0.146,-4.444,5.53,1.96,4.2
,-8.624,0.081,-4.819,-9.256,0.062,-4.346,1.26,1.89,4.83
,-8.533,0.022,-4.673,-9.39,0.148,-4.42,-2.59,2.87,4.9
9388.0,-8.533,0.084,-4.654,-9.122,-0.067,-4.288,-2.17,0.84,1.47
,-8.244,-0.019,-4.413,-9.158,-0.251,-4.561,-2.45,2.59,1.89
,-8.402,-0.223,-4.226,-9.103,-0.347,-4.491,-1.61,3.57,2.52
,-8.928,-0.342,-4.183,-8.641,-0.866,-4.477,0.56,3.29,2.94
9464.0,-8.497,-1.299,-4.405,-9.103,-0.814,-4.728,0.0,3.22,1.75
,-8.717,-1.285,-4.269,-8.437,-1.029,-4.762,2.73,3.99,1.96
,-9.373,-1.163,-4.257,-8.406,-1.359,-4.685,5.74,3.01,1.82
,-9.428,-0.809,-4.427,-8.607,-1.232,-4.685,7.77,1.19,1.89
9540.0,-8.715,-0.759,-4.724,-9.005,-0.005,-4.707,12.32,3.78,5.74
,-8.827,-0.074,-4.743,-8.739,-0.081,-4.554,14.0,3.99,6.23
,-8.945,0.404,-4.884,-8.815,-0.153,-4.204,13.02,3.71,6.37
,-8.873,0.299,-4.939,-9.043,-0.067,-4.439,9.66,3.71,5.95
9615.0,-9.021,-0.333,-4.341,-8.902,0.163,-4.996,3.43,6.37,3.78
,-8.995,-0.392,-4.389,-8.935,-0.246,-4.85,3.36,6.79,3.85
,-8.768,-0.263,-4.575,-8.851,-0.675,-4.604,4.2,7.07,3.29
,-8.701,0.06,-4.865,-8.612,-0.905,-4.781,5.74,7.56,2.24
9691.0,-8.476,-1.132,-4.824,-9.11,-0.364,-4.917,-0.07,9.59,3.01
,-8.672,-1.168,-4.635,-9.1,-0.256,-4.853,0.91,10.5,3.78
,-8.82,-0.84,-4.654,-8.737,-0.278,-5.03,2.1,10.43,3.92
,-8.928,-0.548,-4.903,-8.607,-0.227,-5.061,2.73,10.29,3.71
9766.0,-8.966,0.079,-5.123,-8.758,0.057,-4.874,0.28,9.1,1.4
,-9.375,0.06,-4.996,-8.648,-0.182,-4.96,-0.07,8.47,0.14
,-9.363,-0.05,-4.704,-8.397,-0.306,-5.056,-0.28,7.56,-0.98
,-9.038,0.043,-4.922,-8.346,-0.304,-4.975,0.0,6.79,-1.12
9842.0,-8.5,-0.101,-5.255,-8.78,-1.414,-5.173,2.52,5.18,-1.75
,-8.729,-0.196,-5.331,-8.617,-1.575,-5.118,0.7,4.9,-1.19
,-8.926,-0.627,-5.123,-8.387,-1.472,-5.152,-1.89,4.27,-0.35
,-8.873,-1.034,-5.195,-8.346,-1.036,-5.252,-3.01,3.64,0.49
9918.0,-8.533,-0.593,-5.317,-8.739,-0.424,-5.09,4.55,1.82,5.46
,-8.878,-0.457,-5.016,-8.777,-0.354,-5.059,3.71,1.12,5.81
,-8.94,-0.455,-5.016,-8.871,-0.16,-5.195,2.38,0.21,5.74
,-8.815,-0.447,-5.018,-8.813,-0.098,-5.13,1.61,-0.28,5.53
9994.0,-8.842,-0.036,-4.953,-8.698,-0.156,-5.023,6.86,-2.31,2.45
,-8.648,-0.043,-4.913,-9.009,0.079,-5.059,6.58,-3.15,2.17
,-8.334,-0.077,-5.056,-9.143,0.11,-4.855,6.37,-3.64,2.24
,-8.325,-0.199,-5.099,-9.232,0.249,-4.635,7.28,-3.15,2.17
10069.0,-8.847,0.282,-4.769,-8.574,-0.579,-5.018,10.29,-5.25,-3.22
,-8.497,0.16,-4.74,-8.677,-0.625,-5.044,7.28,-5.53,-3.22
,-8.509,-0.067,-5.018,-8.83,-0.725,-4.853,4.62,-6.3,-3.08
,-8.638,-0.244,-5.176,-8.914,-0.682,-4.817,1.05,-6.79,-2.94
10145.0,-8.921,-0.79,-4.714,-8.488,-0.498,-4.793,4.69,-3.92,-3.57
,-8.892,-0.737,-4.697,-8.492,-0.38,-4.865,6.65,-3.36,-2.38
,-8.756,-0.761,-4.575,-8.399,-0.483,-4.939,8.61,-3.92,-1.82
,-8.614,-0.562,-4.743,-8.796,-0.608,-4.64,10.29,-5.18,-1.68
10221.0,-8.954,-0.519,-4.563,-8.789,-0.78,-4.396,6.72,-9.66,1.26
,-8.751,-0.383,-4.637,-8.882,-1.113,-4.46,5.6,-10.71,1.61
,-8.521,-0.371,-4.582,-9.043,-0.706,-4.192,3.78,-10.08,2.38
,-8.586,-0.625,-4.475,-8.942,-0.522,-4.367,2.66,-8.96,2.94
10297.0,-8.875,-0.493,-4.453,-8.591,-0.158,-4.362,11.76,-6.16,2.52
,-9.213,-0.553,-4.171,-8.753,-0.352,-4.195,11.2,-7.35,2.8
,-8.938,-0.225,-4.398,-8.873,-0.297,-4.202,10.99,-10.29,3.57
,-8.581,-0.077,-4.42,-8.88,-0.282,-4.264,9.59,-10.92,3.29
10372.0,-8.997,-0.168,-4.35,-9.131,-0.024,-4.19,10.01,-5.74,1.4
,-9.141,-0.065,-4.391,-8.988,0.022,-4.31,10.71,-4.34,0.84
,-9.012,0.019,-4.496,-8.567,0.029,-4.463,10.78,-3.57,0.07
,-9.057,0.129,-4.389,-8.662,-0.153,-4.372,11.13,-2.24,-0.77
10448.0,-8.995,-0.414,-4.276,-8.681,-0.459,-4.503,-0.21,-10.01,-1.89
,-9.141,-0.562,-4.121,-8.641,-0.637,-4.568,-0.56,-9.52,-2.59
,-9.06,-0.531,-4.176,-8.806,-0.859,-4.336,0.28,-9.24,-2.94
,-8.835,-0.428,-4.264,-9.031,-1.06,-4.089,0.35,-9.1,-2.87
10523.0,-9.158,-0.952,-4.037,-9.024,-0.787,-3.91,9.8,-5.18,-0.49
,-9.16,-0.651,-4.133,-9.009,-0.902,-3.788,10.85,-6.44,-0.28
,-8.949,-0.476,-4.207,-8.918,-1.005,-3.817,9.24,-7.77,0.49
,-9.115,-0.534,-4.2,-8.892,-0.9,-3.908,6.65,-8.68,0.91
10599.0,-8.921,-0.723,-3.905,-9.162,-0.218,-3.408,11.83,-11.13,2.03
,-8.976,-0.546,-3.92,-9.294,-0.199,-3.111,11.97,-11.76,2.73
,-9.158,-0.474,-3.896,-9.265,-0.287,-3.19,12.53,-11.83,2.52
,-9.155,-0.371,-3.546,-9.191,-0.55,-3.23,13.09,-11.34,1.75
10675.0,-9.177,-0.727,-3.233,-9.064,-0.945,-3.183,2.03,-10.85,-0.56
,-9.155,-0.89,-3.551,-9.103,-0.558,-3.142,2.03,-10.92,-0.63
,-8.981,-0.95,-3.515,-9.129,-0.091,-2.876,3.01,-10.43,-0.28
,-8.981,-1.122,-3.381,-9.397,0.189,-3.214,6.09,-9.31,0.35
10751.0,-9.296,0.239,-3.163,-9.227,-0.534,-2.647,3.01,-7.35,-1.61
,-9.229,-0.151,-3.123,-9.287,-0.409,-2.996,-1.05,-6.58,-2.17
,-9.064,-0.371,-3.075,-9.275,-0.507,-3.025,-1.68,-5.67,-3.08
,-9.072,-0.622,-2.848,-9.16,-0.744,-3.273,0.35,-4.2,-3.29
10827.0,-9.076,-1.206,-3.171,-9.404,-0.672,-3.324,-4.76,-1.96,-3.01
,-9.002,-1.407,-3.084,-9.208,-0.555,-3.527,-2.52,-0.7,-2.38
,-9.107,-1.165,-3.044,-9.201,-0.785,-3.671,0.28,0.21,-1.96
,-9.328,-0.916,-3.156,-9.153,-0.814,-3.979,1.26,0.84,-1.68
10902.0,-9.134,-0.696,-4.104,-9.249,-0.715,-3.412,0.0,-0.07,-0.42
,-9.134,-0.723,-3.996,-9.292,-0.589,-3.422,1.82,-0.14,-0.28
,-9.129,-0.708,-3.817,-9.239,-0.536,-3.537,3.57,0.0,0.0
,-9.165,-0.751,-3.573,-9.215,-0.584,-3.81,5.11,0.28,0.42
10978.0,-9.043,-0.589,-3.948,-9.263,-0.531,-3.556,0.84,-1.68,-0.63
,-9.016,-0.854,-3.726,-9.27,-0.538,-3.419,1.89,-1.33,-0.14
,-9.112,-0.914,-3.623,-9.222,-0.701,-3.264,4.41,-1.26,0.14
,-9.282,-0.778,-3.647,-9.306,-0.78,-3.072,6.79,-1.19,0.35
11054.0,-9.457,-0.581,-3.295,-9.06,-0.964,-3.728,4.9,-0.56,-0.07
,-9.462,-0.392,-3.594,-9.182,-1.067,-3.628,3.08,-1.05,-0.56
,-9.273,-0.462,-3.644,-9.318,-0.823,-3.678,0.35,-1.47,-0.77
,-9.074,-0.56,-3.723,-9.371,-0.706,-3.534,-1.4,-1.47,-0.91
11130.0,-9.378,-0.651,-3.4,-9.313,-0.584,-3.475,7.35,-0.98,0.35
,-9.289,-0.713,-3.309,-9.265,-0.538,-3.477,6.72,-0.77,0.28
,-9.244,-0.771,-3.302,-9.22,-0.687,-3.364,5.95,-0.7,0.21
,-9.28,-0.73,-3.297,-9.153,-0.926,-3.116,5.67,-0.84,-0.07
11205.0,-9.258,-0.89,-3.075,-9.313,-0.565,-3.008,4.62,0.21,-0.21
,-9.296,-0.811,-2.9,-9.273,-0.644,-2.979,5.88,0.91,0.0
,-9.383,-0.648,-2.85,-9.304,-0.847,-3.104,6.65,1.4,0.0
,-9.375,-0.471,-2.934,-9.172,-0.962,-3.116,5.53,1.82,-0.21
11281.0,-9.182,-1.039,-2.996,-9.366,-0.447,-3.671,3.71,5.11,0.28
,-9.227,-0.993,-2.927,-9.249,-0.641,-3.915,4.9,5.88,0.49
,-9.289,-0.823,-3.065,-9.143,-0.933,-3.936,5.81,6.44,0.84
,-9.407,-0.558,-3.369,-9.083,-1.017,-3.977,5.18,6.44,0.63
11356.0,-9.191,-0.806,-3.965,-9.093,-0.744,-3.817,3.78,4.9,0.14
,-9.208,-0.656,-3.934,-9.141,-0.794,-3.79,3.71,4.55,0.35
,-9.225,-0.615,-3.963,-9.174,-0.828,-3.74,2.52,3.71,0.14
,-9.203,-0.687,-3.912,-9.194,-0.797,-3.668,0.84,3.08,0.0
11432.0,-9.179,-0.845,-3.589,-9.359,-0.735,-3.41,0.21,1.96,0.28
,-9.172,-0.873,-3.565,-9.311,-0.68,-3.451,0.63,1.96,0.42
,-9.258,-0.871,-3.369,-9.263,-0.668,-3.647,1.26,2.45,0.56
,-9.33,-0.78,-3.391,-9.251,-0.778,-3.781,1.26,2.38,0.49
11508.0,-9.117,-0.893,-3.747,-9.189,-0.605,-3.747,-2.31,1.82,0.0
,-9.134,-0.907,-3.745,-9.172,-0.622,-3.704,-0.63,1.89,0.21
,-9.189,-0.895,-3.733,-9.196,-0.637,-3.812,1.19,1.89,0.49
,-9.217,-0.704,-3.743,-9.139,-0.804,-3.788,2.03,1.54,0.56
11584.0,-9.158,-0.919,-3.611,-9.349,-0.565,-3.259,0.98,0.91,0.7
,-9.239,-0.909,-3.4,-9.251,-0.641,-3.391,2.59,1.33,0.98
,-9.282,-0.842,-3.223,-9.196,-0.828,-3.515,3.78,1.54,0.98
,-9.34,-0.694,-3.199,-9.16,-0.826,-3.654,3.78,1.54,0.98
11659.0,-9.162,-0.859,-3.721,-9.179,-0.725,-3.874,1.19,2.03,0.98
,-9.206,-0.744,-3.733,-9.1,-0.806,-3.908,2.31,1.82,1.19
,-9.265,-0.701,-3.862,-9.081,-0.883,-3.769,2.73,1.54,1.12
,-9.273,-0.605,-3.936,-9.15,-0.888,-3.606,2.38,1.12,1.12
11735.0,-9.258,-0.804,-3.448,-9.229,-0.648,-3.539,4.41,0.56,1.54
,-9.275,-0.797,-3.29,-9.153,-0.735,-3.635,4.55,0.63,1.75
,-9.354,-0.711,-3.293,-9.148,-0.838,-3.762,4.48,0.91,1.75
,-9.332,-0.601,-3.41,-9.16,-0.866,-3.716,3.57,0.77,1.54
11811.0,-9.213,-0.766,-3.74,-9.22,-0.708,-3.522,4.48,0.77,1.47
,-9.237,-0.689,-3.692,-9.246,-0.701,-3.47,4.48,0.77,1.54
,-9.208,-0.684,-3.606,-9.27,-0.648,-3.484,3.92,0.49,1.47
,-9.143,-0.68,-3.479,-9.308,-0.701,-3.463,3.71,0.56,1.54
11887.0,-9.301,-0.67,-3.436,-9.182,-0.768,-3.47,2.24,0.77,0.91
,-9.251,-0.677,-3.501,-9.222,-0.708,-3.427,1.61,0.77,0.77
,-9.112,-0.778,-3.458,-9.225,-0.548,-3.405,1.05,0.84,0.7
,-9.134,-0.787,-3.463,-9.28,-0.536,-3.484,1.33,0.77,0.7
11963.0,-9.301,-0.596,-3.489,-9.189,-0.68,-3.735,-0.98,1.05,0.21
,-9.313,-0.634,-3.671,-9.191,-0.656,-3.721,-1.75,0.91,0.0
,-9.229,-0.675,-3.726,-9.239,-0.625,-3.556,-2.1,0.91,0.0
,-9.15,-0.665,-3.704,-9.277,-0.598,-3.388,-1.61,0.84,0.14
12038.0,-9.323,-0.644,-3.326,-9.16,-0.718,-3.51,-0.21,1.4,0.35
,-9.323,-0.692,-3.333,-9.16,-0.665,-3.52,-0.84,1.33,0.28
,-9.217,-0.706,-3.367,-9.177,-0.622,-3.429,-1.4,1.47,0.35
,-9.21,-0.682,-3.489,-9.22,-0.601,-3.405,-1.89,1.4,0.28
12114.0,-9.232,-0.701,-3.228,-9.328,-0.27,-3.372,-2.45,2.59,0.42
,-9.27,-0.768,-3.08,-9.162,-0.45,-3.522,-2.66,3.08,0.63
,-9.158,-0.763,-2.69,-9.019,-0.61,-3.611,-2.66,3.85,0.63
,-9.351,-0.438,-2.974,-9.067,-1.003,-3.74,-2.66,4.06,-0.07
12189.0,-9.081,-1.11,-3.683,-9.222,-1.256,-2.517,-5.25,5.18,0.35
,-9.162,-1.003,-3.381,-9.375,-1.141,-2.228,-1.12,5.67,0.98
,-9.17,-0.857,-3.149,-9.481,-0.804,-2.917,0.63,6.3,1.61
,-9.201,-1.0,-2.886,-9.363,-0.639,-3.443,0.49,7.28,2.17
12265.0,-9.088,-0.759,-3.867,-9.174,-0.354,-3.877,-6.58,8.12,3.57
,-8.837,-0.998,-3.987,-9.198,0.134,-4.156,-8.96,8.12,3.99
,-8.818,-1.323,-3.841,-9.153,0.045,-3.944,-7.14,8.96,4.69
,-8.892,-1.019,-3.47,-9.268,-0.565,-3.479,-0.84,9.87,5.39
12341.0,-9.191,-0.986,-3.259,-9.028,0.713,-4.547,-4.55,9.73,4.62
,-9.27,-0.952,-2.503,-8.868,0.364,-4.996,2.1,10.5,4.76
,-9.306,-0.345,-3.257,-8.973,-0.538,-4.59,7.7,8.26,3.85
,-9.148,0.416,-3.984,-8.906,-1.058,-3.975,5.18,4.2,2.17
12417.0,-9.024,-0.912,-3.702,-9.072,-0.383,-4.288,-0.28,8.82,1.47
,-9.069,-0.237,-3.661,-8.873,-1.034,-3.635,5.46,7.98,0.21
,-9.28,0.122,-4.125,-8.961,-1.139,-2.917,5.6,6.37,-0.84
,-8.961,0.069,-4.346,-9.474,-0.778,-3.025,0.49,5.04,-1.26
12492.0,-9.34,-0.22,-3.3,-9.026,-0.4,-3.443,5.11,8.89,-1.33
,-9.287,0.05,-3.53,-9.062,-0.297,-3.934,0.56,8.26,-1.54
,-9.002,-0.043,-3.62,-9.04,-0.5,-4.209,-4.34,9.1,-1.19
,-9.012,-0.258,-3.472,-8.911,-0.78,-4.073,-5.32,10.92,-0.7
12568.0,-8.646,-1.251,-3.369,-9.057,-0.838,-4.348,5.74,15.33,-0.21
,-8.942,-1.204,-3.266,-8.72,-1.316,-3.855,12.53,15.82,0.35
,-8.99,-0.885,-3.783,-8.617,-1.642,-3.508,15.4,14.07,-0.07
,-9.349,-0.778,-4.183,-8.753,-1.395,-3.597,13.51,12.18,0.35
12643.0,-8.959,-0.768,-3.987,-8.868,-0.16,-4.03,10.08,16.52,3.71
,-9.086,-0.144,-4.451,-8.973,-0.352,-4.058,8.12,14.98,4.2
,-8.837,0.127,-4.714,-9.246,-0.715,-4.082,3.92,14.91,4.34
,-8.624,0.115,-4.295,-9.196,-0.993,-4.334,1.33,17.22,3.71
12719.0,-8.971,-1.168,-4.374,-8.808,-0.211,-4.822,8.33,15.26,4.83
,-8.672,-1.141,-4.386,-8.794,0.215,-4.977,12.25,16.1,5.32
,-8.576,-1.005,-4.401,-8.703,0.531,-4.941,15.96,16.87,5.25
,-8.629,-0.656,-4.558,-8.612,0.531,-4.822,19.18,17.43,5.18
12795.0,-8.847,0.388,-4.637,-8.746,-0.424,-4.606,2.66,16.03,0.14
,-9.155,0.175,-4.465,-8.636,-0.754,-4.494,0.28,15.19,-1.05
,-9.112,-0.041,-4.64,-8.894,-0.986,-4.585,-1.82,13.72,-1.4
,-8.959,-0.261,-4.633,-8.732,-1.015,-4.867,-3.71,13.16,-1.33
12871.0,-8.703,-0.682,-5.03,-8.689,-0.495,-4.8,5.25,10.22,0.98
,-8.672,-0.407,-5.219,-8.787,-0.581,-4.793,5.74,9.87,0.7
,-8.574,-0.361,-5.095,-8.681,-0.684,-4.757,3.92,9.73,0.0
,-8.624,-0.421,-4.989,-8.521,-0.924,-4.762,1.12,9.24,-0.63
12947.0,-8.581,-0.854,-4.858,-8.605,0.012,-5.331,-4.76,10.29,1.33
,-8.746,-0.5,-5.217,-8.792,-0.203,-5.114,-1.96,10.57,0.77
,-8.67,-0.258,-5.441,-8.854,-0.476,-4.676,0.28,10.43,-0.14
,-8.643,-0.038,-5.382,-8.775,-0.83,-4.537,2.31,10.29,-0.84
13022.0,-8.61,-1.019,-4.611,-8.433,-0.211,-5.47,-1.33,8.47,0.28
,-8.729,-1.108,-4.733,-8.311,-0.347,-5.451,0.63,8.19,0.42
,-8.693,-0.895,-5.071,-8.033,-0.639,-5.552,3.71,7.7,-0.14
,-8.641,-0.433,-5.482,-8.095,-1.041,-5.444,6.72,7.14,-0.98
13098.0,-8.624,-1.24,-5.118,-8.808,-0.01,-5.317,-0.49,4.9,1.47
,-8.921,-1.323,-4.85,-8.624,0.349,-5.561,2.24,5.32,1.4
,-9.079,-1.031,-4.683,-8.619,0.507,-5.985,5.32,5.25,0.49
,-9.127,-0.486,-4.941,-8.509,0.191,-6.102,7.49,4.41,-0.49
13174.0,-8.308,-0.44,-5.791,-8.933,-2.111,-4.855,-0.35,0.56,-2.24
,-8.093,-1.091,-5.556,-9.105,-1.804,-4.805,-0.35,0.35,-1.47
,-8.004,-1.773,-5.24,-8.957,-1.359,-4.688,0.91,0.84,-0.63
,-8.279,-2.166,-5.039,-8.502,-0.593,-4.884,4.69,1.4,-0.14
13250.0,-8.478,-0.079,-5.169,-8.358,-1.058,-4.929,8.54,-2.17,5.11
,-8.65,0.232,-5.291,-8.557,-1.278,-4.829,5.25,-2.38,4.34
,-8.713,0.045,-5.016,-8.461,-0.972,-4.738,1.47,-2.1,3.71
,-8.619,-0.526,-4.858,-8.263,-0.507,-4.865,-0.56,-1.82,3.85
13325.0,-8.411,-0.345,-4.865,-8.567,-0.191,-4.815,9.52,-1.68,6.58
,-8.763,-0.239,-4.927,-8.524,-0.194,-4.858,7.84,-2.03,6.37
,-9.079,-0.132,-4.731,-8.488,-0.103,-5.171,6.16,-2.59,6.23
,-8.904,-0.148,-4.812,-8.648,-0.069,-5.173,4.76,-2.59,5.74
13401.0,-8.748,-0.313,-4.946,-8.533,-1.199,-4.81,1.96,0.07,2.52
,-8.674,-0.57,-4.905,-8.337,-0.84,-5.047,2.03,0.21,2.66
,-8.672,-0.857,-4.972,-8.519,-0.335,-5.109,1.89,0.84,3.08
,-8.782,-1.259,-4.783,-8.787,-0.225,-5.044,1.26,0.91,3.92
13476.0,-8.906,-0.16,-5.145,-8.545,-0.426,-5.14,3.43,3.64,2.52
,-8.856,-0.122,-5.19,-8.725,-0.146,-5.219,3.22,3.92,2.31
,-8.823,-0.213,-5.044,-8.748,0.136,-5.363,1.96,3.92,1.96
,-8.564,-0.426,-5.087,-8.76,-0.093,-5.319,0.14,3.92,1.75
13552.0,-8.634,-0.352,-5.185,-8.5,-0.129,-5.408,-0.49,3.22,0.56
,-8.801,-0.503,-5.164,-8.492,-0.313,-5.245,-1.05,3.22,0.56
,-8.832,-0.424,-5.353,-8.799,-0.828,-5.245,-0.84,2.52,-0.07
,-8.605,-0.237,-5.42,-8.978,-0.778,-5.406,0.14,2.03,-1.26
13628.0,-8.768,-0.792,-5.583,-8.674,-1.493,-5.138,-1.33,-0.49,-0.07
,-8.6,-0.893,-5.64,-8.691,-1.395,-5.114,-0.21,-0.77,0.42
,-8.543,-1.192,-5.506,-8.684,-1.041,-5.274,0.7,-1.26,0.84
,-8.6,-1.486,-5.281,-8.358,-0.701,-5.595,1.61,-1.19,1.4
13704.0,-8.394,-0.474,-5.616,-8.643,0.34,-4.85,2.31,-5.11,6.44
,-8.6,-0.246,-5.353,-8.715,0.227,-4.714,1.89,-5.88,6.3
,-8.713,-0.062,-5.054,-8.933,0.067,-4.783,0.91,-6.79,5.95
,-8.701,0.153,-4.831,-8.942,-0.072,-4.846,-0.91,-7.21,5.46
13779.0,-8.93,-0.194,-4.874,-8.722,-0.27,-5.049,0.28,-7.35,1.26
,-8.72,-0.471,-5.035,-8.55,-0.144,-5.15,3.01,-7.49,1.12
,-8.686,-0.495,-5.111,-8.617,-0.069,-4.984,6.23,-7.21,0.77
,-8.887,-0.541,-4.996,-8.825,-0.086,-4.712,10.22,-7.91,0.28
13855.0,-8.772,0.086,-4.905,-8.705,-0.333,-4.779,8.68,-11.2,-1.4
,-8.655,0.196,-5.099,-8.612,-0.505,-4.681,5.81,-11.2,-2.03
,-8.662,0.048,-5.025,-8.691,-0.725,-4.506,2.87,-10.43,-2.73
,-8.772,-0.235,-4.91,-8.871,-0.847,-4.207,2.38,-9.87,-3.15
13931.0,-8.89,-0.665,-4.255,-8.787,-0.66,-4.121,9.17,-10.92,-2.52
,-8.808,-0.383,-4.293,-8.665,-0.931,-4.18,9.52,-12.25,-2.45
,-8.794,-0.333,-4.221,-8.65,-1.065,-4.243,8.4,-12.04,-2.52
,-8.784,-0.431,-4.197,-8.705,-1.115,-4.176,5.95,-11.34,-2.03
14007.0,-8.832,-0.993,-4.116,-8.904,-0.639,-3.984,6.72,-5.67,1.05
,-8.811,-0.61,-4.039,-9.043,-0.436,-4.111,7.84,-6.02,1.47
,-8.748,-0.412,-3.951,-9.019,-0.345,-4.099,6.16,-6.65,1.89
,-8.914,-0.474,-4.061,-8.916,-0.287,-4.027,4.13,-7.84,1.75
14083.0,-8.835,-0.069,-4.089,-9.002,-0.409,-4.18,4.9,-6.09,1.4
,-8.801,-0.124,-4.195,-9.05,-0.431,-4.24,3.71,-5.46,1.12
,-8.945,-0.364,-4.111,-8.957,-0.376,-4.312,2.31,-5.39,1.05
,-9.016,-0.383,-4.142,-8.897,-0.275,-4.204,2.17,-6.09,1.33
14158.0,-8.911,-0.366,-4.214,-8.844,-1.012,-4.032,0.49,-7.84,-0.21
,-8.99,-0.536,-4.152,-8.868,-0.893,-4.128,-1.26,-7.42,0.0
,-8.899,-0.644,-4.149,-9.124,-0.634,-4.161,-1.47,-6.65,0.56
,-8.82,-0.873,-4.109,-9.184,-0.337,-4.336,-0.56,-5.04,1.33
14234.0,-8.995,-0.11,-4.267,-9.055,-0.617,-3.955,6.86,-4.41,2.45
,-8.971,-0.246,-4.267,-9.227,-0.459,-3.951,4.83,-4.34,2.31
,-8.871,-0.488,-4.212,-9.158,-0.232,-4.113,3.99,-4.06,2.38
,-8.887,-0.727,-4.078,-9.122,-0.096,-4.056,4.34,-4.41,2.31
14309.0,-9.119,-0.112,-4.235,-9.057,-0.835,-3.857,0.98,-8.4,0.98
,-9.045,-0.452,-4.183,-9.069,-0.694,-3.678,-1.05,-8.33,0.7
,-8.875,-0.771,-4.173,-9.1,-0.648,-3.508,-0.07,-7.98,0.63
,-8.909,-0.926,-3.891,-9.005,-0.632,-3.618,3.01,-7.42,0.84
14385.0,-8.954,-0.531,-3.613,-9.304,-0.129,-3.111,5.04,-7.35,1.89
,-8.983,-0.581,-3.185,-9.323,-0.019,-3.467,6.02,-6.3,2.1
,-9.093,-0.373,-3.25,-9.162,-0.27,-3.479,6.72,-5.88,1.96
,-9.107,-0.263,-3.142,-9.091,-0.615,-3.448,5.88,-5.6,1.4
14461.0,-9.007,-0.744,-3.491,-9.072,-0.672,-3.338,-0.56,-5.04,0.07
,-9.069,-0.83,-3.355,-9.16,-0.634,-3.551,2.87,-3.92,0.35
,-9.134,-0.639,-3.448,-9.186,-0.694,-3.793,4.9,-3.22,0.49
,-9.095,-0.536,-3.408,-9.129,-0.785,-3.723,4.34,-2.94,0.56
14537.0,-9.139,-0.924,-3.75,-9.213,-0.369,-4.013,0.77,-1.96,1.68
,-8.973,-0.972,-3.628,-9.227,-0.333,-3.994,2.45,-1.68,1.82
,-9.048,-0.852,-3.62,-9.15,-0.421,-3.644,5.39,-1.19,2.38
,-9.131,-0.591,-3.692,-9.069,-0.558,-3.709,7.63,-1.4,2.66
14612.0,-9.098,-0.438,-3.391,-9.261,0.249,-3.723,7.77,-1.12,2.45
,-9.287,-0.084,-3.386,-9.158,-0.029,-3.628,9.45,-1.12,2.03
,-9.287,0.156,-3.484,-9.031,-0.383,-3.592,6.72,-1.33,1.05
,-9.273,0.232,-3.381,-9.038,-0.562,-3.36,3.29,-1.68,0.35
14688.0,-9.162,-0.498,-3.259,-9.1,-0.622,-3.491,-1.19,-0.84,-1.75
,-9.332,-0.165,-3.467,-9.072,-0.864,-3.312,-1.61,-1.26,-2.45
,-9.328,0.072,-3.649,-9.229,-0.962,-3.202,-4.83,-1.82,-3.08
,-9.191,-0.115,-3.491,-9.404,-0.699,-3.453,-10.29,-2.03,-3.29
14764.0,-9.196,-0.491,-3.396,-9.196,-0.811,-3.257,-5.53,0.49,-2.87
,-9.206,-0.555,-3.367,-9.22,-0.639,-3.264,-6.58,0.91,-2.1
,-9.182,-0.67,-3.489,-9.251,-0.445,-3.13,-7.63,1.12,-1.82
,-9.055,-0.852,-3.343,-9.308,-0.292,-3.171,-6.51,1.82,-1.4
14840.0,-9.45,-0.184,-3.652,-8.926,-0.84,-4.381,-2.1,3.99,-0.63
,-9.325,-0.093,-4.293,-9.129,-0.787,-4.29,-3.92,2.87,-1.26
,-9.079,-0.316,-4.532,-9.289,-0.538,-4.085,-5.39,2.24,-1.4
,-8.882,-0.625,-4.547,-9.342,-0.354,-4.13,-4.41,2.03,-1.19
14915.0,-9.268,-0.419,-4.209,-9.127,-0.802,-4.046,2.38,-0.42,-0.49
,-9.143,-0.553,-4.109,-9.139,-0.694,-3.819,1.33,-1.12,-0.42
,-9.124,-0.756,-4.178,-9.265,-0.577,-3.553,1.68,-1.68,-0.28
,-9.062,-0.907,-4.156,-9.222,-0.414,-3.336,4.13,-1.75,0.21
14991.0,-9.356,-0.333,-3.209,-9.191,-0.404,-3.845,9.38,-1.4,1.12
,-9.349,-0.227,-3.25,-9.117,-0.474,-3.924,7.28,-1.47,0.84
,-9.34,-0.349,-3.305,-9.072,-0.514,-3.934,5.32,-1.4,0.63
,-9.308,-0.38,-3.609,-9.1,-0.546,-3.85,4.48,-1.54,0.42
15067.0,-9.167,-0.553,-3.731,-9.213,-0.761,-3.58,4.9,-2.38,0.14
,-9.232,-0.62,-3.549,-9.122,-0.687,-3.491,4.13,-2.38,0.14
,-9.27,-0.79,-3.408,-9.112,-0.558,-3.427,3.78,-2.24,0.21
,-9.294,-0.821,-3.489,-9.227,-0.543,-3.269,4.13,-2.31,0.42
15142.0,-9.251,-0.514,-3.087,-9.105,-0.512,-3.486,6.09,-0.84,1.12
,-9.328,-0.431,-3.068,-9.1,-0.718,-3.702,5.67,-0.49,1.26
,-9.402,-0.337,-3.329,-9.112,-0.842,-3.699,4.69,-0.84,0.84
,-9.249,-0.373,-3.508,-9.17,-0.826,-3.573,3.01,-0.98,0.49
15218.0,-9.217,-0.782,-3.336,-9.306,-0.479,-3.345,7.91,0.63,2.1
,-9.273,-0.725,-3.211,-9.222,-0.622,-3.417,8.61,0.98,2.17
,-9.316,-0.57,-3.12,-9.282,-0.613,-3.46,8.05,1.26,2.17
,-9.371,-0.493,-3.216,-9.332,-0.483,-3.616,6.37,1.26,2.17
15294.0,-9.373,-0.345,-3.68,-9.16,-0.526,-3.618,6.02,1.54,1.75
,-9.289,-0.258,-3.762,-9.237,-0.503,-3.606,4.48,1.19,1.54
,-9.179,-0.457,-3.716,-9.234,-0.555,-3.34,3.01,0.77,1.4
,-9.131,-0.637,-3.776,-9.253,-0.486,-3.005,3.01,0.84,1.19
15370.0,-9.33,-0.493,-3.017,-9.206,-0.385,-3.714,2.94,1.89,0.7
,-9.387,-0.347,-3.118,-9.217,-0.491,-3.853,2.03,2.24,0.63
,-9.397,-0.235,-3.23,-9.165,-0.613,-3.891,0.28,2.24,0.35
,-9.38,-0.313,-3.417,-9.136,-0.648,-3.946,-2.03,2.03,-0.07
15445.0,-9.194,-0.637,-3.96,-9.222,-0.543,-3.719,2.1,1.4,0.14
,-9.27,-0.622,-3.879,-9.17,-0.574,-3.63,3.43,1.05,0.28
,-9.244,-0.581,-3.759,-9.184,-0.579,-3.522,3.92,0.77,0.49
,-9.256,-0.543,-3.8,-9.263,-0.555,-3.408,4.06,0.42,0.42
15521.0,-9.304,-0.493,-3.324,-9.237,-0.625,-3.376,4.27,0.35,0.35
,-9.33,-0.483,-3.362,-9.251,-0.512,-3.453,3.43,0.56,0.28
,-9.292,-0.615,-3.307,-9.311,-0.431,-3.448,2.66,0.42,0.28
,-9.268,-0.677,-3.35,-9.261,-0.476,-3.408,2.8,0.84,0.35
15597.0,-9.258,-0.553,-3.458,-9.222,-0.5,-3.766,0.56,1.26,0.0
,-9.268,-0.617,-3.518,-9.213,-0.524,-3.745,0.77,1.19,0.07
,-9.275,-0.579,-3.637,-9.182,-0.574,-3.666,1.12,1.26,0.0
,-9.237,-0.512,-3.671,-9.143,-0.66,-3.515,1.26,0.98,0.0
15673.0,-9.265,-0.696,-3.374,-9.263,-0.529,-3.613,3.01,0.7,0.35
,-9.368,-0.639,-3.379,-9.27,-0.562,-3.659,3.64,0.77,0.28
,-9.337,-0.562,-3.431,-9.241,-0.565,-3.75,3.01,0.77,0.28
,-9.28,-0.471,-3.498,-9.213,-0.548,-3.766,2.1,0.7,0.28
15748.0,-9.225,-0.512,-3.707,-9.263,-0.498,-3.635,2.87,0.07,0.21
,-9.249,-0.526,-3.752,-9.268,-0.505,-3.513,2.94,-0.14,0.14
,-9.256,-0.467,-3.699,-9.328,-0.572,-3.262,3.08,-0.56,0.07
,-9.198,-0.447,-3.685,-9.273,-0.646,-3.171,2.59,-0.98,-0.07
15824.0,-9.282,-0.529,-3.175,-9.225,-0.565,-3.398,3.15,-0.28,-0.21
,-9.354,-0.579,-3.12,-9.186,-0.637,-3.419,2.73,0.35,-0.21
,-9.316,-0.517,-3.24,-9.229,-0.723,-3.362,2.45,0.42,-0.28
,-9.289,-0.409,-3.357,-9.208,-0.742,-3.283,1.75,0.42,-0.35
15899.0,-9.203,-0.782,-3.118,-9.33,-0.294,-3.515,2.87,2.17,0.28
,-9.318,-0.699,-2.924,-9.239,-0.424,-3.594,3.85,3.08,0.7
,-9.433,-0.629,-2.929,-9.081,-0.409,-3.597,4.06,3.29,0.63
,-9.421,-0.357,-3.206,-9.119,-0.445,-3.613,2.8,3.22,0.28
15975.0,-9.275,-0.431,-3.58,-9.289,-0.629,-3.486,-3.43,2.17,-0.56
,-9.411,-0.4,-3.563,-9.349,-0.481,-3.685,-4.83,1.96,-0.49
,-9.308,-0.412,-3.386,-9.306,-0.455,-3.886,-7.42,1.47,-0.7
,-9.282,-0.476,-3.451,-9.134,-0.459,-3.9,-9.38,0.98,-0.84
16051.0,-9.179,-0.572,-3.788,-9.474,-0.333,-3.704,-10.78,-1.82,-0.98
,-9.119,-0.677,-3.642,-9.313,-0.282,-3.757,-9.38,-1.75,-0.91
,-9.083,-0.754,-3.451,-9.225,-0.469,-3.824,-6.79,-1.12,-0.56
,-9.409,-0.665,-3.415,-9.155,-0.658,-3.855,-3.36,-0.56,-0.35
16127.0,-9.17,-0.797,-3.762,-9.344,-0.419,-3.654,-5.67,-0.42,-1.05
,-9.277,-0.677,-3.802,-9.232,-0.479,-3.491,-1.82,0.07,-0.77
,-9.304,-0.512,-3.845,-9.215,-0.62,-3.082,0.56,0.0,-0.7
,-9.557,-0.486,-3.762,-9.251,-0.534,-2.62,1.47,-1.12,-0.84
16203.0,-9.411,-0.141,-2.804,-9.217,-1.019,-3.075,8.05,-1.12,-1.4
,-9.328,0.01,-3.144,-9.174,-1.23,-2.883,4.97,-2.24,-2.17
,-9.167,-0.244,-3.221,-9.32,-0.976,-2.673,-0.42,-2.87,-2.45
,-9.131,-0.61,-3.161,-9.328,-0.577,-3.113,-3.92,-1.96,-2.52
16278.0,-9.198,-0.495,-3.075,-9.325,-0.983,-3.963,4.83,3.5,-1.26
,-9.292,-0.565,-3.376,-9.189,-0.627,-3.53,2.38,3.22,-0.84
,-9.117,-0.78,-3.542,-9.373,-0.412,-3.709,0.77,2.8,-0.63
,-9.232,-1.01,-3.553,-9.277,-0.366,-3.551,3.5,3.5,0.14
16354.0,-9.299,-0.534,-3.317,-9.043,-1.151,-3.422,2.87,2.38,-0.49
,-9.361,-0.581,-3.278,-9.103,-1.541,-2.95,0.77,1.12,-0.42
,-9.215,-0.553,-3.534,-9.115,-1.558,-2.577,-1.05,-1.33,-0.77
,-9.107,-0.749,-3.604,-9.0,-0.964,-2.618,-3.15,-2.31,-0.77
16430.0,-9.11,-0.467,-2.304,-9.294,0.663,-2.962,16.1,4.9,1.61
,-9.658,0.048,-2.343,-8.854,0.421,-3.295,16.52,5.81,1.61
,-9.701,0.526,-2.84,-8.89,-0.007,-3.087,10.78,5.11,0.7
,-9.651,0.718,-2.615,-9.055,-0.562,-3.063,4.27,5.32,0.14
16506.0,-9.031,-0.885,-2.69,-9.229,-0.699,-2.967,-6.65,12.18,-2.8
,-9.28,-1.163,-2.333,-9.107,-0.428,-3.62,-1.12,15.19,-2.94
,-9.407,-1.362,-2.379,-9.021,-0.282,-3.802,3.15,15.12,-3.22
,-9.416,-1.137,-2.644,-9.229,-0.151,-4.386,6.02,13.44,-2.73
16581.0,-9.268,0.036,-4.757,-9.091,-2.513,-2.879,1.33,10.29,-2.73
,-9.115,-0.022,-4.824,-9.273,-2.517,-3.331,-2.03,8.68,-3.43
,-8.746,-0.79,-4.353,-9.27,-2.419,-3.848,-7.28,9.73,-2.94
,-8.373,-1.764,-3.422,-9.045,-1.984,-3.893,-8.19,13.09,-1.33
16657.0,-8.966,-1.405,-3.766,-9.265,2.496,-4.013,15.89,15.54,5.88
,-9.028,0.029,-3.733,-9.222,1.972,-3.848,23.17,17.64,4.06
,-9.028,1.527,-3.893,-9.359,1.11,-3.609,25.2,17.29,1.54
,-9.249,2.46,-3.743,-9.091,0.002,-3.884,19.39,16.1,-0.7
16732.0,-9.009,-1.077,-3.814,-8.988,-2.754,-3.305,-15.54,12.95,-6.65
,-8.921,-2.228,-3.491,-9.103,-1.761,-3.769,-10.15,15.33,-5.11
,-8.997,-2.991,-2.946,-9.021,-0.28,-4.499,-1.19,18.69,-3.43
,-9.1,-3.13,-2.905,-8.698,0.818,-4.903,9.1,20.23,-1.61
16808.0,-8.717,1.005,-4.901,-8.973,-1.852,-4.52,11.27,17.29,-1.54
,-8.918,0.553,-4.862,-8.66,-2.668,-4.642,-0.14,17.5,-3.22
,-9.021,-0.227,-4.637,-8.476,-3.12,-4.755,-8.68,18.06,-4.13
,-9.182,-1.115,-4.535,-8.715,-3.022,-4.898,-12.6,17.71,-3.92
16884.0,-8.964,-2.371,-5.245,-8.643,0.201,-5.257,16.1,16.03,5.25
,-9.11,-1.541,-5.319,-8.739,0.266,-5.078,23.73,13.44,5.53
,-8.914,-0.73,-5.372,-8.768,-0.158,-4.58,25.41,10.57,6.09
,-8.617,-0.165,-5.317,-8.89,-0.433,-4.487,21.98,8.61,6.09
16960.0,-8.818,-0.634,-4.525,-9.091,0.615,-4.805,-7.84,6.09,6.51
,-8.854,-0.694,-4.597,-9.122,0.66,-4.824,-6.93,6.51,6.3
,-9.031,-0.421,-4.767,-9.093,0.172,-4.719,-3.99,5.67,5.53
,-8.969,0.103,-4.879,-9.095,-0.491,-4.58,0.56,4.76,4.55
17035.0,-8.94,-1.144,-4.417,-8.313,-2.594,-4.295,-0.77,2.1,-1.82
,-8.739,-1.797,-4.094,-8.751,-1.912,-4.286,0.84,1.33,-0.28
,-8.184,-2.118,-4.346,-9.083,-0.536,-4.444,2.03,1.54,1.96
,-8.021,-2.443,-4.357,-9.148,0.656,-4.377,3.22,2.59,4.97
17111.0,-9.141,1.333,-4.625,-9.225,-0.369,-4.216,12.32,2.38,1.89
,-9.043,1.4,-4.262,-9.028,-0.397,-4.604,3.71,3.22,-0.98
,-9.005,1.046,-4.286,-8.878,-0.342,-4.795,-3.01,4.13,-2.31
,-9.177,0.172,-4.324,-8.588,-0.704,-4.748,-6.72,3.92,-2.8
17187.0,-8.279,-1.153,-4.8,-9.012,-1.479,-4.52,3.36,1.96,-1.61
,-8.337,-1.464,-4.901,-8.729,-1.469,-4.413,5.53,2.45,-0.49
,-8.595,-1.431,-4.949,-8.844,-1.285,-4.31,8.12,2.1,0.07
,-8.792,-1.479,-4.764,-8.758,-0.555,-4.697,10.43,2.03,0.21
17263.0,-8.861,-0.28,-5.272,-8.866,-1.67,-4.733,6.37,0.49,1.4
,-8.746,-0.646,-5.248,-8.739,-1.754,-4.47,2.73,0.77,1.05
,-8.83,-0.986,-4.958,-8.861,-1.694,-4.329,1.54,0.7,1.54
,-8.813,-1.263,-4.903,-8.988,-1.488,-4.329,2.45,0.28,2.66
17339.0,-9.005,-0.888,-4.525,-8.906,-0.462,-4.511,10.85,1.68,7.77
,-8.83,-0.641,-4.558,-8.875,-0.531,-4.374,10.29,1.89,8.26
,-8.72,-0.555,-4.678,-8.708,-0.677,-4.348,9.59,2.03,8.68
,-8.801,-0.574,-4.59,-8.672,-0.555,-4.501,8.68,2.1,9.1
17414.0,-8.902,-0.349,-4.63,-8.696,-0.292,-4.654,7.07,4.34,8.05
,-8.988,-0.28,-4.539,-8.808,-0.471,-4.616,6.58,4.97,6.79
,-8.897,-0.024,-4.578,-8.636,-0.373,-4.592,5.6,5.39,5.6
,-8.722,-0.103,-4.554,-8.452,-0.182,-4.647,3.78,5.95,4.55
17490.0,-8.629,-0.349,-4.805,-8.949,-0.682,-4.618,-0.42,8.47,2.73
,-8.904,-0.507,-4.731,-8.933,-0.593,-4.669,-1.82,8.75,2.38
,-8.971,-0.811,-4.707,-8.849,-0.699,-4.884,-2.38,9.17,2.03
,-8.938,-0.826,-4.628,-8.847,-0.488,-5.006,-1.75,9.59,1.89
17565.0,-8.794,-0.165,-5.193,-9.024,-0.584,-4.417,-1.75,8.75,0.84
,-8.873,0.103,-5.085,-8.655,-0.718,-4.556,-1.61,9.03,-0.28
,-9.1,-0.012,-4.826,-8.394,-0.806,-5.027,-2.87,8.68,-1.89
,-9.284,-0.28,-4.472,-8.495,-0.94,-5.126,-3.99,7.56,-2.52
17641.0,-8.799,-0.826,-5.049,-8.799,-0.78,-5.157,-1.96,5.81,1.54
,-8.945,-0.574,-5.008,-8.837,-1.062,-4.826,0.49,4.9,0.7
,-9.076,-0.517,-4.877,-8.799,-1.144,-5.173,-0.14,4.9,0.49
,-9.031,-0.692,-4.877,-8.624,-1.022,-5.219,-3.01,4.34,0.91
17717.0,-8.512,-0.773,-5.312,-8.854,-0.436,-5.145,-3.57,1.47,3.43
,-8.418,-0.493,-5.264,-9.002,-0.426,-5.224,-1.12,1.12,3.15
,-8.488,-0.57,-5.133,-8.732,-0.321,-5.434,0.0,0.98,2.8
,-8.681,-0.534,-5.162,-8.476,-0.51,-5.336,1.05,0.56,2.8
17793.0,-8.512,-0.653,-5.248,-8.837,-0.328,-5.109,4.06,-2.87,1.75
,-8.591,-0.656,-5.214,-8.713,-0.254,-5.03,5.81,-3.43,1.33
,-8.729,-0.486,-5.255,-8.77,-0.103,-5.039,7.14,-3.5,1.12
,-8.823,-0.433,-5.205,-8.851,0.05,-4.956,7.77,-3.5,1.19
17868.0,-8.813,0.086,-4.815,-8.818,-0.574,-4.74,9.45,-4.69,-2.1
,-8.598,0.11,-4.939,-8.861,-0.68,-4.649,8.26,-4.69,-2.59
,-8.703,-0.165,-4.704,-8.981,-0.534,-4.649,7.49,-4.62,-2.94
,-8.82,-0.395,-4.769,-8.54,-0.316,-4.989,8.12,-5.11,-3.15
17944.0,-8.366,-0.347,-4.984,-8.686,-0.998,-4.52,6.58,-10.99,-1.96
,-8.524,-0.577,-4.85,-8.732,-1.091,-4.408,5.46,-10.57,-1.68
,-8.751,-0.873,-4.759,-8.725,-1.072,-4.355,5.11,-9.94,-1.54
,-8.847,-1.0,-4.649,-8.909,-0.928,-4.35,5.32,-9.24,-1.05
18019.0,-8.849,-0.814,-4.331,-8.859,-1.472,-3.917,14.49,-1.68,0.28
,-8.696,-0.771,-4.389,-9.318,-0.993,-4.044,14.07,-1.4,1.54
,-8.571,-0.811,-4.422,-9.083,-0.51,-4.219,13.44,-0.84,2.87
,-8.536,-0.928,-4.374,-8.806,-0.223,-4.348,13.16,-0.63,3.99
18095.0,-8.579,-0.232,-4.587,-8.918,-0.471,-4.374,6.09,-11.2,4.48
,-8.526,-0.467,-4.594,-8.825,-0.325,-4.389,3.64,-10.43,4.48
,-8.801,-0.639,-4.451,-8.89,-0.316,-4.329,3.71,-9.66,4.2
,-8.914,-0.608,-4.367,-9.028,-0.428,-4.166,5.18,-9.1,3.5
18171.0,-9.016,-0.443,-4.279,-8.935,-0.641,-4.125,4.13,-8.61,2.1
,-8.971,-0.543,-4.283,-8.981,-0.426,-4.123,3.01,-8.96,2.59
,-8.887,-0.68,-4.271,-8.923,-0.232,-4.094,2.87,-8.54,2.8
,-8.782,-0.751,-4.116,-8.899,-0.378,-4.097,3.57,-7.77,2.94
18247.0,-8.93,-0.541,-4.015,-9.206,-0.306,-3.944,1.89,-6.79,2.66
,-9.045,-0.627,-3.967,-9.064,-0.354,-3.922,2.38,-6.44,2.8
,-9.024,-0.665,-3.917,-9.019,-0.503,-3.967,3.15,-6.86,2.45
,-9.076,-0.498,-3.96,-8.89,-0.565,-3.946,4.13,-7.28,2.1
18323.0,-8.902,-0.62,-4.018,-9.045,-0.601,-3.872,0.63,-9.1,0.77
,-9.005,-0.476,-4.13,-8.935,-0.79,-3.745,2.17,-9.24,0.28
,-9.031,-0.357,-4.066,-9.079,-0.759,-3.656,2.59,-9.17,-0.07
,-9.06,-0.383,-3.91,-9.048,-0.782,-3.3,1.96,-8.68,-0.07
18398.0,-9.215,-0.629,-3.417,-9.15,-0.436,-3.795,5.46,-7.21,0.14
,-9.237,-0.316,-3.757,-8.921,-0.538,-3.628,4.9,-7.91,-0.14
,-9.256,-0.189,-3.855,-8.866,-0.546,-3.467,3.22,-8.19,0.07
,-9.234,-0.23,-3.824,-9.143,-0.447,-3.534,1.19,-8.12,-0.14
18474.0,-9.201,-0.443,-3.678,-9.002,-1.359,-3.439,-2.45,-8.4,-3.15
,-9.189,-0.701,-3.692,-8.902,-1.173,-3.305,-5.39,-8.26,-2.87
,-9.241,-0.974,-3.568,-9.093,-0.713,-3.3,-6.37,-7.63,-2.45
,-9.141,-1.285,-3.434,-9.17,-0.443,-3.453,-4.83,-7.0,-2.03
18550.0,-9.244,-0.436,-3.503,-9.201,-0.665,-2.994,1.12,-5.11,-0.42
,-9.103,-0.526,-3.223,-9.129,-0.29,-3.025,-0.56,-4.34,0.0
,-9.05,-0.835,-3.147,-9.234,-0.172,-2.991,0.49,-3.22,0.07
,-9.088,-0.919,-3.053,-9.284,-0.117,-3.242,3.43,-1.96,0.0
18626.0,-9.251,-0.22,-3.3,-9.268,-0.603,-3.496,-2.45,0.0,-1.75
,-9.179,-0.352,-3.288,-9.253,-0.354,-3.817,-4.13,0.49,-2.1
,-9.227,-0.436,-3.321,-9.105,-0.39,-3.9,-4.55,1.26,-2.31
,-9.261,-0.586,-3.195,-9.052,-0.641,-3.934,-3.78,2.03,-2.52
18701.0,-9.012,-0.814,-4.271,-9.318,-0.854,-3.434,-8.26,0.63,-3.5
,-8.88,-0.914,-3.972,-9.354,-0.775,-3.436,-6.51,0.63,-3.22
,-8.997,-0.89,-3.678,-9.308,-0.689,-3.585,-4.27,0.77,-3.01
,-9.119,-0.84,-3.628,-9.162,-0.627,-4.034,-3.78,0.7,-2.94
18777.0,-8.988,-0.732,-4.092,-9.332,-0.543,-3.333,-2.38,-0.14,-1.68
,-8.954,-0.833,-4.02,-9.311,-0.421,-3.317,-0.56,0.21,-1.19
,-9.014,-0.895,-3.776,-9.27,-0.476,-3.661,2.73,0.49,-0.7
,-9.146,-0.706,-3.467,-9.055,-0.725,-3.759,5.74,0.98,-0.49
18852.0,-9.04,-0.921,-3.872,-9.201,-0.498,-3.798,-0.63,0.07,-0.77
,-9.088,-1.024,-3.932,-9.263,-0.555,-3.609,2.24,0.21,-0.35
,-9.186,-0.931,-3.905,-9.263,-0.548,-3.561,5.6,0.14,0.07
,-9.17,-0.648,-3.798,-9.258,-0.615,-3.463,7.84,0.21,0.28
18928.0,-9.22,-0.682,-3.609,-9.201,-0.732,-3.687,4.41,0.07,-0.14
,-9.105,-0.857,-3.654,-9.263,-0.687,-3.606,4.34,0.21,0.14
,-9.067,-0.938,-3.64,-9.198,-0.653,-3.463,5.25,0.42,0.56
,-9.095,-0.888,-3.618,-9.299,-0.687,-3.479,7.14,0.56,0.7
19004.0,-9.251,-0.802,-3.46,-9.134,-0.72,-4.135,2.94,0.77,0.56
,-9.21,-0.818,-3.534,-9.009,-0.735,-4.142,3.01,1.05,0.63
,-9.229,-0.806,-3.723,-9.095,-0.826,-4.195,3.57,0.91,0.84
,-9.225,-0.699,-4.006,-9.134,-0.814,-3.872,4.2,0.63,0.98
19080.0,-9.186,-0.751,-3.637,-9.208,-0.672,-3.527,7.84,-0.49,1.96
,-9.304,-0.66,-3.568,-9.103,-0.658,-3.448,6.79,-0.63,1.75
,-9.273,-0.711,-3.486,-9.174,-0.84,-3.242,5.39,-0.98,1.47
,-9.28,-0.637,-3.51,-9.263,-0.818,-3.309,4.13,-1.19,1.19
19155.0,-9.323,-0.651,-3.386,-9.215,-0.66,-3.424,3.85,0.0,1.19
,-9.227,-0.639,-3.321,-9.177,-0.546,-3.417,2.66,0.28,1.19
,-9.203,-0.749,-3.326,-9.222,-0.531,-3.515,1.89,0.42,1.05
,-9.194,-0.816,-3.305,-9.15,-0.627,-3.489,2.87,0.98,1.26
19231.0,-9.189,-0.665,-3.51,-9.203,-0.778,-3.754,3.08,1.96,1.05
,-9.263,-0.675,-3.611,-9.15,-0.821,-3.699,3.29,1.96,0.98
,-9.296,-0.694,-3.783,-9.194,-0.814,-3.539,3.15,1.96,0.98
,-9.275,-0.711,-3.743,-9.22,-0.694,-3.465,2.87,1.54,0.98
19307.0,-9.261,-0.644,-3.436,-9.227,-0.656,-3.664,4.83,2.1,1.26
,-9.294,-0.546,-3.405,-9.227,-0.687,-3.807,4.27,2.24,1.12
,-9.273,-0.591,-3.494,-9.191,-0.67,-3.812,2.8,2.1,0.77
,-9.227,-0.658,-3.551,-9.124,-0.735,-3.795,2.1,2.31,0.7
19383.0,-9.141,-0.727,-3.74,-9.153,-0.648,-3.563,2.45,1.68,0.56
,-9.186,-0.648,-3.685,-9.249,-0.775,-3.62,2.87,1.68,0.56
,-9.273,-0.632,-3.666,-9.227,-0.818,-3.647,2.59,1.54,0.42
,-9.251,-0.581,-3.628,-9.246,-0.773,-3.637,2.17,1.47,0.28
19459.0,-9.21,-0.692,-3.697,-9.179,-0.66,-3.707,2.8,1.33,0.35
,-9.182,-0.78,-3.625,-9.21,-0.701,-3.838,2.87,1.4,0.42
,-9.201,-0.79,-3.644,-9.105,-0.806,-3.771,2.94,1.19,0.42
,-9.225,-0.775,-3.661,-9.153,-0.818,-3.726,3.15,1.12,0.42
19534.0,-9.229,-0.78,-3.728,-9.186,-0.694,-3.673,3.92,0.63,0.7
,-9.196,-0.715,-3.735,-9.196,-0.744,-3.606,4.27,0.42,0.77
,-9.222,-0.66,-3.654,-9.179,-0.766,-3.618,3.99,0.28,0.77
,-9.227,-0.689,-3.692,-9.268,-0.737,-3.565,3.78,0.28,0.84
19610.0,-9.268,-0.684,-3.611,-9.17,-0.73,-3.642,4.55,0.21,0.98
,-9.174,-0.704,-3.592,-9.198,-0.773,-3.589,3.99,0.0,0.98
,-9.153,-0.754,-3.582,-9.21,-0.737,-3.573,3.71,0.07,1.05
,-9.196,-0.735,-3.668,-9.244,-0.739,-3.542,3.85,0.14,1.05
19685.0,-9.232,-0.694,-3.443,-9.201,-0.72,-3.501,4.27,0.49,1.05
,-9.244,-0.754,-3.331,-9.146,-0.739,-3.453,4.06,0.77,1.19
,-9.217,-0.744,-3.467,-9.167,-0.873,-3.537,4.2,0.77,1.05
,-9.174,-0.785,-3.522,-9.229,-0.723,-3.314,4.55,0.91,1.12
19761.0,-9.287,-0.761,-3.417,-9.261,-0.711,-3.731,4.2,1.82,1.12
,-9.258,-0.742,-3.443,-9.172,-0.692,-3.798,3.71,1.82,1.19
,-9.296,-0.687,-3.577,-9.153,-0.725,-3.757,3.5,1.75,1.12
,-9.265,-0.67,-3.664,-9.158,-0.773,-3.726,3.01,1.61,0.98
19837.0,-9.234,-0.744,-3.582,-9.237,-0.627,-3.714,4.97,1.4,1.12
,-9.268,-0.692,-3.348,-9.143,-0.811,-3.668,5.74,1.61,1.05
,-9.335,-0.574,-3.379,-9.162,-0.871,-3.776,5.11,1.61,0.91
,-9.301,-0.548,-3.553,-9.115,-0.878,-3.793,3.43,1.26,0.49
19913.0,-9.234,-0.842,-3.573,-9.301,-0.632,-3.403,4.48,1.26,0.98
,-9.225,-0.727,-3.534,-9.237,-0.617,-3.443,5.18,1.47,1.05
,-9.225,-0.692,-3.424,-9.17,-0.682,-3.398,4.69,1.33,0.98
,-9.246,-0.651,-3.317,-9.155,-0.847,-3.25,4.2,1.54,1.12
19988.0,-9.165,-0.866,-3.19,-9.155,-0.577,-3.618,2.31,3.01,1.12
,-9.239,-0.644,-3.269,-9.136,-0.708,-3.673,3.15,3.15,0.98
,-9.22,-0.514,-3.489,-9.06,-0.701,-3.664,2.17,3.22,0.84
,-9.182,-0.495,-3.513,-9.11,-0.711,-3.69,0.35,3.36,0.77
20064.0,-9.208,-0.821,-3.475,-9.323,-0.323,-3.431,-0.28,3.64,1.05
,-9.306,-0.89,-3.195,-9.174,-0.342,-3.556,-0.49,3.71,0.91
,-9.45,-0.704,-3.235,-8.983,-0.589,-3.539,-0.77,3.5,0.49
,-9.61,-0.538,-3.362,-8.959,-0.804,-3.446,-3.15,2.52,0.0
20140.0,-9.198,-0.888,-3.329,-9.167,-0.675,-3.235,-11.34,1.47,-0.42
,-9.323,-0.55,-3.642,-9.225,-0.928,-3.051,-8.61,0.7,-0.84
,-9.296,-0.313,-3.585,-9.316,-0.861,-3.314,-9.24,-0.35,-1.12
,-9.232,-0.333,-3.575,-9.237,-0.785,-3.199,-12.18,-0.84,-1.19
20216.0,-9.174,-0.708,-3.331,-9.136,-0.55,-3.491,-4.76,2.31,-0.28
,-9.048,-0.72,-3.216,-9.27,-0.421,-4.075,-2.87,3.71,0.14
,-9.21,-0.888,-3.25,-9.354,-0.402,-4.173,-0.21,4.62,0.49
,-8.93,-0.806,-3.106,-9.189,-0.622,-4.752,2.73,4.41,0.42
20291.0,-9.062,-1.043,-4.539,-9.064,-0.646,-3.252,-1.96,-1.68,-0.07
,-9.033,-1.189,-4.319,-9.136,-0.467,-3.568,2.31,-0.42,0.49
,-8.954,-1.149,-4.046,-9.237,-0.608,-3.805,7.07,1.05,0.63
,-8.916,-0.895,-3.453,-9.452,-0.483,-3.759,12.04,3.71,0.84
20367.0,-9.531,-0.522,-3.776,-9.253,-0.67,-3.8,7.98,5.74,1.19
,-9.143,-0.333,-3.379,-9.076,-1.247,-3.441,6.09,6.44,-0.07
,-8.916,-0.215,-3.75,-8.878,-1.776,-2.85,3.57,4.76,-1.68
,-9.031,-0.318,-3.793,-8.949,-2.089,-2.479,0.28,3.43,-2.1
20443.0,-8.969,-2.144,-2.63,-9.289,-1.17,-3.142,1.96,8.33,3.43
,-9.165,-2.103,-2.513,-9.098,-0.208,-3.575,7.0,9.59,4.69
,-9.289,-2.12,-2.699,-9.031,0.641,-4.018,10.99,12.11,6.37
,-9.225,-1.847,-2.74,-8.835,1.101,-4.312,14.63,14.56,7.91
20518.0,-8.586,0.928,-4.202,-9.617,-0.132,-3.429,6.79,14.49,6.44
,-8.65,0.254,-3.733,-9.373,-0.313,-3.283,2.94,16.38,5.39
,-9.069,-0.11,-3.441,-9.064,-0.754,-3.163,3.92,17.29,3.57
,-9.66,-0.206,-3.348,-8.976,-1.216,-3.151,6.51,16.52,1.54
20594.0,-8.945,-1.144,-3.599,-8.691,0.804,-4.771,9.31,19.04,2.1
,-9.0,-0.579,-4.238,-8.605,0.392,-4.748,13.58,18.48,2.03
,-8.973,0.256,-4.891,-8.954,-0.27,-4.456,14.84,17.29,1.12
,-8.878,0.735,-5.025,-9.263,-0.871,-4.276,12.11,17.43,0.0
20670.0,-9.299,-1.479,-4.219,-8.679,-2.209,-3.994,-2.73,14.56,-4.06
,-8.971,-2.18,-4.121,-9.11,-1.235,-4.398,-2.24,14.35,-2.52
,-8.586,-2.793,-3.9,-9.134,-0.33,-4.52,1.47,16.17,-0.14
,-8.402,-2.84,-3.81,-8.696,0.108,-4.637,9.73,17.71,2.1
20746.0,-8.409,0.156,-4.561,-9.043,-0.991,-4.326,5.11,14.0,4.55
,-8.452,0.043,-4.669,-9.129,-0.833,-4.133,-0.42,13.16,4.83
,-8.547,-0.244,-4.815,-9.15,-0.498,-4.238,-2.8,12.88,4.55
,-8.787,-0.591,-4.554,-8.93,-0.4,-4.357,-3.15,13.58,4.27
20821.0,-8.918,-0.043,-4.47,-8.751,-0.156,-4.872,9.17,12.53,2.73
,-8.684,0.074,-4.688,-8.873,-0.156,-4.927,7.77,11.83,2.03
,-8.605,0.01,-4.63,-8.854,0.005,-5.016,5.11,12.74,1.26
,-8.748,-0.187,-4.633,-8.55,-0.163,-4.949,2.52,13.16,0.42
20897.0,-8.717,-0.512,-4.724,-8.473,-1.352,-5.006,-7.14,11.48,-1.75
,-8.839,-0.835,-4.805,-8.497,-1.527,-4.982,-8.05,10.43,-1.68
,-8.837,-1.058,-4.929,-8.488,-1.697,-5.037,-7.91,9.87,-1.61
,-8.636,-1.33,-4.934,-8.356,-1.912,-4.977,-7.0,9.8,-1.12
20973.0,-8.457,-2.041,-4.8,-8.868,0.134,-4.783,3.78,11.69,4.69
,-8.698,-1.943,-4.681,-8.827,0.718,-4.987,6.37,11.76,5.88
,-8.818,-1.527,-4.592,-8.775,0.907,-4.987,9.66,11.62,6.02
,-8.859,-0.739,-4.637,-8.256,0.881,-5.159,12.39,10.78,5.6
21049.0,-8.157,0.771,-5.329,-9.189,-0.366,-5.039,-4.55,7.91,0.98
,-8.399,0.553,-5.336,-8.854,-0.936,-4.965,-3.92,8.12,0.28
,-8.765,0.328,-5.43,-8.866,-1.484,-4.736,-1.12,7.98,-1.47
,-9.081,-0.081,-5.073,-8.5,-1.656,-5.083,1.47,7.56,-3.85
21124.0,-8.323,-1.589,-5.267,-8.746,-0.426,-5.298,7.07,4.97,-4.06
,-8.327,-1.074,-5.377,-8.839,-0.957,-5.049,9.31,4.83,-3.08
,-8.251,-0.546,-5.492,-8.624,-1.395,-5.226,9.73,4.69,-2.73
,-8.483,-0.299,-5.42,-8.244,-1.656,-5.418,6.72,4.83,-2.73
21200.0,-8.074,-1.907,-5.451,-8.72,-1.173,-5.188,-0.84,0.21,3.36
,-8.026,-2.01,-5.267,-8.705,-1.249,-5.042,3.57,0.84,4.55
,-8.435,-1.653,-5.296,-8.713,-1.117,-4.937,7.7,0.63,5.67
,-8.734,-1.218,-5.422,-8.351,-1.058,-4.817,9.31,-0.91,6.16
21275.0,-7.921,-0.715,-4.996,-8.973,-0.29,-4.855,6.93,-2.24,11.2
,-8.04,-1.139,-4.731,-8.904,-0.414,-4.75,4.69,-1.12,12.46
,-8.375,-1.086,-4.783,-8.921,-0.421,-4.556,6.09,-0.91,12.39
,-8.892,-0.565,-4.925,-8.722,-0.261,-4.556,8.19,-1.75,12.74
21351.0,-8.471,-0.175,-4.602,-8.696,0.208,-5.083,9.03,-0.7,8.82
,-8.655,0.002,-4.767,-8.722,0.108,-5.135,7.21,-0.56,8.47
,-8.595,-0.031,-4.843,-8.792,-0.187,-5.272,5.53,0.14,7.98
,-8.581,0.067,-4.994,-8.885,-0.378,-5.255,5.39,0.63,7.14
21427.0,-8.894,-0.541,-5.03,-8.354,-0.541,-5.164,4.76,2.1,3.01
,-8.737,-0.443,-5.2,-8.449,-0.471,-5.195,4.62,2.17,3.15
,-8.524,-0.313,-5.212,-8.48,-0.404,-5.109,3.29,2.59,3.01
,-8.454,-0.412,-5.181,-8.614,-0.127,-5.298,1.19,3.29,2.52
21503.0,-8.524,-0.062,-5.312,-8.768,-0.684,-5.197,-0.91,5.88,-1.4
,-8.547,-0.103,-5.128,-8.961,-0.696,-5.121,-1.54,6.58,-1.75
,-8.466,-0.249,-5.035,-8.933,-0.603,-5.068,-2.94,6.86,-1.82
,-8.531,-0.459,-5.154,-8.947,-0.632,-5.09,-3.78,6.86,-1.68
21579.0,-8.935,-0.543,-5.018,-8.614,-0.479,-5.209,-2.94,6.65,-2.38
,-8.705,-0.632,-5.044,-8.734,-0.548,-5.214,-4.69,6.02,-1.82
,-8.528,-0.548,-5.193,-8.76,-0.847,-5.13,-6.09,5.81,-1.33
,-8.507,-0.409,-5.312,-8.813,-0.838,-5.104,-6.23,6.02,-1.33
21654.0,-8.705,-0.818,-5.205,-8.591,-0.455,-5.535,-6.79,3.43,1.54
,-8.49,-0.835,-5.195,-8.571,-0.163,-5.614,-6.93,3.29,2.31
,-8.555,-0.79,-5.319,-8.547,-0.187,-5.492,-5.88,2.73,2.66
,-8.492,-0.723,-5.384,-8.641,-0.203,-5.485,-4.13,2.17,3.08
21730.0,-8.679,-0.06,-5.53,-8.619,-0.524,-5.453,-2.8,-1.05,2.52
,-8.502,-0.177,-5.403,-8.78,-0.617,-5.451,-2.87,-2.1,1.68
,-8.557,-0.184,-5.281,-8.763,-0.629,-5.578,-3.22,-2.94,1.12
,-8.469,-0.266,-5.482,-8.547,-0.579,-5.559,-3.78,-3.71,0.56
21806.0,-8.334,-0.5,-5.611,-8.914,-0.342,-5.303,-0.07,-7.35,-0.91
,-8.327,-0.507,-5.465,-8.756,-0.524,-5.221,1.61,-7.21,-1.19
,-8.555,-0.443,-5.353,-8.547,-0.756,-5.257,2.73,-7.28,-1.47
,-8.804,-0.404,-5.286,-8.311,-0.811,-5.135,3.36,-7.56,-1.82
21882.0,-8.081,-0.598,-5.083,-8.684,-0.034,-5.054,7.63,-9.52,-0.35
,-8.466,-0.553,-4.824,-8.619,-0.101,-5.078,10.57,-9.66,-0.77
,-8.71,-0.302,-5.006,-8.703,-0.28,-4.764,12.04,-10.08,-1.05
,-8.756,-0.244,-4.951,-8.583,-0.292,-4.738,10.64,-10.29,-1.12
21957.0,-8.66,-0.309,-4.743,-8.667,-0.28,-4.736,11.62,-5.81,-2.94
,-8.77,-0.431,-4.652,-8.354,-0.273,-4.929,13.16,-5.11,-3.36
,-8.916,-0.412,-4.472,-8.392,-0.402,-4.886,14.28,-4.97,-3.43
,-9.007,-0.457,-4.338,-8.512,-0.56,-4.748,13.02,-6.86,-3.08
22033.0,-8.674,-0.565,-4.511,-8.751,-1.182,-4.664,10.08,-7.14,-3.78
,-8.684,-0.639,-4.389,-8.782,-1.237,-4.846,9.59,-5.74,-3.43
,-8.641,-0.814,-4.374,-8.837,-1.295,-4.781,8.26,-4.62,-2.45
,-8.626,-1.357,-4.386,-8.744,-1.249,-4.606,6.37,-3.85,-1.47
22108.0,-8.658,-1.137,-4.542,-8.811,-0.759,-4.676,17.15,-3.5,3.08
,-8.607,-1.06,-4.578,-8.811,-0.694,-4.685,16.45,-4.27,4.2
,-8.746,-1.027,-4.654,-8.681,-0.615,-4.616,14.56,-5.6,4.97
,-8.789,-0.957,-4.671,-8.713,-0.373,-4.563,13.23,-6.72,5.67
22184.0,-8.66,-0.309,-4.369,-9.143,0.258,-4.183,10.15,-9.31,5.81
,-8.825,-0.242,-4.228,-8.959,0.196,-4.147,11.06,-9.17,5.25
,-8.973,-0.139,-4.235,-8.933,0.06,-3.9,11.97,-9.94,4.34
,-9.083,0.053,-4.223,-8.976,-0.148,-3.908,12.25,-10.57,3.5
22260.0,-8.918,-0.33,-3.898,-9.117,-0.467,-4.073,2.45,-10.78,-1.61
,-8.875,-0.335,-3.881,-9.122,-0.684,-4.051,1.61,-10.92,-1.89
,-8.904,-0.313,-4.006,-8.926,-0.921,-4.133,0.56,-11.48,-2.1
,-9.076,-0.335,-4.137,-8.849,-0.988,-4.14,-1.05,-12.04,-2.52
22336.0,-9.0,-0.878,-4.111,-8.753,-1.266,-3.843,2.24,-10.64,-3.36
,-8.966,-0.914,-4.022,-8.921,-1.036,-3.96,1.05,-10.99,-2.73
,-8.871,-1.089,-3.953,-9.115,-0.828,-3.944,0.42,-10.71,-2.31
,-8.734,-1.249,-3.824,-8.995,-0.708,-3.972,0.84,-10.15,-1.89
22411.0,-8.94,-0.708,-4.03,-9.189,-0.873,-3.408,1.12,-10.78,-0.49
,-8.866,-0.957,-3.893,-9.313,-0.617,-3.604,0.35,-10.57,-0.49
,-8.88,-1.027,-3.752,-9.34,-0.373,-3.812,1.89,-9.87,-0.21
,-9.115,-0.967,-3.606,-9.158,-0.34,-4.044,4.41,-9.38,0.14
22487.0,-8.921,-0.383,-4.054,-9.27,-0.739,-3.29,1.33,-10.01,-0.42
,-8.827,-0.603,-3.908,-9.368,-0.531,-3.494,1.26,-9.66,-0.7
,-8.78,-0.591,-3.9,-9.21,-0.5,-3.455,1.05,-9.45,-1.19
,-8.897,-0.723,-3.331,-9.146,-0.474,-3.905,1.4,-8.4,-1.05
22562.0,-8.976,-0.744,-4.07,-9.134,-0.648,-3.044,-4.76,-9.03,-1.68
,-8.918,-1.117,-3.865,-9.246,-0.306,-2.982,-3.36,-8.12,-1.26
,-8.978,-1.283,-3.46,-9.22,-0.316,-2.876,1.19,-6.86,-0.7
,-9.062,-1.053,-3.23,-9.246,-0.658,-2.79,5.32,-6.3,-0.56
22638.0,-9.191,-0.861,-2.769,-9.124,-0.66,-3.41,-3.43,-3.36,-1.4
,-9.28,-0.962,-2.737,-9.107,-0.766,-3.451,-1.54,-1.89,-1.19
,-9.277,-0.811,-2.943,-9.072,-0.952,-3.558,-0.35,-1.26,-1.4
,-9.22,-0.672,-3.092,-9.095,-0.952,-3.553,-0.91,-1.12,-1.47
22714.0,-9.143,-0.933,-3.57,-9.241,-0.859,-3.403,-1.33,0.07,-0.56
,-9.158,-0.816,-3.479,-9.148,-0.838,-3.503,-0.98,0.49,-0.35
,-9.232,-0.778,-3.498,-9.148,-0.811,-3.647,-1.4,0.7,-0.21
,-9.194,-0.816,-3.372,-9.165,-0.725,-3.754,-1.61,0.77,-0.21
22790.0,-9.148,-0.639,-3.884,-9.143,-0.596,-4.554,-3.85,0.28,-0.28
,-9.177,-0.68,-3.872,-8.99,-0.615,-4.582,-4.06,0.14,-0.42
,-9.249,-0.61,-4.118,-8.954,-0.938,-4.346,-3.71,-0.42,-0.49
,-9.239,-0.589,-4.307,-8.916,-1.213,-3.963,-3.92,-1.47,-0.63
22866.0,-9.143,-1.235,-3.652,-9.194,-0.534,-3.431,2.45,-3.71,0.21
,-9.356,-1.031,-3.472,-9.131,-0.715,-3.206,5.32,-3.92,0.49
,-9.454,-0.615,-3.721,-9.165,-0.713,-3.192,4.9,-4.55,0.28
,-9.284,-0.493,-3.587,-9.32,-0.503,-3.309,2.31,-5.04,0.14
22941.0,-9.351,-0.514,-3.147,-9.261,-0.565,-3.312,2.45,-2.73,0.35
,-9.34,-0.718,-3.032,-9.208,-0.634,-3.175,2.45,-1.96,0.63
,-9.308,-0.802,-3.151,-9.246,-0.718,-3.089,3.43,-1.68,0.63
,-9.232,-0.79,-3.183,-9.284,-0.828,-2.96,4.62,-1.4,0.77
23017.0,-9.45,-0.842,-2.85,-9.139,-0.976,-3.336,1.19,1.61,0.49
,-9.533,-0.718,-3.041,-9.201,-1.098,-3.458,1.33,1.89,0.42
,-9.538,-0.625,-3.319,-9.282,-1.003,-3.687,0.35,1.4,0.0
,-9.318,-0.727,-3.451,-9.363,-0.534,-4.101,-0.77,1.75,0.0
23093.0,-9.241,-0.44,-4.286,-9.153,-0.914,-3.8,3.15,0.63,0.63
,-9.062,-0.56,-4.436,-9.337,-0.809,-3.446,1.19,-0.07,0.49
,-8.882,-0.854,-4.25,-9.471,-0.67,-3.422,1.54,-0.56,0.7
,-8.985,-0.96,-4.027,-9.361,-0.584,-3.408,4.62,-0.42,1.19
23169.0,-9.275,-0.608,-3.587,-9.22,-0.857,-3.235,2.8,-2.73,0.42
,-9.182,-0.782,-3.63,-9.371,-0.754,-3.113,1.19,-2.73,0.42
,-9.112,-0.835,-3.549,-9.452,-0.572,-3.238,1.96,-2.31,0.7
,-9.129,-0.924,-3.441,-9.294,-0.581,-3.252,3.78,-2.31,0.91
23244.0,-9.184,-0.73,-3.065,-9.342,-0.61,-3.305,4.69,-0.84,1.54
,-9.198,-0.914,-3.063,-9.234,-0.797,-3.252,5.32,-0.07,1.75
,-9.308,-0.83,-3.108,-9.213,-0.799,-3.35,6.44,0.28,1.75
,-9.351,-0.653,-3.23,-9.215,-0.804,-3.4,6.65,0.21,1.68
23320.0,-9.217,-0.73,-3.417,-9.337,-0.67,-3.477,5.46,1.47,1.75
,-9.234,-0.747,-3.276,-9.244,-0.73,-3.46,5.6,1.61,1.89
,-9.292,-0.718,-3.343,-9.225,-0.775,-3.503,5.67,1.75,1.75
,-9.296,-0.646,-3.355,-9.232,-0.713,-3.293,5.18,1.61,1.68
23395.0,-9.371,-0.62,-3.24,-9.184,-0.818,-3.656,4.34,2.03,1.19
,-9.44,-0.517,-3.41,-9.088,-0.878,-3.711,3.01,1.82,0.84
,-9.399,-0.577,-3.448,-9.172,-0.785,-3.781,1.47,1.4,0.56
,-9.277,-0.675,-3.625,-9.335,-0.751,-3.69,-0.07,1.05,0.35
23471.0,-9.332,-0.739,-3.599,-9.28,-0.687,-3.518,4.2,0.56,0.91
,-9.328,-0.706,-3.582,-9.246,-0.756,-3.525,4.55,0.35,0.98
,-9.304,-0.744,-3.594,-9.225,-0.811,-3.434,5.39,0.21,1.05
,-9.265,-0.711,-3.532,-9.289,-0.826,-3.367,5.95,0.21,1.26
23547.0,-9.299,-0.816,-3.331,-9.313,-0.792,-3.204,4.62,0.0,0.91
,-9.261,-0.835,-3.168,-9.296,-0.751,-3.223,4.76,0.14,0.98
,-9.301,-0.732,-3.278,-9.299,-0.727,-3.285,4.62,0.28,0.84
,-9.268,-0.761,-3.175,-9.294,-0.718,-3.293,4.34,0.49,0.98
23623.0,-9.275,-0.72,-3.257,-9.323,-0.773,-3.357,3.15,1.26,0.84
,-9.325,-0.727,-3.297,-9.253,-0.766,-3.439,3.01,1.54,0.77
,-9.323,-0.744,-3.302,-9.265,-0.797,-3.391,2.94,1.61,0.7
,-9.301,-0.725,-3.333,-9.318,-0.732,-3.422,3.01,1.61,0.63
23699.0,-9.268,-0.687,-3.46,-9.244,-0.78,-3.489,4.2,1.89,0.63
,-9.308,-0.72,-3.453,-9.287,-0.804,-3.455,3.64,1.82,0.7
,-9.275,-0.735,-3.434,-9.258,-0.785,-3.486,3.22,1.96,0.7
,-9.32,-0.742,-3.484,-9.253,-0.797,-3.51,2.73,1.47,0.49
23774.0,-9.263,-0.754,-3.396,-9.27,-0.797,-3.429,2.1,1.54,0.42
,-9.313,-0.804,-3.453,-9.241,-0.759,-3.367,2.1,1.47,0.35
,-9.308,-0.794,-3.475,-9.27,-0.747,-3.396,2.1,1.12,0.35
,-9.289,-0.771,-3.405,-9.251,-0.675,-3.398,2.24,1.19,0.42
23850.0,-9.294,-0.737,-3.482,-9.222,-0.857,-3.486,2.03,1.26,0.35
,-9.225,-0.799,-3.271,-9.206,-0.833,-3.381,1.82,1.47,0.28
,-9.237,-0.704,-3.405,-9.241,-0.852,-3.314,1.61,1.54,0.28
,-9.251,-0.811,-3.338,-9.294,-0.821,-3.379,0.63,1.4,0.14
23926.0,-9.356,-0.72,-3.302,-9.246,-0.766,-3.618,2.17,1.61,0.49
,-9.351,-0.663,-3.443,-9.261,-0.701,-3.539,2.1,1.4,0.49
,-9.304,-0.622,-3.427,-9.225,-0.747,-3.57,1.26,1.4,0.35
,-9.273,-0.768,-3.427,-9.217,-0.823,-3.494,0.7,1.05,0.21
24002.0,-9.261,-0.809,-3.417,-9.313,-0.742,-3.364,0.77,0.63,0.28
,-9.28,-0.809,-3.269,-9.33,-0.804,-3.36,0.98,0.91,0.28
,-9.354,-0.804,-3.252,-9.313,-0.888,-3.348,1.33,0.7,0.14
,-9.296,-0.73,-3.266,-9.301,-0.873,-3.417,1.26,0.7,0.28
24077.0,-9.222,-0.885,-3.36,-9.311,-0.704,-3.439,1.68,1.05,0.77
,-9.28,-0.895,-3.343,-9.251,-0.771,-3.405,2.52,1.33,0.91
,-9.301,-0.802,-3.324,-9.203,-0.782,-3.242,3.22,1.33,0.98
,-9.311,-0.737,-3.424,-9.222,-0.838,-3.065,3.36,1.05,1.05
24153.0,-9.294,-0.78,-3.029,-9.375,-0.826,-2.57,5.04,2.24,1.61
,-9.311,-0.806,-2.828,-9.347,-0.66,-2.804,4.41,2.87,1.61
,-9.323,-0.849,-2.599,-9.313,-0.663,-3.128,4.06,3.71,1.89
,-9.277,-0.854,-2.546,-9.141,-0.756,-3.364,3.92,4.55,1.96
24228.0,-9.052,-0.893,-3.427,-9.411,-0.692,-3.3,-0.07,6.65,2.24
,-9.019,-0.936,-3.539,-9.32,-0.548,-3.209,1.54,7.28,2.59
,-9.031,-1.017,-3.398,-9.356,-0.529,-3.161,4.13,8.05,3.22
,-9.237,-1.005,-3.013,-9.361,-0.471,-3.254,7.63,9.17,3.92
24304.0,-9.375,-0.388,-3.551,-9.17,-0.811,-3.448,3.08,9.38,2.87
,-9.304,-0.297,-3.697,-9.17,-0.931,-2.943,1.54,9.03,2.38
,-9.208,-0.268,-3.865,-9.428,-0.503,-2.855,-1.4,8.54,1.82
,-9.131,-0.538,-3.673,-9.34,0.101,-3.386,-4.55,8.4,1.61
24380.0,-9.241,0.349,-3.759,-8.959,-1.019,-3.683,-7.07,5.32,-1.89
,-9.107,0.208,-3.747,-8.973,-0.835,-3.888,-12.6,5.11,-2.59
,-9.052,-0.177,-3.463,-9.014,-0.639,-4.027,-16.03,6.3,-2.52
,-9.141,-0.778,-3.489,-9.098,-0.921,-3.924,-14.84,6.93,-2.59
24456.0,-9.148,-1.173,-3.635,-9.306,0.055,-4.573,-5.81,6.44,-2.45
,-9.139,-1.309,-3.125,-9.016,0.067,-4.901,-1.19,7.77,-1.4
,-9.368,-1.022,-3.486,-8.823,-0.593,-4.702,4.2,7.07,-1.26
,-9.361,-0.433,-3.982,-8.701,-1.06,-4.142,5.32,4.27,-2.1
24531.0,-8.887,-1.29,-4.061,-9.141,-1.84,-3.027,-4.41,3.71,-2.38
,-8.957,-1.086,-4.027,-9.474,-1.96,-2.747,-0.63,1.75,-2.87
,-8.997,-1.134,-3.886,-9.368,-1.56,-2.982,-0.28,2.31,-2.17
,-9.155,-1.455,-3.515,-9.402,-1.022,-3.312,-1.82,4.34,-0.84
24607.0,-9.363,-0.682,-3.958,-8.768,-0.677,-3.565,7.42,4.9,3.5
,-9.045,-0.503,-4.046,-9.481,-0.751,-3.711,4.69,5.32,3.5
,-8.598,-0.469,-3.869,-9.689,-0.773,-3.97,3.71,7.49,3.71
,-8.452,-0.548,-3.661,-9.457,-0.854,-4.025,4.48,9.17,3.5
24682.0,-9.002,-0.826,-3.668,-9.292,-0.127,-3.984,4.83,8.75,3.57
,-8.818,-0.826,-3.386,-9.208,0.151,-4.039,6.72,10.29,3.22
,-8.966,-0.744,-3.238,-8.976,0.031,-4.085,9.1,10.5,3.15
,-9.27,-0.471,-3.642,-8.681,-0.208,-3.8,10.01,8.96,2.87
24758.0,-8.928,-0.608,-3.496,-8.942,-0.507,-3.51,1.96,10.85,0.84
,-9.048,-0.806,-3.312,-8.976,-0.675,-3.403,3.43,9.87,0.77
,-9.222,-0.646,-3.386,-8.887,-0.799,-3.472,4.62,9.59,0.91
,-9.148,-0.55,-3.415,-8.88,-0.773,-3.587,4.13,9.38,1.19
24834.0,-8.847,-0.325,-3.776,-8.794,-0.498,-3.996,8.19,14.49,0.0
,-8.995,-0.007,-4.063,-8.677,-0.802,-3.824,8.4,14.56,-0.7
,-9.136,0.041,-4.212,-8.887,-0.986,-3.687,5.39,14.91,-1.4
,-9.05,-0.179,-4.147,-9.002,-1.007,-4.018,2.45,16.17,-1.61
24910.0,-9.062,-1.036,-4.3,-8.885,-0.445,-4.511,5.88,18.55,-0.35
,-9.076,-0.761,-4.403,-8.964,-0.593,-4.69,7.63,18.62,-0.28
,-9.002,-0.512,-4.547,-8.837,-0.62,-4.712,8.12,18.62,-0.63
,-8.72,-0.426,-4.484,-8.681,-0.55,-4.867,6.86,18.06,-1.19
24986.0,-8.646,-0.447,-4.956,-9.04,-0.699,-4.716,-0.28,15.96,-2.31
,-8.552,-0.443,-4.91,-9.012,-0.744,-4.762,-0.35,16.66,-3.01
,-8.622,-0.672,-4.592,-8.77,-0.835,-4.834,-0.14,17.15,-3.5
,-8.866,-0.78,-4.561,-8.665,-0.878,-4.733,0.28,16.38,-3.36
25061.0,-8.488,-1.05,-4.8,-8.686,-1.541,-4.865,2.1,13.44,-0.98
,-8.614,-1.173,-4.786,-8.631,-1.369,-5.016,2.73,12.95,-0.7
,-8.614,-1.302,-4.886,-8.653,-1.11,-5.018,3.01,12.46,0.0
,-8.667,-1.51,-4.826,-8.667,-0.72,-5.085,3.5,12.53,0.98
25137.0,-8.696,-0.479,-5.236,-8.437,-1.78,-5.13,4.69,9.73,0.0
,-8.605,-0.34,-5.425,-8.514,-2.0,-5.08,2.03,8.61,-0.07
,-8.629,-0.586,-5.353,-8.619,-1.706,-5.109,-0.63,8.12,0.21
,-8.459,-1.163,-5.441,-8.612,-1.23,-5.085,-2.94,7.91,0.7
25213.0,-8.65,-1.115,-5.121,-8.827,-0.488,-4.822,9.66,4.06,3.99
,-8.49,-1.194,-5.123,-8.684,0.218,-5.236,7.49,3.57,4.69
,-8.638,-1.342,-4.822,-8.88,0.517,-4.85,6.93,4.83,5.04
,-8.844,-1.106,-4.69,-8.811,0.627,-4.987,8.12,5.18,5.11
25289.0,-8.624,0.503,-5.195,-8.591,-1.292,-4.836,-1.47,1.33,0.35
,-8.569,0.151,-5.303,-8.705,-1.469,-4.745,-3.85,1.54,0.07
,-8.55,-0.491,-4.987,-8.658,-1.228,-4.884,-4.97,1.75,0.07
,-8.504,-0.986,-5.004,-8.629,-0.883,-4.999,-3.99,1.68,-0.21
25364.0,-8.67,-0.629,-5.209,-8.622,-1.606,-4.803,8.47,0.49,-0.84
,-8.598,-0.337,-5.288,-8.665,-1.831,-4.771,6.93,-0.35,-0.63
,-8.741,-0.546,-5.188,-8.643,-1.797,-4.86,3.08,-0.63,0.21
,-8.552,-1.218,-4.972,-8.576,-1.263,-4.975,0.07,-0.63,1.61
25440.0,-8.576,-1.223,-4.798,-8.729,-0.907,-4.628,1.82,-0.28,5.88
,-8.32,-0.931,-5.037,-9.091,-0.479,-4.657,0.56,-1.12,7.63
,-8.258,-1.065,-5.016,-9.072,-0.33,-4.743,-0.77,-1.19,9.24
,-8.421,-1.28,-4.781,-8.849,-0.412,-4.877,-0.49,-0.21,10.01
25515.0,-8.787,-0.519,-4.824,-8.591,0.464,-5.047,0.0,0.7,7.07
,-8.71,-0.479,-4.815,-8.727,0.036,-4.946,1.4,1.12,6.72
,-8.665,-0.184,-4.671,-8.765,-0.144,-5.023,2.8,1.47,6.37
,-8.552,0.335,-4.922,-8.794,-0.242,-5.159,2.38,1.26,5.88
25591.0,-8.753,-0.402,-5.219,-8.519,-0.727,-4.994,-0.7,3.43,0.7
,-8.753,-0.816,-5.133,-8.648,-0.464,-4.994,0.0,3.78,0.28
,-8.567,-1.275,-4.915,-8.473,-0.38,-5.037,1.75,4.83,0.21
,-8.476,-1.161,-4.994,-8.524,-0.471,-5.13,4.69,6.02,0.35
25667.0,-8.562,-0.589,-4.975,-8.588,-0.61,-5.305,0.77,7.21,0.35
,-8.713,-0.493,-5.054,-8.777,-0.694,-5.078,0.14,6.93,0.28
,-8.751,-0.419,-5.162,-8.832,-0.55,-5.037,-1.12,6.65,0.21
,-8.626,-0.596,-5.135,-8.71,-0.235,-5.25,-2.24,6.72,0.21
25743.0,-8.667,-0.156,-5.262,-8.689,-0.967,-5.269,-2.24,6.86,-1.54
,-8.667,-0.263,-5.298,-8.65,-0.964,-5.104,-3.64,6.65,-2.17
,-8.751,-0.479,-5.377,-8.622,-1.251,-4.836,-4.97,6.23,-2.17
,-8.729,-0.861,-5.315,-8.397,-1.208,-4.879,-5.6,5.95,-2.03
25818.0,-8.406,-1.048,-4.92,-8.617,-0.493,-5.346,-0.28,4.48,2.31
,-8.507,-0.794,-5.135,-8.634,-0.639,-5.296,0.49,3.99,3.36
,-8.634,-0.723,-5.296,-8.591,-0.72,-5.157,-0.21,3.57,3.92
,-8.636,-0.524,-5.36,-8.658,-0.775,-4.956,-0.49,2.94,4.06
25894.0,-8.514,-0.603,-4.992,-8.732,-0.38,-5.367,-1.68,2.03,2.87
,-8.337,-0.457,-5.236,-8.6,-0.464,-5.363,-0.91,1.47,2.87
,-8.476,-0.407,-5.341,-8.638,-0.62,-5.118,-0.49,1.61,2.66
,-8.691,-0.457,-5.286,-8.593,-0.656,-5.24,-0.28,1.33,2.17
25970.0,-8.397,-0.694,-5.382,-8.452,-0.218,-5.367,1.75,-0.21,1.19
,-8.425,-0.672,-5.255,-8.459,-0.086,-5.3,1.89,-0.49,1.47
,-8.538,-0.648,-5.305,-8.473,-0.084,-5.269,1.89,-1.82,1.26
,-8.564,-0.567,-5.396,-8.732,-0.156,-5.24,2.59,-2.87,0.84
26046.0,-8.823,-0.134,-5.236,-8.378,-0.869,-5.226,3.15,-2.52,-1.96
,-8.677,-0.22,-5.391,-8.691,-0.986,-5.092,2.38,-2.45,-2.31
,-8.557,-0.452,-5.226,-8.471,-0.969,-5.31,2.24,-2.66,-2.8
,-8.349,-0.522,-5.418,-8.524,-1.146,-5.166,4.41,-2.38,-3.29
26122.0,-8.516,-1.309,-5.13,-8.339,-1.091,-5.226,7.0,-5.11,-0.21
,-8.567,-1.268,-5.109,-8.354,-1.074,-5.063,7.98,-4.76,0.77
,-8.555,-1.129,-5.205,-8.433,-1.139,-4.903,8.61,-4.62,1.54
,-8.44,-1.067,-5.272,-8.614,-1.027,-4.688,8.19,-4.41,2.59
26197.0,-8.725,-0.759,-4.702,-8.437,-0.447,-4.683,9.59,-3.15,6.23
,-8.677,-0.522,-4.807,-8.413,-0.246,-4.855,8.89,-4.41,6.65
,-8.815,-0.424,-4.728,-8.512,-0.503,-4.726,7.49,-5.11,7.07
,-8.648,-0.251,-4.805,-8.686,-0.481,-4.685,6.65,-5.81,7.42
26273.0,-8.842,-0.297,-4.618,-8.677,0.232,-4.752,9.94,-6.16,6.37
,-8.957,-0.244,-4.637,-8.624,0.156,-4.635,10.5,-6.37,5.74
,-8.904,-0.029,-4.738,-8.55,0.098,-4.637,10.29,-6.93,4.9
,-8.827,0.254,-4.834,-8.579,0.002,-4.647,9.1,-7.7,4.34
26349.0,-8.729,-0.072,-4.599,-8.856,0.156,-4.726,0.77,-8.47,1.26
,-8.933,-0.132,-4.549,-8.626,0.249,-4.762,-0.56,-9.1,0.63
,-9.016,-0.16,-4.427,-8.567,0.074,-4.743,-1.33,-8.82,0.07
,-8.981,-0.089,-4.513,-8.598,-0.194,-4.831,-2.45,-9.45,-0.91
26425.0,-8.703,-0.517,-4.692,-8.842,-0.983,-4.501,-8.47,-10.78,-3.78
,-8.835,-0.857,-4.59,-8.792,-1.041,-4.527,-7.14,-11.48,-3.85
,-8.973,-0.976,-4.681,-8.76,-1.036,-4.511,-5.11,-11.83,-3.85
,-8.842,-0.895,-4.594,-8.677,-1.007,-4.623,-3.85,-11.76,-3.78
26500.0,-8.658,-0.995,-4.661,-8.837,-0.912,-4.104,-4.27,-11.76,-0.56
,-8.72,-0.955,-4.537,-8.734,-0.893,-4.156,-3.01,-11.55,0.14
,-8.818,-0.893,-4.319,-8.722,-0.914,-3.977,-1.12,-11.55,0.42
,-8.859,-0.871,-4.231,-8.806,-0.694,-3.97,0.28,-11.41,0.91
26576.0,-8.875,-0.29,-3.917,-8.746,-0.333,-3.829,9.94,-9.66,3.85
,-9.076,-0.055,-3.848,-8.765,-0.282,-3.783,9.31,-9.38,3.64
,-9.122,-0.077,-3.592,-8.988,-0.282,-3.604,7.28,-8.96,3.29
,-8.995,-0.208,-3.812,-9.076,-0.409,-3.276,4.9,-9.1,2.45
26651.0,-9.103,-0.369,-3.135,-8.871,-0.715,-3.994,5.25,-5.67,0.56
,-9.098,-0.17,-3.329,-8.899,-0.637,-4.099,3.15,-5.53,0.0
,-9.048,-0.184,-3.671,-8.938,-0.404,-4.322,-0.35,-5.67,-0.14
,-8.88,-0.443,-3.905,-8.89,-0.249,-4.267,-3.43,-5.46,0.28
26727.0,-8.933,-0.273,-3.975,-9.079,-0.261,-4.209,1.82,-4.41,-0.56
,-9.052,-0.488,-3.831,-8.988,-0.354,-4.257,0.84,-4.13,-0.91
,-9.119,-0.555,-3.664,-8.923,-0.787,-4.231,0.84,-3.92,-1.4
,-9.189,-0.392,-3.994,-8.928,-0.96,-3.867,0.0,-4.55,-1.75
26803.0,-9.093,-0.847,-3.709,-9.146,-0.388,-3.673,5.67,-2.73,-0.77
,-9.136,-0.378,-3.664,-9.093,-0.443,-3.747,7.07,-2.87,-1.12
,-9.217,-0.053,-3.685,-9.131,-0.479,-3.96,4.76,-3.08,-1.19
,-9.213,-0.096,-3.69,-8.957,-0.44,-4.025,0.91,-2.87,-1.05
26879.0,-9.005,-0.519,-4.161,-9.112,-0.617,-3.874,-1.96,-1.4,-1.26
,-9.007,-0.615,-4.264,-9.105,-0.567,-3.537,-1.82,-1.61,-0.91
,-9.019,-0.711,-3.975,-9.083,-0.433,-3.664,0.0,-1.26,-0.49
,-9.117,-0.629,-3.886,-9.091,-0.337,-3.575,2.03,-1.26,-0.7
26955.0,-9.155,-0.258,-3.754,-9.072,-0.67,-3.697,0.63,-1.12,-1.61
,-9.038,-0.318,-3.783,-9.098,-0.541,-3.491,-1.47,-1.05,-1.82
,-9.093,-0.526,-3.766,-9.15,-0.359,-3.654,-1.4,-0.63,-1.54
,-9.124,-0.634,-3.802,-9.103,-0.39,-3.79,0.14,-0.63,-1.4
27030.0,-8.99,-0.512,-3.833,-9.182,-0.66,-3.661,-0.84,0.14,-1.82
,-8.978,-0.718,-3.805,-9.093,-0.481,-3.774,-0.91,0.49,-1.61
,-9.019,-0.936,-3.676,-9.024,-0.543,-3.805,1.12,0.98,-1.26
,-9.112,-0.878,-3.568,-8.952,-0.694,-3.929,3.92,1.68,-0.7
27106.0,-8.89,-0.775,-3.812,-9.06,-0.201,-4.022,4.34,2.17,0.0
,-8.964,-0.811,-3.637,-9.009,-0.519,-4.097,5.88,2.59,0.0
,-9.194,-0.586,-3.625,-8.957,-0.921,-4.221,6.51,2.59,-0.21
,-9.261,-0.268,-3.917,-8.978,-1.067,-4.087,4.9,2.03,-0.63
27182.0,-9.062,-0.909,-4.19,-9.045,-0.782,-3.766,4.62,1.61,0.49
,-9.112,-0.684,-4.178,-9.098,-0.715,-3.845,6.02,1.54,0.91
,-9.124,-0.565,-4.063,-9.117,-0.55,-3.953,5.6,1.33,1.12
,-9.1,-0.656,-3.972,-9.086,-0.378,-4.161,5.04,1.4,1.47
27258.0,-9.043,-0.392,-4.379,-9.122,-0.675,-3.948,3.01,-0.14,1.26
,-8.969,-0.596,-4.515,-9.158,-0.565,-3.79,2.45,-0.42,1.4
,-8.969,-0.797,-4.274,-9.215,-0.364,-3.783,3.43,-0.42,1.75
,-9.0,-0.861,-4.08,-9.158,-0.266,-3.79,5.88,-0.42,2.03
27333.0,-9.146,-0.297,-3.977,-9.213,-0.665,-3.501,3.85,-1.05,1.4
,-9.026,-0.44,-3.917,-9.249,-0.519,-3.542,2.94,-0.91,1.26
,-9.083,-0.603,-3.819,-9.198,-0.361,-3.702,3.36,-0.7,1.19
,-9.117,-0.684,-3.618,-9.057,-0.325,-4.025,4.41,-0.07,1.33
27409.0,-8.995,-0.514,-4.164,-9.043,-0.522,-3.865,-1.19,-0.42,0.42
,-8.981,-0.742,-4.245,-9.148,-0.519,-3.628,-0.56,-0.49,0.56
,-8.99,-0.766,-4.164,-9.215,-0.546,-3.599,2.1,-0.42,0.84
,-9.081,-0.605,-4.073,-9.251,-0.464,-3.654,3.99,-0.7,1.05
27484.0,-9.155,-0.464,-4.008,-9.098,-0.692,-4.056,0.0,-1.05,0.28
,-9.081,-0.553,-4.085,-9.15,-0.495,-3.915,-1.05,-1.12,0.35
,-9.067,-0.732,-4.066,-9.143,-0.476,-3.709,-0.84,-1.19,0.35
,-9.098,-0.799,-4.097,-9.17,-0.5,-3.704,1.75,-0.7,0.84
27560.0,-9.139,-0.483,-3.685,-9.136,-0.517,-3.599,3.01,-1.12,0.84
,-9.119,-0.562,-3.642,-9.105,-0.51,-3.613,2.52,-0.84,0.84
,-9.155,-0.538,-3.743,-9.196,-0.536,-3.573,2.52,-0.91,0.7
,-9.105,-0.565,-3.702,-9.172,-0.471,-3.757,2.87,-0.56,0.7
27636.0,-9.11,-0.488,-3.86,-9.232,-0.51,-3.673,0.77,-0.14,0.28
,-9.067,-0.62,-3.845,-9.258,-0.481,-3.709,0.49,0.28,0.35
,-9.064,-0.715,-3.774,-9.232,-0.479,-3.855,1.4,0.49,0.42
,-9.146,-0.656,-3.699,-9.127,-0.593,-3.903,2.73,0.7,0.56
27712.0,-9.04,-0.646,-4.001,-9.117,-0.531,-3.704,0.35,0.35,0.42
,-9.067,-0.706,-3.987,-9.16,-0.522,-3.647,1.89,0.56,0.63
,-9.167,-0.653,-3.927,-9.182,-0.467,-3.62,3.29,0.35,0.7
,-9.165,-0.598,-3.836,-9.213,-0.481,-3.676,4.13,0.28,0.77
27787.0,-9.217,-0.548,-3.731,-9.05,-0.51,-4.161,1.54,0.49,0.42
,-9.191,-0.601,-3.824,-9.009,-0.55,-4.073,1.96,0.42,0.28
,-9.17,-0.601,-4.011,-9.119,-0.591,-3.9,2.52,0.21,0.35
,-9.1,-0.524,-4.14,-9.191,-0.627,-3.795,3.08,-0.07,0.49
27863.0,-9.234,-0.567,-3.695,-9.095,-0.648,-3.534,4.55,-0.7,0.42
,-9.208,-0.593,-3.704,-9.119,-0.67,-3.429,4.2,-0.98,0.28
,-9.16,-0.615,-3.709,-9.191,-0.622,-3.386,3.78,-0.84,0.28
,-9.177,-0.651,-3.601,-9.232,-0.548,-3.463,3.92,-0.63,0.35
27938.0,-9.261,-0.483,-3.51,-9.107,-0.601,-3.759,3.22,0.98,0.21
,-9.246,-0.457,-3.628,-9.127,-0.589,-3.819,2.31,0.98,0.0
,-9.122,-0.526,-3.731,-9.165,-0.579,-3.817,1.61,0.84,-0.14
,-9.141,-0.608,-3.745,-9.134,-0.653,-3.599,1.61,1.12,-0.21
28014.0,-9.182,-0.586,-3.709,-9.179,-0.584,-3.896,2.73,1.26,-0.14
,-9.201,-0.57,-3.752,-9.141,-0.644,-3.886,2.38,1.19,-0.14
,-9.191,-0.481,-3.798,-9.153,-0.668,-3.979,1.96,1.12,-0.28
,-9.225,-0.534,-3.855,-9.127,-0.625,-3.965,1.26,0.98,-0.42
28090.0,-9.162,-0.66,-3.946,-9.203,-0.541,-3.721,2.24,0.07,-0.14
,-9.064,-0.72,-3.929,-9.229,-0.522,-3.568,2.24,-0.07,-0.07
,-9.057,-0.72,-3.838,-9.237,-0.524,-3.546,3.5,-0.14,0.0
,-9.122,-0.608,-3.762,-9.186,-0.531,-3.625,4.41,-0.07,0.07
28166.0,-9.16,-0.675,-3.616,-9.208,-0.486,-3.53,2.24,0.49,-0.07
,-9.107,-0.67,-3.63,-9.17,-0.536,-3.482,2.45,0.42,-0.14
,-9.115,-0.589,-3.652,-9.203,-0.541,-3.458,3.22,0.56,-0.14
,-9.139,-0.565,-3.525,-9.189,-0.62,-3.446,3.43,1.05,-0.14
28242.0,-9.129,-0.715,-3.412,-9.158,-0.617,-3.697,0.84,2.24,-0.56
,-9.203,-0.749,-3.463,-9.167,-0.641,-3.75,1.89,2.52,-0.35
,-9.189,-0.648,-3.542,-9.186,-0.512,-3.75,2.73,2.8,-0.21
,-9.191,-0.603,-3.678,-9.141,-0.503,-3.652,3.29,3.15,-0.14
28317.0,-9.088,-0.522,-3.501,-9.0,-0.797,-4.145,5.67,3.92,0.07
,-9.189,-0.627,-3.436,-8.871,-0.981,-4.269,5.53,4.34,0.07
,-9.239,-0.608,-3.565,-8.878,-1.153,-4.156,5.53,4.34,0.0
,-9.191,-0.613,-3.812,-9.002,-1.137,-3.872,3.5,3.99,-0.21
28393.0,-9.225,-0.893,-3.699,-9.241,-0.682,-3.783,11.13,4.2,2.1
,-9.363,-0.694,-3.604,-9.079,-0.756,-3.707,11.06,3.99,2.1
,-9.397,-0.538,-3.647,-9.06,-0.653,-3.589,8.82,3.57,2.03
,-9.335,-0.445,-3.795,-9.052,-0.354,-3.836,5.04,3.08,1.89
28469.0,-9.057,-0.148,-3.987,-9.007,-1.017,-3.843,-1.75,0.98,0.84
,-9.083,-0.012,-4.338,-9.191,-1.039,-3.532,-3.85,-0.21,0.28
,-9.0,-0.239,-4.336,-9.363,-0.768,-3.549,-6.93,-0.56,-0.14
,-8.947,-0.67,-4.128,-9.241,-0.335,-3.731,-7.77,-0.21,-0.07
28545.0,-9.012,-0.261,-3.714,-9.258,-0.778,-3.618,0.49,0.7,-0.7
,-8.969,-0.641,-3.699,-9.275,-0.462,-4.18,-4.48,0.98,-0.35
,-8.961,-1.199,-3.463,-9.069,-0.543,-4.188,-5.81,1.54,0.21
,-9.122,-1.247,-3.408,-9.014,-0.773,-4.085,-2.59,1.54,0.56
28620.0,-9.007,-0.9,-3.788,-9.392,-0.122,-3.278,-5.11,-0.63,0.21
,-8.916,-0.766,-3.769,-9.371,-0.213,-3.02,0.14,-0.28,-0.07
,-8.914,-0.342,-3.726,-9.349,-0.089,-2.804,4.34,-0.77,-0.91
,-9.15,-0.036,-3.467,-9.347,0.101,-3.001,5.46,-0.42,-1.12
28696.0,-9.452,0.239,-3.329,-8.667,-0.814,-3.467,0.56,0.35,-4.13
,-9.402,0.158,-3.666,-8.732,-0.751,-3.654,-1.75,0.21,-4.97
,-9.34,-0.05,-3.941,-9.026,-0.596,-3.671,-4.13,0.49,-5.53
,-8.993,-0.565,-3.963,-9.227,-0.455,-3.565,-4.55,2.17,-5.74
28771.0,-9.213,-0.852,-3.544,-9.045,-2.134,-3.568,0.49,5.04,-6.44
,-8.938,-1.613,-3.46,-9.162,-1.957,-3.656,-3.36,5.88,-5.04
,-8.978,-2.115,-3.4,-8.952,-1.563,-3.47,-2.17,6.51,-3.15
,-9.007,-2.17,-3.654,-8.997,-1.218,-3.259,1.54,6.09,-1.61
28847.0,-9.009,-0.876,-3.613,-9.0,-1.158,-3.36,10.64,9.94,2.52
,-8.856,-0.737,-3.819,-9.0,-1.292,-3.321,8.33,8.61,3.78
,-8.945,-0.823,-3.786,-9.045,-1.263,-3.388,5.6,8.68,4.62
,-8.971,-1.017,-3.561,-9.186,-1.261,-3.539,2.94,9.94,4.62
28923.0,-9.268,-1.151,-3.676,-8.971,0.57,-3.486,10.92,9.17,7.21
,-8.957,-0.797,-3.656,-9.397,0.514,-3.491,12.6,11.13,7.0
,-8.744,-0.191,-3.707,-9.409,0.244,-3.522,14.21,13.44,5.88
,-8.691,0.366,-3.652,-9.091,0.007,-3.51,14.77,14.77,4.41
28999.0,-8.844,-0.369,-3.518,-9.134,-0.696,-4.389,-3.15,14.84,1.68
,-8.789,-0.541,-3.585,-8.914,-0.517,-4.623,-1.96,16.17,1.19
,-9.16,-0.711,-3.891,-8.626,-0.39,-4.807,1.33,16.31,0.56
,-9.359,-0.73,-4.164,-8.617,-0.433,-5.008,5.04,15.68,0.28
29074.0,-8.681,-0.89,-5.176,-8.827,-0.845,-4.721,3.43,12.81,0.0
,-8.854,-1.177,-4.886,-8.808,-0.66,-4.781,3.08,13.65,-0.21
,-8.921,-1.354,-4.788,-8.516,-0.541,-4.602,4.27,14.84,-0.49
,-8.899,-1.153,-4.712,-8.78,-0.869,-4.245,5.95,15.68,-0.63
29150.0,-8.909,-1.244,-4.384,-8.507,-1.165,-4.819,-1.4,13.65,2.66
,-9.079,-1.436,-4.532,-8.521,-0.811,-4.846,-2.24,13.16,4.06
,-8.911,-1.582,-4.815,-8.914,-0.467,-4.647,-1.47,12.25,5.46
,-8.619,-1.462,-4.968,-8.949,0.017,-4.8,0.77,12.39,6.23
29226.0,-9.016,0.354,-4.527,-8.842,0.321,-5.083,4.69,8.54,3.36
,-9.127,0.603,-4.532,-8.808,0.318,-5.162,0.63,7.42,3.08
,-8.885,0.632,-4.767,-8.784,0.112,-5.013,-4.97,6.65,2.45
,-8.792,0.4,-4.963,-8.665,-0.258,-4.781,-8.19,7.07,1.54
29302.0,-8.538,-0.895,-4.532,-8.856,-1.055,-4.709,-5.53,6.09,-3.29
,-8.72,-1.426,-4.202,-8.674,-0.723,-4.86,-4.83,6.51,-2.66
,-8.813,-1.539,-4.314,-8.464,-0.766,-4.946,-2.38,6.09,-1.96
,-8.928,-1.385,-4.53,-8.617,-1.05,-4.721,1.05,6.16,-1.68
29378.0,-8.524,-1.486,-4.731,-8.562,-0.388,-4.831,0.42,7.14,-0.7
,-8.555,-1.184,-4.712,-8.674,-0.431,-4.685,2.38,8.12,-0.35
,-8.77,-0.962,-4.544,-8.792,-0.428,-4.702,3.5,7.63,0.35
,-8.588,-0.586,-4.767,-8.897,-0.481,-4.712,4.2,6.72,0.49
29453.0,-9.055,-0.605,-4.697,-8.402,-1.941,-5.214,5.6,9.59,-2.66
,-8.866,-0.859,-4.886,-7.947,-2.491,-5.078,7.63,8.47,-2.52
,-8.638,-1.184,-4.999,-7.988,-3.07,-4.829,8.26,7.49,-1.47
,-8.775,-1.606,-4.783,-8.119,-2.517,-4.879,7.56,5.88,1.12
29529.0,-8.559,-1.601,-4.905,-8.983,-0.593,-4.745,17.01,5.32,13.02
,-8.842,-0.517,-5.252,-8.973,-0.519,-5.123,15.96,3.64,13.93
,-8.875,-0.103,-5.343,-9.016,-0.404,-5.083,10.99,2.31,14.49
,-8.787,-0.206,-5.138,-8.332,-0.625,-4.671,4.76,2.03,14.0
29604.0,-7.952,-0.213,-5.071,-9.057,1.012,-4.984,4.13,0.56,13.3
,-7.997,0.483,-5.329,-9.007,0.409,-4.834,5.81,0.42,12.53
,-8.696,1.07,-5.233,-9.16,-0.007,-4.743,5.18,0.63,10.5
,-9.086,1.146,-5.023,-8.777,-0.402,-4.889,1.61,0.07,8.47
29680.0,-8.469,-0.727,-5.006,-8.856,-0.639,-5.217,-7.14,0.14,3.43
,-8.21,-0.792,-5.303,-9.225,-0.905,-4.958,-6.16,0.77,3.57
,-8.349,-0.914,-5.109,-8.957,-0.821,-4.817,-4.55,1.82,3.64
,-8.593,-0.869,-5.047,-8.569,-0.653,-4.999,-2.59,2.24,3.71
29756.0,-8.646,-0.615,-4.831,-8.806,0.134,-4.91,-0.91,4.9,1.89
,-8.658,-0.134,-4.752,-8.784,-0.079,-4.953,0.28,5.39,1.96
,-8.512,0.163,-4.879,-8.813,-0.28,-4.927,-0.21,5.81,1.82
,-8.674,0.12,-4.886,-8.72,-0.316,-5.032,-1.26,6.72,1.4
29832.0,-8.741,0.048,-5.135,-8.634,-0.62,-5.394,-0.98,8.47,-1.12
,-8.801,0.213,-5.173,-8.746,-0.639,-5.281,-3.01,8.12,-1.61
,-8.612,0.019,-5.248,-8.655,-0.483,-5.188,-4.9,7.7,-2.24
,-8.567,-0.22,-5.293,-8.6,-0.349,-5.272,-6.23,7.63,-2.45
29907.0,-8.77,-0.366,-5.348,-8.528,-0.395,-5.197,-6.79,6.58,-2.1
,-8.902,-0.622,-5.133,-8.533,-0.215,-5.284,-7.84,6.37,-2.17
,-8.952,-0.692,-5.03,-8.409,-0.273,-5.286,-7.07,5.6,-1.82
,-8.741,-0.61,-5.138,-8.488,-0.357,-5.214,-6.02,5.25,-1.05
29983.0,-8.595,-0.558,-5.126,-8.863,-0.254,-5.607,-6.65,3.71,1.4
,-8.598,-0.73,-5.229,-9.27,-0.232,-5.415,-5.74,3.71,1.96
,-8.538,-0.747,-5.293,-9.481,-0.366,-5.2,-3.01,3.57,2.17
,-8.681,-0.512,-5.367,-8.804,-0.555,-5.305,0.07,3.5,1.82
30058.0,-8.2,-0.706,-5.456,-8.49,-0.44,-5.688,1.82,-0.91,0.07
,-7.954,-0.723,-5.681,-8.744,-0.263,-5.58,2.31,-1.68,0.91
,-7.985,-0.806,-5.736,-8.61,-0.211,-5.654,3.85,-2.59,1.05
,-8.212,-0.62,-5.654,-8.626,-0.299,-5.58,5.67,-2.73,0.91
30134.0,-8.808,-0.376,-5.396,-8.248,-0.256,-5.281,3.57,-5.04,0.28
,-8.555,-0.471,-5.501,-8.413,-0.194,-5.341,3.78,-6.51,-0.21
,-8.435,-0.416,-5.331,-8.569,-0.323,-5.19,4.9,-7.35,-0.63
,-8.16,-0.261,-5.303,-8.653,-0.45,-5.054,6.09,-7.91,-0.7
30210.0,-8.734,-0.579,-4.937,-8.516,-0.646,-4.937,10.01,-7.63,0.28
,-8.648,-0.622,-5.004,-9.055,-0.739,-4.604,11.2,-7.49,0.49
,-8.569,-0.66,-4.951,-8.94,-0.562,-4.695,11.55,-7.28,0.98
,-8.495,-0.653,-4.944,-8.674,-0.364,-4.736,12.04,-7.56,1.33
30286.0,-8.382,-0.337,-4.676,-8.672,-0.361,-4.597,6.44,-11.9,3.01
,-8.44,-0.467,-4.664,-8.626,-0.29,-4.606,5.04,-11.83,3.36
,-8.562,-0.39,-4.702,-8.713,-0.22,-4.503,4.55,-12.25,3.57
,-8.619,-0.373,-4.614,-8.763,-0.483,-4.482,4.48,-11.9,3.57
30362.0,-8.866,-0.414,-4.477,-8.837,-0.464,-4.336,6.86,-9.45,2.31
,-8.72,-0.536,-4.336,-8.772,-0.254,-4.338,7.35,-9.66,3.01
,-8.586,-0.443,-4.468,-8.765,-0.235,-4.207,8.26,-9.45,3.22
,-8.619,-0.397,-4.511,-8.804,-0.263,-4.171,9.03,-8.75,3.43
30437.0,-8.873,-0.304,-4.149,-8.906,-0.074,-4.427,7.07,-6.23,3.01
,-8.887,-0.249,-4.2,-8.794,-0.077,-4.427,7.21,-5.11,2.87
,-8.918,-0.211,-4.226,-8.729,-0.189,-4.367,7.21,-4.27,2.8
,-8.949,-0.081,-4.353,-8.667,-0.22,-4.365,6.86,-4.2,2.52
30513.0,-8.715,-0.275,-4.207,-8.914,0.318,-4.475,7.35,-3.71,1.33
,-8.981,-0.223,-4.19,-8.729,0.199,-4.506,7.98,-3.92,1.54
,-9.308,-0.227,-4.104,-8.851,0.048,-4.41,7.56,-5.04,1.26
,-9.289,0.031,-4.223,-8.892,-0.211,-4.515,6.72,-7.28,0.91
30589.0,-8.904,-0.443,-4.432,-8.904,-0.483,-4.288,-2.17,-7.77,-2.1
,-8.847,-0.749,-4.109,-8.88,-0.28,-4.322,-0.42,-6.3,-2.1
,-8.909,-0.785,-3.944,-8.897,-0.476,-4.188,2.52,-4.69,-2.1
,-8.978,-0.653,-4.032,-8.796,-0.713,-4.147,4.69,-4.27,-2.1
30665.0,-8.789,-0.907,-3.908,-9.093,-0.675,-3.692,2.66,-2.59,-0.21
,-8.753,-0.962,-3.778,-9.177,-0.696,-3.654,3.36,-2.66,0.21
,-8.832,-0.838,-3.685,-9.177,-0.794,-3.632,5.04,-2.73,0.7
,-9.06,-0.797,-3.676,-9.024,-0.775,-3.8,4.9,-3.43,1.54
30740.0,-8.928,-0.763,-3.888,-8.799,-0.921,-3.697,3.71,-3.08,2.8
,-8.744,-0.816,-4.039,-9.076,-0.57,-3.69,2.38,-3.43,3.15
,-8.631,-0.948,-4.058,-9.265,-0.168,-3.872,2.24,-3.08,3.78
,-8.717,-1.034,-3.888,-9.234,0.101,-4.195,4.2,-2.31,4.55
30816.0,-9.093,0.11,-4.695,-8.985,-0.041,-4.264,1.47,-3.92,3.99
,-8.904,0.06,-4.939,-9.105,0.232,-4.178,-0.7,-4.97,3.71
,-8.89,0.036,-4.91,-9.206,0.179,-4.159,-0.07,-4.83,3.08
,-8.782,-0.06,-4.673,-9.249,0.05,-4.003,1.61,-4.9,2.03
30891.0,-9.093,-0.201,-4.156,-8.899,-0.945,-3.625,-8.26,-7.56,-1.33
,-8.945,-0.536,-4.286,-9.134,-0.699,-3.553,-8.47,-7.77,-1.89
,-8.837,-0.72,-4.307,-9.191,-0.34,-3.594,-7.07,-7.7,-1.61
,-8.787,-0.897,-4.015,-9.206,-0.132,-3.577,-3.78,-6.93,-0.77
30967.0,-9.103,-0.144,-3.853,-9.088,-0.206,-3.709,-0.77,-6.23,0.28
,-9.038,-0.297,-4.001,-9.225,-0.062,-3.575,-2.1,-6.37,0.28
,-8.964,-0.297,-3.893,-9.208,-0.084,-3.36,-0.42,-6.02,0.14
,-8.981,-0.28,-3.802,-9.201,-0.187,-3.506,1.19,-5.39,-0.14
31043.0,-9.11,-0.254,-3.355,-9.079,-0.5,-3.738,-0.35,-3.29,-1.4
,-9.184,-0.156,-3.568,-9.072,-0.804,-3.714,-0.42,-3.5,-1.75
,-9.086,-0.103,-3.778,-9.136,-0.847,-3.434,-2.17,-3.5,-2.24
,-8.978,-0.278,-3.747,-9.208,-0.613,-3.362,-3.99,-3.01,-2.17
31119.0,-9.287,-0.407,-3.527,-9.079,-0.302,-3.726,1.47,0.0,-1.12
,-9.273,-0.273,-3.613,-9.217,-0.127,-3.81,0.0,0.07,-1.05
,-9.186,-0.17,-3.774,-9.27,0.06,-3.929,-1.82,-0.07,-0.98
,-9.05,-0.304,-3.642,-9.227,0.108,-4.032,-2.87,0.14,-1.19
31194.0,-9.098,-0.127,-4.087,-9.244,-0.617,-3.582,-4.69,-0.49,-3.01
,-9.016,-0.536,-3.96,-9.289,-0.459,-3.568,-4.69,-0.35,-2.87
,-9.052,-0.866,-3.731,-9.225,-0.39,-3.747,-2.17,-0.07,-2.66
,-9.117,-0.794,-3.699,-9.165,-0.455,-3.843,0.91,0.63,-2.31
31270.0,-9.05,-0.486,-3.979,-9.186,-0.44,-3.888,2.03,0.77,-1.4
,-8.969,-0.464,-4.185,-9.124,-0.419,-3.79,3.5,0.63,-1.26
,-9.043,-0.474,-4.068,-9.167,-0.55,-3.613,5.46,0.63,-1.12
,-9.057,-0.438,-3.963,-9.232,-0.524,-3.575,6.44,0.49,-1.12
31346.0,-9.225,-0.416,-3.74,-9.131,-0.699,-3.597,4.55,0.42,-1.61
,-9.131,-0.299,-3.855,-9.253,-0.591,-3.53,3.99,0.0,-1.75
,-8.981,-0.304,-3.774,-9.229,-0.412,-3.642,3.36,0.28,-1.75
,-8.978,-0.548,-3.704,-9.155,-0.373,-3.704,3.22,0.7,-1.68
31422.0,-9.091,-0.464,-3.759,-9.227,-0.538,-3.711,1.75,1.12,-1.68
,-9.072,-0.617,-3.745,-9.27,-0.562,-3.709,1.75,1.33,-1.54
,-9.115,-0.589,-3.795,-9.16,-0.56,-3.786,2.8,1.54,-1.33
,-9.072,-0.572,-3.623,-9.067,-0.639,-3.618,3.85,1.96,-1.05
31498.0,-9.081,-0.794,-3.714,-9.124,-0.431,-4.03,3.5,2.31,-0.49
,-9.11,-0.653,-3.821,-9.105,-0.55,-4.092,4.27,2.45,-0.42
,-9.16,-0.529,-3.735,-9.124,-0.536,-4.173,3.92,2.38,-0.49
,-9.184,-0.299,-3.946,-9.028,-0.5,-4.145,3.01,1.96,-0.63
31573.0,-9.06,-0.531,-3.944,-9.036,-0.634,-4.2,5.39,1.33,0.0
,-9.182,-0.4,-4.006,-9.057,-0.78,-4.142,5.25,0.7,-0.28
,-9.167,-0.342,-4.116,-9.076,-0.692,-4.113,3.92,0.14,-0.56
,-9.119,-0.438,-4.171,-9.076,-0.541,-3.912,2.17,-0.35,-0.7
31649.0,-9.16,-0.493,-3.685,-9.067,-0.67,-4.066,6.23,-1.4,0.0
,-9.263,-0.495,-3.75,-8.978,-0.847,-3.932,5.39,-1.89,-0.28
,-9.277,-0.481,-3.862,-9.055,-0.876,-3.845,4.27,-2.38,-0.42
,-9.148,-0.5,-4.018,-9.129,-0.759,-3.685,3.15,-2.59,-0.35
31724.0,-9.203,-0.536,-3.364,-9.198,-0.61,-3.144,9.31,-1.89,0.91
,-9.292,-0.378,-3.305,-9.182,-0.723,-3.173,8.05,-1.61,0.63
,-9.225,-0.452,-3.104,-9.215,-0.668,-3.324,5.81,-1.26,0.42
,-9.261,-0.536,-3.168,-9.201,-0.579,-3.419,4.41,-0.7,0.35
31800.0,-9.177,-0.519,-3.582,-9.184,-0.589,-3.824,4.55,1.89,0.56
,-9.074,-0.443,-3.637,-9.167,-0.579,-3.977,4.13,2.1,0.56
,-9.103,-0.567,-3.659,-9.076,-0.574,-4.051,3.43,2.31,0.42
,-9.167,-0.586,-3.762,-9.064,-0.598,-4.061,3.01,2.31,0.21
31876.0,-9.067,-0.718,-3.9,-9.179,-0.543,-3.635,3.43,1.4,0.49
,-9.167,-0.794,-3.769,-9.162,-0.603,-3.726,4.41,1.47,0.56
,-9.261,-0.648,-3.687,-9.122,-0.704,-3.781,4.97,1.47,0.49
,-9.268,-0.56,-3.606,-9.131,-0.727,-3.821,4.27,1.33,0.42
31952.0,-9.134,-0.663,-3.716,-9.103,-0.562,-3.86,3.92,1.54,0.49
,-9.234,-0.584,-3.759,-9.067,-0.658,-3.793,5.18,1.75,0.7
,-9.217,-0.507,-3.771,-9.134,-0.644,-3.824,5.32,1.47,0.63
,-9.182,-0.507,-3.829,-9.143,-0.596,-3.817,4.83,1.12,0.56
32027.0,-9.119,-0.57,-3.69,-9.143,-0.653,-3.678,4.27,0.7,0.42
,-9.198,-0.538,-3.666,-9.136,-0.68,-3.671,4.13,0.84,0.35
,-9.203,-0.627,-3.599,-9.17,-0.639,-3.649,4.13,0.7,0.35
,-9.174,-0.581,-3.723,-9.177,-0.608,-3.64,3.92,0.84,0.35
32103.0,-9.215,-0.591,-3.704,-9.134,-0.727,-3.788,3.71,1.12,0.42
,-9.129,-0.572,-3.752,-9.134,-0.696,-3.752,3.29,1.05,0.28
,-9.11,-0.605,-3.776,-9.153,-0.651,-3.664,2.45,1.12,0.21
,-9.136,-0.682,-3.759,-9.201,-0.68,-3.613,2.45,1.33,0.28
32179.0,-9.184,-0.589,-3.632,-9.232,-0.668,-3.597,4.2,1.54,0.56
,-9.105,-0.668,-3.527,-9.227,-0.543,-3.795,3.85,1.68,0.49
,-9.122,-0.66,-3.656,-9.165,-0.546,-3.79,3.57,1.61,0.42
,-9.139,-0.687,-3.544,-9.136,-0.57,-3.743,3.5,1.89,0.49
32255.0,-9.107,-0.637,-3.735,-9.222,-0.543,-3.57,1.75,1.68,0.07
,-9.112,-0.632,-3.759,-9.158,-0.653,-3.661,1.96,1.75,-0.07
,-9.143,-0.598,-3.664,-9.177,-0.737,-3.8,1.68,1.75,-0.28
,-9.227,-0.548,-3.599,-9.134,-0.737,-3.934,0.98,1.82,-0.35
32330.0,-9.124,-0.692,-3.987,-9.127,-0.62,-4.015,0.14,1.61,-0.35
,-9.088,-0.677,-4.022,-9.191,-0.517,-4.099,0.42,1.33,-0.28
,-9.146,-0.699,-4.013,-9.146,-0.605,-3.953,0.98,1.4,0.0
,-9.139,-0.605,-3.97,-9.177,-0.651,-3.932,1.75,0.98,0.14
32406.0,-9.182,-0.687,-3.9,-9.119,-0.658,-3.865,2.38,-0.42,-0.07
,-9.201,-0.696,-3.848,-9.148,-0.701,-3.814,2.52,-0.56,0.21
,-9.251,-0.648,-3.922,-9.196,-0.66,-3.821,2.87,-0.7,0.35
,-9.131,-0.627,-3.975,-9.203,-0.644,-3.743,2.73,-0.84,0.21
32482.0,-9.244,-0.677,-3.841,-9.28,-0.67,-3.845,3.64,-0.56,1.33
,-9.139,-0.668,-3.771,-9.22,-0.735,-3.778,3.43,-0.56,1.4
,-9.141,-0.637,-3.836,-9.191,-0.715,-3.659,3.5,-0.63,1.4
,-9.225,-0.615,-3.934,-9.229,-0.663,-3.563,3.71,-0.91,1.19
32557.0,-9.239,-0.598,-3.501,-9.215,-0.584,-3.41,6.51,-0.98,1.12
,-9.222,-0.5,-3.362,-9.208,-0.529,-3.525,6.3,-0.98,1.12
,-9.215,-0.402,-3.431,-9.217,-0.589,-3.532,5.95,-0.91,0.91
,-9.222,-0.479,-3.302,-9.275,-0.584,-3.786,4.69,-0.77,0.56
32633.0,-9.146,-0.668,-3.86,-9.16,-0.747,-3.766,2.94,-1.4,-0.56
,-9.129,-0.785,-3.908,-9.17,-0.735,-3.778,3.08,-1.89,-0.56
,-9.086,-0.797,-4.025,-9.172,-0.627,-3.525,4.27,-2.38,-0.63
,-9.155,-0.761,-3.922,-9.217,-0.634,-3.405,5.95,-2.1,-0.35
32709.0,-9.225,-0.507,-3.343,-9.296,-0.79,-2.881,6.37,-2.52,-0.35
,-9.225,-0.55,-3.113,-9.301,-0.864,-2.73,5.11,-2.03,-0.35
,-9.249,-0.596,-3.025,-9.361,-1.0,-2.582,3.71,-1.82,-0.63
,-9.249,-0.682,-3.032,-9.359,-1.048,-2.776,2.8,-1.19,-0.7
32785.0,-9.232,-0.991,-2.857,-8.959,-0.924,-3.199,5.18,4.76,0.98
,-9.282,-0.866,-3.01,-9.105,-0.811,-2.927,5.74,5.46,1.4
,-9.201,-0.83,-3.307,-9.232,-0.44,-2.816,5.53,5.88,1.47
,-9.038,-0.928,-3.317,-9.275,-0.096,-2.876,6.02,6.79,2.03
32860.0,-9.162,-0.062,-2.568,-8.995,-0.883,-3.094,3.64,10.64,1.12
,-9.158,-0.16,-2.769,-8.983,-0.713,-3.259,-2.31,11.76,0.63
,-9.134,-0.593,-2.692,-9.024,-0.541,-3.465,-8.26,12.6,0.07
,-9.019,-1.017,-2.718,-8.964,-0.541,-3.561,-10.29,13.58,0.21
32936.0,-8.942,-0.768,-3.522,-9.043,-0.005,-4.75,-14.28,15.89,0.98
,-9.086,-0.969,-3.333,-8.67,-0.282,-5.269,-12.53,17.29,1.54
,-9.296,-0.663,-3.522,-8.528,-0.857,-5.145,-8.05,16.31,1.05
,-9.251,-0.179,-4.219,-8.696,-1.275,-4.704,-6.44,13.51,0.0
33012.0,-9.189,-1.048,-4.688,-8.911,-1.048,-3.58,-1.26,8.82,0.35
,-9.244,-0.72,-4.702,-8.935,-0.866,-3.582,1.75,7.77,-0.28
,-9.127,-0.526,-4.434,-9.04,-0.433,-4.037,0.49,7.7,-0.21
,-9.117,-0.675,-4.099,-9.256,0.254,-4.314,-3.5,7.84,0.14
33088.0,-9.378,0.464,-4.996,-8.725,-0.656,-4.661,-0.07,2.24,-0.21
,-9.253,0.017,-5.296,-8.827,-0.51,-4.511,-5.95,1.75,-0.56
,-8.973,-0.565,-5.154,-9.024,-0.811,-4.212,-7.35,3.36,-0.7
,-8.887,-0.751,-4.85,-9.11,-1.354,-3.75,-3.43,4.97,-1.33
33163.0,-9.002,-1.888,-3.058,-9.261,-0.479,-4.709,-1.4,7.84,0.63
,-9.06,-2.056,-2.996,-8.921,-0.364,-4.877,3.36,8.4,1.68
,-8.914,-1.668,-3.472,-8.78,-0.38,-4.822,8.68,7.21,2.17
,-9.196,-0.919,-3.944,-8.77,-0.321,-4.535,12.6,5.88,2.66
33239.0,-9.06,-0.105,-3.991,-8.904,-1.405,-3.065,7.77,5.25,0.7
,-9.007,0.11,-3.817,-9.196,-1.589,-3.077,5.46,4.27,0.28
,-8.926,-0.153,-3.553,-9.15,-1.153,-3.853,-0.49,4.48,0.49
,-9.0,-0.787,-3.242,-9.158,-0.479,-4.434,-4.76,5.81,1.33
33314.0,-9.153,-0.057,-4.616,-8.94,-0.818,-3.324,14.84,6.86,3.01
,-8.952,-0.077,-4.58,-8.842,-0.627,-3.252,13.09,7.77,2.31
,-8.734,-0.347,-4.142,-8.871,-0.586,-3.254,10.71,8.82,2.03
,-8.777,-0.766,-3.69,-8.756,-0.869,-3.262,9.1,9.66,1.89
33390.0,-8.851,-0.871,-3.3,-8.593,0.208,-4.518,-2.8,11.48,2.87
,-9.028,-0.747,-3.625,-8.813,0.246,-4.35,-1.82,11.9,3.43
,-8.938,-0.493,-4.082,-8.961,0.16,-4.2,-0.7,11.48,3.99
,-8.765,-0.086,-4.295,-9.105,0.086,-4.13,0.98,12.18,3.71
33466.0,-8.861,-0.134,-4.018,-8.626,-0.725,-4.391,4.69,17.15,-0.77
,-8.741,-0.263,-4.13,-8.701,-0.694,-4.408,3.57,17.85,-0.98
,-8.686,-0.519,-4.192,-8.894,-0.773,-4.649,2.17,17.78,-1.12
,-8.658,-0.665,-4.207,-8.705,-0.857,-4.87,2.03,17.08,-1.12
33542.0,-8.756,-0.833,-4.97,-8.863,-0.22,-5.104,-0.07,14.63,1.4
,-8.528,-0.632,-5.14,-8.906,-0.108,-5.13,0.7,13.65,1.82
,-8.356,-0.55,-5.08,-8.861,-0.086,-5.121,1.4,14.56,0.91
,-8.705,-0.416,-5.03,-8.725,-0.364,-4.999,2.59,15.33,-0.35
33618.0,-8.65,-0.718,-4.769,-8.655,-0.163,-4.728,-0.98,14.07,-1.47
,-9.007,-0.617,-4.573,-8.418,-0.316,-5.02,1.05,12.18,-1.82
,-8.947,-0.4,-4.748,-8.323,-0.493,-5.238,2.17,9.8,-1.96
,-8.854,-0.213,-4.755,-8.311,-0.637,-5.341,1.68,8.12,-2.1
33693.0,-8.442,-0.704,-5.245,-8.5,0.376,-5.497,2.31,10.57,-4.62
,-8.507,-0.692,-5.126,-8.102,-0.249,-5.511,6.02,10.71,-5.6
,-8.67,-0.495,-4.908,-8.028,-1.005,-5.48,9.24,10.22,-6.3
,-9.055,0.194,-5.346,-8.284,-1.658,-5.602,8.54,7.35,-6.23
33769.0,-8.437,-2.259,-5.453,-8.93,-1.149,-4.884,0.14,5.32,-2.59
,-8.636,-2.278,-5.31,-8.705,-1.034,-4.905,5.95,5.67,-1.61
,-8.918,-1.831,-5.087,-8.555,-0.773,-5.176,11.34,5.32,-1.33
,-8.854,-1.381,-5.039,-8.325,-0.684,-5.554,12.95,4.34,-1.19
33845.0,-8.397,-0.493,-5.556,-8.569,-1.725,-5.183,5.18,1.19,3.57
,-8.241,-0.766,-5.418,-8.258,-1.859,-5.099,2.45,0.63,4.55
,-8.497,-1.048,-5.327,-8.282,-1.409,-4.939,1.54,0.42,5.04
,-8.739,-1.409,-5.324,-8.442,-0.771,-5.075,0.7,-0.21,5.18
33921.0,-8.76,-0.493,-5.133,-8.674,-0.112,-5.207,7.98,-2.31,8.47
,-8.981,0.203,-5.413,-8.502,-0.491,-5.099,7.98,-2.8,6.86
,-8.871,0.648,-5.468,-8.593,-0.672,-5.219,6.09,-3.5,4.97
,-8.674,0.45,-5.42,-8.679,-0.962,-5.025,3.5,-4.06,3.71
33996.0,-8.741,-0.988,-5.011,-8.224,-0.548,-5.169,4.55,-3.85,0.84
,-8.71,-0.842,-5.169,-8.256,-0.361,-5.164,7.0,-3.85,0.35
,-8.703,-0.907,-4.85,-8.265,-0.524,-5.037,8.12,-3.43,0.77
,-8.574,-0.656,-4.98,-8.641,-0.995,-4.913,8.05,-3.92,1.4
34072.0,-9.153,-1.307,-4.496,-8.557,-1.086,-4.917,1.61,-2.17,3.71
,-9.21,-1.448,-4.448,-8.717,-0.818,-4.982,3.29,-2.03,4.13
,-8.854,-1.464,-4.353,-8.665,-0.45,-4.807,5.04,-1.47,4.69
,-8.574,-1.328,-4.573,-8.555,-0.036,-4.728,6.16,-0.63,5.11
34147.0,-8.581,0.191,-4.908,-8.519,-0.414,-4.757,5.04,2.8,4.55
,-8.696,0.098,-4.812,-8.626,-0.402,-4.657,2.52,3.01,3.71
,-8.768,-0.16,-4.716,-8.756,-0.483,-4.348,1.05,3.36,2.94
,-8.591,-0.33,-4.637,-8.552,-0.455,-4.511,0.49,4.06,2.17
34223.0,-8.409,-0.395,-4.779,-8.973,-0.019,-5.135,-2.38,7.49,2.24
,-8.72,-0.199,-5.068,-8.847,-0.132,-4.958,-3.36,7.91,1.54
,-8.969,-0.182,-5.164,-8.614,-0.117,-5.157,-3.64,8.12,0.21
,-9.014,-0.079,-5.147,-8.564,-0.127,-5.152,-3.43,7.84,-1.4
34299.0,-8.65,-0.158,-5.336,-8.725,-0.701,-5.293,-6.93,6.93,-3.01
,-8.631,-0.404,-5.382,-8.631,-0.811,-5.197,-8.05,6.3,-2.8
,-8.677,-0.548,-5.408,-8.543,-1.151,-5.219,-8.68,5.81,-3.22
,-8.789,-0.586,-5.303,-8.492,-1.268,-5.343,-8.26,4.9,-3.57
34375.0,-8.449,-1.436,-5.374,-8.603,-1.108,-5.272,-8.33,2.66,0.91
,-8.516,-1.548,-5.317,-8.473,-0.897,-5.296,-6.58,2.59,1.54
,-8.684,-1.567,-5.14,-8.524,-0.861,-5.224,-4.13,2.31,1.82
,-8.734,-1.472,-5.171,-8.559,-0.684,-5.331,-1.89,1.89,2.52
34450.0,-8.473,-0.665,-5.437,-8.516,-0.725,-5.513,-2.87,-0.63,6.44
,-8.531,-0.847,-5.358,-8.552,-0.546,-5.415,-2.03,-0.91,6.44
,-8.622,-0.988,-5.307,-8.579,-0.443,-5.389,-0.07,-1.33,6.51
,-8.622,-0.928,-5.238,-8.851,-0.316,-5.36,2.87,-1.4,6.79
34526.0,-9.1,-0.323,-5.171,-8.385,-0.304,-5.255,11.06,-2.17,3.43
,-8.973,-0.153,-5.092,-8.567,-0.309,-5.061,9.59,-4.34,3.36
,-8.442,-0.081,-5.315,-8.617,-0.156,-5.027,7.7,-5.11,3.36
,-8.222,-0.165,-5.327,-8.547,-0.156,-5.056,6.93,-4.83,3.01
34602.0,-8.775,-0.146,-4.989,-8.607,-0.57,-4.956,6.44,-5.25,0.98
,-8.801,-0.16,-5.035,-8.543,-0.55,-4.865,6.44,-5.67,0.7
,-8.674,-0.299,-5.063,-8.581,-0.467,-4.791,5.18,-6.16,0.35
,-8.576,-0.421,-4.987,-8.698,-0.443,-4.669,5.53,-5.74,0.14
34678.0,-8.507,-0.45,-4.635,-9.019,-0.572,-4.48,8.33,-7.21,0.28
,-8.452,-0.567,-4.645,-8.897,-0.349,-4.487,7.14,-6.37,0.7
,-8.557,-0.668,-4.578,-8.672,-0.294,-4.592,7.42,-5.11,1.26
,-8.794,-0.715,-4.539,-8.543,-0.397,-4.594,9.03,-4.55,1.47
34754.0,-8.413,-0.479,-4.704,-9.038,-0.235,-4.594,4.69,-8.89,2.24
,-8.442,-0.534,-4.642,-8.928,-0.385,-4.384,4.83,-8.05,1.96
,-8.691,-0.407,-4.558,-8.622,-0.407,-4.465,5.74,-7.35,1.54
,-8.868,-0.292,-4.494,-8.643,-0.404,-4.511,6.09,-6.58,1.33
34829.0,-8.691,-0.522,-4.369,-8.65,-0.285,-4.676,5.04,-5.18,1.05
,-8.744,-0.4,-4.393,-8.681,-0.395,-4.642,5.95,-5.04,0.98
,-8.928,-0.335,-4.487,-8.564,-0.378,-4.628,5.6,-5.25,0.84
,-8.866,-0.244,-4.621,-8.947,-0.299,-4.362,4.27,-6.37,0.77
34905.0,-9.005,-0.084,-4.377,-8.804,-0.436,-4.487,3.57,-10.01,-0.28
,-8.926,0.057,-4.487,-8.636,-0.476,-4.592,1.54,-10.43,-0.98
,-9.062,-0.034,-4.432,-8.648,-0.567,-4.499,-0.84,-10.43,-1.89
,-9.014,-0.275,-4.465,-8.856,-0.555,-4.369,-2.66,-10.15,-2.31
34980.0,-9.002,-0.629,-4.334,-8.737,-0.802,-4.389,2.03,-6.23,-2.38
,-9.016,-0.665,-4.355,-8.744,-0.67,-4.331,1.26,-7.0,-2.17
,-8.933,-0.708,-4.343,-8.851,-0.565,-4.264,-0.07,-8.33,-1.75
,-8.971,-0.806,-4.389,-8.894,-0.519,-4.192,-1.47,-10.36,-1.33
35056.0,-8.878,-0.5,-4.089,-8.935,-0.794,-3.982,-1.89,-9.73,-1.4
,-8.894,-0.558,-3.965,-8.823,-0.479,-3.982,-2.24,-8.33,-1.12
,-8.899,-0.852,-3.91,-8.873,-0.369,-3.821,-0.56,-6.72,-0.63
,-9.095,-0.96,-3.843,-8.916,-0.438,-3.731,1.96,-6.65,-0.42
35132.0,-9.028,-0.424,-3.857,-9.308,-0.318,-3.826,4.06,-4.9,-0.35
,-8.945,-0.232,-3.915,-9.052,-0.335,-3.798,3.36,-4.55,-0.56
,-8.988,-0.122,-3.984,-8.796,-0.467,-3.664,2.94,-3.92,-0.7
,-9.203,-0.144,-3.86,-8.823,-0.684,-3.463,2.17,-3.92,-1.26
35208.0,-9.036,-0.936,-3.482,-8.952,-0.993,-4.039,0.07,-4.13,-2.59
,-9.117,-0.854,-3.501,-8.789,-1.012,-4.116,0.56,-3.99,-2.24
,-9.153,-0.78,-3.678,-8.837,-1.053,-4.183,0.56,-3.36,-1.82
,-9.15,-0.89,-3.915,-9.021,-0.983,-4.03,0.98,-2.66,-1.47
35283.0,-9.048,-0.782,-3.991,-8.961,-0.598,-3.525,13.79,1.33,1.75
,-9.146,-0.73,-3.814,-9.088,-0.526,-3.333,16.45,3.36,2.38
,-9.076,-0.797,-3.709,-9.083,-0.385,-3.343,16.45,3.85,2.59
,-8.878,-0.756,-3.58,-9.088,-0.323,-3.245,15.47,4.48,2.94
35359.0,-9.076,-0.328,-3.525,-9.174,-0.55,-4.24,6.23,4.97,2.24
,-9.014,-0.567,-3.697,-9.117,-0.251,-4.422,3.29,4.62,1.75
,-9.076,-0.644,-3.836,-8.978,-0.122,-4.688,2.66,4.55,1.61
,-9.091,-0.596,-4.056,-8.882,-0.268,-4.661,2.03,4.2,1.26
35434.0,-8.851,-0.507,-4.513,-9.098,-0.462,-4.247,-6.93,0.14,-1.33
,-8.918,-0.639,-4.357,-9.007,-0.653,-4.13,-6.51,-0.14,-1.82
,-9.081,-0.56,-4.264,-8.964,-0.928,-4.214,-4.83,-0.56,-2.1
,-9.117,-0.464,-4.18,-8.933,-1.007,-3.927,-4.34,-1.19,-2.31
35510.0,-8.973,-0.885,-3.963,-9.119,-0.873,-3.802,-1.89,-2.1,-1.61
,-8.978,-0.699,-3.86,-9.076,-0.849,-3.857,-2.17,-2.03,-1.4
,-9.067,-0.704,-3.565,-8.93,-0.938,-3.936,-3.57,-1.4,-0.98
,-9.105,-0.818,-3.695,-8.83,-1.127,-3.745,-4.9,-1.12,-0.84
35586.0,-8.99,-1.031,-3.57,-9.165,-0.045,-3.929,1.54,1.68,1.54
,-9.11,-0.658,-3.551,-9.002,-0.158,-4.18,4.34,2.31,1.75
,-9.165,-0.359,-3.412,-8.902,-0.371,-4.276,5.04,3.08,1.82
,-9.182,-0.124,-3.575,-8.871,-0.62,-4.3,3.15,3.22,1.61
35662.0,-8.914,-0.797,-4.087,-9.067,-0.369,-4.451,-0.42,2.73,0.77
,-9.05,-0.663,-4.032,-8.976,-0.584,-4.633,2.8,2.87,0.84
,-9.129,-0.342,-4.097,-8.837,-0.969,-4.537,2.94,2.38,0.42
,-9.167,-0.261,-4.14,-8.859,-1.125,-4.511,0.7,1.54,0.0
35738.0,-8.918,-1.022,-4.429,-9.155,-1.017,-3.999,1.05,-0.7,0.35
,-8.914,-0.861,-4.346,-9.155,-0.838,-4.066,3.08,-0.98,0.7
,-9.005,-0.802,-4.145,-9.052,-0.625,-3.984,3.08,-1.4,1.26
,-9.119,-0.897,-4.188,-8.957,-0.512,-3.802,3.43,-1.54,1.75
35813.0,-9.055,-0.369,-3.766,-9.04,-0.153,-4.46,10.99,-0.42,2.94
,-9.17,-0.227,-3.762,-8.942,-0.292,-4.422,10.64,-0.14,2.87
,-9.172,-0.182,-3.903,-8.887,-0.383,-4.384,9.45,-0.42,2.45
,-9.16,-0.182,-4.087,-8.947,-0.373,-4.267,8.19,-0.84,2.03
35889.0,-9.1,-0.4,-3.941,-8.978,-0.672,-3.793,10.71,-1.89,0.56
,-9.227,-0.309,-3.932,-8.997,-1.039,-3.472,10.43,-2.24,0.07
,-9.174,-0.156,-3.924,-9.074,-1.062,-3.508,8.61,-2.87,-0.35
,-9.067,-0.304,-3.793,-9.148,-0.861,-3.501,5.88,-2.87,-0.56
35965.0,-9.119,-0.648,-3.623,-9.186,-0.672,-3.62,6.16,-0.91,0.07
,-9.057,-0.641,-3.637,-9.134,-0.55,-3.783,4.41,-0.56,0.21
,-9.026,-0.706,-3.618,-9.081,-0.512,-3.781,3.57,0.07,0.56
,-9.098,-0.811,-3.642,-9.143,-0.392,-4.075,4.76,0.35,0.7
36041.0,-9.105,-0.421,-4.243,-8.935,-0.687,-4.341,4.34,0.35,0.21
,-9.04,-0.452,-4.432,-9.033,-0.787,-3.951,4.06,-0.14,0.0
,-9.038,-0.495,-4.594,-9.184,-0.754,-3.812,3.15,-0.77,-0.21
,-8.94,-0.634,-4.566,-9.165,-0.629,-3.735,3.99,-0.98,-0.14
36116.0,-9.194,-0.737,-3.58,-9.127,-0.94,-3.348,7.21,-1.4,0.56
,-9.146,-0.828,-3.637,-9.141,-0.749,-3.324,6.16,-1.26,0.63
,-9.129,-0.955,-3.652,-9.301,-0.514,-3.51,6.16,-0.91,0.84
,-9.005,-1.017,-3.396,-9.22,-0.34,-3.716,7.21,0.07,1.33
36192.0,-9.139,-0.385,-3.924,-9.162,-0.782,-3.891,2.87,0.56,0.63
,-8.945,-0.574,-4.082,-9.21,-0.596,-3.798,1.61,0.7,0.56
,-8.947,-0.938,-4.006,-9.191,-0.51,-3.709,2.31,1.19,0.91
,-9.088,-0.957,-3.908,-9.093,-0.536,-3.735,5.67,1.47,1.26
36267.0,-9.026,-0.646,-3.702,-9.165,-0.586,-3.616,3.36,1.61,0.98
,-9.062,-0.739,-3.683,-9.143,-0.543,-3.678,3.57,2.17,1.05
,-9.105,-0.773,-3.582,-9.064,-0.483,-3.786,4.27,2.66,1.05
,-9.167,-0.653,-3.57,-9.069,-0.694,-3.86,4.62,2.66,0.98
36343.0,-9.148,-0.852,-3.853,-9.153,-0.625,-4.022,0.56,3.08,0.21
,-9.055,-0.828,-3.857,-9.083,-0.648,-4.018,1.54,3.22,0.49
,-9.043,-0.742,-3.9,-9.072,-0.577,-4.092,2.38,3.08,0.63
,-9.155,-0.723,-3.922,-9.076,-0.653,-3.96,2.59,2.87,0.7
36419.0,-9.031,-0.742,-3.975,-8.978,-0.806,-4.101,1.12,2.24,0.49
,-9.191,-0.754,-4.018,-9.067,-0.794,-4.087,1.26,1.89,0.56
,-9.155,-0.785,-4.097,-9.093,-0.699,-4.011,1.4,1.33,0.42
,-9.045,-0.818,-4.092,-9.091,-0.637,-4.013,1.82,1.26,0.77
36495.0,-9.079,-0.622,-3.912,-9.086,-0.584,-3.951,2.73,0.7,0.77
,-9.103,-0.684,-3.891,-9.038,-0.586,-3.977,2.66,0.42,0.91
,-9.095,-0.689,-3.85,-9.057,-0.593,-3.984,3.08,0.63,0.98
,-9.093,-0.637,-3.879,-9.048,-0.663,-3.996,3.57,0.63,0.91
36570.0,-9.131,-0.699,-3.979,-9.105,-0.711,-3.699,3.92,0.56,0.98
,-9.117,-0.708,-3.857,-9.146,-0.613,-3.668,4.2,0.14,0.91
,-9.107,-0.663,-3.867,-9.165,-0.574,-3.807,3.85,0.42,1.05
,-9.088,-0.739,-3.723,-9.189,-0.591,-3.841,3.92,0.63,1.05
36646.0,-9.098,-0.62,-3.886,-9.122,-0.751,-3.879,1.47,0.77,0.56
,-9.074,-0.711,-3.905,-9.143,-0.682,-3.862,1.26,0.77,0.7
,-9.093,-0.739,-3.869,-9.146,-0.663,-3.874,1.89,0.77,0.77
,-9.124,-0.744,-3.845,-9.095,-0.699,-3.903,2.87,1.05,1.05
36722.0,-9.098,-0.663,-3.903,-9.117,-0.682,-3.908,1.54,0.7,1.05
,-9.06,-0.684,-3.912,-9.095,-0.668,-3.865,1.4,0.56,0.91
,-9.1,-0.751,-3.896,-9.093,-0.617,-3.888,1.47,0.42,0.98
,-9.1,-0.706,-3.877,-9.112,-0.641,-3.886,1.68,0.42,1.05
36798.0,-9.15,-0.658,-3.898,-9.076,-0.749,-3.855,1.33,0.35,0.91
,-9.122,-0.648,-3.896,-9.206,-0.751,-3.771,1.19,0.21,0.91
,-9.033,-0.696,-3.917,-9.182,-0.553,-3.872,0.98,0.07,0.77
,-9.048,-0.704,-3.908,-9.167,-0.51,-3.881,1.12,0.07,0.84
36874.0,-9.088,-0.605,-3.771,-9.201,-0.637,-3.867,1.19,0.21,0.77
,-9.072,-0.692,-3.826,-9.143,-0.577,-3.958,1.68,0.35,0.84
,-9.033,-0.792,-3.747,-9.076,-0.584,-3.994,2.52,0.49,0.77
,-9.17,-0.766,-3.711,-9.062,-0.737,-3.979,3.78,0.56,0.98
36949.0,-9.074,-0.826,-3.884,-9.191,-0.608,-3.795,2.87,0.28,0.98
,-9.11,-0.675,-3.795,-9.127,-0.677,-3.826,4.55,0.28,1.12
,-9.16,-0.601,-3.752,-9.146,-0.692,-3.903,4.62,0.63,1.12
,-9.206,-0.57,-3.798,-9.067,-0.694,-3.912,3.78,0.35,0.98
37025.0,-9.107,-0.656,-3.877,-9.105,-0.613,-3.74,3.29,0.35,0.84
,-9.153,-0.68,-3.793,-9.196,-0.629,-3.812,3.43,0.21,0.77
,-9.129,-0.692,-3.743,-9.136,-0.651,-3.833,3.64,0.35,0.7
,-9.105,-0.639,-3.738,-9.088,-0.644,-3.79,3.64,0.28,0.77
37100.0,-9.105,-0.711,-3.68,-9.16,-0.538,-3.635,2.66,0.63,0.49
,-9.088,-0.715,-3.659,-9.105,-0.581,-3.585,3.01,0.77,0.42
,-9.136,-0.699,-3.723,-9.179,-0.66,-3.64,3.5,0.84,0.49
,-9.146,-0.608,-3.585,-9.174,-0.684,-3.731,3.15,0.91,0.42
37176.0,-9.16,-0.696,-3.731,-9.103,-0.558,-4.032,-0.21,1.4,0.0
,-9.155,-0.725,-3.81,-9.091,-0.61,-4.022,-0.84,1.19,-0.14
,-9.136,-0.811,-3.924,-9.06,-0.658,-3.865,-0.84,1.26,-0.14
,-9.115,-0.591,-4.037,-9.095,-0.771,-3.604,-0.28,0.98,-0.14
37252.0,-9.105,-0.821,-3.391,-9.15,-0.534,-3.484,0.42,1.68,0.28
,-9.182,-0.849,-3.092,-9.093,-0.529,-3.592,1.82,2.24,0.42
,-9.21,-0.701,-3.18,-9.036,-0.605,-3.62,2.38,2.66,0.56
,-9.198,-0.584,-3.262,-9.06,-0.586,-3.525,2.17,2.94,0.56
37328.0,-9.146,-0.512,-3.611,-9.098,-0.902,-3.719,0.98,4.69,0.35
,-9.141,-0.512,-3.893,-9.107,-0.816,-3.412,-0.07,4.41,0.14
,-9.148,-0.725,-3.975,-9.139,-0.536,-3.546,-3.01,3.71,-0.07
,-9.107,-0.828,-3.829,-9.292,-0.282,-4.051,-4.48,3.57,0.07
37403.0,-9.127,-0.311,-4.41,-9.201,-0.866,-3.331,-6.02,2.66,0.35
,-8.878,-0.644,-4.109,-9.433,-0.431,-3.635,-7.0,3.22,0.84
,-8.813,-0.83,-3.896,-9.268,-0.089,-3.766,-4.83,4.69,1.47
,-8.916,-1.005,-3.644,-9.064,-0.172,-3.585,-0.42,6.02,1.89
37479.0,-8.997,-0.45,-3.537,-8.854,-0.352,-4.137,-6.37,6.23,0.14
,-8.993,-0.529,-3.19,-8.653,-0.732,-4.195,-5.18,7.28,0.0
,-9.249,-0.51,-3.431,-8.713,-1.271,-4.025,-3.71,6.58,-0.7
,-9.15,-0.385,-3.874,-8.966,-1.512,-3.513,-6.37,4.2,-1.68
37555.0,-9.32,-1.034,-3.321,-8.993,0.802,-5.171,9.45,10.22,1.05
,-9.426,-0.163,-3.781,-8.856,0.022,-4.953,15.19,9.03,0.21
,-9.206,0.823,-4.066,-8.995,-0.613,-5.085,14.21,7.07,-1.26
,-9.165,1.29,-4.846,-9.134,-0.622,-4.824,6.44,4.13,-3.22
37631.0,-9.007,-0.759,-4.685,-9.117,-1.199,-3.08,1.96,3.78,-7.42
,-8.729,-1.019,-4.212,-9.354,-0.847,-3.654,1.68,4.55,-7.56
,-8.691,-1.318,-3.668,-9.541,-0.744,-3.982,2.45,6.09,-6.79
,-8.969,-1.481,-3.151,-9.383,-1.074,-4.283,6.02,7.07,-5.88
37706.0,-8.894,-1.484,-4.367,-8.576,-0.857,-3.829,-5.6,1.82,-3.57
,-8.732,-1.63,-4.295,-8.835,-0.876,-3.553,-2.03,3.5,-2.59
,-8.77,-1.376,-4.104,-9.146,-0.883,-3.491,3.71,4.2,-1.96
,-8.629,-1.024,-4.051,-9.134,-0.766,-3.405,7.28,4.55,-1.75
37782.0,-9.1,-0.682,-3.92,-8.667,-2.015,-3.726,6.44,7.35,0.28
,-9.122,-0.646,-4.367,-8.581,-1.859,-3.735,4.48,5.81,0.07
,-9.129,-0.993,-4.312,-8.581,-1.529,-3.817,3.36,6.02,0.14
,-9.024,-1.591,-4.101,-9.155,-1.383,-3.568,5.25,7.63,0.63
37858.0,-9.261,-1.024,-3.542,-9.143,0.323,-3.884,16.59,6.86,4.83
,-8.926,-0.684,-3.381,-9.16,0.51,-4.166,11.83,7.21,5.32
,-9.069,-0.397,-3.34,-8.83,0.378,-4.314,7.7,8.47,4.76
,-9.136,-0.048,-3.582,-8.689,-0.388,-4.116,2.45,7.0,3.15
37933.0,-8.643,-1.079,-4.013,-8.813,-1.541,-3.987,-13.23,6.72,2.31
,-8.605,-1.527,-3.982,-8.94,-1.223,-3.903,-7.28,8.61,2.8
,-8.717,-1.776,-3.975,-8.732,-0.739,-4.013,0.63,10.43,3.29
,-8.789,-1.73,-4.027,-8.66,-0.254,-4.185,8.4,11.76,3.71
