session_id,Timestamp,AccX,AccY,AccZ,GyroX,GyroY,GyroZ,MagnX,MagnY,MagnZ,AccX_corr,GyroX_corr,MagnX_corr,AccY_corr,GyroY_corr,MagnY_corr,AccZ_corr,GyroZ_corr,MagnZ_corr,AccNorm,GyroNorm,AccNorm_filt,GyroNorm_filt
H1_squat_fast_20251205_013759,50833.0,-9.311,-0.601,-3.501,-9.344,-0.577,-3.482,2.45,1.19,0.84,0.1676923076923078,0.13638076923077058,-0.06959615384615381,0.198901923076923,0.21930769230769243,-0.20057692307692299,-0.6819826923076926,-0.6621173076923079,0.061249999999999916,0.7299199118191795,0.7107002935605223,0.6681945629015689,0.6494593560630796
H1_squat_fast_20251205_013759,,-9.284,-0.67,-3.534,-9.34,-0.565,-3.439,2.8,1.33,0.91,0.19469230769230705,0.14038076923077014,0.28040384615384584,0.12990192307692294,0.23130769230769244,-0.06057692307692286,-0.7149826923076925,-0.6191173076923078,0.13124999999999998,0.7523163261509053,0.6756598623380736,0.6573530547961007,0.6467549237058862
H1_squat_fast_20251205_013759,,-9.256,-0.653,-3.527,-9.337,-0.593,-3.374,3.15,1.26,0.91,0.22269230769230752,0.14338076923077026,0.6304038461538459,0.14690192307692296,0.2033076923076924,-0.13057692307692292,-0.7079826923076928,-0.5541173076923078,0.13124999999999998,0.7565788336427823,0.6074027110746696,0.6462207380937712,0.6524678071838872
H1_squat_fast_20251205_013759,,-9.273,-0.586,-3.534,-9.337,-0.613,-3.429,3.71,1.05,0.91,0.20569230769230806,0.14338076923077026,1.190403846153846,0.21390192307692302,0.1833076923076924,-0.3405769230769229,-0.7149826923076925,-0.6091173076923075,0.13124999999999998,0.7741211845953768,0.6520610781013573,0.6362685167381368,0.6572152353446001
H1_squat_fast_20251205_013759,50909.0,-9.296,-0.672,-3.412,-9.265,-0.505,-3.508,1.89,1.05,0.63,0.18269230769230838,0.21538076923076943,-0.6295961538461541,0.12790192307692294,0.2913076923076924,-0.3405769230769229,-0.5929826923076926,-0.6881173076923077,-0.14875000000000005,0.6335328362391297,0.7776596148044344,0.6381034276231198,0.6455018531986985
H1_squat_fast_20251205_013759,,-9.306,-0.653,-3.436,-9.306,-0.524,-3.467,2.17,0.77,0.63,0.1726923076923086,0.17438076923077084,-0.34959615384615406,0.14690192307692296,0.27230769230769236,-0.6205769230769229,-0.6169826923076926,-0.6471173076923078,-0.14875000000000005,0.6573206605204511,0.7234092492375234,0.6366006885601002,0.6417350895850165
H1_squat_fast_20251205_013759,,-9.318,-0.708,-3.367,-9.325,-0.546,-3.484,2.38,0.98,0.7,0.16069230769230813,0.1553807692307707,-0.1395961538461541,0.09190192307692302,0.25030769230769234,-0.41057692307692295,-0.5479826923076927,-0.6641173076923077,-0.0787500000000001,0.5784055776749594,0.7265321208670871,0.6320786345397797,0.6330986828193982
H1_squat_fast_20251205_013759,,-9.328,-0.603,-3.376,-9.261,-0.68,-3.534,2.94,0.91,0.7,0.15069230769230835,0.21938076923077077,0.42040384615384596,0.196901923076923,0.11630769230769233,-0.4805769230769229,-0.5569826923076926,-0.7141173076923075,-0.0787500000000001,0.6096788158033289,0.7560548461215862,0.6251899700490541,0.6414301453904814
H1_squat_fast_20251205_013759,50985.0,-9.296,-0.637,-3.467,-9.354,-0.572,-3.283,1.68,0.35,0.28,0.18269230769230838,0.1263807692307708,-0.839596153846154,0.16290192307692297,0.22430769230769243,-1.040576923076923,-0.6479826923076928,-0.46311730769230763,-0.49875,0.6926724228395605,0.5298713809444092,0.6336340866059083,0.6346933956904793
H1_squat_fast_20251205_013759,,-9.287,-0.66,-3.498,-9.325,-0.608,-3.285,2.31,0.14,0.35,0.19169230769230694,0.1553807692307707,-0.20959615384615393,0.13990192307692295,0.1883076923076924,-1.250576923076923,-0.6789826923076929,-0.46511730769230786,-0.4287500000000001,0.719260721409439,0.5252971352900523,0.6254819337635604,0.6184470911775463
H1_squat_fast_20251205_013759,,-9.287,-0.699,-3.364,-9.28,-0.648,-3.34,2.87,0.42,0.63,0.19169230769230694,0.20038076923077064,0.3504038461538461,0.10090192307692303,0.14830769230769236,-0.970576923076923,-0.5449826923076926,-0.5201173076923076,-0.14875000000000005,0.5864582455929531,0.5767752058091983,0.6257532867889823,0.6132439138181977
H1_squat_fast_20251205_013759,,-9.328,-0.577,-3.364,-9.265,-0.668,-3.434,3.22,0.49,0.7,0.15069230769230835,0.21538076923076943,0.7004038461538462,0.22290192307692303,0.12830769230769234,-0.9005769230769229,-0.5449826923076926,-0.6141173076923079,-0.0787500000000001,0.607782505361881,0.6633187825374857,0.6399528661954758,0.6043727020125607
H1_squat_fast_20251205_013759,51060.0,-9.261,-0.692,-3.355,-9.38,-0.591,-3.285,2.38,0.77,0.63,0.21769230769230852,0.10038076923076922,-0.1395961538461541,0.10790192307692303,0.2053076923076924,-0.6205769230769229,-0.5359826923076927,-0.46511730769230786,-0.14875000000000005,0.5884812760704488,0.5182293481336347,0.6385834516549174,0.6077005130020449
H1_squat_fast_20251205_013759,,-9.316,-0.648,-3.285,-9.325,-0.584,-3.372,3.01,0.7,0.7,0.16269230769230703,0.1553807692307707,0.4904038461538458,0.15190192307692296,0.21230769230769242,-0.690576923076923,-0.46598269230769285,-0.5521173076923076,-0.0787500000000001,0.5164134494250142,0.6115973030623714,0.641918517995128,0.6129478177711246
H1_squat_fast_20251205_013759,,-9.304,-0.672,-3.259,-9.299,-0.541,-3.482,3.01,0.91,0.77,0.17469230769230748,0.1813807692307705,0.4904038461538458,0.12790192307692294,0.25530769230769235,-0.4805769230769229,-0.4399826923076926,-0.6621173076923079,-0.008750000000000036,0.490368304261159,0.7324481758759015,0.6412224379876552,0.6136992802100436
H1_squat_fast_20251205_013759,,-9.325,-0.605,-3.238,-9.277,-0.646,-3.503,2.87,0.91,0.84,0.15369230769230846,0.20338076923077075,0.3504038461538461,0.194901923076923,0.15030769230769236,-0.4805769230769229,-0.4189826923076927,-0.6831173076923078,0.061249999999999916,0.48698519640362037,0.728426657755296,0.6402213184644077,0.6156532668352709
H1_squat_fast_20251205_013759,51135.0,-9.253,-0.682,-3.436,-9.409,-0.574,-3.214,1.47,0.91,0.7,0.22569230769230764,0.0713807692307693,-1.049596153846154,0.11790192307692293,0.22230769230769243,-0.4805769230769229,-0.6169826923076926,-0.3941173076923077,-0.0787500000000001,0.6674620017828466,0.4580877388642717,0.6269236211004372,0.6154344599376187
H1_squat_fast_20251205_013759,,-9.289,-0.665,-3.384,-9.318,-0.57,-3.326,1.96,0.77,0.7,0.18969230769230805,0.16238076923077038,-0.559596153846154,0.13490192307692295,0.22630769230769243,-0.6205769230769229,-0.5649826923076926,-0.5061173076923078,-0.0787500000000001,0.6110541244887675,0.5777001081524219,0.6014027111461655,0.6159091221697892
H1_squat_fast_20251205_013759,,-9.268,-0.541,-3.257,-9.351,-0.66,-3.259,2.66,0.77,0.77,0.21069230769230707,0.12938076923076913,0.14040384615384616,0.25890192307692295,0.13630769230769235,-0.6205769230769229,-0.4379826923076928,-0.4391173076923076,-0.008750000000000036,0.550681662174013,0.47764336103826965,0.597555789611151,0.62029235530866
H1_squat_fast_20251205_013759,,-9.342,-0.55,-3.223,-9.296,-0.639,-3.582,2.1,1.19,0.84,0.13669230769230722,0.18438076923077062,-0.4195961538461539,0.24990192307692294,0.15730769230769237,-0.20057692307692299,-0.40398269230769257,-0.7621173076923076,0.061249999999999916,0.49430534472526644,0.7997279342410604,0.6050200125113072,0.6300499334498366
H1_squat_fast_20251205_013759,51211.0,-9.251,-0.751,-3.587,-9.337,-0.682,-3.285,0.28,1.26,0.63,0.2276923076923083,0.14338076923077026,-2.239596153846154,0.04890192307692298,0.11430769230769233,-0.13057692307692292,-0.7679826923076929,-0.46511730769230786,-0.14875000000000005,0.8025164177429909,0.4999584016904391,0.6228040802010303,0.6349617791728074
H1_squat_fast_20251205_013759,,-9.287,-0.773,-3.23,-9.33,-0.723,-3.041,0.14,1.12,0.77,0.19169230769230694,0.15038076923076993,-2.379596153846154,0.026901923076922962,0.07330769230769241,-0.2705769230769228,-0.4109826923076927,-0.22111730769230764,-0.008750000000000036,0.4542867240742551,0.27727469640595054,0.6344665442436794,0.6665705804716389
H1_squat_fast_20251205_013759,,-9.347,-0.715,-3.431,-9.368,-0.574,-3.252,0.42,1.05,0.91,0.13169230769230822,0.11238076923076967,-2.099596153846154,0.08490192307692301,0.22230769230769243,-0.3405769230769229,-0.6119826923076928,-0.4321173076923075,0.13124999999999998,0.6317230533482671,0.49877401191252885,0.6294505892450922,0.7237434681872704
H1_squat_fast_20251205_013759,,-9.385,-0.804,-3.781,-9.294,-0.608,-3.12,0.77,0.91,0.98,0.09369230769230796,0.18638076923076952,-1.749596153846154,-0.004098076923077065,0.1883076923076924,-0.4805769230769229,-0.9619826923076928,-0.3001173076923078,0.20124999999999993,0.966543192544821,0.40033483048291124,0.6179205433178123,0.8110739232208533
H1_squat_fast_20251205_013759,51287.0,-9.253,-0.584,-3.338,-9.383,-0.718,-3.496,-0.49,0.77,0.98,0.22569230769230764,0.09738076923077088,-3.0095961538461538,0.21590192307692302,0.07830769230769241,-0.6205769230769229,-0.5189826923076928,-0.6761173076923077,0.20124999999999993,0.6057175026815175,0.6875679767496647,0.6658141006647299,0.9206442858799375
H1_squat_fast_20251205_013759,,-9.28,-0.663,-3.503,-9.418,-0.646,-3.546,-0.28,0.63,0.84,0.1986923076923084,0.06238076923077074,-2.799596153846154,0.13690192307692295,0.15030769230769236,-0.7605769230769229,-0.6839826923076928,-0.7261173076923075,0.061249999999999916,0.7252951765003919,0.7441304369981192,0.7168679904148585,1.0026199433752128
H1_squat_fast_20251205_013759,,-9.265,-0.797,-3.498,-9.229,-0.345,-3.336,0.84,0.84,1.19,0.21369230769230718,0.2513807692307708,-1.6795961538461541,0.002901923076922941,0.4513076923076924,-0.550576923076923,-0.6789826923076929,-0.5161173076923076,0.4112499999999999,0.7118218316248887,0.7302383169724147,0.7915442045250963,1.0367604840392437
H1_squat_fast_20251205_013759,,-9.311,-0.696,-3.518,-9.167,-0.428,-3.362,1.12,0.49,1.12,0.1676923076923078,0.3133807692307702,-1.3995961538461539,0.10390192307692303,0.3683076923076924,-0.9005769230769229,-0.6989826923076925,-0.5421173076923078,0.34125000000000005,0.7262872185464678,0.7264635145939838,0.9058071845792361,1.0489466402915222
H1_squat_fast_20251205_013759,51363.0,-9.227,-0.541,-3.015,-9.497,-0.282,-2.508,-5.04,-0.28,0.42,0.25169230769230744,-0.016619230769229887,-7.5595961538461545,0.25890192307692295,0.5143076923076924,-1.670576923076923,-0.19598269230769283,0.3118826923076923,-0.35875000000000007,0.41083870217955354,0.6017137317357146,0.9419855683705786,1.0948669624756595
H1_squat_fast_20251205_013759,,-9.373,-0.778,-2.795,-9.383,-0.146,-2.915,-4.76,0.35,0.63,0.10569230769230842,0.09738076923077088,-7.279596153846153,0.021901923076922958,0.6503076923076924,-1.040576923076923,0.024017307692307366,-0.09511730769230775,-0.14875000000000005,0.11057752578431122,0.6644022961377889,0.9888500068001984,1.1106273847583703
H1_squat_fast_20251205_013759,,-9.411,-0.687,-2.302,-9.201,-0.194,-3.415,-4.48,1.26,0.77,0.06769230769230816,0.2793807692307695,-6.999596153846154,0.11290192307692293,0.6023076923076924,-0.13057692307692292,0.5170173076923072,-0.5951173076923078,-0.008750000000000036,0.5335128763287531,0.8916236764150756,1.0772283578679074,1.123519023215596
H1_squat_fast_20251205_013759,,-9.452,-0.536,-2.01,-9.189,-0.531,-3.714,-5.46,2.17,0.91,0.026692307692307793,0.29138076923076994,-7.979596153846154,0.26390192307692295,0.26530769230769236,0.779423076923077,0.8090173076923075,-0.8941173076923077,0.13124999999999998,0.8513904559245122,0.9771062809081156,1.1611419835796477,1.1676514754707763
H1_squat_fast_20251205_013759,51438.0,-9.162,-0.83,-3.81,-9.253,-1.091,-2.051,-11.48,3.22,0.21,0.31669230769230694,0.22738076923076989,-13.999596153846154,-0.030098076923076977,-0.2946923076923076,1.8294230769230773,-0.9909826923076928,0.7688826923076921,-0.5687500000000001,1.0407913376077595,0.8542401096643258,1.2500761449875883,1.1782967615441524
H1_squat_fast_20251205_013759,,-9.196,-0.809,-3.687,-9.426,-1.127,-1.278,-8.12,3.5,0.7,0.282692307692308,0.05438076923076984,-10.639596153846153,-0.00909807692307707,-0.3306923076923076,2.1094230769230773,-0.8679826923076925,1.5418826923076923,-0.0787500000000001,0.9129028809122092,1.5778836798912053,1.3566227709927436,1.2060046744324535
H1_squat_fast_20251205_013759,,-9.083,-0.948,-3.19,-9.517,-0.821,-0.804,-6.16,4.06,1.26,0.39569230769230757,-0.03661923076922946,-8.679596153846154,-0.14809807692307697,-0.02469230769230757,2.669423076923077,-0.37098269230769265,2.0158826923076925,0.48124999999999996,0.5622575928762915,2.016366461550829,1.4331506693323564,1.3299079229527127
H1_squat_fast_20251205_013759,,-9.172,-1.043,-2.668,-9.49,-0.471,-0.043,-3.92,4.9,2.1,0.30669230769230715,-0.009619230769230214,-6.4395961538461535,-0.24309807692307694,0.3253076923076924,3.5094230769230776,0.15101730769230715,2.776882692307692,1.32125,0.41947952730015803,2.7958889661632065,1.4920789111233874,1.5165303374571044
H1_squat_fast_20251205_013759,51514.0,-9.782,0.56,-1.63,-8.555,1.534,-5.154,-3.71,15.12,3.92,-0.3033076923076923,0.9253807692307703,-6.229596153846154,1.3599019230769231,2.3303076923076924,13.729423076923077,1.1890173076923074,-2.3341173076923076,3.14125,1.8316907366128143,3.4256046349453877,1.656790870646682,1.666216750100023
H1_squat_fast_20251205_013759,,-9.299,1.125,-2.733,-8.571,0.94,-4.812,-16.1,13.93,1.82,0.17969230769230826,0.9093807692307703,-18.619596153846157,1.924901923076923,1.7363076923076923,12.539423076923077,0.0860173076923072,-1.992117307692308,1.04125,1.9351836388652257,2.7946858774146444,1.8042181058998592,1.7800934617060198
H1_squat_fast_20251205_013759,,-9.117,1.388,-4.037,-8.801,-0.311,-3.951,-27.65,12.32,0.7,0.36169230769230687,0.6793807692307698,-30.169596153846154,2.187901923076923,0.4853076923076924,10.929423076923078,-1.2179826923076926,-1.1311173076923078,-0.0787500000000001,2.5300628429366294,1.4058834053984368,1.9758853059815942,1.8586305110907138
H1_squat_fast_20251205_013759,,-8.866,1.866,-4.982,-9.263,-1.627,-3.173,-36.54,10.99,-0.35,0.6126923076923081,0.2173807692307701,-39.05959615384615,2.665901923076923,-0.8306923076923076,9.599423076923078,-2.162982692307693,-0.35311730769230776,-1.1287500000000001,3.487250930832652,0.9284373656216108,2.141852461547807,1.9394593579467514
H1_squat_fast_20251205_013759,51590.0,-9.837,-1.938,-2.029,-8.875,0.168,-1.266,-21.35,15.54,-4.06,-0.358307692307692,0.60538076923077,-23.869596153846157,-1.138098076923077,0.9643076923076924,14.149423076923076,0.7900173076923074,1.5538826923076923,-4.838749999999999,1.431006282836058,1.9263765526634786,2.2230702141402787,2.0598612139670545
H1_squat_fast_20251205_013759,,-9.945,-1.524,-1.347,-9.026,0.017,-2.166,-8.75,17.85,-3.22,-0.46630769230769253,0.4543807692307702,-11.269596153846154,-0.724098076923077,0.8133076923076924,16.459423076923077,1.4720173076923073,0.6538826923076924,-3.9987500000000002,1.705460595573739,1.1381976371057738,2.3124999149063514,2.14354427678233
H1_squat_fast_20251205_013759,,-9.442,-1.067,0.134,-9.203,-0.629,-3.544,-0.35,21.14,-1.82,0.03669230769230758,0.2773807692307706,-2.869596153846154,-0.26709807692307697,0.16730769230769238,19.749423076923076,2.953017307692307,-0.7241173076923078,-2.59875,2.9652991295432765,0.7932703387521406,2.4843171456143125,2.195881996174976
H1_squat_fast_20251205_013759,,-9.342,-0.424,-0.055,-8.581,-1.871,-3.826,6.79,24.29,0.07,0.13669230769230722,0.8993807692307705,4.270403846153846,0.375901923076923,-1.0746923076923076,22.899423076923075,2.764017307692307,-1.0061173076923078,-0.70875,2.792808392994014,1.725143866787106,2.6769001915317068,2.222162161829776
H1_squat_fast_20251205_013759,51666.0,-8.208,-3.053,-4.046,-9.162,-0.83,-3.503,-3.99,34.65,4.06,1.2706923076923076,0.3183807692307692,-6.509596153846154,-2.253098076923077,-0.03369230769230758,33.25942307692308,-1.226982692307693,-0.6831173076923078,3.2812499999999996,2.862969858780477,0.7544207989460501,2.7058782997655917,2.236771232098719
H1_squat_fast_20251205_013759,,-7.897,-3.23,-4.319,-8.899,0.608,-2.793,8.54,35.91,5.67,1.5816923076923075,0.5813807692307709,6.020403846153846,-2.430098076923077,1.4043076923076923,34.519423076923076,-1.4999826923076927,0.026882692307692135,4.891249999999999,3.2645176208593036,1.5201336693368872,2.7324074690061364,2.239155097977506
H1_squat_fast_20251205_013759,,-8.409,-2.675,-4.59,-8.454,2.503,-4.202,21.49,36.68,6.58,1.069692307692307,1.0263807692307694,18.970403846153843,-1.8750980769230767,3.2993076923076927,35.28942307692308,-1.7709826923076926,-1.3821173076923077,5.80125,2.792241774572918,3.721442863217181,2.7565575705693797,2.281588378194489
H1_squat_fast_20251205_013759,,-9.129,-1.895,-4.439,-8.849,2.929,-6.289,34.51,37.66,7.91,0.3496923076923082,0.6313807692307698,31.990403846153843,-1.095098076923077,3.725307692307692,36.269423076923076,-1.6199826923076928,-3.4691173076923074,7.13125,1.986421010641066,5.129457473520141,2.7868830879329,2.3465207329650024
H1_squat_fast_20251205_013759,51742.0,-9.493,1.168,-7.322,-7.755,-3.53,-5.791,-6.09,20.44,1.82,-0.014307692307692577,1.72538076923077,-8.609596153846153,1.9679019230769228,-2.7336923076923076,19.049423076923077,-4.502982692307693,-2.971117307692308,1.04125,4.914234000953929,4.390620740628396,2.9098455988090848,2.33876043656169
H1_squat_fast_20251205_013759,,-9.361,-1.876,-7.495,-8.047,-2.302,-5.461,-18.48,18.76,5.53,0.1176923076923071,1.4333807692307694,-20.999596153846156,-1.0760980769230768,-1.5056923076923077,17.369423076923077,-4.675982692307693,-2.641117307692308,4.751250000000001,4.799651309127424,3.3611293322388303,3.024674968528882,2.289354086977508
H1_squat_fast_20251205_013759,,-8.947,-4.427,-6.32,-8.959,-1.302,-5.451,-9.52,19.25,9.52,0.5316923076923086,0.5213807692307704,-12.039596153846153,-3.6270980769230765,-0.5056923076923077,17.859423076923076,-3.500982692307693,-2.6311173076923073,8.741249999999999,5.069064704806625,2.729531260751717,3.0639471879263973,2.228496274364434
H1_squat_fast_20251205_013759,,-8.282,-4.561,-5.954,-9.234,-0.924,-5.652,14.07,18.13,10.64,1.1966923076923077,0.24638076923077,11.550403846153847,-3.761098076923077,-0.12769230769230766,16.739423076923075,-3.1349826923076924,-2.832117307692308,9.86125,5.040441221221927,2.8456804552550974,3.081488684805622,2.204120840580041
H1_squat_fast_20251205_013759,51817.0,-8.825,-0.962,-5.561,-9.112,1.134,-6.143,19.88,13.23,19.25,0.6536923076923085,0.3683807692307699,17.360403846153844,-0.16209807692307698,1.9303076923076923,11.839423076923078,-2.7419826923076926,-3.3231173076923075,18.47125,2.8234833990291492,3.860686573500298,3.0724537157223226,2.2888159973722098
H1_squat_fast_20251205_013759,,-8.385,0.014,-5.549,-9.703,0.79,-5.24,19.46,12.88,20.44,1.093692307692308,-0.2226192307692294,16.940403846153846,0.813901923076923,1.5863076923076924,11.489423076923078,-2.729982692307693,-2.420117307692308,19.661250000000003,3.051459438464356,2.9022231477911387,3.055388610273022,2.3691725089047346
H1_squat_fast_20251205_013759,,-7.648,1.266,-6.841,-10.067,0.342,-4.307,16.17,8.54,19.39,1.830692307692308,-0.5866192307692302,13.650403846153848,2.065901923076923,1.1383076923076925,7.149423076923076,-4.021982692307693,-1.487117307692308,18.611250000000002,4.8780867005865485,1.9624944359445113,3.152135993031691,2.397358101111644
H1_squat_fast_20251205_013759,,-7.827,1.594,-7.03,-9.89,0.055,-3.781,7.98,3.99,17.85,1.6516923076923078,-0.40961923076923057,5.460403846153847,2.393901923076923,0.8513076923076924,2.5994230769230775,-4.210982692307693,-0.9611173076923079,17.071250000000003,5.11773671963655,1.3476866031625956,3.2457104672384878,2.442672453571695
H1_squat_fast_20251205_013759,51893.0,-8.916,-0.27,-3.848,-8.624,-1.618,-3.276,7.35,-0.07,10.36,0.5626923076923074,0.8563807692307694,4.830403846153846,0.529901923076923,-0.8216923076923077,-1.460576923076923,-1.0289826923076926,-0.4561173076923075,9.581249999999999,1.2869436904097642,1.2714595034075893,3.2203294926465045,2.558344464007172
H1_squat_fast_20251205_013759,,-8.428,-0.833,-3.946,-8.837,-0.833,-3.635,7.14,1.33,10.71,1.050692307692307,0.6433807692307703,4.620403846153845,-0.03309807692307698,-0.03669230769230758,-0.06057692307692286,-1.1269826923076929,-0.8151173076923075,9.93125,1.541148856178691,1.0390867937565758,3.2277126640740668,2.6200104484482885
H1_squat_fast_20251205_013759,,-8.385,-1.62,-3.776,-9.136,0.696,-4.039,8.12,3.92,11.41,1.093692307692308,0.34438076923077077,5.600403846153846,-0.8200980769230771,1.4923076923076923,2.529423076923077,-0.9569826923076925,-1.2191173076923074,10.63125,1.6686939782520744,1.9575053953058796,3.2484152376290085,2.6925830397035257
H1_squat_fast_20251205_013759,,-8.641,-2.063,-3.592,-9.244,2.065,-4.377,11.13,6.3,12.46,0.8376923076923077,0.23638076923077023,8.610403846153847,-1.263098076923077,2.861307692307692,4.909423076923077,-0.7729826923076928,-1.5571173076923075,11.68125,1.7013663323637531,3.2661249039245637,3.271161772708655,2.7105210918960605
H1_squat_fast_20251205_013759,51968.0,-9.162,2.52,-4.554,-8.823,0.763,-3.475,2.38,2.45,15.75,0.31669230769230694,0.6573807692307696,-0.1395961538461541,3.319901923076923,1.5593076923076925,1.0594230769230772,-1.734982692307693,-0.6551173076923078,14.97125,3.759282875657082,1.8145987550647107,3.24147716319744,2.6303248501666556
H1_squat_fast_20251205_013759,,-8.911,2.233,-4.259,-9.028,0.514,-3.422,-6.23,2.52,14.49,0.5676923076923082,0.45238076923076953,-8.749596153846154,3.032901923076923,1.3103076923076924,1.129423076923077,-1.439982692307693,-0.6021173076923079,13.71125,3.4050431400148855,1.5113238769744777,3.2440534809173087,2.509360043679649
H1_squat_fast_20251205_013759,,-8.626,1.586,-4.13,-9.308,0.562,-4.054,-10.57,2.73,12.46,0.8526923076923083,0.17238076923077017,-13.089596153846154,2.385901923076923,1.3583076923076924,1.339423076923077,-1.3109826923076926,-1.234117307692308,11.68125,2.852768440948217,1.843301507005447,3.129689012345241,2.430622334884787
H1_squat_fast_20251205_013759,,-8.564,1.127,-3.9,-9.062,0.352,-4.602,-9.52,4.55,9.66,0.9146923076923077,0.4183807692307706,-12.039596153846153,1.9269019230769229,1.1483076923076925,3.159423076923077,-1.0809826923076926,-1.782117307692308,8.88125,2.3912625577250632,2.1609245990204355,3.0146849829793774,2.3941038393167995
H1_squat_fast_20251205_013759,52044.0,-8.882,0.244,-4.774,-8.686,1.941,-5.032,9.8,5.81,4.48,0.5966923076923081,0.7943807692307701,7.280403846153847,1.0439019230769229,2.7373076923076924,4.419423076923077,-1.9549826923076927,-2.2121173076923077,3.7012500000000004,2.295153646770844,3.60795748199482,2.9096056550695946,2.4424823616502147
H1_squat_fast_20251205_013759,,-8.567,0.735,-5.284,-8.854,1.462,-4.721,13.51,3.71,3.01,0.9116923076923076,0.6263807692307708,10.990403846153846,1.534901923076923,2.2583076923076923,2.3194230769230773,-2.4649826923076925,-1.9011173076923078,2.2312499999999997,3.043558189150824,3.017706665467251,2.8126463271945377,2.4726590417855587
H1_squat_fast_20251205_013759,,-8.248,1.668,-5.642,-9.215,0.804,-4.927,16.31,2.31,-0.07,1.2306923076923084,0.26538076923077014,13.790403846153845,2.467901923076923,1.6003076923076924,0.9194230769230771,-2.822982692307693,-2.1071173076923073,-0.8487500000000001,3.9464382345614615,2.659201950043126,2.8317943055046397,2.428106143222501
H1_squat_fast_20251205_013759,,-8.356,2.041,-5.611,-9.021,-0.376,-5.051,11.62,2.66,-3.92,1.1226923076923079,0.4593807692307692,9.100403846153846,2.840901923076923,0.4203076923076924,1.2694230769230772,-2.7919826923076925,-2.231117307692308,-4.69875,4.1383969249504515,2.316370801067101,2.868450497115149,2.4065193251213755
H1_squat_fast_20251205_013759,52120.0,-9.21,-1.744,-4.905,-7.985,-2.51,-5.865,-5.67,4.48,-12.11,0.2686923076923069,1.4953807692307697,-8.189596153846153,-0.944098076923077,-1.7136923076923074,3.0894230769230777,-2.085982692307693,-3.045117307692308,-12.88875,2.3053937901517214,3.8007426100745425,2.7543287268382435,2.4541145396240553
H1_squat_fast_20251205_013759,,-8.93,-2.005,-5.494,-8.533,-1.91,-5.81,-0.35,2.59,-11.55,0.548692307692308,0.9473807692307705,-2.869596153846154,-1.2050980769230768,-1.1136923076923075,1.199423076923077,-2.6749826923076925,-2.9901173076923073,-12.328750000000001,2.984770850110628,3.3284594622561348,2.647830968569163,2.532033178163632
H1_squat_fast_20251205_013759,,-8.375,-2.426,-5.595,-9.038,-1.804,-5.221,5.67,0.98,-8.96,1.1036923076923078,0.44238076923076974,3.150403846153846,-1.626098076923077,-1.0076923076923077,-0.41057692307692295,-2.7759826923076925,-2.401117307692308,-9.738750000000001,3.401236771208962,2.6413081715822204,2.715486402386276,2.6175957242337193
H1_squat_fast_20251205_013759,,-7.997,-3.113,-5.525,-9.524,-1.445,-4.697,9.73,0.49,-4.69,1.4816923076923079,-0.043619230769229134,7.210403846153847,-2.313098076923077,-0.6486923076923077,-0.9005769230769229,-2.705982692307693,-1.8771173076923078,-5.46875,3.855927532930123,1.9865230263427829,2.780397814555241,2.712418567920292
H1_squat_fast_20251205_013759,52196.0,-9.007,-1.151,-4.752,-8.926,-1.101,-4.329,8.68,-2.24,3.85,0.4716923076923081,0.5543807692307698,6.160403846153846,-0.35109807692307704,-0.3046923076923076,-3.630576923076923,-1.9329826923076925,-1.5091173076923075,3.07125,2.0204419272813245,1.6363405782526579,2.847434890490705,2.7526089826806523
H1_squat_fast_20251205_013759,,-8.689,-1.18,-4.676,-8.521,-0.333,-4.494,5.46,-2.1,6.09,0.7896923076923077,0.9593807692307692,2.940403846153846,-0.38009807692307696,0.46330769230769236,-3.4905769230769232,-1.8569826923076929,-1.6741173076923075,5.311249999999999,2.0534052713576423,1.9843725048579568,2.9092793426940764,2.7166122868220173
H1_squat_fast_20251205_013759,,-8.808,-1.369,-4.549,-8.373,0.065,-4.697,3.99,-1.68,8.33,0.6706923076923079,1.1073807692307707,1.4704038461538462,-0.569098076923077,0.8613076923076923,-3.070576923076923,-1.729982692307693,-1.8771173076923078,7.55125,1.9407578180801828,2.3434403119619995,2.890500765668752,2.747624975650571
H1_squat_fast_20251205_013759,,-9.043,-1.744,-4.3,-8.753,0.648,-4.609,4.97,-1.75,10.64,0.4356923076923085,0.7273807692307699,2.4504038461538458,-0.944098076923077,1.4443076923076923,-3.1405769230769227,-1.4809826923076925,-1.7891173076923077,9.86125,1.8095465456149624,2.411648447471167,2.878774822265872,2.811770695924795
H1_squat_fast_20251205_013759,52271.0,-8.571,-0.297,-4.913,-9.813,2.448,-5.114,13.37,0.98,18.41,0.907692307692308,-0.3326192307692306,10.850403846153846,0.5029019230769229,3.244307692307692,-0.41057692307692295,-2.093982692307693,-2.2941173076923076,17.63125,2.3370021791522637,3.9873728414204983,2.903557765472817,2.862028505669537
H1_squat_fast_20251205_013759,,-9.186,1.062,-4.491,-9.476,1.974,-5.166,15.68,3.92,17.92,0.2926923076923078,0.004380769230769133,13.160403846153846,1.861901923076923,2.7703076923076924,2.529423076923077,-1.6719826923076924,-2.346117307692308,17.141250000000003,2.5194986964704453,3.6302741387740443,2.940676031173906,2.90457939716308
H1_squat_fast_20251205_013759,,-9.072,1.914,-4.69,-8.794,0.591,-5.035,15.33,6.58,15.82,0.4066923076923086,0.6863807692307695,12.810403846153847,2.713901923076923,1.3873076923076924,5.189423076923077,-1.870982692307693,-2.215117307692308,15.04125,3.3213308350918096,2.702311210860795,2.9733695975616667,2.8899207083500147
H1_squat_fast_20251205_013759,,-9.316,2.565,-4.984,-8.744,-0.409,-5.008,11.41,8.26,11.27,0.16269230769230703,0.7363807692307702,8.890403846153847,3.364901923076923,0.3873076923076924,6.869423076923077,-2.1649826923076927,-2.1881173076923077,10.491249999999999,4.004520420337608,2.34096587716187,2.96707386890034,2.903533682197434
H1_squat_fast_20251205_013759,52347.0,-8.921,-0.72,-4.645,-8.722,0.687,-5.552,-0.63,15.47,2.73,0.5576923076923084,0.7583807692307705,-3.149596153846154,0.07990192307692301,1.4833076923076924,14.079423076923078,-1.8259826923076923,-2.7321173076923073,1.95125,1.9109206733869961,3.1999700130141986,2.948402752531362,2.9222727340764725
H1_squat_fast_20251205_013759,,-9.021,-0.17,-5.035,-8.737,0.838,-5.676,1.4,12.6,2.59,0.45769230769230695,0.7433807692307699,-1.119596153846154,0.6299019230769229,1.6343076923076922,11.209423076923077,-2.215982692307693,-2.856117307692308,1.8112499999999998,2.3487950046404573,3.3735712051915816,2.9243985592583908,2.9436193348664657
H1_squat_fast_20251205_013759,,-8.437,0.395,-5.42,-8.603,1.0,-5.688,0.07,11.13,2.38,1.0416923076923084,0.8773807692307702,-2.449596153846154,1.1949019230769231,1.7963076923076924,9.739423076923078,-2.6009826923076926,-2.8681173076923074,1.6012499999999998,3.045984969654714,3.496085701229868,2.978067803600505,2.9071245767405225
H1_squat_fast_20251205_013759,,-8.557,0.644,-5.556,-8.413,0.754,-5.776,-4.06,10.5,2.1,0.9216923076923074,1.0673807692307697,-6.579596153846154,1.443901923076923,1.5503076923076924,9.109423076923077,-2.7369826923076928,-2.9561173076923075,1.32125,3.2288455725717626,3.504480729607468,2.9916015018841144,2.8543164238665426
H1_squat_fast_20251205_013759,52423.0,-8.705,0.555,-5.853,-8.952,-0.124,-5.698,-20.37,8.47,0.49,0.7736923076923077,0.52838076923077,-22.889596153846156,1.354901923076923,0.6723076923076924,7.079423076923078,-3.0339826923076925,-2.878117307692308,-0.28875000000000006,3.411657952574148,3.0024561790752275,2.944275499345027,2.8584553137232946
H1_squat_fast_20251205_013759,,-8.835,0.249,-5.891,-9.225,-0.268,-5.075,-19.11,7.63,-0.35,0.6436923076923069,0.25538076923077035,-21.629596153846155,1.048901923076923,0.5283076923076924,6.239423076923077,-3.0719826923076927,-2.255117307692308,-1.1287500000000001,3.309322089651404,2.330210811600054,2.9007409463069536,2.885579259011195
H1_squat_fast_20251205_013759,,-8.792,0.002,-5.915,-8.997,0.038,-5.257,-16.31,7.14,-0.98,0.6866923076923079,0.4833807692307701,-18.829596153846154,0.801901923076923,0.8343076923076924,5.749423076923077,-3.0959826923076927,-2.4371173076923074,-1.75875,3.271039872998653,2.620928664607131,2.9304947968665362,2.903927328285985
H1_squat_fast_20251205_013759,,-8.902,-0.213,-5.808,-8.471,0.323,-5.619,-12.25,6.93,-1.47,0.5766923076923085,1.00938076923077,-14.769596153846154,0.586901923076923,1.1193076923076923,5.539423076923077,-2.9889826923076925,-2.7991173076923075,-2.2487500000000002,3.1001686115399933,3.179112604104281,2.955382892480894,2.91616173812937
H1_squat_fast_20251205_013759,52499.0,-8.311,0.431,-5.877,-8.878,-0.644,-5.908,-8.61,-1.82,-1.61,1.1676923076923078,0.6023807692307699,-11.129596153846153,1.230901923076923,0.15230769230769237,-3.210576923076923,-3.0579826923076925,-3.088117307692308,-2.38875,3.4971249643287927,3.1500045603687528,2.974735517189487,2.8818042555312156
H1_squat_fast_20251205_013759,,-8.48,0.225,-5.855,-8.806,-0.641,-6.013,-9.73,-2.52,-2.03,0.9986923076923073,0.6743807692307708,-12.249596153846154,1.024901923076923,0.15530769230769237,-3.910576923076923,-3.035982692307693,-3.1931173076923076,-2.80875,3.356337465953391,3.2672477778525457,3.0067321711225268,2.844164101365393
H1_squat_fast_20251205_013759,,-8.741,-0.215,-5.82,-8.832,-0.534,-5.97,-9.66,-2.59,-2.17,0.7376923076923081,0.6483807692307693,-12.179596153846154,0.584901923076923,0.26230769230769235,-3.9805769230769226,-3.000982692307693,-3.1501173076923075,-2.94875,3.1451863728526193,3.2268315728551284,3.0039709696327797,2.7708134189251874
H1_squat_fast_20251205_013759,,-9.062,-0.512,-5.654,-8.612,-0.258,-6.033,-7.77,-2.87,-1.89,0.41669230769230836,0.8683807692307699,-10.289596153846153,0.28790192307692297,0.5383076923076924,-4.260576923076923,-2.8349826923076926,-3.213117307692308,-2.66875,2.879869243956313,3.3716439855001483,2.982217683728902,2.7072736498723406
H1_squat_fast_20251205_013759,52575.0,-8.476,-0.014,-6.037,-8.464,0.273,-5.599,6.37,-12.39,0.21,1.0026923076923069,1.0163807692307696,3.850403846153846,0.785901923076923,1.0693076923076923,-13.780576923076923,-3.2179826923076926,-2.779117307692308,-0.5687500000000001,3.4609892089680363,3.1464172988981414,2.9098066952039283,2.6391893081260167
H1_squat_fast_20251205_013759,,-8.452,0.17,-6.037,-8.839,0.337,-5.379,4.83,-15.05,1.4,1.0266923076923078,0.6413807692307696,2.310403846153846,0.969901923076923,1.1333076923076923,-16.440576923076925,-3.2179826923076926,-2.5591173076923073,0.6212499999999999,3.514287899853217,2.8713824216069104,2.790487599424125,2.5746713556495533
H1_squat_fast_20251205_013759,,-8.258,0.321,-6.128,-8.839,0.73,-5.142,3.22,-17.29,1.82,1.2206923076923086,0.6413807692307696,0.7004038461538462,1.120901923076923,1.5263076923076924,-18.680576923076924,-3.308982692307693,-2.322117307692308,1.04125,3.7007941430466764,2.851878898800028,2.742745439321704,2.474362909259279
H1_squat_fast_20251205_013759,,-8.43,0.304,-5.788,-8.842,0.258,-4.338,0.63,-19.46,1.82,1.048692307692308,0.6383807692307695,-1.889596153846154,1.103901923076923,1.0543076923076924,-20.850576923076925,-2.968982692307693,-1.5181173076923078,1.04125,3.3366470054844855,1.9554474875326573,2.674787143631862,2.3689380924253793
H1_squat_fast_20251205_013759,52650.0,-9.189,0.443,-4.575,-8.646,0.215,-5.236,-3.92,-28.28,-1.68,0.2896923076923077,0.8343807692307692,-6.4395961538461535,1.242901923076923,1.0113076923076925,-29.670576923076926,-1.7559826923076929,-2.4161173076923075,-2.45875,2.170760705192671,2.748919307857756,2.6047369022167084,2.3228230986440357
H1_squat_fast_20251205_013759,,-8.832,0.861,-4.879,-8.409,-0.005,-5.159,-2.1,-30.17,-2.73,0.646692307692307,1.0713807692307693,-4.619596153846154,1.6609019230769229,0.7913076923076924,-31.560576923076926,-2.0599826923076923,-2.3391173076923075,-3.50875,2.72402915394022,2.6917456038282204,2.5499868764766216,2.2755640590181248
H1_squat_fast_20251205_013759,,-8.748,0.849,-4.953,-8.557,-0.225,-4.633,-2.8,-31.5,-4.06,0.7306923076923084,0.9233807692307696,-5.319596153846154,1.6489019230769228,0.5713076923076924,-32.89057692307692,-2.133982692307693,-1.8131173076923077,-4.838749999999999,2.7940420418304868,2.113390379397179,2.518022461157452,2.2450774440460823
H1_squat_fast_20251205_013759,,-8.727,0.553,-5.032,-7.858,0.369,-3.965,-4.34,-32.69,-4.41,0.7516923076923074,1.6223807692307703,-6.859596153846153,1.352901923076923,1.1653076923076924,-34.08057692307692,-2.2129826923076927,-1.1451173076923076,-5.188750000000001,2.700495757330944,2.3024671607859655,2.48316545378118,2.281145581123208
H1_squat_fast_20251205_013759,52726.0,-8.985,0.849,-4.554,-8.947,0.117,-3.812,9.17,-38.99,-5.95,0.4936923076923083,0.5333807692307708,6.650403846153846,1.6489019230769228,0.9133076923076924,-40.38057692307692,-1.734982692307693,-0.9921173076923075,-6.72875,2.443926060503587,1.4501457644099933,2.503001666995569,2.260220032396603
H1_squat_fast_20251205_013759,,-9.155,1.182,-4.535,-9.591,0.481,-3.46,4.62,-39.27,-6.44,0.3236923076923084,-0.1106192307692293,2.100403846153846,1.981901923076923,1.2773076923076925,-40.660576923076924,-1.7159826923076928,-0.6401173076923077,-7.21875,2.6414595478740037,1.4330044391597772,2.5223494492058958,2.197433494224217
H1_squat_fast_20251205_013759,,-8.825,0.778,-4.307,-9.622,1.184,-3.441,-3.85,-39.13,-7.28,0.6536923076923085,-0.1416192307692299,-6.369596153846154,1.5779019230769231,1.9803076923076923,-40.52057692307692,-1.487982692307693,-0.6211173076923076,-8.05875,2.2652109404188385,2.080255097975156,2.5152272213313607,2.129818387978675
H1_squat_fast_20251205_013759,,-8.71,0.27,-4.262,-9.313,1.173,-2.905,-5.6,-38.78,-8.68,0.7686923076923069,0.1673807692307694,-8.119596153846153,1.0699019230769231,1.9693076923076924,-40.17057692307692,-1.4429826923076923,-0.08511730769230752,-9.45875,1.9539132629696176,1.978240143400017,2.4890335408683706,2.0313683693527875
H1_squat_fast_20251205_013759,52801.0,-9.182,0.605,-2.73,-8.973,-1.108,-3.537,-12.95,-36.33,-16.1,0.29669230769230737,0.5073807692307692,-15.469596153846153,1.404901923076923,-0.3116923076923077,-37.72057692307692,0.08901730769230731,-0.7171173076923076,-16.87875,1.4386451334425077,0.9321183254563914,2.3832092056752043,1.94938317536422
H1_squat_fast_20251205_013759,,-9.117,-0.014,-2.563,-8.952,-1.094,-3.089,-18.48,-35.91,-17.08,0.36169230769230687,0.52838076923077,-20.999596153846156,0.785901923076923,-0.2976923076923077,-37.30057692307692,0.25601730769230713,-0.2691173076923077,-17.858749999999997,0.9022239300627143,0.6634991127738062,2.286037703175382,1.8635878865409798
H1_squat_fast_20251205_013759,,-8.947,-0.806,-2.412,-8.906,-0.928,-2.876,-18.62,-34.93,-16.87,0.5316923076923086,0.5743807692307694,-21.139596153846156,-0.006098076923077067,-0.13169230769230766,-36.32057692307692,0.4070173076923074,-0.056117307692307605,-17.64875,0.6696245107240525,0.5919504068670693,2.1704173254219024,1.774408831440274
H1_squat_fast_20251205_013759,,-8.981,-1.098,-2.864,-8.918,-0.531,-2.704,-15.54,-35.0,-16.24,0.4976923076923079,0.5623807692307707,-18.059596153846154,-0.2980980769230771,0.26530769230769236,-36.39057692307692,-0.044982692307692584,0.1158826923076921,-17.018749999999997,0.5818793167045726,0.6325259675101931,2.060623589458756,1.7076739474833103
H1_squat_fast_20251205_013759,52877.0,-8.892,-0.163,-1.953,-9.117,0.711,-1.125,25.9,-30.66,-13.51,0.5866923076923083,0.3633807692307691,23.380403846153843,0.636901923076923,1.5073076923076925,-32.050576923076925,0.8660173076923072,1.6948826923076923,-14.28875,1.2246786928607198,2.2970958629149236,1.9681008482925553,1.608032789049423
H1_squat_fast_20251205_013759,,-9.22,0.23,-1.359,-8.952,0.488,-1.017,29.33,-29.61,-12.74,0.2586923076923071,0.52838076923077,26.810403846153843,1.029901923076923,1.2843076923076924,-31.000576923076924,1.4600173076923073,1.8028826923076924,-13.51875,1.8053449033295021,2.2757456993337906,1.8872970843295165,1.5471006449836535
H1_squat_fast_20251205_013759,,-9.44,0.55,-0.62,-9.1,-0.306,-0.699,28.56,-27.93,-12.25,0.03869230769230825,0.38038076923077035,26.040403846153843,1.349901923076923,0.4903076923076924,-29.320576923076924,2.199017307692307,2.1208826923076924,-13.02875,2.580583154275726,2.209804189802122,1.8454948386070582,1.474190437183687
H1_squat_fast_20251205_013759,,-9.402,0.536,-0.823,-9.064,-1.661,0.304,24.85,-26.74,-12.88,0.0766923076923085,0.41638076923076994,22.330403846153846,1.3359019230769231,-0.8646923076923076,-28.130576923076923,1.9960173076923073,3.123882692307692,-13.658750000000001,2.4030398978683314,3.267982375605323,1.7687223360127917,1.4043328523038918
H1_squat_fast_20251205_013759,52953.0,-9.368,-2.312,0.651,-9.371,-0.115,-0.861,23.8,-11.62,-7.0,0.11069230769230742,0.10938076923076956,21.280403846153845,-1.5120980769230767,0.6813076923076924,-13.010576923076922,3.4700173076923075,1.9588826923076923,-7.7787500000000005,3.7867814165727713,2.0768643977154073,1.7048767714766202,1.3922027577112779
H1_squat_fast_20251205_013759,,-9.574,-1.96,0.591,-8.988,-0.921,-1.359,29.47,-8.47,-5.25,-0.0953076923076921,0.49238076923077045,26.950403846153844,-1.1600980769230769,-0.12469230769230766,-9.860576923076923,3.410017307692307,1.4608826923076923,-6.0287500000000005,3.603210949008499,1.5466626116222277,1.657239170339437,1.356231643468242
H1_squat_fast_20251205_013759,,-9.56,-0.998,0.486,-9.052,-1.378,-1.63,30.45,-5.39,-4.41,-0.08130769230769275,0.4283807692307704,27.930403846153844,-0.19809807692307702,-0.5816923076923075,-6.780576923076922,3.3050173076923075,1.1898826923076924,-5.188750000000001,3.3119470395908706,1.3920117979846836,1.618749089918301,1.340919533095102
H1_squat_fast_20251205_013759,,-9.598,-0.077,-0.246,-9.359,-1.153,-2.221,23.1,-2.59,-4.76,-0.119307692307693,0.12138076923077001,20.580403846153846,0.722901923076923,-0.35669230769230764,-3.9805769230769226,2.5730173076923073,0.5988826923076922,-5.53875,2.6753017739156584,0.7075472935794661,1.5863350642162948,1.3309273262311114
H1_squat_fast_20251205_013759,53029.0,-9.608,-0.897,-2.46,-9.66,0.223,-3.178,3.08,9.38,-3.71,-0.1293076923076928,-0.17961923076923014,0.5604038461538461,-0.09709807692307704,1.0193076923076925,7.989423076923078,0.35901730769230733,-0.35811730769230765,-4.48875,0.39375365783029065,1.0952165291523637,1.5377962025213148,1.359688067108059
H1_squat_fast_20251205_013759,,-9.706,-0.591,-2.647,-9.541,0.101,-3.522,4.34,9.87,-3.01,-0.22730769230769177,-0.06061923076923037,1.8204038461538459,0.208901923076923,0.8973076923076924,8.479423076923077,0.1720173076923075,-0.7021173076923075,-3.78875,0.3534101789609277,1.1409664760959035,1.5114063588868762,1.364023318024197
H1_squat_fast_20251205_013759,,-9.734,-0.505,-3.053,-9.524,-0.632,-3.63,4.13,10.08,-2.73,-0.25530769230769224,-0.043619230769229134,1.610403846153846,0.294901923076923,0.16430769230769238,8.689423076923077,-0.23398269230769264,-0.8101173076923076,-3.50875,0.4548593873775752,0.8277618662797964,1.5119993981171036,1.4020051575135186
H1_squat_fast_20251205_013759,,-9.646,-0.23,-3.106,-9.526,-1.039,-3.929,2.52,9.52,-3.57,-0.16730769230769305,-0.0456192307692298,0.0004038461538460325,0.569901923076923,-0.24269230769230754,8.129423076923077,-0.2869826923076926,-1.1091173076923075,-4.34875,0.6596507648114057,1.1362754387258516,1.5503742996306171,1.4338648628005706
H1_squat_fast_20251205_013759,53104.0,-9.354,-0.936,-4.101,-9.368,-0.68,-3.025,-7.56,4.06,-4.48,0.12469230769230855,0.11238076923076967,-10.079596153846154,-0.13609807692307707,0.11630769230769233,2.669423076923077,-1.2819826923076927,-0.20511730769230763,-5.258750000000001,1.2952028727254559,0.26120877951895327,1.577119304262193,1.5093265904889663
H1_squat_fast_20251205_013759,,-9.385,-0.933,-4.044,-9.395,-1.005,-2.525,-3.99,2.66,-3.78,0.09369230769230796,0.08538076923077043,-6.509596153846154,-0.13309807692307707,-0.2086923076923075,1.2694230769230772,-1.2249826923076923,0.2948826923076924,-4.55875,1.2357491424454778,0.3712117418226584,1.6037067737920934,1.56955430382931
H1_squat_fast_20251205_013759,,-9.392,-0.744,-3.898,-9.433,-1.292,-2.127,-0.91,1.19,-3.29,0.08669230769230829,0.04738076923077017,-3.429596153846154,0.05590192307692299,-0.49569230769230765,-0.20057692307692299,-1.0789826923076928,0.6928826923076925,-4.06875,1.083902316408759,0.8532539050586182,1.6152379383985997,1.5753985705030382
H1_squat_fast_20251205_013759,,-9.311,-0.598,-3.498,-9.375,-1.129,-2.017,1.26,0.07,-2.87,0.1676923076923078,0.10538076923077,-1.259596153846154,0.201901923076923,-0.3326923076923076,-1.3205769230769229,-0.6789826923076929,0.8028826923076924,-3.64875,0.7279440864892953,0.8754483969535558,1.6322129438683721,1.5810819269692256
H1_squat_fast_20251205_013759,53180.0,-9.323,-1.163,-1.756,-9.548,-1.326,-1.103,1.96,3.01,0.77,0.15569230769230735,-0.06761923076923004,-0.559596153846154,-0.36309807692307705,-0.5296923076923077,1.6194230769230769,1.0630173076923073,1.7168826923076923,-0.008750000000000036,1.1340573638900258,1.7980079199892125,1.6283550277119774,1.535191928237634
H1_squat_fast_20251205_013759,,-9.287,-1.352,-1.479,-9.648,-0.924,-1.469,-0.21,4.83,1.89,0.19169230769230694,-0.1676192307692297,-2.729596153846154,-0.5520980769230771,-0.12769230769230766,3.4394230769230774,1.3400173076923072,1.3508826923076922,1.1112499999999998,1.461918127764172,1.367218190467028,1.6236029855069394,1.5019979605420286
H1_squat_fast_20251205_013759,,-9.363,-1.374,-1.5,-9.402,-0.818,-1.771,-1.96,6.65,3.15,0.1156923076923082,0.07838076923077075,-4.479596153846154,-0.5740980769230771,-0.021692307692307566,5.259423076923078,1.3190173076923073,1.0488826923076924,2.37125,1.4431839695540587,1.0520308947083532,1.5437477519890577,1.5692245875761566
H1_squat_fast_20251205_013759,,-9.43,-1.548,-1.184,-9.258,-0.785,-1.668,-2.87,8.47,4.27,0.048692307692308034,0.22238076923077088,-5.3895961538461545,-0.7480980769230771,0.011307692307692352,7.079423076923078,1.6350173076923074,1.1518826923076924,3.4912499999999995,1.7986948796218356,1.1732070606960276,1.4318167133274504,1.6800249964476432
H1_squat_fast_20251205_013759,53255.0,-9.318,-0.689,-1.835,-9.363,-2.218,-0.378,-6.23,16.38,8.96,0.16069230769230813,0.11738076923077045,-8.749596153846154,0.11090192307692304,-1.4216923076923076,14.989423076923076,0.9840173076923073,2.441882692307692,8.18125,1.0032005363493663,2.8280343607757934,1.49631182960851,1.7775725445057486
H1_squat_fast_20251205_013759,,-9.299,-0.849,-1.565,-9.476,-1.426,-0.826,-5.32,18.48,9.94,0.17969230769230826,0.004380769230769133,-7.839596153846154,-0.049098076923076994,-0.6296923076923076,17.089423076923076,1.2540173076923073,1.9938826923076922,9.161249999999999,1.267777328474206,2.090956667219598,1.5278237545076139,1.865954274166209
H1_squat_fast_20251205_013759,,-9.33,-1.23,-1.438,-9.387,-0.467,-0.931,-4.41,21.07,11.69,0.14869230769230768,0.09338076923076954,-6.929596153846154,-0.430098076923077,0.32930769230769236,19.679423076923076,1.3810173076923073,1.8888826923076922,10.911249999999999,1.454064153428418,1.919646152178756,1.6273147849868095,1.9298533904308712
H1_squat_fast_20251205_013759,,-9.292,-1.843,-1.242,-9.45,0.199,-1.709,-3.64,24.43,13.79,0.18669230769230793,0.03038076923077071,-6.159596153846154,-1.0430980769230769,0.9953076923076924,23.039423076923075,1.5770173076923073,1.1108826923076922,13.011249999999999,1.8999713694140747,1.4918514502371556,1.7519672751534865,1.9750764250092685
H1_squat_fast_20251205_013759,53331.0,-9.387,0.313,-2.034,-7.461,0.766,-2.883,3.71,32.13,15.47,0.0916923076923073,2.0193807692307697,1.190403846153846,1.112901923076923,1.5623076923076924,30.739423076923078,0.7850173076923075,-0.06311730769230772,14.69125,1.3649946311450214,2.5539553267653625,1.8754984367285468,2.080719085966994
H1_squat_fast_20251205_013759,,-9.153,0.333,-2.338,-7.995,0.759,-2.364,-2.38,32.41,15.4,0.3256923076923073,1.48538076923077,-4.899596153846154,1.132901923076923,1.5553076923076925,31.019423076923072,0.4810173076923072,0.4558826923076924,14.62125,1.2731535244819796,2.1984465143591243,2.0081883962347282,2.1799649857109293
H1_squat_fast_20251205_013759,,-8.839,0.56,-3.075,-8.722,0.842,-1.165,-4.62,32.76,15.33,0.6396923076923073,0.7583807692307705,-7.1395961538461545,1.3599019230769231,1.6383076923076922,31.369423076923074,-0.2559826923076929,1.6548826923076922,14.55125,1.5244889726298838,2.4490467964318623,2.128379298874825,2.304042838178297
H1_squat_fast_20251205_013759,,-8.373,0.828,-3.903,-9.452,1.247,-1.517,-6.44,30.31,13.37,1.1056923076923084,0.028380769230770042,-8.959596153846155,1.627901923076923,2.0433076923076925,28.919423076923074,-1.0839826923076927,1.3028826923076924,12.591249999999999,2.2466950455435915,2.4235129674546534,2.2347418782425743,2.4251382733534896
H1_squat_fast_20251205_013759,53407.0,-9.06,1.639,-2.651,-8.827,-1.441,-3.257,-17.64,31.36,0.63,0.41869230769230725,0.65338076923077,-20.159596153846156,2.438901923076923,-0.6446923076923077,29.969423076923075,0.1680173076923075,-0.43711730769230783,-0.14875000000000005,2.4802773342094615,1.0166642227807554,2.3135899557933928,2.476533707300003
H1_squat_fast_20251205_013759,,-9.256,1.426,-3.257,-9.849,-1.311,-5.14,-26.81,29.4,-0.14,0.22269230769230752,-0.3686192307692302,-29.329596153846154,2.225901923076923,-0.5146923076923076,28.009423076923074,-0.4379826923076928,-2.3201173076923074,-0.9187500000000001,2.279486800537341,2.40493921551958,2.3904380302664876,2.5237764558529467
H1_squat_fast_20251205_013759,,-8.629,0.684,-2.864,-9.698,-0.558,-6.631,-32.13,32.83,2.73,0.8496923076923082,-0.2176192307692304,-34.649596153846154,1.483901923076923,0.23830769230769233,31.439423076923074,-0.044982692307692584,-3.811117307692308,1.95125,1.7105453451078456,3.824756700602729,2.428805354482729,2.537830882242695
H1_squat_fast_20251205_013759,,-9.04,-0.861,-3.352,-9.215,-0.246,-7.205,-31.08,37.8,6.09,0.4386923076923086,0.26538076923077014,-33.59959615384615,-0.061098076923077005,0.5503076923076924,36.409423076923076,-0.5329826923076926,-4.385117307692308,5.311249999999999,0.693003943806713,4.42747324228088,2.467153090463863,2.550915691734482
H1_squat_fast_20251205_013759,53483.0,-8.165,-0.007,-7.566,-9.892,0.627,-6.458,14.7,35.28,10.85,1.3136923076923086,-0.41161923076922946,12.180403846153846,0.792901923076923,1.4233076923076924,33.88942307692308,-4.746982692307693,-3.638117307692308,10.07125,4.988820062898422,3.928248047495426,2.466076947675737,2.602705445818629
H1_squat_fast_20251205_013759,,-7.083,-0.637,-5.358,-9.371,0.313,-5.611,23.66,42.07,12.39,2.3956923076923076,0.10938076923076956,21.140403846153845,0.16290192307692297,1.1093076923076923,40.67942307692308,-2.5389826923076924,-2.7911173076923075,11.61125,3.4946118212923554,3.0054722647514294,2.4890688655937123,2.6619363315568694
H1_squat_fast_20251205_013759,,-8.05,-0.522,-5.42,-8.617,-0.371,-5.403,31.64,41.44,9.94,1.428692307692307,0.8633807692307691,29.120403846153845,0.27790192307692296,0.4253076923076924,40.04942307692308,-2.6009826923076926,-2.5831173076923073,9.161249999999999,2.9805204502893776,2.75659355203359,2.550134676626249,2.670628196917574
H1_squat_fast_20251205_013759,,-9.198,0.459,-6.174,-8.547,-1.015,-4.929,30.73,35.49,5.04,0.28069230769230735,0.9333807692307694,28.210403846153845,1.258901923076923,-0.21869230769230752,34.09942307692308,-3.354982692307693,-2.109117307692308,4.26125,3.5943749232945335,2.3167653751342323,2.6058574805424803,2.7327385678839278
H1_squat_fast_20251205_013759,53559.0,-9.232,-1.651,-6.377,-7.664,-1.378,-5.843,7.42,21.0,6.72,0.24669230769230843,1.8163807692307703,4.900403846153846,-0.851098076923077,-0.5816923076923075,19.609423076923076,-3.5579826923076925,-3.0231173076923077,5.94125,3.666669588329144,3.5744710511806574,2.704775203972669,2.706225322001925
H1_squat_fast_20251205_013759,,-10.421,-2.094,-6.604,-8.035,-0.237,-6.198,4.9,10.5,9.52,-0.9423076923076916,1.4453807692307699,2.3804038461538464,-1.2940980769230768,0.5593076923076924,9.109423076923077,-3.784982692307693,-3.378117307692308,8.741249999999999,4.109589711972114,3.7166688320681756,2.767724725210248,2.7035310172201723
H1_squat_fast_20251205_013759,,-9.265,-2.56,-6.868,-8.887,0.773,-5.877,3.43,5.81,14.42,0.21369230769230718,0.5933807692307695,0.9104038461538462,-1.760098076923077,1.5693076923076923,4.419423076923077,-4.048982692307693,-3.0571173076923075,13.64125,4.420166341367984,3.487232943670505,2.8225000758425733,2.676707847619705
H1_squat_fast_20251205_013759,,-7.803,-2.458,-6.052,-9.318,1.464,-5.513,7.63,8.33,18.06,1.6756923076923078,0.16238076923077038,5.1104038461538455,-1.658098076923077,2.260307692307692,6.939423076923077,-3.2329826923076923,-2.6931173076923076,17.28125,4.001176206006963,3.519693056377667,2.8379572556955384,2.6908801762617713
H1_squat_fast_20251205_013759,53634.0,-9.509,1.771,-4.611,-8.792,-0.756,-4.898,6.23,9.1,15.12,-0.03030769230769259,0.6883807692307702,3.7104038461538464,2.570901923076923,0.04030769230769238,7.709423076923077,-1.7919826923076925,-2.0781173076923074,14.341249999999999,3.133952332730025,2.189535187667977,2.8866443661531442,2.705380858261395
H1_squat_fast_20251205_013759,,-9.189,1.359,-4.458,-8.933,-0.727,-4.85,-2.87,9.73,14.7,0.2896923076923077,0.5473807692307702,-5.3895961538461545,2.158901923076923,0.0693076923076924,8.339423076923078,-1.638982692307693,-2.0301173076923074,13.921249999999999,2.725994022789761,2.1037598593300877,2.9275463046107597,2.703612429168631
H1_squat_fast_20251205_013759,,-9.21,0.62,-4.386,-8.753,-0.383,-4.815,-7.14,8.75,13.79,0.2686923076923069,0.7273807692307699,-9.659596153846154,1.419901923076923,0.4133076923076924,7.359423076923077,-1.5669826923076928,-1.995117307692308,13.011249999999999,2.131607793512312,2.1634230061226725,2.980740206530076,2.7498214138346677
H1_squat_fast_20251205_013759,,-8.847,-0.172,-5.111,-8.734,-0.756,-4.355,-5.39,6.23,13.3,0.6316923076923082,0.74638076923077,-7.909596153846154,0.6279019230769229,0.04030769230769238,4.839423076923078,-2.2919826923076925,-1.5351173076923081,12.52125,2.458959263273662,1.7074232372534843,3.0107570701145643,2.7350599860917226
H1_squat_fast_20251205_013759,53710.0,-8.952,-0.031,-3.884,-8.373,1.256,-3.381,20.37,0.91,12.39,0.5266923076923078,1.1073807692307707,17.850403846153846,0.768901923076923,2.0523076923076924,-0.4805769230769229,-1.0649826923076926,-0.5611173076923075,11.61125,1.4152042570627676,2.398564500896176,3.027903158407583,2.737233209678784
H1_squat_fast_20251205_013759,,-8.947,1.019,-4.286,-8.715,1.589,-3.862,19.46,-0.35,11.41,0.5316923076923086,0.7653807692307701,16.940403846153846,1.8189019230769228,2.385307692307692,-1.7405769230769228,-1.4669826923076923,-1.0421173076923078,10.63125,2.396484745489198,2.7132100898902753,3.0871824346903685,2.7234907408183044
H1_squat_fast_20251205_013759,,-8.806,1.371,-4.063,-8.756,1.783,-4.286,14.14,0.07,10.43,0.6726923076923086,0.7243807692307698,11.620403846153847,2.170901923076923,2.579307692307692,-1.3205769230769229,-1.2439826923076924,-1.4661173076923073,9.65125,2.590911623195315,3.054022860154117,2.997967594653078,2.730852543415203
H1_squat_fast_20251205_013759,,-8.44,1.491,-3.845,-8.82,1.962,-5.205,9.66,1.47,10.43,1.0386923076923082,0.6603807692307697,7.140403846153847,2.290901923076923,2.7583076923076923,0.07942307692307704,-1.025982692307693,-2.385117307692308,9.65125,2.7165702302962202,3.7058263123447936,2.9955889581381383,2.752438783326122
H1_squat_fast_20251205_013759,53786.0,-8.538,1.977,-5.578,-9.643,-0.72,-4.037,10.15,-0.91,-1.33,0.9406923076923075,-0.16261923076923068,7.630403846153847,2.776901923076923,0.07630769230769241,-2.300576923076923,-2.758982692307693,-1.2171173076923076,-2.10875,4.025924962613337,1.230301759246679,3.0019114178613515,2.727101241961741
H1_squat_fast_20251205_013759,,-8.04,1.266,-5.303,-10.115,-0.495,-4.056,11.83,0.07,-3.08,1.4386923076923086,-0.6346192307692302,9.310403846153847,2.065901923076923,0.3013076923076924,-1.3205769230769229,-2.4839826923076926,-1.2361173076923078,-3.85875,3.5366589215911284,1.4217995259115808,2.97709041885664,2.734206492841432
H1_squat_fast_20251205_013759,,-7.581,-0.156,-4.759,-10.278,-0.206,-4.389,10.71,2.31,-4.55,1.8976923076923073,-0.7976192307692305,8.190403846153847,0.643901923076923,0.5903076923076924,0.9194230769230771,-1.939982692307693,-1.569117307692308,-5.328749999999999,2.7891537475854786,1.8565529171532087,2.933695010978309,2.700529798318489
H1_squat_fast_20251205_013759,,-8.445,-0.622,-4.125,-10.029,0.172,-5.133,13.65,3.43,-4.97,1.0336923076923075,-0.5486192307692299,11.130403846153847,0.17790192307692299,0.9683076923076923,2.039423076923077,-1.3059826923076927,-2.3131173076923077,-5.748749999999999,1.6750402006590661,2.5669270590528632,2.861956817484537,2.66274130670651
H1_squat_fast_20251205_013759,53862.0,-9.064,-0.151,-5.501,-8.562,-1.749,-5.317,7.56,-1.47,-1.89,0.4146923076923077,0.9183807692307706,5.040403846153845,0.648901923076923,-0.9526923076923077,-2.860576923076923,-2.681982692307693,-2.497117307692308,-2.66875,2.7903538445276297,2.8260645284220733,2.797588017635344,2.657441004800677
H1_squat_fast_20251205_013759,,-8.033,-0.732,-5.796,-9.292,-1.053,-5.176,6.79,-2.8,-0.49,1.4456923076923083,0.18838076923077018,4.270403846153846,0.067901923076923,-0.25669230769230755,-4.1905769230769225,-2.976982692307693,-2.356117307692308,-1.26875,3.310145445441607,2.3775338110427846,2.738187499905422,2.6652901612887265
H1_squat_fast_20251205_013759,,-7.657,-1.692,-6.107,-8.964,-0.89,-4.975,7.35,-1.89,2.59,1.8216923076923077,0.5163807692307696,4.830403846153846,-0.892098076923077,-0.09369230769230763,-3.280576923076923,-3.287982692307693,-2.1551173076923074,1.8112499999999998,3.8633187841116765,2.2180978240977134,2.7108155267612632,2.7140345718658447
H1_squat_fast_20251205_013759,,-8.662,-1.972,-5.525,-8.947,-0.56,-4.755,10.29,-1.96,6.3,0.8166923076923069,0.5333807692307708,7.770403846153846,-1.1720980769230769,0.23630769230769233,-3.3505769230769227,-2.705982692307693,-1.9351173076923076,5.52125,3.059925253734044,2.021142094203008,2.6988591222366543,2.7592460060631643
H1_squat_fast_20251205_013759,53937.0,-8.861,-0.467,-4.858,-8.526,2.264,-5.008,5.74,0.77,15.19,0.6176923076923071,0.9543807692307702,3.2204038461538462,0.33290192307692296,3.060307692307692,-0.6205769230769229,-2.0389826923076924,-2.1881173076923077,14.411249999999999,2.156343640726331,3.881260513866311,2.7519610752192207,2.811234745718411
H1_squat_fast_20251205_013759,,-8.914,-0.129,-4.874,-8.806,2.642,-4.891,4.9,1.19,17.08,0.564692307692308,0.6743807692307708,2.3804038461538464,0.670901923076923,3.438307692307692,-0.20057692307692299,-2.0549826923076924,-2.0711173076923077,16.30125,2.234265127159118,4.0701690519084295,2.804471796814636,2.8864057544865287
H1_squat_fast_20251205_013759,,-8.696,0.766,-4.834,-8.847,2.824,-4.681,4.76,1.33,17.15,0.782692307692308,0.6333807692307705,2.240403846153846,1.565901923076923,3.6203076923076924,-0.06057692307692286,-2.0149826923076923,-1.8611173076923078,16.37125,2.6692342219288796,4.119654915014785,2.894880543344937,2.9333770477374133
H1_squat_fast_20251205_013759,,-8.378,1.649,-4.958,-9.014,2.307,-4.515,3.57,2.8,15.61,1.1006923076923076,0.46638076923077065,1.0504038461538459,2.448901923076923,3.103307692307692,1.409423076923077,-2.138982692307693,-1.6951173076923074,14.831249999999999,3.432767271903928,3.566714502435315,2.934597109208098,2.966384303620013
H1_squat_fast_20251205_013759,54013.0,-9.117,1.716,-4.671,-9.6,0.0,-4.757,-14.0,7.56,3.43,0.36169230769230687,-0.11961923076922965,-16.519596153846155,2.515901923076923,0.7963076923076924,6.169423076923077,-1.851982692307693,-1.9371173076923074,2.65125,3.1449044030929136,2.0978174765597024,2.971665282183335,3.0037638180551607
H1_squat_fast_20251205_013759,,-8.734,1.091,-4.956,-10.01,0.371,-4.968,-15.54,8.26,1.89,0.7446923076923078,-0.5296192307692298,-18.059596153846154,1.8909019230769228,1.1673076923076924,6.869423076923077,-2.136982692307693,-2.1481173076923077,1.1112499999999998,2.949028949172038,2.5015018980061856,3.009802112188247,3.0130824185816105
H1_squat_fast_20251205_013759,,-8.538,0.325,-4.891,-9.993,0.562,-5.095,-15.61,9.8,1.26,0.9406923076923075,-0.5126192307692303,-18.129596153846155,1.124901923076923,1.3583076923076924,8.409423076923078,-2.0719826923076927,-2.2751173076923075,0.48124999999999996,2.5383889834925366,2.6988769935841423,3.002797674905281,3.096940047873189
H1_squat_fast_20251205_013759,,-8.806,-0.012,-4.81,-9.263,0.268,-5.329,-12.81,10.99,0.7,0.6726923076923086,0.2173807692307701,-15.329596153846154,0.787901923076923,1.0643076923076924,9.599423076923078,-1.9909826923076923,-2.5091173076923075,-0.0787500000000001,2.2443966811340426,2.7341680501567165,3.0267404961685562,3.1559863898663547
H1_squat_fast_20251205_013759,54088.0,-8.818,-0.144,-5.403,-8.215,0.44,-5.664,-11.97,9.45,-0.84,0.6606923076923081,1.2653807692307701,-14.489596153846154,0.655901923076923,1.2363076923076923,8.059423076923077,-2.5839826923076923,-2.8441173076923074,-1.61875,2.746577545288955,3.349425094118865,3.0276270894558808,3.171972430892675
H1_squat_fast_20251205_013759,,-8.681,-0.436,-5.114,-7.65,0.395,-5.836,-10.29,11.62,-1.12,0.7976923076923086,1.8303807692307696,-12.809596153846153,0.363901923076923,1.1913076923076924,10.229423076923077,-2.2949826923076926,-3.016117307692308,-1.8987500000000002,2.456762745029,3.723771125066953,3.0510828944126156,3.1665570921339516
H1_squat_fast_20251205_013759,,-8.713,-0.318,-5.066,-7.964,0.201,-5.762,-6.65,11.97,-0.84,0.7656923076923086,1.5163807692307696,-9.169596153846154,0.481901923076923,0.9973076923076925,10.579423076923078,-2.2469826923076925,-2.9421173076923073,-1.61875,2.4222810309819,3.4568898626730395,3.020948627844322,3.159837424629305
H1_squat_fast_20251205_013759,,-8.815,0.045,-4.982,-8.804,0.024,-5.922,-4.62,9.94,-0.56,0.6636923076923082,0.6763807692307697,-7.1395961538461545,0.844901923076923,0.8203076923076924,8.549423076923077,-2.162982692307693,-3.1021173076923074,-1.33875,2.4151275051499166,3.279257148460387,2.9703630253180338,3.1755446814754933
H1_squat_fast_20251205_013759,54164.0,-9.1,0.225,-6.157,-8.698,0.766,-5.87,-0.35,0.56,-1.12,0.3786923076923081,0.7823807692307696,-2.869596153846154,1.024901923076923,1.5623076923076924,-0.8305769230769229,-3.3379826923076927,-3.050117307692308,-1.8987500000000002,3.5122585710590575,3.515130237159086,2.9222379829462124,3.1401867403617896
H1_squat_fast_20251205_013759,,-8.952,0.737,-6.281,-8.703,0.799,-6.023,3.78,-1.12,-1.68,0.5266923076923078,0.7773807692307706,1.2604038461538458,1.536901923076923,1.5953076923076925,-2.510576923076923,-3.4619826923076924,-3.2031173076923074,-2.45875,3.8242380247544494,3.6618694652245507,2.891988689761768,3.100029235787407
H1_squat_fast_20251205_013759,,-8.847,0.718,-6.207,-8.763,0.613,-6.076,5.67,-1.54,-2.31,0.6316923076923082,0.7173807692307701,3.150403846153846,1.517901923076923,1.4093076923076924,-2.9305769230769227,-3.3879826923076926,-3.2561173076923073,-3.08875,3.7658316668505956,3.619818125419171,2.8774494512019335,2.9990959798667984
H1_squat_fast_20251205_013759,,-8.906,0.531,-5.927,-9.026,0.392,-6.157,7.14,-1.89,-3.29,0.5726923076923072,0.4543807692307702,4.620403846153845,1.330901923076923,1.1883076923076925,-3.280576923076923,-3.1079826923076923,-3.3371173076923077,-4.06875,3.429115457931384,3.5713987428378724,2.84479235729244,2.8915915153549347
H1_squat_fast_20251205_013759,54240.0,-9.076,0.354,-6.157,-8.107,0.761,-6.269,6.79,-13.3,-2.59,0.40269230769230724,1.3733807692307707,4.270403846153846,1.153901923076923,1.5573076923076923,-14.690576923076923,-3.3379826923076927,-3.449117307692308,-3.36875,3.5546841205514856,4.0258902354679575,2.8171514193366374,2.817638511825211
H1_squat_fast_20251205_013759,,-8.806,0.479,-6.234,-8.342,0.615,-6.327,7.63,-16.31,-2.31,0.6726923076923086,1.1383807692307695,5.1104038461538455,1.278901923076923,1.4113076923076924,-17.700576923076923,-3.4149826923076927,-3.5071173076923077,-3.08875,3.7081278104239277,3.948109926032486,2.7577860027661947,2.7685119428748197
H1_squat_fast_20251205_013759,,-8.521,0.591,-6.272,-8.588,0.349,-5.906,7.35,-19.18,-2.03,0.957692307692307,0.8923807692307708,4.830403846153846,1.3909019230769228,1.1453076923076924,-20.570576923076924,-3.452982692307693,-3.0861173076923074,-2.80875,3.843809593256225,3.410600120827725,2.7028166706234162,2.773907220451115
H1_squat_fast_20251205_013759,,-8.026,0.806,-6.37,-8.536,0.479,-5.315,5.11,-22.05,-1.89,1.452692307692308,0.9443807692307704,2.5904038461538463,1.6059019230769231,1.2753076923076923,-23.440576923076925,-3.550982692307693,-2.495117307692308,-2.66875,4.159172274436267,2.957004417733897,2.669546425914282,2.7593227272144145
H1_squat_fast_20251205_013759,54316.0,-8.763,0.443,-5.238,-9.368,0.811,-4.422,5.11,-31.85,-3.92,0.7156923076923078,0.11238076923076967,2.5904038461538463,1.242901923076923,1.6073076923076925,-33.24057692307692,-2.418982692307693,-1.6021173076923074,-4.69875,2.8122051730559114,2.2721899838375372,2.656996222378186,2.7539087568227267
H1_squat_fast_20251205_013759,,-9.213,0.28,-4.815,-9.014,1.067,-4.302,4.2,-33.53,-5.04,0.26569230769230856,0.46638076923077065,1.6804038461538462,1.079901923076923,1.8633076923076923,-34.92057692307692,-1.995982692307693,-1.4821173076923073,-5.81875,2.284891129534177,2.42612825132605,2.6558926077508813,2.733111175085099
H1_squat_fast_20251205_013759,,-9.454,0.175,-4.573,-8.543,1.225,-4.257,4.9,-34.93,-4.97,0.024692307692307125,0.9373807692307707,2.3804038461538464,0.9749019230769229,2.0213076923076922,-36.32057692307692,-1.753982692307693,-1.4371173076923074,-5.748749999999999,2.0068629137520078,2.6513531733012683,2.6282924118675743,2.693837378550576
H1_squat_fast_20251205_013759,,-9.411,0.488,-4.341,-8.349,1.285,-4.286,6.65,-35.77,-4.9,0.06769230769230816,1.1313807692307698,4.130403846153847,1.287901923076923,2.0813076923076923,-37.160576923076924,-1.521982692307693,-1.4661173076923073,-5.678750000000001,1.9949197797581035,2.7859224890436773,2.614720766723899,2.6440405795011164
H1_squat_fast_20251205_013759,54392.0,-8.44,1.086,-4.298,-8.526,-0.189,-3.458,-10.64,-39.9,-11.69,1.0386923076923082,0.9543807692307702,-13.159596153846154,1.885901923076923,0.6073076923076923,-41.29057692307692,-1.4789826923076927,-0.6381173076923079,-12.46875,2.6120676824443354,1.2987913551414219,2.5679913251172595,2.5372321954274337
H1_squat_fast_20251205_013759,,-8.562,0.692,-4.269,-8.923,-0.002,-2.934,-12.39,-40.46,-12.32,0.9166923076923084,0.55738076923077,-14.909596153846154,1.4919019230769228,0.7943076923076924,-41.85057692307692,-1.4499826923076928,-0.11411730769230788,-13.09875,2.273443630938479,0.9770469752690489,2.510907031119225,2.448173805966054
H1_squat_fast_20251205_013759,,-8.454,0.124,-3.941,-9.33,0.323,-2.268,-11.2,-40.67,-12.88,1.0246923076923071,0.15038076923076993,-13.719596153846153,0.923901923076923,1.1193076923076923,-42.06057692307692,-1.1219826923076925,0.5518826923076925,-13.658750000000001,1.7783234381706385,1.256995859930492,2.4152190730566856,2.336495864449885
H1_squat_fast_20251205_013759,,-8.605,-0.17,-3.69,-9.536,0.438,-2.505,-6.37,-40.81,-13.37,0.8736923076923073,-0.05561923076922959,-8.889596153846155,0.6299019230769229,1.2343076923076923,-42.20057692307692,-0.8709826923076927,0.3148826923076924,-14.14875,1.3851806855122808,1.2750529745999744,2.292321310718655,2.205043930899082
H1_squat_fast_20251205_013759,54467.0,-9.392,0.665,-1.534,-8.583,0.067,-1.01,9.1,-36.26,-14.84,0.08669230769230829,0.8973807692307698,6.580403846153846,1.4649019230769231,0.8633076923076923,-37.65057692307692,1.2850173076923073,1.8098826923076923,-15.61875,1.950569835078014,2.1968768232419817,2.157294116766845,2.107967418354137
H1_squat_fast_20251205_013759,,-9.648,0.476,-1.436,-8.77,-0.33,-0.694,9.1,-34.37,-15.19,-0.16930769230769194,0.7103807692307704,6.580403846153846,1.275901923076923,0.46630769230769237,-35.76057692307692,1.3830173076923074,2.1258826923076923,-15.96875,1.889266441072414,2.2894237097251415,2.0309341445280644,2.018510038597117
H1_squat_fast_20251205_013759,,-9.375,0.771,-2.137,-9.06,-0.306,-0.677,6.16,-34.23,-17.43,0.10369230769230775,0.4203807692307695,3.640403846153846,1.570901923076923,0.4903076923076924,-35.62057692307692,0.6820173076923073,2.1428826923076922,-18.20875,1.7157017673806816,2.2380946935433745,1.9188764738286257,1.9169984305662062
H1_squat_fast_20251205_013759,,-8.801,0.658,-1.493,-9.174,0.218,-0.981,3.85,-32.62,-19.18,0.6776923076923076,0.3063807692307705,1.330403846153846,1.457901923076923,1.0143076923076924,-34.01057692307692,1.3260173076923072,1.8388826923076924,-19.95875,2.084002586734544,2.1223050738519618,1.805767353660443,1.8146495226551453
H1_squat_fast_20251205_013759,54543.0,-9.404,0.471,-1.01,-9.16,-2.434,-0.881,13.02,-21.91,-18.27,0.07469230769230784,0.32038076923076986,10.500403846153846,1.270901923076923,-1.6376923076923078,-23.300576923076925,1.8090173076923073,1.9388826923076923,-19.04875,2.2120836915540396,2.5581137634002484,1.6887276586917195,1.7071120141963598
H1_squat_fast_20251205_013759,,-9.387,0.074,-0.785,-9.409,-1.979,-0.974,5.95,-18.83,-18.2,0.0916923076923073,0.0713807692307693,3.430403846153846,0.8739019230769229,-1.1826923076923077,-20.220576923076923,2.034017307692307,1.8458826923076923,-18.978749999999998,2.2157027008241306,2.1934309249784065,1.5447416267228418,1.6220069997445312
H1_squat_fast_20251205_013759,,-9.359,-0.948,-0.799,-9.474,-1.73,-0.687,0.7,-15.05,-17.29,0.11969230769230776,0.0063807692307698005,-1.819596153846154,-0.14809807692307697,-0.9336923076923076,-16.440576923076925,2.0200173076923074,2.1328826923076925,-18.068749999999998,2.0289724523229737,2.3283063842212592,1.4436747301802346,1.543559942002686
H1_squat_fast_20251205_013759,,-9.103,-1.831,-1.024,-9.481,-1.452,-0.481,-0.21,-12.11,-15.75,0.375692307692308,-0.0006192307692298726,-2.729596153846154,-1.0310980769230769,-0.6556923076923076,-13.500576923076922,1.7950173076923073,2.3388826923076924,-16.52875,2.10389997129345,2.429054349781019,1.372940631635353,1.4723719546981178
H1_squat_fast_20251205_013759,54619.0,-9.708,-0.598,-1.651,-9.251,-1.12,-3.372,9.17,2.03,-6.58,-0.22930769230769243,0.22938076923077055,6.650403846153846,0.201901923076923,-0.3236923076923077,0.6394230769230769,1.1680173076923073,-0.5521173076923076,-7.358750000000001,1.2073155492092467,0.6798718767572857,1.3203113489426577,1.4280855801659038
H1_squat_fast_20251205_013759,,-9.478,-0.067,-2.245,-9.34,-1.711,-3.089,3.99,2.38,-7.0,0.0006923076923079918,0.14038076923077014,1.4704038461538462,0.7329019230769229,-0.9146923076923077,0.989423076923077,0.5740173076923072,-0.2691173076923077,-7.7787500000000005,0.9309358612010376,0.9637390224645147,1.2740382961806433,1.3761581370908866
H1_squat_fast_20251205_013759,,-9.471,0.184,-3.104,-9.629,-1.378,-2.936,-3.36,2.52,-8.05,0.007692307692307665,-0.14861923076922956,-5.879596153846154,0.983901923076923,-0.5816923076923075,1.129423076923077,-0.2849826923076928,-0.11611730769230766,-8.828750000000001,1.024371661433018,0.6115037577386991,1.2404835602538202,1.3723534847803491
H1_squat_fast_20251205_013759,,-9.38,-0.395,-3.29,-9.579,-0.61,-2.943,-10.22,3.43,-8.12,0.09869230769230697,-0.09861923076923063,-12.739596153846154,0.40490192307692296,0.1863076923076924,2.039423076923077,-0.47098269230769274,-0.12311730769230778,-8.89875,0.6288962039656674,0.2441191929036612,1.2146950982706797,1.373003498069465
H1_squat_fast_20251205_013759,54695.0,-9.447,-0.617,-2.644,-9.239,-0.522,-3.853,3.22,4.13,-2.73,0.031692307692308574,0.24138076923076923,0.7004038461538462,0.182901923076923,0.27430769230769236,2.739423076923077,0.17501730769230717,-1.033117307692308,-3.50875,0.2551246241035238,1.0958287992506002,1.1867568833249216,1.4324830760073601
H1_squat_fast_20251205_013759,,-9.533,-0.67,-2.79,-9.043,-0.699,-3.982,0.49,4.69,-1.82,-0.054307692307691724,0.43738076923077074,-2.029596153846154,0.12990192307692294,0.09730769230769243,3.2994230769230777,0.02901730769230726,-1.162117307692308,-2.59875,0.14375617972309837,1.2455068691553521,1.1822497532984344,1.4895313276306585
H1_squat_fast_20251205_013759,,-9.6,-0.665,-3.434,-9.05,-0.885,-4.135,-1.05,3.92,-1.82,-0.1213076923076919,0.4303807692307693,-3.5695961538461543,0.13490192307692295,-0.08869230769230763,2.529423076923077,-0.6149826923076929,-1.3151173076923075,-2.59875,0.6411846823660778,1.3865884266642783,1.1833756312182189,1.5312702346066627
H1_squat_fast_20251205_013759,,-9.306,-0.505,-3.506,-9.241,-0.924,-4.078,-2.52,2.87,-2.31,0.1726923076923086,0.23938076923077034,-5.039596153846154,0.294901923076923,-0.12769230769230766,1.4794230769230772,-0.6869826923076925,-1.258117307692308,-3.08875,0.7672906860511784,1.2870383203449087,1.2139863825881057,1.5667890059489726
H1_squat_fast_20251205_013759,54770.0,-9.289,-0.802,-3.597,-9.844,-0.756,-2.326,1.82,-2.52,-0.49,0.18969230769230805,-0.3636192307692294,-0.6995961538461539,-0.0020980769230770635,0.04030769230769238,-3.910576923076923,-0.7779826923076927,0.4938826923076922,-1.26875,0.8007775240694099,0.6146249008992983,1.240634515862227,1.5183821943133706
H1_squat_fast_20251205_013759,,-9.409,-0.732,-3.223,-9.631,-0.974,-2.113,5.11,-2.94,0.21,0.06969230769230705,-0.15061923076923023,2.5904038461538463,0.067901923076923,-0.1776923076923076,-4.330576923076923,-0.40398269230769257,0.7068826923076923,-0.5687500000000001,0.4155354432454534,0.7442740419863533,1.228935803215325,1.4666690236477193
H1_squat_fast_20251205_013759,,-9.495,-0.634,-2.898,-9.56,-0.603,-2.718,6.51,-3.36,0.56,-0.016307692307691468,-0.0796192307692305,3.990403846153846,0.16590192307692297,0.1933076923076924,-4.750576923076923,-0.07898269230769284,0.10188269230769231,-0.21875,0.1844658629481219,0.23256648254955695,1.2012410646505634,1.4258039786476309
H1_squat_fast_20251205_013759,,-9.794,-0.749,-2.508,-9.454,-0.361,-3.195,7.63,-2.94,1.05,-0.31530769230769273,0.026380769230769374,5.1104038461538455,0.050901923076922984,0.4353076923076924,-4.330576923076923,0.3110173076923073,-0.37511730769230756,0.27125,0.44580456736725227,0.5752405814072761,1.1590049121759465,1.4022324250325322
H1_squat_fast_20251205_013759,54846.0,-9.478,-0.342,-3.264,-9.237,-0.876,-1.342,-3.85,-4.27,-0.63,0.0006923076923079918,0.2433807692307699,-6.369596153846154,0.45790192307692296,-0.07969230769230762,-5.660576923076922,-0.4449826923076925,1.4778826923076922,-1.40875,0.6385015637419282,1.4999074354637085,1.2054913843360278,1.4441629424826148
H1_squat_fast_20251205_013759,,-9.395,-0.024,-2.953,-9.55,-1.094,-1.417,-11.83,-5.32,-2.52,0.08369230769230818,-0.06961923076923071,-14.349596153846154,0.775901923076923,-0.2976923076923077,-6.710576923076923,-0.13398269230769255,1.4028826923076922,-3.29875,0.7918204079457343,1.4358089690932252,1.2667377675808036,1.4416171067540853
H1_squat_fast_20251205_013759,,-9.16,0.792,-2.194,-9.77,-1.33,-1.785,-22.33,-7.07,-3.99,0.3186923076923076,-0.2896192307692296,-24.849596153846154,1.591901923076923,-0.5336923076923077,-8.460576923076923,0.6250173076923073,1.0348826923076924,-4.768750000000001,1.73964454834693,1.19987039506745,1.3993176654438257,1.451070444142252
H1_squat_fast_20251205_013759,,-8.938,-0.017,-1.529,-9.794,-0.747,-1.878,-36.12,-8.26,-5.11,0.5406923076923071,-0.3136192307692305,-38.63959615384615,0.782901923076923,0.049307692307692386,-9.650576923076922,1.2900173076923074,0.9418826923076924,-5.88875,1.6029436193768283,0.9939473207860571,1.5152706799684428,1.486270926041597
H1_squat_fast_20251205_013759,54921.0,-9.392,-0.519,-1.809,-9.639,-1.998,-0.292,-22.82,-2.73,-0.14,0.08669230769230829,-0.15861923076922935,-25.339596153846156,0.28090192307692297,-1.2016923076923076,-4.120576923076923,1.0100173076923074,2.5278826923076925,-0.9187500000000001,1.0519298495809255,2.8034648863157665,1.5810053568304268,1.6718391393611516
H1_squat_fast_20251205_013759,,-9.237,-1.096,-1.61,-9.462,-1.668,-0.203,-23.66,1.26,1.68,0.24169230769230765,0.018380769230770255,-26.179596153846155,-0.2960980769230771,-0.8716923076923075,-0.13057692307692292,1.2090173076923072,2.6168826923076924,0.9012499999999999,1.2679953048236152,2.7583075168057336,1.6669195994438608,1.8656229240877222
H1_squat_fast_20251205_013759,,-9.019,-1.697,-1.115,-9.366,-1.922,0.261,-21.84,5.81,3.64,0.4596923076923076,0.11438076923077034,-24.359596153846155,-0.8970980769230771,-1.1256923076923075,4.419423076923077,1.7040173076923073,3.0808826923076924,2.86125,1.9798426609924087,3.2820884046180945,1.7663911040610087,2.0026211038446418
H1_squat_fast_20251205_013759,,-9.081,-2.223,-0.577,-9.749,-1.732,0.242,-15.54,10.85,6.37,0.39769230769230823,-0.26861923076923055,-18.059596153846154,-1.4230980769230768,-0.9356923076923076,9.459423076923077,2.2420173076923073,3.0618826923076923,5.5912500000000005,2.6851459766894714,3.2129117646251992,1.9684132741462261,2.1152659614005045
H1_squat_fast_20251205_013759,54997.0,-9.643,-1.039,-0.428,-8.837,-0.546,-2.125,8.26,26.32,17.15,-0.16430769230769293,0.6433807692307703,5.740403846153846,-0.23909807692307694,0.25030769230769234,24.929423076923076,2.3910173076923074,0.6948826923076923,16.37125,2.4085532325078396,0.979517591017725,2.0529608619244666,2.160679437132468
H1_squat_fast_20251205_013759,,-9.282,-0.51,-1.074,-8.868,-0.354,-3.005,9.8,27.58,17.57,0.19669230769230772,0.6123807692307697,7.280403846153847,0.289901923076923,0.4423076923076924,26.189423076923074,1.7450173076923072,-0.1851173076923076,16.79125,1.7798360579150911,0.7777626365450284,2.0674664659223434,2.2132001461070874
H1_squat_fast_20251205_013759,,-9.086,-0.282,-1.476,-8.447,0.225,-2.465,9.8,29.54,19.04,0.39269230769230745,1.0333807692307708,7.280403846153847,0.5179019230769231,1.0213076923076925,28.149423076923075,1.3430173076923073,0.3548826923076924,18.26125,1.4920204888702362,1.495622593397947,2.091695170512766,2.3226120989503625
H1_squat_fast_20251205_013759,,-8.99,-0.16,-2.044,-9.21,0.754,-2.967,9.66,32.06,20.65,0.48869230769230754,0.27038076923076915,7.140403846153847,0.639901923076923,1.5503076923076924,30.669423076923078,0.7750173076923073,-0.1471173076923078,19.87125,1.117562736484091,1.5805705309858396,2.166096650978952,2.4321780872785967
H1_squat_fast_20251205_013759,55073.0,-9.17,1.807,-4.714,-8.452,0.718,-5.707,16.45,33.46,16.8,0.3086923076923078,1.02838076923077,13.930403846153846,2.606901923076923,1.5143076923076924,32.06942307692308,-1.8949826923076931,-2.8871173076923076,16.021250000000002,3.2376207284850826,3.4184998379234126,2.291279652087198,2.5053041860808665
H1_squat_fast_20251205_013759,,-9.155,2.185,-4.975,-7.997,-0.33,-4.599,8.19,30.17,14.07,0.3236923076923084,1.4833807692307701,5.670403846153846,2.984901923076923,0.46630769230769237,28.779423076923077,-2.1559826923076923,-1.779117307692308,13.29125,3.6963059356576276,2.3628626208392487,2.3876126410374066,2.5393816962346025
H1_squat_fast_20251205_013759,,-8.94,2.146,-6.382,-8.983,-1.558,-2.991,-2.31,26.46,11.83,0.5386923076923082,0.49738076923076946,-4.829596153846154,2.945901923076923,-0.7616923076923077,25.069423076923076,-3.5629826923076924,-0.17111730769230782,11.05125,4.654392893647822,0.9256586488496118,2.482353382645829,2.5356911410810983
H1_squat_fast_20251205_013759,,-9.038,1.575,-5.939,-9.452,-1.663,-1.153,-13.51,24.5,10.57,0.4406923076923075,0.028380769230770042,-16.029596153846153,2.374901923076923,-0.8666923076923077,23.109423076923076,-3.1199826923076928,1.6668826923076923,9.79125,3.945714238841074,1.8789515518474893,2.545356686467378,2.5484674695158
H1_squat_fast_20251205_013759,55149.0,-10.189,-0.916,-0.182,-9.866,2.07,-7.423,23.52,42.77,10.99,-0.7103076923076923,-0.38561923076922966,21.000403846153844,-0.11609807692307705,2.866307692307692,41.37942307692308,2.6370173076923074,-4.603117307692308,10.21125,2.7334732598446068,5.436277304047116,2.5524210729366157,2.6426088283337754
H1_squat_fast_20251205_013759,,-9.115,0.495,-0.292,-9.495,0.311,-7.985,29.47,40.11,9.87,0.36369230769230754,-0.014619230769229219,26.950403846153844,1.294901923076923,1.1073076923076923,38.71942307692308,2.5270173076923075,-5.165117307692308,9.091249999999999,2.862666511914957,5.282497595794503,2.5965233371216963,2.682805579394432
H1_squat_fast_20251205_013759,,-10.098,1.957,-2.52,-7.528,-1.539,-6.983,29.61,32.13,8.05,-0.619307692307693,1.9523807692307704,27.090403846153844,2.756901923076923,-0.7426923076923075,30.739423076923078,0.2990173076923073,-4.163117307692307,7.27125,2.8413837441493666,4.657781472930509,2.6952923014715946,2.629845299626464
H1_squat_fast_20251205_013759,,-9.433,3.278,-6.353,-6.87,-2.402,-5.654,9.17,20.79,5.88,0.04569230769230792,2.61038076923077,6.650403846153846,4.077901923076923,-1.6056923076923078,19.399423076923075,-3.5339826923076925,-2.8341173076923076,5.10125,5.3963326019387505,4.174273165607777,2.7891934848534365,2.6091150758626998
H1_squat_fast_20251205_013759,55225.0,-7.77,-2.402,-4.424,-9.682,1.577,-3.778,22.96,38.15,6.3,1.7086923076923082,-0.20161923076923038,20.440403846153846,-1.602098076923077,2.3733076923076926,36.75942307692308,-1.604982692307693,-0.9581173076923077,5.52125,2.8394219646003194,2.5673387956953397,2.839510239353904,2.624189882482885
H1_squat_fast_20251205_013759,,-9.057,-1.228,-3.793,-10.254,0.816,-4.779,34.23,36.05,5.32,0.42169230769230737,-0.7736192307692296,31.71040384615384,-0.428098076923077,1.6123076923076924,34.659423076923076,-0.9739826923076929,-1.9591173076923076,4.54125,1.144436389995985,2.6525767536850062,2.889928427109322,2.679847556296541
H1_squat_fast_20251205_013759,,-8.935,0.503,-3.051,-9.543,0.443,-6.049,33.18,35.14,5.95,0.5436923076923073,-0.06261923076922926,30.660403846153844,1.302901923076923,1.2393076923076924,33.74942307692308,-0.23198269230769286,-3.229117307692308,5.171250000000001,1.4307238434204053,3.4593356748244553,2.941480226166689,2.818796346921355
H1_squat_fast_20251205_013759,,-9.423,1.529,-2.51,-8.643,0.471,-6.076,24.99,32.69,7.35,0.05569230769230771,0.8373807692307693,22.470403846153843,2.328901923076923,1.2673076923076922,31.299423076923073,0.3090173076923075,-3.2561173076923073,6.571249999999999,2.349973935366281,3.5929897385204375,3.0057086634830017,2.954285272371794
H1_squat_fast_20251205_013759,55300.0,-7.956,0.215,-5.731,-9.225,0.584,-4.427,7.35,16.59,8.12,1.5226923076923073,0.25538076923077035,4.830403846153846,1.014901923076923,1.3803076923076922,15.199423076923077,-2.9119826923076926,-1.6071173076923073,7.341249999999999,3.4392238917625177,2.1338450514085734,3.0891212565315738,3.0436002458945604
H1_squat_fast_20251205_013759,,-7.808,-0.007,-5.118,-9.462,0.12,-3.958,11.13,15.26,5.11,1.670692307692308,0.018380769230770255,8.610403846153847,0.792901923076923,0.9163076923076924,13.869423076923077,-2.298982692307693,-1.138117307692308,4.331250000000001,2.950462280072677,1.461255845404408,3.167595772700186,3.120040397411187
H1_squat_fast_20251205_013759,,-7.988,0.668,-5.109,-9.301,-0.498,-4.18,11.83,13.23,3.01,1.4906923076923073,0.17938076923076984,9.310403846153847,1.467901923076923,0.2983076923076924,11.839423076923078,-2.2899826923076927,-1.3601173076923074,2.2312499999999997,3.1017608455609107,1.4039530014726043,3.1685129818072104,3.0851068589889894
H1_squat_fast_20251205_013759,,-8.777,0.68,-4.614,-9.174,-0.692,-4.558,8.96,14.28,2.73,0.7016923076923085,0.3063807692307705,6.440403846153847,1.479901923076923,0.10430769230769243,12.889423076923077,-1.7949826923076926,-1.7381173076923075,1.95125,2.429906307306005,1.7679935083954779,3.1488440092652064,3.085150574332805
H1_squat_fast_20251205_013759,55376.0,-9.179,-0.696,-4.716,-8.648,1.402,-5.609,1.47,11.27,6.86,0.2996923076923075,0.8323807692307703,-1.049596153846154,0.10390192307692303,2.1983076923076923,9.879423076923077,-1.896982692307693,-2.7891173076923077,6.081250000000001,1.9233185965471156,3.6475457243348117,3.0505201966020206,3.1090546506688392
H1_squat_fast_20251205_013759,,-9.172,0.546,-5.197,-9.057,0.067,-4.618,6.09,7.21,7.56,0.30669230769230715,0.4233807692307696,3.570403846153846,1.345901923076923,0.8633076923076923,5.819423076923077,-2.3779826923076928,-1.798117307692308,6.78125,2.7496024881889265,2.0390628483631166,2.962843312565021,3.126490739989852
H1_squat_fast_20251205_013759,,-8.799,1.326,-5.669,-9.064,-1.141,-4.14,7.28,5.53,5.95,0.6796923076923083,0.41638076923076994,4.760403846153846,2.125901923076923,-0.34469230769230763,4.1394230769230775,-2.8499826923076923,-1.3201173076923074,5.171250000000001,3.6199229226782794,1.426497612348595,2.8966642833818,3.049795368978088
H1_squat_fast_20251205_013759,,-8.679,1.608,-5.525,-9.131,-2.314,-4.401,3.36,5.67,3.29,0.7996923076923075,0.34938076923076977,0.8404038461538459,2.407901923076923,-1.5176923076923077,4.279423076923077,-2.705982692307693,-1.5811173076923075,2.51125,3.7094260727514956,2.2193216989478697,2.831313826078399,3.021431545650052
H1_squat_fast_20251205_013759,55452.0,-8.914,-3.372,-4.788,-8.055,1.385,-5.41,-3.64,2.52,11.83,0.564692307692308,1.4253807692307703,-6.159596153846154,-2.572098076923077,2.1813076923076924,1.129423076923077,-1.968982692307693,-2.590117307692308,11.05125,3.288078278004571,3.6740333767429036,2.944647548042061,2.947877672624628
H1_squat_fast_20251205_013759,,-8.667,-3.455,-5.693,-8.698,2.934,-5.501,8.19,-0.28,15.75,0.8116923076923079,0.7823807692307696,5.670403846153846,-2.655098076923077,3.7303076923076928,-1.670576923076923,-2.8739826923076923,-2.681117307692308,14.97125,3.996018858330333,4.660011283780258,2.9546681203766627,2.8977768774559607
H1_squat_fast_20251205_013759,,-8.069,-2.225,-5.987,-9.538,3.412,-4.657,24.5,-1.82,18.27,1.409692307692307,-0.057619230769230256,21.980403846153845,-1.425098076923077,4.2083076923076925,-3.210576923076923,-3.167982692307693,-1.8371173076923077,17.49125,3.748900007999388,4.592186147262888,3.013206901627889,2.9058810544423963
H1_squat_fast_20251205_013759,,-7.932,-0.388,-5.875,-10.696,3.044,-4.326,38.15,-2.24,17.71,1.5466923076923074,-1.2156192307692297,35.63040384615385,0.41190192307692297,3.840307692307692,-3.630576923076923,-3.0559826923076927,-1.5061173076923073,16.931250000000002,3.4497754281392283,4.300474698256453,3.077888214769276,2.9105050418993788
H1_squat_fast_20251205_013759,55528.0,-10.227,2.213,-4.759,-7.26,-2.082,-5.647,3.36,-5.39,-2.59,-0.7483076923076926,2.22038076923077,0.8404038461538459,3.012901923076923,-1.2856923076923075,-6.780576923076922,-1.939982692307693,-2.827117307692308,-3.36875,3.660747908133103,3.8178119049898727,3.1240734610771907,2.863287761966653
H1_squat_fast_20251205_013759,,-9.864,0.952,-5.418,-7.875,-2.469,-5.532,-2.52,-6.65,-3.08,-0.385307692307693,1.60538076923077,-5.039596153846154,1.751901923076923,-1.6726923076923075,-8.040576923076923,-2.598982692307693,-2.7121173076923077,-3.85875,3.1579001568680165,3.5680144704181296,3.124707039148566,2.807414271797228
H1_squat_fast_20251205_013759,,-8.181,-0.428,-5.788,-8.938,-1.862,-5.027,-0.35,-6.37,-1.89,1.2976923076923086,0.5423807692307694,-2.869596153846154,0.371901923076923,-1.0656923076923077,-7.760576923076923,-2.968982692307693,-2.207117307692308,-2.66875,3.2614681652677127,2.5102278389462698,3.0984380239052722,2.813784521855053
H1_squat_fast_20251205_013759,,-7.507,-1.436,-5.238,-9.526,-0.842,-5.183,5.39,-6.51,0.7,1.971692307692308,-0.0456192307692298,2.8704038461538457,-0.636098076923077,-0.04569230769230759,-7.9005769230769225,-2.418982692307693,-2.3631173076923075,-0.0787500000000001,3.1849126495655153,2.363999219778459,3.080168647391171,2.8596928817527547
H1_squat_fast_20251205_013759,55603.0,-9.586,-0.524,-4.896,-8.562,0.048,-3.735,24.15,-7.56,11.69,-0.10730769230769255,0.9183807692307706,21.630403846153843,0.27590192307692296,0.8443076923076924,-8.950576923076923,-2.0769826923076926,-0.9151173076923076,10.911249999999999,2.097973764404993,1.5471646335865037,3.0646521471037507,2.9028443580948893
H1_squat_fast_20251205_013759,,-9.88,-0.816,-4.436,-8.708,1.125,-3.893,17.29,-7.0,13.51,-0.40130769230769303,0.7723807692307698,14.770403846153846,-0.016098076923076965,1.9213076923076924,-8.390576923076923,-1.6169826923076926,-1.0731173076923075,12.73125,1.666115253879089,2.332289874193817,3.0624459597228912,2.9473081940218844
H1_squat_fast_20251205_013759,,-9.373,-1.326,-3.678,-8.607,2.249,-4.166,11.62,-6.16,15.61,0.10569230769230842,0.8733807692307707,9.100403846153846,-0.5260980769230771,3.0453076923076923,-7.550576923076923,-0.8589826923076926,-1.346117307692308,14.831249999999999,1.012818501080849,3.4421976577412465,3.084688276832792,2.9402774245557004
H1_squat_fast_20251205_013759,,-8.961,-0.708,-3.857,-8.562,3.331,-4.487,10.92,-5.95,16.31,0.5176923076923075,0.9183807692307706,8.400403846153846,0.09190192307692302,4.127307692307692,-7.340576923076923,-1.037982692307693,-1.6671173076923078,15.531249999999998,1.1635546220265511,4.545038189265565,3.077960512226208,3.004992543297824
H1_squat_fast_20251205_013759,55679.0,-8.77,4.654,-4.623,-8.734,1.536,-4.061,7.07,-1.05,9.66,0.7086923076923082,0.74638076923077,4.550403846153847,5.453901923076923,2.332307692307692,-2.440576923076923,-1.803982692307693,-1.2411173076923077,8.88125,5.788060515204563,2.745380774269491,3.0930090054255213,3.101115099537542
H1_squat_fast_20251205_013759,,-8.696,4.46,-4.748,-8.818,1.476,-4.446,-2.1,0.63,6.16,0.782692307692308,0.6623807692307704,-4.619596153846154,5.259901923076923,2.2723076923076926,-0.7605769230769229,-1.928982692307693,-1.6261173076923074,5.38125,5.656867482638395,2.871652491222421,3.099546558915918,3.181975823576511
H1_squat_fast_20251205_013759,,-8.818,3.247,-4.305,-9.146,1.192,-4.731,-10.15,3.08,2.87,0.6606923076923081,0.3343807692307692,-12.669596153846154,4.0469019230769225,1.9883076923076923,1.6894230769230771,-1.4859826923076924,-1.9111173076923076,2.09125,4.361430277132205,2.7780473973426725,3.1168723831307954,3.2037848495871555
H1_squat_fast_20251205_013759,,-8.933,1.799,-3.786,-9.43,1.003,-4.929,-14.7,5.39,0.91,0.5456923076923079,0.050380769230770284,-17.219596153846155,2.598901923076923,1.7993076923076923,3.999423076923077,-0.9669826923076927,-2.109117307692308,0.13124999999999998,2.8261505316720337,2.7728004275665366,3.1024718302551224,3.187522677638044
H1_squat_fast_20251205_013759,55754.0,-9.428,0.634,-5.025,-8.887,-0.96,-4.965,-14.0,10.08,-5.11,0.050692307692306926,0.5933807692307695,-16.519596153846155,1.433901923076923,-0.16369230769230758,8.689423076923077,-2.205982692307693,-2.1451173076923076,-5.88875,2.631540247426204,2.2316863965735925,3.120225472700022,3.1201299519539427
H1_squat_fast_20251205_013759,,-9.308,0.491,-4.795,-8.926,-1.084,-4.867,-13.86,9.45,-5.11,0.17069230769230792,0.5543807692307698,-16.379596153846155,1.290901923076923,-0.2876923076923077,8.059423076923077,-1.9759826923076926,-2.0471173076923077,-5.88875,2.3664469652220355,2.1402789941154,3.132904910341739,3.0736883030355107
H1_squat_fast_20251205_013759,,-8.842,-0.024,-5.386,-9.062,-0.73,-5.08,-14.77,7.91,-4.69,0.6366923076923072,0.4183807692307706,-17.289596153846155,0.775901923076923,0.0663076923076924,6.519423076923077,-2.566982692307693,-2.260117307692308,-5.46875,2.7562294954368864,2.2994715529120224,3.1303478576282995,3.031876509931144
H1_squat_fast_20251205_013759,,-8.756,-0.488,-5.166,-8.899,-0.428,-5.384,-14.35,8.4,-4.13,0.7226923076923075,0.5813807692307709,-16.869596153846153,0.311901923076923,0.3683076923076924,7.009423076923078,-2.346982692307693,-2.564117307692308,-4.9087499999999995,2.4754584907060315,2.6548732027446493,3.142294063874698,3.0104288149289156
H1_squat_fast_20251205_013759,55830.0,-8.653,-0.443,-5.363,-9.923,-0.888,-5.305,-10.22,6.72,2.24,0.8256923076923073,-0.44261923076923004,-12.739596153846154,0.356901923076923,-0.09169230769230763,5.329423076923077,-2.543982692307693,-2.4851173076923074,1.4612500000000002,2.6983318380879977,2.525891386368097,3.1556806380937386,2.9632114054814207
H1_squat_fast_20251205_013759,,-9.122,-0.747,-5.164,-9.409,-0.531,-5.731,-10.22,7.84,3.85,0.35669230769230786,0.0713807692307693,-12.739596153846154,0.052901923076922985,0.26530769230769236,6.449423076923077,-2.3449826923076924,-2.9111173076923076,3.07125,2.372545435403658,2.924053242497359,3.1802526609800834,2.9096425690953276
H1_squat_fast_20251205_013759,,-9.579,-0.89,-5.317,-8.38,-0.29,-6.066,-9.17,8.89,5.46,-0.10030769230769288,1.1003807692307692,-11.689596153846153,-0.09009807692307703,0.5063076923076923,7.499423076923078,-2.497982692307693,-3.2461173076923076,4.68125,2.5016188414045257,3.4647457182140213,3.2157718511341455,2.8887326984484116
H1_squat_fast_20251205_013759,,-9.84,-0.928,-5.365,-7.999,0.036,-6.131,-6.16,9.94,6.93,-0.3613076923076921,1.4813807692307703,-8.679596153846154,-0.12809807692307706,0.8323076923076924,8.549423076923077,-2.545982692307693,-3.311117307692308,6.151249999999999,2.5746806084177565,3.721655935658328,3.230953848952041,2.8441783793120723
H1_squat_fast_20251205_013759,55906.0,-7.736,0.206,-6.289,-8.911,1.864,-5.65,9.94,-2.59,8.12,1.742692307692308,0.5693807692307704,7.420403846153846,1.005901923076923,2.6603076923076925,-3.9805769230769226,-3.4699826923076924,-2.830117307692308,7.341249999999999,4.011183745860408,3.9256840745812522,3.2332432918435456,2.7570963178120707
H1_squat_fast_20251205_013759,,-8.136,0.459,-6.234,-8.784,2.18,-5.875,13.37,-4.9,7.42,1.3426923076923085,0.6963807692307693,10.850403846153846,1.258901923076923,2.9763076923076923,-6.290576923076923,-3.4149826923076927,-3.0551173076923077,6.641249999999999,3.879402463501817,4.32170052396108,3.2459209649172442,2.6355693525159123
H1_squat_fast_20251205_013759,,-8.648,0.876,-6.056,-8.76,2.099,-5.834,16.87,-6.58,6.72,0.8306923076923081,0.7203807692307702,14.350403846153847,1.675901923076923,2.895307692307693,-7.970576923076923,-3.2369826923076928,-3.0141173076923073,5.94125,3.738549707591389,4.241068053019656,3.1048244265151417,2.5929503355652406
H1_squat_fast_20251205_013759,,-9.009,1.318,-5.719,-8.691,2.024,-5.882,19.04,-8.19,5.88,0.4696923076923074,0.7893807692307693,16.520403846153844,2.117901923076923,2.8203076923076926,-9.580576923076922,-2.899982692307693,-3.0621173076923074,5.10125,3.621604483562835,4.237194813103368,2.9637412880687655,2.551643598239761
H1_squat_fast_20251205_013759,55982.0,-8.619,1.977,-5.865,-9.308,0.519,-5.331,9.87,-16.31,0.0,0.859692307692308,0.17238076923077017,7.350403846153846,2.776901923076923,1.3153076923076923,-17.700576923076923,-3.045982692307693,-2.511117307692308,-0.77875,4.210494711566761,2.839975279476257,2.8657815890540994,2.5507408636147115
H1_squat_fast_20251205_013759,,-8.772,1.711,-5.554,-8.978,0.782,-5.432,8.47,-19.18,-1.96,0.7066923076923075,0.5023807692307702,5.950403846153847,2.510901923076923,1.5783076923076924,-20.570576923076924,-2.734982692307693,-2.612117307692308,-2.73875,3.779440806823875,3.092991826377213,2.844090893087814,2.5512819753168565
H1_squat_fast_20251205_013759,,-8.93,1.493,-5.532,-8.794,0.438,-5.157,5.04,-23.03,-3.43,0.548692307692308,0.6863807692307695,2.520403846153846,2.292901923076923,1.2343076923076923,-24.420576923076926,-2.7129826923076927,-2.3371173076923077,-4.20875,3.5942645375836846,2.730705284276336,2.8305352298065793,2.5869797327731314
H1_squat_fast_20251205_013759,,-9.136,0.967,-5.784,-8.933,1.072,-5.116,0.56,-26.67,-4.34,0.3426923076923085,0.5473807692307702,-1.959596153846154,1.766901923076923,1.8683076923076924,-28.060576923076926,-2.9649826923076925,-2.2961173076923074,-5.11875,3.468501519274365,3.0103744003601833,2.8279442565469424,2.611769578010991
H1_squat_fast_20251205_013759,56057.0,-8.471,1.529,-5.386,-9.016,-0.488,-3.975,-9.17,-44.17,-10.99,1.0076923076923077,0.46438076923077,-11.689596153846153,2.328901923076923,0.3083076923076924,-45.56057692307692,-2.566982692307693,-1.1551173076923078,-11.76875,3.6095190949627747,1.2825751933114027,2.814705291570527,2.5660766327673628
H1_squat_fast_20251205_013759,,-7.999,1.393,-5.58,-9.581,-0.242,-3.611,-13.58,-44.8,-11.48,1.479692307692308,-0.10061923076922952,-16.099596153846154,2.192901923076923,0.5543076923076924,-46.19057692307692,-2.7609826923076928,-0.7911173076923079,-12.258750000000001,3.8237852446104883,0.9712094737400354,2.788340254165596,2.4956178496183052
H1_squat_fast_20251205_013759,,-8.248,0.562,-5.219,-9.763,0.057,-3.266,-16.66,-43.12,-12.46,1.2306923076923084,-0.2826192307692299,-19.179596153846155,1.361901923076923,0.8533076923076924,-44.51057692307692,-2.399982692307693,-0.44611730769230773,-13.238750000000001,3.021472708410606,1.0035079967666942,2.7159694802263323,2.468570749789383
H1_squat_fast_20251205_013759,,-8.677,-0.045,-4.561,-9.758,0.335,-2.965,-15.75,-41.44,-13.37,0.8016923076923081,-0.2776192307692291,-18.269596153846155,0.7549019230769229,1.1313076923076923,-42.83057692307692,-1.7419826923076926,-0.14511730769230757,-14.14875,2.060847197144372,1.1738775766489957,2.669303865694113,2.3828141578715503
H1_squat_fast_20251205_013759,56133.0,-9.562,0.263,-2.934,-9.076,0.299,-2.663,-0.84,-41.02,-15.26,-0.08330769230769164,0.4043807692307695,-3.359596153846154,1.062901923076923,1.0953076923076923,-42.410576923076924,-0.11498269230769287,0.15688269230769247,-16.03875,1.0723440162599778,1.1780640587411966,2.6079871103832297,2.3642078046679518
H1_squat_fast_20251205_013759,,-9.177,0.639,-3.08,-9.16,0.517,-2.517,-4.41,-44.52,-15.12,0.30169230769230815,0.32038076923076986,-6.929596153846154,1.4389019230769229,1.3133076923076925,-45.910576923076924,-0.2609826923076928,0.3028826923076924,-15.89875,1.4931741219426986,1.3853370915654473,2.6132650554831143,2.3255174286960543
H1_squat_fast_20251205_013759,,-8.2,0.871,-3.075,-8.93,0.318,-1.754,-9.52,-45.71,-15.68,1.2786923076923085,0.5503807692307703,-12.039596153846153,1.670901923076923,1.1143076923076924,-47.10057692307692,-0.2559826923076929,1.0658826923076923,-16.45875,2.1195505167498925,1.6372863335520282,2.5834415413532668,2.2688758760480763
H1_squat_fast_20251205_013759,,-8.165,0.682,-2.637,-8.765,-0.031,-1.359,-11.69,-43.75,-16.31,1.3136923076923086,0.7153807692307694,-14.209596153846153,1.481901923076923,0.7653076923076924,-45.14057692307692,0.18201730769230728,1.4608826923076923,-17.088749999999997,1.9887058830326274,1.797677320759959,2.5402837659856723,2.1705851195398322
H1_squat_fast_20251205_013759,56209.0,-8.973,-0.404,-1.122,-9.684,0.017,-0.196,-9.59,-35.14,-18.62,0.505692307692307,-0.20361923076922928,-12.109596153846153,0.39590192307692296,0.8133076923076924,-36.53057692307692,1.6970173076923072,2.623882692307692,-19.39875,1.8144781027508774,2.754576297091402,2.453630959394601,2.030001833661717
H1_squat_fast_20251205_013759,,-8.756,-0.4,-0.713,-9.588,-0.481,-0.053,-5.6,-32.62,-19.53,0.7226923076923075,-0.10761923076922919,-8.119596153846153,0.39990192307692296,0.3153076923076924,-34.01057692307692,2.106017307692307,2.7668826923076923,-20.30875,2.2621924365486255,2.7868693318222917,2.3752466852228116,1.9166893980943682
H1_squat_fast_20251205_013759,,-9.127,-0.055,-0.694,-9.605,-0.579,0.33,-2.03,-30.31,-18.69,0.3516923076923071,-0.12461923076923043,-4.549596153846154,0.7449019230769229,0.21730769230769242,-31.700576923076923,2.1250173076923073,3.1498826923076924,-19.46875,2.279093002114109,3.159828090436751,2.2783202666986346,1.8779759679615144
H1_squat_fast_20251205_013759,,-9.596,0.153,-0.73,-9.617,-0.385,-0.069,-1.54,-27.86,-18.27,-0.11730769230769234,-0.13661923076923088,-4.0595961538461545,0.952901923076923,0.4113076923076924,-29.250576923076924,2.0890173076923073,2.7508826923076923,-19.04875,2.299081660471474,2.784814970299728,2.174863582014066,1.8195220076076366
H1_squat_fast_20251205_013759,56285.0,-9.514,0.622,-0.871,-9.409,-1.584,-2.039,4.62,-12.32,-18.13,-0.035307692307691596,0.0713807692307693,2.100403846153846,1.421901923076923,-0.7876923076923077,-13.710576923076923,1.9480173076923073,0.7808826923076921,-18.908749999999998,2.4120164060500775,1.1114549765776927,2.091307153284747,1.7815999327941638
H1_squat_fast_20251205_013759,,-9.586,0.986,-2.874,-9.399,0.005,-2.651,-3.85,-14.14,-18.62,-0.10730769230769255,0.08138076923077087,-6.369596153846154,1.7859019230769229,0.8013076923076924,-15.530576923076923,-0.054982692307692815,0.16888269230769248,-19.39875,1.7899675181778176,0.8229448408691594,2.0107257380907155,1.7270447326688156
H1_squat_fast_20251205_013759,,-9.182,-0.041,-2.764,-9.239,0.902,-3.436,-9.38,-13.23,-17.01,0.29669230769230737,0.24138076923076923,-11.899596153846154,0.758901923076923,1.6983076923076923,-14.620576923076923,0.055017307692307504,-0.6161173076923077,-17.78875,0.8166917156671474,1.8226667908161203,1.9215957641131118,1.7235603005177669
H1_squat_fast_20251205_013759,,-9.06,-1.22,-1.823,-9.325,-0.12,-2.845,-4.34,-9.87,-13.79,0.41869230769230725,0.1553807692307707,-6.859596153846153,-0.420098076923077,0.6763076923076924,-11.260576923076922,0.9960173076923073,-0.02511730769230791,-14.56875,1.159239457565955,0.6943818526337021,1.8324230265066366,1.7298064219858942
H1_squat_fast_20251205_013759,56361.0,-9.284,-1.541,-2.333,-9.758,-0.354,0.115,-7.63,-11.48,-12.74,0.19469230769230705,-0.2776192307692291,-10.149596153846154,-0.7410980769230769,0.4423076923076924,-12.870576923076923,0.4860173076923071,2.9348826923076925,-13.51875,0.9073832033215722,2.9809805349204654,1.7549341614658824,1.7138534974321524
H1_squat_fast_20251205_013759,,-9.131,-2.943,-1.194,-9.777,-0.608,-0.127,-1.12,-7.56,-9.8,0.3476923076923075,-0.29661923076922925,-3.639596153846154,-2.143098076923077,0.1883076923076924,-8.950576923076923,1.6250173076923073,2.692882692307692,-10.578750000000001,2.7119071810147464,2.7157061603889883,1.7108353752550196,1.697215651330824
H1_squat_fast_20251205_013759,,-9.581,-2.96,-0.412,-9.749,-0.878,-0.383,10.85,-5.39,-8.26,-0.10230769230769177,-0.26861923076923055,8.330403846153846,-2.160098076923077,-0.08169230769230762,-6.780576923076922,2.4070173076923074,2.4368826923076923,-9.03875,3.2357723784843744,2.4530037057338365,1.7027079469676258,1.6798484604853354
H1_squat_fast_20251205_013759,,-9.619,-1.137,-0.086,-9.517,-0.852,-1.055,14.07,-4.48,-7.56,-0.14030769230769202,-0.03661923076922946,11.550403846153847,-0.33709807692307703,-0.0556923076923076,-5.870576923076923,2.7330173076923074,1.7648826923076923,-8.33875,2.7573003039443593,1.7661408547467197,1.66905660920037,1.6626656507981035
H1_squat_fast_20251205_013759,56436.0,-9.383,-0.866,-1.338,-9.954,-0.462,-2.735,-1.68,6.09,-1.54,0.09569230769230863,-0.4736192307692306,-4.199596153846154,-0.06609807692307701,0.33430769230769236,4.699423076923077,1.4810173076923072,0.08488269230769241,-2.31875,1.4855767362235377,0.585902620188658,1.626164195862893,1.695185244199355
H1_squat_fast_20251205_013759,,-9.146,-0.828,-1.271,-9.746,0.115,-3.695,-0.42,8.82,-0.63,0.33269230769230695,-0.26561923076923044,-2.939596153846154,-0.028098076923076976,0.9113076923076924,7.429423076923078,1.5480173076923074,-0.8751173076923076,-1.40875,1.583613355096296,1.2910714883523076,1.5989724131268033,1.7415780839139645
H1_squat_fast_20251205_013759,,-9.292,-0.787,-1.139,-9.459,0.311,-4.281,0.35,10.99,0.49,0.18669230769230793,0.02138076923077037,-2.169596153846154,0.01290192307692295,1.1073076923076923,9.599423076923078,1.6800173076923073,-1.4611173076923074,-0.28875000000000006,1.6904078299381693,1.8334260960220632,1.5974729315668976,1.7490165112135614
H1_squat_fast_20251205_013759,,-9.775,-0.768,-1.771,-9.189,-0.297,-4.283,0.56,11.55,0.77,-0.2963076923076926,0.29138076923076994,-1.959596153846154,0.03190192307692297,0.4993076923076924,10.159423076923078,1.0480173076923074,-1.463117307692308,-0.008750000000000036,1.0895670050250919,1.573188857176384,1.5930726560002062,1.7764143414312947
H1_squat_fast_20251205_013759,56512.0,-9.251,-0.864,-4.221,-9.495,0.881,-3.3,-4.13,8.26,0.91,0.2276923076923083,-0.014619230769229219,-6.649596153846154,-0.06409807692307701,1.6773076923076924,6.869423076923077,-1.4019826923076928,-0.48011730769230754,0.13124999999999998,1.4217973906213968,1.7447313391260415,1.6041234171286107,1.6957060365403824
H1_squat_fast_20251205_013759,,-9.541,-1.05,-4.168,-9.529,0.782,-3.022,2.59,7.49,1.47,-0.06230769230769262,-0.048619230769229915,0.07040384615384587,-0.25009807692307706,1.5783076923076924,6.0994230769230775,-1.3489826923076929,-0.2021173076923075,0.6912499999999999,1.3733847242295376,1.591939197101137,1.5907488354585555,1.6576740728307509
H1_squat_fast_20251205_013759,,-9.885,-0.737,-4.044,-9.557,0.354,-2.517,11.48,5.18,1.61,-0.40630769230769204,-0.07661923076923038,8.960403846153847,0.062901923076923,1.1503076923076923,3.789423076923077,-1.2249826923076923,0.3028826923076924,0.83125,1.292139771545083,1.1919799573841303,1.5638117921036156,1.723602833731251
H1_squat_fast_20251205_013759,,-9.861,0.263,-3.814,-9.337,0.127,-2.178,15.54,2.1,0.98,-0.3823076923076929,0.14338076923077026,13.020403846153846,1.062901923076923,0.9233076923076924,0.7094230769230772,-0.9949826923076928,0.6418826923076923,0.20124999999999993,1.5052940668421302,1.1336086319113556,1.544004212072006,1.7673498505469791
H1_squat_fast_20251205_013759,56587.0,-9.447,-0.34,-1.924,-9.34,-0.696,-2.257,-16.45,-4.13,-4.9,0.031692307692308574,0.14038076923077014,-18.969596153846155,0.45990192307692296,0.10030769230769243,-5.520576923076923,0.8950173076923074,0.5628826923076922,-5.678750000000001,1.006762217351,0.5887319583694038,1.5655851412862853,1.7488325969044092
H1_squat_fast_20251205_013759,,-9.742,-0.711,-1.948,-9.435,-0.998,-2.108,-17.5,-3.78,-5.25,-0.26330769230769313,0.0453807692307695,-20.019596153846155,0.08890192307692302,-0.20169230769230762,-5.170576923076923,0.8710173076923073,0.7118826923076922,-6.0287500000000005,0.9142787556619335,0.7412935780144552,1.6043245600021205,1.7840944079473675
H1_squat_fast_20251205_013759,,-9.746,-0.407,-2.101,-9.502,-0.775,-2.094,-17.36,-3.64,-5.39,-0.2673076923076927,-0.02161923076923067,-19.879596153846155,0.392901923076923,0.02130769230769236,-5.030576923076923,0.7180173076923073,0.7258826923076924,-6.168749999999999,0.8610308807877438,0.7265170967584978,1.6627805027182547,1.7266575906422437
H1_squat_fast_20251205_013759,,-9.562,-0.491,-2.29,-9.414,-0.73,-1.886,-18.41,-3.22,-5.04,-0.08330769230769164,0.0663807692307703,-20.929596153846155,0.308901923076923,0.0663076923076924,-4.610576923076923,0.5290173076923073,0.9338826923076924,-5.81875,0.6182393399940443,0.9385840396974074,1.6225696540511017,1.6957062783233587
H1_squat_fast_20251205_013759,56663.0,-9.509,-0.888,-1.819,-9.454,-2.008,-0.653,-14.77,-0.35,-2.31,-0.03030769230769259,0.026380769230769374,-17.289596153846155,-0.08809807692307703,-1.2116923076923076,-1.7405769230769228,1.0000173076923073,2.1668826923076923,-3.08875,1.0043477699754866,2.4827957619845717,1.574839676133256,1.640284541268448
H1_squat_fast_20251205_013759,,-9.49,-1.074,-1.567,-9.471,-2.28,-0.208,-14.7,0.7,-1.75,-0.011307692307692463,0.009380769230769914,-17.219596153846155,-0.2740980769230771,-1.4836923076923074,-0.690576923076923,1.2520173076923073,2.611882692307692,-2.52875,1.281719531894302,3.0038911533398083,1.5178481681322393,1.6627676632075987
H1_squat_fast_20251205_013759,,-9.378,-1.565,-1.22,-9.617,-2.06,-0.16,-13.09,2.8,-0.35,0.10069230769230764,-0.13661923076923088,-15.609596153846153,-0.765098076923077,-1.2636923076923077,1.409423076923077,1.5990173076923073,2.659882692307692,-1.1287500000000001,1.7754915821933226,2.947975406880916,1.5402488225506068,1.7547825051781039
H1_squat_fast_20251205_013759,,-9.524,-1.941,-1.0,-9.49,-1.917,0.495,-8.4,5.32,1.68,-0.04530769230769138,-0.009619230769230214,-10.919596153846154,-1.1410980769230772,-1.1206923076923077,3.9294230769230776,1.8190173076923073,3.3148826923076924,0.9012499999999999,2.1477852718146577,3.4992129174833586,1.5474544693204966,1.8012972256038273
H1_squat_fast_20251205_013759,56739.0,-9.907,-1.06,-0.302,-8.737,-0.763,-2.063,20.44,19.95,13.3,-0.4283076923076923,0.7433807692307699,17.920403846153846,-0.26009807692307707,0.03330769230769237,18.559423076923075,2.5170173076923072,0.7568826923076921,12.52125,2.566412791452625,1.0614121632730311,1.5817914359889913,1.8798044734330739
H1_squat_fast_20251205_013759,,-9.73,-0.249,-0.964,-8.67,-1.749,-1.531,21.14,20.3,13.58,-0.2513076923076927,0.8103807692307701,18.620403846153845,0.550901923076923,-0.9526923076923077,18.909423076923076,1.8550173076923073,1.2888826923076924,12.80125,1.95134253705004,1.7959839138493068,1.665654124990835,1.9195537129088183
H1_squat_fast_20251205_013759,,-9.612,0.103,-1.371,-8.947,-2.362,-0.529,19.39,21.42,14.35,-0.13330769230769235,0.5333807692307708,16.870403846153845,0.902901923076923,-1.5656923076923077,20.029423076923077,1.4480173076923073,2.2908826923076924,13.57125,1.7116532788216443,2.8256027599906917,1.764653106121145,1.9120268350784606
H1_squat_fast_20251205_013759,,-9.067,0.366,-2.508,-10.053,-1.572,-1.113,13.3,22.12,14.63,0.4116923076923076,-0.5726192307692308,10.780403846153847,1.165901923076923,-0.7756923076923077,20.729423076923077,0.3110173076923073,1.7068826923076923,13.85125,1.2749704373559632,1.9603672780780952,1.8900222088355192,1.920229995421588
H1_squat_fast_20251205_013759,56815.0,-9.885,0.299,-2.094,-8.15,-0.658,-2.919,41.93,36.12,19.6,-0.40630769230769204,1.3303807692307696,39.41040384615385,1.098901923076923,0.13830769230769235,34.72942307692308,0.7250173076923074,-0.09911730769230775,18.821250000000003,1.3777958752384054,1.3412181961093077,1.9432142220091342,1.9642793021631386
H1_squat_fast_20251205_013759,,-10.122,1.261,-2.639,-8.007,-0.785,-2.168,34.65,35.07,17.92,-0.6433076923076921,1.4733807692307703,32.13040384615385,2.0609019230769228,0.011307692307692352,33.67942307692308,0.1800173076923075,0.6518826923076921,17.141250000000003,2.166464344177673,1.6111889397506138,1.9864451138572834,2.0330114339958354
H1_squat_fast_20251205_013759,,-9.234,1.395,-3.826,-8.686,0.11,-3.692,16.1,34.93,17.29,0.24469230769230776,0.7943807692307701,13.580403846153848,2.194901923076923,0.9063076923076924,33.53942307692308,-1.0069826923076928,-0.8721173076923079,16.51125,2.427237713941058,1.487623284987246,2.0446465512216068,2.1771996876087676
H1_squat_fast_20251205_013759,,-8.624,0.428,-3.553,-9.16,0.842,-3.75,2.17,38.22,17.85,0.8546923076923072,0.32038076923076986,-0.34959615384615406,1.227901923076923,1.6383076923076922,36.82942307692308,-0.7339826923076926,-0.9301173076923077,17.071250000000003,1.6664251156687648,1.910972040097982,2.092970594062828,2.3368147307259375
H1_squat_fast_20251205_013759,56890.0,-9.612,0.842,-3.944,-8.878,-0.57,-3.601,15.82,34.37,10.5,-0.13330769230769235,0.6023807692307699,13.300403846153847,1.641901923076923,0.22630769230769243,32.97942307692308,-1.1249826923076927,-0.7811173076923077,9.72125,1.9947929526203878,1.0120385423061546,2.2572160533149965,2.3960994175622314
H1_squat_fast_20251205_013759,,-9.129,0.27,-3.419,-9.337,-0.177,-5.083,9.94,38.5,12.6,0.3496923076923082,0.14338076923077026,7.420403846153846,1.0699019230769231,0.6193076923076923,37.10942307692308,-0.5999826923076927,-2.263117307692308,11.82125,1.2755210959179224,2.3507020251646455,2.43517114136674,2.4001660823328823
H1_squat_fast_20251205_013759,,-8.435,-0.768,-1.034,-9.196,-0.651,-5.781,15.68,47.6,15.61,1.0436923076923073,0.28438076923077027,13.160403846153846,0.03190192307692297,0.14530769230769236,46.20942307692308,1.7850173076923073,-2.9611173076923074,14.831249999999999,2.0679937511010986,2.978288511421788,2.5767258954508128,2.375173481258545
H1_squat_fast_20251205_013759,,-8.99,-1.405,-1.228,-8.918,-1.232,-5.217,28.63,50.05,16.73,0.48869230769230754,0.5623807692307707,26.110403846153844,-0.605098076923077,-0.4356923076923076,48.659423076923076,1.5910173076923073,-2.3971173076923074,15.95125,1.7709601711134322,2.500454219421115,2.664622900006967,2.3379870587407514
H1_squat_fast_20251205_013759,56966.0,-8.296,-0.57,-5.104,-8.804,2.577,-4.602,18.55,29.05,20.65,1.1826923076923084,0.6763807692307697,16.030403846153845,0.22990192307692303,3.3733076923076926,27.659423076923076,-2.284982692307693,-1.782117307692308,19.87125,2.583168963319035,3.874614539582478,2.676575951842843,2.3887657647136407
H1_squat_fast_20251205_013759,,-7.971,0.553,-5.386,-8.78,1.548,-3.719,24.71,29.47,16.03,1.5076923076923077,0.7003807692307706,22.190403846153846,1.352901923076923,2.3443076923076926,28.079423076923074,-2.566982692307693,-0.8991173076923076,15.25125,3.2699969190730203,2.6066690835457362,2.697983934512635,2.398931263848716
H1_squat_fast_20251205_013759,,-8.591,2.041,-5.485,-9.213,0.302,-3.879,26.95,29.96,10.36,0.8876923076923084,0.2673807692307708,24.430403846153844,2.840901923076923,1.0983076923076924,28.569423076923076,-2.665982692307693,-1.0591173076923077,9.581249999999999,3.9957709000094623,1.549032515536743,2.718872098770101,2.4653277855522946
H1_squat_fast_20251205_013759,,-9.019,2.883,-5.592,-10.146,-0.969,-4.489,19.46,30.8,5.46,0.4596923076923076,-0.6656192307692308,16.940403846153846,3.682901923076923,-0.1726923076923076,29.409423076923076,-2.7729826923076923,-1.6691173076923076,4.68125,4.632981394803264,1.8052213660224428,2.792723843644796,2.5029066993796385
H1_squat_fast_20251205_013759,57042.0,-10.177,-1.22,-5.367,-8.638,-0.558,-4.987,-18.97,13.79,10.99,-0.6983076923076919,0.8423807692307701,-21.489596153846154,-0.420098076923077,0.23830769230769233,12.399423076923076,-2.5479826923076927,-2.167117307692308,10.21125,2.6751321140590645,2.3372619326644584,2.8263907158236057,2.524161482447516
H1_squat_fast_20251205_013759,,-9.237,-1.606,-5.31,-9.328,0.761,-5.286,-9.38,10.71,14.28,0.24169230769230765,0.1523807692307706,-11.899596153846154,-0.8060980769230771,1.5573076923076923,9.319423076923078,-2.4909826923076923,-2.4661173076923073,13.501249999999999,2.6292972548940137,2.920644059561457,2.863166520190462,2.566532088759281
H1_squat_fast_20251205_013759,,-8.004,-1.828,-4.585,-9.06,2.247,-5.882,2.45,15.61,15.54,1.4746923076923082,0.4203807692307695,-0.06959615384615381,-1.0280980769230772,3.0433076923076925,14.219423076923077,-1.7659826923076927,-3.0621173076923074,14.761249999999999,2.5199995888234032,4.337626552305651,2.8883763960018287,2.635576501137117
H1_squat_fast_20251205_013759,,-8.244,-1.546,-4.441,-8.478,2.982,-5.76,14.98,18.55,14.35,1.234692307692308,1.0023807692307702,12.460403846153847,-0.7460980769230771,3.778307692307693,17.159423076923076,-1.6219826923076925,-2.9401173076923075,13.57125,2.1707038695337006,4.891284699060873,2.9112481507145467,2.689352731589424
H1_squat_fast_20251205_013759,57118.0,-8.603,3.36,-5.693,-8.993,0.483,-4.628,-0.42,12.74,10.71,0.875692307692308,0.4873807692307697,-2.939596153846154,4.159901923076923,1.2793076923076923,11.349423076923078,-2.8739826923076923,-1.8081173076923078,9.93125,5.131412821344112,2.267918954502142,2.922042223323438,2.690361629097763
H1_squat_fast_20251205_013759,,-8.981,3.606,-5.621,-10.177,-1.216,-3.475,-10.43,13.51,6.3,0.4976923076923079,-0.6966192307692296,-12.949596153846153,4.4059019230769225,-0.4196923076923076,12.119423076923077,-2.801982692307693,-0.6551173076923078,5.52125,5.245071629339383,1.0443173237343264,2.9761964605468143,2.6659743482066167
H1_squat_fast_20251205_013759,,-8.744,3.015,-5.437,-10.136,-2.324,-3.592,-18.13,13.3,2.1,0.734692307692308,-0.6556192307692292,-20.649596153846154,3.814901923076923,-1.5276923076923075,11.909423076923078,-2.617982692307693,-0.7721173076923078,1.32125,4.684771376161369,1.8329881340518006,3.008081179080245,2.673478854274116
H1_squat_fast_20251205_013759,,-8.765,1.993,-4.92,-9.576,-2.541,-3.867,-23.17,12.11,-0.35,0.7136923076923072,-0.09561923076923051,-25.689596153846157,2.792901923076923,-1.7446923076923075,10.719423076923077,-2.1009826923076926,-1.0471173076923077,-1.1287500000000001,3.5670416503543136,2.037044167877171,3.034528365062156,2.6314902574407872
H1_squat_fast_20251205_013759,57194.0,-8.875,-1.895,-4.489,-8.2,1.893,-5.877,21.28,5.25,3.29,0.6036923076923078,1.2803807692307707,18.760403846153846,-1.095098076923077,2.6893076923076924,3.8594230769230773,-1.6699826923076926,-3.0571173076923075,2.51125,2.086270929926105,4.268221762176044,3.0110491014061713,2.6518262606407044
H1_squat_fast_20251205_013759,,-8.514,-0.981,-5.339,-7.973,1.536,-5.36,31.36,4.55,3.78,0.9646923076923084,1.5073807692307701,28.840403846153844,-0.181098076923077,2.332307692307692,3.159423076923077,-2.519982692307693,-2.540117307692308,3.0012499999999998,2.7043928212292454,3.763515894995317,3.024100629108347,2.6726910404696325
H1_squat_fast_20251205_013759,,-8.22,0.012,-5.544,-9.531,1.201,-4.764,37.87,5.25,3.71,1.258692307692307,-0.05061923076923058,35.350403846153846,0.811901923076923,1.9973076923076925,3.8594230769230773,-2.7249826923076923,-1.944117307692308,2.93125,3.1095050621467513,2.787721727566067,3.0245576218008616,2.6305276653724947
H1_squat_fast_20251205_013759,,-8.263,1.247,-5.872,-9.976,0.943,-4.922,39.83,4.76,2.59,1.2156923076923078,-0.49561923076923087,37.31040384615385,2.046901923076923,1.7393076923076922,3.369423076923077,-3.0529826923076926,-2.1021173076923074,1.8112499999999998,3.8714879037921044,2.7730356733602526,3.027500609120175,2.6308295883914505
H1_squat_fast_20251205_013759,57269.0,-9.689,0.225,-5.185,-7.978,-0.964,-5.841,3.08,-0.7,-4.13,-0.2103076923076923,1.5023807692307702,0.5604038461538461,1.024901923076923,-0.16769230769230759,-2.090576923076923,-2.3659826923076923,-3.021117307692308,-4.9087499999999995,2.5869919554707,3.3782271197555134,2.9734855802429054,2.6685385965512447
H1_squat_fast_20251205_013759,,-9.885,-0.89,-5.011,-8.406,-0.713,-5.686,1.47,-2.31,-4.13,-0.40630769230769204,1.0743807692307694,-1.049596153846154,-0.09009807692307703,0.08330769230769242,-3.700576923076923,-2.191982692307693,-2.8661173076923077,-4.9087499999999995,2.231141350894228,3.062003042183978,2.9142468805954342,2.691074395339004
H1_squat_fast_20251205_013759,,-9.792,-1.275,-4.771,-8.514,-0.33,-5.767,3.99,-4.2,-0.91,-0.31330769230769207,0.9663807692307707,1.4704038461538462,-0.47509807692307693,0.46630769230769237,-5.590576923076923,-1.9519826923076926,-2.947117307692308,-1.6887500000000002,2.033252646333939,3.1363729179330604,2.9327234219398712,2.6842891090929113
H1_squat_fast_20251205_013759,,-8.89,-1.125,-5.497,-8.49,-0.306,-5.619,7.91,-5.25,0.91,0.5886923076923072,0.9903807692307698,5.390403846153847,-0.325098076923077,0.4903076923076924,-6.640576923076923,-2.6779826923076926,-2.7991173076923075,0.13124999999999998,2.7611299667083284,3.0093709315105803,2.951290318551358,2.6537450787985084
H1_squat_fast_20251205_013759,57345.0,-8.536,0.196,-5.154,-8.806,-1.132,-4.133,19.39,-7.98,6.93,0.9426923076923082,0.6743807692307708,16.870403846153845,0.995901923076923,-0.3356923076923075,-9.370576923076923,-2.3349826923076926,-1.3131173076923077,6.151249999999999,2.7078836017722483,1.5138546202040564,2.948217219297866,2.5638629312189516
H1_squat_fast_20251205_013759,,-8.488,0.725,-5.298,-9.184,-1.369,-3.922,17.36,-8.61,7.14,0.9906923076923082,0.2963807692307707,14.840403846153846,1.524901923076923,-0.5726923076923076,-10.000576923076922,-2.4789826923076927,-1.1021173076923079,6.36125,3.074435283476545,1.2769027369281911,2.961072525486078,2.4585593936722203
H1_squat_fast_20251205_013759,,-8.521,0.402,-5.188,-9.552,-0.905,-4.02,11.55,-8.96,7.56,0.957692307692307,-0.0716192307692296,9.030403846153847,1.201901923076923,-0.10869230769230764,-10.350576923076924,-2.3689826923076924,-1.2001173076923073,6.78125,2.8237956344895827,1.2071557000611344,2.859757098002537,2.4652948387556566
H1_squat_fast_20251205_013759,,-8.591,-0.488,-4.542,-9.753,-0.493,-4.011,7.21,-8.19,8.33,0.8876923076923084,-0.2726192307692301,4.6904038461538455,0.311901923076923,0.3033076923076924,-9.580576923076922,-1.7229826923076925,-1.1911173076923078,7.55125,1.9631479314476135,1.2589985074980814,2.750955277353668,2.5297084943549306
H1_squat_fast_20251205_013759,57420.0,-9.308,0.258,-3.807,-8.995,2.357,-4.276,12.6,-1.89,10.01,0.17069230769230792,0.4853807692307708,10.080403846153846,1.057901923076923,3.153307692307693,-3.280576923076923,-0.9879826923076926,-1.4561173076923075,9.23125,1.4575328960454836,3.5070245946196352,2.6896920498936754,2.5761794753551714
H1_squat_fast_20251205_013759,,-8.433,0.735,-3.821,-9.208,1.924,-4.156,10.85,0.35,10.5,1.045692307692308,0.2723807692307698,8.330403846153846,1.534901923076923,2.720307692307692,-1.040576923076923,-1.0019826923076929,-1.3361173076923074,9.72125,2.1102998913700093,3.042938494973253,2.6742739722025473,2.6314623472331693
H1_squat_fast_20251205_013759,,-8.49,1.369,-3.845,-8.976,1.536,-4.243,8.54,1.89,9.87,0.9886923076923075,0.5043807692307691,6.020403846153846,2.168901923076923,2.332307692307692,0.49942307692307697,-1.025982692307693,-1.423117307692308,9.091249999999999,2.5950507733244175,2.7783667870568958,2.707572106197298,2.608741901737715
H1_squat_fast_20251205_013759,,-8.734,2.199,-4.104,-8.744,1.173,-4.374,5.25,2.73,7.91,0.7446923076923078,0.7363807692307702,2.730403846153846,2.998901923076923,1.9693076923076924,1.339423076923077,-1.2849826923076928,-1.5541173076923074,7.13125,3.3465145893751735,2.6145190820385946,2.7203829525921623,2.5973013955908972
H1_squat_fast_20251205_013759,57496.0,-8.849,1.156,-4.398,-9.165,0.883,-4.685,-10.08,9.31,0.28,0.6296923076923076,0.31538076923077085,-12.599596153846154,1.9559019230769228,1.6793076923076924,7.919423076923078,-1.5789826923076924,-1.8651173076923073,-0.49875,2.5913801492004445,2.5294667276913887,2.740286777900086,2.6126084726161585
H1_squat_fast_20251205_013759,,-9.012,1.496,-4.838,-9.22,0.294,-4.932,-9.59,8.54,-1.54,0.4666923076923073,0.26038076923076936,-12.109596153846153,2.295901923076923,1.0903076923076924,7.149423076923076,-2.018982692307693,-2.112117307692308,-2.31875,3.0927752039690026,2.3911521345041886,2.7293521826880385,2.618953018667159
H1_squat_fast_20251205_013759,,-8.808,1.441,-4.937,-9.007,0.036,-4.757,-10.71,8.82,-2.94,0.6706923076923079,0.4733807692307703,-13.229596153846154,2.240901923076923,0.8323076923076924,7.429423076923078,-2.117982692307693,-1.9371173076923074,-3.71875,3.155522189014431,2.160844490266055,2.7602767337760032,2.600712337115024
H1_squat_fast_20251205_013759,,-8.708,1.283,-4.999,-8.983,-0.05,-4.748,-12.18,9.59,-4.27,0.7706923076923076,0.49738076923076946,-14.699596153846153,2.082901923076923,0.7463076923076923,8.199423076923077,-2.1799826923076924,-1.928117307692308,-5.04875,3.112036566792674,2.1264992719069666,2.7973244856443804,2.612239918635719
H1_squat_fast_20251205_013759,57572.0,-9.081,-0.057,-5.109,-8.976,-0.948,-4.75,-18.13,7.7,-4.69,0.39769230769230823,0.5043807692307691,-20.649596153846154,0.7429019230769229,-0.15169230769230757,6.3094230769230775,-2.2899826923076927,-1.9301173076923077,-5.46875,2.440099008232619,2.000690715237176,2.8459773896884215,2.5943949624593596
H1_squat_fast_20251205_013759,,-9.112,-0.397,-5.264,-9.371,-0.493,-4.949,-19.74,7.63,-3.78,0.36669230769230765,0.10938076923076956,-22.259596153846154,0.40290192307692296,0.3033076923076924,6.239423076923077,-2.444982692307693,-2.1291173076923076,-4.55875,2.504941830427199,2.1533927228458523,2.885120025815863,2.577005041572791
H1_squat_fast_20251205_013759,,-8.866,-0.704,-5.238,-9.141,-0.034,-5.116,-19.6,7.7,-2.17,0.6126923076923081,0.33938076923077,-22.119596153846157,0.09590192307692302,0.7623076923076924,6.3094230769230775,-2.418982692307693,-2.2961173076923074,-2.94875,2.497211706772046,2.4430405266714916,2.9257274260939807,2.613501411173339
