Timestamp,AccX,AccY,AccZ,GyroX,GyroY,GyroZ,MagnX,MagnY,MagnZ
0.0,-9.273,-0.471,-3.506,-9.268,-0.517,-3.525,2.59,1.05,0.14
,-9.256,-0.459,-3.556,-9.239,-0.584,-3.63,2.66,1.19,0.35
,-9.249,-0.469,-3.518,-9.215,-0.589,-3.623,2.73,1.33,0.42
,-9.249,-0.503,-3.601,-9.246,-0.558,-3.711,2.59,1.33,0.21
76.0,-9.172,-0.522,-3.659,-9.265,-0.507,-3.585,2.17,1.26,0.28
,-9.217,-0.526,-3.664,-9.251,-0.534,-3.561,2.59,1.12,0.35
,-9.251,-0.505,-3.644,-9.273,-0.534,-3.439,2.87,0.84,0.56
,-9.256,-0.481,-3.592,-9.22,-0.574,-3.513,3.15,0.98,0.63
152.0,-9.22,-0.581,-3.544,-9.229,-0.486,-3.637,3.01,0.56,0.49
,-9.213,-0.651,-3.599,-9.203,-0.5,-3.652,3.08,0.63,0.56
,-9.251,-0.644,-3.534,-9.239,-0.426,-3.644,3.78,0.91,0.77
,-9.237,-0.558,-3.616,-9.225,-0.445,-3.611,4.34,1.05,0.84
227.0,-9.215,-0.481,-3.649,-9.294,-0.483,-3.606,3.15,0.63,0.7
,-9.182,-0.474,-3.668,-9.253,-0.51,-3.592,3.01,0.42,0.63
,-9.227,-0.519,-3.637,-9.251,-0.541,-3.613,2.8,0.07,0.63
,-9.256,-0.536,-3.618,-9.246,-0.67,-3.57,2.8,0.28,0.84
302.0,-9.229,-0.601,-3.475,-9.28,-0.577,-3.47,2.66,0.21,0.84
,-9.287,-0.574,-3.448,-9.268,-0.598,-3.498,3.22,0.63,0.91
,-9.268,-0.481,-3.486,-9.246,-0.656,-3.491,3.29,0.7,0.91
,-9.304,-0.459,-3.419,-9.198,-0.651,-3.455,3.22,0.84,0.98
378.0,-9.249,-0.598,-3.35,-9.256,-0.591,-3.453,3.5,1.68,1.47
,-9.301,-0.531,-3.362,-9.234,-0.5,-3.568,3.36,2.1,1.47
,-9.268,-0.536,-3.403,-9.27,-0.438,-3.611,2.73,2.03,1.26
,-9.284,-0.524,-3.41,-9.292,-0.404,-3.647,2.17,2.31,1.12
454.0,-9.268,-0.407,-3.721,-9.158,-0.567,-3.893,0.0,2.03,0.91
,-9.261,-0.491,-3.879,-9.16,-0.486,-3.819,0.0,1.68,0.91
,-9.186,-0.558,-3.915,-9.237,-0.414,-3.723,0.63,1.26,0.98
,-9.15,-0.589,-3.951,-9.258,-0.395,-3.575,1.89,1.12,1.33
530.0,-9.246,-0.45,-3.542,-9.208,-0.534,-3.534,3.43,0.0,1.4
,-9.246,-0.565,-3.51,-9.222,-0.51,-3.422,2.66,-0.14,1.26
,-9.282,-0.617,-3.465,-9.268,-0.531,-3.429,2.45,-0.14,1.33
,-9.244,-0.591,-3.489,-9.287,-0.543,-3.362,2.87,0.14,1.47
605.0,-9.306,-0.565,-3.369,-9.268,-0.402,-3.623,2.03,0.91,1.75
,-9.323,-0.538,-3.439,-9.253,-0.419,-3.656,1.61,1.12,1.61
,-9.275,-0.51,-3.475,-9.256,-0.505,-3.676,1.19,0.91,1.33
,-9.217,-0.45,-3.594,-9.234,-0.366,-3.764,0.98,1.12,1.19
681.0,-9.244,-0.402,-3.836,-9.213,-0.603,-3.565,-0.56,0.42,0.77
,-9.17,-0.479,-3.644,-9.306,-0.653,-3.455,-0.84,0.21,0.56
,-9.232,-0.675,-3.623,-9.249,-0.562,-3.486,0.14,0.28,0.91
,-9.256,-0.689,-3.611,-9.129,-0.771,-3.336,2.1,0.42,1.33
757.0,-9.246,-0.785,-3.19,-9.32,-0.036,-3.439,6.23,1.75,2.59
,-9.328,-0.567,-3.151,-9.284,-0.069,-3.542,7.14,2.17,2.52
,-9.402,-0.278,-3.211,-9.253,-0.184,-3.628,7.14,2.31,2.1
,-9.438,-0.086,-3.355,-9.201,-0.263,-3.743,5.39,2.45,1.61
832.0,-9.246,-0.163,-3.814,-9.124,-0.625,-3.63,-1.26,1.47,0.0
,-9.246,-0.191,-3.814,-9.28,-0.689,-3.656,-1.96,0.84,-0.56
,-9.237,-0.218,-3.8,-9.308,-0.651,-3.642,-3.22,0.56,-1.05
,-9.206,-0.625,-3.812,-9.246,-0.369,-3.508,-4.48,0.28,-1.12
908.0,-9.342,-0.292,-3.403,-9.251,-0.61,-3.307,1.4,0.84,-0.07
,-9.347,-0.431,-3.427,-9.313,-0.663,-3.345,0.63,0.7,-0.14
,-9.232,-0.483,-3.36,-9.268,-0.507,-3.403,0.14,0.84,0.0
,-9.292,-0.593,-3.386,-9.294,-0.388,-3.415,0.0,0.91,-0.14
984.0,-9.294,-0.404,-3.436,-9.265,-0.361,-3.618,1.68,2.45,0.84
,-9.292,-0.479,-3.424,-9.323,-0.371,-3.642,1.33,2.52,0.98
,-9.222,-0.404,-3.501,-9.344,-0.428,-3.757,0.98,2.66,0.84
,-9.27,-0.447,-3.613,-9.22,-0.421,-3.96,0.28,2.73,0.84
1060.0,-9.167,-0.481,-4.025,-9.222,-0.534,-3.702,0.21,1.47,0.91
,-9.143,-0.503,-3.989,-9.287,-0.546,-3.57,1.19,1.05,0.98
,-9.129,-0.629,-3.994,-9.251,-0.536,-3.496,2.03,0.84,0.98
,-9.115,-0.615,-3.826,-9.275,-0.45,-3.47,2.73,0.49,1.05
1135.0,-9.225,-0.409,-3.482,-9.306,-0.61,-3.329,4.76,0.28,1.19
,-9.268,-0.357,-3.479,-9.284,-0.505,-3.427,3.99,0.21,1.05
,-9.229,-0.402,-3.384,-9.301,-0.424,-3.479,3.5,0.14,0.98
,-9.27,-0.577,-3.3,-9.241,-0.39,-3.561,3.15,0.42,1.05
1211.0,-9.208,-0.438,-3.568,-9.275,-0.352,-3.575,3.85,1.26,1.33
,-9.189,-0.402,-3.587,-9.234,-0.349,-3.654,3.5,1.12,1.26
,-9.325,-0.342,-3.589,-9.251,-0.347,-3.716,3.15,1.05,0.98
,-9.261,-0.345,-3.553,-9.232,-0.397,-3.757,2.73,1.05,0.91
1287.0,-9.217,-0.467,-3.716,-9.265,-0.572,-3.41,0.21,0.07,0.28
,-9.225,-0.689,-3.62,-9.304,-0.376,-3.405,0.56,-0.07,0.42
,-9.249,-0.579,-3.599,-9.301,-0.376,-3.376,2.1,-0.14,0.98
,-9.282,-0.632,-3.494,-9.263,-0.479,-3.393,2.94,0.0,1.05
1363.0,-9.292,-0.447,-3.458,-9.296,-0.507,-3.484,3.08,0.7,1.12
,-9.304,-0.426,-3.431,-9.284,-0.512,-3.515,2.73,0.77,0.98
,-9.306,-0.445,-3.467,-9.244,-0.55,-3.491,2.38,0.7,0.84
,-9.246,-0.428,-3.455,-9.273,-0.512,-3.503,2.17,0.77,0.77
1438.0,-9.273,-0.431,-3.549,-9.225,-0.419,-3.604,3.15,1.05,1.05
,-9.251,-0.371,-3.625,-9.277,-0.34,-3.601,3.08,1.05,0.98
,-9.237,-0.383,-3.671,-9.27,-0.313,-3.52,2.59,0.7,0.7
,-9.203,-0.359,-3.649,-9.258,-0.335,-3.427,2.45,0.77,0.77
1514.0,-9.284,-0.392,-3.41,-9.328,-0.543,-3.429,2.03,0.56,0.49
,-9.306,-0.359,-3.475,-9.22,-0.581,-3.408,1.75,0.63,0.28
,-9.28,-0.55,-3.455,-9.229,-0.538,-3.393,1.19,0.63,0.21
,-9.249,-0.428,-3.436,-9.289,-0.491,-3.419,1.54,0.7,0.28
1589.0,-9.32,-0.419,-3.556,-9.208,-0.503,-3.728,3.15,1.4,0.91
,-9.292,-0.335,-3.568,-9.229,-0.491,-3.64,2.87,1.26,0.7
,-9.256,-0.33,-3.697,-9.191,-0.601,-3.625,2.1,0.98,0.56
,-9.182,-0.522,-3.735,-9.213,-0.514,-3.494,1.75,0.91,0.49
1665.0,-9.325,-0.464,-3.4,-9.273,-0.498,-3.434,3.85,0.77,1.05
,-9.363,-0.383,-3.293,-9.263,-0.462,-3.422,3.36,0.91,0.91
,-9.368,-0.424,-3.319,-9.268,-0.455,-3.558,2.73,0.91,0.84
,-9.304,-0.419,-3.379,-9.265,-0.428,-3.546,2.31,0.98,0.77
1741.0,-9.275,-0.38,-3.568,-9.299,-0.364,-3.501,2.8,1.12,0.77
,-9.265,-0.378,-3.568,-9.316,-0.388,-3.513,2.59,1.26,0.7
,-9.249,-0.404,-3.551,-9.282,-0.412,-3.467,2.45,1.19,0.63
,-9.246,-0.421,-3.558,-9.292,-0.457,-3.465,2.52,1.26,0.63
1817.0,-9.296,-0.51,-3.599,-9.351,-0.546,-3.556,2.8,0.91,0.7
,-9.256,-0.457,-3.585,-9.249,-0.51,-3.477,3.08,0.84,0.7
,-9.203,-0.558,-3.398,-9.249,-0.452,-3.506,2.59,0.98,0.84
,-9.299,-0.62,-3.467,-9.292,-0.486,-3.501,2.66,1.12,0.98
1893.0,-9.246,-0.457,-3.503,-9.325,-0.431,-3.391,2.38,1.05,0.84
,-9.27,-0.476,-3.455,-9.275,-0.45,-3.446,2.45,1.12,0.84
,-9.33,-0.555,-3.427,-9.277,-0.455,-3.491,3.08,1.12,0.98
,-9.287,-0.447,-3.376,-9.249,-0.419,-3.477,4.13,1.33,1.26
1968.0,-9.239,-0.447,-3.47,-9.373,-0.304,-3.506,3.5,1.54,0.98
,-9.263,-0.457,-3.412,-9.265,-0.397,-3.58,3.08,1.82,0.98
,-9.308,-0.364,-3.408,-9.237,-0.486,-3.57,2.45,1.75,0.7
,-9.335,-0.359,-3.424,-9.261,-0.443,-3.661,2.03,1.82,0.63
2044.0,-9.227,-0.436,-3.704,-9.249,-0.62,-3.446,1.4,1.19,0.42
,-9.196,-0.428,-3.692,-9.282,-0.483,-3.455,1.19,1.12,0.35
,-9.203,-0.675,-3.628,-9.332,-0.357,-3.372,1.19,0.84,0.35
,-9.167,-0.684,-3.561,-9.332,-0.29,-3.345,2.38,0.77,0.63
2120.0,-9.301,-0.316,-3.348,-9.33,-0.397,-3.561,2.45,1.19,0.56
,-9.284,-0.38,-3.369,-9.229,-0.38,-3.62,2.03,1.4,0.49
,-9.273,-0.433,-3.384,-9.215,-0.392,-3.752,2.1,1.4,0.42
,-9.325,-0.385,-3.467,-9.215,-0.481,-3.805,2.03,1.33,0.28
2196.0,-9.206,-0.491,-3.75,-9.308,-0.426,-3.276,2.52,0.49,0.21
,-9.194,-0.445,-3.664,-9.318,-0.481,-3.242,3.01,0.49,0.35
,-9.249,-0.558,-3.534,-9.306,-0.555,-3.171,3.22,0.35,0.56
,-9.313,-0.491,-3.422,-9.351,-0.562,-3.156,3.64,0.35,0.63
2271.0,-9.275,-0.467,-3.199,-9.32,-0.392,-3.448,2.87,1.82,0.77
,-9.275,-0.538,-3.139,-9.246,-0.416,-3.637,2.73,2.24,0.91
,-9.337,-0.512,-3.23,-9.217,-0.385,-3.709,2.87,2.52,0.98
,-9.323,-0.38,-3.367,-9.222,-0.376,-3.762,2.73,2.73,0.84
2347.0,-9.237,-0.371,-3.764,-9.256,-0.526,-3.463,1.89,1.89,0.42
,-9.191,-0.306,-3.769,-9.289,-0.474,-3.398,2.1,1.61,0.42
,-9.237,-0.469,-3.68,-9.33,-0.436,-3.434,1.68,1.26,0.49
,-9.253,-0.543,-3.503,-9.282,-0.409,-3.408,2.17,1.26,0.56
2422.0,-9.316,-0.455,-3.443,-9.28,-0.514,-3.446,1.4,1.4,0.35
,-9.289,-0.522,-3.501,-9.251,-0.495,-3.527,1.47,1.61,0.42
,-9.253,-0.483,-3.525,-9.265,-0.526,-3.431,1.75,1.82,0.56
,-9.241,-0.524,-3.302,-9.246,-0.479,-3.446,1.75,1.82,0.7
2498.0,-9.287,-0.512,-3.51,-9.249,-0.436,-3.652,3.08,1.96,0.77
,-9.244,-0.345,-3.587,-9.222,-0.464,-3.69,4.06,2.17,0.84
,-9.323,-0.383,-3.534,-9.232,-0.56,-3.625,3.08,2.17,0.84
,-9.277,-0.455,-3.532,-9.196,-0.715,-3.587,2.45,1.96,0.7
2574.0,-9.222,-0.637,-3.573,-9.311,-0.359,-3.419,2.24,1.68,0.98
,-9.265,-0.5,-3.501,-9.301,-0.471,-3.455,3.22,1.61,1.05
,-9.335,-0.419,-3.465,-9.261,-0.483,-3.424,3.5,1.68,1.12
,-9.328,-0.342,-3.393,-9.282,-0.438,-3.518,3.29,1.82,1.12
2650.0,-9.251,-0.45,-3.597,-9.232,-0.505,-3.561,2.59,1.82,0.84
,-9.246,-0.421,-3.573,-9.256,-0.462,-3.498,2.03,1.96,0.84
,-9.234,-0.464,-3.565,-9.289,-0.409,-3.489,1.75,2.1,0.98
,-9.227,-0.483,-3.613,-9.287,-0.436,-3.408,1.82,1.82,0.84
2726.0,-9.313,-0.45,-3.41,-9.277,-0.402,-3.522,1.4,2.31,0.91
,-9.289,-0.479,-3.405,-9.265,-0.438,-3.573,1.33,2.38,0.91
,-9.308,-0.474,-3.412,-9.299,-0.457,-3.597,1.19,2.31,0.77
,-9.258,-0.488,-3.477,-9.268,-0.436,-3.707,1.19,2.73,0.91
2801.0,-9.263,-0.373,-3.752,-9.213,-0.428,-3.697,1.75,2.38,0.63
,-9.22,-0.392,-3.812,-9.198,-0.493,-3.527,1.75,1.96,0.56
,-9.229,-0.438,-3.764,-9.268,-0.617,-3.453,1.75,1.68,0.63
,-9.194,-0.44,-3.778,-9.256,-0.593,-3.36,1.96,1.54,0.49
2877.0,-9.296,-0.531,-3.364,-9.263,-0.325,-3.637,4.06,1.89,1.19
,-9.292,-0.546,-3.384,-9.208,-0.457,-3.575,3.99,2.31,1.19
,-9.323,-0.392,-3.534,-9.203,-0.481,-3.573,3.71,2.45,1.26
,-9.229,-0.409,-3.515,-9.251,-0.462,-3.666,3.29,2.24,1.12
2953.0,-9.201,-0.414,-3.568,-9.33,-0.369,-3.537,2.73,1.89,0.91
,-9.294,-0.4,-3.515,-9.241,-0.553,-3.561,3.01,1.96,0.98
,-9.296,-0.388,-3.491,-9.189,-0.625,-3.546,2.94,1.96,0.91
,-9.273,-0.414,-3.503,-9.222,-0.598,-3.63,3.01,1.96,0.91
3029.0,-9.225,-0.447,-3.628,-9.217,-0.407,-3.623,2.66,2.03,0.98
,-9.249,-0.459,-3.647,-9.268,-0.388,-3.604,2.59,2.03,0.91
,-9.244,-0.345,-3.69,-9.239,-0.426,-3.57,2.8,1.96,0.91
,-9.249,-0.364,-3.709,-9.258,-0.404,-3.558,2.45,1.89,0.91
3104.0,-9.273,-0.471,-3.51,-9.179,-0.586,-3.609,2.45,1.54,0.84
,-9.289,-0.436,-3.527,-9.256,-0.663,-3.616,2.1,1.54,0.7
,-9.189,-0.452,-3.601,-9.256,-0.608,-3.604,1.26,1.4,0.56
,-9.184,-0.462,-3.563,-9.261,-0.488,-3.532,0.63,1.4,0.35
3180.0,-9.275,-0.34,-3.532,-9.22,-0.462,-3.764,5.25,1.89,1.82
,-9.28,-0.237,-3.544,-9.191,-0.476,-3.764,5.46,1.96,1.82
,-9.258,-0.335,-3.606,-9.203,-0.364,-3.738,4.62,1.82,1.61
,-9.232,-0.419,-3.589,-9.182,-0.436,-3.628,3.85,1.54,1.26
3255.0,-9.225,-0.402,-3.625,-9.237,-0.459,-3.582,2.66,1.33,0.7
,-9.239,-0.378,-3.623,-9.201,-0.438,-3.542,2.45,1.12,0.63
,-9.249,-0.407,-3.594,-9.22,-0.416,-3.53,2.38,1.19,0.56
,-9.249,-0.352,-3.652,-9.251,-0.438,-3.477,2.24,1.12,0.42
3331.0,-9.277,-0.38,-3.458,-9.253,-0.455,-3.618,3.01,1.33,0.56
,-9.299,-0.385,-3.46,-9.234,-0.409,-3.676,2.87,1.33,0.42
,-9.292,-0.426,-3.518,-9.206,-0.431,-3.745,2.59,1.47,0.42
,-9.232,-0.464,-3.57,-9.208,-0.443,-3.769,2.52,1.75,0.42
3407.0,-9.215,-0.5,-3.764,-9.208,-0.404,-3.704,2.38,0.84,0.07
,-9.179,-0.507,-3.702,-9.234,-0.443,-3.654,2.87,0.84,0.28
,-9.225,-0.409,-3.757,-9.215,-0.538,-3.628,3.36,0.77,0.35
,-9.261,-0.354,-3.707,-9.244,-0.474,-3.537,3.43,0.49,0.28
3483.0,-9.33,-0.546,-3.563,-9.263,-0.51,-3.479,3.22,0.14,0.42
,-9.282,-0.445,-3.463,-9.189,-0.507,-3.486,3.43,0.49,0.49
,-9.296,-0.519,-3.565,-9.217,-0.407,-3.479,3.22,0.56,0.49
,-9.246,-0.419,-3.384,-9.287,-0.519,-3.589,2.94,0.63,0.28
3558.0,-9.287,-0.428,-3.575,-9.191,-0.483,-3.647,1.96,0.98,-0.07
,-9.215,-0.426,-3.503,-9.227,-0.572,-3.673,1.68,0.91,-0.14
,-9.287,-0.385,-3.551,-9.213,-0.591,-3.647,1.47,1.19,-0.21
,-9.277,-0.529,-3.618,-9.225,-0.608,-3.628,1.33,1.12,-0.28
3634.0,-9.206,-0.574,-3.625,-9.289,-0.491,-3.642,3.36,0.91,0.35
,-9.21,-0.543,-3.565,-9.232,-0.431,-3.616,3.78,1.12,0.63
,-9.249,-0.541,-3.587,-9.222,-0.459,-3.644,4.06,1.12,0.63
,-9.27,-0.45,-3.616,-9.213,-0.452,-3.57,4.2,0.91,0.63
3709.0,-9.251,-0.467,-3.534,-9.301,-0.56,-3.546,2.87,0.56,0.63
,-9.256,-0.45,-3.577,-9.27,-0.488,-3.532,2.94,0.77,0.77
,-9.246,-0.471,-3.498,-9.225,-0.462,-3.525,3.01,0.63,0.7
,-9.208,-0.505,-3.494,-9.239,-0.479,-3.489,2.8,0.7,0.84
3785.0,-9.258,-0.572,-3.534,-9.263,-0.378,-3.573,2.94,1.05,0.84
,-9.241,-0.536,-3.486,-9.241,-0.438,-3.63,3.01,1.19,0.91
,-9.22,-0.505,-3.494,-9.213,-0.483,-3.51,3.08,1.05,0.7
,-9.232,-0.431,-3.558,-9.229,-0.503,-3.64,3.29,1.26,0.84
3861.0,-9.263,-0.445,-3.604,-9.273,-0.476,-3.534,3.29,0.91,0.7
,-9.301,-0.476,-3.479,-9.215,-0.517,-3.522,3.01,0.91,0.56
,-9.27,-0.409,-3.494,-9.222,-0.514,-3.618,3.08,0.98,0.42
,-9.258,-0.392,-3.549,-9.229,-0.452,-3.606,2.8,0.98,0.42
3937.0,-9.268,-0.474,-3.573,-9.273,-0.601,-3.475,2.52,0.63,0.35
,-9.215,-0.505,-3.613,-9.251,-0.553,-3.506,2.52,0.63,0.42
,-9.241,-0.471,-3.561,-9.273,-0.536,-3.587,2.24,0.7,0.49
,-9.249,-0.627,-3.503,-9.244,-0.464,-3.563,2.24,0.84,0.49
4013.0,-9.213,-0.457,-3.563,-9.232,-0.577,-3.532,2.87,0.98,0.98
,-9.237,-0.476,-3.573,-9.22,-0.704,-3.51,2.52,0.91,0.77
,-9.304,-0.462,-3.503,-9.227,-0.687,-3.561,1.96,0.77,0.7
,-9.277,-0.483,-3.525,-9.28,-0.536,-3.513,1.47,0.77,0.63
4088.0,-9.261,-0.416,-3.482,-9.232,-0.445,-3.51,3.78,1.33,1.26
,-9.299,-0.392,-3.522,-9.249,-0.476,-3.453,2.94,1.05,1.26
,-9.299,-0.194,-3.436,-9.249,-0.579,-3.558,1.89,1.05,0.84
,-9.34,-0.426,-3.467,-9.237,-0.378,-3.558,0.98,1.19,0.56
4164.0,-9.301,-0.345,-3.592,-9.258,-0.531,-3.63,1.68,1.26,0.56
,-9.282,-0.426,-3.553,-9.215,-0.555,-3.592,0.84,1.12,0.28
,-9.27,-0.524,-3.544,-9.234,-0.447,-3.513,0.63,1.12,0.28
,-9.239,-0.503,-3.561,-9.27,-0.412,-3.446,1.19,1.05,0.28
4240.0,-9.342,-0.426,-3.46,-9.225,-0.562,-3.692,1.54,0.91,0.35
,-9.263,-0.503,-3.53,-9.162,-0.548,-3.671,0.98,0.84,0.14
,-9.229,-0.586,-3.537,-9.237,-0.541,-3.597,0.84,0.77,0.21
,-9.196,-0.558,-3.654,-9.213,-0.471,-3.479,0.98,0.84,0.35
4316.0,-9.344,-0.445,-3.446,-9.234,-0.572,-3.534,2.8,0.91,0.98
,-9.316,-0.433,-3.374,-9.222,-0.57,-3.537,2.52,0.77,1.05
,-9.289,-0.474,-3.491,-9.289,-0.412,-3.592,2.03,0.77,0.98
,-9.234,-0.55,-3.439,-9.311,-0.373,-3.577,1.89,1.05,0.98
4391.0,-9.268,-0.407,-3.616,-9.246,-0.55,-3.62,0.91,0.7,0.63
,-9.206,-0.51,-3.649,-9.237,-0.457,-3.585,0.56,0.63,0.63
,-9.215,-0.768,-3.647,-9.287,-0.364,-3.475,1.4,0.63,0.98
,-9.222,-0.656,-3.642,-9.273,-0.357,-3.405,3.5,0.7,1.54
4467.0,-9.316,-0.335,-3.388,-9.275,-0.321,-3.436,3.78,1.19,1.33
,-9.296,-0.471,-3.326,-9.277,-0.404,-3.443,3.29,1.4,1.19
,-9.304,-0.364,-3.357,-9.268,-0.426,-3.542,3.5,1.61,1.19
,-9.323,-0.273,-3.431,-9.232,-0.5,-3.539,3.01,1.54,0.98
4542.0,-9.196,-0.526,-3.553,-9.234,-0.495,-3.417,0.91,1.4,0.35
,-9.237,-0.507,-3.568,-9.239,-0.672,-3.525,1.33,1.47,0.42
,-9.253,-0.483,-3.503,-9.239,-0.605,-3.623,1.68,1.4,0.35
,-9.232,-0.419,-3.587,-9.241,-0.579,-3.625,1.33,1.26,0.35
4618.0,-9.251,-0.462,-3.606,-9.232,-0.514,-3.573,3.01,1.12,0.77
,-9.234,-0.419,-3.587,-9.249,-0.615,-3.616,3.08,0.98,0.63
,-9.229,-0.325,-3.606,-9.263,-0.474,-3.563,2.73,0.91,0.56
,-9.28,-0.493,-3.597,-9.304,-0.464,-3.455,2.45,0.7,0.49
4694.0,-9.287,-0.409,-3.453,-9.258,-0.481,-3.482,4.62,0.91,1.05
,-9.277,-0.349,-3.405,-9.196,-0.474,-3.53,4.34,0.98,0.91
,-9.258,-0.385,-3.453,-9.244,-0.325,-3.417,3.57,0.84,0.63
,-9.27,-0.412,-3.489,-9.328,-0.517,-3.408,3.01,0.84,0.49
4770.0,-9.265,-0.512,-3.439,-9.258,-0.55,-3.458,1.82,1.33,0.28
,-9.256,-0.558,-3.486,-9.282,-0.498,-3.522,1.33,1.12,0.14
,-9.241,-0.414,-3.491,-9.256,-0.526,-3.477,1.19,1.19,0.0
,-9.256,-0.522,-3.451,-9.292,-0.486,-3.467,0.63,1.4,-0.07
4846.0,-9.289,-0.431,-3.542,-9.275,-0.491,-3.714,2.73,1.75,0.56
,-9.232,-0.416,-3.611,-9.225,-0.376,-3.656,2.73,1.75,0.56
,-9.244,-0.452,-3.625,-9.273,-0.445,-3.618,2.45,1.68,0.49
,-9.191,-0.488,-3.606,-9.244,-0.543,-3.542,2.38,1.54,0.56
4921.0,-9.256,-0.605,-3.563,-9.292,-0.538,-3.427,2.38,0.84,0.49
,-9.246,-0.605,-3.522,-9.251,-0.536,-3.477,3.15,0.98,0.7
,-9.275,-0.488,-3.489,-9.296,-0.526,-3.415,3.57,1.12,0.77
,-9.273,-0.452,-3.458,-9.304,-0.541,-3.455,3.64,1.4,0.91
4997.0,-9.28,-0.553,-3.475,-9.189,-0.641,-3.628,2.73,1.47,0.84
,-9.265,-0.503,-3.491,-9.222,-0.603,-3.618,2.8,1.54,0.98
,-9.275,-0.44,-3.532,-9.27,-0.541,-3.644,2.59,1.61,0.98
,-9.261,-0.51,-3.575,-9.258,-0.392,-3.613,2.38,1.4,1.05
5073.0,-9.234,-0.45,-3.589,-9.237,-0.438,-3.527,3.92,1.26,1.26
,-9.273,-0.503,-3.534,-9.258,-0.438,-3.472,3.71,1.19,1.33
,-9.239,-0.522,-3.498,-9.261,-0.431,-3.458,3.85,1.05,1.4
,-9.229,-0.462,-3.467,-9.261,-0.436,-3.41,4.2,1.05,1.4
5149.0,-9.301,-0.452,-3.4,-9.229,-0.452,-3.604,3.08,1.54,1.05
,-9.299,-0.452,-3.376,-9.253,-0.488,-3.692,2.87,1.75,0.91
,-9.299,-0.416,-3.465,-9.182,-0.567,-3.687,2.66,1.82,0.77
,-9.299,-0.455,-3.546,-9.234,-0.526,-3.649,2.17,1.54,0.42
5224.0,-9.227,-0.438,-3.589,-9.325,-0.481,-3.486,2.31,1.12,0.63
,-9.256,-0.424,-3.57,-9.289,-0.524,-3.434,2.38,1.26,0.63
,-9.311,-0.445,-3.458,-9.249,-0.598,-3.467,1.96,0.98,0.42
,-9.265,-0.486,-3.408,-9.292,-0.517,-3.463,1.89,1.05,0.42
5300.0,-9.282,-0.486,-3.47,-9.308,-0.44,-3.477,3.01,1.68,0.91
,-9.249,-0.522,-3.41,-9.296,-0.397,-3.515,3.01,2.03,0.98
,-9.225,-0.601,-3.448,-9.258,-0.352,-3.577,2.87,2.03,1.05
,-9.249,-0.498,-3.446,-9.182,-0.445,-3.659,3.29,2.03,1.19
5375.0,-9.196,-0.555,-3.649,-9.287,-0.385,-3.508,1.05,1.96,0.56
,-9.225,-0.56,-3.652,-9.263,-0.486,-3.489,1.68,1.89,0.63
,-9.222,-0.479,-3.597,-9.287,-0.519,-3.506,2.38,1.82,0.63
,-9.251,-0.385,-3.575,-9.273,-0.507,-3.477,2.52,1.54,0.49
5451.0,-9.263,-0.464,-3.458,-9.206,-0.433,-3.632,2.31,1.82,0.56
,-9.273,-0.416,-3.513,-9.21,-0.486,-3.719,2.17,1.75,0.56
,-9.301,-0.426,-3.563,-9.241,-0.495,-3.704,1.75,1.61,0.42
,-9.253,-0.436,-3.609,-9.227,-0.526,-3.676,1.33,1.47,0.14
5527.0,-9.213,-0.526,-3.613,-9.273,-0.553,-3.599,1.89,0.7,0.07
,-9.232,-0.5,-3.546,-9.21,-0.459,-3.491,2.45,0.84,0.14
,-9.28,-0.517,-3.52,-9.301,-0.613,-3.453,2.87,0.84,0.28
,-9.253,-0.452,-3.51,-9.225,-0.613,-3.506,3.22,0.77,0.35
5603.0,-9.244,-0.474,-3.498,-9.301,-0.524,-3.367,2.59,0.98,0.63
,-9.277,-0.548,-3.496,-9.292,-0.467,-3.352,2.03,1.12,0.56
,-9.182,-0.72,-3.448,-9.301,-0.431,-3.338,2.38,1.33,0.84
,-9.208,-0.617,-3.453,-9.301,-0.44,-3.453,3.5,1.61,1.19
5678.0,-9.246,-0.452,-3.573,-9.201,-0.455,-3.762,2.94,1.96,1.12
,-9.246,-0.428,-3.678,-9.237,-0.366,-3.668,2.73,1.89,0.91
,-9.213,-0.459,-3.709,-9.282,-0.376,-3.628,2.38,1.75,0.84
,-9.177,-0.426,-3.79,-9.237,-0.443,-3.539,2.38,1.54,0.77
5754.0,-9.232,-0.538,-3.446,-9.275,-0.5,-3.439,2.31,0.7,0.42
,-9.316,-0.586,-3.439,-9.256,-0.493,-3.503,2.73,0.84,0.63
,-9.27,-0.548,-3.436,-9.256,-0.5,-3.508,3.15,1.05,0.77
,-9.323,-0.543,-3.415,-9.241,-0.51,-3.58,3.5,1.19,0.7
5830.0,-9.246,-0.474,-3.611,-9.191,-0.512,-3.637,2.66,1.54,0.63
,-9.249,-0.426,-3.642,-9.263,-0.531,-3.589,2.52,1.54,0.63
,-9.232,-0.469,-3.671,-9.287,-0.507,-3.565,2.1,1.26,0.56
,-9.201,-0.536,-3.668,-9.225,-0.476,-3.565,2.17,1.05,0.56
5906.0,-9.249,-0.524,-3.525,-9.268,-0.581,-3.451,3.36,0.84,0.84
,-9.229,-0.548,-3.546,-9.237,-0.534,-3.475,3.22,0.84,0.91
,-9.273,-0.589,-3.573,-9.28,-0.452,-3.508,3.08,0.7,0.91
,-9.261,-0.579,-3.477,-9.263,-0.483,-3.479,3.08,0.63,0.91
5982.0,-9.249,-0.433,-3.513,-9.275,-0.51,-3.508,3.99,1.26,1.05
,-9.277,-0.402,-3.513,-9.246,-0.526,-3.479,3.99,1.33,0.98
,-9.227,-0.493,-3.498,-9.234,-0.491,-3.503,3.57,1.26,0.91
,-9.239,-0.507,-3.503,-9.268,-0.522,-3.573,3.5,1.19,0.98
6057.0,-9.251,-0.436,-3.565,-9.217,-0.445,-3.463,3.71,1.54,0.98
,-9.275,-0.474,-3.577,-9.234,-0.471,-3.427,3.36,1.19,0.91
,-9.304,-0.443,-3.542,-9.227,-0.522,-3.472,3.08,1.4,0.77
,-9.237,-0.447,-3.544,-9.268,-0.524,-3.415,2.73,1.4,0.7
6133.0,-9.246,-0.519,-3.436,-9.263,-0.447,-3.568,2.03,1.82,0.49
,-9.287,-0.593,-3.453,-9.268,-0.416,-3.642,2.31,1.89,0.56
,-9.292,-0.546,-3.51,-9.22,-0.45,-3.683,2.45,2.1,0.63
,-9.263,-0.491,-3.486,-9.184,-0.471,-3.644,2.66,1.96,0.63
6208.0,-9.239,-0.474,-3.671,-9.27,-0.534,-3.501,2.24,1.33,0.28
,-9.246,-0.476,-3.635,-9.241,-0.584,-3.601,2.38,1.19,0.28
,-9.253,-0.5,-3.642,-9.251,-0.658,-3.551,2.17,1.26,0.21
,-9.27,-0.517,-3.513,-9.225,-0.641,-3.561,2.17,1.05,0.14
6284.0,-9.292,-0.555,-3.606,-9.22,-0.455,-3.589,3.01,1.19,0.42
,-9.194,-0.529,-3.58,-9.241,-0.503,-3.616,2.73,1.12,0.42
,-9.256,-0.555,-3.515,-9.189,-0.593,-3.577,2.52,1.05,0.49
,-9.27,-0.536,-3.563,-9.194,-0.603,-3.546,2.8,0.84,0.35
6360.0,-9.234,-0.622,-3.544,-9.318,-0.498,-3.336,3.71,0.84,0.98
,-9.306,-0.531,-3.47,-9.32,-0.555,-3.374,3.99,1.05,1.12
,-9.253,-0.522,-3.427,-9.27,-0.526,-3.429,3.92,0.91,1.19
,-9.277,-0.514,-3.369,-9.237,-0.486,-3.475,3.57,1.12,1.19
6436.0,-9.256,-0.5,-3.539,-9.227,-0.586,-3.549,1.61,1.61,0.84
,-9.284,-0.438,-3.563,-9.287,-0.526,-3.628,1.19,1.61,0.7
,-9.258,-0.503,-3.515,-9.232,-0.491,-3.687,0.77,1.82,0.7
,-9.217,-0.514,-3.513,-9.217,-0.447,-3.671,0.7,1.68,0.7
6511.0,-9.184,-0.526,-3.709,-9.256,-0.481,-3.609,1.61,1.19,0.84
,-9.167,-0.562,-3.661,-9.268,-0.455,-3.496,1.61,1.26,0.84
,-9.249,-0.5,-3.599,-9.253,-0.505,-3.443,2.03,1.12,0.91
,-9.289,-0.416,-3.58,-9.256,-0.524,-3.412,2.03,0.98,0.77
6587.0,-9.27,-0.479,-3.506,-9.232,-0.558,-3.652,2.66,1.12,0.77
,-9.265,-0.55,-3.491,-9.237,-0.495,-3.664,2.31,1.26,0.77
,-9.294,-0.572,-3.518,-9.206,-0.476,-3.628,2.24,1.12,0.77
,-9.284,-0.577,-3.62,-9.227,-0.493,-3.609,2.52,1.19,0.84
6662.0,-9.249,-0.469,-3.489,-9.258,-0.531,-3.506,2.73,0.63,0.98
,-9.251,-0.562,-3.508,-9.263,-0.469,-3.484,2.66,0.56,0.84
,-9.292,-0.538,-3.494,-9.301,-0.431,-3.527,2.94,0.63,0.84
,-9.287,-0.567,-3.467,-9.246,-0.455,-3.486,3.15,0.91,1.05
6738.0,-9.213,-0.536,-3.508,-9.234,-0.536,-3.534,1.26,0.77,0.35
,-9.227,-0.622,-3.534,-9.263,-0.474,-3.47,1.4,0.77,0.42
,-9.27,-0.632,-3.58,-9.277,-0.476,-3.446,1.61,0.91,0.63
,-9.227,-0.613,-3.558,-9.308,-0.45,-3.439,2.24,1.05,0.84
6814.0,-9.263,-0.512,-3.41,-9.227,-0.491,-3.503,1.26,1.19,0.63
,-9.256,-0.488,-3.455,-9.215,-0.558,-3.539,1.12,1.19,0.7
,-9.268,-0.498,-3.472,-9.229,-0.479,-3.546,0.91,1.33,0.7
,-9.244,-0.498,-3.463,-9.222,-0.546,-3.518,0.42,1.4,0.77
6890.0,-9.27,-0.593,-3.577,-9.251,-0.388,-3.63,1.05,1.4,0.98
,-9.22,-0.653,-3.58,-9.246,-0.354,-3.707,1.89,1.33,1.33
,-9.277,-0.548,-3.587,-9.22,-0.369,-3.64,2.8,1.54,1.47
,-9.33,-0.481,-3.668,-9.229,-0.373,-3.582,3.43,1.47,1.47
6966.0,-9.256,-0.383,-3.565,-9.249,-0.548,-3.491,3.08,0.84,1.05
,-9.225,-0.416,-3.508,-9.253,-0.526,-3.515,3.29,0.7,0.98
,-9.268,-0.452,-3.475,-9.21,-0.579,-3.501,3.22,0.7,1.12
,-9.32,-0.51,-3.498,-9.275,-0.546,-3.518,3.5,0.91,1.19
7041.0,-9.256,-0.457,-3.556,-9.277,-0.45,-3.553,2.59,0.91,0.63
,-9.273,-0.402,-3.573,-9.277,-0.491,-3.494,2.24,0.84,0.63
,-9.282,-0.428,-3.551,-9.263,-0.522,-3.467,1.96,0.7,0.56
,-9.244,-0.455,-3.544,-9.244,-0.51,-3.443,2.1,0.84,0.7
7117.0,-9.265,-0.524,-3.415,-9.296,-0.431,-3.498,3.57,1.12,1.12
,-9.27,-0.488,-3.448,-9.289,-0.493,-3.51,3.01,1.19,0.98
,-9.308,-0.512,-3.465,-9.253,-0.519,-3.513,2.38,1.26,0.84
,-9.284,-0.414,-3.489,-9.275,-0.486,-3.601,1.89,1.33,0.7
7193.0,-9.263,-0.558,-3.489,-9.296,-0.5,-3.52,0.98,1.33,0.7
,-9.22,-0.519,-3.508,-9.253,-0.483,-3.51,1.05,1.4,0.63
,-9.256,-0.471,-3.384,-9.249,-0.637,-3.573,0.98,1.4,0.56
,-9.308,-0.495,-3.446,-9.232,-0.512,-3.573,0.91,1.33,0.63
7269.0,-9.275,-0.476,-3.553,-9.249,-0.471,-3.599,2.8,1.54,1.12
,-9.273,-0.505,-3.542,-9.244,-0.447,-3.628,3.01,1.47,1.26
,-9.263,-0.469,-3.568,-9.215,-0.443,-3.618,3.15,1.4,1.26
,-9.277,-0.474,-3.542,-9.234,-0.392,-3.589,3.36,1.12,1.26
7344.0,-9.308,-0.421,-3.472,-9.249,-0.536,-3.374,3.99,1.26,1.19
,-9.296,-0.397,-3.479,-9.294,-0.548,-3.46,3.78,1.26,1.12
,-9.289,-0.438,-3.388,-9.299,-0.517,-3.412,3.43,1.12,1.05
,-9.239,-0.503,-3.388,-9.287,-0.479,-3.46,3.43,1.54,1.05
7420.0,-9.313,-0.445,-3.439,-9.213,-0.471,-3.716,2.94,1.96,0.7
,-9.337,-0.402,-3.491,-9.162,-0.471,-3.776,2.52,1.82,0.56
,-9.282,-0.361,-3.556,-9.196,-0.428,-3.721,2.24,1.82,0.49
,-9.206,-0.426,-3.632,-9.234,-0.414,-3.723,2.03,1.75,0.42
7495.0,-9.22,-0.392,-3.668,-9.328,-0.483,-3.376,3.5,0.77,0.42
,-9.217,-0.457,-3.647,-9.294,-0.479,-3.319,3.15,0.42,0.28
,-9.251,-0.565,-3.549,-9.342,-0.498,-3.321,3.29,0.42,0.21
,-9.265,-0.56,-3.441,-9.313,-0.558,-3.302,3.5,0.63,0.28
7571.0,-9.282,-0.579,-3.403,-9.313,-0.416,-3.573,2.8,1.4,0.49
,-9.239,-0.615,-3.477,-9.206,-0.45,-3.508,3.01,1.61,0.49
,-9.22,-0.562,-3.51,-9.28,-0.471,-3.498,3.43,1.61,0.49
,-9.292,-0.498,-3.551,-9.253,-0.498,-3.53,3.78,1.68,0.56
7647.0,-9.244,-0.471,-3.589,-9.246,-0.476,-3.575,3.43,1.4,0.56
,-9.249,-0.486,-3.585,-9.292,-0.495,-3.565,3.57,1.26,0.49
,-9.256,-0.457,-3.62,-9.256,-0.526,-3.496,3.43,1.26,0.42
,-9.232,-0.459,-3.599,-9.277,-0.455,-3.484,3.15,1.12,0.35
7723.0,-9.261,-0.433,-3.503,-9.241,-0.591,-3.484,3.36,0.98,0.28
,-9.282,-0.474,-3.539,-9.251,-0.608,-3.439,3.15,0.98,0.14
,-9.282,-0.467,-3.565,-9.234,-0.62,-3.343,2.87,0.84,0.07
,-9.237,-0.56,-3.491,-9.304,-0.581,-3.367,2.45,1.05,0.07
7799.0,-9.284,-0.555,-3.391,-9.249,-0.562,-3.558,2.31,1.54,0.28
,-9.32,-0.517,-3.446,-9.208,-0.498,-3.604,1.89,1.54,0.28
,-9.225,-0.534,-3.537,-9.249,-0.5,-3.587,2.03,1.61,0.28
,-9.237,-0.534,-3.57,-9.265,-0.519,-3.565,2.38,1.82,0.42
7874.0,-9.229,-0.567,-3.635,-9.251,-0.536,-3.434,3.29,1.4,0.7
,-9.256,-0.584,-3.613,-9.28,-0.491,-3.422,3.43,1.33,0.77
,-9.251,-0.579,-3.613,-9.296,-0.534,-3.408,3.57,1.33,0.84
,-9.227,-0.555,-3.527,-9.258,-0.574,-3.376,3.64,1.19,0.7
7950.0,-9.296,-0.526,-3.439,-9.203,-0.526,-3.63,2.87,1.61,0.84
,-9.306,-0.543,-3.51,-9.253,-0.534,-3.582,3.01,1.82,0.84
,-9.239,-0.579,-3.57,-9.258,-0.503,-3.551,2.94,1.82,0.7
,-9.201,-0.505,-3.601,-9.328,-0.469,-3.508,3.15,1.68,0.84
8026.0,-9.33,-0.486,-3.537,-9.21,-0.596,-3.539,2.59,1.33,0.7
,-9.253,-0.505,-3.532,-9.237,-0.493,-3.542,2.52,1.4,0.63
,-9.22,-0.565,-3.582,-9.306,-0.498,-3.532,2.59,1.26,0.7
,-9.198,-0.558,-3.597,-9.253,-0.483,-3.613,2.94,1.4,0.84
8102.0,-9.206,-0.565,-3.582,-9.263,-0.483,-3.412,2.94,0.98,0.63
,-9.201,-0.565,-3.62,-9.316,-0.462,-3.329,3.15,1.12,0.7
,-9.186,-0.553,-3.589,-9.34,-0.519,-3.36,3.36,1.05,0.7
,-9.253,-0.519,-3.518,-9.277,-0.617,-3.451,3.29,1.12,0.63
8177.0,-9.213,-0.567,-3.525,-9.277,-0.474,-3.616,1.96,1.33,0.49
,-9.229,-0.615,-3.642,-9.268,-0.507,-3.625,2.1,1.47,0.63
,-9.249,-0.629,-3.64,-9.261,-0.512,-3.616,2.52,1.33,0.7
,-9.275,-0.529,-3.642,-9.227,-0.519,-3.606,2.8,1.33,0.77
8253.0,-9.261,-0.543,-3.558,-9.275,-0.57,-3.422,3.22,1.05,0.77
,-9.244,-0.534,-3.465,-9.263,-0.584,-3.374,3.64,0.98,0.91
,-9.251,-0.531,-3.455,-9.296,-0.591,-3.441,3.57,1.19,0.98
,-9.313,-0.56,-3.372,-9.258,-0.558,-3.537,3.5,1.12,0.91
8329.0,-9.261,-0.519,-3.546,-9.273,-0.5,-3.503,1.75,1.26,0.56
,-9.227,-0.555,-3.58,-9.22,-0.534,-3.534,1.61,1.47,0.63
,-9.239,-0.495,-3.561,-9.277,-0.558,-3.465,1.61,1.47,0.63
,-9.253,-0.498,-3.525,-9.239,-0.605,-3.501,1.54,1.54,0.7
8405.0,-9.306,-0.603,-3.467,-9.258,-0.45,-3.513,3.92,1.82,1.19
,-9.268,-0.491,-3.534,-9.294,-0.656,-3.51,4.69,1.89,1.4
,-9.222,-0.436,-3.577,-9.229,-0.534,-3.611,4.62,1.89,1.33
,-9.289,-0.529,-3.609,-9.227,-0.369,-3.551,4.55,1.89,1.26
8480.0,-9.261,-0.388,-3.553,-9.251,-0.481,-3.455,4.48,1.4,0.77
,-9.311,-0.469,-3.439,-9.258,-0.529,-3.422,3.29,1.19,0.49
,-9.258,-0.553,-3.463,-9.251,-0.574,-3.453,2.8,1.26,0.42
,-9.263,-0.498,-3.446,-9.277,-0.581,-3.491,2.38,1.19,0.07
8556.0,-9.284,-0.562,-3.463,-9.249,-0.596,-3.565,1.12,1.75,-0.14
,-9.232,-0.603,-3.434,-9.234,-0.546,-3.687,1.54,1.89,0.14
,-9.34,-0.572,-3.494,-9.203,-0.503,-3.757,2.1,1.89,0.28
,-9.294,-0.555,-3.532,-9.203,-0.584,-3.716,2.45,2.03,0.35
8631.0,-9.215,-0.548,-3.687,-9.227,-0.553,-3.585,2.31,1.4,0.14
,-9.239,-0.471,-3.611,-9.232,-0.706,-3.417,2.24,1.33,0.28
,-9.287,-0.469,-3.589,-9.229,-0.739,-3.484,2.03,1.05,0.21
,-9.253,-0.493,-3.549,-9.241,-0.684,-3.551,2.1,1.05,0.21
8707.0,-9.239,-0.62,-3.53,-9.246,-0.579,-3.599,2.52,1.26,0.56
,-9.263,-0.593,-3.513,-9.208,-0.546,-3.565,2.73,1.26,0.63
,-9.263,-0.603,-3.53,-9.287,-0.493,-3.534,2.94,1.12,0.7
,-9.258,-0.517,-3.601,-9.301,-0.495,-3.525,3.36,1.19,0.91
8783.0,-9.284,-0.493,-3.489,-9.284,-0.56,-3.503,3.64,1.12,0.91
,-9.268,-0.507,-3.503,-9.256,-0.558,-3.486,3.22,0.91,0.77
,-9.263,-0.598,-3.467,-9.28,-0.503,-3.451,3.15,0.84,0.77
,-9.268,-0.577,-3.561,-9.268,-0.57,-3.422,3.29,1.05,0.77
8859.0,-9.263,-0.579,-3.479,-9.253,-0.553,-3.491,2.38,1.4,0.63
,-9.244,-0.567,-3.472,-9.256,-0.522,-3.558,2.38,1.47,0.56
,-9.234,-0.55,-3.51,-9.222,-0.538,-3.515,2.31,1.47,0.63
,-9.253,-0.591,-3.51,-9.208,-0.57,-3.52,2.38,1.54,0.7
8935.0,-9.261,-0.601,-3.549,-9.273,-0.572,-3.563,2.52,1.54,0.77
,-9.282,-0.608,-3.52,-9.227,-0.474,-3.597,2.59,1.68,0.84
,-9.261,-0.617,-3.537,-9.275,-0.505,-3.683,2.52,1.82,0.84
,-9.258,-0.581,-3.522,-9.265,-0.584,-3.704,2.59,1.89,0.84
9010.0,-9.239,-0.555,-3.692,-9.308,-0.629,-3.525,3.5,1.4,0.91
,-9.229,-0.543,-3.704,-9.251,-0.601,-3.525,3.92,1.33,0.98
,-9.215,-0.495,-3.671,-9.249,-0.519,-3.503,3.99,0.98,0.91
,-9.246,-0.541,-3.664,-9.256,-0.469,-3.486,3.92,0.84,0.91
9086.0,-9.261,-0.574,-3.415,-9.277,-0.577,-3.372,2.59,1.05,0.77
,-9.256,-0.586,-3.455,-9.273,-0.591,-3.393,2.38,1.12,0.56
,-9.273,-0.663,-3.415,-9.289,-0.471,-3.434,2.1,1.19,0.63
,-9.22,-0.677,-3.429,-9.292,-0.491,-3.525,2.31,1.26,0.7
9162.0,-9.217,-0.514,-3.599,-9.258,-0.546,-3.51,1.82,1.68,0.63
,-9.253,-0.581,-3.625,-9.287,-0.522,-3.589,1.89,1.89,0.77
,-9.229,-0.584,-3.63,-9.239,-0.546,-3.58,2.1,1.75,0.63
,-9.253,-0.589,-3.604,-9.241,-0.565,-3.601,2.31,1.61,0.7
9238.0,-9.225,-0.682,-3.656,-9.289,-0.464,-3.501,2.66,1.26,0.7
,-9.203,-0.591,-3.678,-9.246,-0.538,-3.506,3.15,1.33,0.84
,-9.244,-0.543,-3.611,-9.251,-0.622,-3.465,3.29,1.12,0.84
,-9.239,-0.493,-3.568,-9.265,-0.605,-3.455,2.94,1.05,0.7
9313.0,-9.261,-0.627,-3.467,-9.244,-0.579,-3.508,2.59,1.4,0.84
,-9.301,-0.579,-3.455,-9.225,-0.584,-3.518,2.38,1.33,0.77
,-9.277,-0.536,-3.443,-9.21,-0.617,-3.558,2.24,1.4,0.7
,-9.277,-0.543,-3.446,-9.275,-0.534,-3.551,1.96,1.61,0.7
9389.0,-9.232,-0.55,-3.532,-9.282,-0.581,-3.592,2.1,1.61,0.77
,-9.261,-0.529,-3.546,-9.232,-0.622,-3.647,1.96,1.68,0.84
,-9.246,-0.524,-3.51,-9.237,-0.534,-3.668,1.4,1.82,0.63
,-9.287,-0.589,-3.522,-9.234,-0.534,-3.697,0.98,1.54,0.49
9464.0,-9.239,-0.503,-3.647,-9.234,-0.531,-3.58,1.96,1.19,0.7
,-9.244,-0.553,-3.63,-9.213,-0.524,-3.537,1.75,1.26,0.77
,-9.265,-0.605,-3.534,-9.234,-0.55,-3.601,2.1,1.12,0.7
,-9.241,-0.55,-3.546,-9.241,-0.55,-3.592,2.66,1.19,0.91
9540.0,-9.256,-0.558,-3.549,-9.294,-0.548,-3.419,2.8,0.91,0.91
,-9.208,-0.579,-3.503,-9.296,-0.61,-3.453,2.59,0.98,0.98
,-9.282,-0.608,-3.455,-9.251,-0.591,-3.587,2.45,0.91,0.91
,-9.284,-0.529,-3.451,-9.208,-0.586,-3.575,2.17,1.05,0.77
9616.0,-9.206,-0.608,-3.585,-9.28,-0.471,-3.542,1.89,1.05,1.12
,-9.268,-0.579,-3.589,-9.246,-0.526,-3.565,2.45,1.33,1.19
,-9.258,-0.476,-3.508,-9.201,-0.627,-3.623,2.52,0.98,1.12
,-9.299,-0.491,-3.489,-9.201,-0.579,-3.666,2.38,0.98,0.98
9692.0,-9.263,-0.57,-3.68,-9.28,-0.562,-3.525,3.22,1.12,1.12
,-9.215,-0.565,-3.601,-9.287,-0.541,-3.475,3.08,0.7,1.05
,-9.258,-0.519,-3.522,-9.256,-0.55,-3.463,2.94,0.77,0.98
,-9.237,-0.534,-3.491,-9.229,-0.57,-3.539,2.73,0.77,0.84
9768.0,-9.268,-0.584,-3.448,-9.273,-0.519,-3.542,2.8,1.33,1.19
,-9.284,-0.529,-3.4,-9.217,-0.581,-3.62,2.8,1.33,1.12
,-9.275,-0.491,-3.431,-9.213,-0.553,-3.711,2.59,1.19,1.05
,-9.316,-0.443,-3.46,-9.232,-0.536,-3.728,2.24,1.19,0.91
