Timestamp,AccX,AccY,AccZ,GyroX,GyroY,GyroZ,MagnX,MagnY,MagnZ
0.0,-9.488,-0.218,-2.874,-9.481,-0.589,-3.135,-1.12,7.07,-0.21
,-9.49,-0.483,-3.123,-9.593,-0.323,-3.108,-2.1,6.51,-0.21
,-9.521,-0.646,-3.242,-9.548,-0.072,-3.329,-1.75,5.95,-0.07
,-9.466,-0.751,-3.135,-9.552,-0.144,-2.95,0.21,5.53,0.56
76.0,-9.569,-0.378,-2.771,-9.593,-0.187,-2.63,3.36,2.8,1.12
,-9.555,-0.445,-2.692,-9.6,-0.057,-2.644,4.27,2.31,0.91
,-9.505,-0.385,-2.635,-9.548,-0.287,-2.386,5.95,2.03,1.26
,-9.531,-0.285,-2.639,-9.634,-0.335,-2.419,6.93,2.03,1.33
152.0,-9.622,-0.299,-2.57,-9.497,-0.261,-2.685,5.39,2.59,1.12
,-9.529,-0.189,-2.57,-9.493,-0.311,-2.654,5.32,2.87,1.05
,-9.521,-0.127,-2.608,-9.591,-0.369,-2.728,4.48,3.01,1.12
,-9.538,-0.175,-2.63,-9.605,-0.366,-2.728,3.71,3.08,0.91
227.0,-9.512,-0.316,-2.649,-9.548,-0.354,-2.706,3.5,2.94,0.84
,-9.576,-0.206,-2.651,-9.519,-0.601,-2.642,3.71,2.94,0.77
,-9.591,-0.16,-2.678,-9.5,-0.603,-2.623,3.08,3.01,0.63
,-9.545,-0.215,-2.606,-9.541,-0.443,-2.67,2.38,3.15,0.63
302.0,-9.627,-0.302,-2.608,-9.552,-0.239,-2.568,5.74,3.15,1.12
,-9.598,-0.175,-2.63,-9.538,-0.407,-2.419,5.11,3.15,0.98
,-9.576,-0.098,-2.627,-9.552,-0.474,-2.508,3.78,3.15,0.84
,-9.557,-0.136,-2.613,-9.576,-0.486,-2.496,2.17,3.01,0.63
378.0,-9.586,-0.392,-2.498,-9.555,-0.354,-2.752,1.26,3.99,0.7
,-9.514,-0.385,-2.606,-9.579,-0.445,-2.783,1.61,3.92,0.84
,-9.55,-0.268,-2.663,-9.569,-0.452,-2.838,1.47,4.2,0.84
,-9.533,-0.28,-2.694,-9.569,-0.634,-2.637,1.19,4.2,0.91
454.0,-9.524,-0.345,-2.907,-9.433,-0.426,-3.159,0.98,3.71,1.12
,-9.543,-0.156,-3.003,-9.416,-0.61,-2.936,1.26,3.22,1.12
,-9.521,-0.175,-3.061,-9.512,-0.617,-2.982,0.42,3.01,0.98
,-9.476,-0.213,-3.13,-9.564,-0.359,-2.891,-0.84,2.87,0.91
530.0,-9.56,-0.156,-2.86,-9.481,-0.526,-2.644,2.66,1.26,1.54
,-9.56,-0.06,-2.867,-9.562,-0.476,-2.606,1.47,1.19,1.4
,-9.502,-0.168,-2.795,-9.579,-0.313,-2.673,0.35,1.05,1.26
,-9.49,-0.412,-2.752,-9.533,-0.182,-2.651,0.28,1.05,1.26
605.0,-9.567,-0.112,-2.661,-9.526,-0.33,-2.639,3.5,1.47,1.82
,-9.521,-0.179,-2.678,-9.524,-0.268,-2.563,2.66,1.47,1.61
,-9.462,-0.225,-2.615,-9.555,-0.191,-2.601,2.1,1.61,1.4
,-9.517,-0.287,-2.728,-9.545,-0.156,-2.632,2.1,1.82,1.47
681.0,-9.572,-0.127,-2.68,-9.519,-0.22,-2.778,1.47,2.38,1.19
,-9.548,-0.223,-2.68,-9.555,-0.151,-2.793,0.84,2.52,1.12
,-9.495,-0.28,-2.769,-9.555,-0.177,-2.781,0.49,2.66,0.91
,-9.505,-0.282,-2.769,-9.485,-0.249,-2.781,0.7,2.59,1.05
757.0,-9.55,-0.33,-2.804,-9.488,-0.258,-2.783,1.33,2.31,0.77
,-9.531,-0.366,-2.864,-9.493,-0.263,-2.749,2.03,2.31,0.77
,-9.509,-0.335,-2.819,-9.512,-0.278,-2.742,2.73,2.03,0.91
,-9.517,-0.258,-2.824,-9.562,-0.235,-2.8,3.22,2.03,0.98
833.0,-9.543,-0.261,-2.793,-9.505,-0.29,-2.804,3.15,1.82,0.91
,-9.509,-0.285,-2.8,-9.519,-0.263,-2.769,3.15,1.89,1.12
,-9.471,-0.287,-2.809,-9.529,-0.218,-2.776,3.29,1.96,1.05
,-9.497,-0.29,-2.819,-9.471,-0.285,-2.816,3.36,1.82,1.12
909.0,-9.478,-0.404,-2.809,-9.5,-0.17,-2.761,2.31,1.61,0.98
,-9.509,-0.438,-2.821,-9.505,-0.232,-2.778,3.15,1.82,1.26
,-9.533,-0.354,-2.814,-9.512,-0.266,-2.735,4.06,1.61,1.33
,-9.552,-0.23,-2.876,-9.505,-0.292,-2.761,4.2,1.4,1.33
984.0,-9.509,-0.282,-2.699,-9.521,-0.208,-2.735,3.01,1.47,1.12
,-9.536,-0.258,-2.649,-9.497,-0.278,-2.745,3.15,1.54,1.05
,-9.533,-0.11,-2.678,-9.469,-0.278,-2.766,3.08,1.75,1.05
,-9.576,-0.112,-2.659,-9.442,-0.237,-2.766,2.17,1.75,1.05
1060.0,-9.505,-0.223,-2.766,-9.507,-0.414,-2.843,1.54,1.89,0.84
,-9.55,-0.196,-2.759,-9.548,-0.39,-2.838,1.33,1.75,0.98
,-9.512,-0.249,-2.874,-9.505,-0.29,-2.816,0.98,1.82,0.63
,-9.464,-0.34,-2.867,-9.514,-0.156,-2.881,0.56,1.75,0.63
1135.0,-9.581,-0.108,-2.862,-9.543,-0.337,-2.759,2.03,1.19,0.77
,-9.495,-0.182,-2.802,-9.567,-0.22,-2.797,1.61,1.26,0.7
,-9.519,-0.29,-2.819,-9.517,-0.165,-2.759,1.54,1.26,0.63
,-9.5,-0.349,-2.735,-9.502,-0.168,-2.735,2.03,1.33,0.77
1211.0,-9.485,-0.268,-2.697,-9.526,-0.275,-2.769,2.17,1.4,0.77
,-9.519,-0.361,-2.716,-9.533,-0.218,-2.776,2.1,1.68,0.63
,-9.514,-0.402,-2.718,-9.529,-0.191,-2.74,2.38,1.61,0.7
,-9.514,-0.321,-2.769,-9.529,-0.156,-2.749,2.8,1.75,0.77
1287.0,-9.529,-0.144,-2.745,-9.507,-0.115,-2.745,1.54,1.75,0.49
,-9.526,-0.256,-2.771,-9.517,-0.146,-2.761,1.26,1.82,0.42
,-9.493,-0.27,-2.773,-9.524,-0.115,-2.79,1.33,1.82,0.14
,-9.521,-0.227,-2.764,-9.557,-0.249,-2.934,1.26,1.75,0.14
1363.0,-9.507,-0.227,-2.749,-9.557,-0.187,-2.783,-0.84,1.82,-0.35
,-9.567,-0.244,-2.819,-9.507,-0.285,-2.836,-0.07,1.75,-0.28
,-9.548,-0.163,-2.766,-9.423,-0.397,-2.773,0.98,1.75,-0.21
,-9.541,-0.153,-2.735,-9.526,-0.38,-2.804,1.47,1.82,-0.21
1438.0,-9.509,-0.397,-2.843,-9.514,-0.223,-2.726,2.38,1.75,-0.14
,-9.529,-0.455,-2.814,-9.469,-0.29,-2.682,2.31,1.68,0.0
,-9.509,-0.323,-2.737,-9.507,-0.285,-2.718,2.73,1.61,0.14
,-9.495,-0.28,-2.776,-9.526,-0.196,-2.793,2.8,1.82,0.14
1514.0,-9.538,-0.168,-2.809,-9.509,-0.354,-2.895,3.22,1.82,0.21
,-9.502,-0.17,-2.819,-9.521,-0.359,-2.917,2.94,1.89,0.07
,-9.452,-0.251,-2.852,-9.529,-0.304,-2.965,2.59,1.82,0.07
,-9.5,-0.369,-2.85,-9.45,-0.306,-2.91,2.52,1.68,0.14
1589.0,-9.469,-0.347,-2.919,-9.459,-0.349,-2.929,3.22,1.05,0.49
,-9.519,-0.261,-2.967,-9.517,-0.445,-2.924,3.78,0.84,0.35
,-9.541,-0.196,-2.943,-9.493,-0.431,-2.836,3.85,0.63,0.28
,-9.507,-0.246,-2.91,-9.502,-0.333,-2.747,3.57,0.49,0.28
1665.0,-9.543,-0.206,-2.718,-9.5,-0.337,-2.62,5.53,0.28,0.7
,-9.598,-0.101,-2.678,-9.531,-0.325,-2.704,4.48,0.28,0.56
,-9.562,-0.199,-2.618,-9.49,-0.28,-2.682,3.29,0.49,0.35
,-9.507,-0.263,-2.637,-9.474,-0.316,-2.711,2.59,0.63,0.35
1741.0,-9.531,-0.361,-2.697,-9.56,-0.292,-2.757,3.08,1.12,0.28
,-9.541,-0.333,-2.716,-9.519,-0.325,-2.752,3.15,1.05,0.35
,-9.529,-0.321,-2.733,-9.524,-0.299,-2.802,3.29,1.26,0.35
,-9.562,-0.282,-2.776,-9.521,-0.28,-2.804,3.01,1.4,0.35
1817.0,-9.507,-0.261,-2.737,-9.55,-0.304,-2.814,3.22,1.26,0.56
,-9.495,-0.323,-2.764,-9.488,-0.304,-2.804,3.15,1.19,0.49
,-9.543,-0.328,-2.749,-9.529,-0.349,-2.833,3.22,1.19,0.49
,-9.538,-0.302,-2.733,-9.447,-0.38,-2.855,3.22,1.05,0.35
1893.0,-9.533,-0.369,-2.903,-9.529,-0.299,-2.807,2.73,1.05,0.7
,-9.474,-0.359,-2.821,-9.538,-0.237,-2.776,3.15,0.98,0.7
,-9.502,-0.419,-2.852,-9.557,-0.311,-2.776,3.5,0.84,0.84
,-9.543,-0.325,-2.824,-9.505,-0.34,-2.754,3.92,0.7,0.98
1968.0,-9.5,-0.373,-2.752,-9.538,-0.345,-2.781,3.15,0.49,0.91
,-9.474,-0.313,-2.754,-9.581,-0.342,-2.754,3.5,0.35,0.91
,-9.557,-0.321,-2.761,-9.555,-0.361,-2.804,3.71,0.28,0.91
,-9.512,-0.297,-2.754,-9.476,-0.239,-2.783,3.64,0.42,0.91
2044.0,-9.533,-0.285,-2.737,-9.55,-0.225,-2.508,3.22,0.14,0.7
,-9.497,-0.333,-2.682,-9.538,-0.184,-2.515,2.94,0.07,0.7
,-9.557,-0.337,-2.584,-9.555,-0.194,-2.539,3.08,0.28,0.77
,-9.581,-0.28,-2.601,-9.538,-0.256,-2.592,3.22,0.56,0.77
2120.0,-9.524,-0.328,-2.623,-9.514,-0.232,-2.757,1.96,1.4,0.56
,-9.493,-0.373,-2.702,-9.564,-0.242,-2.709,2.66,1.54,0.7
,-9.533,-0.361,-2.718,-9.569,-0.242,-2.778,3.43,1.54,0.7
,-9.529,-0.299,-2.74,-9.56,-0.29,-2.883,3.92,1.54,0.77
2196.0,-9.533,-0.316,-2.828,-9.567,-0.376,-2.778,2.31,1.26,0.42
,-9.488,-0.313,-2.804,-9.543,-0.383,-2.761,2.59,1.19,0.42
,-9.529,-0.345,-2.802,-9.536,-0.45,-2.759,2.73,1.47,0.42
,-9.538,-0.309,-2.749,-9.538,-0.433,-2.8,2.66,1.47,0.63
2271.0,-9.55,-0.419,-2.747,-9.555,-0.311,-2.673,2.94,0.91,0.84
,-9.529,-0.306,-2.737,-9.545,-0.385,-2.666,3.43,1.05,0.98
,-9.548,-0.256,-2.735,-9.579,-0.402,-2.647,3.43,0.91,1.05
,-9.517,-0.273,-2.723,-9.548,-0.325,-2.706,3.22,0.98,0.98
2347.0,-9.574,-0.294,-2.651,-9.552,-0.323,-2.718,4.27,1.33,1.19
,-9.524,-0.294,-2.651,-9.541,-0.445,-2.697,4.06,1.4,1.12
,-9.557,-0.256,-2.644,-9.524,-0.323,-2.733,3.57,1.4,1.05
,-9.555,-0.266,-2.67,-9.552,-0.163,-2.802,2.87,1.33,0.84
2422.0,-9.564,-0.117,-2.716,-9.521,-0.414,-2.745,2.03,1.4,0.56
,-9.533,-0.191,-2.737,-9.493,-0.383,-2.718,0.98,1.54,0.49
,-9.552,-0.29,-2.723,-9.524,-0.335,-2.749,0.42,1.4,0.28
,-9.555,-0.369,-2.764,-9.524,-0.27,-2.728,0.49,1.33,0.21
2498.0,-9.55,-0.275,-2.73,-9.552,-0.369,-2.723,2.52,1.4,0.7
,-9.552,-0.316,-2.721,-9.5,-0.397,-2.68,2.66,1.26,0.63
,-9.574,-0.321,-2.73,-9.526,-0.402,-2.711,2.59,0.91,0.49
,-9.512,-0.328,-2.702,-9.526,-0.345,-2.723,2.59,1.19,0.7
2574.0,-9.514,-0.275,-2.766,-9.519,-0.342,-2.812,3.22,1.05,0.77
,-9.543,-0.27,-2.716,-9.507,-0.34,-2.788,2.87,1.12,0.84
,-9.517,-0.29,-2.773,-9.514,-0.392,-2.776,2.59,1.19,0.84
,-9.538,-0.345,-2.769,-9.509,-0.323,-2.747,2.59,1.05,0.84
2650.0,-9.529,-0.294,-2.702,-9.555,-0.352,-2.62,3.99,0.63,1.05
,-9.567,-0.244,-2.659,-9.562,-0.397,-2.625,3.78,0.77,1.12
,-9.517,-0.258,-2.651,-9.514,-0.345,-2.627,3.36,0.77,0.98
,-9.548,-0.287,-2.601,-9.543,-0.28,-2.546,3.01,0.91,0.98
2725.0,-9.56,-0.239,-2.584,-9.533,-0.419,-2.642,3.57,1.47,1.05
,-9.555,-0.254,-2.62,-9.538,-0.409,-2.625,3.15,1.4,0.91
,-9.545,-0.309,-2.611,-9.572,-0.302,-2.651,2.8,1.61,0.98
,-9.483,-0.333,-2.639,-9.562,-0.175,-2.63,2.66,1.89,1.05
2801.0,-9.557,-0.132,-2.685,-9.507,-0.335,-2.838,2.38,1.89,0.77
,-9.536,-0.223,-2.663,-9.519,-0.323,-2.84,1.47,1.89,0.63
,-9.543,-0.268,-2.714,-9.541,-0.333,-2.769,1.05,1.96,0.56
,-9.567,-0.357,-2.771,-9.541,-0.297,-2.745,1.26,1.68,0.49
2877.0,-9.564,-0.29,-2.747,-9.512,-0.366,-2.654,2.45,1.47,0.49
,-9.552,-0.254,-2.613,-9.517,-0.359,-2.656,2.03,1.47,0.49
,-9.56,-0.337,-2.659,-9.514,-0.302,-2.644,1.54,1.68,0.63
,-9.512,-0.412,-2.613,-9.531,-0.313,-2.709,1.54,1.75,0.7
2953.0,-9.586,-0.304,-2.733,-9.536,-0.285,-2.754,2.52,2.03,0.77
,-9.55,-0.335,-2.721,-9.519,-0.371,-2.737,2.59,2.1,0.77
,-9.488,-0.299,-2.687,-9.502,-0.378,-2.678,2.73,2.1,0.84
,-9.509,-0.29,-2.73,-9.562,-0.311,-2.737,2.52,1.89,0.84
3029.0,-9.564,-0.179,-2.668,-9.524,-0.455,-2.79,2.73,1.89,0.77
,-9.564,-0.203,-2.745,-9.497,-0.481,-2.771,2.1,1.89,0.7
,-9.555,-0.242,-2.769,-9.56,-0.369,-2.766,1.47,1.75,0.63
,-9.519,-0.318,-2.771,-9.569,-0.261,-2.742,0.98,1.54,0.42
3104.0,-9.502,-0.213,-2.737,-9.533,-0.337,-2.745,2.73,1.47,0.63
,-9.533,-0.232,-2.733,-9.517,-0.357,-2.721,2.17,1.61,0.63
,-9.519,-0.292,-2.721,-9.543,-0.347,-2.74,1.89,1.33,0.42
,-9.526,-0.349,-2.783,-9.519,-0.285,-2.647,2.24,1.26,0.49
3180.0,-9.536,-0.318,-2.639,-9.538,-0.223,-2.709,3.36,1.33,0.77
,-9.524,-0.337,-2.661,-9.56,-0.199,-2.699,3.22,1.4,0.7
,-9.536,-0.357,-2.649,-9.519,-0.168,-2.733,3.36,1.61,0.98
,-9.531,-0.258,-2.702,-9.526,-0.249,-2.804,3.36,1.54,0.84
3255.0,-9.481,-0.354,-2.759,-9.55,-0.172,-2.723,2.03,1.33,0.49
,-9.469,-0.452,-2.702,-9.541,-0.244,-2.668,2.52,1.54,0.63
,-9.545,-0.395,-2.745,-9.483,-0.309,-2.702,3.15,1.61,0.7
,-9.541,-0.251,-2.73,-9.548,-0.34,-2.737,3.43,1.4,0.63
3331.0,-9.517,-0.433,-2.73,-9.557,-0.175,-2.659,1.75,1.33,0.42
,-9.521,-0.45,-2.68,-9.55,-0.254,-2.656,2.52,1.33,0.63
,-9.483,-0.347,-2.692,-9.545,-0.325,-2.611,3.5,1.47,0.77
,-9.531,-0.249,-2.644,-9.572,-0.321,-2.661,4.06,1.47,0.7
3407.0,-9.507,-0.366,-2.63,-9.5,-0.309,-2.723,3.08,1.89,0.7
,-9.531,-0.29,-2.697,-9.521,-0.345,-2.771,3.64,1.89,0.77
,-9.531,-0.273,-2.711,-9.543,-0.388,-2.769,3.64,1.96,0.7
,-9.536,-0.28,-2.747,-9.521,-0.402,-2.826,3.08,1.75,0.49
3483.0,-9.536,-0.416,-2.776,-9.538,-0.251,-2.747,3.29,1.82,0.91
,-9.517,-0.404,-2.793,-9.536,-0.292,-2.718,3.71,1.61,0.91
,-9.49,-0.311,-2.749,-9.548,-0.378,-2.714,4.06,1.4,0.84
,-9.543,-0.254,-2.728,-9.49,-0.364,-2.709,4.2,1.4,0.84
3558.0,-9.509,-0.395,-2.711,-9.541,-0.292,-2.685,3.92,1.54,0.84
,-9.517,-0.345,-2.697,-9.56,-0.309,-2.716,3.85,1.4,0.91
,-9.531,-0.318,-2.685,-9.519,-0.261,-2.68,3.57,1.61,0.98
,-9.526,-0.287,-2.675,-9.526,-0.364,-2.773,3.15,1.61,0.84
3634.0,-9.519,-0.407,-2.694,-9.548,-0.294,-2.721,2.24,1.68,0.7
,-9.466,-0.373,-2.74,-9.543,-0.225,-2.716,2.73,1.61,0.84
,-9.493,-0.347,-2.723,-9.536,-0.235,-2.718,3.01,1.89,0.98
,-9.579,-0.311,-2.699,-9.541,-0.323,-2.766,3.15,1.82,1.05
3709.0,-9.507,-0.4,-2.757,-9.497,-0.27,-2.8,2.38,1.68,0.77
,-9.533,-0.369,-2.804,-9.533,-0.352,-2.761,3.08,1.75,0.84
,-9.502,-0.325,-2.79,-9.517,-0.354,-2.764,3.22,1.61,0.84
,-9.509,-0.292,-2.816,-9.545,-0.357,-2.69,3.08,1.47,0.77
3785.0,-9.509,-0.369,-2.642,-9.552,-0.29,-2.623,2.8,1.4,0.91
,-9.55,-0.354,-2.613,-9.543,-0.285,-2.666,2.87,1.33,0.98
,-9.55,-0.376,-2.568,-9.552,-0.325,-2.73,3.01,1.47,0.84
,-9.541,-0.297,-2.625,-9.488,-0.404,-2.747,2.94,1.47,0.84
3861.0,-9.514,-0.323,-2.733,-9.569,-0.287,-2.726,2.8,1.75,0.98
,-9.529,-0.321,-2.754,-9.545,-0.275,-2.752,3.08,1.75,1.05
,-9.536,-0.292,-2.721,-9.536,-0.227,-2.694,2.8,1.82,1.12
,-9.548,-0.263,-2.697,-9.608,-0.246,-2.759,2.59,1.89,1.05
3937.0,-9.562,-0.215,-2.757,-9.538,-0.366,-2.532,2.1,1.68,0.77
,-9.564,-0.28,-2.793,-9.581,-0.211,-2.85,2.1,1.75,0.84
,-9.517,-0.4,-2.735,-9.509,-0.211,-2.804,2.03,1.68,0.84
,-9.564,-0.404,-2.733,-9.529,-0.316,-2.773,2.45,1.54,0.77
4013.0,-9.497,-0.443,-2.747,-9.538,-0.254,-2.69,1.05,1.47,0.63
,-9.529,-0.471,-2.785,-9.584,-0.206,-2.623,2.03,1.61,0.7
,-9.524,-0.4,-2.726,-9.552,-0.208,-2.67,2.94,1.68,0.98
,-9.531,-0.302,-2.723,-9.555,-0.266,-2.661,3.29,1.47,1.19
4088.0,-9.502,-0.297,-2.706,-9.505,-0.345,-2.742,1.47,1.68,0.63
,-9.545,-0.318,-2.726,-9.541,-0.321,-2.776,1.96,1.75,0.63
,-9.548,-0.359,-2.776,-9.567,-0.256,-2.781,2.38,1.68,0.77
,-9.524,-0.366,-2.769,-9.512,-0.22,-2.802,2.8,1.75,0.91
4164.0,-9.526,-0.287,-2.771,-9.474,-0.261,-2.668,1.75,1.47,0.56
,-9.538,-0.354,-2.749,-9.55,-0.333,-2.678,1.96,1.61,0.7
,-9.538,-0.371,-2.723,-9.502,-0.287,-2.704,2.52,1.33,0.7
,-9.564,-0.333,-2.742,-9.574,-0.302,-2.659,3.08,1.33,0.77
4240.0,-9.548,-0.306,-2.737,-9.512,-0.51,-2.63,1.89,1.61,0.7
,-9.493,-0.337,-2.726,-9.56,-0.357,-2.668,1.75,1.68,0.63
,-9.509,-0.392,-2.726,-9.567,-0.261,-2.685,1.82,1.54,0.56
,-9.555,-0.462,-2.709,-9.543,-0.168,-2.67,2.1,1.82,0.84
4316.0,-9.531,-0.254,-2.716,-9.464,-0.285,-2.541,1.89,2.03,0.91
,-9.548,-0.302,-2.737,-9.526,-0.258,-2.745,1.68,2.17,0.84
,-9.56,-0.297,-2.706,-9.603,-0.392,-2.726,1.68,2.17,0.84
,-9.519,-0.302,-2.709,-9.562,-0.251,-2.718,1.96,2.03,0.77
4391.0,-9.529,-0.263,-2.802,-9.493,-0.369,-2.927,1.4,2.52,0.7
,-9.469,-0.347,-2.864,-9.464,-0.342,-2.9,1.4,2.45,0.77
,-9.497,-0.369,-2.912,-9.564,-0.347,-2.804,1.82,2.31,0.7
,-9.483,-0.364,-2.962,-9.526,-0.27,-2.783,2.17,1.96,0.7
4467.0,-9.509,-0.184,-2.783,-9.493,-0.407,-2.759,2.8,1.54,0.7
,-9.543,-0.211,-2.795,-9.552,-0.373,-2.769,2.31,1.4,0.63
,-9.538,-0.304,-2.766,-9.543,-0.304,-2.79,2.03,1.26,0.63
,-9.49,-0.364,-2.773,-9.495,-0.27,-2.745,2.17,1.26,0.56
4542.0,-9.512,-0.246,-2.716,-9.502,-0.397,-2.728,3.01,1.26,0.84
,-9.545,-0.246,-2.752,-9.536,-0.407,-2.802,2.59,1.19,0.7
,-9.543,-0.292,-2.783,-9.514,-0.38,-2.735,2.24,1.05,0.7
,-9.512,-0.366,-2.802,-9.476,-0.328,-2.733,2.45,1.19,0.7
4618.0,-9.512,-0.354,-2.759,-9.521,-0.256,-2.793,3.5,1.26,1.12
,-9.524,-0.33,-2.692,-9.526,-0.199,-2.733,3.01,1.19,1.05
,-9.545,-0.349,-2.711,-9.502,-0.196,-2.778,2.87,1.19,1.12
,-9.596,-0.333,-2.742,-9.536,-0.211,-2.73,3.01,1.19,1.05
4694.0,-9.505,-0.292,-2.716,-9.545,-0.285,-2.692,2.66,1.26,0.98
,-9.548,-0.311,-2.706,-9.555,-0.335,-2.74,2.94,1.33,0.91
,-9.538,-0.311,-2.68,-9.478,-0.397,-2.702,3.15,1.33,0.91
,-9.541,-0.287,-2.651,-9.512,-0.385,-2.764,3.22,1.47,0.98
4770.0,-9.521,-0.33,-2.757,-9.56,-0.325,-2.666,2.8,1.33,0.7
,-9.521,-0.208,-2.788,-9.526,-0.285,-2.656,2.73,1.4,0.77
,-9.526,-0.17,-2.754,-9.564,-0.268,-2.716,2.24,1.4,0.77
,-9.545,-0.268,-2.721,-9.56,-0.285,-2.687,2.1,1.54,0.77
4845.0,-9.56,-0.302,-2.709,-9.586,-0.256,-2.812,2.31,1.75,0.63
,-9.533,-0.313,-2.709,-9.507,-0.29,-2.838,1.96,1.89,0.63
,-9.521,-0.313,-2.709,-9.485,-0.297,-2.821,1.82,1.68,0.56
,-9.56,-0.311,-2.759,-9.531,-0.333,-2.804,1.82,1.54,0.49
4921.0,-9.5,-0.285,-2.833,-9.526,-0.304,-2.783,2.45,1.4,0.49
,-9.507,-0.385,-2.797,-9.488,-0.309,-2.747,2.38,1.47,0.63
,-9.567,-0.383,-2.797,-9.509,-0.364,-2.735,2.87,1.33,0.7
,-9.55,-0.369,-2.773,-9.548,-0.366,-2.773,3.15,1.26,0.63
4997.0,-9.505,-0.431,-2.754,-9.533,-0.132,-2.687,2.87,1.12,0.77
,-9.478,-0.428,-2.742,-9.529,-0.187,-2.67,3.36,1.12,0.98
,-9.545,-0.347,-2.697,-9.555,-0.285,-2.702,3.92,1.26,1.05
,-9.564,-0.182,-2.728,-9.538,-0.323,-2.714,4.06,1.4,1.05
5073.0,-9.533,-0.325,-2.666,-9.497,-0.323,-2.635,2.94,1.4,0.7
,-9.485,-0.287,-2.606,-9.536,-0.357,-2.649,3.43,1.47,0.63
,-9.55,-0.251,-2.692,-9.555,-0.361,-2.711,3.15,1.61,0.7
,-9.526,-0.254,-2.649,-9.526,-0.29,-2.752,2.59,1.61,0.56
5149.0,-9.507,-0.311,-2.783,-9.541,-0.266,-2.781,2.45,1.89,0.7
,-9.531,-0.306,-2.773,-9.555,-0.263,-2.8,2.66,1.75,0.63
,-9.509,-0.306,-2.852,-9.524,-0.311,-2.781,2.66,1.68,0.56
,-9.478,-0.275,-2.816,-9.49,-0.282,-2.714,2.66,1.61,0.63
5224.0,-9.576,-0.285,-2.714,-9.533,-0.383,-2.659,2.1,1.54,0.49
,-9.543,-0.354,-2.704,-9.536,-0.361,-2.706,2.1,1.47,0.35
,-9.502,-0.371,-2.682,-9.488,-0.287,-2.781,2.17,1.54,0.56
,-9.545,-0.392,-2.654,-9.543,-0.28,-2.733,2.24,1.75,0.63
5300.0,-9.545,-0.325,-2.74,-9.502,-0.297,-2.726,1.54,1.96,0.7
,-9.543,-0.333,-2.778,-9.529,-0.242,-2.692,1.82,2.17,0.77
,-9.591,-0.402,-2.745,-9.529,-0.232,-2.726,2.31,2.03,0.84
,-9.497,-0.323,-2.749,-9.55,-0.292,-2.8,3.01,2.1,0.91
5375.0,-9.521,-0.306,-2.759,-9.488,-0.34,-2.778,1.96,2.17,0.77
,-9.505,-0.38,-2.781,-9.485,-0.311,-2.771,1.89,2.03,0.7
,-9.483,-0.383,-2.848,-9.533,-0.309,-2.828,2.24,2.1,0.77
,-9.538,-0.359,-2.831,-9.521,-0.28,-2.845,2.38,1.96,0.77
5451.0,-9.493,-0.321,-2.848,-9.488,-0.29,-2.752,2.38,1.82,0.77
,-9.502,-0.316,-2.833,-9.552,-0.266,-2.733,2.66,1.54,0.84
,-9.49,-0.33,-2.833,-9.519,-0.251,-2.678,3.08,1.47,0.84
,-9.543,-0.345,-2.79,-9.519,-0.328,-2.702,3.29,1.12,0.77
5527.0,-9.5,-0.383,-2.685,-9.493,-0.266,-2.848,2.31,1.75,0.84
,-9.505,-0.369,-2.735,-9.435,-0.316,-2.814,2.52,1.75,0.84
,-9.576,-0.316,-2.776,-9.536,-0.357,-2.828,2.87,1.75,0.91
,-9.495,-0.244,-2.828,-9.536,-0.321,-2.812,2.8,1.54,0.77
5603.0,-9.572,-0.268,-2.778,-9.476,-0.33,-2.723,2.8,1.54,0.84
,-9.517,-0.249,-2.757,-9.536,-0.299,-2.771,2.87,1.54,0.91
,-9.507,-0.302,-2.797,-9.531,-0.357,-2.733,2.73,1.54,0.91
,-9.524,-0.323,-2.769,-9.5,-0.306,-2.702,2.73,1.47,0.84
5678.0,-9.567,-0.258,-2.668,-9.478,-0.359,-2.711,2.73,1.68,0.77
,-9.538,-0.28,-2.673,-9.519,-0.333,-2.709,2.52,1.82,0.77
,-9.514,-0.285,-2.659,-9.533,-0.246,-2.742,2.17,1.68,0.7
,-9.524,-0.318,-2.675,-9.507,-0.211,-2.828,1.96,1.68,0.7
5754.0,-9.519,-0.203,-2.821,-9.512,-0.419,-2.776,1.61,1.75,0.63
,-9.49,-0.239,-2.831,-9.536,-0.347,-2.735,1.12,1.75,0.49
,-9.474,-0.357,-2.802,-9.562,-0.275,-2.68,1.12,1.82,0.49
,-9.524,-0.471,-2.843,-9.531,-0.218,-2.704,1.68,1.68,0.56
5830.0,-9.519,-0.302,-2.776,-9.533,-0.335,-2.869,1.54,1.61,0.56
,-9.502,-0.395,-2.831,-9.538,-0.151,-2.869,1.26,1.61,0.63
,-9.442,-0.524,-2.84,-9.526,-0.12,-2.869,1.75,1.33,0.7
,-9.438,-0.522,-2.816,-9.521,-0.208,-2.79,2.94,1.54,0.91
5906.0,-9.55,-0.302,-2.845,-9.512,-0.203,-2.764,1.82,1.19,0.77
,-9.493,-0.361,-2.797,-9.529,-0.256,-2.706,2.38,1.12,0.77
,-9.462,-0.275,-2.826,-9.555,-0.318,-2.678,3.22,1.12,0.77
,-9.509,-0.201,-2.8,-9.505,-0.294,-2.632,3.64,1.19,0.77
5981.0,-9.497,-0.275,-2.644,-9.507,-0.378,-2.749,2.66,1.33,0.63
,-9.519,-0.242,-2.618,-9.507,-0.404,-2.745,2.31,1.54,0.63
,-9.555,-0.304,-2.704,-9.509,-0.304,-2.771,1.89,1.54,0.42
,-9.536,-0.342,-2.714,-9.543,-0.297,-2.79,1.75,1.82,0.56
6057.0,-9.488,-0.282,-2.845,-9.457,-0.318,-2.785,2.45,2.03,0.77
,-9.495,-0.275,-2.838,-9.526,-0.28,-2.816,2.24,1.75,0.7
,-9.521,-0.325,-2.795,-9.538,-0.311,-2.776,2.38,1.75,0.63
,-9.557,-0.316,-2.795,-9.512,-0.352,-2.735,2.52,1.61,0.63
6133.0,-9.524,-0.38,-2.747,-9.495,-0.27,-2.761,2.8,1.68,0.91
,-9.505,-0.424,-2.723,-9.476,-0.321,-2.783,3.01,1.47,0.84
,-9.584,-0.282,-2.757,-9.55,-0.388,-2.816,3.15,1.68,0.84
,-9.541,-0.242,-2.769,-9.485,-0.395,-2.828,2.87,1.61,0.84
6208.0,-9.483,-0.397,-2.759,-9.557,-0.299,-2.67,3.01,1.54,0.98
,-9.531,-0.325,-2.718,-9.567,-0.337,-2.666,3.36,1.54,0.98
,-9.545,-0.278,-2.714,-9.502,-0.34,-2.735,3.15,1.47,0.84
,-9.524,-0.218,-2.668,-9.488,-0.342,-2.74,2.52,1.68,0.84
6284.0,-9.517,-0.373,-2.749,-9.485,-0.309,-2.788,2.24,2.03,0.63
,-9.524,-0.258,-2.785,-9.521,-0.302,-2.742,2.45,1.96,0.7
,-9.497,-0.27,-2.804,-9.519,-0.342,-2.737,2.31,1.96,0.77
,-9.543,-0.278,-2.814,-9.55,-0.33,-2.757,1.96,1.96,0.7
6360.0,-9.545,-0.268,-2.761,-9.476,-0.39,-2.85,2.31,1.96,0.77
,-9.557,-0.254,-2.766,-9.462,-0.421,-2.874,2.1,1.89,0.7
,-9.512,-0.201,-2.891,-9.488,-0.306,-2.809,1.61,1.96,0.56
,-9.469,-0.337,-2.867,-9.521,-0.299,-2.819,1.47,1.82,0.63
6436.0,-9.509,-0.285,-2.814,-9.507,-0.366,-2.814,2.45,1.47,0.77
,-9.509,-0.321,-2.795,-9.474,-0.249,-2.773,2.03,1.4,0.77
,-9.505,-0.388,-2.836,-9.521,-0.244,-2.79,2.03,1.54,0.77
,-9.502,-0.373,-2.795,-9.545,-0.318,-2.771,2.52,1.47,0.91
6511.0,-9.49,-0.313,-2.793,-9.514,-0.256,-2.766,2.38,1.26,0.84
,-9.531,-0.302,-2.836,-9.562,-0.251,-2.79,2.66,1.12,0.84
,-9.517,-0.316,-2.778,-9.478,-0.273,-2.793,2.8,0.98,0.84
,-9.531,-0.297,-2.757,-9.495,-0.354,-2.766,2.87,1.05,0.77
6587.0,-9.526,-0.38,-2.776,-9.505,-0.249,-2.797,2.52,1.12,0.77
,-9.576,-0.318,-2.814,-9.543,-0.287,-2.812,2.87,1.26,0.84
,-9.509,-0.275,-2.761,-9.488,-0.361,-2.826,3.08,1.33,0.77
,-9.517,-0.29,-2.778,-9.485,-0.345,-2.826,2.94,1.26,0.91
6663.0,-9.533,-0.309,-2.8,-9.442,-0.191,-2.718,4.06,0.91,0.91
,-9.543,-0.239,-2.843,-9.519,-0.227,-2.759,4.27,0.91,0.91
,-9.541,-0.206,-2.8,-9.543,-0.266,-2.73,3.99,0.84,0.7
,-9.519,-0.223,-2.883,-9.469,-0.333,-2.67,3.99,0.7,0.7
6739.0,-9.541,-0.357,-2.694,-9.521,-0.16,-2.685,3.78,0.98,0.7
,-9.557,-0.299,-2.694,-9.521,-0.282,-2.697,4.06,1.05,0.63
,-9.593,-0.196,-2.699,-9.541,-0.39,-2.747,3.85,1.12,0.56
,-9.545,-0.144,-2.666,-9.505,-0.402,-2.761,3.08,1.12,0.35
6814.0,-9.457,-0.376,-2.752,-9.55,-0.333,-2.759,2.94,1.54,0.28
,-9.507,-0.292,-2.783,-9.557,-0.4,-2.728,3.36,1.54,0.35
,-9.507,-0.275,-2.797,-9.529,-0.424,-2.721,3.01,1.4,0.21
,-9.536,-0.246,-2.749,-9.545,-0.409,-2.752,2.38,1.47,0.28
6890.0,-9.493,-0.273,-2.709,-9.545,-0.428,-2.85,3.29,1.75,0.35
,-9.529,-0.299,-2.807,-9.533,-0.325,-2.857,2.87,1.75,0.42
,-9.497,-0.361,-2.824,-9.454,-0.333,-2.838,2.24,1.61,0.21
,-9.557,-0.392,-2.797,-9.545,-0.29,-2.79,2.24,1.75,0.49
6965.0,-9.567,-0.321,-2.802,-9.514,-0.318,-2.759,3.22,1.33,0.56
,-9.55,-0.342,-2.783,-9.543,-0.311,-2.733,3.15,1.33,0.56
,-9.5,-0.357,-2.761,-9.493,-0.335,-2.704,3.22,1.26,0.56
,-9.485,-0.345,-2.752,-9.464,-0.38,-2.692,3.43,1.19,0.56
7041.0,-9.56,-0.325,-2.764,-9.533,-0.373,-2.737,3.01,1.19,0.56
,-9.533,-0.333,-2.706,-9.49,-0.378,-2.733,3.01,1.19,0.56
,-9.509,-0.309,-2.759,-9.497,-0.39,-2.807,2.59,1.26,0.56
,-9.497,-0.39,-2.723,-9.478,-0.361,-2.793,2.31,1.33,0.49
7117.0,-9.476,-0.361,-2.781,-9.512,-0.354,-2.764,2.87,1.33,0.84
,-9.543,-0.359,-2.814,-9.533,-0.364,-2.757,2.87,1.19,0.91
,-9.56,-0.33,-2.785,-9.521,-0.287,-2.771,2.94,1.4,0.91
,-9.524,-0.349,-2.783,-9.497,-0.28,-2.793,2.8,1.4,0.91
7193.0,-9.541,-0.275,-2.809,-9.581,-0.261,-2.848,2.66,1.26,0.84
,-9.495,-0.335,-2.809,-9.517,-0.196,-2.589,2.45,1.26,0.91
,-9.483,-0.414,-2.843,-9.454,-0.263,-2.759,2.8,1.26,0.98
,-9.509,-0.287,-2.802,-9.488,-0.361,-2.807,3.43,1.19,0.84
7269.0,-9.536,-0.38,-2.747,-9.524,-0.419,-2.694,2.45,1.05,0.63
,-9.526,-0.357,-2.726,-9.533,-0.438,-2.651,2.66,1.12,0.84
,-9.545,-0.483,-2.781,-9.481,-0.388,-2.654,2.31,1.05,0.84
,-9.49,-0.371,-2.73,-9.509,-0.251,-2.682,2.45,1.19,0.91
7344.0,-9.588,-0.266,-2.733,-9.517,-0.337,-2.735,2.38,1.47,1.05
,-9.541,-0.282,-2.69,-9.517,-0.323,-2.776,2.17,1.33,0.98
,-9.524,-0.294,-2.742,-9.476,-0.311,-2.804,1.89,1.33,0.98
,-9.483,-0.285,-2.706,-9.481,-0.266,-2.778,1.89,1.4,0.98
7420.0,-9.481,-0.323,-2.771,-9.579,-0.306,-2.663,1.75,1.33,0.7
,-9.524,-0.323,-2.678,-9.562,-0.278,-2.678,1.75,1.33,0.84
,-9.531,-0.467,-2.737,-9.555,-0.251,-2.673,1.82,1.47,0.91
,-9.519,-0.383,-2.625,-9.517,-0.282,-2.718,2.38,1.54,0.98
7496.0,-9.524,-0.28,-2.73,-9.512,-0.311,-2.737,1.26,1.96,0.7
,-9.507,-0.337,-2.726,-9.474,-0.266,-2.773,1.19,1.82,0.77
,-9.557,-0.378,-2.716,-9.545,-0.285,-2.802,1.47,1.68,0.91
,-9.55,-0.342,-2.737,-9.545,-0.345,-2.807,2.03,2.03,0.91
7572.0,-9.495,-0.364,-2.804,-9.524,-0.392,-2.752,1.61,2.03,0.98
,-9.514,-0.347,-2.836,-9.552,-0.299,-2.85,1.89,1.82,0.98
,-9.521,-0.318,-2.864,-9.529,-0.299,-2.714,2.17,1.75,1.05
,-9.533,-0.354,-2.848,-9.541,-0.232,-2.711,2.24,1.68,1.05
7647.0,-9.521,-0.235,-2.749,-9.509,-0.325,-2.814,1.82,1.54,0.91
,-9.517,-0.311,-2.785,-9.552,-0.28,-2.807,1.82,1.68,0.91
,-9.552,-0.313,-2.814,-9.536,-0.297,-2.828,2.1,1.68,0.84
,-9.512,-0.316,-2.831,-9.541,-0.29,-2.8,2.38,1.61,0.91
7723.0,-9.507,-0.275,-2.74,-9.529,-0.302,-2.73,2.24,1.26,0.77
,-9.552,-0.385,-2.74,-9.512,-0.223,-2.723,2.17,1.19,0.77
,-9.495,-0.38,-2.764,-9.519,-0.278,-2.747,2.66,1.26,0.91
,-9.514,-0.323,-2.678,-9.509,-0.249,-2.757,3.22,1.26,0.91
7798.0,-9.509,-0.282,-2.776,-9.526,-0.321,-2.737,2.59,1.4,0.77
,-9.512,-0.285,-2.773,-9.536,-0.325,-2.747,2.73,1.33,0.7
,-9.509,-0.256,-2.761,-9.531,-0.294,-2.737,2.87,1.26,0.7
,-9.512,-0.302,-2.749,-9.541,-0.287,-2.749,2.87,1.26,0.63
7874.0,-9.531,-0.311,-2.742,-9.509,-0.316,-2.776,2.24,1.4,0.49
,-9.505,-0.345,-2.74,-9.538,-0.342,-2.809,2.1,1.4,0.49
,-9.536,-0.357,-2.752,-9.545,-0.328,-2.828,2.31,1.54,0.56
,-9.493,-0.33,-2.778,-9.526,-0.33,-2.876,2.45,1.54,0.56
7950.0,-9.5,-0.28,-2.907,-9.509,-0.352,-2.726,3.15,1.05,0.7
,-9.493,-0.268,-2.905,-9.529,-0.318,-2.661,3.15,0.98,0.7
,-9.517,-0.316,-2.867,-9.545,-0.287,-2.63,3.22,0.98,0.7
,-9.493,-0.359,-2.769,-9.509,-0.266,-2.551,3.57,1.19,0.84
8026.0,-9.502,-0.261,-2.57,-9.502,-0.251,-2.723,3.08,1.61,0.77
,-9.524,-0.27,-2.544,-9.488,-0.33,-2.699,2.66,1.54,0.63
,-9.55,-0.251,-2.608,-9.514,-0.357,-2.737,2.38,2.03,0.56
,-9.531,-0.215,-2.661,-9.536,-0.354,-2.721,1.96,2.1,0.42
8101.0,-9.567,-0.299,-2.728,-9.505,-0.354,-2.881,2.03,2.24,0.42
,-9.485,-0.278,-2.843,-9.505,-0.352,-2.888,2.1,2.1,0.35
,-9.526,-0.292,-2.819,-9.514,-0.39,-2.881,1.54,1.96,0.28
,-9.541,-0.333,-2.852,-9.497,-0.383,-2.793,1.26,1.96,0.28
8177.0,-9.55,-0.388,-2.848,-9.512,-0.349,-2.742,2.59,1.26,0.42
,-9.481,-0.33,-2.773,-9.497,-0.357,-2.759,2.59,1.33,0.63
,-9.531,-0.321,-2.795,-9.545,-0.354,-2.79,2.59,1.26,0.56
,-9.55,-0.333,-2.778,-9.514,-0.294,-2.783,2.45,1.26,0.49
8253.0,-9.505,-0.369,-2.764,-9.567,-0.397,-2.73,3.22,1.12,0.77
,-9.509,-0.323,-2.735,-9.517,-0.433,-2.74,3.29,1.19,0.84
,-9.481,-0.33,-2.737,-9.56,-0.39,-2.785,3.15,1.05,0.77
,-9.536,-0.373,-2.706,-9.485,-0.333,-2.812,2.94,1.12,0.77
8329.0,-9.5,-0.254,-2.821,-9.478,-0.436,-2.726,3.15,1.12,0.84
,-9.541,-0.232,-2.821,-9.543,-0.402,-2.661,2.73,1.19,0.84
,-9.464,-0.297,-2.788,-9.526,-0.333,-2.68,2.52,1.26,0.91
,-9.536,-0.345,-2.773,-9.538,-0.237,-2.718,2.45,1.12,0.91
8405.0,-9.493,-0.27,-2.718,-9.5,-0.349,-2.68,2.73,0.91,0.84
,-9.531,-0.345,-2.728,-9.524,-0.313,-2.675,2.45,1.33,1.05
,-9.543,-0.378,-2.735,-9.576,-0.239,-2.711,2.52,1.19,0.91
,-9.529,-0.357,-2.737,-9.569,-0.227,-2.721,2.8,1.4,0.84
8480.0,-9.524,-0.249,-2.726,-9.517,-0.34,-2.769,2.03,1.61,0.84
,-9.552,-0.28,-2.728,-9.552,-0.29,-2.776,2.03,1.68,0.77
,-9.567,-0.278,-2.809,-9.483,-0.304,-2.793,2.03,1.61,0.7
,-9.531,-0.325,-2.778,-9.512,-0.261,-2.783,2.17,1.54,0.91
8556.0,-9.502,-0.282,-2.771,-9.502,-0.412,-2.747,2.24,1.4,0.63
,-9.569,-0.354,-2.804,-9.497,-0.402,-2.711,2.31,1.26,0.49
,-9.524,-0.318,-2.809,-9.514,-0.407,-2.711,2.45,1.4,0.63
,-9.529,-0.369,-2.764,-9.541,-0.33,-2.678,2.52,1.33,0.7
8631.0,-9.512,-0.266,-2.663,-9.49,-0.436,-2.824,2.52,1.4,0.77
,-9.538,-0.263,-2.716,-9.502,-0.45,-2.819,2.03,1.4,0.84
,-9.505,-0.335,-2.733,-9.478,-0.337,-2.814,1.82,1.47,0.7
,-9.493,-0.404,-2.73,-9.517,-0.263,-2.769,2.03,1.54,0.77
8707.0,-9.514,-0.232,-2.773,-9.533,-0.309,-2.766,3.22,1.12,1.05
,-9.514,-0.328,-2.737,-9.526,-0.273,-2.714,2.8,1.4,1.19
,-9.538,-0.39,-2.747,-9.514,-0.278,-2.761,2.52,1.26,1.12
,-9.572,-0.354,-2.759,-9.538,-0.335,-2.742,2.73,1.33,1.05
8783.0,-9.55,-0.33,-2.776,-9.536,-0.273,-2.73,2.38,1.19,0.91
,-9.519,-0.347,-2.781,-9.469,-0.27,-2.745,2.59,1.12,0.98
,-9.526,-0.373,-2.819,-9.574,-0.244,-2.68,2.87,1.26,1.05
,-9.531,-0.299,-2.761,-9.538,-0.278,-2.639,2.87,1.33,1.05
8859.0,-9.512,-0.294,-2.625,-9.507,-0.215,-2.795,2.45,1.4,0.84
,-9.541,-0.323,-2.63,-9.531,-0.325,-2.804,2.45,1.47,0.84
,-9.564,-0.318,-2.678,-9.502,-0.316,-2.819,2.66,1.47,0.84
,-9.548,-0.282,-2.704,-9.493,-0.357,-2.836,2.59,1.4,0.77
8934.0,-9.471,-0.352,-2.766,-9.497,-0.294,-2.73,2.59,1.26,0.84
,-9.521,-0.285,-2.797,-9.545,-0.323,-2.694,2.87,1.33,0.84
,-9.517,-0.309,-2.711,-9.567,-0.325,-2.682,2.87,1.26,0.84
,-9.521,-0.261,-2.73,-9.495,-0.304,-2.692,2.73,1.26,0.84
9010.0,-9.502,-0.239,-2.737,-9.572,-0.364,-2.776,2.87,1.26,0.7
,-9.543,-0.244,-2.757,-9.55,-0.268,-2.764,2.45,1.4,0.7
,-9.517,-0.316,-2.735,-9.507,-0.28,-2.74,2.1,1.47,0.7
,-9.497,-0.359,-2.726,-9.502,-0.278,-2.785,2.17,1.4,0.7
9085.0,-9.517,-0.292,-2.797,-9.531,-0.28,-2.797,2.45,1.26,0.63
,-9.555,-0.294,-2.812,-9.483,-0.323,-2.735,2.52,1.26,0.7
,-9.497,-0.313,-2.802,-9.505,-0.354,-2.673,2.66,1.26,0.63
,-9.519,-0.28,-2.785,-9.55,-0.376,-2.723,3.01,1.33,0.63
9161.0,-9.548,-0.337,-2.651,-9.612,-0.227,-2.649,3.29,1.26,0.63
,-9.55,-0.318,-2.682,-9.541,-0.22,-2.678,3.5,1.33,0.63
,-9.543,-0.263,-2.623,-9.466,-0.309,-2.709,3.57,1.26,0.7
,-9.541,-0.251,-2.656,-9.529,-0.376,-2.718,3.22,1.54,0.7
9237.0,-9.536,-0.378,-2.783,-9.545,-0.34,-2.687,2.94,1.68,0.63
,-9.478,-0.342,-2.788,-9.493,-0.287,-2.663,3.5,1.61,0.63
,-9.514,-0.294,-2.766,-9.531,-0.292,-2.68,3.43,1.4,0.63
,-9.493,-0.294,-2.735,-9.533,-0.347,-2.716,3.15,1.54,0.56
9313.0,-9.519,-0.328,-2.737,-9.529,-0.352,-2.759,2.66,1.47,0.56
,-9.545,-0.357,-2.793,-9.531,-0.347,-2.769,3.08,1.47,0.63
,-9.533,-0.364,-2.74,-9.569,-0.325,-2.74,3.08,1.61,0.7
,-9.517,-0.347,-2.74,-9.576,-0.302,-2.747,2.94,1.54,0.63
9389.0,-9.519,-0.261,-2.785,-9.576,-0.29,-2.742,2.73,1.33,0.56
,-9.497,-0.304,-2.733,-9.519,-0.352,-2.723,2.66,1.26,0.56
,-9.562,-0.321,-2.771,-9.485,-0.333,-2.752,2.59,1.12,0.56
,-9.545,-0.287,-2.773,-9.536,-0.345,-2.726,2.94,1.12,0.56
9464.0,-9.531,-0.302,-2.714,-9.509,-0.29,-2.73,3.01,1.4,0.63
,-9.543,-0.333,-2.726,-9.519,-0.309,-2.747,2.59,1.47,0.7
,-9.541,-0.361,-2.745,-9.538,-0.313,-2.749,2.31,1.4,0.63
,-9.505,-0.369,-2.718,-9.476,-0.345,-2.706,2.52,1.4,0.63
9540.0,-9.564,-0.34,-2.728,-9.512,-0.342,-2.769,2.66,1.12,0.63
,-9.533,-0.33,-2.74,-9.502,-0.352,-2.723,2.87,1.33,0.63
,-9.493,-0.33,-2.733,-9.541,-0.402,-2.675,2.94,1.33,0.63
,-9.495,-0.309,-2.783,-9.557,-0.335,-2.702,3.01,1.26,0.63
9616.0,-9.564,-0.318,-2.704,-9.538,-0.38,-2.778,2.87,1.4,0.77
,-9.552,-0.309,-2.737,-9.509,-0.347,-2.726,2.87,1.47,0.84
,-9.493,-0.318,-2.761,-9.55,-0.285,-2.773,2.52,1.4,0.7
,-9.481,-0.352,-2.802,-9.531,-0.328,-2.687,2.66,1.26,0.63
9692.0,-9.543,-0.285,-2.682,-9.538,-0.347,-2.711,2.94,1.12,0.84
,-9.557,-0.318,-2.694,-9.541,-0.347,-2.682,2.66,1.05,0.63
,-9.519,-0.321,-2.68,-9.529,-0.304,-2.611,2.59,1.26,0.77
,-9.519,-0.364,-2.716,-9.55,-0.309,-2.618,2.73,1.19,0.77
9767.0,-9.517,-0.313,-2.623,-9.529,-0.313,-2.795,2.31,1.61,0.7
,-9.517,-0.33,-2.668,-9.512,-0.292,-2.8,2.17,1.68,0.77
,-9.531,-0.354,-2.678,-9.552,-0.302,-2.783,2.03,1.75,0.77
,-9.55,-0.349,-2.733,-9.526,-0.33,-2.721,2.24,1.68,0.84
