Timestamp,AccX,AccY,AccZ,GyroX,GyroY,GyroZ,MagnX,MagnY,MagnZ
0.0,-9.261,-0.574,-3.609,-9.222,-0.61,-3.671,2.73,1.75,0.91
,-9.222,-0.637,-3.63,-9.194,-0.627,-3.609,2.59,1.54,0.91
,-9.203,-0.586,-3.606,-9.203,-0.687,-3.589,2.52,1.47,0.84
,-9.249,-0.598,-3.611,-9.258,-0.675,-3.632,2.45,1.61,0.91
75.0,-9.215,-0.646,-3.654,-9.217,-0.632,-3.642,2.24,1.68,0.84
,-9.198,-0.653,-3.659,-9.196,-0.617,-3.592,2.38,1.54,0.77
,-9.229,-0.598,-3.659,-9.215,-0.637,-3.623,2.38,1.61,0.84
,-9.253,-0.62,-3.661,-9.265,-0.577,-3.623,2.31,1.68,0.84
150.0,-9.251,-0.617,-3.649,-9.217,-0.613,-3.74,2.59,1.54,0.91
,-9.246,-0.558,-3.647,-9.189,-0.584,-3.68,2.24,1.47,0.77
,-9.191,-0.613,-3.697,-9.217,-0.617,-3.661,1.89,1.26,0.63
,-9.208,-0.601,-3.673,-9.206,-0.692,-3.63,2.03,1.19,0.63
226.0,-9.227,-0.627,-3.522,-9.28,-0.663,-3.616,2.8,1.05,0.91
,-9.27,-0.613,-3.577,-9.196,-0.644,-3.64,2.73,1.05,0.77
,-9.253,-0.572,-3.592,-9.191,-0.637,-3.618,2.38,0.98,0.63
,-9.201,-0.648,-3.561,-9.232,-0.641,-3.556,1.82,1.05,0.63
302.0,-9.206,-0.634,-3.513,-9.258,-0.651,-3.609,2.52,1.68,0.84
,-9.256,-0.613,-3.477,-9.213,-0.651,-3.695,2.52,1.68,0.84
,-9.284,-0.601,-3.465,-9.16,-0.646,-3.728,2.38,1.96,0.84
,-9.246,-0.627,-3.563,-9.194,-0.641,-3.743,2.31,1.89,0.7
378.0,-9.263,-0.581,-3.757,-9.179,-0.613,-3.685,2.94,1.54,0.84
,-9.241,-0.541,-3.676,-9.162,-0.682,-3.63,2.66,1.61,0.77
,-9.167,-0.62,-3.723,-9.251,-0.658,-3.592,2.52,1.54,0.84
,-9.261,-0.574,-3.74,-9.232,-0.617,-3.606,2.38,1.12,0.7
453.0,-9.203,-0.639,-3.506,-9.244,-0.622,-3.592,2.24,1.19,0.77
,-9.263,-0.622,-3.362,-9.213,-0.634,-3.644,2.17,1.12,0.7
,-9.239,-0.593,-3.515,-9.217,-0.601,-3.695,2.03,1.33,0.56
,-9.256,-0.584,-3.494,-9.182,-0.706,-3.692,1.89,1.4,0.63
529.0,-9.191,-0.613,-3.697,-9.222,-0.546,-3.68,2.45,1.89,0.63
,-9.213,-0.646,-3.714,-9.246,-0.596,-3.652,2.52,1.54,0.7
,-9.208,-0.598,-3.668,-9.239,-0.565,-3.623,2.59,1.47,0.7
,-9.194,-0.562,-3.654,-9.265,-0.61,-3.587,2.73,1.47,0.7
605.0,-9.237,-0.637,-3.604,-9.215,-0.632,-3.613,2.03,1.05,0.63
,-9.263,-0.593,-3.592,-9.237,-0.603,-3.673,2.03,0.98,0.7
,-9.256,-0.586,-3.568,-9.196,-0.593,-3.766,2.1,1.33,0.77
,-9.232,-0.598,-3.609,-9.186,-0.651,-3.738,1.96,1.26,0.63
681.0,-9.184,-0.608,-3.74,-9.174,-0.648,-3.632,2.17,0.98,0.77
,-9.206,-0.644,-3.714,-9.213,-0.668,-3.69,2.38,0.91,0.84
,-9.213,-0.593,-3.678,-9.241,-0.665,-3.711,2.66,0.63,0.77
,-9.256,-0.574,-3.721,-9.234,-0.574,-3.599,2.52,0.63,0.77
757.0,-9.284,-0.727,-3.597,-9.182,-0.718,-3.561,2.45,0.35,1.05
,-9.237,-0.438,-3.604,-9.215,-0.639,-3.577,2.73,0.49,0.91
,-9.263,-0.61,-3.611,-9.227,-0.593,-3.546,2.17,0.21,0.63
,-9.184,-0.675,-3.57,-9.246,-0.591,-3.525,2.24,0.35,0.63
832.0,-9.282,-0.589,-3.479,-9.239,-0.581,-3.534,2.59,0.84,0.98
,-9.253,-0.596,-3.589,-9.258,-0.526,-3.501,2.38,0.98,0.91
,-9.177,-0.629,-3.467,-9.258,-0.562,-3.475,2.24,1.19,0.91
,-9.217,-0.629,-3.527,-9.287,-0.555,-3.503,2.52,1.19,0.84
908.0,-9.244,-0.622,-3.553,-9.198,-0.555,-3.695,1.96,1.61,0.77
,-9.196,-0.67,-3.594,-9.215,-0.546,-3.664,1.82,1.68,0.77
,-9.215,-0.639,-3.644,-9.208,-0.543,-3.611,1.96,1.47,0.7
,-9.203,-0.586,-3.685,-9.253,-0.605,-3.587,1.96,1.54,0.7
984.0,-9.222,-0.579,-3.661,-9.194,-0.632,-3.611,2.17,1.12,0.63
,-9.191,-0.639,-3.616,-9.241,-0.581,-3.623,2.24,1.05,0.7
,-9.227,-0.696,-3.642,-9.227,-0.579,-3.611,2.38,0.91,0.77
,-9.172,-0.701,-3.585,-9.213,-0.57,-3.582,2.73,1.19,0.84
1060.0,-9.251,-0.55,-3.635,-9.189,-0.601,-3.625,1.96,0.91,0.56
,-9.217,-0.584,-3.587,-9.208,-0.658,-3.606,2.24,0.98,0.77
,-9.227,-0.574,-3.628,-9.215,-0.577,-3.58,2.52,1.12,0.77
,-9.217,-0.546,-3.673,-9.263,-0.646,-3.551,2.52,0.91,0.77
1135.0,-9.263,-0.637,-3.52,-9.261,-0.668,-3.453,2.24,0.91,0.84
,-9.265,-0.625,-3.515,-9.253,-0.608,-3.52,2.31,1.05,0.84
,-9.237,-0.634,-3.479,-9.249,-0.579,-3.489,2.1,1.12,0.91
,-9.213,-0.682,-3.458,-9.263,-0.534,-3.606,2.31,1.33,0.98
1211.0,-9.265,-0.519,-3.664,-9.222,-0.57,-3.654,2.1,1.96,0.84
,-9.179,-0.584,-3.656,-9.222,-0.55,-3.623,2.1,1.68,0.77
,-9.222,-0.584,-3.697,-9.27,-0.55,-3.697,2.45,1.54,0.77
,-9.184,-0.562,-3.673,-9.191,-0.558,-3.63,2.66,1.47,0.84
1286.0,-9.22,-0.596,-3.652,-9.201,-0.603,-3.506,2.45,0.98,0.56
,-9.191,-0.639,-3.709,-9.244,-0.589,-3.463,2.73,0.98,0.63
,-9.222,-0.684,-3.673,-9.263,-0.608,-3.441,3.01,0.98,0.7
,-9.249,-0.617,-3.613,-9.263,-0.579,-3.472,3.15,0.98,0.84
1362.0,-9.225,-0.56,-3.501,-9.203,-0.625,-3.64,2.8,1.4,0.7
,-9.232,-0.572,-3.506,-9.165,-0.665,-3.597,2.66,1.61,0.7
,-9.208,-0.591,-3.553,-9.179,-0.66,-3.561,2.45,1.61,0.63
,-9.191,-0.603,-3.587,-9.239,-0.596,-3.549,2.52,1.68,0.7
1438.0,-9.263,-0.548,-3.53,-9.225,-0.641,-3.58,3.08,1.68,0.7
,-9.277,-0.57,-3.546,-9.222,-0.605,-3.565,2.73,1.89,0.77
,-9.201,-0.591,-3.558,-9.268,-0.61,-3.565,2.52,1.61,0.63
,-9.217,-0.67,-3.558,-9.277,-0.57,-3.558,2.59,1.96,0.77
1514.0,-9.261,-0.534,-3.599,-9.184,-0.541,-3.754,2.24,1.96,0.7
,-9.256,-0.56,-3.692,-9.194,-0.581,-3.781,2.17,1.96,0.49
,-9.222,-0.593,-3.644,-9.215,-0.581,-3.721,2.24,1.75,0.35
,-9.203,-0.577,-3.699,-9.215,-0.591,-3.711,2.38,1.61,0.49
1589.0,-9.203,-0.593,-3.64,-9.222,-0.641,-3.616,2.94,0.98,0.49
,-9.261,-0.617,-3.616,-9.206,-0.651,-3.585,3.08,0.91,0.56
,-9.265,-0.603,-3.568,-9.194,-0.622,-3.625,3.43,0.98,0.56
,-9.22,-0.596,-3.606,-9.227,-0.665,-3.546,3.71,0.84,0.56
1665.0,-9.251,-0.629,-3.558,-9.301,-0.584,-3.539,3.08,1.05,0.63
,-9.191,-0.555,-3.46,-9.253,-0.593,-3.589,3.01,1.05,0.56
,-9.263,-0.596,-3.431,-9.208,-0.637,-3.606,2.94,1.4,0.63
,-9.292,-0.567,-3.494,-9.203,-0.627,-3.647,2.94,1.4,0.63
1740.0,-9.194,-0.625,-3.609,-9.263,-0.598,-3.64,3.15,1.47,0.56
,-9.263,-0.627,-3.542,-9.22,-0.658,-3.664,3.01,1.61,0.63
,-9.287,-0.653,-3.537,-9.172,-0.61,-3.664,2.66,1.61,0.56
,-9.263,-0.651,-3.491,-9.237,-0.577,-3.702,2.73,1.82,0.63
1816.0,-9.244,-0.589,-3.735,-9.222,-0.615,-3.582,2.87,1.47,0.56
,-9.198,-0.574,-3.68,-9.239,-0.565,-3.575,2.73,1.26,0.56
,-9.222,-0.61,-3.623,-9.28,-0.632,-3.537,2.59,1.19,0.49
,-9.217,-0.589,-3.664,-9.222,-0.625,-3.565,2.66,1.26,0.49
1892.0,-9.208,-0.648,-3.534,-9.22,-0.656,-3.513,2.59,1.33,0.56
,-9.229,-0.701,-3.52,-9.263,-0.61,-3.532,2.45,1.33,0.63
,-9.268,-0.641,-3.522,-9.289,-0.596,-3.577,2.66,1.54,0.63
,-9.208,-0.646,-3.506,-9.213,-0.613,-3.616,2.59,1.54,0.7
1968.0,-9.167,-0.632,-3.628,-9.213,-0.66,-3.738,1.75,1.68,0.49
,-9.196,-0.644,-3.69,-9.186,-0.615,-3.74,1.82,1.61,0.56
,-9.21,-0.598,-3.707,-9.177,-0.665,-3.733,1.96,1.54,0.7
,-9.203,-0.632,-3.757,-9.227,-0.625,-3.647,2.17,1.47,0.63
2044.0,-9.186,-0.665,-3.599,-9.217,-0.665,-3.53,2.87,1.05,0.84
,-9.289,-0.68,-3.534,-9.215,-0.68,-3.482,2.94,1.05,0.91
,-9.277,-0.651,-3.537,-9.299,-0.665,-3.527,2.8,1.12,0.91
,-9.239,-0.677,-3.587,-9.22,-0.625,-3.561,2.66,0.98,0.84
2119.0,-9.21,-0.572,-3.597,-9.182,-0.625,-3.754,2.66,1.54,0.91
,-9.232,-0.625,-3.697,-9.196,-0.584,-3.697,2.52,1.47,0.84
,-9.172,-0.641,-3.719,-9.217,-0.546,-3.683,2.66,1.47,0.84
,-9.177,-0.62,-3.745,-9.194,-0.596,-3.644,3.01,1.33,0.84
2195.0,-9.198,-0.66,-3.575,-9.273,-0.684,-3.475,2.45,0.7,0.7
,-9.22,-0.627,-3.575,-9.217,-0.67,-3.441,2.59,0.77,0.7
,-9.217,-0.608,-3.575,-9.268,-0.663,-3.431,2.52,0.77,0.7
,-9.244,-0.646,-3.51,-9.268,-0.603,-3.484,2.45,1.05,0.77
2271.0,-9.249,-0.668,-3.525,-9.191,-0.62,-3.597,1.47,1.54,0.7
,-9.203,-0.622,-3.551,-9.222,-0.605,-3.611,1.47,1.61,0.7
,-9.225,-0.605,-3.625,-9.186,-0.639,-3.611,1.54,1.54,0.63
,-9.225,-0.62,-3.604,-9.225,-0.62,-3.635,1.75,1.75,0.77
2347.0,-9.246,-0.632,-3.599,-9.201,-0.61,-3.656,2.52,1.68,0.91
,-9.194,-0.639,-3.63,-9.225,-0.608,-3.676,2.66,1.61,0.91
,-9.22,-0.605,-3.656,-9.249,-0.581,-3.673,2.59,1.61,0.98
,-9.239,-0.648,-3.656,-9.232,-0.615,-3.668,2.45,1.61,0.84
2422.0,-9.246,-0.579,-3.661,-9.215,-0.596,-3.575,2.66,1.19,0.91
,-9.246,-0.596,-3.635,-9.196,-0.601,-3.616,2.8,1.12,0.98
,-9.206,-0.596,-3.597,-9.203,-0.634,-3.635,2.8,1.05,0.91
,-9.246,-0.625,-3.616,-9.203,-0.66,-3.575,2.87,0.91,0.91
2498.0,-9.215,-0.639,-3.563,-9.296,-0.584,-3.508,3.01,0.91,0.77
,-9.225,-0.603,-3.513,-9.268,-0.572,-3.549,3.01,1.12,0.84
,-9.206,-0.567,-3.496,-9.304,-0.546,-3.587,2.8,1.19,0.91
,-9.249,-0.531,-3.451,-9.251,-0.617,-3.594,2.38,1.26,0.84
2573.0,-9.186,-0.644,-3.613,-9.182,-0.651,-3.649,1.82,1.33,0.56
,-9.227,-0.613,-3.616,-9.206,-0.601,-3.609,1.96,1.54,0.63
,-9.241,-0.639,-3.635,-9.268,-0.603,-3.644,1.96,1.4,0.56
,-9.172,-0.639,-3.64,-9.191,-0.675,-3.62,2.1,1.33,0.63
2649.0,-9.289,-0.675,-3.654,-9.215,-0.591,-3.592,2.45,1.05,0.77
,-9.194,-0.653,-3.654,-9.232,-0.567,-3.539,2.66,1.19,0.77
,-9.213,-0.617,-3.647,-9.256,-0.529,-3.609,2.8,1.26,0.84
,-9.237,-0.577,-3.582,-9.237,-0.634,-3.635,2.73,1.33,0.91
2725.0,-9.196,-0.675,-3.63,-9.244,-0.586,-3.544,2.52,1.12,0.84
,-9.177,-0.629,-3.64,-9.249,-0.639,-3.565,2.73,0.84,0.84
,-9.234,-0.608,-3.649,-9.241,-0.596,-3.58,2.73,0.84,0.77
,-9.21,-0.651,-3.57,-9.253,-0.596,-3.597,2.59,1.05,0.77
2801.0,-9.217,-0.608,-3.609,-9.217,-0.61,-3.635,2.52,1.12,0.77
,-9.256,-0.601,-3.613,-9.217,-0.596,-3.618,2.66,1.12,0.91
,-9.186,-0.586,-3.68,-9.196,-0.62,-3.644,2.8,1.05,0.84
,-9.206,-0.577,-3.628,-9.206,-0.613,-3.618,2.8,0.91,0.7
2877.0,-9.217,-0.641,-3.568,-9.261,-0.701,-3.498,3.01,0.91,0.77
,-9.206,-0.608,-3.525,-9.217,-0.675,-3.513,3.08,0.7,0.7
,-9.277,-0.596,-3.534,-9.246,-0.632,-3.522,2.8,0.77,0.77
,-9.277,-0.639,-3.503,-9.251,-0.589,-3.53,2.73,1.12,0.91
2952.0,-9.215,-0.613,-3.482,-9.244,-0.55,-3.678,2.66,1.68,0.84
,-9.258,-0.57,-3.553,-9.234,-0.538,-3.738,2.38,1.54,0.77
,-9.265,-0.596,-3.604,-9.196,-0.538,-3.766,2.45,1.47,0.63
,-9.246,-0.584,-3.637,-9.167,-0.558,-3.723,2.59,1.54,0.63
3028.0,-9.215,-0.589,-3.704,-9.201,-0.632,-3.518,2.66,0.77,0.42
,-9.246,-0.627,-3.673,-9.206,-0.644,-3.491,2.94,0.7,0.49
,-9.215,-0.632,-3.585,-9.249,-0.617,-3.489,3.15,0.7,0.56
,-9.256,-0.663,-3.551,-9.251,-0.646,-3.503,3.29,0.49,0.56
3104.0,-9.275,-0.672,-3.544,-9.256,-0.62,-3.549,2.94,1.12,0.7
,-9.234,-0.572,-3.575,-9.239,-0.634,-3.525,2.94,1.12,0.7
,-9.227,-0.601,-3.573,-9.268,-0.558,-3.518,2.8,1.12,0.63
,-9.22,-0.589,-3.558,-9.232,-0.562,-3.542,2.8,1.19,0.7
3180.0,-9.201,-0.613,-3.599,-9.182,-0.641,-3.609,2.66,1.47,0.56
,-9.22,-0.646,-3.594,-9.253,-0.581,-3.582,2.8,1.26,0.56
,-9.186,-0.629,-3.652,-9.21,-0.567,-3.597,3.01,1.4,0.63
,-9.232,-0.639,-3.606,-9.273,-0.605,-3.589,3.15,1.47,0.7
3255.0,-9.261,-0.596,-3.606,-9.239,-0.656,-3.52,3.08,1.12,0.56
,-9.239,-0.601,-3.585,-9.225,-0.61,-3.479,2.87,0.98,0.49
,-9.22,-0.617,-3.565,-9.256,-0.637,-3.463,2.87,1.19,0.49
,-9.251,-0.632,-3.549,-9.241,-0.581,-3.503,2.94,1.19,0.56
3331.0,-9.22,-0.668,-3.587,-9.225,-0.603,-3.546,2.59,1.33,0.56
,-9.208,-0.66,-3.57,-9.263,-0.565,-3.537,2.73,1.61,0.56
,-9.208,-0.677,-3.616,-9.289,-0.567,-3.565,2.73,1.82,0.63
,-9.215,-0.615,-3.613,-9.253,-0.565,-3.647,2.8,1.82,0.63
3406.0,-9.189,-0.608,-3.659,-9.21,-0.625,-3.654,1.75,1.4,0.42
,-9.203,-0.622,-3.685,-9.258,-0.644,-3.676,1.96,1.33,0.49
,-9.206,-0.677,-3.685,-9.229,-0.656,-3.599,2.1,1.4,0.63
,-9.206,-0.663,-3.699,-9.241,-0.589,-3.661,2.31,1.19,0.7
3482.0,-9.208,-0.603,-3.642,-9.256,-0.639,-3.475,3.36,0.84,0.7
,-9.182,-0.608,-3.585,-9.222,-0.591,-3.47,3.57,0.91,0.7
,-9.246,-0.567,-3.568,-9.258,-0.665,-3.463,3.64,0.84,0.77
,-9.237,-0.603,-3.515,-9.206,-0.658,-3.53,3.43,0.84,0.7
3558.0,-9.251,-0.641,-3.455,-9.256,-0.627,-3.46,2.94,1.33,0.7
,-9.275,-0.615,-3.475,-9.258,-0.677,-3.563,2.87,1.4,0.84
,-9.294,-0.644,-3.465,-9.174,-0.706,-3.623,2.66,1.54,0.77
,-9.232,-0.625,-3.451,-9.21,-0.653,-3.699,2.38,1.47,0.77
3634.0,-9.146,-0.634,-3.649,-9.22,-0.57,-3.625,2.59,1.75,0.77
,-9.258,-0.651,-3.661,-9.284,-0.615,-3.676,2.73,1.68,0.84
,-9.194,-0.617,-3.673,-9.251,-0.639,-3.707,2.87,1.54,0.7
,-9.22,-0.61,-3.609,-9.177,-0.637,-3.723,2.87,1.33,0.77
3709.0,-9.206,-0.66,-3.687,-9.261,-0.534,-3.503,3.36,0.7,0.7
,-9.229,-0.648,-3.628,-9.289,-0.672,-3.417,3.5,0.77,0.77
,-9.206,-0.651,-3.592,-9.258,-0.67,-3.424,3.5,0.56,0.7
,-9.237,-0.615,-3.565,-9.28,-0.675,-3.419,3.5,0.49,0.7
3785.0,-9.27,-0.704,-3.484,-9.249,-0.656,-3.518,2.52,1.26,0.63
,-9.232,-0.646,-3.458,-9.292,-0.715,-3.542,2.52,1.54,0.77
,-9.229,-0.648,-3.46,-9.239,-0.665,-3.551,2.45,1.68,0.7
,-9.237,-0.696,-3.501,-9.227,-0.62,-3.515,2.38,1.82,0.77
3861.0,-9.225,-0.536,-3.623,-9.213,-0.646,-3.604,2.38,2.31,0.77
,-9.265,-0.546,-3.587,-9.253,-0.665,-3.632,2.24,2.17,0.7
,-9.251,-0.56,-3.58,-9.249,-0.641,-3.616,1.89,1.89,0.63
,-9.215,-0.603,-3.628,-9.198,-0.622,-3.57,1.82,1.82,0.63
3937.0,-9.251,-0.639,-3.589,-9.206,-0.653,-3.699,1.96,1.75,0.49
,-9.227,-0.632,-3.592,-9.182,-0.627,-3.695,1.82,1.75,0.56
,-9.222,-0.625,-3.664,-9.179,-0.653,-3.635,1.68,1.68,0.49
,-9.21,-0.67,-3.673,-9.234,-0.658,-3.618,1.54,1.47,0.35
4013.0,-9.227,-0.596,-3.589,-9.229,-0.617,-3.711,2.66,1.05,0.7
,-9.253,-0.565,-3.611,-9.246,-0.596,-3.714,2.8,1.12,0.63
,-9.215,-0.66,-3.594,-9.217,-0.613,-3.704,2.87,1.19,0.77
,-9.229,-0.675,-3.58,-9.22,-0.605,-3.652,2.87,1.19,0.77
4088.0,-9.229,-0.656,-3.63,-9.249,-0.639,-3.625,3.15,0.63,0.7
,-9.27,-0.622,-3.654,-9.22,-0.61,-3.573,3.15,0.56,0.7
,-9.184,-0.617,-3.635,-9.263,-0.651,-3.522,3.29,0.56,0.77
,-9.241,-0.648,-3.625,-9.253,-0.634,-3.465,3.29,0.49,0.77
4164.0,-9.27,-0.656,-3.47,-9.251,-0.651,-3.525,2.38,0.56,0.63
,-9.287,-0.598,-3.486,-9.203,-0.658,-3.467,2.24,0.56,0.56
,-9.246,-0.711,-3.446,-9.234,-0.651,-3.522,1.96,0.84,0.7
,-9.27,-0.629,-3.515,-9.28,-0.629,-3.503,2.24,0.91,0.63
4239.0,-9.284,-0.651,-3.498,-9.21,-0.677,-3.592,2.59,1.19,0.84
,-9.256,-0.639,-3.482,-9.246,-0.651,-3.537,2.52,1.33,0.84
,-9.217,-0.617,-3.513,-9.21,-0.632,-3.556,2.66,1.47,0.91
,-9.237,-0.653,-3.565,-9.244,-0.577,-3.577,2.73,1.82,1.05
4315.0,-9.229,-0.603,-3.58,-9.184,-0.634,-3.616,2.38,1.68,0.77
,-9.201,-0.617,-3.587,-9.215,-0.591,-3.589,2.38,1.61,0.77
,-9.206,-0.584,-3.683,-9.258,-0.641,-3.592,2.31,1.75,0.77
,-9.203,-0.656,-3.656,-9.232,-0.629,-3.573,2.38,1.61,0.91
4391.0,-9.239,-0.684,-3.53,-9.237,-0.687,-3.594,2.38,1.12,0.77
,-9.215,-0.625,-3.537,-9.222,-0.682,-3.597,2.45,1.19,0.84
,-9.265,-0.651,-3.599,-9.189,-0.632,-3.604,2.45,1.05,0.77
,-9.237,-0.627,-3.601,-9.246,-0.696,-3.525,2.38,1.19,0.91
4467.0,-9.282,-0.675,-3.479,-9.21,-0.632,-3.544,2.38,1.05,0.98
,-9.261,-0.656,-3.475,-9.217,-0.608,-3.613,2.59,1.19,0.98
,-9.316,-0.589,-3.53,-9.222,-0.603,-3.707,2.52,1.47,0.98
,-9.284,-0.608,-3.47,-9.244,-0.591,-3.656,2.38,1.4,0.98
4542.0,-9.237,-0.572,-3.656,-9.241,-0.639,-3.522,2.8,1.26,0.91
,-9.213,-0.586,-3.644,-9.256,-0.646,-3.563,2.87,1.19,0.98
,-9.22,-0.617,-3.623,-9.27,-0.601,-3.491,3.01,0.91,0.98
,-9.256,-0.625,-3.609,-9.296,-0.617,-3.467,2.94,0.91,0.91
4618.0,-9.227,-0.653,-3.479,-9.232,-0.591,-3.503,2.1,1.33,0.84
,-9.237,-0.634,-3.463,-9.261,-0.577,-3.489,2.1,1.33,0.84
,-9.265,-0.639,-3.494,-9.263,-0.586,-3.513,2.1,1.33,0.84
,-9.234,-0.603,-3.494,-9.217,-0.625,-3.568,2.1,1.54,0.91
4693.0,-9.253,-0.586,-3.551,-9.229,-0.625,-3.565,2.52,1.89,0.91
,-9.179,-0.637,-3.609,-9.258,-0.613,-3.544,2.45,1.82,0.91
,-9.244,-0.644,-3.58,-9.28,-0.579,-3.577,2.52,1.68,0.84
,-9.213,-0.617,-3.604,-9.21,-0.644,-3.611,2.73,1.68,0.98
4769.0,-9.186,-0.644,-3.575,-9.246,-0.562,-3.609,1.82,1.96,0.91
,-9.222,-0.66,-3.57,-9.213,-0.61,-3.625,2.31,1.89,0.91
,-9.232,-0.625,-3.649,-9.229,-0.622,-3.673,2.66,1.61,0.91
,-9.258,-0.56,-3.613,-9.174,-0.615,-3.656,2.59,1.61,0.91
4845.0,-9.277,-0.622,-3.647,-9.249,-0.641,-3.489,2.8,1.26,0.84
,-9.241,-0.567,-3.585,-9.27,-0.593,-3.472,3.01,1.19,0.98
,-9.268,-0.603,-3.568,-9.296,-0.577,-3.484,2.87,1.26,0.84
,-9.241,-0.627,-3.484,-9.22,-0.553,-3.532,2.87,1.4,0.91
4921.0,-9.222,-0.634,-3.62,-9.273,-0.586,-3.609,2.03,1.75,0.77
,-9.208,-0.584,-3.601,-9.196,-0.56,-3.609,2.17,1.96,0.77
,-9.196,-0.66,-3.616,-9.222,-0.637,-3.609,2.24,2.03,0.77
,-9.208,-0.613,-3.577,-9.256,-0.615,-3.666,2.24,1.61,0.7
4997.0,-9.179,-0.608,-3.661,-9.237,-0.644,-3.642,2.24,1.4,0.7
,-9.215,-0.608,-3.692,-9.201,-0.622,-3.623,2.38,1.4,0.7
,-9.217,-0.615,-3.649,-9.227,-0.653,-3.599,2.45,1.26,0.7
,-9.251,-0.617,-3.659,-9.201,-0.605,-3.592,2.45,1.33,0.84
5072.0,-9.22,-0.546,-3.522,-9.21,-0.648,-3.537,3.01,0.98,0.7
,-9.241,-0.577,-3.532,-9.21,-0.653,-3.518,2.87,1.05,0.7
,-9.258,-0.589,-3.496,-9.203,-0.605,-3.551,2.66,1.12,0.84
,-9.268,-0.653,-3.544,-9.256,-0.574,-3.587,2.73,1.12,0.84
5148.0,-9.27,-0.593,-3.544,-9.198,-0.598,-3.678,2.31,1.4,0.7
,-9.217,-0.584,-3.573,-9.201,-0.584,-3.687,2.31,1.61,0.7
,-9.253,-0.603,-3.611,-9.251,-0.555,-3.642,2.1,1.54,0.7
,-9.225,-0.56,-3.687,-9.237,-0.589,-3.585,1.96,1.4,0.56
5224.0,-9.253,-0.672,-3.542,-9.225,-0.601,-3.506,2.31,1.05,0.7
,-9.241,-0.665,-3.496,-9.241,-0.629,-3.542,2.45,0.91,0.63
,-9.289,-0.617,-3.472,-9.263,-0.648,-3.561,2.45,1.12,0.63
,-9.275,-0.603,-3.508,-9.232,-0.627,-3.568,2.38,1.05,0.56
5300.0,-9.206,-0.589,-3.637,-9.251,-0.567,-3.609,2.8,1.54,0.91
,-9.232,-0.591,-3.618,-9.182,-0.562,-3.611,2.8,1.4,0.84
,-9.229,-0.567,-3.62,-9.203,-0.584,-3.606,2.66,1.19,0.77
,-9.261,-0.57,-3.542,-9.256,-0.651,-3.64,2.8,1.26,0.84
5375.0,-9.275,-0.648,-3.589,-9.273,-0.589,-3.527,2.8,1.19,0.77
,-9.268,-0.634,-3.58,-9.21,-0.627,-3.542,2.8,1.26,0.7
,-9.189,-0.586,-3.527,-9.222,-0.615,-3.575,2.73,1.4,0.91
,-9.275,-0.593,-3.46,-9.206,-0.584,-3.604,2.59,1.4,0.84
5451.0,-9.239,-0.593,-3.652,-9.194,-0.531,-3.709,1.96,1.26,0.63
,-9.265,-0.641,-3.656,-9.22,-0.524,-3.668,1.75,1.12,0.56
,-9.246,-0.665,-3.649,-9.253,-0.648,-3.64,2.17,1.05,0.63
,-9.213,-0.589,-3.716,-9.229,-0.651,-3.642,2.73,0.84,0.63
5526.0,-9.215,-0.617,-3.503,-9.229,-0.581,-3.482,3.15,0.63,0.98
,-9.287,-0.694,-3.506,-9.239,-0.62,-3.518,3.29,0.91,1.12
,-9.208,-0.634,-3.53,-9.251,-0.682,-3.484,3.29,0.77,1.05
,-9.241,-0.555,-3.441,-9.251,-0.634,-3.441,3.01,0.77,0.91
5602.0,-9.261,-0.632,-3.429,-9.28,-0.591,-3.623,2.66,1.4,1.05
,-9.237,-0.589,-3.422,-9.225,-0.596,-3.611,2.59,1.68,1.05
,-9.246,-0.57,-3.47,-9.172,-0.653,-3.661,2.31,1.82,1.05
,-9.198,-0.613,-3.534,-9.174,-0.641,-3.687,2.1,1.89,1.05
5678.0,-9.217,-0.651,-3.649,-9.316,-0.531,-3.575,2.45,1.4,0.98
,-9.232,-0.593,-3.666,-9.263,-0.593,-3.546,2.87,1.4,0.98
,-9.237,-0.601,-3.632,-9.253,-0.584,-3.484,2.87,1.4,1.12
,-9.215,-0.572,-3.575,-9.256,-0.57,-3.527,2.8,1.19,1.05
5754.0,-9.203,-0.565,-3.542,-9.215,-0.632,-3.587,2.24,1.47,0.91
,-9.246,-0.562,-3.549,-9.287,-0.605,-3.534,2.24,1.4,1.05
,-9.217,-0.593,-3.582,-9.261,-0.615,-3.558,2.17,1.47,0.98
,-9.225,-0.644,-3.539,-9.232,-0.589,-3.585,2.17,1.4,0.91
5829.0,-9.217,-0.656,-3.57,-9.239,-0.579,-3.644,2.66,1.54,1.05
,-9.287,-0.56,-3.632,-9.225,-0.577,-3.594,2.87,1.33,0.98
,-9.229,-0.536,-3.63,-9.246,-0.615,-3.544,2.8,1.33,0.98
,-9.213,-0.546,-3.676,-9.282,-0.603,-3.489,2.59,1.12,0.77
5905.0,-9.27,-0.574,-3.503,-9.201,-0.593,-3.57,2.45,1.19,0.7
,-9.234,-0.589,-3.551,-9.215,-0.598,-3.544,2.24,1.26,0.77
,-9.16,-0.613,-3.467,-9.246,-0.589,-3.498,2.24,1.33,0.7
,-9.241,-0.572,-3.589,-9.241,-0.656,-3.498,2.38,1.4,0.63
5981.0,-9.275,-0.593,-3.477,-9.313,-0.524,-3.628,2.59,1.75,0.77
,-9.225,-0.622,-3.489,-9.244,-0.555,-3.613,2.45,1.82,0.7
,-9.189,-0.605,-3.508,-9.251,-0.514,-3.616,2.52,1.96,0.84
,-9.234,-0.586,-3.599,-9.306,-0.531,-3.697,2.52,1.96,0.84
6057.0,-9.191,-0.577,-3.68,-9.16,-0.625,-3.611,1.75,1.47,0.42
,-9.191,-0.57,-3.747,-9.241,-0.579,-3.613,1.89,1.26,0.42
,-9.191,-0.651,-3.695,-9.225,-0.57,-3.508,2.24,1.26,0.49
,-9.194,-0.672,-3.687,-9.258,-0.572,-3.489,2.8,1.12,0.63
6133.0,-9.225,-0.627,-3.477,-9.229,-0.586,-3.563,2.87,1.12,0.63
,-9.206,-0.622,-3.513,-9.27,-0.608,-3.51,2.87,1.26,0.7
,-9.256,-0.608,-3.47,-9.246,-0.644,-3.53,2.8,1.4,0.7
,-9.237,-0.61,-3.551,-9.208,-0.617,-3.549,2.87,1.47,0.77
6208.0,-9.289,-0.56,-3.518,-9.234,-0.593,-3.702,2.24,1.75,0.7
,-9.246,-0.558,-3.575,-9.196,-0.589,-3.673,2.1,1.89,0.77
,-9.284,-0.567,-3.58,-9.194,-0.62,-3.659,1.89,1.68,0.63
,-9.229,-0.565,-3.64,-9.22,-0.57,-3.606,1.82,1.68,0.49
6284.0,-9.229,-0.579,-3.64,-9.227,-0.658,-3.582,2.38,1.12,0.49
,-9.206,-0.596,-3.609,-9.201,-0.663,-3.57,2.45,1.4,0.63
,-9.301,-0.558,-3.58,-9.229,-0.639,-3.551,2.59,1.33,0.63
,-9.232,-0.603,-3.62,-9.225,-0.615,-3.546,2.59,1.33,0.63
6359.0,-9.215,-0.605,-3.498,-9.203,-0.555,-3.618,2.87,1.33,0.7
,-9.246,-0.591,-3.477,-9.241,-0.577,-3.628,2.94,1.33,0.84
,-9.284,-0.558,-3.551,-9.208,-0.567,-3.649,2.94,1.54,0.91
,-9.237,-0.603,-3.58,-9.234,-0.584,-3.649,2.94,1.75,0.84
6435.0,-9.249,-0.603,-3.599,-9.213,-0.617,-3.601,2.59,1.47,0.7
,-9.241,-0.593,-3.606,-9.241,-0.615,-3.556,2.52,1.47,0.7
,-9.222,-0.62,-3.601,-9.237,-0.622,-3.539,2.59,1.4,0.77
,-9.208,-0.589,-3.589,-9.232,-0.608,-3.518,2.52,1.4,0.84
6511.0,-9.27,-0.617,-3.53,-9.215,-0.593,-3.69,2.66,1.61,0.77
,-9.268,-0.62,-3.522,-9.198,-0.622,-3.647,2.73,1.68,0.7
,-9.217,-0.598,-3.601,-9.203,-0.581,-3.656,2.66,1.54,0.63
,-9.237,-0.593,-3.623,-9.217,-0.584,-3.659,2.59,1.54,0.7
6587.0,-9.201,-0.581,-3.664,-9.239,-0.581,-3.546,2.87,1.19,0.7
,-9.225,-0.541,-3.62,-9.201,-0.55,-3.575,2.8,0.98,0.7
,-9.251,-0.589,-3.613,-9.232,-0.593,-3.568,2.87,1.05,0.7
,-9.263,-0.572,-3.609,-9.215,-0.692,-3.606,2.8,1.05,0.56
6662.0,-9.258,-0.653,-3.57,-9.275,-0.584,-3.589,2.94,1.19,0.63
,-9.265,-0.61,-3.551,-9.249,-0.589,-3.589,3.15,1.12,0.77
,-9.258,-0.591,-3.563,-9.258,-0.627,-3.637,3.22,1.19,0.7
,-9.239,-0.562,-3.52,-9.237,-0.627,-3.63,3.08,1.12,0.63
6738.0,-9.196,-0.632,-3.585,-9.239,-0.567,-3.558,2.8,1.19,0.7
,-9.229,-0.648,-3.537,-9.225,-0.622,-3.599,2.94,1.12,0.7
,-9.287,-0.629,-3.501,-9.194,-0.639,-3.606,2.87,1.05,0.63
,-9.268,-0.579,-3.53,-9.208,-0.603,-3.637,2.87,1.12,0.63
6814.0,-9.241,-0.665,-3.635,-9.282,-0.584,-3.448,2.94,1.4,0.77
,-9.208,-0.639,-3.515,-9.289,-0.593,-3.518,2.94,1.26,0.7
,-9.265,-0.637,-3.577,-9.244,-0.608,-3.501,3.01,1.33,0.7
,-9.275,-0.625,-3.436,-9.208,-0.665,-3.57,2.94,1.33,0.84
6890.0,-9.217,-0.653,-3.601,-9.246,-0.546,-3.661,2.59,1.68,0.7
,-9.239,-0.608,-3.609,-9.182,-0.601,-3.671,2.66,1.89,0.84
,-9.251,-0.574,-3.597,-9.194,-0.634,-3.702,2.59,1.89,0.77
,-9.241,-0.57,-3.656,-9.217,-0.627,-3.697,2.52,1.75,0.7
6966.0,-9.17,-0.586,-3.664,-9.263,-0.639,-3.486,2.87,1.12,0.7
,-9.261,-0.601,-3.606,-9.237,-0.653,-3.515,2.87,1.05,0.63
,-9.241,-0.634,-3.537,-9.249,-0.637,-3.534,3.01,1.33,0.77
,-9.263,-0.589,-3.527,-9.232,-0.651,-3.551,2.87,1.26,0.77
7041.0,-9.217,-0.613,-3.553,-9.198,-0.608,-3.618,2.94,1.54,0.91
,-9.251,-0.615,-3.568,-9.201,-0.67,-3.585,2.94,1.68,0.91
,-9.253,-0.596,-3.613,-9.191,-0.605,-3.587,2.87,1.61,0.91
,-9.213,-0.625,-3.604,-9.222,-0.543,-3.601,2.73,1.75,0.91
7117.0,-9.256,-0.562,-3.601,-9.213,-0.644,-3.556,2.52,1.47,0.84
,-9.186,-0.61,-3.558,-9.256,-0.591,-3.534,2.31,1.33,0.84
,-9.215,-0.684,-3.594,-9.201,-0.586,-3.52,2.38,1.4,0.84
,-9.201,-0.67,-3.585,-9.265,-0.55,-3.577,2.59,1.33,0.84
7192.0,-9.246,-0.579,-3.606,-9.189,-0.641,-3.649,2.17,1.26,0.56
,-9.241,-0.608,-3.64,-9.189,-0.639,-3.599,2.1,1.33,0.63
,-9.208,-0.644,-3.661,-9.237,-0.581,-3.587,2.31,1.4,0.77
,-9.201,-0.641,-3.664,-9.249,-0.57,-3.513,2.52,1.33,0.77
7268.0,-9.246,-0.581,-3.501,-9.227,-0.629,-3.575,2.66,1.26,0.91
,-9.241,-0.605,-3.491,-9.229,-0.603,-3.563,2.52,1.33,0.84
,-9.249,-0.617,-3.601,-9.22,-0.596,-3.549,2.59,1.33,0.7
,-9.241,-0.603,-3.582,-9.289,-0.596,-3.553,2.66,1.12,0.84
7344.0,-9.282,-0.622,-3.546,-9.268,-0.615,-3.664,2.52,1.4,0.84
,-9.241,-0.62,-3.594,-9.182,-0.66,-3.678,2.73,1.54,0.84
,-9.244,-0.605,-3.594,-9.208,-0.608,-3.659,2.73,1.61,0.84
,-9.261,-0.577,-3.589,-9.256,-0.61,-3.728,2.59,1.61,0.77
7420.0,-9.256,-0.543,-3.714,-9.246,-0.567,-3.537,2.66,0.84,0.7
,-9.21,-0.57,-3.69,-9.222,-0.615,-3.503,2.52,0.84,0.77
,-9.184,-0.596,-3.642,-9.246,-0.648,-3.501,2.45,0.77,0.7
,-9.237,-0.572,-3.577,-9.239,-0.627,-3.467,2.66,0.84,0.63
7495.0,-9.22,-0.67,-3.489,-9.256,-0.668,-3.527,2.38,1.19,0.7
,-9.232,-0.622,-3.496,-9.232,-0.62,-3.525,2.45,1.05,0.63
,-9.232,-0.656,-3.537,-9.273,-0.586,-3.582,2.45,1.33,0.77
,-9.253,-0.637,-3.496,-9.234,-0.62,-3.628,2.45,1.54,0.91
7571.0,-9.21,-0.622,-3.659,-9.191,-0.574,-3.664,2.45,1.61,0.84
,-9.225,-0.577,-3.704,-9.22,-0.615,-3.637,2.73,1.68,0.91
,-9.206,-0.574,-3.704,-9.237,-0.589,-3.656,2.8,1.4,0.91
,-9.225,-0.524,-3.723,-9.229,-0.579,-3.613,2.66,1.19,0.7
7647.0,-9.21,-0.625,-3.573,-9.292,-0.668,-3.479,3.01,0.84,0.77
,-9.206,-0.586,-3.506,-9.261,-0.629,-3.439,2.87,0.63,0.84
,-9.22,-0.637,-3.475,-9.258,-0.67,-3.513,2.8,0.77,0.91
,-9.289,-0.668,-3.429,-9.22,-0.581,-3.573,2.66,1.05,0.91
7723.0,-9.237,-0.579,-3.556,-9.215,-0.601,-3.594,2.87,1.68,0.84
,-9.237,-0.572,-3.568,-9.196,-0.577,-3.666,2.8,1.54,0.91
,-9.265,-0.495,-3.601,-9.234,-0.641,-3.647,2.59,1.4,0.84
,-9.234,-0.617,-3.573,-9.191,-0.629,-3.661,2.31,1.54,0.7
7798.0,-9.239,-0.584,-3.611,-9.234,-0.581,-3.558,2.17,1.19,0.63
,-9.225,-0.627,-3.573,-9.244,-0.586,-3.632,2.24,1.4,0.77
,-9.27,-0.593,-3.57,-9.229,-0.603,-3.599,2.17,1.33,0.7
,-9.208,-0.555,-3.644,-9.239,-0.593,-3.599,2.17,1.33,0.56
7874.0,-9.227,-0.608,-3.575,-9.251,-0.637,-3.551,2.59,1.33,0.7
,-9.229,-0.589,-3.537,-9.21,-0.641,-3.585,2.59,1.26,0.7
,-9.234,-0.589,-3.525,-9.227,-0.615,-3.644,2.52,1.4,0.77
,-9.256,-0.617,-3.565,-9.189,-0.629,-3.642,2.45,1.4,0.77
7949.0,-9.201,-0.637,-3.69,-9.27,-0.531,-3.573,2.66,1.33,0.77
,-9.174,-0.637,-3.678,-9.261,-0.536,-3.515,2.8,1.26,0.91
,-9.196,-0.589,-3.64,-9.256,-0.601,-3.522,2.94,1.26,0.84
,-9.237,-0.553,-3.597,-9.263,-0.629,-3.503,3.01,1.26,0.84
8025.0,-9.239,-0.632,-3.604,-9.296,-0.641,-3.623,2.66,1.4,0.7
,-9.234,-0.663,-3.616,-9.217,-0.605,-3.613,2.59,1.4,0.84
,-9.15,-0.639,-3.611,-9.227,-0.593,-3.599,2.59,1.4,0.84
,-9.225,-0.646,-3.635,-9.239,-0.562,-3.632,2.59,1.4,0.84
8101.0,-9.196,-0.615,-3.64,-9.213,-0.589,-3.62,2.87,1.19,0.84
,-9.194,-0.586,-3.632,-9.194,-0.603,-3.609,2.8,1.05,0.7
,-9.268,-0.543,-3.606,-9.201,-0.653,-3.542,2.87,1.05,0.77
,-9.239,-0.55,-3.654,-9.244,-0.641,-3.544,2.66,0.84,0.56
8177.0,-9.277,-0.598,-3.458,-9.246,-0.687,-3.553,2.66,0.77,0.63
,-9.241,-0.653,-3.501,-9.234,-0.603,-3.582,2.59,0.91,0.7
,-9.308,-0.617,-3.515,-9.196,-0.586,-3.544,2.59,1.05,0.7
,-9.249,-0.644,-3.534,-9.215,-0.632,-3.568,2.38,1.12,0.63
8253.0,-9.246,-0.562,-3.585,-9.229,-0.598,-3.673,2.31,1.54,0.56
,-9.265,-0.613,-3.604,-9.215,-0.596,-3.647,2.24,1.4,0.63
,-9.244,-0.593,-3.616,-9.244,-0.562,-3.611,2.31,1.47,0.63
,-9.251,-0.61,-3.652,-9.215,-0.581,-3.637,2.38,1.47,0.7
8328.0,-9.237,-0.613,-3.599,-9.229,-0.61,-3.551,2.59,0.91,0.7
,-9.253,-0.61,-3.577,-9.237,-0.593,-3.496,2.45,0.98,0.77
,-9.241,-0.625,-3.57,-9.258,-0.605,-3.46,2.52,0.98,0.98
,-9.237,-0.634,-3.546,-9.256,-0.581,-3.479,2.8,1.05,0.98
8404.0,-9.251,-0.627,-3.52,-9.208,-0.598,-3.63,2.59,1.19,0.98
,-9.299,-0.579,-3.589,-9.225,-0.593,-3.589,2.66,1.4,1.05
,-9.21,-0.593,-3.613,-9.244,-0.605,-3.52,2.59,1.26,1.05
,-9.215,-0.572,-3.628,-9.208,-0.629,-3.532,2.66,1.26,0.98
8480.0,-9.268,-0.577,-3.522,-9.258,-0.627,-3.642,3.01,1.4,0.98
,-9.292,-0.596,-3.501,-9.239,-0.61,-3.649,2.94,1.54,0.98
,-9.241,-0.596,-3.577,-9.208,-0.56,-3.625,2.87,1.61,1.05
,-9.237,-0.617,-3.568,-9.234,-0.617,-3.611,2.87,1.47,1.05
8556.0,-9.225,-0.613,-3.606,-9.258,-0.577,-3.448,2.94,1.05,0.84
,-9.217,-0.567,-3.625,-9.28,-0.55,-3.496,3.08,1.19,0.91
,-9.246,-0.579,-3.58,-9.246,-0.629,-3.52,3.08,1.05,0.91
,-9.227,-0.601,-3.491,-9.237,-0.644,-3.527,3.08,1.19,0.98
8631.0,-9.201,-0.663,-3.577,-9.256,-0.589,-3.503,2.87,1.68,0.84
,-9.206,-0.62,-3.604,-9.289,-0.586,-3.601,2.94,1.68,0.84
,-9.261,-0.61,-3.522,-9.268,-0.562,-3.599,3.01,1.68,0.98
,-9.27,-0.586,-3.501,-9.217,-0.625,-3.666,2.94,1.68,0.91
8707.0,-9.184,-0.574,-3.723,-9.249,-0.589,-3.704,2.94,1.61,0.77
,-9.21,-0.577,-3.728,-9.227,-0.584,-3.659,3.08,1.47,0.7
,-9.213,-0.546,-3.695,-9.215,-0.608,-3.561,2.87,1.26,0.63
,-9.261,-0.553,-3.74,-9.261,-0.555,-3.561,2.87,1.19,0.7
8782.0,-9.253,-0.581,-3.513,-9.251,-0.644,-3.498,3.01,0.91,0.56
,-9.241,-0.617,-3.475,-9.22,-0.591,-3.556,2.8,0.77,0.63
,-9.253,-0.593,-3.563,-9.189,-0.632,-3.429,2.94,0.84,0.42
,-9.22,-0.579,-3.498,-9.277,-0.637,-3.415,2.66,0.98,0.35
8858.0,-9.249,-0.617,-3.434,-9.198,-0.56,-3.64,2.38,1.82,0.49
,-9.313,-0.589,-3.439,-9.194,-0.565,-3.771,2.31,2.17,0.63
,-9.311,-0.579,-3.47,-9.186,-0.57,-3.745,1.96,2.1,0.42
,-9.206,-0.615,-3.563,-9.184,-0.548,-3.75,1.89,1.96,0.28
8934.0,-9.234,-0.541,-3.719,-9.21,-0.66,-3.609,1.96,1.12,0.28
,-9.217,-0.603,-3.721,-9.213,-0.637,-3.556,2.03,0.98,0.21
,-9.203,-0.658,-3.671,-9.225,-0.632,-3.506,2.1,0.84,0.14
,-9.165,-0.627,-3.628,-9.294,-0.637,-3.465,2.38,0.84,0.14
9010.0,-9.217,-0.651,-3.391,-9.198,-0.66,-3.513,2.66,1.19,0.49
,-9.198,-0.668,-3.479,-9.203,-0.632,-3.532,2.73,1.19,0.42
,-9.263,-0.67,-3.546,-9.229,-0.629,-3.525,2.87,1.33,0.42
,-9.275,-0.68,-3.498,-9.282,-0.565,-3.496,3.01,1.47,0.56
9086.0,-9.232,-0.603,-3.534,-9.174,-0.648,-3.735,2.94,1.89,0.84
,-9.273,-0.546,-3.597,-9.217,-0.591,-3.668,2.8,1.82,0.7
,-9.206,-0.608,-3.673,-9.22,-0.658,-3.613,2.38,1.82,0.49
,-9.225,-0.668,-3.709,-9.239,-0.603,-3.546,2.52,1.82,0.49
9161.0,-9.282,-0.613,-3.532,-9.217,-0.675,-3.594,2.59,1.47,0.63
,-9.27,-0.625,-3.539,-9.296,-0.613,-3.656,2.52,1.61,0.56
,-9.215,-0.61,-3.589,-9.196,-0.648,-3.647,2.52,1.4,0.56
,-9.237,-0.665,-3.609,-9.217,-0.692,-3.647,2.66,1.47,0.77
9237.0,-9.206,-0.632,-3.652,-9.191,-0.591,-3.57,2.73,1.05,0.49
,-9.28,-0.581,-3.647,-9.222,-0.617,-3.623,2.87,1.05,0.63
,-9.227,-0.675,-3.558,-9.263,-0.665,-3.659,2.8,0.98,0.63
,-9.234,-0.672,-3.549,-9.16,-0.663,-3.587,3.15,1.12,0.7
9313.0,-9.241,-0.785,-3.678,-9.27,-0.641,-3.443,3.71,1.12,0.98
,-9.217,-0.617,-3.553,-9.217,-0.627,-3.498,5.32,1.26,1.4
,-9.213,-0.55,-3.616,-9.237,-0.66,-3.553,4.69,1.19,1.12
,-9.244,-0.493,-3.477,-9.191,-0.577,-3.496,3.43,1.4,1.05
9389.0,-9.265,-0.596,-3.637,-9.206,-0.632,-3.659,2.66,1.54,0.77
,-9.239,-0.641,-3.63,-9.232,-0.608,-3.618,2.59,1.47,0.84
,-9.229,-0.596,-3.683,-9.22,-0.572,-3.58,2.45,1.4,0.77
,-9.263,-0.656,-3.637,-9.256,-0.596,-3.611,2.45,1.26,0.7
9464.0,-9.22,-0.627,-3.606,-9.256,-0.61,-3.606,2.24,0.98,0.49
,-9.213,-0.658,-3.565,-9.206,-0.668,-3.551,2.1,0.98,0.49
,-9.27,-0.627,-3.585,-9.289,-0.586,-3.57,2.24,0.98,0.42
,-9.203,-0.617,-3.599,-9.301,-0.601,-3.537,2.31,1.12,0.56
9540.0,-9.239,-0.572,-3.489,-9.21,-0.627,-3.594,2.17,1.05,0.56
,-9.196,-0.644,-3.491,-9.232,-0.653,-3.616,2.17,1.19,0.7
,-9.229,-0.663,-3.53,-9.234,-0.648,-3.589,2.24,1.12,0.63
,-9.234,-0.711,-3.549,-9.22,-0.622,-3.652,2.52,1.54,0.91
9615.0,-9.229,-0.579,-3.678,-9.239,-0.646,-3.549,3.15,0.98,0.7
,-9.234,-0.562,-3.709,-9.237,-0.66,-3.508,3.01,0.84,0.7
,-9.261,-0.613,-3.659,-9.203,-0.62,-3.513,2.94,0.91,0.77
,-9.215,-0.629,-3.611,-9.246,-0.675,-3.525,3.08,0.91,0.77
9691.0,-9.33,-0.598,-3.422,-9.237,-0.672,-3.518,2.59,0.84,0.77
,-9.165,-0.677,-3.484,-9.182,-0.646,-3.532,2.73,0.77,0.7
,-9.256,-0.605,-3.597,-9.251,-0.625,-3.575,2.66,1.19,0.77
,-9.251,-0.605,-3.527,-9.251,-0.62,-3.589,2.38,1.19,0.77
9767.0,-9.198,-0.66,-3.582,-9.227,-0.593,-3.575,2.66,1.26,0.7
,-9.253,-0.617,-3.649,-9.198,-0.648,-3.575,2.94,1.12,0.84
,-9.22,-0.656,-3.601,-9.189,-0.713,-3.522,2.87,1.12,0.91
,-9.198,-0.625,-3.599,-9.258,-0.663,-3.53,2.94,1.05,0.91
