Timestamp,AccX,AccY,AccZ,GyroX,GyroY,GyroZ,MagnX,MagnY,MagnZ
0.0,-9.028,1.433,-3.843,-8.921,1.503,-4.061,2.45,1.75,0.84
,-9.038,1.412,-3.881,-8.959,1.577,-4.015,2.8,1.82,1.05
,-8.985,1.421,-3.96,-8.976,1.5,-3.984,3.08,1.68,1.05
,-8.93,1.505,-4.092,-8.969,1.464,-3.929,3.08,1.26,0.98
76.0,-8.959,1.388,-3.908,-8.961,1.527,-3.991,2.66,1.47,0.98
,-8.995,1.393,-3.9,-8.921,1.56,-4.034,3.15,1.4,0.91
,-8.993,1.472,-3.972,-8.935,1.479,-3.991,3.43,1.26,0.98
,-8.933,1.531,-4.027,-8.976,1.464,-3.903,3.15,1.4,1.05
152.0,-8.997,1.481,-3.879,-8.981,1.546,-3.96,2.59,1.33,0.77
,-8.961,1.539,-3.92,-8.997,1.438,-3.924,2.87,1.47,0.91
,-8.952,1.464,-3.953,-8.957,1.455,-3.927,3.08,1.4,0.84
,-8.916,1.577,-3.924,-8.985,1.493,-3.917,2.94,1.4,0.63
227.0,-8.947,1.519,-3.922,-8.93,1.407,-4.022,3.08,1.75,0.84
,-8.99,1.536,-3.867,-8.904,1.481,-4.044,2.73,1.75,0.77
,-9.016,1.488,-3.884,-8.942,1.512,-3.994,2.59,1.61,0.7
,-9.04,1.414,-3.982,-8.959,1.522,-3.994,2.8,1.61,0.7
302.0,-9.009,1.472,-3.934,-8.978,1.522,-3.917,2.59,1.61,0.84
,-8.993,1.5,-3.924,-8.966,1.503,-3.9,2.73,1.33,0.63
,-9.002,1.472,-3.888,-9.012,1.529,-3.92,2.94,1.54,0.7
,-8.983,1.529,-3.872,-8.916,1.582,-3.905,2.94,1.82,0.7
378.0,-8.973,1.51,-3.944,-9.05,1.457,-4.001,1.89,2.03,0.35
,-8.904,1.512,-3.929,-8.914,1.371,-3.932,1.89,2.03,0.21
,-8.954,1.505,-4.008,-8.983,1.395,-3.874,1.82,1.96,0.21
,-8.909,1.378,-3.862,-8.954,1.381,-3.879,1.75,2.24,0.21
454.0,-9.012,1.335,-3.733,-8.842,1.661,-3.867,3.5,2.1,0.7
,-9.009,1.481,-3.759,-8.923,1.555,-3.738,4.76,2.31,0.7
,-8.995,1.5,-3.807,-8.966,1.402,-3.728,4.97,2.52,0.84
,-8.909,1.486,-3.759,-8.938,1.433,-3.678,5.18,2.73,0.91
530.0,-8.99,1.421,-3.726,-8.961,1.548,-4.259,6.23,3.71,0.63
,-8.983,1.376,-3.759,-9.007,1.426,-4.262,6.86,3.85,0.98
,-8.93,1.424,-3.872,-8.933,1.285,-4.178,7.49,3.85,0.98
,-8.99,1.426,-4.106,-9.009,1.405,-4.267,7.77,3.64,1.12
606.0,-8.966,1.34,-4.413,-8.954,1.326,-4.243,6.09,2.87,1.12
,-8.926,1.273,-4.3,-8.949,1.429,-4.212,6.09,2.66,1.19
,-8.94,1.371,-4.322,-8.935,1.431,-4.19,6.72,2.1,1.19
,-8.988,1.397,-4.362,-9.016,1.345,-4.176,6.65,1.82,1.26
681.0,-8.952,1.34,-4.36,-8.909,1.613,-4.173,5.74,0.42,1.68
,-8.882,1.35,-4.422,-8.952,1.529,-4.046,5.88,0.14,1.82
,-8.933,1.517,-4.47,-8.981,1.417,-3.999,5.81,-0.21,1.68
,-8.863,1.524,-4.259,-8.945,1.407,-3.991,5.25,-0.21,1.54
757.0,-8.899,1.448,-3.915,-8.911,1.572,-3.941,4.27,-0.42,0.91
,-8.914,1.457,-3.92,-8.957,1.673,-3.941,4.41,-0.42,0.77
,-8.93,1.515,-3.984,-8.978,1.646,-3.862,4.55,-0.35,0.7
,-8.916,1.443,-3.979,-9.009,1.431,-3.85,4.62,-0.35,0.7
833.0,-8.997,1.184,-3.857,-8.997,1.553,-4.171,1.12,0.35,-0.28
,-9.0,1.072,-3.92,-8.89,1.543,-4.185,3.15,0.35,0.21
,-8.918,1.235,-4.013,-8.971,1.596,-4.094,4.97,0.21,0.35
,-8.839,1.455,-3.984,-9.105,1.417,-4.152,5.81,0.07,0.28
909.0,-9.036,1.323,-4.281,-8.854,1.493,-4.678,1.89,0.28,-0.77
,-8.947,1.295,-4.393,-8.861,1.57,-4.573,2.52,0.07,-0.56
,-8.902,1.242,-4.618,-8.961,1.575,-4.391,3.08,-0.77,-0.49
,-8.815,1.362,-4.649,-9.007,1.536,-4.19,3.71,-1.47,-0.21
984.0,-9.0,1.385,-4.054,-9.074,1.397,-3.805,-0.42,-4.2,-0.84
,-9.04,1.335,-3.939,-9.012,1.426,-3.711,-0.07,-4.69,-0.7
,-9.038,1.314,-3.845,-8.918,1.412,-3.573,0.98,-4.83,-0.56
,-9.045,1.371,-3.814,-9.086,1.393,-3.522,1.96,-4.97,-0.49
1060.0,-9.136,1.338,-3.556,-9.05,1.393,-3.431,2.73,-4.13,-0.49
,-8.995,1.388,-3.508,-9.052,1.163,-3.357,3.64,-3.5,-0.42
,-8.918,1.579,-3.491,-9.021,1.275,-3.412,3.99,-2.87,-0.77
,-8.995,1.632,-3.336,-9.002,1.436,-3.532,2.73,-2.03,-1.19
1135.0,-9.036,1.584,-3.503,-9.213,0.912,-3.29,5.11,0.35,-0.98
,-9.031,1.479,-3.352,-9.036,0.9,-3.52,3.22,1.12,-1.33
,-9.141,1.338,-3.23,-8.993,1.017,-3.699,1.82,1.96,-1.54
,-9.208,1.067,-3.113,-8.861,1.263,-3.932,2.03,2.45,-1.47
1211.0,-8.88,1.584,-3.903,-9.299,1.012,-2.8,8.54,3.29,0.7
,-8.902,1.692,-3.781,-9.28,0.684,-2.924,6.16,3.99,0.35
,-9.067,1.57,-3.465,-9.098,0.658,-3.235,2.94,4.83,0.0
,-9.253,1.314,-3.168,-8.868,0.873,-3.704,1.05,5.88,-0.21
1287.0,-8.756,1.161,-3.867,-8.906,1.28,-3.458,14.14,7.21,2.17
,-8.995,1.385,-3.922,-8.823,1.371,-3.805,13.65,7.7,1.96
,-9.072,1.412,-3.561,-8.827,1.656,-4.14,12.11,8.47,1.96
,-9.124,1.421,-3.491,-8.818,1.685,-3.92,11.41,9.24,2.1
1363.0,-9.026,1.407,-3.266,-8.279,1.653,-3.891,2.38,13.79,0.42
,-9.048,0.933,-2.912,-8.368,2.391,-3.573,-0.35,14.49,0.91
,-8.815,0.536,-3.336,-8.748,2.192,-2.685,2.59,13.72,2.03
,-8.287,0.823,-3.855,-9.081,1.498,-2.508,8.89,13.09,2.52
1438.0,-9.088,0.586,-2.23,-8.629,0.864,-3.553,-6.3,23.73,-0.14
,-9.433,0.292,-2.575,-7.935,0.57,-3.812,0.0,23.73,0.42
,-9.732,0.663,-2.783,-7.959,0.859,-3.932,7.84,24.43,1.12
,-9.34,0.933,-3.056,-8.265,1.366,-3.865,11.55,26.32,1.89
1514.0,-8.514,1.649,-3.695,-8.026,2.123,-4.381,13.51,29.68,2.59
,-8.634,1.804,-3.984,-8.332,2.283,-4.228,14.21,29.89,2.24
,-8.289,1.85,-4.192,-8.732,2.321,-4.384,15.33,30.8,2.1
,-7.964,2.048,-4.305,-8.581,2.022,-5.025,15.75,32.62,1.4
1590.0,-8.777,1.637,-5.745,-7.609,0.692,-7.286,5.18,32.27,-6.23
,-8.966,1.079,-6.351,-8.129,1.591,-6.935,3.78,29.4,-5.53
,-8.76,0.541,-6.817,-9.115,2.331,-6.133,4.69,26.6,-4.69
,-8.119,0.376,-7.248,-9.497,2.486,-5.585,8.26,24.57,-4.55
1666.0,-8.32,1.878,-5.528,-7.978,0.029,-5.992,5.18,17.15,-4.62
,-8.136,1.601,-5.578,-8.122,-0.311,-6.009,5.18,15.54,-6.58
,-7.947,1.117,-6.035,-8.009,-0.297,-6.114,4.2,14.42,-8.12
,-7.887,0.558,-5.949,-7.98,0.096,-5.966,3.71,13.79,-8.68
1742.0,-7.81,0.39,-5.827,-8.586,1.299,-4.635,15.68,8.61,-5.18
,-7.961,0.756,-5.516,-8.878,0.888,-4.853,13.37,9.87,-5.25
,-8.026,1.22,-5.056,-9.308,0.328,-5.121,10.15,11.27,-5.25
,-8.131,1.455,-4.573,-9.397,-0.194,-5.245,6.58,12.88,-5.04
1817.0,-9.165,-0.404,-5.48,-8.397,0.45,-5.86,7.42,13.02,-2.1
,-8.32,-0.134,-5.499,-8.315,0.579,-5.47,11.55,13.02,-1.33
,-8.138,0.553,-5.607,-7.997,0.761,-5.468,14.63,11.48,-1.05
,-7.909,0.538,-5.987,-7.94,0.756,-5.542,12.53,9.1,-0.98
1893.0,-7.808,0.948,-5.731,-8.318,0.345,-6.049,12.67,4.13,-0.28
,-7.76,0.852,-6.013,-8.442,0.505,-5.654,12.32,5.74,-0.56
,-7.947,0.668,-6.21,-8.344,0.522,-5.499,10.71,7.35,-0.21
,-8.244,0.445,-6.198,-8.083,0.682,-5.463,9.52,8.61,0.77
1968.0,-8.038,0.747,-5.298,-8.325,1.393,-5.58,10.36,6.16,2.03
,-7.959,0.687,-5.348,-8.325,1.493,-5.666,9.38,6.58,2.45
,-7.968,0.869,-5.343,-8.074,1.503,-5.719,8.96,7.84,2.52
,-8.119,1.228,-5.408,-7.954,1.493,-5.968,8.96,9.31,2.1
2044.0,-8.007,1.484,-6.176,-8.124,0.893,-5.621,1.4,8.54,-1.75
,-8.346,1.244,-6.183,-7.978,0.689,-5.398,-0.98,8.4,-2.31
,-8.256,0.883,-6.26,-7.959,0.565,-5.573,-3.15,8.19,-2.03
,-8.191,0.699,-5.76,-8.105,0.625,-5.671,-4.69,9.31,-1.33
2120.0,-8.323,0.792,-5.631,-7.703,0.699,-6.135,-6.86,7.98,-0.98
,-8.1,0.797,-5.688,-7.851,1.079,-6.119,-8.96,8.19,-0.42
,-8.112,0.656,-5.765,-8.547,1.165,-5.899,-11.13,8.12,0.14
,-7.612,0.651,-5.949,-8.107,1.206,-6.044,-12.18,7.77,-0.35
2196.0,-8.143,1.039,-6.171,-8.246,1.807,-5.985,-22.26,6.23,1.47
,-7.736,1.019,-6.229,-8.186,1.931,-6.054,-22.61,6.37,0.84
,-7.849,1.232,-6.183,-8.069,1.828,-5.93,-23.59,7.0,-0.49
,-7.708,1.527,-6.15,-7.612,1.24,-6.107,-25.27,7.28,-0.63
2271.0,-7.794,0.672,-6.176,-8.26,0.481,-5.985,-29.68,4.06,-3.78
,-7.968,0.57,-6.224,-8.409,0.211,-5.765,-27.65,3.15,-4.13
,-7.952,0.591,-6.224,-8.145,0.194,-5.889,-25.83,3.57,-3.57
,-8.172,0.572,-6.054,-8.162,0.297,-5.827,-25.69,4.13,-2.66
2347.0,-8.023,0.354,-5.884,-7.992,1.661,-6.104,-18.41,4.13,2.8
,-8.279,0.67,-5.731,-7.794,1.484,-6.243,-16.66,5.25,3.01
,-8.124,1.019,-5.693,-7.784,1.496,-5.808,-16.1,5.81,3.22
,-8.148,1.441,-5.841,-7.968,1.546,-5.829,-16.8,6.65,3.5
2423.0,-7.739,1.548,-6.229,-7.889,2.12,-6.21,-12.81,0.42,0.84
,-7.868,1.826,-6.102,-7.791,2.118,-5.879,-10.01,-0.21,0.42
,-8.021,2.008,-6.083,-7.827,1.986,-5.654,-10.57,0.0,0.91
,-7.882,2.096,-6.234,-7.825,1.933,-5.652,-10.15,-0.28,1.96
2499.0,-7.935,1.701,-5.666,-7.959,1.113,-5.525,-17.08,5.67,-1.68
,-7.729,1.591,-5.951,-7.94,1.046,-5.552,-17.99,7.21,-2.45
,-7.777,1.067,-5.712,-8.122,1.194,-5.657,-19.53,7.07,-2.94
,-7.717,1.024,-5.7,-8.737,0.876,-4.992,-18.06,6.65,-2.73
2575.0,-8.251,0.869,-5.217,-8.004,1.45,-6.583,-6.09,-3.85,-2.45
,-8.162,1.113,-5.772,-8.035,0.701,-5.75,-3.08,-6.65,-2.31
,-7.76,0.823,-5.841,-8.043,0.34,-5.047,-0.07,-8.4,-1.96
,-7.822,0.749,-6.021,-8.019,1.153,-5.614,1.4,-8.4,-1.61
2650.0,-7.923,1.503,-6.097,-7.94,1.981,-6.638,4.76,-8.82,1.4
,-8.15,1.455,-6.178,-7.712,1.974,-6.458,1.96,-7.7,3.99
,-8.198,1.441,-5.932,-8.366,1.211,-5.561,-1.19,-6.79,5.67
,-8.193,1.364,-5.987,-8.423,1.517,-5.999,-2.38,-6.3,6.23
2726.0,-8.842,1.311,-6.487,-8.074,1.414,-5.568,-0.84,-7.28,6.93
,-7.808,0.976,-5.726,-8.215,1.139,-5.8,-2.8,-9.17,6.44
,-8.167,2.601,-7.545,-8.373,0.656,-5.619,-0.28,-8.75,6.23
,-7.947,1.704,-6.047,-8.385,0.471,-5.355,-1.61,-8.19,6.37
2801.0,-8.244,0.565,-5.274,-8.162,2.046,-5.339,4.83,-9.31,8.05
,-7.815,1.369,-5.492,-8.064,2.192,-5.011,8.05,-10.01,7.91
,-7.763,1.826,-5.573,-7.827,2.099,-4.865,7.91,-8.82,8.33
,-8.088,1.768,-5.542,-7.731,1.907,-5.025,5.88,-7.84,9.1
2877.0,-7.72,1.943,-5.312,-8.413,1.651,-5.073,9.03,-4.41,6.93
,-8.045,1.981,-5.339,-8.282,1.855,-4.872,9.59,-3.01,6.44
,-8.39,1.905,-5.336,-8.083,1.866,-4.884,9.38,-2.59,6.44
,-8.425,1.728,-5.422,-8.069,1.835,-5.128,9.73,-2.31,6.51
2953.0,-8.1,1.883,-5.288,-8.148,1.584,-5.19,13.3,1.26,5.6
,-8.361,1.706,-5.291,-7.906,1.61,-5.334,12.39,2.17,5.95
,-8.413,1.682,-5.439,-7.822,1.847,-5.219,12.25,2.52,6.23
,-8.296,1.673,-5.319,-7.997,1.996,-5.274,12.04,3.71,6.37
3029.0,-8.074,2.046,-5.36,-7.904,2.221,-4.968,13.16,3.01,4.55
,-8.033,2.032,-5.348,-7.552,2.067,-5.097,12.67,3.57,4.34
,-8.086,2.156,-5.188,-7.724,1.756,-4.934,12.53,3.43,3.64
,-7.909,2.261,-5.114,-8.062,1.711,-5.056,11.97,3.29,2.73
3104.0,-8.44,1.424,-5.135,-7.851,0.919,-5.334,11.69,6.44,2.59
,-8.765,1.015,-4.944,-8.27,1.347,-5.374,12.11,7.35,2.87
,-8.55,0.658,-4.939,-8.291,1.508,-5.434,14.91,6.86,2.8
,-8.014,0.562,-4.98,-8.043,1.268,-5.578,17.99,6.37,3.29
3180.0,-8.028,1.232,-5.489,-7.966,1.912,-6.037,19.25,11.83,6.58
,-8.172,1.338,-5.619,-7.932,2.144,-6.229,21.63,11.27,6.51
,-8.078,1.63,-5.784,-8.021,2.295,-6.047,23.59,11.13,6.09
,-8.045,1.788,-5.908,-7.913,2.247,-5.81,24.5,11.13,5.32
3256.0,-7.839,2.197,-5.812,-8.392,1.366,-6.281,21.56,10.22,0.91
,-7.964,1.862,-5.757,-8.265,1.273,-6.274,20.09,10.64,0.28
,-8.076,2.017,-6.222,-8.337,1.278,-6.121,19.18,10.92,0.14
,-8.514,1.764,-6.229,-8.102,1.345,-6.279,17.15,10.85,0.35
3332.0,-8.26,1.094,-6.234,-7.921,1.675,-6.432,13.79,7.91,0.56
,-7.875,1.247,-6.463,-7.942,1.874,-6.48,16.8,6.09,-0.63
,-7.65,1.536,-6.411,-7.954,1.893,-6.628,20.16,4.9,-2.24
,-7.763,1.598,-6.291,-7.844,1.589,-6.485,22.12,3.92,-2.52
3408.0,-7.787,1.634,-6.573,-8.002,1.577,-6.399,24.15,-0.7,-4.48
,-7.597,1.984,-6.619,-7.971,1.474,-6.368,24.78,-0.35,-5.11
,-7.743,1.926,-6.566,-7.736,1.424,-6.286,21.7,-0.77,-5.46
,-7.897,1.711,-6.358,-7.916,1.333,-6.43,18.41,-1.68,-5.74
3483.0,-7.918,1.347,-6.456,-8.033,0.857,-6.152,9.87,-5.04,-2.87
,-7.746,1.182,-6.341,-8.177,0.926,-6.188,6.86,-4.97,-2.03
,-8.157,0.806,-6.14,-8.143,0.95,-5.834,5.6,-6.02,-1.54
,-8.059,0.78,-6.159,-8.014,0.792,-6.159,5.81,-7.07,-1.05
3559.0,-7.83,0.792,-6.097,-8.055,0.833,-6.083,-1.61,-9.38,4.06
,-7.877,0.864,-6.042,-7.992,0.814,-6.109,-3.22,-8.61,4.83
,-8.122,0.727,-6.013,-8.031,0.986,-5.808,-4.83,-7.63,5.32
,-8.138,0.718,-5.932,-8.131,1.256,-5.741,-5.25,-6.93,6.23
3634.0,-8.167,1.019,-5.635,-8.136,1.4,-5.755,-6.58,-7.49,9.59
,-8.09,0.96,-5.616,-8.27,1.486,-5.781,-4.97,-9.31,8.89
,-8.071,0.967,-5.547,-8.145,1.438,-5.846,-2.52,-10.85,8.26
,-8.066,1.137,-5.619,-7.978,1.225,-5.827,0.49,-12.18,7.7
3710.0,-7.801,0.998,-5.719,-8.806,0.78,-5.233,1.54,-14.7,8.05
,-7.94,0.704,-5.499,-8.725,0.907,-5.279,1.89,-15.12,9.03
,-8.217,0.483,-5.497,-8.593,0.981,-5.095,3.85,-16.24,9.94
,-8.533,0.605,-5.315,-8.248,1.151,-5.281,6.44,-16.45,10.64
3786.0,-8.04,1.412,-5.47,-8.251,1.62,-5.219,15.26,-20.3,13.51
,-8.124,1.632,-5.276,-8.071,1.941,-5.169,14.91,-19.74,13.51
,-8.323,1.656,-5.171,-8.174,2.19,-5.123,14.28,-20.37,13.44
,-8.263,1.637,-5.298,-8.387,2.242,-4.946,14.35,-20.37,13.37
3862.0,-8.543,1.972,-4.968,-8.239,2.091,-5.243,13.23,-21.07,10.64
,-8.43,1.591,-5.018,-8.102,2.331,-5.305,13.44,-22.47,9.52
,-8.263,1.395,-5.324,-8.059,1.924,-5.217,15.26,-22.89,9.17
,-8.059,1.586,-5.382,-8.167,1.46,-5.355,17.08,-22.05,9.1
3937.0,-8.107,1.192,-5.298,-8.385,2.01,-4.824,7.56,-21.07,5.25
,-8.394,1.524,-5.049,-7.911,1.761,-4.719,8.33,-20.51,4.97
,-8.361,1.862,-4.879,-8.122,1.732,-4.671,8.19,-19.95,4.34
,-8.516,2.087,-4.542,-8.567,1.752,-4.496,5.81,-19.53,3.29
4013.0,-8.938,1.536,-4.427,-8.279,1.342,-4.664,-2.8,-20.72,-1.96
,-8.859,1.311,-4.257,-8.387,1.515,-4.602,-2.87,-20.44,-1.96
,-8.823,1.496,-4.207,-8.461,1.639,-4.197,-2.24,-19.95,-1.96
,-8.686,1.519,-4.503,-8.693,1.61,-4.032,-2.45,-19.95,-1.75
4089.0,-8.629,1.462,-3.893,-8.847,1.029,-3.726,-11.83,-15.96,-4.83
,-8.679,1.364,-3.774,-8.516,1.357,-4.056,-11.27,-15.82,-5.46
,-8.966,1.268,-3.661,-8.277,1.575,-4.094,-11.13,-14.84,-5.67
,-9.038,1.108,-3.714,-8.387,1.615,-4.018,-10.01,-14.49,-4.62
4165.0,-8.844,1.615,-3.96,-8.94,0.237,-3.652,-12.6,-12.46,-3.85
,-9.127,1.24,-3.69,-9.005,0.732,-3.802,-15.89,-11.2,-3.85
,-9.402,0.656,-3.687,-9.086,1.192,-3.68,-17.5,-10.64,-3.15
,-9.179,0.084,-3.776,-9.093,1.419,-3.723,-14.63,-11.55,-1.61
4241.0,-8.88,1.359,-3.671,-9.127,1.718,-3.338,-3.43,-9.1,2.94
,-8.851,1.426,-3.735,-9.158,1.838,-2.967,-3.71,-9.03,3.71
,-8.701,1.345,-3.628,-9.308,1.594,-3.159,-3.29,-8.75,4.69
,-8.873,1.414,-3.441,-9.009,1.216,-3.362,-2.03,-7.7,4.69
4316.0,-8.863,1.206,-3.503,-9.15,1.656,-3.345,3.36,-7.0,5.81
,-9.002,1.228,-3.702,-9.189,1.354,-3.446,5.04,-6.86,6.16
,-8.997,1.481,-3.8,-9.162,1.079,-3.661,5.67,-6.23,6.23
,-9.189,1.737,-3.518,-8.832,1.316,-3.788,3.22,-4.13,5.46
4392.0,-8.93,2.005,-3.824,-9.062,1.725,-3.503,6.02,-4.69,6.51
,-8.892,2.469,-3.771,-9.119,1.586,-3.546,4.83,-4.41,5.95
,-8.808,2.424,-3.534,-8.971,1.603,-3.522,1.19,-3.85,5.18
,-9.019,2.075,-3.482,-8.88,1.802,-3.539,-1.47,-3.78,4.69
4467.0,-8.926,1.91,-3.527,-9.139,1.639,-3.558,2.87,-3.22,3.43
,-8.985,1.79,-3.549,-8.83,1.764,-3.367,1.33,-3.29,3.29
,-9.045,1.658,-3.393,-8.928,2.041,-3.345,1.75,-3.08,3.15
,-9.105,1.539,-3.3,-8.966,2.178,-3.331,2.45,-2.66,2.94
4543.0,-9.014,1.948,-3.317,-9.024,1.752,-3.264,0.7,-0.49,2.45
,-8.959,1.68,-3.281,-9.05,2.077,-3.183,-0.21,0.28,1.96
,-9.057,1.546,-3.408,-9.122,2.237,-3.139,0.14,0.42,1.82
,-9.098,1.531,-3.288,-9.136,1.9,-3.156,2.03,0.35,1.96
4619.0,-9.203,1.302,-3.637,-8.921,2.197,-4.558,1.61,2.17,0.63
,-9.0,0.931,-4.032,-8.964,2.125,-4.147,5.32,1.12,1.26
,-8.844,1.366,-4.219,-9.052,1.855,-3.955,9.1,0.98,1.4
,-8.93,1.948,-4.657,-9.021,1.608,-3.75,9.17,0.42,1.26
4695.0,-9.076,1.474,-3.788,-8.914,2.008,-3.168,-4.27,-1.05,-0.49
,-8.942,1.426,-3.747,-8.957,2.003,-2.706,-2.31,-1.4,-0.14
,-8.854,1.646,-3.58,-9.146,1.883,-2.424,-1.26,-1.05,-0.07
,-8.878,1.914,-3.388,-9.213,1.682,-2.381,-1.4,-0.63,-0.42
4770.0,-9.237,1.429,-2.388,-9.048,1.62,-3.606,1.12,3.92,-0.63
,-9.287,1.397,-2.67,-8.973,1.658,-3.877,4.27,4.62,-0.35
,-9.251,1.438,-3.02,-9.1,1.732,-4.082,7.07,4.97,0.0
,-9.026,1.522,-3.218,-9.165,1.618,-4.338,8.61,5.6,0.21
4846.0,-9.045,1.575,-4.554,-9.033,1.948,-3.723,7.28,3.99,0.63
,-8.832,1.835,-4.52,-9.186,1.433,-3.613,7.14,3.64,0.56
,-8.859,2.099,-4.305,-9.198,1.201,-3.467,5.39,3.57,0.0
,-8.954,2.199,-4.049,-9.095,1.39,-3.439,1.61,3.71,-0.56
4921.0,-9.088,1.68,-3.475,-9.201,1.424,-3.453,2.52,3.36,-0.28
,-9.019,1.816,-3.391,-9.036,1.33,-3.589,2.1,3.71,0.0
,-9.036,1.716,-3.271,-8.916,1.558,-3.798,1.54,4.2,0.0
,-9.177,1.529,-3.29,-8.882,1.878,-3.946,2.03,4.27,0.35
4997.0,-8.938,1.907,-4.101,-8.916,1.912,-3.991,6.65,3.78,0.77
,-9.036,1.74,-4.259,-8.947,1.924,-3.802,4.41,3.22,0.42
,-8.935,1.61,-4.317,-9.074,1.742,-3.642,3.57,2.94,0.35
,-8.892,1.732,-4.188,-9.079,1.56,-3.503,3.29,2.87,0.14
5073.0,-9.208,1.381,-3.568,-8.952,1.811,-3.915,0.77,2.73,0.0
,-9.103,1.287,-3.774,-9.002,1.728,-3.879,2.66,2.03,0.49
,-8.995,1.362,-3.824,-9.005,1.503,-3.8,4.41,2.1,0.77
,-8.904,1.618,-3.903,-9.076,1.374,-3.774,4.9,2.38,0.84
5149.0,-9.019,1.357,-3.788,-9.026,1.749,-3.69,3.08,1.75,0.91
,-9.005,1.541,-3.759,-9.033,1.649,-3.685,4.9,1.75,1.26
,-9.04,1.685,-3.723,-9.069,1.601,-3.625,5.39,1.82,1.26
,-9.002,1.797,-3.723,-9.048,1.524,-3.587,4.69,1.96,1.12
5225.0,-9.028,1.675,-3.709,-8.909,1.747,-3.843,4.9,2.31,1.26
,-8.978,1.857,-3.793,-8.957,1.675,-3.79,5.46,2.17,1.19
,-9.091,1.835,-3.8,-9.0,1.675,-3.778,4.69,2.24,0.91
,-8.897,1.847,-3.884,-9.028,1.591,-3.709,4.34,2.17,0.91
5300.0,-9.052,1.618,-3.747,-8.964,1.711,-3.733,2.66,2.45,0.28
,-9.014,1.685,-3.778,-9.028,1.567,-3.759,3.01,2.59,0.21
,-9.026,1.721,-3.824,-9.016,1.527,-3.79,2.87,2.8,0.14
,-8.918,1.737,-3.709,-9.019,1.493,-3.793,2.38,3.01,0.21
5376.0,-8.93,1.62,-3.91,-8.906,1.656,-3.544,4.55,2.59,0.28
,-8.894,1.776,-3.829,-8.969,1.663,-3.475,3.71,2.8,-0.14
,-8.99,1.797,-3.743,-9.005,1.642,-3.386,2.38,3.08,-0.42
,-8.926,1.716,-3.702,-9.067,1.57,-3.372,1.4,3.22,-0.56
5452.0,-9.107,1.584,-3.436,-9.009,1.311,-4.037,2.38,5.11,-0.63
,-9.05,1.524,-3.419,-8.971,1.424,-4.137,3.36,5.04,-0.42
,-9.122,1.479,-3.671,-8.947,1.618,-4.233,3.99,4.97,-0.07
,-9.098,1.364,-3.872,-9.016,1.601,-4.532,5.6,4.55,0.7
5528.0,-8.878,1.443,-4.487,-8.926,1.754,-4.379,5.04,3.15,0.84
,-8.902,1.531,-4.439,-8.973,1.716,-4.271,4.13,2.87,0.84
,-8.928,1.63,-4.525,-8.997,1.62,-4.293,4.06,2.31,0.7
,-8.873,1.766,-4.487,-8.981,1.584,-4.295,3.43,1.96,0.56
5603.0,-8.902,1.519,-4.3,-9.014,1.598,-3.97,0.77,-0.49,-0.21
,-8.897,1.634,-4.216,-8.938,1.57,-3.788,0.63,-0.77,-0.21
,-8.928,1.692,-4.111,-8.94,1.577,-3.726,-0.07,-1.12,-0.42
,-9.007,1.689,-4.034,-8.894,1.651,-3.604,-0.91,-1.33,-0.42
5679.0,-8.988,1.665,-3.707,-8.964,1.594,-3.594,0.49,-1.26,-0.77
,-8.961,1.5,-3.448,-8.954,1.725,-3.563,0.42,-0.84,-0.56
,-9.076,1.452,-3.63,-8.985,1.809,-3.642,1.12,-0.77,-0.35
,-8.957,1.479,-3.513,-8.933,1.799,-3.587,2.17,-0.28,-0.28
5754.0,-8.935,1.749,-3.522,-9.012,1.448,-3.441,0.28,1.47,-1.75
,-8.947,1.68,-3.458,-8.966,1.433,-3.525,0.14,1.82,-2.17
,-8.952,1.661,-3.405,-8.892,1.56,-3.64,0.0,2.59,-2.31
,-9.062,1.536,-3.372,-8.856,1.752,-3.467,0.14,2.94,-2.52
5830.0,-8.918,1.907,-3.458,-9.021,1.184,-3.807,2.73,5.39,-3.43
,-9.024,1.732,-3.34,-8.804,1.524,-3.824,1.05,5.67,-3.78
,-9.244,1.395,-3.434,-8.839,1.823,-3.8,0.49,5.74,-3.64
,-9.239,1.089,-3.532,-8.961,1.663,-3.764,2.87,5.39,-3.01
5906.0,-9.064,1.22,-3.807,-8.823,1.855,-2.9,1.96,7.35,-3.01
,-8.921,0.859,-3.403,-8.866,1.893,-2.632,2.87,8.26,-2.66
,-9.007,1.05,-3.573,-8.973,1.488,-2.266,6.93,8.33,-2.52
,-8.849,1.407,-3.309,-8.954,0.919,-3.259,10.57,9.59,-2.52
5982.0,-8.488,0.531,-3.632,-9.349,1.673,-2.864,10.64,14.07,-1.75
,-8.538,0.945,-3.673,-9.162,1.055,-2.778,14.21,15.89,-2.59
,-8.921,1.713,-3.434,-8.969,0.603,-3.326,15.05,17.64,-3.36
,-9.184,1.929,-2.915,-8.67,0.464,-3.814,10.43,20.16,-3.64
6058.0,-8.38,0.912,-4.19,-8.737,1.015,-4.018,19.25,22.82,-0.35
,-8.191,1.546,-4.331,-8.806,0.522,-4.195,18.76,24.71,-0.84
,-8.358,1.938,-4.111,-8.952,0.409,-3.865,12.46,27.02,-1.61
,-8.667,1.716,-4.271,-9.337,0.268,-4.159,4.62,27.51,-1.61
6133.0,-9.399,0.136,-4.374,-7.71,2.496,-5.554,7.84,24.29,4.41
,-9.05,0.34,-5.023,-7.875,3.264,-5.671,15.4,22.19,6.58
,-8.373,0.723,-5.085,-8.172,3.515,-5.47,20.37,21.84,6.93
,-8.04,1.637,-5.341,-8.638,3.154,-5.552,23.31,20.93,6.16
6209.0,-9.062,2.587,-5.552,-8.04,0.955,-6.236,2.31,14.35,-1.12
,-8.751,1.807,-5.683,-8.162,0.653,-5.879,1.05,13.51,-2.38
,-8.531,1.419,-5.836,-8.342,0.639,-5.415,2.31,12.88,-3.64
,-8.457,1.153,-5.884,-8.373,0.51,-4.908,4.9,11.13,-4.83
6285.0,-8.354,0.885,-4.465,-9.095,1.275,-4.487,0.84,13.72,-2.45
,-8.282,1.218,-4.255,-8.949,1.182,-4.654,1.54,13.93,-2.24
,-8.37,1.4,-4.391,-9.057,1.22,-4.786,1.26,13.86,-2.38
,-8.763,1.448,-4.468,-8.856,0.957,-5.126,0.56,13.72,-3.22
6361.0,-8.588,0.849,-5.164,-8.619,-0.531,-5.607,6.86,11.06,-2.59
,-8.382,0.821,-5.284,-8.143,0.074,-5.264,7.0,10.64,-2.17
,-8.224,0.419,-5.681,-8.179,0.739,-4.755,4.2,9.66,-1.26
,-8.543,-0.242,-5.69,-8.332,1.06,-4.941,2.31,7.91,0.63
6436.0,-8.296,1.153,-4.994,-8.531,1.73,-4.915,9.59,9.38,5.18
,-8.157,1.505,-4.877,-8.5,1.352,-5.341,9.45,10.43,4.83
,-7.932,1.718,-4.984,-8.485,0.96,-5.439,9.24,11.83,3.92
,-8.076,1.821,-4.932,-8.301,0.806,-5.863,8.12,13.72,2.94
6512.0,-8.174,0.859,-5.925,-8.153,1.876,-5.776,7.07,11.76,1.33
,-7.976,1.33,-5.822,-7.863,1.699,-5.891,7.98,12.18,0.56
,-8.198,2.012,-5.456,-7.595,1.838,-5.889,7.49,13.16,0.35
,-8.404,2.024,-5.377,-7.877,1.785,-5.769,2.73,12.81,0.07
6587.0,-8.528,1.388,-5.374,-8.5,1.24,-5.793,-4.34,14.98,-3.43
,-8.476,0.983,-5.53,-8.557,1.266,-5.396,-3.5,14.0,-2.73
,-8.344,0.895,-5.669,-8.098,0.998,-5.386,-1.19,13.3,-1.96
,-8.43,1.043,-5.803,-7.676,0.718,-5.556,0.91,13.58,-1.54
6663.0,-8.102,0.488,-5.274,-8.043,0.419,-5.262,-3.43,10.22,-1.12
,-8.253,0.838,-5.14,-8.177,0.172,-5.463,-0.56,10.22,-1.61
,-8.363,1.024,-5.054,-8.272,0.17,-5.657,1.33,10.85,-1.68
,-8.294,0.778,-5.209,-8.251,0.218,-5.776,1.05,10.92,-1.68
6739.0,-7.973,0.388,-6.174,-7.997,1.536,-5.939,4.9,8.19,2.31
,-7.997,0.9,-6.102,-7.964,1.517,-5.872,4.69,8.61,2.87
,-8.028,1.352,-6.126,-8.086,1.543,-5.743,1.26,9.31,4.55
,-8.019,1.527,-5.848,-8.047,1.517,-5.927,-3.08,9.8,6.3
6815.0,-8.045,1.531,-6.121,-8.014,1.9,-6.269,-7.7,5.6,6.16
,-7.94,1.747,-6.059,-8.021,1.838,-6.162,-8.54,5.88,6.3
,-7.983,2.015,-5.942,-7.837,1.749,-6.344,-10.71,6.93,6.09
,-8.066,1.993,-6.009,-7.672,1.819,-6.389,-13.3,6.44,5.74
6891.0,-7.597,2.032,-6.494,-8.162,1.615,-6.229,-16.94,1.89,1.19
,-7.837,2.01,-6.31,-8.112,1.649,-5.997,-19.46,2.17,1.47
,-7.99,1.883,-6.334,-7.66,1.314,-5.877,-22.26,2.45,1.75
,-8.174,1.618,-6.303,-7.777,1.141,-5.918,-25.48,2.59,3.01
6966.0,-8.358,1.242,-6.092,-7.621,1.261,-5.245,-31.71,7.28,5.11
,-8.445,1.328,-6.013,-7.569,1.512,-5.741,-30.94,7.63,5.25
,-8.22,1.443,-5.731,-8.186,1.804,-5.977,-30.38,7.56,4.55
,-8.157,1.383,-5.264,-8.172,1.756,-5.858,-27.23,5.25,3.15
7042.0,-8.258,1.673,-5.654,-7.921,2.3,-5.212,-12.67,-2.73,2.24
,-7.952,1.687,-5.53,-7.928,2.144,-5.219,-10.57,-4.27,1.68
,-7.825,1.998,-5.415,-7.916,2.12,-5.288,-8.75,-4.41,0.7
,-8.074,2.28,-5.209,-8.004,1.95,-5.587,-8.19,-3.71,-0.49
7118.0,-7.921,1.653,-5.82,-8.157,1.644,-5.75,-6.23,-8.4,-3.22
,-7.995,1.452,-5.853,-8.1,1.9,-5.573,-5.18,-8.89,-3.01
,-8.057,1.407,-5.841,-8.136,1.998,-5.353,-3.78,-8.89,-3.08
,-8.174,1.5,-5.705,-8.031,1.948,-5.181,-2.1,-8.82,-3.08
7194.0,-8.035,1.883,-5.401,-8.138,2.01,-5.975,-1.05,-6.65,-1.89
,-8.002,1.902,-5.678,-8.2,1.692,-5.54,-1.68,-6.3,-1.68
,-8.145,1.594,-5.58,-8.241,1.503,-5.604,-3.08,-5.53,-0.91
,-8.174,1.85,-5.865,-8.102,1.316,-5.322,-2.59,-4.9,-0.7
7269.0,-8.107,1.357,-5.513,-8.153,2.089,-5.281,-3.15,-3.92,2.1
,-8.21,1.603,-5.669,-7.956,2.034,-5.394,-1.54,-4.2,2.73
,-8.471,1.644,-5.221,-7.909,2.113,-5.427,-0.77,-4.55,2.45
,-8.385,1.845,-5.494,-8.057,2.283,-5.293,0.07,-5.95,1.96
7345.0,-8.062,2.41,-5.367,-7.822,1.993,-5.339,-2.31,-5.6,1.26
,-8.37,2.697,-4.994,-7.899,2.235,-5.413,-3.08,-5.53,0.77
,-8.141,2.414,-5.248,-8.031,2.307,-5.284,-3.15,-7.07,0.0
,-7.94,2.089,-5.255,-8.251,2.034,-5.183,-2.73,-8.12,-0.56
7420.0,-8.514,1.869,-5.049,-8.112,1.895,-4.86,-0.14,-6.09,-0.56
,-8.471,1.953,-5.152,-8.402,2.01,-4.889,2.73,-7.42,-1.26
,-8.153,1.888,-4.98,-8.476,1.792,-4.872,3.92,-7.63,-1.82
,-7.995,1.852,-4.925,-8.406,1.467,-4.566,3.92,-7.0,-2.03
7496.0,-8.196,1.448,-4.695,-8.703,1.137,-5.071,2.73,-3.43,-0.49
,-8.337,1.199,-4.592,-8.44,1.275,-5.068,2.94,-2.24,0.42
,-8.507,1.216,-4.858,-8.141,1.493,-4.824,3.43,-1.61,1.19
,-8.612,1.177,-5.032,-8.026,1.811,-4.934,3.43,-0.98,1.96
7572.0,-8.15,2.19,-5.166,-7.966,2.594,-5.049,10.43,-3.01,1.4
,-8.234,2.261,-5.047,-7.959,2.745,-4.681,10.15,-2.24,1.33
,-8.114,2.505,-5.027,-8.138,2.58,-4.523,9.66,-1.54,1.26
,-8.078,2.575,-5.102,-8.028,2.472,-4.716,9.17,-0.49,1.05
7648.0,-8.083,2.197,-4.7,-8.574,1.134,-4.779,10.71,2.94,-4.62
,-8.227,2.029,-4.709,-8.562,1.189,-4.616,10.5,4.62,-4.9
,-8.394,1.397,-4.671,-8.289,0.907,-4.659,10.29,6.02,-4.55
,-8.437,0.995,-4.736,-8.009,1.046,-4.958,11.83,7.28,-3.78
7724.0,-8.234,1.029,-4.934,-8.174,1.847,-5.284,18.27,11.13,-1.26
,-8.519,1.314,-5.164,-7.932,1.902,-5.542,19.95,11.83,-0.56
,-8.595,1.426,-5.324,-7.921,2.142,-5.681,21.56,11.13,-0.84
,-8.361,1.656,-5.207,-8.047,2.166,-5.855,22.61,11.06,-1.26
7799.0,-8.284,2.233,-6.066,-8.282,1.256,-5.712,26.53,10.15,-4.97
,-8.418,2.623,-5.769,-8.48,0.754,-5.788,26.18,10.78,-5.46
,-8.356,2.474,-5.489,-8.614,0.316,-5.827,23.66,11.13,-6.09
,-8.346,1.785,-5.736,-8.634,0.201,-5.652,21.42,10.71,-6.37
7875.0,-8.607,0.285,-5.372,-8.354,1.438,-5.91,22.75,10.78,-0.07
,-8.461,0.443,-5.408,-8.227,1.582,-5.863,23.87,9.87,-0.42
,-8.294,0.701,-5.628,-8.124,1.493,-5.944,24.71,9.24,-0.35
,-8.162,1.192,-5.765,-8.126,1.759,-6.195,24.92,9.17,0.21
7951.0,-8.09,1.89,-6.289,-8.021,1.855,-5.741,21.91,6.58,-1.47
,-8.114,1.922,-6.193,-7.856,1.455,-5.954,20.51,5.88,-2.17
,-8.129,1.948,-5.932,-7.758,1.304,-6.219,18.97,5.18,-3.29
,-8.05,2.0,-5.839,-7.966,1.201,-6.339,19.95,3.99,-4.55
8027.0,-8.33,1.015,-6.36,-8.445,1.101,-6.157,17.78,-2.24,-6.23
,-8.354,0.981,-6.181,-8.258,0.876,-5.968,17.15,-3.08,-5.32
,-8.275,0.871,-6.023,-7.93,0.869,-6.1,16.45,-3.43,-4.76
,-8.272,1.196,-5.913,-7.93,0.849,-5.973,15.89,-3.99,-3.92
8102.0,-8.117,0.684,-5.925,-8.299,0.845,-5.767,9.03,-6.58,2.73
,-8.301,0.61,-5.937,-8.287,0.744,-5.506,7.63,-6.23,4.76
,-8.6,0.708,-5.906,-8.39,0.687,-5.013,6.3,-5.95,6.09
,-8.5,0.816,-5.808,-8.21,0.804,-5.197,3.71,-4.76,6.86
8178.0,-7.916,0.873,-5.379,-8.397,0.938,-5.324,-3.15,-6.44,9.52
,-8.112,0.708,-5.384,-8.358,1.01,-5.477,-3.92,-6.44,9.1
,-8.337,0.735,-5.327,-7.928,1.247,-5.693,-3.01,-7.07,8.68
,-8.416,0.893,-5.446,-7.976,1.402,-5.666,-0.77,-8.12,8.33
8253.0,-8.15,1.534,-5.544,-8.344,1.113,-5.365,4.76,-10.92,5.74
,-8.289,1.508,-5.47,-8.033,1.278,-5.674,2.73,-9.73,5.74
,-8.361,1.342,-5.26,-8.035,1.493,-5.69,0.63,-8.4,5.39
,-8.449,1.149,-5.279,-8.531,1.67,-5.26,0.63,-7.98,4.97
8329.0,-8.409,1.575,-5.25,-8.32,1.153,-5.324,-0.07,-10.36,2.73
,-8.064,1.493,-5.339,-8.069,0.749,-5.396,-0.21,-10.64,2.45
,-8.409,1.546,-5.061,-8.208,0.751,-5.245,0.98,-11.83,2.03
,-8.509,1.421,-5.061,-8.559,0.725,-5.085,1.75,-14.21,1.4
8405.0,-8.483,0.907,-5.267,-8.576,1.345,-5.114,3.5,-11.9,2.45
,-8.514,1.168,-5.284,-8.442,1.134,-5.008,2.59,-9.94,2.87
,-8.387,1.472,-5.367,-8.327,0.806,-5.159,0.14,-7.98,3.01
,-8.528,1.527,-5.382,-8.33,0.873,-5.401,-3.78,-5.88,3.22
8481.0,-8.447,1.089,-5.353,-8.358,1.228,-5.355,0.0,-8.61,2.1
,-8.579,1.45,-5.305,-8.234,0.998,-5.305,1.61,-8.26,1.47
,-8.89,1.637,-5.212,-8.272,1.06,-5.322,0.91,-8.68,1.75
,-8.686,1.515,-5.272,-8.373,1.287,-4.984,-0.98,-9.94,2.1
8557.0,-8.672,1.546,-4.429,-8.681,1.486,-4.489,1.4,-12.32,1.4
,-8.818,1.725,-4.487,-8.502,1.577,-4.597,2.03,-13.93,1.75
,-8.734,1.543,-4.501,-8.332,1.551,-4.401,1.82,-14.77,1.33
,-8.698,1.402,-4.46,-8.244,1.299,-4.293,2.17,-15.19,0.49
8632.0,-8.224,1.228,-4.317,-8.799,1.273,-3.884,-0.07,-13.79,0.56
,-8.349,1.247,-4.099,-8.753,1.108,-3.874,-0.7,-13.44,0.42
,-8.737,1.295,-3.979,-8.753,0.995,-3.853,-1.47,-12.95,-0.42
,-8.935,1.273,-3.821,-8.713,1.015,-3.896,-2.59,-12.18,-0.63
8708.0,-8.583,0.914,-4.013,-9.313,1.173,-3.661,0.14,-10.22,1.12
,-8.634,0.969,-4.121,-9.174,0.782,-4.085,1.68,-10.22,1.61
,-8.938,1.036,-4.14,-8.555,0.29,-4.606,3.01,-10.5,1.68
,-9.095,1.211,-4.008,-8.327,0.438,-4.915,4.34,-10.15,1.47
8784.0,-8.375,1.163,-5.004,-8.533,1.508,-4.209,11.9,-11.13,4.27
,-8.871,1.948,-4.69,-8.552,1.249,-4.14,10.99,-10.08,4.27
,-8.995,2.319,-4.341,-8.72,1.06,-4.324,7.07,-8.75,4.34
,-8.842,2.111,-4.338,-9.024,0.893,-4.039,1.68,-8.89,4.62
8860.0,-9.251,0.732,-3.951,-8.873,0.768,-3.972,4.27,-9.66,3.85
,-9.1,0.704,-3.934,-8.856,0.912,-3.908,5.88,-9.59,5.39
,-8.995,0.864,-3.692,-8.909,1.247,-3.783,6.65,-8.05,6.3
,-9.129,0.928,-3.776,-8.966,1.57,-3.788,7.42,-8.19,6.65
8935.0,-8.794,1.721,-3.893,-8.99,1.613,-3.774,7.63,-6.23,8.05
,-8.686,1.68,-3.85,-8.78,1.558,-3.829,5.95,-5.67,7.56
,-8.677,1.682,-3.955,-8.794,1.62,-3.824,4.83,-5.53,6.72
,-8.806,1.704,-3.812,-8.794,1.697,-4.006,3.64,-4.76,6.09
9011.0,-8.796,1.637,-3.967,-9.021,0.983,-4.07,2.1,-4.27,5.18
,-8.933,1.632,-3.812,-8.871,0.952,-4.544,1.12,-3.99,4.9
,-9.093,1.515,-3.723,-8.775,1.211,-4.767,0.35,-3.43,4.62
,-9.146,1.206,-3.738,-8.849,1.709,-4.69,0.91,-3.57,4.62
9086.0,-9.021,1.912,-4.465,-8.921,1.721,-4.396,3.64,-4.9,4.27
,-9.045,1.713,-4.647,-8.906,1.771,-4.276,0.49,-6.02,4.34
,-8.837,1.486,-4.592,-8.93,1.697,-4.355,-0.35,-6.65,4.27
,-8.914,1.558,-4.494,-8.871,1.577,-4.271,-0.28,-7.07,3.85
9162.0,-8.885,1.491,-4.013,-9.115,1.381,-3.056,-3.64,-9.31,3.43
,-8.969,1.496,-3.721,-9.04,1.515,-3.01,-3.15,-8.96,3.36
,-9.093,1.653,-3.403,-8.938,1.737,-2.941,-2.8,-8.89,3.36
,-9.155,1.512,-3.216,-8.899,1.938,-2.776,-2.24,-8.61,3.29
9238.0,-9.074,1.914,-2.757,-9.024,1.211,-2.68,1.61,-4.9,2.17
,-9.143,1.62,-2.572,-8.942,1.685,-2.836,-0.21,-3.71,2.1
,-9.196,1.177,-2.673,-8.871,2.158,-3.049,0.14,-2.94,2.24
,-9.067,1.034,-2.599,-8.961,2.225,-3.123,2.8,-1.75,2.45
9314.0,-9.091,2.051,-3.398,-8.966,1.572,-3.848,0.35,3.85,0.49
,-9.009,1.572,-3.664,-9.072,1.563,-3.924,-1.54,3.99,0.28
,-8.995,1.352,-3.826,-9.091,1.515,-4.001,-1.33,4.27,0.35
,-8.969,1.441,-3.96,-9.074,1.414,-4.161,-0.49,4.34,0.35
9390.0,-8.976,1.273,-4.252,-8.878,1.965,-3.802,-4.55,3.08,1.12
,-8.906,1.383,-4.307,-8.964,1.914,-3.486,-3.92,2.8,1.05
,-8.997,1.637,-4.192,-9.11,1.601,-3.355,-3.85,2.52,1.12
,-8.909,1.893,-4.058,-9.122,1.371,-3.307,-4.2,2.24,0.98
9465.0,-9.17,1.287,-3.475,-8.973,1.869,-3.625,-0.14,1.61,0.84
,-9.1,1.46,-3.714,-9.06,1.785,-3.486,3.15,1.26,1.26
,-8.983,1.792,-3.709,-9.167,1.529,-3.348,3.92,1.75,1.26
,-8.897,1.902,-3.759,-9.095,1.479,-3.604,2.24,2.03,0.91
9541.0,-8.914,1.541,-3.795,-9.026,1.754,-3.745,4.55,1.96,1.47
,-9.007,1.625,-3.85,-9.091,1.711,-3.62,4.97,2.03,1.47
,-9.033,1.778,-3.86,-9.045,1.615,-3.537,4.13,2.17,1.4
,-9.012,1.73,-3.841,-9.158,1.362,-3.69,2.73,2.52,1.19
9617.0,-9.04,1.35,-3.776,-8.976,1.565,-3.939,3.22,2.66,1.96
,-9.081,1.452,-4.034,-8.969,1.467,-3.922,4.69,2.31,2.24
,-8.947,1.579,-3.996,-8.976,1.369,-3.628,4.76,2.24,2.17
,-9.016,1.668,-4.068,-9.165,1.455,-3.544,3.78,2.38,1.96
9693.0,-9.174,1.443,-3.522,-8.93,1.852,-3.862,7.28,1.89,3.57
,-9.179,1.488,-3.506,-8.921,1.78,-3.958,9.52,1.82,4.06
,-9.124,1.637,-3.592,-8.923,1.74,-3.955,11.27,1.47,4.41
,-8.969,1.776,-3.771,-8.866,1.907,-3.987,10.92,1.33,3.85
9768.0,-8.856,2.044,-4.034,-8.949,1.694,-4.011,3.5,2.17,1.61
,-8.83,1.89,-3.965,-9.002,1.819,-3.979,0.42,2.45,0.91
,-8.914,1.67,-3.996,-9.005,1.85,-3.924,-1.61,2.31,0.49
,-8.957,1.594,-4.049,-8.947,1.869,-3.865,-2.03,1.96,0.42
9844.0,-9.045,1.811,-3.802,-8.911,1.692,-3.989,-2.8,1.47,0.07
,-9.009,1.773,-3.814,-8.94,1.591,-3.97,-1.89,1.4,-0.07
,-9.005,1.78,-3.788,-8.978,1.622,-3.917,-1.47,1.12,-0.35
,-8.99,1.804,-3.922,-8.947,1.634,-3.934,-1.68,0.84,-0.49
9919.0,-8.964,1.567,-3.783,-8.966,1.697,-3.592,-2.45,0.42,-0.7
,-9.016,1.596,-3.752,-8.981,1.704,-3.652,-2.1,0.35,-0.49
,-9.052,1.649,-3.702,-8.99,1.653,-3.604,-1.4,0.28,-0.35
,-8.926,1.668,-3.668,-9.079,1.589,-3.601,-0.91,0.21,-0.49
9995.0,-9.079,1.563,-3.668,-9.019,1.752,-3.699,0.35,0.63,-0.14
,-9.007,1.563,-3.778,-9.052,1.685,-3.51,1.19,0.56,-0.07
,-8.995,1.663,-3.743,-9.131,1.625,-3.431,1.61,0.98,0.07
,-9.026,1.78,-3.709,-9.083,1.62,-3.539,1.12,1.12,0.0
10071.0,-9.026,1.625,-3.625,-9.043,1.816,-3.656,2.73,1.47,0.07
,-8.985,1.601,-3.702,-9.021,1.804,-3.613,3.71,1.54,0.28
,-8.976,1.603,-3.75,-9.014,1.697,-3.532,4.34,1.4,0.42
,-8.997,1.701,-3.845,-8.995,1.74,-3.592,4.48,1.75,0.56
10147.0,-8.947,1.716,-3.539,-9.088,1.965,-3.788,2.24,2.8,-0.63
,-8.973,1.701,-3.597,-9.012,1.943,-3.81,2.31,2.8,-0.7
,-9.062,1.74,-3.656,-9.005,1.725,-3.893,3.15,2.8,-0.77
,-9.031,1.881,-3.632,-8.964,1.675,-3.984,3.85,3.5,-0.98
10222.0,-9.026,1.596,-3.939,-8.952,1.515,-4.082,1.4,3.57,-2.52
,-9.088,1.553,-3.975,-8.959,1.531,-4.123,1.4,3.43,-2.52
,-8.954,1.551,-3.999,-8.94,1.598,-3.963,1.89,3.15,-2.38
,-8.954,1.51,-4.101,-8.945,1.646,-3.802,2.45,2.87,-2.17
10298.0,-9.028,1.663,-3.664,-8.988,1.519,-2.989,2.94,1.61,-2.03
,-8.949,1.675,-3.41,-9.005,1.445,-2.948,3.01,1.96,-2.17
,-8.933,1.697,-3.238,-9.119,1.508,-3.12,2.73,2.59,-2.52
,-8.969,1.697,-3.12,-8.981,1.735,-3.228,2.24,3.01,-2.73
10374.0,-8.878,2.056,-3.123,-9.174,1.429,-2.764,6.3,7.14,-3.5
,-8.959,2.235,-3.072,-9.299,0.84,-3.144,3.99,8.47,-4.13
,-8.969,2.194,-2.867,-9.081,0.668,-3.664,0.7,10.01,-4.62
,-9.016,1.91,-2.733,-8.827,0.897,-3.85,-2.45,11.55,-5.18
10450.0,-8.823,1.51,-3.987,-8.519,1.103,-4.307,8.89,14.0,-4.2
,-8.863,1.725,-3.824,-8.588,1.541,-4.496,5.32,15.68,-4.69
,-8.894,1.347,-3.735,-8.547,2.304,-4.494,1.47,16.03,-3.99
,-8.689,1.117,-4.015,-8.772,2.611,-4.089,1.96,15.33,-3.08
10526.0,-9.009,2.321,-3.857,-8.66,1.577,-3.726,-2.94,15.75,-5.95
,-9.074,1.811,-3.494,-8.94,1.634,-3.771,-6.3,16.87,-6.09
,-9.062,1.362,-3.585,-8.914,1.235,-3.824,-4.83,17.01,-6.09
,-8.835,1.321,-3.848,-8.392,0.558,-4.221,0.07,16.94,-6.09
10601.0,-7.997,0.407,-4.355,-9.371,2.271,-3.661,6.65,17.99,-4.62
,-7.899,1.242,-4.59,-9.497,1.653,-3.865,13.86,17.92,-4.55
,-8.189,2.35,-4.274,-9.593,0.694,-3.972,14.98,18.9,-5.18
,-8.825,2.642,-3.711,-9.45,0.055,-4.427,8.12,21.07,-6.72
10677.0,-8.923,-0.124,-4.551,-8.284,0.993,-4.984,3.71,19.81,-5.74
,-8.631,0.294,-4.338,-8.344,0.888,-5.123,8.19,20.79,-5.32
,-8.148,0.998,-4.171,-8.38,0.701,-5.016,12.88,21.28,-3.57
,-8.05,1.247,-4.57,-8.5,0.534,-4.762,14.77,19.74,-1.19
10753.0,-8.973,0.452,-4.649,-8.978,0.739,-5.214,16.52,18.69,-0.49
,-9.349,0.163,-4.838,-8.545,1.134,-5.346,16.03,18.13,0.7
,-9.177,0.122,-5.097,-8.145,1.371,-5.09,16.45,16.8,2.87
,-9.246,0.275,-5.037,-8.203,1.711,-5.26,16.24,16.52,4.13
10829.0,-7.904,1.718,-5.645,-8.973,1.031,-5.035,6.65,14.63,4.83
,-7.964,1.675,-5.365,-8.533,0.988,-5.329,4.97,15.05,4.2
,-8.806,1.711,-5.164,-8.55,1.034,-4.913,5.6,13.37,3.57
,-8.653,1.342,-5.41,-8.133,1.161,-5.054,6.51,11.83,3.5
10904.0,-8.339,0.78,-4.702,-8.016,1.742,-4.362,8.33,7.28,2.59
,-7.954,0.323,-4.803,-8.516,1.862,-4.441,6.44,6.37,2.8
,-7.428,0.275,-4.793,-8.832,1.259,-4.592,6.86,9.1,3.22
,-7.612,0.905,-4.379,-8.945,0.658,-4.896,8.61,13.58,3.5
10980.0,-9.021,0.235,-5.171,-8.311,1.579,-5.729,-2.45,19.88,3.29
,-9.009,0.342,-5.372,-8.1,1.563,-5.568,2.31,18.06,5.6
,-8.878,0.761,-5.458,-7.801,1.816,-5.863,7.21,17.64,6.23
,-8.516,1.194,-5.633,-7.82,2.151,-5.748,9.17,17.78,5.88
11055.0,-8.153,2.228,-5.568,-7.679,0.766,-6.253,7.07,9.45,0.91
,-8.526,1.768,-5.654,-7.93,1.17,-6.377,4.34,8.33,0.07
,-8.299,0.94,-5.86,-8.306,1.551,-6.423,4.2,5.32,-0.63
,-7.765,0.651,-6.269,-8.181,1.74,-6.327,8.12,3.5,-1.12
11131.0,-7.842,1.933,-5.999,-8.145,1.062,-5.733,8.33,6.09,-2.59
,-7.602,2.103,-5.786,-8.004,0.715,-5.889,5.81,6.72,-3.64
,-7.844,2.115,-5.274,-8.009,0.491,-5.695,4.48,6.02,-6.44
,-8.066,1.582,-5.322,-8.229,0.455,-5.669,2.17,5.46,-8.54
11207.0,-8.516,0.474,-5.355,-8.363,0.266,-5.073,1.47,8.47,-3.08
,-8.449,0.488,-5.339,-8.665,0.292,-4.886,1.89,8.61,-3.15
,-8.272,0.335,-5.43,-8.782,0.29,-5.145,1.68,7.91,-2.73
,-8.033,0.213,-5.473,-8.559,0.445,-5.394,0.91,8.19,-1.47
11283.0,-8.351,0.818,-5.453,-8.071,0.479,-5.564,3.08,10.01,2.66
,-8.162,1.211,-5.571,-8.028,0.665,-5.523,2.52,11.2,4.9
,-8.196,1.208,-5.709,-8.165,1.082,-5.489,-2.03,12.32,7.0
,-8.275,0.799,-5.461,-8.165,1.469,-5.726,-6.86,11.55,7.98
11359.0,-8.112,1.694,-5.712,-8.119,1.084,-5.994,-6.16,8.33,6.79
,-7.968,1.807,-5.8,-8.124,1.223,-5.879,-9.1,8.4,7.14
,-7.925,1.682,-5.899,-8.026,1.316,-5.994,-13.3,8.4,7.49
,-8.083,1.189,-6.095,-7.932,1.199,-6.025,-15.61,7.7,7.49
11434.0,-8.473,1.359,-5.987,-7.657,1.828,-6.391,-13.09,9.17,6.51
,-8.279,1.462,-5.93,-7.696,2.197,-6.277,-16.31,7.63,8.26
,-8.167,1.567,-5.776,-7.935,2.419,-6.061,-17.36,5.81,8.82
,-7.851,1.749,-6.09,-7.971,2.134,-5.896,-17.64,4.48,7.21
11510.0,-7.983,2.012,-5.901,-7.842,1.804,-6.272,-24.85,3.85,3.57
,-7.964,1.998,-5.473,-8.179,1.701,-6.317,-21.98,3.85,1.05
,-7.997,1.996,-5.82,-8.284,1.699,-6.461,-18.55,1.26,-1.05
,-7.916,2.029,-5.989,-7.999,1.759,-6.569,-15.75,-0.28,-2.8
11586.0,-7.952,1.646,-6.107,-8.11,1.692,-5.666,-16.52,-1.75,-3.08
,-7.925,1.632,-5.937,-8.215,1.567,-5.504,-15.96,-2.66,-3.85
,-7.777,1.847,-5.934,-8.026,1.594,-5.58,-15.12,-2.73,-3.29
,-8.011,1.78,-5.887,-8.045,1.4,-5.631,-14.35,-2.73,-3.01
11662.0,-8.052,1.187,-5.762,-8.076,2.0,-4.96,-10.15,-3.43,-2.73
,-7.992,1.129,-5.791,-7.983,2.223,-5.24,-8.47,-3.36,-2.31
,-8.189,1.369,-5.726,-8.184,1.723,-5.319,-7.21,-3.08,-2.1
,-8.074,1.919,-5.248,-8.066,1.216,-5.446,-7.56,-1.75,-1.61
11737.0,-8.373,0.778,-5.272,-8.256,1.359,-5.535,-15.82,0.56,-0.49
,-8.009,0.715,-5.676,-8.327,1.594,-5.36,-12.74,0.28,-1.4
,-8.038,0.73,-5.686,-8.2,1.895,-5.042,-9.59,0.0,-0.84
,-8.043,1.232,-5.839,-7.988,2.338,-4.783,-7.21,-0.56,0.63
11813.0,-7.717,2.649,-5.123,-8.373,1.651,-5.508,-2.31,-2.38,0.49
,-7.846,2.319,-5.391,-8.191,1.809,-5.418,-4.69,-1.82,0.7
,-8.004,1.922,-5.678,-7.976,1.874,-5.367,-5.95,-1.4,1.26
,-8.337,1.699,-5.583,-7.959,1.931,-5.585,-5.46,-1.68,1.26
11888.0,-8.138,1.855,-5.389,-8.014,1.649,-5.757,-3.36,-2.31,0.49
,-8.16,1.756,-5.444,-8.313,1.709,-5.784,-3.15,-2.59,0.42
,-8.114,1.725,-5.47,-8.229,1.249,-5.432,-3.57,-2.8,0.42
,-8.193,1.756,-5.681,-8.179,1.034,-5.319,-3.99,-2.94,0.7
11964.0,-8.105,1.304,-5.465,-8.354,1.395,-5.587,-1.75,-3.57,2.52
,-8.126,1.127,-5.193,-8.1,1.986,-5.525,-0.21,-3.36,2.73
,-8.143,1.256,-5.303,-8.186,1.907,-5.262,1.26,-4.06,2.87
,-8.337,1.567,-5.528,-8.148,2.003,-5.051,1.68,-4.2,3.29
12040.0,-8.002,2.02,-5.193,-8.299,1.555,-5.427,4.62,-3.01,4.62
,-7.995,2.096,-5.2,-8.279,1.421,-5.485,4.27,-2.1,4.62
,-8.145,1.922,-5.157,-8.133,1.697,-5.578,3.85,-0.91,4.83
,-8.26,1.728,-5.315,-8.043,2.065,-5.19,3.5,-0.21,5.39
12116.0,-7.985,2.357,-5.099,-7.973,2.252,-5.408,9.31,-1.47,3.78
,-7.944,2.594,-5.023,-8.021,2.273,-5.08,8.89,-0.7,3.57
,-7.983,2.577,-4.836,-7.988,2.489,-5.118,8.05,-0.07,3.22
,-7.952,2.345,-5.408,-7.916,2.522,-4.941,9.1,0.07,2.73
12192.0,-7.999,2.388,-5.011,-8.136,1.481,-5.027,10.64,2.17,-1.68
,-8.406,2.297,-4.896,-8.11,1.615,-5.085,9.45,3.22,-1.75
,-8.141,1.809,-4.915,-8.028,1.642,-5.145,8.96,3.85,-1.96
,-8.203,1.397,-4.965,-8.222,1.747,-5.418,10.22,4.48,-2.03
12267.0,-8.397,1.405,-5.25,-7.916,1.637,-5.401,14.7,8.54,-2.59
,-8.351,1.51,-5.061,-8.057,1.644,-5.494,16.17,8.4,-2.52
,-8.124,1.536,-5.032,-8.315,1.606,-5.497,17.71,8.54,-2.73
,-7.882,1.685,-5.181,-8.313,1.383,-5.506,19.11,8.4,-3.43
12343.0,-8.241,1.223,-5.52,-8.059,1.768,-5.413,21.14,10.5,-3.08
,-8.059,1.445,-5.597,-8.16,1.517,-5.611,22.68,10.08,-3.78
,-7.892,1.888,-5.738,-8.21,1.402,-5.642,23.52,10.43,-4.55
,-7.856,1.78,-5.564,-8.323,1.309,-5.86,21.91,11.27,-4.76
12419.0,-8.346,1.189,-5.753,-8.234,1.328,-6.143,21.98,12.46,-4.34
,-8.301,1.395,-5.973,-8.267,1.417,-6.277,23.45,12.18,-4.41
,-8.234,1.563,-6.071,-8.169,1.429,-6.09,24.15,12.11,-4.55
,-8.011,1.519,-6.164,-8.136,1.512,-5.91,22.4,12.04,-4.41
12495.0,-8.119,1.077,-6.059,-8.191,1.594,-6.236,18.69,9.59,-3.5
,-7.995,0.806,-6.04,-8.394,1.381,-6.219,19.95,9.1,-3.71
,-7.988,0.866,-6.207,-8.143,1.292,-6.109,23.1,7.91,-3.92
,-7.942,1.35,-6.356,-7.837,1.149,-5.858,26.74,7.14,-3.92
12570.0,-7.538,1.125,-6.312,-8.21,1.18,-6.499,23.31,4.13,-2.94
,-7.751,1.019,-6.418,-8.05,1.24,-6.284,21.98,4.13,-2.59
,-8.191,1.048,-6.432,-7.806,1.4,-6.145,19.95,3.78,-2.31
,-8.315,1.242,-6.482,-7.459,1.694,-6.463,18.48,3.15,-1.26
12646.0,-7.557,1.84,-6.478,-7.964,0.742,-6.013,12.81,-3.5,-1.68
,-7.832,1.613,-6.286,-7.944,0.696,-6.09,9.45,-4.2,-1.89
,-8.153,1.153,-6.516,-7.801,0.735,-6.155,7.07,-5.04,-0.98
,-8.059,0.972,-6.482,-8.15,0.95,-6.167,6.23,-4.83,0.63
12721.0,-8.241,0.991,-6.272,-7.593,0.514,-5.91,6.86,-3.71,3.08
,-8.236,1.182,-6.315,-7.681,0.644,-5.997,2.66,-2.45,4.13
,-8.165,1.194,-6.224,-7.851,0.648,-5.951,-3.15,-1.89,4.97
,-8.086,0.603,-5.81,-7.925,0.756,-6.03,-7.63,-2.38,5.39
12797.0,-8.04,0.96,-5.793,-7.901,1.29,-5.855,-6.16,-3.08,5.95
,-8.066,0.945,-5.75,-8.043,1.261,-5.92,-4.76,-4.27,5.32
,-8.059,1.01,-5.774,-8.014,1.371,-5.915,-2.59,-6.09,4.97
,-7.815,1.304,-5.879,-8.019,1.441,-5.796,-0.91,-6.93,4.83
12873.0,-7.956,1.548,-5.762,-8.198,1.055,-5.532,-0.56,-7.21,2.1
,-7.959,1.572,-5.602,-8.212,1.034,-5.473,-2.03,-6.51,1.54
,-8.011,1.323,-5.508,-8.129,1.106,-5.377,-4.13,-7.0,1.12
,-8.138,1.106,-5.492,-8.244,1.314,-5.43,-4.06,-7.63,0.7
12949.0,-8.284,1.383,-5.659,-7.99,0.857,-5.432,0.42,-11.69,-0.42
,-8.222,1.244,-5.757,-8.076,0.916,-5.499,-0.63,-12.53,0.0
,-8.105,1.12,-5.767,-8.124,1.173,-5.709,-2.1,-12.39,0.49
,-8.004,0.938,-5.619,-8.203,1.359,-5.721,-2.87,-12.32,0.77
13025.0,-8.382,1.283,-5.616,-8.141,0.404,-5.662,1.4,-14.07,0.14
,-8.421,0.763,-5.547,-8.502,1.103,-5.638,-1.61,-14.49,0.56
,-8.279,0.299,-5.714,-8.536,1.527,-5.59,-0.91,-15.89,0.84
,-8.004,0.093,-5.815,-8.416,1.613,-5.451,3.08,-16.59,1.33
13100.0,-8.289,1.323,-5.482,-8.363,1.656,-4.865,2.8,-17.57,2.87
,-8.155,1.129,-5.602,-8.413,1.591,-4.898,2.03,-18.76,2.52
,-8.071,1.01,-5.339,-8.471,1.558,-4.925,2.52,-17.99,2.17
,-8.267,1.357,-5.037,-8.483,1.536,-5.042,4.55,-17.5,2.17
13176.0,-8.43,1.189,-5.097,-8.32,0.792,-4.862,4.69,-19.81,-0.42
,-8.035,1.469,-3.955,-8.373,1.07,-4.975,5.32,-21.77,-0.77
,-8.301,0.962,-5.049,-8.607,1.022,-4.74,1.89,-18.97,0.0
,-8.48,0.596,-4.664,-8.827,1.039,-4.628,-0.35,-18.48,0.84
13252.0,-8.904,1.122,-4.585,-8.595,0.847,-4.281,0.14,-18.41,2.45
,-8.71,1.015,-4.46,-8.538,1.165,-4.391,-0.14,-18.2,2.52
,-8.595,0.861,-4.391,-8.619,1.405,-4.137,0.14,-17.92,2.66
,-8.459,0.768,-4.441,-8.701,1.445,-4.365,1.75,-18.34,3.22
13328.0,-8.449,1.194,-4.128,-9.107,0.938,-4.465,1.89,-16.1,3.22
,-8.595,0.828,-4.061,-9.009,1.383,-4.487,0.28,-15.33,3.01
,-8.734,0.67,-4.405,-8.842,1.584,-4.403,1.61,-16.87,3.29
,-8.981,0.727,-4.42,-8.887,1.474,-4.214,3.43,-17.43,3.71
13403.0,-8.768,1.211,-4.681,-8.878,1.84,-4.145,0.63,-16.17,4.9
,-8.533,0.909,-4.731,-8.88,1.651,-3.865,1.19,-16.66,5.25
,-8.698,0.96,-4.369,-8.926,1.299,-4.039,2.38,-15.89,4.97
,-8.997,1.457,-4.221,-8.804,0.861,-4.006,4.62,-16.17,5.11
13479.0,-8.76,0.651,-3.893,-8.928,1.17,-3.391,-3.43,-13.09,5.53
,-8.921,0.749,-3.501,-8.945,1.062,-3.247,-1.05,-12.04,5.88
,-9.088,1.17,-3.216,-9.079,1.141,-3.106,0.28,-10.92,6.65
,-9.095,1.29,-3.345,-9.148,1.161,-3.197,1.68,-11.06,7.42
13554.0,-9.064,1.082,-3.209,-8.708,1.517,-3.879,5.67,-8.47,8.75
,-8.928,1.218,-3.364,-8.684,1.704,-3.838,7.35,-7.7,8.61
,-8.832,1.342,-3.601,-8.823,1.933,-3.855,7.56,-7.35,8.54
,-8.696,1.378,-3.707,-8.921,2.28,-3.625,6.23,-6.93,8.61
13630.0,-8.969,2.297,-3.46,-8.88,0.436,-4.403,-1.68,-3.5,5.11
,-9.0,1.938,-3.443,-8.713,0.814,-4.362,-4.41,-3.29,4.48
,-9.019,1.388,-3.417,-8.902,1.62,-4.233,-5.67,-3.01,4.13
,-9.131,0.842,-3.958,-9.076,2.201,-4.073,-4.2,-4.06,4.34
13706.0,-9.021,2.328,-3.888,-9.019,1.019,-3.496,0.35,-4.48,4.55
,-8.993,2.099,-3.556,-8.995,1.326,-3.429,-4.06,-3.92,3.64
,-9.127,1.759,-3.436,-9.048,1.589,-3.46,-6.16,-3.78,3.01
,-9.081,1.302,-3.441,-9.076,1.606,-3.565,-5.6,-3.57,3.08
13782.0,-9.002,1.56,-3.68,-9.15,1.603,-3.451,-0.84,-2.1,3.5
,-8.887,1.634,-3.62,-9.057,1.146,-3.613,-2.03,-1.61,3.15
,-8.868,1.752,-3.388,-8.914,1.094,-3.719,-3.36,-0.49,2.38
,-9.048,1.862,-3.388,-8.866,1.467,-3.644,-4.97,0.21,1.82
13858.0,-8.916,2.084,-3.551,-9.282,1.56,-2.814,-1.82,1.12,1.75
,-9.024,2.335,-3.159,-9.335,1.328,-3.053,-4.62,2.1,1.12
,-9.189,2.113,-2.934,-9.172,1.266,-3.441,-7.28,2.59,0.98
,-9.287,1.807,-2.759,-8.985,1.491,-3.57,-6.86,3.01,1.12
13933.0,-8.952,1.709,-3.649,-8.997,1.084,-3.932,3.78,4.34,2.38
,-8.981,1.783,-3.668,-8.961,1.046,-4.101,1.68,5.04,1.96
,-8.947,1.754,-3.726,-9.019,1.352,-4.348,-0.84,5.32,1.54
,-8.961,1.388,-3.836,-8.964,1.721,-4.346,-2.31,5.18,1.47
14009.0,-8.897,1.969,-4.377,-9.072,1.405,-3.841,3.15,2.87,2.52
,-8.916,2.012,-4.338,-9.009,1.529,-3.664,0.63,2.66,2.17
,-8.904,1.744,-4.099,-8.995,1.756,-3.573,-2.1,2.17,1.89
,-9.036,1.417,-3.936,-8.957,1.843,-3.582,-2.03,1.68,2.17
14085.0,-8.909,1.804,-3.396,-8.94,1.78,-3.702,1.96,2.03,1.82
,-9.04,1.62,-3.343,-8.851,1.986,-3.542,1.05,2.17,1.54
,-9.043,1.531,-3.503,-9.074,2.075,-3.508,2.17,1.96,1.75
,-9.045,1.594,-3.644,-9.074,1.902,-3.518,3.85,2.1,1.75
14161.0,-9.083,1.529,-3.644,-8.88,1.953,-4.207,2.31,3.36,1.05
,-9.057,1.409,-3.884,-8.914,2.077,-4.049,3.5,2.87,1.19
,-9.012,1.409,-4.113,-8.906,1.933,-3.848,5.04,2.87,1.33
,-8.885,1.622,-4.264,-9.005,1.606,-3.733,5.81,2.66,1.4
14236.0,-8.964,1.414,-3.656,-9.067,1.811,-3.51,-2.94,3.01,0.21
,-8.887,1.488,-3.52,-9.036,1.728,-3.628,-0.35,3.22,0.42
,-8.964,1.692,-3.508,-9.005,1.601,-3.757,1.26,3.43,0.49
,-9.021,1.835,-3.537,-8.983,1.692,-3.927,1.54,3.5,0.63
14312.0,-8.911,1.701,-4.03,-9.11,1.558,-3.955,3.01,3.64,0.56
,-8.859,1.742,-3.965,-8.933,1.606,-4.018,2.52,3.64,0.49
,-9.057,1.725,-3.881,-8.954,1.859,-4.101,1.82,3.36,0.35
,-9.098,1.68,-3.886,-8.916,1.9,-4.116,1.96,2.94,0.42
14387.0,-8.859,1.862,-4.008,-9.057,1.551,-3.893,2.38,2.17,0.14
,-8.954,1.764,-3.896,-8.973,1.594,-4.08,1.05,2.03,-0.21
,-9.036,1.651,-3.877,-8.916,1.692,-4.19,0.63,1.96,-0.28
,-8.983,1.567,-3.812,-8.892,1.785,-4.082,1.26,1.61,-0.21
14463.0,-8.971,1.756,-3.987,-9.107,1.469,-3.527,0.42,1.05,-0.21
,-8.985,1.697,-3.764,-9.04,1.596,-3.46,-0.07,1.05,-0.28
,-9.014,1.613,-3.582,-9.06,1.735,-3.644,0.28,1.4,-0.28
,-9.072,1.472,-3.25,-8.878,1.809,-3.781,1.12,1.82,-0.07
14539.0,-8.909,1.783,-3.862,-8.973,1.553,-3.903,4.97,2.1,0.35
,-8.926,1.677,-3.874,-8.933,1.608,-3.771,3.78,2.31,0.28
,-8.94,1.625,-3.989,-9.028,1.589,-3.91,2.87,2.38,0.14
,-9.005,1.584,-3.948,-8.995,1.625,-3.836,2.52,2.31,0.0
14615.0,-8.988,1.622,-3.924,-8.921,1.675,-3.994,2.52,2.03,-0.21
,-8.914,1.689,-3.953,-9.0,1.651,-4.073,2.66,1.96,-0.21
,-8.99,1.649,-3.917,-8.978,1.689,-3.965,2.03,2.1,-0.42
,-8.914,1.625,-4.011,-8.918,1.677,-3.829,2.24,1.89,-0.35
14691.0,-8.897,1.692,-3.817,-8.871,1.531,-4.092,0.77,1.96,-0.98
,-8.926,1.637,-3.848,-8.849,1.682,-4.006,1.12,1.68,-1.12
,-8.995,1.656,-3.845,-8.904,1.819,-4.121,1.05,1.75,-1.19
,-9.04,1.539,-3.963,-8.971,1.742,-3.939,1.82,1.19,-0.91
14766.0,-9.048,1.517,-3.877,-8.894,1.476,-3.97,0.28,0.98,-1.05
,-9.031,1.364,-3.865,-8.988,1.701,-3.936,0.98,0.63,-0.84
,-9.057,1.266,-3.881,-8.969,1.759,-3.81,2.45,0.35,-0.63
,-8.947,1.364,-4.027,-9.095,1.675,-3.769,4.27,0.14,-0.28
14842.0,-9.012,1.591,-3.805,-9.028,1.828,-3.874,2.52,-0.07,-0.56
,-8.923,1.505,-3.872,-9.016,1.728,-3.903,3.15,-0.07,-0.56
,-8.906,1.675,-3.838,-8.966,1.586,-3.939,4.48,0.07,-0.56
,-9.067,1.764,-3.872,-8.957,1.472,-3.958,5.18,-0.14,-0.7
14918.0,-8.902,1.524,-3.987,-9.031,1.644,-3.431,4.41,-0.84,-1.19
,-8.887,1.577,-3.865,-9.057,1.646,-3.285,4.48,-0.49,-1.4
,-9.007,1.649,-3.75,-9.016,1.572,-3.178,3.85,0.0,-1.68
,-9.057,1.642,-3.668,-9.005,1.491,-3.101,2.94,0.14,-1.82
14994.0,-9.107,1.297,-3.206,-8.815,1.73,-3.01,4.55,3.57,-2.66
,-8.985,1.204,-3.374,-8.978,1.67,-2.716,6.51,3.85,-2.24
,-8.868,1.39,-3.494,-9.186,1.405,-2.673,8.75,4.76,-2.45
,-8.866,1.558,-3.331,-9.292,1.249,-2.647,9.17,6.58,-2.94
15069.0,-9.294,1.201,-2.474,-8.658,1.0,-4.089,8.96,12.53,-2.66
,-9.194,1.39,-2.544,-8.524,0.735,-4.697,12.39,13.93,-2.59
,-9.127,1.694,-2.833,-8.5,0.89,-4.917,13.79,15.61,-2.17
,-8.878,1.469,-3.288,-8.598,1.235,-4.781,11.83,16.17,-1.4
15145.0,-8.739,1.603,-4.527,-8.918,0.706,-3.896,7.7,15.89,-1.4
,-9.012,1.689,-4.195,-8.782,0.491,-4.094,3.64,16.45,-1.33
,-9.033,1.486,-3.766,-8.772,0.546,-4.212,0.49,16.87,-1.12
,-9.083,1.089,-3.69,-9.012,0.802,-4.149,-0.77,17.15,-0.7
15220.0,-9.129,0.995,-4.008,-8.083,3.034,-4.19,12.74,16.17,2.52
,-9.146,1.082,-4.585,-8.303,3.159,-3.647,16.1,14.77,3.64
,-8.437,1.524,-4.757,-8.636,2.761,-3.424,19.88,14.28,4.34
,-7.99,2.29,-4.501,-8.815,2.161,-3.451,19.18,15.96,3.29
15296.0,-8.83,1.45,-3.853,-8.586,0.756,-3.853,-8.19,22.47,-4.13
,-8.614,0.95,-4.085,-9.21,1.089,-4.408,-5.67,22.68,-4.62
,-8.459,0.672,-4.094,-9.301,1.007,-4.728,-1.75,23.8,-4.41
,-8.346,0.713,-4.003,-9.366,0.869,-4.872,1.68,25.34,-3.43
15372.0,-8.892,1.242,-5.03,-8.112,1.907,-5.738,17.29,17.92,-1.19
,-8.308,2.044,-5.195,-8.043,1.855,-5.827,17.43,20.16,-1.75
,-8.203,2.505,-5.272,-7.827,2.154,-6.025,10.5,21.84,-2.03
,-8.49,2.295,-5.181,-8.674,2.084,-5.03,2.17,21.07,-2.31
15448.0,-9.17,1.548,-4.748,-8.287,0.531,-5.403,-10.92,17.92,-6.44
,-8.54,0.077,-5.296,-8.727,1.163,-4.987,-11.55,12.6,-5.04
,-7.588,-0.687,-5.908,-8.909,1.364,-4.822,-4.34,10.01,-4.34
,-7.679,-0.333,-5.855,-9.139,1.156,-4.779,5.04,12.11,-4.2
15523.0,-8.804,0.849,-4.848,-8.442,0.263,-4.441,3.43,11.48,0.77
,-8.631,0.45,-4.58,-8.825,0.349,-4.767,4.13,11.76,1.05
,-8.263,0.383,-4.436,-8.804,0.639,-4.795,5.95,13.16,0.98
,-8.203,0.273,-4.243,-8.469,1.094,-4.661,7.28,15.68,1.75
15599.0,-7.928,1.804,-4.463,-8.603,1.18,-5.487,17.78,20.37,4.41
,-7.952,2.046,-4.846,-8.658,0.708,-5.343,15.61,19.11,3.71
,-7.904,1.816,-5.544,-8.215,0.376,-5.501,11.48,17.64,3.64
,-8.334,1.539,-5.587,-8.062,0.62,-5.463,7.14,18.27,3.71
15675.0,-7.932,1.079,-5.535,-8.122,1.871,-5.863,24.5,13.23,2.73
,-7.586,1.577,-5.954,-8.117,1.795,-5.853,25.2,13.23,2.45
,-7.851,1.752,-5.939,-7.87,1.735,-5.968,21.07,13.86,1.89
,-8.007,1.804,-5.982,-7.753,1.601,-6.217,15.96,14.42,1.33
15751.0,-7.676,1.464,-6.578,-7.99,1.481,-5.573,6.51,12.67,-3.36
,-7.822,1.307,-6.375,-8.107,1.381,-5.724,4.83,13.51,-3.78
,-8.028,1.278,-5.896,-7.875,1.027,-6.123,3.99,14.21,-3.99
,-8.021,1.402,-5.796,-7.901,0.842,-6.047,4.62,14.77,-4.62
15827.0,-7.976,0.751,-6.021,-7.985,0.888,-5.721,-0.42,13.3,-6.51
,-8.071,0.605,-5.841,-7.956,0.991,-5.559,-0.42,12.74,-6.37
,-7.999,0.591,-5.769,-8.086,1.055,-5.64,0.56,12.04,-6.16
,-7.863,0.689,-5.808,-8.301,0.826,-5.693,1.61,12.88,-5.32
15902.0,-8.198,0.397,-5.669,-8.346,0.352,-6.092,-4.13,14.21,-3.08
,-7.997,-0.112,-5.676,-8.677,0.464,-5.915,-4.34,14.21,-2.31
,-7.815,-0.211,-5.884,-8.16,0.617,-6.143,-2.17,14.28,-1.05
,-7.988,0.017,-6.145,-7.509,0.964,-6.226,0.07,14.56,0.77
15978.0,-7.227,1.618,-6.403,-7.854,1.646,-6.423,1.05,10.15,3.85
,-7.509,1.996,-6.502,-7.937,1.448,-6.368,-1.4,10.64,2.59
,-7.887,2.024,-6.47,-7.897,1.273,-6.592,-5.95,10.5,2.45
,-7.909,1.845,-6.569,-7.808,1.33,-6.573,-10.5,10.36,3.29
16053.0,-7.849,1.385,-6.851,-7.679,0.814,-6.76,-9.87,5.46,-1.61
,-7.59,1.668,-6.779,-7.676,1.134,-7.064,-10.71,4.62,-2.17
,-7.772,1.479,-6.753,-8.11,1.287,-6.805,-12.74,3.36,-3.36
,-7.442,1.022,-6.53,-7.995,1.426,-6.726,-16.38,1.54,-2.17
16129.0,-7.976,1.493,-6.406,-7.729,1.577,-6.391,-19.39,0.91,2.31
,-7.909,1.393,-6.231,-7.815,1.606,-6.157,-20.93,-0.07,2.38
,-7.48,1.062,-6.478,-7.66,1.572,-5.829,-20.16,-0.98,1.75
,-7.904,1.122,-6.219,-7.861,1.496,-5.913,-16.73,-2.17,-0.14
16205.0,-7.605,1.46,-6.222,-8.239,0.34,-5.662,-13.44,-4.48,-3.99
,-7.753,1.441,-6.071,-8.057,0.311,-5.788,-14.14,-3.57,-4.41
,-8.172,1.084,-5.803,-8.007,0.263,-5.944,-15.47,-3.29,-4.27
,-8.191,0.529,-5.762,-8.088,0.483,-5.927,-16.17,-3.22,-3.36
16281.0,-8.153,1.108,-5.791,-7.849,1.496,-6.1,-6.23,-2.87,2.59
,-7.98,1.613,-5.702,-7.932,1.409,-6.016,-5.81,-3.43,2.73
,-7.566,1.694,-5.865,-8.117,1.448,-5.958,-7.28,-3.29,2.45
,-7.586,1.503,-5.906,-8.043,1.441,-6.147,-8.33,-2.73,2.17
16356.0,-8.1,1.603,-6.329,-7.724,1.821,-5.614,-3.22,-3.29,2.8
,-8.138,1.412,-6.021,-7.435,1.823,-5.776,-5.46,-3.22,4.41
,-8.002,1.663,-6.064,-7.55,1.819,-5.942,-6.02,-3.57,5.32
,-7.877,1.977,-5.843,-7.81,1.826,-5.915,-4.83,-3.85,4.9
16432.0,-7.839,1.752,-5.753,-8.15,1.677,-5.418,-5.53,-3.64,2.66
,-7.968,1.618,-5.674,-8.033,1.632,-5.36,-5.81,-2.87,2.52
,-8.083,1.512,-5.48,-7.83,1.694,-5.516,-5.88,-2.59,2.66
,-8.162,1.512,-5.475,-7.834,2.132,-5.501,-5.95,-2.66,2.66
16508.0,-7.743,2.075,-5.621,-8.129,1.354,-6.076,-8.26,-2.1,0.63
,-7.944,1.749,-5.64,-8.141,1.225,-5.805,-9.31,-1.4,0.42
,-7.837,1.878,-5.781,-8.069,1.318,-5.839,-10.08,-1.05,0.56
,-8.129,1.539,-5.8,-8.095,1.28,-5.87,-10.5,-0.56,0.84
16584.0,-8.04,1.074,-5.796,-8.117,1.833,-5.724,-4.97,-1.54,3.22
,-8.1,1.036,-5.87,-7.863,2.058,-5.446,-3.78,-2.66,4.13
,-8.064,1.426,-6.143,-7.772,2.087,-5.298,-2.1,-3.43,4.48
,-8.026,1.424,-6.056,-8.045,3.132,-6.281,-2.03,-3.22,4.76
16660.0,-6.714,2.161,-5.188,-8.019,1.783,-5.568,-0.07,-4.62,1.54
,-8.282,1.764,-5.693,-7.791,1.905,-5.365,-3.22,-2.8,2.94
,-8.258,1.594,-5.81,-7.882,2.106,-5.355,-3.5,-2.1,3.5
,-8.153,1.687,-5.748,-7.928,1.953,-5.497,-1.82,-2.31,3.01
16735.0,-7.88,1.9,-5.518,-7.88,2.233,-5.109,0.35,-1.54,2.17
,-7.949,1.967,-5.336,-7.923,2.118,-5.339,1.75,-0.84,1.89
,-7.825,1.871,-5.319,-8.988,2.166,-5.836,2.59,-0.28,1.33
,-7.892,2.003,-5.142,-7.559,1.345,-5.676,3.71,0.56,0.56
16811.0,-8.43,1.062,-5.595,-8.059,1.586,-5.53,4.9,3.01,-0.49
,-8.126,1.196,-5.827,-8.167,1.713,-5.403,8.47,3.01,-0.56
,-7.856,1.141,-5.784,-8.016,1.711,-5.41,10.71,2.94,-0.84
,-7.899,1.369,-5.729,-8.04,1.524,-5.336,13.09,3.22,-0.63
16886.0,-7.691,1.728,-5.394,-8.191,0.94,-5.647,17.5,4.97,-0.28
,-7.82,1.756,-5.564,-8.244,0.811,-5.616,18.13,5.25,-0.63
,-8.019,1.876,-5.841,-8.153,1.11,-5.229,17.78,5.74,-0.91
,-8.148,1.555,-5.839,-7.842,1.431,-5.518,15.89,6.65,-1.12
16962.0,-7.892,1.598,-5.654,-8.167,1.156,-5.858,23.52,7.07,-0.14
,-8.026,1.699,-5.554,-8.311,1.211,-5.836,23.17,8.19,-0.21
,-8.076,1.371,-5.489,-8.421,1.297,-6.03,21.7,9.03,-0.07
,-8.076,1.378,-5.791,-8.327,1.486,-6.061,21.91,9.38,0.28
17038.0,-8.236,1.675,-5.92,-5.805,2.022,-5.42,22.12,10.22,3.57
,-8.002,1.56,-6.411,-7.818,1.912,-5.779,22.19,9.38,2.87
,-7.868,1.785,-6.329,-8.425,2.137,-6.303,21.84,9.1,2.38
,-7.743,1.881,-6.092,-7.791,2.101,-6.322,22.47,8.75,2.45
17114.0,-7.538,1.965,-6.243,-8.208,1.539,-6.411,24.99,2.87,-3.29
,-7.432,1.943,-6.47,-7.968,1.969,-6.241,25.2,2.59,-3.29
,-7.564,1.776,-6.662,-7.842,2.039,-6.155,23.73,1.96,-3.71
,-8.076,1.577,-6.351,-7.767,1.694,-6.315,22.89,0.56,-5.04
17189.0,-7.674,1.371,-6.674,-7.913,0.866,-6.636,14.77,-2.52,-3.57
,-7.822,1.055,-6.559,-7.983,1.062,-6.021,12.53,-3.64,-2.52
,-8.055,0.893,-6.614,-7.729,1.362,-6.193,12.11,-4.97,-2.1
,-8.095,0.78,-6.743,-7.83,1.548,-5.992,11.27,-5.46,-1.05
17265.0,-7.715,1.407,-6.133,-8.112,0.835,-6.533,6.37,-11.83,0.77
,-7.66,1.254,-6.231,-7.923,0.792,-6.454,4.62,-11.76,1.4
,-7.947,1.206,-6.423,-7.856,1.027,-6.435,3.57,-11.34,2.45
,-8.282,0.974,-6.408,-7.856,1.33,-5.939,1.05,-10.99,3.29
17341.0,-7.968,1.553,-5.836,-7.909,0.763,-5.786,-7.91,-4.55,7.21
,-7.937,1.395,-5.52,-8.023,0.976,-5.772,-9.87,-6.58,6.16
,-7.899,1.072,-5.607,-8.088,0.991,-5.81,-11.27,-9.38,4.2
,-8.021,0.727,-5.547,-8.138,1.146,-5.82,-8.82,-13.3,2.38
17417.0,-8.095,1.156,-5.743,-8.229,1.412,-5.609,-0.14,-13.16,3.43
,-8.133,1.196,-5.604,-7.976,1.503,-5.678,-1.4,-11.62,3.99
,-8.275,1.378,-5.566,-7.842,1.558,-5.793,-2.59,-10.43,4.06
,-8.48,1.433,-5.48,-7.964,1.225,-5.561,-3.64,-10.78,3.71
17493.0,-7.901,0.995,-5.494,-8.378,1.139,-5.293,-6.65,-14.0,1.19
,-8.033,0.83,-5.506,-8.045,1.165,-5.207,-3.43,-15.12,0.91
,-8.265,0.914,-5.441,-8.055,1.433,-5.109,0.14,-15.75,1.05
,-8.512,1.012,-5.26,-7.923,1.756,-5.19,2.8,-16.03,1.4
17568.0,-8.071,1.838,-5.109,-8.294,0.634,-5.226,0.56,-15.12,1.68
,-8.459,1.869,-5.027,-8.078,0.651,-5.195,-2.73,-14.91,1.05
,-8.811,1.665,-4.829,-8.313,0.902,-5.054,-5.6,-15.26,0.56
,-8.638,1.177,-5.095,-8.411,1.228,-5.092,-6.09,-16.66,0.7
17644.0,-8.404,1.211,-4.98,-8.588,1.438,-4.886,4.48,-16.17,2.66
,-8.607,1.175,-4.81,-8.591,1.814,-4.724,3.01,-16.38,3.15
,-8.653,1.127,-4.913,-8.471,1.866,-4.867,3.08,-17.5,3.29
,-8.626,1.287,-5.016,-8.236,1.661,-4.963,3.92,-17.92,2.66
17719.0,-8.2,1.385,-4.838,-8.655,1.244,-4.575,0.7,-16.17,2.94
,-8.514,1.151,-4.633,-8.536,1.316,-4.221,0.77,-16.66,2.52
,-8.681,1.098,-4.594,-8.464,1.369,-4.334,3.36,-16.94,2.45
,-8.363,1.687,-3.005,-8.576,1.235,-4.408,8.26,-19.04,1.54
17795.0,-8.614,0.876,-4.456,-8.861,1.472,-4.477,1.47,-15.89,4.06
,-8.725,0.601,-4.501,-8.538,1.539,-4.429,3.08,-16.31,4.13
,-8.772,0.79,-4.403,-8.55,1.685,-4.073,6.51,-16.17,4.76
,-8.959,1.161,-4.391,-8.66,1.374,-4.128,9.52,-16.17,4.97
17871.0,-8.634,0.759,-4.161,-8.868,2.178,-4.078,3.71,-13.93,6.51
,-8.459,0.62,-4.377,-8.993,2.462,-3.932,6.65,-14.98,7.21
,-8.533,0.986,-4.623,-8.648,2.108,-3.939,10.22,-15.26,7.0
,-8.636,1.608,-4.444,-8.559,1.436,-4.252,11.76,-14.0,6.16
17947.0,-8.375,1.074,-4.429,-8.899,1.912,-3.601,0.91,-13.16,4.41
,-8.476,1.354,-4.472,-8.981,1.448,-3.453,4.06,-12.11,3.5
,-8.72,1.917,-4.214,-8.945,0.914,-3.475,4.76,-10.22,3.01
,-8.863,2.123,-3.903,-8.748,0.754,-3.594,1.26,-8.54,3.01
18022.0,-8.818,0.9,-3.494,-9.052,1.144,-3.477,3.08,-7.0,3.64
,-8.801,1.206,-3.776,-9.048,1.441,-3.204,5.53,-7.07,4.27
,-8.789,1.194,-3.781,-9.036,1.785,-3.434,4.34,-6.86,4.62
,-8.957,1.055,-3.649,-8.634,1.835,-3.821,2.94,-6.16,4.83
18098.0,-8.555,1.649,-3.857,-8.938,2.343,-4.429,4.83,-3.64,5.53
,-8.703,1.496,-4.692,-9.103,2.252,-3.934,5.39,-5.81,5.67
,-8.552,1.505,-4.733,-9.213,1.756,-3.836,5.46,-5.6,5.81
,-8.904,1.955,-4.685,-8.957,1.304,-3.733,5.11,-4.69,4.55
18174.0,-8.875,1.194,-3.738,-8.808,1.797,-3.788,-2.59,-4.48,3.85
,-8.938,1.388,-4.037,-8.88,1.737,-3.601,1.47,-4.9,4.06
,-8.775,1.594,-4.08,-8.945,1.725,-3.429,3.15,-4.62,3.99
,-8.825,1.771,-3.939,-9.005,1.761,-3.465,1.89,-3.64,3.64
18250.0,-9.026,1.694,-3.628,-8.894,2.082,-3.821,-2.45,-2.03,2.31
,-8.995,1.359,-4.166,-9.086,2.218,-3.393,-2.1,-3.01,2.52
,-8.854,1.189,-4.245,-9.227,2.053,-3.269,-0.91,-3.01,2.87
,-8.787,1.579,-4.113,-9.256,1.67,-3.381,0.14,-2.17,2.94
18326.0,-9.009,1.402,-3.539,-9.04,1.914,-3.319,-2.31,-1.33,2.24
,-8.856,1.531,-3.659,-9.038,1.754,-3.35,1.19,-0.77,2.17
,-8.753,1.785,-3.716,-9.045,1.527,-3.374,3.01,-0.21,2.38
,-8.772,1.957,-3.453,-9.079,1.508,-3.668,2.87,0.84,2.45
18401.0,-8.942,1.689,-3.802,-9.052,1.414,-3.537,3.29,2.52,1.47
,-8.964,1.859,-3.786,-8.997,1.096,-3.709,2.59,3.43,1.26
,-8.844,1.888,-3.625,-8.844,1.149,-3.805,1.12,4.2,1.12
,-8.926,1.756,-3.522,-8.878,1.553,-3.996,-0.56,4.76,1.33
18477.0,-8.835,2.017,-3.908,-9.1,1.515,-3.951,8.4,4.55,2.31
,-8.909,2.168,-3.716,-8.775,1.194,-4.487,5.32,5.53,2.03
,-9.076,2.127,-3.448,-8.55,1.378,-4.803,2.8,5.88,1.4
,-9.115,1.91,-3.472,-8.61,1.804,-4.898,1.75,5.81,0.7
18552.0,-8.717,2.213,-4.755,-8.935,1.397,-3.953,5.32,3.57,1.26
,-8.868,2.206,-4.642,-8.961,1.441,-3.948,0.91,3.01,0.56
,-8.959,1.797,-4.245,-8.871,1.591,-3.97,-3.01,2.45,0.21
,-8.949,1.496,-4.109,-8.866,1.783,-4.087,-3.01,1.82,0.35
18628.0,-8.89,1.869,-3.994,-8.978,1.653,-3.735,3.78,0.98,0.91
,-8.926,1.788,-3.924,-8.88,1.716,-3.63,2.31,0.98,0.63
,-8.832,1.756,-3.714,-8.969,1.845,-3.939,1.33,1.61,0.56
,-9.012,1.685,-3.709,-8.801,1.804,-3.807,0.98,1.68,0.42
18704.0,-8.952,1.716,-3.944,-8.823,1.663,-4.458,1.61,2.17,0.21
,-8.911,1.62,-4.2,-8.748,1.744,-4.279,1.61,1.68,0.56
,-8.871,1.519,-4.429,-8.911,1.675,-4.07,1.96,1.54,0.7
,-8.825,1.551,-4.367,-8.966,1.689,-3.867,2.8,1.47,0.77
18780.0,-9.088,1.62,-3.922,-8.863,1.967,-3.903,0.21,1.19,0.35
,-9.086,1.385,-3.814,-9.021,2.041,-3.668,1.61,0.84,0.77
,-8.904,1.486,-4.066,-9.038,1.819,-3.637,4.55,0.42,1.19
,-8.722,1.809,-4.212,-8.988,1.598,-3.711,6.02,0.42,1.12
18855.0,-8.866,1.591,-3.884,-8.83,1.962,-4.164,3.5,1.4,0.14
,-8.823,1.732,-4.051,-8.892,1.835,-4.078,4.55,1.47,0.14
,-8.78,1.936,-4.106,-8.882,1.675,-4.092,4.62,1.68,0.14
,-8.77,2.024,-4.178,-8.878,1.606,-4.044,3.43,1.75,-0.14
18931.0,-8.871,1.625,-3.924,-8.94,1.436,-3.853,2.52,1.54,-0.91
,-8.935,1.73,-3.853,-8.921,1.488,-3.963,2.87,1.47,-0.98
,-8.983,1.764,-3.766,-8.885,1.555,-4.046,2.8,1.54,-0.98
,-9.0,1.582,-3.769,-8.868,1.721,-4.123,2.87,1.33,-1.05
19006.0,-8.918,1.811,-3.977,-8.945,1.464,-3.979,3.99,2.1,-0.77
,-8.923,1.766,-3.872,-8.914,1.551,-4.061,2.94,2.17,-0.91
,-8.949,1.692,-3.896,-8.859,1.773,-4.049,2.1,2.03,-0.84
,-9.009,1.515,-3.915,-8.868,1.9,-3.996,2.52,1.75,-0.77
19082.0,-8.887,1.809,-3.833,-8.882,1.522,-3.994,1.47,2.45,-0.7
,-9.028,1.608,-3.869,-8.859,1.665,-3.972,0.49,2.45,-0.7
,-8.978,1.448,-3.836,-8.928,1.814,-3.908,0.91,2.17,-0.7
,-8.859,1.448,-3.9,-8.868,1.821,-3.874,2.24,1.89,-0.63
19158.0,-8.957,1.67,-3.836,-8.938,1.534,-4.135,-0.28,3.01,-0.91
,-8.909,1.589,-3.912,-8.938,1.586,-4.188,0.07,2.59,-0.98
,-8.866,1.558,-3.891,-8.926,1.579,-4.35,0.84,2.87,-1.05
,-8.993,1.498,-3.975,-8.827,1.625,-4.558,1.96,2.8,-0.98
19234.0,-8.777,1.642,-4.451,-8.966,1.431,-3.743,1.26,1.47,-0.84
,-8.847,1.682,-4.293,-9.033,1.414,-3.8,0.14,1.47,-1.12
,-8.868,1.663,-4.044,-9.026,1.385,-4.066,-0.42,1.54,-1.05
,-8.969,1.563,-3.939,-8.871,1.443,-4.183,-0.21,1.26,-0.98
19310.0,-8.765,1.582,-4.329,-8.88,1.393,-4.209,4.76,0.28,-0.35
,-8.799,1.804,-4.346,-8.873,1.323,-4.195,3.57,0.49,-0.63
,-8.871,1.888,-4.269,-8.909,1.393,-4.027,1.19,0.42,-0.91
,-8.885,1.689,-4.24,-8.94,1.582,-3.912,-0.98,0.35,-1.05
19385.0,-9.06,1.653,-3.81,-8.995,1.622,-3.891,1.82,-0.28,-0.63
,-9.014,1.601,-3.704,-8.973,1.704,-3.802,0.98,-0.21,-0.49
,-8.988,1.498,-3.814,-9.016,1.723,-3.79,1.26,-0.21,-0.35
,-8.94,1.484,-3.778,-8.988,1.694,-3.841,2.03,-0.21,-0.35
19461.0,-8.89,1.63,-3.805,-8.945,1.603,-3.649,2.73,1.26,-0.56
,-8.93,1.634,-3.731,-8.957,1.74,-3.494,2.59,1.61,-0.7
,-8.952,1.505,-3.838,-9.026,1.682,-3.317,2.73,1.19,-0.63
,-8.89,1.472,-3.812,-9.095,1.467,-3.475,3.64,1.33,-0.7
19537.0,-8.959,1.223,-3.85,-8.911,1.962,-4.207,6.58,3.15,-0.84
,-8.705,1.247,-4.094,-8.981,1.634,-4.197,9.38,3.15,-0.63
,-8.739,1.615,-4.243,-8.906,1.448,-4.415,10.5,3.36,-1.26
,-8.839,1.993,-4.295,-8.756,1.445,-4.539,9.03,3.78,-1.68
19613.0,-8.801,1.665,-4.57,-8.902,1.216,-4.166,4.34,1.89,-2.8
,-8.823,1.752,-4.487,-8.835,1.196,-3.987,3.71,1.89,-3.22
,-8.856,1.74,-4.384,-8.906,1.39,-3.673,1.75,1.96,-3.43
,-8.957,1.46,-4.293,-9.086,1.579,-3.723,0.42,1.82,-3.71
19688.0,-9.155,1.608,-3.805,-8.847,1.529,-3.877,5.04,1.12,-3.01
,-9.158,1.29,-3.939,-8.93,1.551,-3.494,5.39,0.42,-2.59
,-8.873,1.153,-3.941,-9.105,1.448,-3.228,7.35,0.56,-2.1
,-8.866,1.33,-3.886,-9.153,1.259,-3.039,9.38,1.05,-2.17
19764.0,-9.079,1.084,-3.12,-8.918,1.28,-3.577,6.44,4.97,-1.47
,-8.938,0.972,-3.475,-8.902,1.326,-3.597,7.56,5.67,-1.47
,-8.806,0.981,-3.616,-8.789,1.228,-3.577,8.33,6.23,-1.33
,-8.851,1.07,-3.702,-8.737,1.457,-3.441,8.12,7.63,-1.26
19839.0,-8.758,1.78,-3.199,-8.928,0.749,-4.178,7.63,12.81,-2.24
,-8.823,2.022,-2.721,-8.906,0.263,-4.614,5.32,15.54,-3.15
,-9.079,1.936,-3.101,-8.765,0.249,-4.568,1.82,16.03,-3.57
,-8.973,1.417,-3.475,-8.926,0.749,-4.556,-1.54,15.89,-3.29
19915.0,-8.949,1.18,-4.434,-8.643,1.579,-4.422,10.08,14.63,1.05
,-8.916,1.28,-4.231,-8.469,2.024,-4.331,8.89,14.49,1.96
,-8.871,1.295,-4.362,-8.406,2.082,-4.302,8.61,13.44,2.17
,-8.696,1.302,-4.346,-8.327,1.797,-4.556,9.66,12.6,2.38
19991.0,-8.356,1.555,-4.709,-8.93,2.151,-3.597,3.85,14.63,-0.77
,-8.421,1.728,-4.611,-9.354,1.539,-4.044,4.41,15.68,-2.1
,-8.519,2.084,-4.255,-9.007,0.452,-4.776,3.29,17.85,-3.92
,-8.67,2.182,-4.003,-8.48,-0.014,-5.398,-1.4,19.6,-5.46
20067.0,-8.15,0.474,-5.322,-8.598,1.101,-4.398,0.91,15.19,-3.92
,-8.497,1.196,-4.958,-8.488,1.364,-4.25,3.22,17.15,-3.5
,-8.698,1.345,-4.532,-8.538,1.694,-3.728,1.47,17.64,-2.59
,-8.653,1.199,-4.357,-8.476,1.656,-3.369,1.19,17.22,-1.19
20143.0,-8.526,1.165,-3.491,-8.234,1.299,-4.645,-3.36,23.31,-3.36
,-8.313,0.646,-4.401,-9.069,1.354,-4.35,-3.22,19.88,-2.1
,-7.834,0.562,-4.951,-8.787,1.034,-4.501,-0.07,18.9,-1.47
,-7.736,0.976,-4.951,-8.847,0.869,-4.566,2.45,20.86,-2.31
20218.0,-8.928,0.893,-4.889,-8.267,-0.01,-5.566,3.64,13.16,-1.12
,-8.662,0.744,-5.092,-8.038,-0.412,-6.114,5.46,13.65,-1.19
,-8.696,0.51,-5.016,-8.289,-0.254,-6.035,6.51,15.75,-1.33
,-8.433,0.426,-5.073,-8.624,0.648,-5.516,7.28,17.15,-0.42
20294.0,-8.916,1.594,-4.719,-8.232,1.814,-5.575,14.98,19.6,5.18
,-8.703,2.182,-4.972,-8.131,1.304,-5.578,14.42,16.59,4.34
,-7.932,2.304,-5.499,-8.117,0.866,-5.518,11.27,15.05,3.71
,-8.045,2.197,-5.573,-8.107,0.749,-5.678,7.35,14.91,3.01
20370.0,-8.088,0.852,-5.86,-8.248,1.802,-5.903,8.75,18.27,0.28
,-8.071,1.003,-5.997,-7.899,1.551,-6.064,9.45,18.69,0.63
,-8.177,1.352,-5.922,-7.99,1.137,-5.884,8.61,19.53,0.84
,-8.267,1.778,-5.882,-7.928,0.56,-5.939,6.44,20.16,0.56
20446.0,-8.076,0.27,-6.143,-7.755,1.558,-6.315,-1.12,13.02,-0.14
,-8.457,0.38,-6.135,-7.865,1.285,-6.145,3.01,13.09,0.77
,-8.619,0.926,-5.961,-8.088,1.053,-6.205,8.47,13.23,1.05
,-8.308,1.417,-6.03,-8.126,0.78,-6.021,12.39,12.18,0.7
20521.0,-8.124,0.629,-5.882,-7.87,1.823,-5.631,3.15,9.1,0.98
,-8.047,0.651,-6.071,-7.803,1.62,-5.982,5.81,9.38,0.91
,-8.162,1.01,-5.875,-7.899,1.098,-6.095,9.31,9.1,0.98
,-8.05,1.622,-5.75,-7.827,1.12,-6.377,11.48,7.91,0.77
20597.0,-7.813,1.352,-6.456,-7.787,1.122,-5.863,-0.49,9.24,0.42
,-8.332,1.606,-5.719,-7.521,1.012,-6.011,-3.15,10.36,1.26
,-8.464,1.649,-5.75,-7.674,1.369,-6.1,-6.02,9.59,1.12
,-8.287,1.424,-5.451,-8.124,1.773,-6.351,-7.63,8.75,0.91
20672.0,-8.418,1.754,-6.576,-7.528,0.964,-6.329,-13.58,7.35,1.26
,-8.095,1.527,-6.604,-7.834,1.271,-5.946,-17.01,7.14,1.33
,-7.784,1.141,-6.391,-8.272,1.503,-5.786,-18.34,6.09,1.61
,-7.526,0.833,-6.463,-8.11,1.299,-5.843,-18.06,3.99,1.47
20748.0,-8.172,1.048,-5.791,-7.947,0.83,-5.65,-17.29,3.92,1.82
,-8.229,0.699,-5.767,-7.923,0.976,-6.068,-17.85,3.78,1.82
,-8.071,0.766,-5.695,-7.758,1.29,-6.554,-16.45,3.5,1.12
,-8.155,0.66,-5.559,-7.655,1.649,-6.382,-14.63,3.01,0.98
20824.0,-7.81,1.859,-6.176,-7.7,1.725,-5.59,-19.95,1.68,5.32
,-7.83,1.991,-6.018,-7.739,1.113,-5.552,-21.63,1.05,4.69
,-8.071,2.039,-5.812,-8.303,0.713,-5.623,-23.17,0.84,4.13
,-7.708,2.039,-5.628,-8.327,0.804,-5.599,-24.64,0.35,3.5
20900.0,-8.141,1.065,-5.882,-7.849,2.477,-5.631,-8.26,-2.24,0.91
,-7.961,1.036,-5.932,-7.971,2.185,-5.413,-6.65,-2.38,1.54
,-7.928,1.433,-5.817,-7.911,2.295,-5.592,-4.69,-2.66,1.26
,-7.667,2.082,-5.894,-7.822,2.24,-5.963,-5.11,-1.68,1.75
20976.0,-7.93,1.89,-6.006,-7.674,0.84,-5.887,-11.06,-0.84,-0.28
,-8.028,1.479,-5.961,-7.801,1.371,-5.678,-11.69,-0.91,0.14
,-8.155,1.278,-5.977,-7.959,1.802,-5.724,-10.29,-1.54,0.28
,-7.921,0.995,-6.04,-8.337,1.756,-5.726,-7.91,-2.31,0.42
21051.0,-8.356,1.51,-5.552,-7.82,1.582,-5.37,-7.28,-0.7,3.71
,-8.342,1.206,-5.109,-8.035,1.862,-5.497,-8.75,-0.35,4.2
,-7.992,1.256,-5.284,-8.428,1.843,-5.511,-7.35,-0.28,4.27
,-7.724,1.481,-5.231,-8.275,2.144,-5.678,-7.49,1.54,3.57
21127.0,-8.066,2.209,-5.647,-7.66,2.237,-5.903,-8.26,3.43,8.33
,-7.763,2.144,-5.901,-7.889,2.398,-5.798,-9.31,2.73,7.91
,-7.7,1.881,-5.968,-8.019,2.757,-5.865,-9.1,2.59,6.79
,-7.636,1.718,-5.681,-7.988,2.606,-5.705,-6.86,2.31,5.81
21203.0,-8.035,2.041,-5.408,-6.655,2.01,-5.992,-10.71,2.24,3.99
,-8.035,1.493,-5.341,-8.181,2.407,-5.793,-9.73,2.45,3.78
,-7.976,1.718,-5.365,-7.815,2.551,-5.497,-5.95,1.54,2.94
,-7.767,2.032,-5.793,-8.026,1.89,-5.171,-4.55,0.7,2.1
21279.0,-7.76,1.675,-5.386,-8.267,1.955,-5.843,-4.69,0.7,0.63
,-7.856,1.618,-5.473,-8.071,1.9,-5.705,-2.45,0.7,1.12
,-7.889,1.874,-5.757,-7.885,1.723,-5.865,-1.19,0.98,1.75
,-8.122,1.821,-5.939,-7.72,1.716,-5.98,-1.19,1.19,1.96
21354.0,-7.834,1.866,-6.092,-7.514,2.424,-5.681,3.15,0.21,1.82
,-8.052,2.594,-6.1,-7.581,2.163,-5.559,4.62,-0.35,1.47
,-8.155,2.73,-5.719,-7.81,2.144,-5.669,3.85,-0.84,0.84
,-7.779,2.687,-5.719,-8.071,2.223,-5.726,3.71,-1.4,-0.14
21430.0,-8.071,1.974,-5.674,-7.971,1.515,-5.298,4.55,0.7,-1.68
,-8.021,1.653,-5.712,-7.906,1.735,-5.398,3.99,0.35,-0.98
,-7.966,1.318,-5.499,-7.87,1.685,-5.422,4.76,0.77,-0.63
,-7.995,1.285,-5.288,-7.928,1.572,-5.614,7.63,0.84,-0.77
21505.0,-7.964,1.603,-5.717,-7.739,2.178,-5.631,14.35,3.01,-0.07
,-8.11,1.799,-5.832,-7.837,1.756,-5.542,15.54,3.5,-0.28
,-8.033,1.9,-5.659,-7.923,2.077,-5.686,16.03,3.85,-0.56
,-7.791,1.917,-5.518,-8.059,1.902,-5.506,17.15,4.2,-1.05
21581.0,-7.93,1.785,-5.642,-8.126,1.577,-5.82,20.58,5.18,-3.78
,-7.928,1.658,-5.822,-8.272,1.362,-5.922,21.42,5.53,-4.2
,-8.167,1.632,-5.769,-8.248,1.271,-5.961,22.33,5.81,-4.41
,-8.004,1.721,-5.848,-8.189,1.194,-5.793,23.31,6.23,-4.27
21657.0,-8.16,1.539,-5.982,-8.143,1.275,-6.174,21.91,7.28,-1.19
,-8.165,1.503,-6.181,-8.215,1.651,-6.298,20.86,7.14,-0.56
,-8.165,0.995,-6.1,-8.126,1.866,-5.858,19.25,6.58,-0.14
,-8.184,0.838,-5.954,-8.076,2.115,-6.341,20.93,5.81,0.56
21733.0,-7.676,2.302,-6.375,-7.703,1.977,-6.155,28.35,2.52,-0.91
,-7.775,2.489,-6.396,-7.638,1.986,-6.097,27.16,2.03,-1.12
,-7.779,2.041,-6.344,-7.705,1.936,-6.116,23.66,1.12,-1.68
,-7.734,1.792,-6.202,-7.916,1.677,-6.171,23.1,-0.07,-3.29
21809.0,-7.997,1.376,-6.269,-7.954,1.328,-6.162,25.62,-2.8,-5.25
,-8.045,1.137,-6.243,-8.026,1.163,-5.932,25.76,-4.06,-4.69
,-7.868,1.094,-6.415,-7.865,1.228,-6.071,26.32,-5.11,-4.48
,-7.803,1.196,-6.231,-7.784,1.07,-6.033,25.41,-5.39,-3.92
21884.0,-8.117,1.058,-6.123,-8.045,1.632,-5.896,6.37,-6.86,3.01
,-8.236,1.115,-6.231,-7.913,1.541,-5.765,3.92,-6.93,4.13
,-8.454,1.125,-6.178,-7.597,1.338,-6.205,1.82,-6.86,4.62
,-8.191,1.412,-6.14,-7.612,1.17,-6.056,0.63,-7.0,5.46
21960.0,-7.796,0.938,-5.731,-7.779,1.385,-6.056,1.75,-10.92,3.22
,-8.031,1.101,-5.769,-7.794,1.206,-5.887,3.71,-10.85,3.15
,-8.098,1.232,-5.762,-8.145,1.189,-5.87,3.78,-10.22,3.78
,-7.968,1.402,-5.906,-8.433,0.995,-5.757,1.96,-8.54,3.64
22036.0,-8.076,0.821,-5.8,-8.356,1.35,-5.621,-10.85,-5.39,3.36
,-7.715,1.079,-5.848,-8.287,1.24,-5.683,-8.05,-5.74,2.66
,-7.729,1.251,-5.741,-8.028,1.065,-5.492,-6.79,-5.67,2.31
,-7.959,1.45,-5.659,-7.949,0.854,-5.47,-6.79,-5.95,1.82
22112.0,-7.964,1.082,-5.54,-8.524,1.173,-5.236,-1.26,-9.38,0.98
,-8.141,1.182,-5.372,-8.471,0.928,-5.238,-0.21,-9.52,0.84
,-8.349,1.22,-5.346,-8.445,0.715,-5.173,-0.35,-10.29,1.33
,-8.411,1.271,-5.272,-8.263,0.821,-5.336,-0.7,-10.57,1.96
22187.0,-8.078,1.077,-5.396,-8.11,2.163,-5.463,3.36,-13.23,4.9
,-8.227,1.577,-5.379,-8.186,2.058,-5.446,4.9,-13.58,5.81
,-8.346,1.996,-5.305,-8.136,1.96,-5.422,4.62,-14.14,5.95
,-8.256,2.139,-5.415,-8.155,1.773,-5.391,3.22,-14.42,4.2
22263.0,-8.157,1.565,-5.396,-8.236,1.601,-5.188,-1.47,-15.4,0.35
,-8.251,1.445,-5.264,-8.251,1.326,-5.236,0.77,-16.17,-0.35
,-8.526,1.472,-5.243,-8.43,1.06,-5.317,3.36,-17.36,-1.05
,-8.416,1.687,-5.286,-8.526,1.106,-4.922,5.25,-17.43,-1.12
22338.0,-8.653,1.218,-4.611,-8.677,0.505,-4.525,2.17,-16.87,0.7
,-8.593,1.175,-4.338,-8.746,0.627,-4.666,2.38,-16.66,0.77
,-8.457,1.161,-4.369,-8.72,1.003,-4.64,2.03,-16.03,0.91
,-8.576,0.835,-4.389,-8.605,1.357,-4.64,1.82,-16.17,1.75
22414.0,-8.368,1.68,-4.494,-8.71,1.414,-3.807,8.61,-13.65,4.41
,-8.337,1.831,-4.106,-8.603,1.098,-4.03,5.32,-12.04,4.48
,-8.497,1.969,-3.944,-8.433,1.077,-4.231,2.59,-11.06,4.27
,-8.818,1.859,-3.771,-8.375,1.395,-4.453,1.4,-11.41,4.13
22490.0,-8.562,1.663,-4.267,-8.337,1.421,-4.594,12.18,-10.92,2.87
,-8.67,1.811,-4.068,-8.095,1.266,-4.58,10.08,-9.45,2.45
,-8.634,1.986,-3.891,-8.54,1.433,-4.585,7.35,-8.4,2.31
,-8.655,1.845,-4.219,-8.906,1.472,-4.554,5.46,-8.61,1.96
22566.0,-9.091,1.137,-4.472,-8.528,1.072,-4.527,1.26,-6.72,1.26
,-8.818,0.816,-4.561,-8.823,1.254,-4.456,1.75,-7.07,1.4
,-8.612,0.792,-4.551,-8.897,1.098,-4.623,3.15,-6.86,2.1
,-8.454,0.94,-4.762,-8.78,0.893,-4.415,4.9,-7.21,2.73
22642.0,-8.885,1.158,-4.379,-8.342,2.312,-4.525,9.03,-9.03,5.46
,-8.904,1.646,-4.441,-8.552,2.422,-4.487,11.83,-9.38,5.67
,-8.799,1.816,-4.544,-8.583,2.292,-4.25,12.25,-9.31,5.53
,-8.435,1.993,-4.673,-8.868,2.175,-3.946,11.9,-9.45,5.32
22717.0,-8.926,2.044,-3.927,-8.739,1.005,-4.271,-0.56,-7.07,0.63
,-8.82,1.682,-3.891,-8.89,0.952,-4.3,-2.38,-6.16,0.0
,-8.751,1.369,-3.97,-9.009,0.842,-4.223,-3.36,-5.74,-0.28
,-8.72,1.129,-4.159,-8.897,0.809,-4.097,-3.43,-6.37,-0.14
22793.0,-8.894,0.974,-3.941,-8.768,1.551,-4.635,0.07,-6.02,3.15
,-8.885,1.151,-3.987,-8.65,1.704,-4.786,2.17,-6.72,3.5
,-9.005,1.287,-4.243,-8.576,2.0,-4.511,3.29,-7.21,4.06
,-8.784,1.381,-4.432,-8.641,2.295,-4.176,4.27,-7.56,4.27
22869.0,-8.839,2.149,-3.575,-8.847,1.007,-4.061,-5.6,-4.48,1.05
,-9.234,1.553,-3.783,-8.921,1.472,-4.066,-7.91,-6.09,0.91
,-8.902,0.763,-3.853,-8.904,1.855,-3.838,-6.58,-6.93,1.61
,-8.82,0.574,-4.066,-8.906,1.967,-3.415,-2.38,-7.14,2.1
22945.0,-9.031,1.881,-3.185,-8.847,1.201,-4.145,-3.71,-4.06,2.52
,-9.119,1.448,-3.293,-8.823,1.922,-4.018,-4.2,-4.13,2.45
,-9.038,0.962,-3.728,-8.897,2.247,-3.731,-1.96,-5.11,2.73
,-8.892,0.814,-3.979,-9.028,2.333,-3.355,1.89,-5.11,3.29
23020.0,-9.036,2.132,-3.116,-8.801,1.247,-4.302,-5.67,-1.26,1.54
,-9.136,1.742,-3.192,-8.78,1.646,-4.338,-6.02,-1.19,1.26
,-9.091,1.23,-3.489,-8.854,1.929,-3.972,-3.5,-1.61,1.75
,-8.933,0.983,-4.018,-9.0,2.166,-3.632,0.63,-2.52,2.59
23096.0,-9.055,1.989,-3.281,-8.942,1.062,-3.396,-4.62,0.49,1.26
,-9.127,1.653,-3.034,-8.906,1.479,-3.486,-6.16,1.05,0.77
,-9.155,1.266,-3.156,-9.04,1.838,-3.599,-5.18,1.26,0.77
,-8.966,1.007,-3.305,-9.031,1.912,-3.642,-2.17,1.33,1.19
23171.0,-8.947,1.893,-3.716,-8.978,1.505,-3.975,2.94,2.8,2.03
,-8.892,1.807,-3.723,-8.954,1.515,-4.19,1.47,3.36,1.68
,-8.904,1.701,-3.764,-8.866,1.596,-4.326,0.49,3.78,1.4
,-8.93,1.591,-3.814,-8.849,1.665,-4.221,0.56,3.99,1.33
23247.0,-8.861,1.823,-4.19,-8.921,1.642,-3.831,0.77,3.08,1.54
,-8.947,1.814,-4.068,-8.957,1.594,-3.872,-0.35,2.94,1.47
,-8.952,1.661,-3.922,-8.954,1.555,-3.97,-0.21,2.73,1.4
,-8.909,1.673,-3.879,-8.875,1.687,-3.886,0.84,2.31,1.54
23323.0,-9.043,1.663,-3.848,-8.818,1.646,-4.003,3.78,2.45,1.68
,-9.04,1.658,-3.989,-8.885,1.723,-3.865,3.36,2.31,1.75
,-8.99,1.608,-4.013,-9.014,1.649,-3.891,2.8,2.24,1.68
,-8.921,1.646,-4.044,-8.964,1.668,-3.687,2.45,2.31,1.68
23399.0,-9.021,1.598,-3.601,-8.818,1.721,-4.034,1.96,2.87,1.82
,-9.012,1.67,-3.666,-8.866,1.718,-4.168,2.94,2.8,2.03
,-8.916,1.668,-3.838,-8.854,1.668,-4.156,3.5,2.87,2.03
,-8.844,1.721,-3.927,-8.947,1.646,-4.238,3.71,2.94,1.89
23475.0,-8.863,1.618,-4.188,-8.942,1.732,-4.154,1.61,2.66,1.68
,-8.928,1.642,-4.305,-8.827,1.735,-3.86,1.33,2.52,1.61
,-8.851,1.582,-4.264,-8.997,1.73,-3.924,1.33,2.38,1.75
,-8.897,1.692,-4.197,-8.878,1.67,-3.798,1.4,2.17,1.61
23550.0,-8.83,1.761,-4.183,-8.871,1.89,-3.594,3.99,1.12,1.33
,-8.772,1.792,-3.932,-8.961,1.811,-3.553,3.92,1.61,1.19
,-8.885,1.941,-3.848,-8.952,1.728,-3.47,3.29,2.24,0.91
,-8.784,2.01,-3.723,-8.985,1.74,-3.728,2.17,2.66,0.7
23626.0,-8.892,1.706,-3.776,-8.983,1.795,-4.049,1.54,3.85,0.07
,-8.854,1.675,-3.917,-8.926,1.644,-4.008,2.17,4.34,-0.07
,-8.851,1.828,-3.941,-8.914,1.524,-4.154,2.66,4.55,-0.28
,-9.0,1.852,-4.022,-8.818,1.625,-4.097,2.17,4.55,-0.28
23702.0,-8.887,1.651,-4.066,-8.849,1.596,-4.03,2.8,4.13,-0.14
,-8.93,1.721,-4.025,-8.871,1.589,-4.082,2.59,4.27,-0.14
,-8.93,1.665,-3.958,-8.887,1.603,-4.202,1.89,4.34,-0.28
,-8.918,1.601,-4.006,-8.861,1.613,-4.214,2.17,3.92,-0.21
23778.0,-8.89,1.692,-4.238,-8.916,1.661,-4.19,4.97,3.22,0.28
,-8.938,1.809,-4.092,-8.923,1.608,-4.125,4.9,3.22,0.28
,-8.947,1.802,-4.049,-8.835,1.632,-4.173,4.2,2.94,0.14
,-8.928,1.761,-4.097,-8.842,1.606,-4.082,3.64,2.73,0.07
23853.0,-8.911,1.706,-4.171,-8.942,1.596,-4.087,5.11,1.96,0.49
,-8.825,1.699,-3.939,-8.799,1.699,-4.159,4.83,2.38,0.28
,-8.945,1.716,-4.034,-8.849,1.785,-4.259,4.48,2.31,0.14
,-8.871,1.682,-3.898,-8.873,1.704,-4.128,3.99,2.45,0.21
23929.0,-8.921,1.661,-4.276,-8.839,1.642,-4.391,2.38,2.38,-0.35
,-8.909,1.541,-4.147,-8.801,1.692,-4.372,2.17,2.1,-0.28
,-8.887,1.519,-4.238,-8.78,1.718,-4.346,2.59,1.75,-0.21
,-8.796,1.589,-4.372,-8.794,1.756,-4.228,3.78,1.26,0.0
24004.0,-8.868,1.63,-4.011,-8.813,1.67,-4.302,0.28,1.12,-0.63
,-8.942,1.508,-4.149,-8.784,1.706,-4.209,0.7,0.42,-0.49
,-8.882,1.419,-4.209,-8.866,1.759,-4.106,1.96,0.14,-0.35
,-8.851,1.488,-4.271,-8.918,1.582,-3.984,3.22,0.07,-0.14
24080.0,-8.949,1.522,-3.896,-8.847,1.677,-4.006,1.19,0.28,-0.77
,-8.954,1.39,-3.941,-8.878,1.728,-3.865,2.52,-0.14,-0.42
,-8.847,1.381,-3.963,-8.952,1.699,-3.917,3.78,-0.14,-0.14
,-8.799,1.539,-4.018,-8.906,1.589,-3.752,4.76,0.07,-0.14
24156.0,-8.961,1.472,-3.783,-8.897,1.788,-4.011,2.94,0.84,-0.49
,-8.789,1.577,-3.915,-8.835,1.644,-4.011,4.13,1.05,-0.63
,-8.832,1.723,-4.034,-8.832,1.546,-4.073,4.76,1.26,-0.84
,-8.83,1.85,-4.066,-8.849,1.541,-4.051,3.5,1.68,-0.98
24232.0,-8.902,1.534,-4.032,-8.952,1.61,-4.156,1.68,2.17,-1.75
,-8.89,1.515,-4.046,-8.868,1.541,-4.142,2.24,1.96,-1.61
,-8.844,1.539,-4.02,-8.849,1.543,-4.188,3.22,1.96,-1.54
,-8.89,1.596,-3.994,-8.832,1.601,-4.137,3.99,2.03,-1.54
24307.0,-8.899,1.613,-4.099,-8.894,1.486,-4.13,4.06,2.03,-1.68
,-8.847,1.469,-4.078,-9.012,1.426,-4.097,3.36,1.96,-1.89
,-8.89,1.385,-4.137,-9.007,1.433,-3.963,3.22,1.68,-1.82
,-8.854,1.46,-4.25,-8.966,1.469,-3.872,3.71,1.54,-1.68
24383.0,-8.928,1.476,-3.891,-8.83,1.618,-4.087,5.32,2.03,-1.05
,-8.938,1.579,-3.898,-8.871,1.721,-3.979,5.25,2.52,-1.05
,-8.894,1.484,-4.025,-8.933,1.709,-3.924,5.46,2.38,-1.05
,-8.842,1.496,-4.135,-8.961,1.441,-3.955,5.81,2.38,-1.19
24459.0,-8.94,1.211,-4.066,-8.928,1.732,-4.025,2.24,3.78,-1.96
,-8.93,1.182,-4.188,-8.868,1.773,-3.948,3.85,3.71,-1.82
,-8.899,1.441,-4.192,-8.875,1.596,-3.821,5.46,3.64,-1.82
,-8.921,1.656,-4.216,-8.988,1.347,-3.848,5.6,3.78,-2.1
24535.0,-8.921,1.108,-3.91,-8.844,1.558,-4.262,3.08,4.13,-2.45
,-8.894,1.129,-4.056,-8.983,1.402,-4.267,5.67,4.2,-2.03
,-8.804,1.287,-4.324,-8.954,1.263,-4.255,7.91,3.85,-1.75
,-8.763,1.443,-4.216,-8.885,1.266,-4.24,7.98,4.41,-1.89
24611.0,-8.885,1.4,-4.042,-8.868,0.849,-4.2,6.02,4.69,-1.68
,-8.949,1.519,-3.745,-8.77,1.046,-4.374,4.97,5.6,-1.75
,-9.033,1.314,-3.546,-8.777,1.429,-4.515,3.5,5.81,-1.54
,-9.024,1.017,-3.802,-8.725,1.687,-4.602,4.69,4.9,-0.7
24686.0,-8.576,1.771,-4.578,-8.859,1.237,-3.793,9.1,4.2,-1.19
,-8.545,1.718,-4.331,-8.665,1.323,-3.494,6.51,4.76,-1.61
,-8.859,1.582,-4.042,-8.76,1.503,-3.527,4.2,5.32,-2.1
,-9.064,1.429,-3.867,-8.727,1.579,-3.898,3.99,5.32,-2.17
24762.0,-8.835,1.438,-4.056,-8.849,1.567,-4.121,14.7,5.53,-2.73
,-8.789,1.476,-4.111,-8.78,1.381,-4.343,16.24,5.74,-3.36
,-8.693,1.601,-4.089,-8.775,0.972,-4.317,17.08,6.16,-3.08
,-8.653,1.598,-3.939,-8.598,1.003,-4.434,16.66,6.72,-2.66
24837.0,-8.677,1.196,-3.891,-8.708,0.66,-4.386,11.13,9.38,-4.41
,-8.868,1.424,-3.814,-8.949,0.579,-4.393,8.75,9.94,-4.76
,-8.624,1.388,-3.948,-9.131,0.481,-4.25,6.65,9.8,-4.48
,-8.631,0.943,-4.168,-9.158,0.536,-3.996,4.2,9.94,-4.9
24913.0,-9.031,0.56,-3.927,-8.961,1.036,-3.944,6.72,13.3,-0.77
,-8.737,0.479,-4.042,-9.148,1.041,-3.898,6.86,12.53,-0.28
,-8.583,0.474,-4.312,-8.564,0.857,-4.235,8.05,12.11,-0.14
,-8.722,0.754,-4.228,-8.076,0.699,-4.355,8.4,13.09,-0.14
24989.0,-8.236,1.031,-4.547,-8.746,1.096,-4.712,12.11,14.0,1.82
,-8.423,1.632,-4.46,-8.717,0.44,-4.774,11.97,15.89,0.77
,-8.815,1.785,-4.365,-8.421,0.244,-4.637,8.4,17.85,-0.28
,-8.815,1.689,-4.551,-8.497,0.555,-4.602,3.71,18.48,-0.63
25065.0,-8.516,1.043,-4.81,-8.631,2.091,-4.413,7.56,17.71,1.54
,-8.593,1.551,-4.726,-8.461,1.548,-4.716,8.68,18.06,1.89
,-8.722,1.788,-4.692,-8.385,0.821,-4.992,7.91,18.48,1.26
,-8.641,2.029,-4.59,-8.105,0.333,-5.133,6.86,18.2,-0.07
25140.0,-7.968,0.316,-5.006,-8.485,0.376,-5.142,-2.31,19.81,-2.03
,-8.277,0.708,-4.585,-8.404,0.481,-5.267,-0.84,22.4,-2.24
,-8.469,0.902,-4.769,-8.074,0.761,-5.384,-0.98,22.26,-1.89
,-8.43,0.524,-4.958,-8.112,1.048,-5.181,-4.06,21.77,-0.84
25216.0,-8.514,1.103,-5.071,-8.38,0.909,-5.695,0.98,23.94,-0.07
,-9.012,0.986,-5.152,-8.038,1.213,-5.449,1.61,19.95,0.7
,-8.48,0.826,-5.585,-7.798,1.62,-5.358,2.8,17.08,1.68
,-8.378,0.737,-5.592,-7.727,1.615,-5.518,4.27,16.31,1.68
25292.0,-8.019,1.333,-5.791,-7.727,0.912,-5.827,0.28,20.58,-1.33
,-8.418,1.01,-5.827,-7.59,1.05,-5.894,-1.54,19.95,-1.26
,-8.464,0.713,-5.899,-7.77,1.347,-5.997,-1.96,19.04,-0.7
,-8.059,0.761,-5.93,-8.277,1.488,-5.925,-0.49,19.25,-0.28
25368.0,-8.626,1.184,-5.877,-7.533,0.744,-5.834,-5.04,18.9,-0.49
,-8.861,0.983,-5.841,-7.626,1.0,-6.033,-5.6,17.64,0.07
,-8.581,0.756,-5.896,-8.145,0.986,-6.193,-3.43,16.87,0.07
,-8.136,0.629,-5.642,-8.21,0.838,-6.475,-0.14,15.96,-0.28
25444.0,-8.251,0.608,-6.363,-7.868,0.452,-5.853,0.98,11.27,1.33
,-8.043,0.357,-6.14,-7.545,0.792,-6.061,0.91,11.2,1.96
,-8.057,0.424,-5.91,-7.597,1.204,-6.143,4.27,9.52,2.1
,-8.031,0.395,-5.757,-7.937,1.395,-5.937,7.35,6.86,1.68
25519.0,-7.98,1.254,-6.116,-7.487,0.658,-6.301,8.61,6.93,1.96
,-8.117,0.983,-6.171,-7.332,1.318,-6.305,7.77,6.16,1.61
,-8.224,0.955,-5.738,-7.681,1.931,-6.308,8.68,4.55,0.63
,-7.865,0.684,-5.937,-7.863,2.283,-6.423,11.69,0.77,-0.84
25595.0,-7.904,2.127,-6.356,-7.818,0.629,-6.011,5.74,3.85,-2.8
,-7.801,1.472,-6.088,-7.827,0.704,-6.14,-1.47,4.83,-1.82
,-7.854,0.866,-6.102,-7.911,0.811,-6.08,-5.67,4.97,-0.84
,-8.045,0.627,-5.975,-8.145,0.689,-6.188,-6.02,3.57,-0.77
25670.0,-8.215,0.641,-6.15,-7.576,0.778,-6.42,-11.62,3.99,3.29
,-8.428,0.57,-6.174,-7.669,1.153,-6.336,-14.0,3.57,4.76
,-8.198,0.486,-6.533,-7.961,1.211,-6.198,-15.26,2.94,5.32
,-7.854,0.598,-6.53,-8.145,1.302,-5.939,-15.82,3.15,6.3
25746.0,-8.047,1.57,-5.683,-7.818,1.436,-5.461,-20.44,2.66,7.0
,-7.901,1.981,-5.712,-7.844,1.443,-5.863,-17.08,3.01,5.46
,-7.751,2.223,-5.54,-7.906,1.51,-6.253,-18.27,3.29,5.39
,-7.94,1.764,-5.389,-7.727,1.788,-6.834,-20.65,3.15,4.69
25822.0,-7.648,1.84,-6.758,-8.052,1.508,-6.219,-17.78,1.12,1.26
,-7.784,1.723,-6.576,-8.162,1.29,-6.176,-20.44,0.21,0.98
,-7.708,1.385,-6.241,-8.112,1.29,-6.298,-21.91,-0.84,0.21
,-7.875,1.218,-6.157,-8.093,1.06,-5.843,-20.51,-1.33,-1.05
25898.0,-7.854,0.704,-5.769,-8.047,2.075,-5.946,-14.84,-2.52,0.63
,-7.447,0.897,-5.951,-8.473,1.898,-5.647,-9.1,-3.22,-0.49
,-7.521,1.409,-5.942,-8.334,1.57,-5.597,-6.51,-2.45,-0.84
,-7.81,1.905,-5.788,-8.279,1.314,-5.197,-7.14,-2.45,-0.42
25973.0,-8.16,1.074,-5.221,-8.234,0.512,-5.884,-13.86,-1.89,1.19
,-7.925,1.048,-5.528,-8.002,1.22,-6.037,-11.34,-2.66,1.12
,-7.913,0.785,-5.657,-7.794,2.063,-6.413,-10.22,-2.1,1.61
,-7.992,0.641,-6.068,-7.796,1.977,-5.843,-9.59,-1.33,2.8
26049.0,-7.901,1.79,-5.523,-7.839,1.744,-6.028,-9.38,-1.61,4.41
,-8.093,1.79,-5.293,-7.894,1.878,-6.049,-9.8,-1.75,5.81
,-8.186,1.642,-5.552,-7.961,1.838,-5.748,-8.82,-2.73,6.37
,-7.964,1.644,-5.465,-7.916,2.101,-5.889,-6.58,-3.64,5.81
26125.0,-7.892,2.218,-5.82,-7.834,3.171,-5.465,-4.69,-3.57,4.13
,-7.854,2.661,-5.889,-7.542,2.565,-5.547,-4.62,-3.85,3.15
,-7.832,3.02,-5.611,-7.755,2.017,-5.731,-6.23,-3.64,1.96
,-7.796,3.357,-5.7,-8.095,1.567,-5.839,-8.4,-3.78,0.35
26201.0,-8.256,1.73,-6.114,-8.002,1.12,-5.394,-11.62,-4.34,-3.08
,-8.203,1.381,-5.997,-7.904,1.385,-5.592,-10.15,-4.76,-3.43
,-8.002,1.589,-6.085,-8.038,1.385,-5.432,-7.7,-5.88,-3.92
,-8.009,1.539,-5.973,-8.143,1.199,-5.449,-7.14,-6.51,-3.64
26277.0,-8.198,0.804,-5.245,-7.901,1.653,-4.96,-3.92,-4.34,0.42
,-8.349,0.689,-5.65,-8.289,2.058,-4.956,-1.26,-5.04,0.98
,-8.366,1.318,-5.53,-8.1,1.493,-4.513,-0.07,-5.95,1.54
,-8.172,1.431,-5.169,-8.009,1.699,-4.834,-0.07,-5.95,2.03
26352.0,-8.028,2.022,-5.145,-8.126,1.673,-5.224,2.1,-0.98,3.92
,-7.954,1.986,-5.097,-8.126,1.627,-5.25,1.05,-0.56,3.5
,-7.913,1.843,-5.126,-8.177,1.816,-5.3,1.54,-0.35,3.01
,-7.925,1.725,-5.224,-8.205,1.933,-5.458,2.52,0.14,2.73
26428.0,-7.997,1.744,-5.468,-7.839,2.513,-5.145,6.51,2.17,3.5
,-7.973,1.869,-5.497,-7.743,2.852,-4.812,7.7,2.52,3.5
,-8.074,2.261,-5.171,-7.53,2.211,-5.281,9.59,3.5,2.73
,-7.942,2.697,-4.898,-8.083,2.182,-5.628,10.64,4.2,1.19
26503.0,-8.32,2.096,-5.985,-7.99,0.972,-5.142,12.81,7.0,-4.06
,-8.363,1.541,-6.037,-8.071,0.584,-5.042,12.25,7.35,-3.92
,-8.263,1.438,-5.817,-8.267,0.333,-5.36,14.28,7.07,-3.85
,-8.09,1.254,-5.386,-8.303,0.759,-5.65,16.17,7.28,-3.57
26579.0,-8.308,1.362,-5.724,-7.724,2.654,-6.047,27.44,8.19,-0.77
,-8.48,1.622,-5.654,-7.846,2.34,-6.236,28.42,8.96,-0.91
,-8.318,1.922,-5.683,-8.05,2.144,-6.231,28.49,8.68,-1.54
,-7.952,2.479,-5.738,-8.26,1.895,-6.133,27.58,8.82,-2.17
26655.0,-8.368,1.912,-5.76,-8.246,0.335,-6.164,20.3,8.47,-3.43
,-8.43,1.474,-5.798,-8.37,0.242,-6.085,21.91,7.14,-4.06
,-8.148,1.206,-6.044,-8.332,0.699,-6.073,21.84,6.79,-3.85
,-8.071,0.565,-5.922,-8.191,1.345,-6.138,21.07,7.21,-2.59
26731.0,-8.126,1.565,-6.078,-7.763,1.579,-6.035,32.06,4.76,-0.98
,-8.21,1.941,-6.403,-7.423,1.508,-6.344,28.7,4.34,-0.56
,-8.413,2.087,-6.31,-7.401,1.632,-6.626,25.13,3.01,-0.21
,-8.208,1.967,-5.855,-7.693,1.687,-6.597,22.4,0.56,-1.05
26806.0,-8.043,1.575,-6.71,-8.064,1.39,-5.891,25.27,-4.97,-4.27
,-8.035,1.326,-6.545,-7.966,1.314,-5.865,22.54,-5.88,-3.22
,-8.074,1.225,-6.286,-7.787,1.187,-6.207,19.95,-5.6,-1.96
,-8.143,1.28,-5.946,-7.851,1.299,-6.174,19.46,-5.67,-0.35
26882.0,-8.186,1.125,-6.061,-7.636,0.936,-5.899,6.16,-9.31,5.25
,-8.306,1.027,-6.159,-7.815,1.199,-5.796,4.34,-9.38,5.46
,-8.234,0.799,-5.805,-7.983,1.584,-5.932,2.17,-9.03,4.97
,-7.968,0.778,-5.91,-8.011,1.656,-5.918,2.87,-8.75,5.74
26958.0,-7.947,1.57,-6.138,-7.94,1.082,-5.657,-5.04,-6.72,6.23
,-7.94,1.35,-6.135,-7.937,1.036,-5.76,-10.01,-5.25,5.88
,-7.992,1.304,-5.913,-8.043,0.981,-5.769,-13.16,-4.41,5.81
,-7.983,1.113,-5.662,-8.165,1.158,-5.815,-14.35,-3.78,5.46
27034.0,-8.241,1.271,-5.719,-8.313,1.467,-5.264,-5.11,-7.7,1.19
,-8.212,1.115,-5.564,-8.234,1.429,-5.315,-5.88,-8.68,1.05
,-8.15,0.914,-5.556,-8.04,1.371,-5.286,-5.46,-9.59,1.19
,-8.124,1.225,-5.542,-8.052,1.285,-5.238,-3.29,-9.8,1.61
27110.0,-8.011,1.235,-5.307,-8.356,1.345,-5.114,-1.82,-11.62,-0.42
,-8.009,1.163,-5.25,-8.236,1.39,-5.097,-1.75,-11.69,-0.07
,-8.248,1.268,-5.14,-8.114,1.397,-5.109,-0.28,-12.25,-0.42
,-8.277,1.295,-5.272,-8.057,1.421,-5.126,1.54,-12.81,-0.98
27185.0,-8.162,1.295,-5.083,-8.677,1.019,-4.697,0.0,-13.02,-0.56
,-8.222,1.113,-5.051,-8.641,0.897,-4.683,0.21,-13.09,-1.19
,-8.327,1.137,-5.006,-8.638,0.976,-4.659,1.05,-12.74,-1.75
,-8.593,1.237,-4.841,-8.502,1.175,-4.709,1.26,-12.04,-1.75
27261.0,-8.5,1.417,-4.865,-8.409,1.067,-4.743,7.56,-13.58,-0.91
,-8.313,1.685,-4.927,-8.425,0.759,-4.616,7.14,-12.81,-1.4
,-8.284,1.737,-4.846,-8.509,0.732,-4.46,4.48,-11.41,-1.4
,-8.37,1.455,-4.824,-8.66,0.754,-4.566,1.05,-10.71,-1.26
27336.0,-8.61,0.749,-4.63,-9.983,1.046,-4.491,8.89,-10.01,1.33
,-8.605,0.854,-4.702,-8.516,1.378,-4.398,9.94,-9.52,1.61
,-8.562,0.883,-4.74,-8.536,1.027,-4.494,9.24,-8.82,2.31
,-8.586,0.799,-4.537,-8.241,1.122,-4.736,8.54,-7.42,3.01
27412.0,-8.263,1.299,-4.654,-8.528,0.727,-4.508,10.57,-6.79,4.76
,-8.595,1.335,-4.547,-8.612,1.263,-4.305,9.31,-5.32,4.76
,-8.933,1.003,-4.429,-8.667,1.945,-4.252,8.75,-6.3,5.04
,-8.703,0.704,-4.506,-8.626,2.247,-4.247,10.64,-7.42,5.53
27488.0,-8.701,1.95,-4.097,-7.88,0.919,-5.619,9.8,-2.59,3.92
,-8.796,1.094,-4.259,-7.944,2.046,-5.42,5.18,-3.71,3.92
,-8.504,0.203,-4.757,-8.459,2.766,-4.781,6.37,-6.09,4.48
,-8.028,0.17,-5.346,-8.926,2.699,-4.491,12.88,-7.28,4.62
27564.0,-8.93,1.821,-4.74,-8.583,1.077,-5.178,0.0,-5.04,0.0
,-8.715,0.828,-5.008,-8.713,1.273,-5.032,-0.07,-6.16,-0.98
,-8.689,0.617,-5.346,-8.67,0.893,-4.956,4.41,-6.72,-1.33
,-8.483,0.806,-5.501,-8.485,0.416,-4.862,8.68,-5.95,-0.63
27639.0,-8.545,0.581,-4.81,-8.871,1.807,-4.585,5.39,-7.49,2.45
,-8.598,1.046,-4.987,-8.399,1.163,-4.654,8.26,-8.12,3.01
,-8.588,1.558,-4.791,-8.39,0.835,-4.96,9.17,-7.35,3.08
,-8.899,1.972,-4.503,-8.351,0.847,-5.279,6.58,-6.09,2.45
27715.0,-8.636,1.098,-4.939,-8.672,0.493,-4.087,3.57,-7.21,1.26
,-9.167,1.515,-4.288,-8.346,0.457,-4.121,1.89,-5.6,1.19
,-9.308,1.414,-3.939,-8.579,0.684,-4.494,-1.33,-5.53,1.4
,-9.028,0.933,-3.802,-8.5,0.986,-4.482,-2.87,-5.53,1.4
27791.0,-8.871,1.304,-4.343,-8.897,1.637,-4.125,4.69,-5.04,3.5
,-9.074,1.259,-4.35,-8.78,1.498,-4.027,2.1,-5.53,3.43
,-8.978,1.194,-4.451,-8.78,1.139,-4.161,1.05,-5.81,3.57
,-8.902,1.4,-4.214,-8.684,0.888,-4.302,0.91,-4.48,3.64
27867.0,-8.758,0.905,-4.477,-8.961,1.95,-3.958,1.61,-4.55,3.36
,-8.636,1.098,-4.57,-9.014,1.586,-3.881,3.08,-4.41,3.57
,-8.588,1.491,-4.578,-8.875,1.204,-3.91,2.8,-3.99,3.57
,-8.684,1.862,-4.255,-8.894,0.962,-4.032,0.49,-2.94,3.08
27943.0,-8.751,0.888,-4.29,-8.894,0.928,-4.654,-0.21,-2.87,2.03
,-8.677,1.094,-4.417,-8.756,0.94,-4.652,1.61,-2.45,2.03
,-8.849,1.254,-4.386,-8.837,1.122,-4.518,0.98,-2.1,2.17
,-9.028,1.086,-4.46,-8.78,1.254,-4.513,-0.84,-2.8,2.59
28018.0,-8.751,1.45,-4.465,-9.028,1.452,-3.841,1.47,-4.41,4.06
,-8.839,1.625,-4.288,-8.849,1.079,-3.999,0.84,-3.85,3.57
,-8.863,1.84,-3.994,-8.717,1.163,-4.247,-0.63,-3.15,3.01
,-8.899,1.79,-3.752,-8.634,1.429,-4.168,-3.29,-2.24,2.45
28094.0,-8.672,1.68,-3.996,-8.969,1.323,-3.673,-1.33,-1.47,1.54
,-8.842,1.512,-3.836,-8.882,1.467,-3.491,-3.78,-1.12,1.33
,-8.933,1.287,-3.781,-8.878,1.586,-3.34,-4.34,-1.12,1.61
,-8.844,1.23,-3.752,-8.959,1.433,-3.362,-2.38,-0.84,1.68
28169.0,-8.954,1.132,-3.534,-8.701,1.345,-4.848,2.17,2.1,1.33
,-8.99,1.058,-3.932,-8.729,1.543,-4.688,4.9,2.17,1.54
,-8.811,1.019,-4.238,-8.806,1.737,-4.527,6.72,2.03,1.75
,-8.729,1.101,-4.566,-8.787,1.752,-4.142,7.28,1.68,1.68
28245.0,-8.961,1.663,-3.927,-8.71,1.101,-4.702,-3.15,3.01,0.49
,-9.064,1.314,-3.917,-8.734,1.673,-4.678,-3.15,2.87,0.42
,-9.201,0.976,-4.006,-8.818,1.807,-4.3,-1.12,1.96,0.98
,-8.938,0.9,-4.563,-8.942,1.589,-4.137,2.31,0.77,1.68
28321.0,-8.973,1.4,-4.013,-8.832,1.268,-4.049,-1.75,0.91,1.33
,-8.897,1.388,-3.833,-8.808,1.421,-3.941,-0.63,1.4,1.47
,-8.949,1.307,-3.9,-8.789,1.51,-3.85,0.28,1.4,1.47
,-8.854,1.213,-4.085,-8.825,1.469,-3.817,1.96,1.4,1.68
28397.0,-8.823,1.256,-4.061,-8.849,1.749,-4.475,2.8,2.24,1.54
,-8.871,1.079,-4.384,-8.904,1.744,-4.365,3.85,1.54,1.82
,-8.708,1.177,-4.446,-8.837,1.668,-4.279,5.6,1.89,2.1
,-8.808,1.584,-4.616,-8.849,1.553,-4.223,5.88,2.03,1.96
28472.0,-8.827,1.374,-4.281,-8.734,1.543,-4.283,-0.14,1.33,0.56
,-8.741,1.338,-4.324,-8.844,1.632,-4.099,1.12,1.12,0.49
,-8.808,1.4,-4.393,-8.863,1.491,-4.039,2.1,0.91,0.63
,-8.725,1.436,-4.398,-8.88,1.256,-3.955,2.73,0.77,0.63
28548.0,-8.868,1.208,-3.932,-8.887,1.558,-4.145,0.63,1.61,-0.21
,-8.868,1.283,-4.001,-8.949,1.505,-4.111,2.52,1.68,0.0
,-8.827,1.357,-4.101,-8.94,1.299,-4.264,3.78,1.75,0.28
,-8.83,1.464,-4.154,-8.818,1.299,-4.422,4.34,1.82,0.28
28624.0,-8.823,1.385,-4.556,-8.849,1.4,-4.384,4.55,1.26,0.28
,-8.78,1.474,-4.58,-8.892,1.417,-4.286,3.99,1.12,0.21
,-8.806,1.508,-4.561,-8.851,1.405,-4.216,2.66,1.19,0.14
,-8.839,1.467,-4.52,-8.892,1.385,-4.183,1.12,1.12,0.07
28700.0,-8.863,1.452,-4.212,-8.868,1.354,-4.209,0.7,0.63,-0.21
,-8.926,1.484,-4.195,-8.856,1.462,-4.24,0.77,0.63,-0.35
,-8.916,1.421,-4.133,-8.851,1.529,-4.197,0.42,0.56,-0.35
,-8.825,1.342,-4.214,-8.847,1.393,-4.133,0.63,0.56,-0.28
28776.0,-8.837,1.287,-4.252,-8.885,1.479,-4.317,-0.07,0.7,-0.63
,-8.827,1.244,-4.341,-8.926,1.541,-4.18,0.42,0.42,-0.42
,-8.88,1.297,-4.386,-8.926,1.309,-4.135,0.91,0.14,-0.21
,-8.815,1.345,-4.396,-8.89,1.122,-4.209,1.26,0.07,0.07
28851.0,-8.89,1.055,-4.307,-8.885,1.555,-4.027,1.26,-0.63,0.7
,-8.739,1.232,-4.379,-8.921,1.433,-3.857,2.87,-0.77,0.91
,-8.76,1.45,-4.482,-9.012,1.316,-3.757,2.94,-0.77,0.84
,-8.856,1.606,-4.228,-8.983,1.211,-3.862,1.47,-0.35,0.63
28927.0,-8.957,1.187,-3.934,-8.88,1.594,-3.975,2.8,-0.28,0.84
,-8.873,1.374,-4.125,-8.976,1.443,-3.979,4.48,0.07,1.12
,-8.808,1.653,-4.109,-9.007,1.223,-4.013,4.62,0.21,0.98
,-8.849,1.716,-4.097,-8.866,1.216,-4.271,3.22,0.49,0.63
29003.0,-8.748,1.326,-4.257,-8.909,1.374,-4.164,2.8,0.56,0.35
,-8.868,1.541,-4.389,-8.906,1.352,-4.075,2.66,0.56,0.42
,-8.859,1.615,-4.274,-8.949,1.261,-4.123,1.05,0.7,0.21
,-8.904,1.496,-4.156,-8.794,1.318,-4.173,-0.21,0.7,0.0
29079.0,-8.827,1.448,-4.034,-8.983,1.455,-3.865,1.82,0.28,-0.07
,-8.83,1.653,-3.989,-8.961,1.323,-3.991,1.89,0.7,0.0
,-8.904,1.67,-3.881,-8.875,1.184,-4.238,0.77,0.84,-0.35
,-9.009,1.565,-3.898,-8.804,1.103,-4.336,0.14,0.77,-0.56
29154.0,-8.777,1.225,-4.35,-8.902,1.168,-4.106,2.52,0.77,-0.14
,-8.882,1.254,-4.276,-8.933,1.251,-4.027,2.59,0.84,0.07
,-8.911,1.228,-4.257,-8.906,1.383,-3.888,2.1,0.42,0.14
,-8.911,1.106,-4.185,-8.928,1.407,-3.788,2.17,0.21,0.35
29230.0,-8.851,1.431,-3.637,-8.811,1.474,-3.786,3.64,1.47,0.56
,-8.935,1.316,-3.63,-8.737,1.668,-3.762,3.85,1.89,0.77
,-8.89,1.259,-3.525,-8.756,1.838,-3.558,4.76,2.31,0.77
,-8.94,1.345,-3.644,-8.844,1.749,-3.455,5.88,2.59,0.63
29305.0,-8.849,1.414,-3.35,-8.701,1.586,-3.47,-0.7,7.84,-1.89
,-8.799,1.216,-3.108,-8.76,1.89,-3.269,-0.7,9.17,-2.24
,-8.897,1.062,-3.228,-9.012,1.589,-3.211,0.91,10.08,-2.24
,-8.72,1.192,-3.453,-9.091,1.041,-3.625,3.43,10.85,-2.17
29381.0,-8.681,0.713,-4.161,-8.636,1.206,-4.48,-3.29,16.45,-2.87
,-8.435,0.926,-4.393,-8.126,1.173,-4.587,-0.07,17.5,-2.45
,-8.476,1.302,-4.18,-8.122,1.448,-4.317,0.35,19.46,-2.52
,-8.856,1.333,-4.145,-8.595,1.632,-4.078,-0.98,19.88,-2.24
29457.0,-8.89,1.5,-3.996,-9.026,0.713,-4.539,-7.7,22.47,-2.24
,-9.067,1.424,-4.152,-8.354,0.787,-4.865,-9.38,22.47,-1.82
,-9.263,1.156,-4.317,-8.155,1.122,-4.805,-10.29,21.7,-0.91
,-9.387,0.964,-4.276,-8.327,1.788,-4.487,-8.33,21.14,0.63
29533.0,-8.447,2.182,-4.448,-8.653,1.194,-4.415,17.08,17.15,2.45
,-8.373,2.094,-4.602,-8.48,1.213,-4.946,18.13,15.75,2.17
,-8.545,1.864,-4.396,-8.196,1.201,-5.322,18.2,14.35,1.89
,-8.471,1.491,-4.424,-8.131,1.237,-5.331,17.08,14.0,1.4
29608.0,-8.172,1.438,-5.394,-9.038,1.216,-4.776,13.79,15.26,-4.06
,-8.32,1.515,-5.221,-8.89,0.866,-4.941,9.52,16.1,-3.15
,-8.655,1.637,-5.226,-8.923,0.574,-4.996,6.51,15.96,-2.66
,-8.646,1.467,-5.02,-8.832,0.72,-5.193,3.01,16.94,-2.38
29684.0,-8.859,1.106,-5.367,-8.607,0.323,-6.169,13.86,10.5,-0.21
,-8.227,1.314,-5.944,-8.581,0.378,-5.918,16.24,7.14,-0.49
,-7.973,1.249,-6.049,-8.086,1.249,-5.542,13.79,6.65,-1.68
,-8.356,0.84,-6.033,-7.72,2.34,-5.501,9.17,5.81,-1.82
29760.0,-8.105,2.838,-5.059,-7.851,-0.531,-5.824,7.63,7.98,-3.36
,-8.722,2.69,-4.941,-8.2,-0.404,-5.642,0.28,5.88,-4.34
,-8.404,1.615,-5.14,-8.892,0.045,-5.207,-6.65,4.55,-4.55
,-7.98,0.345,-5.554,-9.385,0.218,-5.075,-8.96,4.83,-4.9
29836.0,-8.964,0.447,-4.965,-7.645,2.163,-4.48,7.28,8.96,2.31
,-8.442,0.893,-4.537,-7.978,1.759,-4.855,8.54,9.31,2.17
,-8.272,1.445,-4.434,-8.49,1.261,-5.255,10.43,6.58,0.98
,-7.777,2.07,-4.427,-8.82,0.591,-5.52,10.36,6.02,0.0
29912.0,-8.631,0.258,-5.705,-8.165,0.912,-5.446,0.63,10.01,-1.61
,-8.11,0.445,-5.748,-7.971,0.878,-5.391,5.46,12.25,-0.28
,-7.928,0.833,-5.769,-8.143,0.974,-5.083,7.63,13.44,0.0
,-8.229,0.993,-5.518,-8.299,1.247,-5.054,5.88,13.65,0.0
29987.0,-8.696,1.347,-5.037,-7.877,0.694,-5.817,-1.26,13.72,0.07
,-8.82,1.168,-4.98,-8.004,0.692,-5.922,-1.54,12.32,-0.56
,-8.416,0.881,-5.2,-8.184,0.838,-6.114,-0.14,10.85,-0.84
,-7.865,0.725,-5.499,-8.459,1.268,-5.824,1.47,11.2,0.07
30063.0,-8.72,1.735,-5.719,-7.648,1.113,-5.561,3.71,11.41,0.28
,-8.662,1.996,-5.53,-8.093,0.742,-5.745,2.66,9.73,-0.42
,-7.791,1.905,-5.587,-8.65,0.242,-5.379,-0.35,8.89,-1.19
,-7.318,1.634,-5.449,-8.648,-0.392,-5.537,-3.92,10.29,-1.47
30138.0,-8.512,-0.871,-5.599,-8.356,1.491,-5.913,4.9,6.09,-1.96
,-8.21,-0.833,-5.91,-8.313,1.953,-5.973,10.64,5.39,-0.14
,-8.105,-0.182,-6.011,-8.251,1.816,-6.123,13.3,5.95,2.94
,-8.327,0.68,-5.982,-8.351,1.163,-6.035,13.09,6.72,5.18
30214.0,-8.081,0.445,-6.088,-8.129,1.883,-6.102,-18.41,6.93,10.57
,-7.877,-0.026,-6.15,-8.155,2.991,-6.155,-17.85,5.67,12.04
,-7.854,0.112,-6.157,-8.155,3.475,-5.877,-12.67,5.11,12.81
,-7.978,0.893,-6.157,-7.834,3.149,-5.944,-6.37,5.46,12.53
30290.0,-7.49,2.544,-6.033,-8.007,1.479,-6.054,-22.54,2.94,4.34
,-7.516,2.118,-6.073,-8.148,1.237,-5.863,-24.15,1.33,2.66
,-7.643,1.888,-6.236,-8.44,1.084,-5.611,-24.15,0.49,1.19
,-7.815,1.682,-5.975,-8.277,1.161,-5.394,-23.94,0.91,0.77
30366.0,-8.098,1.273,-5.717,-8.138,1.086,-5.903,-20.65,-1.33,1.26
,-8.112,1.003,-5.86,-8.241,1.256,-5.564,-21.91,-1.68,2.45
,-7.997,1.048,-5.812,-8.069,1.4,-5.319,-23.87,-1.26,3.5
,-8.023,1.015,-5.796,-7.81,1.625,-5.348,-25.13,-1.47,5.39
30441.0,-7.81,1.524,-5.48,-8.155,2.185,-5.418,-17.71,-2.52,2.94
,-8.007,1.646,-5.477,-7.861,2.558,-5.573,-16.24,-1.82,3.36
,-8.215,1.649,-5.398,-7.586,2.692,-5.621,-13.72,-1.75,3.43
,-8.366,1.876,-5.31,-7.669,2.063,-5.645,-9.94,-3.22,2.45
30517.0,-7.885,1.914,-5.678,-8.363,1.519,-5.272,-6.44,-3.22,-2.03
,-8.133,1.725,-5.633,-8.057,1.558,-5.133,-6.86,-2.52,-1.26
,-8.291,1.529,-5.65,-8.088,1.63,-4.994,-6.58,-1.89,-0.56
,-8.471,1.46,-5.587,-8.361,1.807,-5.322,-6.02,-1.89,0.0
30593.0,-8.416,1.941,-5.669,-7.882,1.56,-5.741,-11.34,-0.28,2.73
,-8.236,1.838,-5.7,-8.248,1.546,-5.774,-14.07,-0.07,3.57
,-8.064,1.582,-5.578,-8.411,1.606,-6.016,-15.26,-0.07,3.36
,-7.865,1.723,-5.767,-8.457,1.182,-5.523,-15.26,-0.28,3.01
30669.0,-8.198,1.204,-5.346,-8.205,2.352,-5.561,-6.65,-0.98,5.88
,-8.035,1.407,-5.358,-8.155,2.496,-5.664,-3.43,-1.4,6.09
,-8.076,1.543,-5.413,-8.315,2.194,-5.623,-1.4,-1.19,6.44
,-8.2,1.84,-5.497,-8.114,2.266,-5.674,0.42,-1.61,6.72
30745.0,-7.798,1.948,-5.642,-8.27,2.213,-5.085,-4.48,-3.36,5.95
,-7.772,1.859,-5.465,-8.313,2.438,-4.989,-3.29,-3.36,5.46
,-7.966,1.931,-5.25,-8.222,2.35,-4.862,-1.96,-2.8,5.39
,-8.114,2.003,-5.08,-8.162,2.084,-5.061,-0.84,-2.52,5.46
30820.0,-8.155,1.9,-5.19,-8.346,1.194,-5.824,-5.25,-1.33,5.6
,-8.155,1.622,-5.319,-8.301,1.362,-5.841,-5.81,-0.7,6.09
,-8.229,1.204,-5.427,-8.112,1.637,-5.571,-6.37,-0.56,7.07
,-8.368,1.031,-5.621,-7.796,2.211,-5.274,-4.55,-0.63,7.98
30896.0,-8.069,2.895,-5.085,-7.607,2.95,-5.183,2.52,-3.64,8.47
,-7.923,3.331,-4.96,-7.861,2.443,-5.085,0.0,-3.08,8.12
,-7.779,3.338,-4.767,-8.102,2.642,-4.953,-2.31,-2.73,7.63
,-7.648,3.343,-4.946,-7.574,3.599,-4.843,-4.48,-1.68,6.86
30971.0,-7.954,3.199,-4.757,-7.83,2.871,-4.602,2.45,-2.73,-2.24
,-7.825,3.104,-4.42,-7.997,2.57,-4.846,0.91,-0.91,-2.73
,-7.842,3.247,-4.29,-7.901,2.51,-4.695,0.77,0.35,-3.64
,-7.808,2.496,-4.535,-7.827,2.118,-5.025,1.61,2.52,-5.53
31047.0,-8.112,1.467,-5.075,-8.495,1.302,-5.425,1.47,7.77,-6.72
,-8.311,1.12,-5.336,-8.21,1.4,-5.013,3.78,8.61,-5.88
,-8.528,1.254,-5.587,-7.813,1.704,-4.927,6.65,8.33,-5.18
,-8.55,1.338,-5.662,-7.523,2.18,-5.087,7.98,8.19,-4.2
31123.0,-7.633,2.343,-5.322,-8.39,1.704,-5.659,17.64,10.5,-3.5
,-8.064,1.993,-5.712,-8.143,1.606,-5.465,16.66,11.9,-3.43
,-8.521,1.668,-5.846,-7.99,1.606,-5.355,16.66,12.53,-3.29
,-8.631,1.721,-5.872,-7.684,2.048,-5.336,17.92,12.18,-2.8
31199.0,-7.59,2.52,-5.678,-8.562,1.335,-6.04,30.87,10.01,-7.07
,-7.782,2.718,-6.025,-8.37,1.259,-5.91,30.24,11.06,-8.05
,-8.133,2.319,-6.001,-8.215,1.441,-6.078,28.07,12.04,-8.26
,-8.483,1.603,-5.942,-8.145,1.876,-6.195,27.86,12.18,-8.05
31274.0,-8.112,2.694,-6.234,-8.6,0.72,-6.255,32.41,9.38,-6.23
,-8.473,1.955,-6.21,-8.334,1.445,-5.855,25.76,9.59,-5.46
,-8.698,1.342,-6.805,-8.059,2.065,-5.556,20.65,8.68,-4.97
,-8.476,0.742,-6.49,-7.485,2.589,-6.056,15.82,8.61,-3.43
31350.0,-7.308,2.414,-6.274,-8.244,1.455,-6.289,26.25,1.82,-8.89
,-7.724,2.022,-6.466,-7.971,1.407,-6.58,21.21,1.05,-9.24
,-8.033,1.721,-6.26,-8.095,1.328,-6.26,19.25,-0.35,-8.96
,-8.394,1.596,-6.095,-7.961,1.295,-6.48,20.16,-1.19,-9.24
31426.0,-7.772,1.091,-6.394,-8.11,0.79,-6.071,15.82,-5.32,-4.9
,-8.002,0.747,-5.798,-8.138,0.696,-6.049,12.88,-6.79,-3.64
,-8.112,0.888,-5.97,-7.875,0.591,-6.277,15.26,-8.68,-3.5
,-8.138,0.914,-5.86,-7.909,0.589,-6.296,15.82,-10.99,-2.59
31502.0,-8.184,0.565,-6.236,-8.047,1.783,-5.48,10.15,-14.84,5.6
,-8.447,0.885,-6.219,-8.378,1.479,-4.982,9.73,-13.93,6.93
,-8.363,1.218,-6.104,-7.808,1.048,-5.511,8.19,-12.53,8.61
,-8.169,1.486,-5.985,-7.597,0.873,-5.736,5.25,-10.85,9.59
31578.0,-8.114,1.012,-5.614,-7.865,1.283,-5.587,2.17,-18.76,8.12
,-8.354,1.062,-5.631,-8.473,1.553,-4.745,3.57,-18.34,6.93
,-8.38,1.027,-5.757,-8.459,1.488,-5.008,4.62,-17.57,7.14
,-8.189,1.125,-5.544,-8.277,1.424,-5.111,4.83,-16.17,7.28
31653.0,-8.272,1.218,-5.114,-8.392,1.443,-5.054,1.33,-19.32,6.3
,-8.289,1.201,-5.083,-8.368,1.522,-5.006,2.17,-18.9,5.67
,-8.045,1.266,-5.319,-8.387,1.302,-4.81,3.57,-18.83,5.88
,-8.179,1.366,-5.169,-8.337,1.333,-4.929,3.99,-16.94,5.6
31729.0,-8.44,1.462,-4.7,-8.318,1.199,-4.879,-1.96,-11.62,6.09
,-8.457,1.603,-4.812,-8.011,1.065,-4.905,-1.61,-12.39,5.81
,-8.495,1.653,-4.822,-8.043,1.015,-4.877,-0.49,-13.02,4.9
,-8.674,1.56,-4.714,-8.492,1.041,-4.733,1.12,-15.4,3.64
31804.0,-8.691,1.18,-4.625,-8.349,1.766,-4.664,6.79,-14.35,3.29
,-8.698,1.278,-4.542,-8.543,1.709,-4.46,7.14,-12.74,3.29
,-8.483,1.457,-4.506,-8.49,1.651,-4.669,6.51,-11.27,3.78
,-8.363,1.663,-4.692,-8.681,1.51,-4.685,5.18,-10.01,4.41
31880.0,-8.748,1.395,-4.661,-8.693,1.79,-4.537,-1.89,-8.61,4.13
,-8.641,1.443,-4.831,-8.629,1.768,-4.439,-0.07,-8.47,3.71
,-8.725,1.551,-4.702,-8.406,1.814,-4.666,2.03,-8.54,3.57
,-8.555,1.598,-4.719,-8.363,1.862,-4.582,4.55,-9.17,3.43
31956.0,-8.366,1.797,-4.506,-8.617,1.378,-4.188,3.36,-10.08,1.47
,-8.603,1.78,-4.398,-8.521,1.4,-4.113,0.63,-8.89,1.19
,-8.612,1.584,-4.456,-8.567,1.364,-4.128,-1.05,-7.84,0.28
,-8.614,1.457,-4.355,-8.598,1.101,-4.314,-2.24,-5.81,-0.7
32032.0,-8.634,0.933,-4.24,-8.871,1.321,-3.766,-4.27,-3.22,-0.42
,-8.918,1.117,-4.279,-8.653,1.299,-3.704,-1.4,-3.5,-0.63
,-8.894,1.388,-4.365,-8.619,0.974,-3.881,0.07,-3.08,-0.42
,-8.863,1.419,-4.08,-8.488,0.883,-4.003,-0.84,-1.4,-0.14
32107.0,-8.792,1.055,-3.999,-8.629,1.084,-4.721,4.27,-2.73,3.08
,-8.863,1.216,-4.145,-8.212,1.448,-5.008,5.81,-2.24,3.08
,-8.976,1.17,-4.185,-8.277,2.027,-4.838,5.11,-2.45,3.29
,-9.067,1.058,-4.446,-8.612,2.56,-4.556,5.18,-4.2,3.99
32183.0,-8.875,2.505,-4.061,-8.684,0.694,-4.994,-0.63,-1.19,2.87
,-9.019,1.807,-3.747,-8.844,1.735,-4.815,-6.23,-1.05,2.73
,-9.227,0.842,-4.252,-8.815,2.812,-4.587,-6.44,-4.2,3.01
,-8.921,0.261,-4.783,-8.758,2.97,-4.484,0.63,-7.7,3.92
32259.0,-8.701,2.254,-4.434,-8.464,1.256,-4.594,-3.08,-4.83,2.8
,-8.777,1.479,-4.372,-8.521,1.701,-4.322,-6.72,-5.32,1.68
,-8.784,1.058,-4.549,-8.76,1.814,-4.056,-4.83,-6.86,1.26
,-8.617,0.979,-4.666,-8.868,1.534,-3.743,-1.05,-7.07,1.4
32335.0,-9.1,1.182,-3.647,-8.88,2.089,-3.731,-7.28,-3.78,2.38
,-9.002,1.091,-3.64,-8.973,1.843,-3.996,-4.48,-4.48,2.73
,-8.878,1.285,-3.798,-8.729,1.438,-4.403,-0.63,-4.76,2.94
,-8.837,1.749,-3.721,-8.519,1.297,-4.401,1.54,-3.78,3.01
32411.0,-8.705,1.433,-4.446,-8.959,1.857,-4.219,2.31,-4.9,2.87
,-8.784,1.658,-4.369,-8.801,1.577,-4.247,2.17,-4.55,2.59
,-8.861,1.905,-4.29,-8.804,1.357,-4.381,0.28,-4.13,2.17
,-8.882,1.965,-4.109,-8.801,1.24,-4.511,-2.31,-3.71,2.03
32486.0,-8.655,1.45,-4.453,-9.143,1.756,-2.97,-1.82,-5.32,2.73
,-8.662,1.74,-3.999,-9.131,1.194,-3.453,-1.68,-3.85,2.38
,-8.835,2.072,-3.534,-8.916,0.792,-3.903,-2.94,-2.66,2.03
,-9.093,2.106,-3.142,-8.734,0.852,-4.372,-5.11,-1.75,1.68
32562.0,-8.581,1.536,-4.551,-8.844,2.599,-2.807,10.29,-4.13,3.29
,-8.509,2.276,-4.482,-9.148,1.948,-2.69,9.38,-3.22,2.8
,-8.626,2.709,-4.066,-9.356,1.079,-3.252,4.48,-1.61,1.89
,-8.787,2.819,-3.503,-9.038,0.651,-3.731,-2.1,0.28,0.91
32637.0,-8.78,0.972,-4.216,-9.186,2.472,-3.709,9.45,-1.33,1.12
,-8.648,1.89,-4.444,-9.222,1.539,-3.69,13.65,-0.7,1.4
,-8.705,2.711,-4.353,-9.167,0.79,-3.955,10.15,0.77,0.91
,-8.88,2.898,-3.987,-8.945,0.603,-4.348,2.1,2.1,-0.49
32713.0,-8.698,0.976,-4.53,-9.04,2.027,-3.673,4.48,-0.14,0.35
,-8.748,1.632,-4.503,-9.191,1.579,-3.546,5.53,0.35,0.49
,-8.847,2.17,-4.331,-9.112,1.132,-3.661,2.59,0.56,0.49
,-8.868,2.264,-3.874,-8.988,0.914,-3.74,-2.17,1.68,0.28
32789.0,-8.768,1.184,-3.898,-8.993,2.288,-3.367,4.76,0.28,1.89
,-8.693,1.718,-3.917,-9.131,1.622,-3.419,7.42,0.84,2.1
,-8.677,2.213,-3.625,-8.93,1.165,-3.623,6.51,2.1,1.61
,-8.835,2.438,-3.475,-8.729,1.163,-3.68,3.08,2.73,0.84
32865.0,-8.727,1.632,-3.709,-9.052,1.271,-4.245,9.31,3.78,0.91
,-8.904,1.914,-3.743,-8.882,1.077,-4.451,9.31,4.34,0.98
,-9.04,1.862,-3.75,-8.753,1.326,-4.582,7.56,4.34,0.98
,-9.012,1.625,-3.879,-8.799,1.809,-4.582,5.95,4.27,0.98
32940.0,-8.849,2.113,-4.518,-8.777,1.464,-4.233,6.72,3.43,1.75
,-8.902,2.123,-4.293,-8.715,1.615,-4.219,3.64,3.29,1.4
,-8.973,1.948,-4.178,-8.83,1.821,-4.3,1.12,2.94,0.91
,-9.005,1.656,-4.152,-8.76,1.933,-3.963,0.84,2.24,0.91
33016.0,-8.873,1.797,-3.838,-8.768,1.689,-4.061,1.82,2.59,-0.14
,-8.938,1.704,-3.912,-8.89,1.783,-4.068,1.54,2.59,-0.14
,-8.911,1.522,-3.975,-8.993,1.694,-4.051,1.96,2.24,-0.21
,-8.825,1.481,-3.994,-9.016,1.462,-4.128,3.43,2.1,-0.14
33091.0,-8.938,1.364,-4.269,-8.94,1.721,-4.183,4.76,1.47,0.14
,-8.856,1.498,-4.401,-8.911,1.68,-4.085,5.74,1.33,0.42
,-8.744,1.661,-4.326,-8.892,1.732,-4.092,5.25,1.33,0.35
,-8.818,1.747,-4.338,-8.804,1.644,-4.001,3.99,1.33,0.21
33167.0,-8.818,1.785,-3.972,-8.935,1.515,-3.898,3.71,1.05,0.42
,-8.899,1.816,-3.922,-8.918,1.455,-4.128,3.22,1.4,0.42
,-8.938,1.778,-3.778,-8.823,1.524,-4.317,2.1,1.75,0.21
,-8.997,1.61,-3.867,-8.753,1.692,-4.317,2.1,1.4,0.14
33243.0,-8.827,1.807,-4.288,-8.971,1.51,-3.979,4.13,1.26,0.7
,-8.863,1.814,-4.235,-8.923,1.45,-4.034,2.31,1.12,0.63
,-8.909,1.634,-4.078,-8.839,1.563,-4.154,1.05,1.4,0.42
,-8.94,1.524,-3.939,-8.787,1.792,-4.133,1.4,1.4,0.35
33319.0,-8.825,1.874,-3.982,-8.906,1.402,-4.078,2.8,1.26,0.56
,-8.906,1.802,-3.888,-8.813,1.474,-4.116,1.19,1.61,0.21
,-8.921,1.704,-3.865,-8.815,1.663,-4.161,0.77,1.75,0.28
,-9.038,1.443,-3.939,-8.792,1.752,-4.142,1.19,1.47,0.28
33395.0,-8.844,1.692,-4.034,-8.911,1.584,-4.166,2.17,1.82,0.42
,-8.902,1.716,-3.869,-8.753,1.728,-4.219,1.54,2.17,0.42
,-9.016,1.694,-3.972,-8.782,1.883,-4.18,1.68,1.96,0.42
,-8.964,1.543,-4.058,-8.782,1.797,-3.929,2.17,1.68,0.42
33470.0,-8.851,1.747,-3.855,-8.863,1.531,-4.353,0.0,2.59,-0.35
,-8.973,1.584,-3.793,-8.801,1.716,-4.513,-0.42,2.66,-0.21
,-8.993,1.335,-3.941,-8.825,1.838,-4.374,0.77,2.1,0.07
,-8.933,1.307,-4.125,-8.909,1.802,-4.228,2.59,2.03,0.35
33546.0,-8.928,1.63,-4.101,-8.806,1.67,-3.975,-0.14,1.96,0.07
,-8.89,1.491,-3.912,-8.806,1.725,-3.8,0.0,1.82,0.0
,-8.871,1.488,-4.018,-8.926,1.759,-3.877,1.05,1.54,-0.07
,-8.739,1.548,-3.996,-8.854,1.627,-3.922,2.38,1.19,0.14
33622.0,-8.851,1.68,-4.068,-8.842,1.543,-4.109,1.4,2.38,-0.35
,-8.777,1.682,-4.034,-8.918,1.374,-4.063,1.75,2.52,-0.56
,-8.768,1.694,-4.051,-8.878,1.438,-4.173,0.98,3.01,-0.63
,-8.914,1.596,-4.106,-8.804,1.503,-4.219,0.84,2.66,-0.7
33698.0,-8.902,1.551,-4.154,-8.949,1.596,-4.087,3.36,2.31,-0.21
,-8.837,1.536,-4.209,-8.856,1.603,-4.125,3.64,2.1,-0.21
,-8.878,1.591,-4.07,-8.837,1.649,-4.111,3.64,2.1,-0.07
,-8.981,1.608,-4.123,-8.849,1.721,-4.08,3.78,1.96,0.0
33773.0,-8.83,1.706,-4.044,-8.832,1.584,-4.044,4.06,2.17,-0.21
,-8.844,1.615,-4.001,-8.758,1.673,-3.984,3.57,2.24,-0.42
,-8.918,1.479,-4.046,-8.815,1.706,-4.011,3.5,2.24,-0.35
,-8.875,1.503,-4.044,-8.88,1.646,-4.013,4.41,2.17,-0.28
33849.0,-8.882,1.615,-4.154,-8.832,1.943,-4.018,4.48,2.38,-0.84
,-8.844,1.558,-4.226,-8.741,1.96,-3.97,5.39,2.31,-0.91
,-8.741,1.651,-4.082,-8.758,1.895,-3.898,5.74,2.66,-1.19
,-8.804,1.747,-4.094,-8.76,1.811,-3.788,5.74,2.87,-1.47
33924.0,-8.89,1.639,-3.747,-8.744,1.302,-4.159,0.91,5.39,-3.15
,-8.945,1.376,-3.807,-8.701,1.419,-4.037,1.19,5.25,-3.08
,-8.921,1.06,-3.874,-8.837,1.484,-4.051,2.03,5.39,-3.15
,-8.835,1.106,-4.066,-8.902,1.472,-3.805,4.62,5.25,-2.66
34000.0,-9.086,1.268,-3.762,-8.875,1.275,-3.991,2.59,7.77,-2.38
,-9.103,1.117,-3.783,-8.811,1.316,-4.02,3.99,7.63,-1.96
,-8.966,1.177,-3.845,-8.823,1.22,-4.085,6.44,8.19,-1.54
,-8.866,1.206,-3.824,-8.763,1.323,-4.204,7.91,8.82,-1.33
34076.0,-8.744,1.33,-4.283,-8.701,1.553,-4.614,11.97,10.01,-0.63
,-8.725,1.397,-4.491,-8.646,1.481,-4.566,12.6,9.66,-0.63
,-8.536,1.515,-4.458,-8.82,1.51,-4.223,12.32,9.94,-0.49
,-8.729,1.491,-4.496,-8.835,1.539,-3.989,10.71,9.8,-0.56
34152.0,-8.686,1.429,-3.685,-8.61,1.603,-4.891,8.05,12.32,-1.33
,-8.78,1.354,-3.793,-8.263,2.123,-4.841,7.84,12.32,-1.54
,-8.686,1.211,-4.066,-8.339,2.402,-4.539,8.82,11.48,-1.26
,-8.748,1.244,-4.511,-8.689,2.331,-4.494,11.06,10.08,-1.05
34228.0,-8.897,1.711,-4.582,-8.78,1.33,-4.75,-0.42,12.18,-4.48
,-8.739,1.127,-4.771,-8.626,1.354,-4.752,-0.77,11.13,-4.48
,-8.72,0.919,-4.879,-8.279,1.199,-4.544,1.89,10.78,-4.69
,-8.603,1.103,-4.714,-7.885,0.991,-4.219,4.55,11.76,-5.11
34303.0,-7.854,0.931,-3.934,-9.56,-0.278,-4.446,1.12,14.91,-2.03
,-8.497,0.785,-3.575,-8.923,-0.005,-4.927,0.42,15.61,-1.89
,-9.158,0.342,-3.52,-8.703,0.756,-4.362,1.26,14.77,-1.12
,-9.682,-0.112,-3.975,-8.492,1.637,-4.731,6.09,12.18,0.0
34379.0,-8.588,1.625,-4.544,-8.071,2.015,-4.2,21.56,9.94,5.88
,-8.279,1.651,-4.781,-8.555,1.646,-4.101,17.64,8.33,5.11
,-8.019,1.563,-4.886,-8.514,0.914,-4.401,15.47,7.14,3.78
,-7.629,1.866,-4.544,-8.308,0.337,-4.652,14.0,10.71,3.15
34455.0,-8.437,0.318,-4.738,-8.679,0.94,-4.702,8.82,18.48,0.98
,-8.533,0.782,-5.001,-8.552,0.689,-5.049,12.11,19.81,0.63
,-8.672,1.012,-4.733,-8.679,0.768,-5.377,10.5,21.77,0.98
,-8.684,0.986,-4.905,-8.37,0.972,-5.698,5.67,21.63,1.82
34531.0,-7.815,1.61,-5.772,-7.959,2.142,-5.449,8.96,10.85,0.63
,-7.849,1.953,-5.473,-8.052,2.216,-5.384,7.77,15.19,0.63
,-8.011,2.168,-5.475,-8.189,2.082,-5.406,4.69,17.64,0.63
,-7.973,2.113,-5.446,-8.105,1.893,-5.513,1.54,18.69,0.49
34606.0,-7.944,1.397,-5.468,-8.306,0.704,-5.631,-5.25,20.86,-7.0
,-7.889,1.115,-5.698,-8.267,0.692,-5.657,-5.18,19.74,-7.49
,-8.074,0.895,-5.717,-7.999,0.555,-5.8,-3.92,18.97,-7.7
,-8.277,0.782,-5.626,-8.074,0.593,-5.566,-2.66,18.06,-8.12
34682.0,-8.172,0.835,-5.561,-8.512,0.601,-5.642,1.47,19.53,-5.46
,-8.275,0.718,-5.501,-8.457,1.208,-5.64,0.77,20.51,-4.48
,-8.198,0.366,-5.628,-8.059,1.756,-5.93,-1.19,21.42,-3.29
,-8.315,0.203,-5.671,-7.803,1.981,-6.083,-1.4,21.77,-1.89
34757.0,-7.865,1.742,-6.205,-7.913,-0.007,-6.059,-2.45,19.32,-4.41
,-7.818,1.213,-6.37,-8.112,0.282,-6.023,-7.14,18.06,-3.71
,-7.808,0.651,-6.15,-8.191,0.689,-6.164,-9.1,17.71,-2.59
,-7.887,0.246,-5.937,-8.045,0.804,-6.454,-5.88,16.38,-2.38
34833.0,-7.755,0.919,-6.791,-8.184,1.677,-6.023,3.29,13.02,-0.14
,-7.755,1.01,-6.64,-8.026,1.522,-6.195,-1.61,14.42,1.82
,-7.983,1.244,-6.353,-7.674,1.29,-6.523,-5.6,15.12,3.43
,-8.153,1.584,-6.193,-7.547,1.151,-6.346,-7.91,14.28,3.85
34909.0,-7.81,1.18,-6.504,-7.935,1.046,-6.442,-10.64,7.98,1.26
,-7.889,1.05,-6.403,-7.837,1.067,-6.48,-9.45,7.0,0.56
,-8.114,0.916,-6.174,-7.818,1.211,-6.674,-8.47,6.16,-0.28
,-8.074,0.881,-6.277,-7.664,1.254,-6.904,-7.35,4.55,-0.7
34985.0,-7.748,1.06,-6.695,-7.806,1.206,-6.205,-15.82,1.47,1.68
,-7.803,0.878,-6.461,-7.815,1.615,-6.104,-16.66,0.35,1.05
,-7.971,0.826,-6.435,-7.918,2.111,-6.241,-16.73,-1.75,0.35
,-8.052,1.141,-6.236,-7.966,1.972,-6.066,-14.84,-2.17,-0.77
35061.0,-7.901,1.342,-5.949,-7.803,1.572,-6.798,-19.39,-1.47,3.43
,-7.643,1.07,-6.425,-7.983,1.529,-6.389,-18.97,-3.29,2.73
,-7.485,1.163,-6.399,-8.1,1.553,-6.097,-16.45,-4.06,2.03
,-7.519,1.407,-6.549,-7.944,1.388,-6.1,-14.98,-3.85,1.61
35136.0,-8.09,0.84,-5.626,-7.918,1.316,-5.937,-24.85,-0.84,5.53
,-7.885,0.562,-5.657,-7.839,1.359,-5.745,-21.84,-0.98,5.32
,-8.074,0.701,-5.695,-8.078,1.134,-5.817,-17.08,-1.26,5.11
,-8.203,0.895,-5.53,-7.767,1.326,-6.054,-13.86,-2.66,4.97
35212.0,-7.775,1.275,-6.059,-7.746,2.529,-5.709,-7.77,-5.88,6.23
,-7.784,1.137,-5.767,-7.825,2.991,-5.485,-7.21,-6.65,6.93
,-7.851,1.318,-5.731,-7.6,2.907,-5.3,-5.18,-7.56,7.21
,-7.808,1.924,-5.719,-7.72,2.747,-5.178,-2.8,-7.56,7.07
35288.0,-7.676,2.757,-5.262,-8.208,1.845,-5.403,-8.4,-3.43,2.45
,-7.696,2.529,-5.485,-7.825,1.682,-5.611,-9.45,-2.52,1.33
,-7.865,2.637,-5.731,-7.88,1.752,-5.683,-10.01,-0.77,-0.28
,-8.098,2.347,-5.549,-7.94,1.962,-5.717,-9.03,-0.21,-0.77
35364.0,-7.775,1.91,-5.903,-7.909,1.637,-5.712,-12.74,0.21,2.17
,-7.928,1.792,-5.851,-7.93,1.563,-6.004,-15.12,1.61,3.01
,-8.239,1.546,-5.264,-7.916,1.725,-5.812,-15.4,1.26,2.94
,-8.222,1.601,-5.422,-7.882,2.17,-6.068,-14.7,0.0,2.45
35439.0,-8.102,1.261,-5.506,-7.954,1.907,-6.442,-18.97,-1.05,4.13
,-8.04,1.67,-5.755,-7.921,2.077,-6.289,-15.05,-3.08,3.78
,-8.026,1.653,-6.164,-8.122,2.082,-6.016,-13.09,-4.06,4.13
,-8.112,1.864,-5.968,-7.909,1.646,-5.688,-13.23,-4.55,4.55
35515.0,-7.842,2.23,-5.652,-8.095,2.209,-5.475,-5.81,-8.12,4.41
,-7.741,2.347,-5.776,-7.76,2.347,-5.379,-4.83,-7.63,4.41
,-7.906,2.491,-5.717,-7.557,2.714,-5.327,-5.95,-7.49,4.41
,-8.203,2.448,-5.573,-7.609,2.402,-5.334,-7.42,-7.77,4.41
35590.0,-7.87,1.986,-5.477,-7.76,1.742,-4.843,-1.61,-7.91,-0.91
,-8.208,2.223,-5.65,-8.729,-0.754,-4.563,-1.26,-9.87,-0.42
,-8.27,1.957,-5.346,-9.105,-4.209,2.687,-0.49,-8.75,0.35
,-8.215,1.996,-5.027,-8.43,-3.218,-0.148,0.42,-6.86,0.98
35666.0,-8.737,-1.062,-2.994,-7.789,2.056,-4.568,-13.09,0.14,4.9
,-8.488,1.019,-4.896,-7.722,2.568,-4.922,8.89,-1.68,4.55
,-8.09,1.945,-5.583,-7.935,2.917,-5.2,15.68,-2.1,3.85
,-7.765,2.362,-5.281,-7.875,2.699,-5.31,13.65,-1.33,3.5
35742.0,-7.909,2.35,-5.549,-8.035,1.984,-5.233,15.12,2.94,1.33
,-8.081,2.496,-5.444,-8.241,1.862,-5.434,17.29,3.15,0.07
,-7.93,2.611,-5.238,-8.399,1.543,-5.406,18.62,3.5,-1.47
,-7.827,2.221,-5.257,-8.284,1.807,-5.006,19.39,4.06,-2.45
35818.0,-7.899,1.881,-5.085,-8.196,2.264,-5.76,24.85,5.74,-3.22
,-7.818,2.067,-4.944,-8.344,1.735,-5.796,25.06,6.79,-4.2
,-7.794,2.429,-5.262,-8.5,1.395,-5.982,24.78,7.49,-5.11
,-7.842,2.441,-5.709,-8.433,1.768,-6.339,23.94,8.05,-5.25
35894.0,-8.404,2.017,-6.04,-8.069,2.022,-6.269,27.93,6.93,-3.85
,-8.425,2.13,-5.767,-8.153,2.087,-6.152,29.82,6.16,-4.34
,-8.2,1.972,-5.884,-8.22,2.347,-6.231,30.94,5.32,-5.46
,-8.117,1.804,-6.205,-8.313,2.462,-6.073,33.46,4.34,-6.51
35969.0,-8.081,2.0,-5.882,-8.315,1.254,-5.714,26.39,-0.49,-9.52
,-7.753,1.948,-5.851,-8.098,1.098,-6.001,23.03,-1.19,-11.06
,-7.624,1.955,-6.028,-8.251,0.83,-6.107,19.95,-2.03,-12.25
,-8.009,1.883,-6.042,-8.361,0.821,-5.846,16.52,-3.71,-14.84
36045.0,-8.318,0.854,-5.786,-7.913,1.5,-6.155,23.66,-2.45,-3.08
,-8.174,1.096,-5.621,-7.997,1.491,-6.052,24.36,-3.5,-0.77
,-8.074,1.254,-5.779,-7.921,1.665,-6.08,23.8,-3.99,1.54
,-8.002,1.311,-5.946,-8.184,1.917,-5.872,21.42,-4.83,3.15
36121.0,-8.09,1.893,-6.044,-8.014,0.857,-5.798,9.66,-8.82,5.6
,-8.098,1.469,-6.111,-8.133,0.785,-5.58,6.79,-9.17,4.76
,-8.04,1.247,-5.791,-8.332,0.998,-5.669,5.81,-9.31,4.76
,-8.028,0.883,-5.836,-8.38,1.409,-5.865,5.67,-9.66,6.02
36197.0,-8.65,1.441,-5.398,-7.679,1.46,-5.365,3.15,-6.09,11.27
,-8.653,1.366,-5.413,-7.889,1.788,-5.439,0.77,-8.75,10.36
,-7.942,1.249,-5.712,-8.263,1.876,-5.719,-0.98,-10.15,9.66
,-7.597,1.146,-5.415,-8.291,2.067,-5.872,-0.7,-10.64,8.96
36272.0,-8.162,2.187,-5.954,-8.083,1.929,-5.403,0.56,-9.73,4.2
,-7.961,2.261,-5.879,-8.196,1.874,-5.441,-3.08,-7.07,4.83
,-8.055,2.034,-5.473,-8.445,1.878,-5.181,-6.72,-5.32,5.11
,-7.99,1.977,-5.398,-8.466,1.701,-5.14,-8.19,-4.83,4.2
36348.0,-8.303,1.22,-4.992,-8.313,1.141,-5.413,-7.21,-10.92,-0.7
,-8.179,0.916,-5.171,-8.531,1.412,-5.147,-4.13,-13.3,-0.98
,-7.99,0.852,-5.315,-8.71,1.586,-4.972,-0.21,-13.86,-0.98
,-8.031,0.914,-5.346,-8.624,1.455,-4.882,2.8,-13.72,-0.91
36423.0,-8.334,1.383,-4.841,-8.61,1.137,-5.006,-3.71,-8.54,0.98
,-8.294,1.323,-4.803,-8.478,0.96,-5.126,-3.43,-8.54,0.91
,-8.406,1.383,-4.908,-8.399,0.979,-5.054,-0.98,-10.08,1.05
,-8.49,1.359,-4.922,-8.354,1.285,-4.934,0.49,-11.41,1.19
36499.0,-8.291,1.831,-5.209,-8.11,1.788,-4.704,12.46,-14.49,3.43
,-8.287,2.13,-5.183,-8.138,1.642,-4.307,10.85,-14.49,3.43
,-8.323,2.249,-5.054,-9.734,1.742,-5.324,7.07,-14.42,2.94
,-8.323,2.072,-4.915,-8.354,1.852,-4.645,2.45,-13.86,2.59
36575.0,-8.538,1.608,-4.587,-8.562,0.751,-4.128,1.89,-13.44,-0.91
,-8.701,1.634,-4.494,-8.327,0.639,-4.456,2.1,-13.23,-0.56
,-9.045,1.524,-3.979,-8.205,1.022,-4.664,1.47,-12.11,-0.14
,-8.701,1.199,-3.975,-8.466,1.371,-4.379,1.89,-11.62,0.28
36651.0,-8.93,1.634,-4.2,-8.466,1.582,-4.245,5.88,-9.52,1.05
,-9.036,1.426,-4.286,-8.457,1.653,-4.245,2.52,-10.08,1.82
,-8.856,1.151,-4.221,-8.514,1.598,-4.36,1.96,-10.57,2.52
,-8.469,1.297,-4.173,-8.658,1.407,-4.243,3.92,-9.38,2.66
36727.0,-8.827,1.371,-4.269,-8.617,1.646,-4.501,6.02,-7.91,2.24
,-8.796,1.335,-4.3,-8.531,1.651,-4.544,7.42,-7.7,2.52
,-8.741,1.436,-4.188,-8.555,1.799,-4.46,8.68,-7.42,2.8
,-8.777,1.579,-4.228,-8.638,1.965,-4.317,8.82,-7.63,3.01
36802.0,-8.82,1.816,-4.121,-8.681,1.168,-4.365,0.49,-4.48,1.33
,-8.918,1.512,-4.013,-8.832,1.701,-4.046,-0.98,-4.76,1.26
,-8.799,1.259,-4.171,-9.038,1.933,-3.927,-0.21,-5.88,1.54
,-8.799,0.993,-4.274,-8.88,1.878,-4.066,2.03,-6.79,1.89
36878.0,-8.794,1.517,-4.317,-9.009,1.606,-4.319,2.1,-6.3,3.08
,-8.679,1.285,-4.525,-8.957,1.608,-3.819,2.73,-7.14,2.8
,-8.737,1.376,-4.879,-8.909,1.512,-3.415,4.27,-7.84,2.59
,-8.818,1.479,-4.69,-8.909,1.364,-3.348,4.48,-7.21,2.52
36954.0,-8.83,1.354,-3.656,-8.813,2.364,-3.831,6.72,-4.9,4.41
,-8.703,1.553,-3.905,-8.825,1.871,-3.484,9.73,-4.97,4.34
,-8.713,2.0,-4.058,-9.04,1.129,-3.637,10.64,-4.48,3.64
,-8.681,2.326,-4.044,-8.928,0.464,-3.953,8.54,-3.15,2.73
37030.0,-8.71,0.479,-4.324,-8.811,1.802,-4.415,5.53,-2.45,3.43
,-8.698,1.115,-4.499,-8.787,1.596,-4.271,11.06,-2.45,3.64
,-8.765,1.771,-4.532,-8.758,1.613,-4.166,11.06,-2.17,3.5
,-8.842,1.955,-4.575,-8.832,1.615,-4.07,6.93,-2.1,3.22
37105.0,-8.863,1.591,-3.917,-8.82,1.881,-3.975,3.22,-2.17,3.08
,-8.844,1.689,-3.798,-8.906,1.783,-4.051,4.69,-1.82,2.87
,-8.976,1.771,-3.898,-8.914,1.546,-4.099,5.11,-1.96,2.59
,-9.0,1.797,-3.948,-8.859,1.196,-4.3,5.04,-1.89,2.03
37181.0,-8.638,1.137,-4.429,-8.854,1.814,-3.618,1.96,-0.98,1.47
,-8.65,1.486,-4.319,-9.009,1.543,-3.486,3.15,-0.56,1.61
,-8.827,1.721,-4.099,-9.038,1.187,-3.635,3.01,-0.28,1.54
,-8.792,1.931,-4.006,-9.033,1.07,-3.812,1.61,0.14,1.33
37256.0,-8.971,1.211,-4.135,-8.89,1.969,-4.331,3.78,1.05,1.47
,-8.899,1.29,-4.53,-8.928,1.898,-4.197,4.83,0.63,1.82
,-8.856,1.452,-4.702,-8.89,1.653,-4.183,5.11,0.21,2.24
,-8.787,1.821,-4.446,-8.799,1.433,-4.094,4.34,0.7,2.31
37332.0,-8.969,1.321,-4.173,-8.691,1.79,-4.267,1.33,0.21,2.1
,-8.832,1.24,-4.317,-8.839,1.816,-4.087,3.43,-0.35,2.45
,-8.772,1.412,-4.415,-8.859,1.608,-3.963,4.76,-0.84,2.38
,-8.634,1.668,-4.489,-8.904,1.584,-3.8,4.9,-0.98,2.1
37408.0,-8.815,1.637,-3.656,-9.057,1.424,-3.446,2.8,-0.28,1.82
,-8.787,1.716,-3.522,-8.902,1.249,-3.771,3.71,0.63,1.54
,-8.82,1.859,-3.29,-8.863,1.443,-4.264,3.78,1.47,1.19
,-9.014,1.747,-3.139,-8.72,1.79,-4.508,2.73,2.52,0.91
37484.0,-8.734,2.079,-4.537,-8.796,1.34,-4.288,5.11,3.01,0.56
,-8.83,2.087,-4.312,-8.734,1.493,-4.36,0.91,3.64,0.21
,-9.091,1.756,-4.29,-8.71,1.61,-4.29,-1.89,3.08,0.35
,-8.902,1.455,-4.326,-8.751,1.795,-4.066,-1.54,2.45,0.56
37560.0,-8.926,1.816,-3.853,-8.89,1.512,-3.939,-1.82,2.52,0.07
,-8.947,1.716,-3.711,-8.737,1.565,-4.032,-2.45,2.59,-0.14
,-8.993,1.572,-3.687,-8.741,1.663,-4.07,-1.82,2.52,-0.14
,-8.94,1.51,-3.807,-8.739,1.615,-4.111,0.07,2.38,0.14
37635.0,-8.88,1.498,-4.109,-8.748,1.823,-4.444,3.08,2.66,0.35
,-8.985,1.342,-4.212,-8.825,1.926,-4.355,3.36,2.31,0.49
,-8.918,1.397,-4.391,-8.856,1.857,-4.195,4.41,2.1,0.84
,-8.832,1.505,-4.489,-8.993,1.665,-4.073,5.46,1.89,0.91
37711.0,-9.002,1.527,-4.044,-8.825,1.773,-4.212,1.19,1.33,0.77
,-8.952,1.474,-4.082,-8.806,1.687,-4.109,2.73,1.05,0.91
,-8.839,1.567,-4.142,-8.842,1.567,-3.987,3.85,0.98,0.98
,-8.849,1.713,-4.195,-8.902,1.541,-3.953,3.22,1.26,1.05
37787.0,-8.942,1.57,-3.838,-8.722,1.601,-4.453,1.54,1.47,0.91
,-8.966,1.541,-3.865,-8.775,1.701,-4.609,2.94,1.19,1.12
,-8.906,1.584,-4.034,-8.808,1.721,-4.666,3.85,1.19,1.33
,-8.832,1.555,-4.293,-8.804,1.68,-4.515,4.27,0.7,1.26
37863.0,-8.859,1.57,-4.496,-8.899,1.651,-4.252,-0.56,-0.21,0.49
,-8.827,1.457,-4.487,-8.887,1.701,-4.128,-0.42,-0.56,0.7
,-8.835,1.45,-4.472,-8.911,1.661,-4.13,0.42,-0.98,0.91
,-8.868,1.613,-4.341,-8.849,1.534,-3.915,0.98,-1.19,0.91
37938.0,-8.89,1.503,-3.829,-8.844,1.795,-3.668,-0.7,-0.98,0.77
,-8.851,1.642,-3.927,-9.014,1.725,-3.699,0.56,-0.98,0.98
,-8.825,1.783,-3.678,-8.985,1.548,-3.661,0.42,-0.35,0.77
,-8.897,1.744,-3.733,-8.966,1.551,-3.735,0.14,-0.21,0.63
38014.0,-9.007,1.589,-3.774,-8.715,1.725,-4.317,1.89,0.91,0.77
,-8.969,1.661,-3.996,-8.887,1.742,-4.343,3.08,0.49,0.91
,-8.894,1.711,-4.118,-8.875,1.685,-4.29,3.01,0.91,0.91
,-8.835,1.687,-4.362,-8.923,1.63,-4.355,2.59,0.84,0.84
38089.0,-8.844,1.553,-4.355,-8.981,1.713,-4.056,-0.35,-0.07,0.7
,-8.904,1.575,-4.389,-8.894,1.622,-3.865,0.07,-0.28,0.84
,-8.844,1.639,-4.295,-8.849,1.488,-3.783,0.21,-0.42,0.56
,-8.839,1.713,-4.176,-8.835,1.546,-3.759,-0.14,-0.49,0.63
38165.0,-8.945,1.661,-3.867,-8.923,1.78,-3.656,1.96,-0.84,0.84
,-8.775,1.732,-3.888,-9.028,1.742,-3.666,3.01,-0.7,0.84
,-8.756,1.864,-3.731,-8.949,1.804,-3.786,2.45,-0.07,0.49
,-8.82,1.819,-3.676,-9.028,1.771,-3.965,1.68,0.35,0.21
38241.0,-8.859,1.797,-4.159,-8.935,1.606,-4.353,2.66,0.98,-0.7
,-8.842,1.919,-4.176,-8.976,1.572,-4.381,1.96,1.68,-0.91
,-8.902,1.953,-4.331,-8.89,1.517,-4.283,0.49,1.33,-1.12
,-8.878,1.752,-4.386,-8.894,1.56,-4.087,-1.26,1.05,-1.19
38317.0,-8.961,1.488,-3.96,-8.93,1.575,-3.508,-1.05,-0.35,-0.7
,-8.882,1.457,-3.85,-8.928,1.618,-3.479,-0.14,-0.63,-0.28
,-8.947,1.441,-3.728,-8.921,1.63,-3.561,1.19,-0.42,-0.14
,-8.945,1.488,-3.666,-8.875,1.687,-3.642,2.8,-0.49,0.07
38392.0,-8.77,1.756,-3.776,-8.882,1.663,-3.676,7.28,1.12,-0.84
,-8.782,1.811,-3.754,-8.854,1.797,-3.477,6.51,1.68,-1.12
,-8.909,1.721,-3.786,-8.906,1.809,-3.254,5.67,1.82,-1.26
,-8.856,1.625,-3.774,-8.918,1.728,-3.544,5.46,2.38,-1.47
38468.0,-8.837,1.522,-3.91,-8.88,1.955,-3.81,5.6,5.04,-2.59
,-8.796,1.436,-4.176,-8.923,1.866,-3.522,6.65,4.55,-2.38
,-8.804,1.567,-4.164,-8.971,1.656,-3.199,7.77,4.76,-2.45
,-8.854,1.802,-4.006,-9.105,1.383,-3.357,8.19,5.53,-2.59
38544.0,-8.899,1.28,-3.759,-8.914,1.62,-2.886,7.28,7.49,-3.22
,-8.471,1.491,-3.917,-9.184,0.914,-3.032,9.8,8.61,-3.5
,-8.392,1.972,-3.702,-8.866,0.421,-3.321,8.61,11.06,-4.62
,-8.734,2.115,-3.386,-9.021,0.424,-3.616,3.78,13.65,-5.6
38620.0,-9.16,0.854,-4.039,-8.591,2.094,-4.48,14.56,13.72,-3.01
,-8.904,1.247,-4.597,-8.871,2.048,-3.91,18.69,13.51,-2.03
,-8.397,1.677,-4.683,-9.098,1.642,-3.771,18.9,14.28,-1.82
,-8.387,1.907,-4.511,-8.859,1.275,-3.946,16.31,14.91,-2.38
38696.0,-8.653,1.144,-3.941,-8.179,1.62,-4.532,7.0,16.59,-3.71
,-8.39,1.543,-4.092,-8.165,1.575,-4.499,10.22,17.43,-4.13
,-8.124,1.876,-4.066,-8.399,2.024,-4.29,10.57,18.9,-4.34
,-8.208,1.756,-4.197,-8.607,2.343,-3.946,7.56,19.46,-4.97
38771.0,-8.899,2.003,-3.927,-8.342,0.732,-4.396,-9.8,27.3,-10.64
,-8.796,1.539,-4.283,-8.138,1.019,-4.073,-14.42,26.18,-9.8
,-8.772,0.95,-4.582,-8.294,1.034,-4.037,-15.4,24.5,-8.61
,-8.835,0.656,-4.774,-8.248,1.196,-4.183,-12.74,24.22,-8.61
38847.0,-8.492,1.175,-4.216,-8.717,-0.39,-4.848,-14.28,31.85,-5.95
,-8.82,1.017,-4.245,-8.942,-0.012,-5.03,-16.1,31.64,-5.95
,-8.811,0.5,-4.42,-8.619,-0.005,-4.587,-16.38,31.29,-4.69
