Timestamp,AccX,AccY,AccZ,GyroX,GyroY,GyroZ,MagnX,MagnY,MagnZ
0.0,-9.222,-0.524,-3.637,-9.213,-0.517,-3.704,2.24,1.26,0.49
,-9.227,-0.577,-3.699,-9.165,-0.538,-3.74,2.24,1.4,0.63
,-9.198,-0.591,-3.716,-9.246,-0.536,-3.676,2.38,1.19,0.7
,-9.177,-0.572,-3.711,-9.182,-0.5,-3.63,2.66,1.33,0.7
76.0,-9.203,-0.574,-3.666,-9.263,-0.541,-3.644,2.73,1.4,0.77
,-9.179,-0.593,-3.659,-9.261,-0.565,-3.649,2.73,1.19,0.56
,-9.203,-0.543,-3.635,-9.232,-0.534,-3.632,2.66,1.05,0.56
,-9.268,-0.581,-3.647,-9.158,-0.529,-3.671,2.59,1.12,0.7
152.0,-9.182,-0.534,-3.704,-9.222,-0.51,-3.711,2.31,1.26,0.63
,-9.22,-0.572,-3.668,-9.198,-0.524,-3.69,2.59,1.4,0.7
,-9.225,-0.526,-3.709,-9.153,-0.567,-3.743,2.66,1.19,0.7
,-9.222,-0.56,-3.659,-9.196,-0.589,-3.709,2.8,1.19,0.7
227.0,-9.213,-0.534,-3.63,-9.206,-0.574,-3.613,2.94,1.12,0.77
,-9.186,-0.548,-3.611,-9.215,-0.584,-3.649,2.8,0.91,0.63
,-9.208,-0.519,-3.58,-9.201,-0.57,-3.697,2.31,0.98,0.7
,-9.268,-0.546,-3.599,-9.196,-0.555,-3.637,2.03,1.26,0.63
302.0,-9.198,-0.534,-3.618,-9.208,-0.574,-3.654,2.59,1.33,0.77
,-9.261,-0.436,-3.611,-9.22,-0.61,-3.69,2.45,1.26,0.7
,-9.261,-0.507,-3.561,-9.253,-0.601,-3.699,2.17,1.26,0.7
,-9.282,-0.534,-3.613,-9.155,-0.603,-3.671,2.03,1.26,0.56
378.0,-9.213,-0.536,-3.589,-9.268,-0.61,-3.666,2.1,1.12,0.91
,-9.253,-0.493,-3.558,-9.198,-0.644,-3.704,1.96,1.4,0.98
,-9.296,-0.445,-3.594,-9.127,-0.68,-3.759,1.47,1.33,0.84
,-9.277,-0.55,-3.656,-9.127,-0.617,-3.747,1.12,1.26,0.77
453.0,-9.134,-0.634,-3.769,-9.215,-0.56,-3.747,2.24,1.05,1.26
,-9.122,-0.574,-3.769,-9.194,-0.584,-3.709,1.96,0.98,1.19
,-9.194,-0.51,-3.802,-9.215,-0.503,-3.685,1.47,0.77,1.05
,-9.194,-0.598,-3.814,-9.258,-0.476,-3.592,1.4,0.63,1.05
529.0,-9.249,-0.529,-3.575,-9.191,-0.646,-3.637,3.15,0.63,1.82
,-9.213,-0.598,-3.592,-9.16,-0.603,-3.604,2.66,0.49,1.68
,-9.179,-0.663,-3.594,-9.232,-0.543,-3.604,2.31,0.7,1.68
,-9.21,-0.665,-3.623,-9.234,-0.469,-3.525,2.38,0.7,1.75
605.0,-9.208,-0.491,-3.542,-9.182,-0.546,-3.817,0.49,0.98,1.82
,-9.232,-0.488,-3.534,-9.239,-0.376,-3.699,0.14,0.98,1.82
,-9.234,-0.56,-3.568,-9.229,-0.493,-3.709,0.07,1.05,1.82
,-9.217,-0.531,-3.649,-9.206,-0.474,-3.695,0.07,1.19,1.82
681.0,-9.217,-0.55,-3.561,-9.229,-0.522,-3.666,-0.7,0.91,2.03
,-9.258,-0.601,-3.63,-9.174,-0.526,-3.625,-0.28,1.05,2.1
,-9.225,-0.546,-3.616,-9.208,-0.538,-3.62,0.0,0.98,2.17
,-9.198,-0.522,-3.625,-9.21,-0.522,-3.668,0.0,0.91,2.24
757.0,-9.227,-0.409,-3.597,-9.201,-0.421,-3.745,-2.03,0.98,2.17
,-9.232,-0.44,-3.616,-9.253,-0.668,-3.764,-2.73,0.84,2.1
,-9.225,-0.447,-3.599,-9.055,-0.4,-3.807,-3.36,0.77,2.1
,-9.22,-0.462,-3.594,-9.143,-0.546,-3.888,-3.92,0.63,1.89
832.0,-9.15,-0.464,-3.585,-9.217,-0.483,-3.491,-6.65,0.0,2.03
,-9.184,-0.567,-3.898,-9.265,-0.718,-3.568,-7.07,0.0,1.89
,-9.196,-0.38,-3.836,-9.194,-0.445,-3.594,-6.09,-0.21,1.96
,-9.208,-0.39,-3.62,-9.299,-0.514,-3.64,-6.44,-0.21,2.31
908.0,-9.194,-0.493,-3.544,-9.215,-0.203,-3.503,-3.57,0.35,3.71
,-9.258,-0.33,-3.503,-9.284,-0.325,-3.498,-3.08,0.56,3.92
,-9.282,-0.44,-3.422,-9.203,-0.357,-3.539,-3.22,0.35,3.85
,-9.332,-0.4,-3.506,-9.131,-0.318,-3.687,-3.08,0.77,4.13
984.0,-9.198,-0.213,-3.654,-9.227,-0.249,-3.618,-5.39,0.7,4.27
,-9.196,-0.244,-3.508,-9.32,-0.459,-3.544,-5.74,0.84,4.62
,-9.184,-0.318,-3.577,-9.227,-0.531,-3.448,-6.09,0.98,4.83
,-9.206,-0.187,-3.628,-9.232,-0.455,-3.546,-5.81,0.98,4.83
1060.0,-9.189,-0.335,-3.429,-9.227,-0.203,-3.501,-4.97,1.68,5.53
,-9.208,-0.591,-3.364,-9.261,0.007,-3.498,-4.76,1.89,6.09
,-9.203,-0.412,-3.448,-9.325,-0.144,-3.532,-3.29,2.1,6.23
,-9.222,-0.306,-3.542,-9.194,-0.096,-3.472,-2.45,2.38,6.3
1135.0,-9.234,-0.029,-3.498,-9.306,-0.311,-3.532,-6.16,2.73,6.02
,-9.213,0.086,-3.604,-9.225,-0.208,-3.522,-6.86,2.66,6.09
,-9.225,0.053,-3.556,-9.213,-0.313,-3.656,-8.54,2.66,5.88
,-9.222,-0.074,-3.539,-9.11,-0.235,-3.668,-9.59,2.66,5.67
1211.0,-9.174,-0.345,-3.661,-9.167,-0.256,-3.484,-8.26,3.57,6.79
,-9.105,-0.23,-3.714,-9.301,-0.263,-3.309,-7.84,3.5,7.0
,-9.179,-0.139,-3.69,-9.292,-0.467,-3.149,-8.54,3.29,6.86
,-9.21,-0.105,-3.678,-9.234,-0.462,-3.061,-10.29,3.08,6.65
1286.0,-9.217,-0.266,-3.041,-9.038,-0.165,-3.771,-3.5,6.44,7.77
,-9.265,0.053,-3.166,-9.05,-0.029,-3.898,-0.98,7.35,8.05
,-9.239,0.237,-3.431,-9.131,0.309,-4.034,-1.12,7.84,8.05
,-9.136,0.081,-3.537,-9.15,0.491,-4.185,-2.66,7.98,8.26
1362.0,-9.141,0.572,-4.185,-9.143,0.687,-4.188,-9.03,6.79,7.42
,-9.043,0.309,-4.214,-9.177,0.546,-4.034,-11.62,5.95,7.0
,-8.871,0.194,-4.223,-9.194,0.574,-3.891,-13.02,5.39,6.93
,-8.897,0.476,-4.118,-9.249,0.713,-3.766,-14.0,4.55,6.58
1438.0,-9.263,0.778,-3.618,-9.296,1.067,-3.544,-19.53,3.78,4.83
,-9.318,1.084,-3.561,-9.263,1.019,-3.463,-17.08,3.85,5.25
,-9.34,1.237,-3.585,-9.213,0.871,-3.408,-15.4,3.99,5.39
,-9.186,1.058,-3.482,-9.277,0.876,-3.415,-14.14,4.2,5.74
1514.0,-9.222,0.608,-3.58,-9.227,1.094,-3.771,-12.53,5.67,3.64
,-9.143,0.629,-3.441,-9.299,0.969,-3.69,-11.83,6.09,3.57
,-9.244,0.737,-3.482,-8.928,0.782,-3.843,-11.34,6.51,3.36
,-9.215,0.914,-3.692,-9.007,0.826,-4.087,-11.2,6.58,3.08
1589.0,-9.1,0.972,-4.24,-8.921,0.763,-4.02,-13.51,5.18,0.56
,-9.04,0.785,-4.384,-9.167,0.754,-3.924,-14.28,4.69,0.35
,-9.201,0.512,-4.257,-9.162,0.608,-3.745,-13.93,4.2,-0.35
,-8.976,0.675,-4.164,-9.263,0.402,-3.649,-13.58,3.71,-0.77
1665.0,-9.093,0.67,-3.778,-9.196,0.67,-3.623,-8.54,3.85,0.35
,-9.04,0.342,-3.568,-9.174,0.677,-3.644,-6.51,4.48,1.33
,-9.256,0.648,-3.683,-9.162,0.847,-3.752,-2.87,5.11,2.03
,-9.215,0.823,-3.649,-9.052,0.766,-3.843,-0.49,5.88,2.59
1741.0,-8.964,0.361,-3.953,-9.012,0.771,-4.252,6.58,8.68,4.62
,-8.952,0.29,-4.022,-9.021,0.871,-4.262,8.68,8.89,5.11
,-8.978,0.51,-4.051,-8.981,0.854,-4.29,10.71,9.38,5.46
,-9.031,0.648,-4.188,-8.851,0.878,-4.283,11.48,9.66,5.81
1817.0,-8.964,0.893,-4.281,-8.954,1.015,-3.845,9.59,8.75,5.11
,-9.002,0.72,-4.073,-8.961,0.782,-3.697,8.47,8.82,4.97
,-9.016,0.83,-3.951,-9.005,1.022,-3.673,8.33,8.75,4.83
,-9.124,1.216,-3.891,-9.093,1.039,-3.644,7.49,8.54,4.13
1893.0,-9.1,1.077,-3.568,-8.854,0.799,-4.238,4.9,10.5,3.29
,-9.117,0.95,-3.699,-8.825,0.601,-4.322,4.55,10.99,3.08
,-9.117,0.897,-3.819,-8.94,0.687,-4.362,4.9,11.34,3.01
,-8.928,1.046,-4.058,-8.973,0.847,-4.41,5.04,11.55,2.66
1968.0,-8.839,0.802,-4.506,-9.016,1.137,-4.635,1.05,11.55,0.07
,-8.753,0.526,-4.496,-8.926,0.96,-4.477,0.77,11.27,0.56
,-8.624,0.462,-4.566,-8.832,0.84,-4.381,2.03,11.13,1.12
,-8.758,0.811,-4.523,-8.899,0.931,-4.448,3.71,11.27,1.54
2044.0,-8.808,0.926,-4.539,-8.823,0.395,-4.068,2.1,11.13,0.42
,-8.708,0.596,-4.456,-8.933,0.57,-4.058,2.1,11.06,0.91
,-8.765,0.718,-4.432,-8.93,0.376,-4.142,3.71,11.2,1.12
,-8.835,0.701,-4.276,-8.914,0.134,-4.018,4.2,11.41,0.84
2119.0,-8.808,0.206,-3.984,-8.854,0.809,-4.432,12.88,14.91,3.5
,-8.942,0.811,-4.121,-8.832,1.031,-4.503,15.68,15.82,4.2
,-8.923,1.127,-4.168,-8.837,1.261,-4.654,14.42,16.45,3.85
,-8.918,0.828,-4.331,-8.715,1.117,-4.738,12.39,17.08,3.29
2195.0,-8.619,0.67,-4.886,-8.808,0.163,-5.032,13.58,17.99,1.75
,-8.567,0.651,-4.941,-9.0,0.373,-4.783,15.96,18.13,2.03
,-8.701,0.646,-5.011,-9.392,1.261,-4.458,18.2,18.27,2.03
,-8.775,0.371,-4.996,-9.969,2.828,-4.456,20.16,18.69,2.24
2271.0,-9.064,2.742,-4.319,-8.725,0.608,-4.621,18.83,19.67,-3.36
,-8.698,0.562,-4.027,-8.629,0.352,-4.69,9.66,19.39,-3.99
,-8.765,0.392,-4.104,-8.653,-0.172,-4.805,11.97,20.02,-3.22
,-8.794,0.732,-4.417,-8.598,0.187,-5.176,14.91,21.07,-3.01
2347.0,-8.763,0.622,-5.281,-9.155,1.027,-5.128,17.64,24.5,-4.41
,-8.93,0.885,-5.54,-8.705,0.424,-5.025,15.96,24.5,-5.6
,-8.758,0.29,-5.669,-9.124,0.675,-4.953,13.93,24.57,-6.23
,-8.935,0.134,-5.425,-9.091,1.338,-4.752,16.45,25.2,-4.97
2422.0,-9.244,0.163,-4.463,-8.926,-0.316,-4.319,17.15,28.07,-7.0
,-9.024,-0.115,-4.499,-8.856,-0.352,-4.398,19.25,29.54,-7.14
,-9.014,-0.079,-4.453,-8.818,-0.514,-4.523,20.72,31.43,-6.79
,-8.978,-0.201,-4.295,-8.756,-0.895,-4.573,20.93,33.32,-6.58
2498.0,-8.691,-0.861,-4.733,-8.507,-0.17,-5.281,20.23,42.91,-7.77
,-8.698,-0.62,-4.771,-8.346,-0.347,-5.272,21.91,44.8,-7.28
,-8.744,-0.278,-4.994,-8.239,-0.359,-5.238,22.61,45.99,-7.28
,-8.693,0.072,-5.128,-8.196,-0.112,-5.623,21.14,46.83,-7.7
2574.0,-8.081,-0.017,-5.927,-7.686,-0.158,-6.121,16.66,49.63,-7.56
,-7.983,-0.206,-6.138,-7.71,-0.168,-6.037,14.21,49.49,-7.98
,-7.877,-0.536,-6.162,-7.712,-0.462,-5.968,12.81,49.42,-7.98
,-7.722,-0.491,-6.171,-7.7,-0.974,-5.705,13.93,49.42,-7.21
2650.0,-7.65,-1.45,-5.384,-7.727,-1.481,-5.138,13.02,51.59,-1.33
,-7.66,-1.809,-5.126,-7.681,-1.742,-5.078,19.11,53.83,2.24
,-7.648,-1.864,-4.757,-7.748,-1.847,-5.233,26.6,56.56,6.65
,-7.808,-1.608,-4.968,-7.755,-1.675,-5.37,33.88,58.8,10.22
2726.0,-7.779,-1.445,-5.47,-8.107,-0.725,-6.274,59.99,68.39,25.27
,-7.897,-1.326,-5.755,-7.887,-0.522,-6.607,63.49,69.93,27.44
,-8.088,-1.232,-5.786,-7.746,-0.424,-6.815,67.41,71.47,29.33
,-8.141,-1.012,-6.088,-7.65,-0.122,-7.251,71.61,72.8,31.01
2801.0,-7.597,0.053,-7.325,-7.03,0.96,-9.002,66.36,70.84,23.38
,-7.329,0.172,-7.798,-6.762,0.849,-9.088,63.77,69.86,20.3
,-7.27,0.282,-8.287,-6.571,0.333,-8.954,61.67,69.79,18.13
,-7.227,0.617,-8.751,-6.09,-0.342,-8.794,58.31,70.14,15.82
2877.0,-5.82,-0.711,-8.902,-5.427,-0.804,-8.818,7.56,64.26,11.62
,-5.753,-0.998,-8.789,-5.37,-0.459,-8.763,4.06,60.48,11.97
,-5.781,-1.34,-9.045,-5.293,-0.522,-8.748,1.4,55.58,11.27
,-5.432,-1.278,-9.002,-5.324,-0.632,-8.804,2.17,50.26,10.71
2952.0,-5.597,-0.95,-8.689,-5.312,-1.871,-8.299,-1.19,20.72,11.62
,-5.966,-0.924,-8.823,-5.226,-2.259,-8.002,-2.45,11.55,10.64
,-5.82,-1.12,-8.516,-5.281,-2.271,-8.184,-2.94,2.24,10.15
,-5.535,-1.402,-8.409,-5.482,-2.393,-7.925,-3.22,-5.53,10.36
3028.0,-5.669,-2.072,-8.098,-5.846,-1.622,-8.107,4.34,-41.3,18.2
,-5.755,-2.163,-8.031,-5.839,-1.651,-7.918,5.6,-49.0,18.76
,-5.724,-2.194,-7.906,-5.815,-1.433,-8.016,6.79,-56.21,19.11
,-5.805,-1.756,-8.124,-5.875,-1.292,-8.222,8.4,-63.28,19.6
3104.0,-6.073,-1.165,-8.062,-6.37,-0.491,-8.031,7.28,-95.27,20.02
,-6.21,-0.878,-8.023,-6.408,-0.692,-8.126,6.09,-101.43,18.48
,-6.171,-0.57,-8.107,-6.439,-0.854,-7.961,3.5,-107.73,16.59
,-6.207,-0.538,-8.014,-6.59,-0.921,-7.892,-0.56,-112.98,14.77
3180.0,-6.714,-0.998,-7.626,-6.971,-1.443,-7.193,-12.32,-135.03,6.3
,-6.793,-1.141,-7.739,-7.26,-1.24,-6.971,-14.84,-138.74,4.97
,-6.583,-1.359,-7.703,-7.526,-0.95,-7.081,-15.12,-141.4,4.27
,-6.703,-1.539,-7.468,-7.562,-0.711,-6.916,-13.23,-142.52,4.48
3255.0,-7.507,-0.505,-7.064,-7.21,-0.653,-6.798,-10.71,-147.07,2.24
,-7.389,-0.483,-6.983,-7.157,-0.897,-6.602,-14.7,-148.19,0.42
,-7.294,-0.402,-6.889,-7.186,-0.936,-6.849,-17.57,-149.1,-1.4
,-7.236,-0.495,-6.829,-6.963,-0.95,-6.212,-21.28,-150.43,-3.99
3331.0,-7.667,-0.78,-5.858,-8.126,-1.0,-4.185,-21.56,-154.56,-15.26
,-7.712,-0.593,-5.654,-8.224,-0.962,-3.553,-23.03,-154.63,-17.85
,-7.877,-0.763,-5.269,-8.196,-0.995,-3.113,-25.48,-153.65,-19.81
,-7.976,-0.921,-4.762,-8.614,-0.646,-3.317,-27.65,-151.76,-21.21
3407.0,-8.978,-0.689,-3.12,-8.971,-1.192,-1.51,-29.19,-127.61,-22.4
,-8.918,-0.68,-2.836,-9.093,-1.007,-1.584,-29.61,-120.96,-22.12
,-9.05,-0.828,-2.438,-9.069,-0.732,-1.905,-29.75,-114.03,-21.98
,-8.971,-1.218,-1.706,-8.844,-1.079,-1.61,-28.63,-106.75,-21.28
3483.0,-8.741,-1.424,-1.565,-8.916,-0.782,-1.053,-31.01,-66.64,-14.28
,-8.851,-1.709,-1.426,-8.753,-0.845,-0.976,-28.7,-57.4,-11.13
,-8.88,-1.536,-1.173,-8.78,-0.9,-0.785,-24.78,-48.3,-8.4
,-8.849,-1.223,-0.804,-8.787,-0.938,-0.749,-19.39,-38.57,-5.46
3558.0,-8.801,-0.701,-1.0,-9.012,-0.424,-1.61,-13.23,9.03,5.74
,-8.698,-0.581,-1.084,-9.773,-0.828,-1.773,-14.28,17.99,7.77
,-8.756,-0.529,-1.204,-11.079,-2.034,-1.591,-16.1,26.6,10.08
,-8.789,-0.486,-1.445,-14.106,-4.523,-0.357,-17.36,34.02,12.04
3634.0,-14.814,-5.654,1.254,-9.722,-3.642,1.182,-11.97,18.83,12.74
,-11.524,-3.168,1.005,-9.713,-4.279,1.247,-1.54,11.27,8.19
,-9.222,-0.72,0.5,-10.371,-2.441,0.28,-6.65,10.64,2.24
,-9.73,-1.78,0.572,-9.402,-1.469,-0.275,-22.96,14.35,1.47
3710.0,-9.828,-0.723,-1.024,-9.586,1.598,-3.005,-2.31,54.11,16.73
,-9.792,-0.256,-1.467,-9.014,0.443,-3.419,-5.46,50.89,14.35
,-9.718,0.818,-1.771,-9.04,-1.132,-3.604,-9.1,47.39,13.02
,-9.742,1.694,-1.917,-9.32,-1.73,-3.374,-15.89,45.57,13.51
3785.0,-9.44,-0.9,-3.058,-9.411,-0.318,-3.089,-1.54,46.48,24.71
,-9.55,0.151,-3.314,-9.464,-0.086,-3.12,5.04,44.66,25.76
,-9.414,0.163,-3.051,-9.586,0.254,-3.02,4.69,42.91,26.25
,-9.361,-0.242,-2.929,-9.713,0.232,-3.137,4.97,41.65,26.81
3861.0,-9.469,-0.038,-3.044,-9.665,0.026,-3.563,-13.16,37.66,13.72
,-9.289,-0.639,-3.003,-9.564,0.275,-3.522,-18.41,36.75,11.34
,-9.239,-0.522,-2.989,-9.471,0.23,-3.582,-17.92,36.4,10.29
,-9.356,-0.043,-3.314,-9.39,-0.285,-3.561,-14.77,35.63,10.01
3937.0,-9.184,-0.412,-3.625,-9.024,0.208,-3.611,-7.0,28.7,11.2
,-9.332,-0.148,-3.764,-9.337,0.522,-3.695,-1.61,28.07,11.55
,-9.462,0.141,-3.984,-9.533,0.952,-3.896,0.21,27.09,11.2
,-9.275,0.189,-3.903,-9.438,1.467,-3.766,-1.26,25.83,10.92
4013.0,-9.304,1.366,-3.783,-9.354,0.325,-3.264,-11.62,18.97,6.37
,-9.268,0.742,-3.494,-9.483,0.038,-3.206,-15.89,17.29,6.16
,-9.356,0.517,-3.357,-9.347,-0.112,-3.151,-16.1,16.24,6.3
,-9.471,0.488,-3.364,-9.141,-0.431,-2.608,-15.12,15.89,6.23
4088.0,-9.409,-0.285,-2.407,-9.416,0.536,-3.281,-10.92,16.59,8.75
,-9.737,0.414,-2.52,-9.313,0.081,-3.728,-6.44,17.57,8.89
,-9.617,0.976,-2.63,-9.275,0.285,-4.302,-6.02,18.55,9.17
,-9.524,1.01,-2.876,-9.115,0.629,-4.511,-7.91,18.97,8.89
4164.0,-9.131,0.773,-4.611,-9.103,0.464,-3.704,2.38,15.54,10.01
,-9.196,0.895,-4.736,-9.359,0.543,-3.498,1.33,13.65,8.89
,-9.131,0.983,-4.489,-9.404,0.861,-3.364,-0.42,11.97,7.98
,-9.052,0.694,-4.216,-9.227,0.799,-3.156,-2.8,10.85,7.28
4240.0,-9.407,0.637,-2.931,-9.074,0.426,-3.264,-4.41,10.36,5.95
,-9.586,1.213,-3.113,-9.225,-0.215,-3.422,-5.88,9.94,3.57
,-9.342,1.845,-3.285,-9.316,-0.553,-3.891,-11.06,9.31,1.26
,-9.103,1.362,-3.278,-9.294,-0.744,-4.341,-18.69,8.68,0.63
4316.0,-9.112,-0.342,-4.829,-8.918,0.304,-4.489,-0.07,9.52,6.37
,-8.842,-0.105,-4.829,-9.064,0.517,-4.343,1.75,8.68,6.79
,-8.914,0.029,-4.817,-9.172,0.952,-4.08,2.45,7.7,6.23
,-9.014,0.316,-4.81,-9.208,1.201,-3.833,3.22,6.79,6.02
4391.0,-9.105,1.163,-3.611,-9.452,-0.019,-3.41,3.92,3.85,8.75
,-9.229,0.766,-3.238,-9.347,0.034,-3.137,1.82,3.99,8.75
,-9.409,0.543,-3.348,-9.356,0.342,-2.938,2.03,4.55,8.68
,-9.45,0.184,-3.314,-9.481,0.428,-2.802,3.43,5.6,8.89
4467.0,-9.423,0.457,-2.905,-8.88,0.792,-3.565,9.66,10.85,7.07
,-9.227,0.38,-3.058,-8.882,0.847,-3.589,10.22,12.04,7.21
,-8.985,0.383,-3.226,-9.062,1.0,-3.53,12.04,13.02,7.42
,-8.796,0.479,-3.422,-9.234,1.366,-3.731,13.65,13.86,7.84
4542.0,-9.079,1.46,-3.812,-9.206,0.866,-4.803,7.21,14.28,5.6
,-9.103,1.381,-4.161,-8.988,1.137,-4.59,4.48,13.72,5.11
,-8.959,1.151,-4.453,-9.016,1.091,-4.338,3.08,12.81,5.11
,-8.844,0.931,-4.616,-8.997,0.617,-4.032,4.27,12.04,5.95
4618.0,-8.985,0.428,-3.587,-9.038,1.103,-3.07,6.09,10.08,4.9
,-9.162,0.601,-3.266,-9.258,1.376,-3.159,7.98,11.06,5.18
,-9.363,0.988,-3.204,-9.016,1.61,-3.106,8.82,12.11,4.83
,-9.155,1.007,-3.13,-8.983,1.725,-3.324,7.28,13.09,4.27
4694.0,-8.914,1.689,-3.47,-9.045,-0.024,-3.644,-9.17,14.35,-2.24
,-8.722,1.153,-3.563,-9.06,0.383,-3.793,-14.56,14.49,-2.94
,-8.823,0.591,-3.728,-9.088,0.72,-3.996,-16.17,15.33,-2.73
,-8.871,-0.091,-3.678,-9.06,0.598,-4.219,-14.14,16.8,-1.82
4770.0,-8.899,0.158,-4.384,-8.961,1.515,-4.783,-7.98,21.98,-1.89
,-8.813,0.067,-4.515,-9.024,1.591,-4.755,-5.39,22.47,-1.19
,-8.825,0.321,-4.523,-8.693,1.85,-4.815,-1.4,23.17,0.14
,-8.976,0.871,-4.558,-8.306,1.608,-4.783,2.24,23.31,0.98
4846.0,-8.375,1.366,-4.582,-8.629,0.39,-4.188,-9.87,18.34,-4.2
,-8.636,0.976,-4.41,-8.583,0.479,-4.377,-10.92,18.2,-4.2
,-8.78,0.625,-4.133,-8.684,0.493,-4.434,-10.57,18.76,-3.64
,-8.93,0.333,-4.121,-8.665,0.165,-4.625,-7.56,19.74,-3.01
4921.0,-8.775,-0.029,-4.46,-8.579,0.412,-5.291,-0.84,24.29,-1.12
,-9.033,0.426,-4.463,-8.583,0.388,-5.793,2.24,25.06,-1.05
,-8.914,1.132,-4.779,-8.655,0.519,-5.91,3.01,25.34,-1.47
,-8.552,0.756,-4.877,-8.693,0.802,-5.863,0.63,25.69,-1.54
4997.0,-8.849,0.95,-5.738,-9.837,3.163,-5.173,12.18,25.06,0.49
,-8.746,0.718,-5.42,-9.962,1.922,-5.312,11.97,24.71,0.14
,-8.839,0.979,-5.374,-9.265,-0.976,-5.154,12.88,24.85,0.14
,-9.134,1.558,-5.197,-9.024,-1.522,-4.755,13.65,25.2,-0.14
5073.0,-9.698,-0.211,-4.405,-8.478,-0.976,-4.968,20.58,29.61,0.28
,-9.282,0.428,-4.582,-8.48,-0.558,-5.236,18.62,31.57,-0.28
,-8.83,-1.146,-4.683,-8.342,-0.189,-5.52,15.61,33.53,-1.47
,-8.461,-1.34,-4.731,-8.294,-0.134,-5.561,19.46,35.7,-0.77
5149.0,-8.299,0.189,-5.482,-8.464,1.555,-5.69,43.12,43.47,2.59
,-8.413,1.194,-5.494,-8.358,0.885,-5.7,45.01,43.54,1.82
,-8.648,2.527,-5.626,-8.464,0.692,-5.592,41.37,42.07,-0.91
,-8.435,2.754,-5.729,-8.485,0.845,-5.485,31.43,40.46,-3.15
5224.0,-8.528,0.78,-5.499,-8.093,-0.711,-5.729,32.13,41.72,-0.07
,-8.313,0.251,-5.403,-8.15,-0.725,-5.712,30.8,42.42,0.07
,-8.196,-0.29,-5.446,-8.157,-0.392,-5.59,30.66,43.54,0.07
,-8.167,-0.615,-5.616,-8.232,-0.074,-5.674,32.13,44.59,0.0
5300.0,-8.2,-0.213,-5.647,-7.597,-0.041,-5.851,28.0,47.6,-1.19
,-8.047,-0.656,-5.595,-7.444,-0.194,-5.887,25.06,48.3,-1.33
,-7.932,-0.895,-5.355,-7.332,-0.553,-5.891,25.27,49.42,-0.56
,-7.966,-0.421,-5.662,-7.267,-0.529,-5.707,27.37,50.47,0.14
5375.0,-7.401,-0.431,-5.513,-6.894,-0.67,-6.765,24.57,54.67,2.52
,-7.459,-0.335,-4.728,-6.77,-1.754,-6.793,26.18,56.28,3.29
,-7.832,0.089,-5.985,-6.75,-1.9,-6.844,27.58,57.05,2.17
,-7.279,0.089,-6.583,-6.731,-1.45,-6.827,24.01,56.35,0.77
5451.0,-6.803,-1.153,-6.631,-7.607,-1.005,-5.963,43.47,59.08,10.01
,-7.076,-0.885,-6.425,-7.329,-0.9,-5.776,45.22,60.41,11.55
,-7.289,-0.799,-6.095,-7.509,-0.907,-6.006,44.73,62.16,12.67
,-7.291,-1.058,-5.906,-7.746,-0.866,-6.176,44.87,64.68,13.51
5527.0,-7.798,-0.804,-6.442,-7.887,0.156,-7.968,52.43,78.75,17.99
,-7.904,-0.562,-6.822,-7.753,0.605,-8.55,53.97,79.03,19.04
,-7.801,-0.354,-6.985,-7.248,0.888,-9.028,53.83,77.98,20.02
,-7.834,-0.213,-7.425,-7.203,0.641,-9.222,52.29,76.58,19.32
5603.0,-6.614,0.091,-9.349,-6.009,-1.862,-9.505,18.76,66.99,15.75
,-6.126,-0.514,-8.72,-5.508,-2.132,-9.239,12.25,65.8,16.87
,-6.202,-1.007,-9.067,-5.48,-2.247,-8.878,7.98,63.14,16.87
,-5.963,-1.342,-9.184,-5.609,-2.053,-8.631,4.48,59.5,15.82
5678.0,-5.59,-1.989,-8.753,-4.984,-1.764,-9.005,19.74,38.92,28.63
,-5.592,-1.725,-8.708,-5.078,-1.553,-9.095,20.3,33.81,31.08
,-5.451,-1.634,-9.028,-4.836,-1.417,-9.225,18.97,26.81,31.29
,-5.315,-1.864,-9.064,-4.69,-1.376,-9.385,17.08,19.39,29.68
5754.0,-4.458,-1.225,-9.263,-4.341,-1.184,-9.263,14.56,-12.95,26.53
,-4.491,-1.141,-9.368,-4.365,-1.531,-9.093,12.04,-20.44,25.06
,-4.415,-1.137,-9.375,-4.367,-1.534,-8.988,9.94,-28.07,23.38
,-4.424,-1.125,-9.225,-4.578,-1.457,-9.014,8.61,-35.0,21.84
5830.0,-4.649,-1.644,-8.847,-4.451,-1.771,-8.612,1.54,-70.07,19.81
,-4.623,-1.697,-8.591,-4.48,-1.649,-8.423,-0.56,-77.63,20.65
,-4.52,-1.857,-8.495,-4.673,-1.211,-8.425,-2.1,-85.54,20.51
,-4.415,-1.847,-8.445,-4.688,-0.967,-8.476,-1.96,-92.33,20.44
5906.0,-4.812,-0.962,-8.464,-5.382,-0.531,-8.167,-2.73,-126.07,16.52
,-4.798,-0.893,-8.547,-5.616,-0.144,-8.124,-5.32,-132.44,14.7
,-4.733,-0.854,-8.514,-5.607,-0.208,-8.897,-5.04,-136.78,13.65
,-5.008,-0.727,-8.287,-5.36,-0.756,-8.361,-3.85,-140.63,12.53
5982.0,-5.937,-0.766,-8.088,-6.825,-0.467,-7.595,-16.94,-158.69,2.24
,-6.167,-0.538,-7.875,-6.758,-0.794,-7.574,-16.45,-160.72,0.0
,-6.461,-0.33,-7.593,-6.839,-1.144,-7.164,-17.71,-162.47,-2.1
,-6.731,-0.297,-7.478,-6.927,-1.074,-6.822,-22.4,-163.66,-4.34
6057.0,-6.937,-0.902,-6.805,-7.253,-0.536,-6.092,-31.29,-166.39,-15.19
,-6.901,-0.704,-6.899,-7.746,-0.402,-5.631,-31.43,-166.6,-16.66
,-7.021,-0.708,-6.604,-7.992,-0.464,-5.616,-32.48,-166.95,-17.71
,-7.128,-0.617,-6.75,-8.031,-0.706,-5.106,-33.18,-167.65,-19.18
6133.0,-8.196,-0.866,-4.726,-9.141,-1.342,-3.266,-36.33,-162.12,-26.46
,-8.452,-0.809,-4.704,-9.301,-1.17,-2.931,-34.86,-159.46,-26.74
,-8.521,-0.94,-4.307,-9.036,-1.46,-2.41,-36.05,-156.31,-26.04
,-8.818,-1.249,-3.869,-9.079,-1.548,-2.127,-36.96,-152.25,-24.99
6208.0,-8.954,-1.656,-1.776,-8.966,-0.057,-1.263,-31.43,-121.8,-15.82
,-8.413,-1.601,-1.417,-8.916,-0.165,-0.28,-28.63,-111.37,-12.74
,-8.629,-1.158,-0.835,-8.971,-0.273,-0.213,-23.17,-100.03,-11.48
,-8.981,-0.385,-1.098,-8.847,-1.003,0.194,-18.55,-89.11,-12.67
6284.0,-8.665,-1.472,0.249,-8.234,-1.29,-0.292,-39.34,-29.61,-10.57
,-8.746,-1.792,0.194,-8.311,-1.156,-0.428,-37.52,-16.03,-7.84
,-8.631,-1.795,-0.017,-8.856,-1.235,-0.933,-34.44,-2.38,-4.55
,-8.581,-1.668,-0.177,-10.029,-2.075,-1.302,-32.83,10.5,-1.96
6360.0,-13.656,-4.867,-0.474,-8.964,0.268,0.366,-30.45,43.82,11.06
,-16.549,-6.877,1.761,-10.156,-2.087,1.053,-12.67,25.83,18.06
,-12.345,-3.144,0.55,-10.191,-4.022,1.304,11.76,14.07,16.03
,-8.727,0.531,-0.29,-9.976,-3.396,1.397,10.78,10.85,4.62
6436.0,-9.576,-2.402,0.641,-10.567,1.85,-1.283,-15.96,45.36,13.16
,-9.476,-2.271,-0.045,-10.203,1.618,-1.46,-13.51,52.22,15.47
,-9.596,-1.539,-0.294,-9.308,0.23,-1.795,-8.12,53.13,15.33
,-10.426,0.562,-0.749,-9.174,-1.283,-2.247,-3.85,51.03,13.93
6511.0,-9.581,-1.706,-2.718,-9.351,-0.73,-2.816,-15.54,57.68,22.75
,-9.414,-1.278,-2.876,-9.292,0.074,-2.938,-1.12,57.05,26.46
,-9.294,-0.878,-2.67,-9.38,0.735,-3.123,9.38,55.3,29.05
,-9.407,-0.849,-2.716,-9.514,1.06,-3.319,16.52,53.48,31.15
6587.0,-9.521,1.354,-3.408,-9.423,-0.184,-2.852,13.51,45.78,24.71
,-9.332,1.28,-3.305,-9.275,-0.278,-2.934,-3.5,43.12,18.97
,-9.342,0.838,-3.087,-9.359,-0.66,-2.941,-20.51,40.67,13.23
,-9.438,0.093,-2.879,-9.39,-1.161,-2.929,-33.46,38.64,8.26
6662.0,-9.306,-1.448,-2.891,-9.505,-0.751,-4.058,-31.64,35.7,8.68
,-9.433,-1.582,-3.18,-9.232,-0.596,-4.271,-21.07,35.7,11.41
,-9.426,-1.141,-3.374,-9.17,-0.215,-4.307,-10.08,35.56,13.44
,-9.533,-0.854,-3.745,-9.203,0.486,-4.707,-2.17,35.56,15.26
6738.0,-9.174,1.103,-5.054,-9.354,0.976,-3.85,1.26,27.51,9.59
,-9.232,1.043,-4.893,-9.469,1.522,-3.664,-7.28,24.71,7.21
,-9.21,0.629,-4.508,-9.474,1.515,-3.434,-13.51,21.91,5.81
,-9.246,0.467,-4.068,-9.435,1.275,-3.01,-14.35,19.95,5.04
6814.0,-9.557,0.598,-2.848,-9.923,1.103,-2.379,-24.29,12.46,2.03
,-9.466,0.077,-2.338,-9.665,2.261,-2.453,-26.39,12.11,1.4
,-9.5,0.108,-2.216,-9.526,3.13,-2.814,-24.92,12.81,1.61
,-9.806,0.414,-2.41,-9.67,2.809,-3.199,-21.98,13.58,1.61
6890.0,-9.497,1.491,-3.553,-8.787,-1.438,-3.754,-54.6,6.23,-4.48
,-9.215,-0.385,-3.795,-8.93,-2.462,-3.534,-55.3,6.58,-3.78
,-9.308,-1.216,-3.979,-9.172,-2.704,-3.36,-48.65,7.14,-3.78
,-8.923,-0.787,-4.089,-9.411,-1.598,-3.19,-41.16,6.86,-2.8
6966.0,-9.469,-0.237,-3.297,-9.191,0.802,-3.979,-4.62,14.84,5.67
,-9.296,0.577,-3.477,-9.083,0.68,-4.061,-4.06,15.26,5.95
,-9.351,0.948,-3.673,-9.131,0.715,-4.066,-5.39,15.12,6.37
,-9.076,1.036,-3.936,-9.213,0.72,-4.178,-5.67,14.63,6.65
7041.0,-9.105,0.469,-4.147,-9.361,0.361,-3.726,0.98,11.76,8.12
,-9.036,0.074,-4.034,-9.107,0.127,-3.628,-0.49,11.34,7.77
,-9.014,0.012,-3.884,-8.997,-0.163,-3.522,-0.77,10.99,7.63
,-9.146,0.29,-3.802,-9.182,0.022,-3.441,0.0,11.06,7.84
7117.0,-9.359,0.218,-3.427,-8.99,0.519,-4.59,7.98,13.44,10.92
,-9.529,0.512,-3.752,-9.083,1.015,-4.465,10.08,13.37,10.5
,-9.217,0.749,-4.13,-9.122,1.357,-4.214,10.22,13.02,10.29
,-8.952,0.486,-4.491,-9.074,0.842,-3.805,10.71,12.81,10.85
7193.0,-9.11,0.426,-3.482,-9.117,0.718,-3.053,4.48,8.26,7.56
,-9.289,0.562,-3.374,-9.174,0.409,-2.974,5.04,8.61,7.14
,-9.318,0.622,-3.218,-9.304,0.34,-3.001,5.53,9.52,7.0
,-9.203,0.821,-3.163,-9.615,0.778,-3.357,5.53,10.08,6.93
7269.0,-9.38,1.409,-3.687,-8.914,0.921,-4.47,6.44,14.63,5.39
,-9.182,1.515,-4.085,-8.918,0.5,-4.156,2.8,14.07,3.99
,-9.0,1.45,-4.372,-8.926,0.357,-3.8,-1.47,12.88,2.45
,-8.923,1.163,-4.381,-9.1,0.634,-3.594,-3.71,11.83,1.47
7344.0,-9.21,0.981,-3.391,-8.976,-0.328,-3.061,-4.2,11.97,1.47
,-9.028,0.845,-3.403,-9.002,0.134,-3.216,-7.07,12.53,0.98
,-9.031,0.17,-3.367,-9.122,0.096,-3.171,-8.54,13.3,1.19
,-9.079,-0.543,-3.218,-9.048,0.352,-3.393,-5.6,14.98,2.59
7420.0,-8.878,0.558,-3.714,-8.741,0.644,-4.087,5.74,22.47,5.95
,-8.911,0.591,-3.845,-8.792,0.816,-3.965,4.9,22.96,5.67
,-8.911,0.766,-4.066,-8.983,0.912,-3.609,4.41,23.17,5.39
,-8.782,0.68,-4.14,-9.026,0.735,-3.352,3.36,23.52,5.11
7495.0,-8.894,0.79,-3.242,-9.019,0.282,-3.793,-1.75,27.16,3.92
,-8.842,0.333,-3.173,-8.88,0.196,-4.453,-1.75,29.05,4.69
,-8.875,0.151,-3.159,-9.131,-0.457,-4.728,0.98,31.15,5.67
,-9.024,0.342,-3.582,-8.935,1.481,-6.03,4.76,33.18,6.51
7571.0,-8.33,1.302,-6.267,-8.614,1.546,-5.657,8.54,34.93,4.13
,-8.48,0.792,-6.157,-8.612,1.352,-5.324,5.88,33.46,3.99
,-8.574,1.043,-6.126,-8.689,1.187,-5.142,9.38,31.92,3.99
,-8.739,1.295,-5.908,-8.76,0.957,-5.19,11.83,30.66,4.13
7647.0,-8.964,0.905,-5.238,-9.189,0.249,-5.934,9.66,28.91,2.59
,-9.067,0.57,-6.131,-9.016,0.799,-5.542,8.75,29.54,1.26
,-9.079,-0.708,-5.855,-9.579,2.053,-5.08,11.9,28.77,1.26
,-8.938,0.388,-6.061,-9.945,2.8,-5.14,15.89,29.19,3.43
7723.0,-9.184,-0.392,-4.999,-8.629,0.505,-5.006,13.51,32.2,-1.61
,-8.581,-2.201,-4.669,-8.315,-0.723,-5.109,20.72,34.58,1.96
,-8.983,-0.239,-4.673,-8.679,0.383,-5.085,35.7,36.96,5.25
,-9.141,1.287,-4.882,-8.378,1.366,-5.236,37.87,38.36,4.27
7799.0,-8.519,1.17,-5.441,-8.272,1.275,-5.954,19.74,39.83,-5.81
,-8.279,1.354,-5.726,-8.169,0.945,-5.934,15.54,39.2,-7.28
,-8.196,1.412,-5.765,-8.153,0.828,-5.963,11.76,38.64,-8.05
,-8.26,1.529,-5.872,-8.174,0.692,-5.934,10.29,38.57,-8.89
7874.0,-8.196,0.0,-5.834,-8.114,-0.072,-5.185,13.58,39.2,-7.63
,-8.055,-0.251,-5.762,-8.129,-0.086,-5.183,17.71,39.83,-5.67
,-8.177,-0.156,-5.609,-8.019,0.002,-5.468,22.47,40.67,-3.43
,-8.081,0.007,-5.497,-7.849,-0.349,-5.434,25.55,41.72,-1.47
7950.0,-7.973,-0.663,-5.695,-7.511,-0.73,-5.97,30.87,47.81,3.64
,-7.818,-0.498,-5.812,-7.344,-0.967,-5.662,32.69,48.79,4.48
,-7.763,-0.73,-5.748,-7.461,-1.062,-5.456,33.11,49.49,5.32
,-7.801,-0.861,-5.903,-7.368,-1.043,-5.516,34.93,50.82,6.3
8026.0,-7.248,-0.888,-5.846,-7.073,-0.981,-6.518,45.22,56.35,13.65
,-7.05,-0.995,-6.133,-7.181,-0.833,-6.645,46.13,56.77,14.35
,-6.987,-1.01,-6.411,-6.904,-0.747,-6.382,47.18,56.84,14.56
,-7.069,-1.017,-6.621,-6.884,-0.794,-6.102,48.72,56.7,15.26
8102.0,-6.983,-0.897,-6.078,-7.152,-0.541,-6.638,50.82,57.54,14.7
,-6.971,-1.151,-5.968,-7.061,-0.668,-6.992,49.91,57.96,14.0
,-6.954,-1.283,-5.834,-7.124,-1.005,-7.057,51.03,58.87,14.07
,-7.236,-1.005,-6.36,-7.057,-0.802,-6.509,54.81,59.57,13.16
8177.0,-7.626,-0.392,-7.093,-7.767,-0.809,-7.641,48.09,69.58,6.79
,-7.949,-0.409,-7.461,-7.255,-0.771,-8.093,39.9,72.24,5.18
,-8.081,-0.67,-7.361,-6.99,-0.909,-8.196,33.18,74.2,6.58
,-8.112,-0.751,-7.408,-6.738,-1.137,-8.502,30.59,74.62,7.91
8253.0,-6.322,-1.225,-8.698,-5.575,-0.833,-8.536,19.88,66.71,14.84
,-6.076,-1.235,-8.899,-5.511,-0.586,-9.275,20.09,63.84,16.73
,-5.91,-1.103,-9.172,-5.312,-0.62,-9.335,21.7,60.76,17.5
,-5.717,-1.125,-8.806,-5.341,-0.512,-9.442,24.15,57.33,17.57
8328.0,-5.425,-0.488,-9.225,-5.095,-1.235,-8.516,19.18,21.07,24.08
,-5.552,-0.553,-9.064,-4.858,-1.855,-8.543,15.82,9.8,24.08
,-5.276,-0.627,-8.741,-4.602,-1.9,-8.605,13.51,-2.1,23.31
,-5.262,-0.739,-8.567,-4.35,-1.608,-8.897,12.39,-12.74,24.08
8404.0,-4.401,-1.596,-8.871,-4.755,-1.034,-8.964,6.37,-62.86,27.51
,-4.628,-1.57,-8.983,-5.087,-0.665,-9.033,4.27,-71.68,27.09
,-4.621,-1.443,-8.847,-5.197,-0.546,-8.988,3.85,-79.59,26.95
,-4.472,-1.144,-9.019,-5.286,-0.708,-8.799,4.62,-85.26,27.65
8480.0,-5.604,-0.754,-8.614,-5.487,-1.57,-8.555,-8.61,-112.14,22.47
,-5.626,-1.158,-8.552,-5.489,-1.39,-8.459,-11.83,-117.39,21.84
,-5.475,-1.546,-8.497,-5.808,-1.199,-8.076,-12.25,-122.08,21.28
,-5.398,-1.661,-8.509,-6.315,-0.945,-8.081,-9.45,-125.37,20.86
8556.0,-6.638,-0.579,-7.832,-7.169,-0.476,-7.459,7.56,-136.29,18.13
,-6.892,-0.199,-7.81,-7.416,-0.909,-7.286,5.46,-138.6,16.17
,-7.071,0.141,-7.712,-7.645,-1.031,-7.332,-1.82,-141.47,13.16
,-6.899,-0.017,-7.657,-7.609,-1.187,-7.27,-11.2,-143.22,11.13
8631.0,-7.765,-1.201,-7.267,-7.605,-0.797,-6.638,-30.8,-149.52,-0.98
,-7.686,-1.173,-7.136,-7.772,-0.902,-6.403,-32.76,-151.48,-3.57
,-7.55,-1.031,-7.014,-7.791,-1.082,-6.061,-34.37,-153.3,-6.37
,-7.54,-0.885,-6.839,-8.122,-1.208,-5.774,-35.49,-155.05,-9.17
8707.0,-8.2,-1.173,-5.401,-8.911,-1.106,-3.917,-38.99,-160.58,-25.13
,-8.253,-1.153,-5.047,-9.103,-1.103,-3.683,-38.01,-160.09,-28.14
,-8.301,-1.177,-4.621,-9.385,-1.06,-3.317,-36.61,-158.41,-29.82
,-8.571,-1.05,-4.367,-9.143,-1.357,-2.74,-34.51,-155.89,-30.87
8783.0,-8.949,-1.421,-2.596,-8.993,-1.524,-1.402,-29.89,-135.8,-32.06
,-8.997,-1.776,-2.19,-8.76,-0.919,-1.646,-30.52,-128.45,-30.52
,-9.045,-1.905,-1.395,-8.6,-1.041,-1.488,-27.37,-120.47,-27.02
,-9.184,-1.912,-0.991,-8.567,-1.086,-1.208,-25.06,-111.86,-23.8
8859.0,-8.686,-1.283,-0.56,-8.543,-0.761,-0.486,-19.25,-65.45,-13.86
,-8.655,-1.23,-0.653,-8.442,-0.668,-0.711,-17.57,-55.37,-11.62
,-8.571,-1.161,-0.388,-8.284,-0.581,-0.761,-15.75,-46.06,-10.57
,-8.334,-0.849,-0.615,-8.37,-0.713,-0.893,-14.35,-36.4,-8.82
8935.0,-8.425,-0.747,-1.079,-8.342,-0.39,-2.01,-24.99,13.02,-0.56
,-8.354,-0.567,-1.476,-8.524,-0.347,-2.103,-25.41,21.42,0.42
,-8.308,-0.349,-1.627,-9.509,-1.194,-2.044,-27.65,29.33,1.4
,-8.449,-0.414,-1.855,-12.977,-3.963,-1.149,-30.8,36.61,3.15
9010.0,-16.463,-6.044,2.807,-9.275,-0.821,0.258,-16.17,27.51,16.73
,-13.943,-3.166,1.027,-9.978,-3.041,0.512,10.64,15.47,16.73
,-9.15,0.826,-0.337,-10.191,-4.051,0.931,12.46,11.06,5.32
,-8.777,1.0,-0.68,-10.163,-3.305,1.007,-15.33,10.01,-2.59
9086.0,-10.543,-2.273,0.644,-8.464,-0.981,-3.092,-12.95,49.42,19.95
,-11.168,-2.3,-0.263,-9.009,-1.438,-2.654,-8.96,59.57,29.26
,-10.388,-0.952,-2.338,-9.402,-1.019,-2.517,-0.14,64.68,26.74
,-8.5,-0.565,-3.29,-9.342,-0.352,-2.649,-1.4,65.45,22.96
9161.0,-9.325,0.034,-2.522,-9.277,0.577,-3.276,16.24,59.01,26.04
,-9.39,0.311,-2.864,-9.107,0.438,-3.206,14.0,55.93,25.76
,-9.304,0.723,-3.08,-9.194,0.268,-2.867,9.38,52.36,23.59
,-9.222,0.888,-3.3,-9.694,-0.433,-2.934,2.17,48.86,21.07
9237.0,-9.6,-0.491,-2.965,-9.27,-0.567,-4.02,-19.6,40.95,15.54
,-9.433,-0.522,-3.465,-9.222,-0.108,-4.269,-21.07,41.09,13.51
,-9.359,-0.828,-3.625,-9.06,-0.263,-4.448,-24.36,40.39,10.5
,-9.284,-0.945,-3.814,-9.048,-0.447,-4.293,-24.78,39.06,8.75
9313.0,-9.117,-0.483,-4.276,-9.524,0.833,-3.57,-10.43,31.64,13.02
,-9.167,-0.287,-4.008,-9.608,0.828,-3.68,-3.78,30.17,14.7
,-9.316,0.151,-3.829,-9.361,0.474,-3.642,0.28,28.42,15.05
,-9.363,0.562,-3.644,-9.203,-0.01,-3.654,-0.28,26.74,14.35
9389.0,-9.32,-0.225,-3.958,-9.239,-0.158,-3.568,-15.4,19.88,10.92
,-9.203,-0.369,-4.343,-9.541,0.651,-3.362,-13.3,18.83,10.57
,-8.995,-0.699,-4.223,-9.579,0.814,-3.374,-10.64,17.85,11.06
,-8.995,-0.699,-3.908,-9.311,0.536,-3.039,-6.51,17.01,11.55
9464.0,-9.407,0.357,-3.264,-9.502,1.043,-2.991,-14.63,15.33,7.84
,-9.392,0.383,-3.386,-9.581,1.397,-3.084,-13.37,15.26,7.63
,-9.34,0.503,-3.216,-9.55,1.651,-3.51,-11.06,15.33,7.63
,-9.392,0.747,-3.197,-9.313,1.39,-3.714,-8.68,15.61,7.77
9540.0,-9.244,0.785,-3.97,-9.112,-0.019,-3.795,-24.85,13.3,2.24
,-9.27,0.146,-4.29,-9.273,0.426,-3.544,-25.27,12.67,1.75
,-9.16,-0.302,-4.204,-9.356,0.749,-3.376,-22.12,12.11,2.1
,-9.026,-0.282,-4.027,-9.217,0.849,-3.046,-17.08,11.97,3.22
9616.0,-9.208,0.39,-2.795,-9.395,1.768,-3.391,-14.21,12.18,5.32
,-9.313,0.053,-2.508,-9.227,1.058,-3.716,-13.23,13.37,6.09
,-9.713,0.493,-2.458,-8.933,0.189,-4.034,-9.8,14.49,4.9
,-9.572,1.589,-2.85,-8.878,-0.457,-4.396,-9.31,14.84,3.29
9692.0,-9.177,-0.531,-4.468,-9.026,0.641,-4.451,-4.2,15.54,4.27
,-9.251,0.352,-4.764,-8.997,0.28,-4.147,-1.05,14.42,3.08
,-8.928,0.983,-4.724,-9.117,0.055,-3.762,-3.22,12.81,2.24
,-8.949,1.003,-4.748,-9.263,0.395,-3.51,-7.21,11.76,2.03
9768.0,-9.284,0.981,-3.393,-8.997,-0.024,-3.455,-4.13,11.55,4.97
,-9.265,1.421,-3.451,-9.153,0.129,-3.448,-5.25,11.76,4.55
,-9.028,1.283,-3.479,-9.024,0.586,-3.506,-9.45,11.97,3.99
,-9.119,0.503,-3.518,-9.234,0.802,-3.845,-12.18,12.46,3.57
9843.0,-9.083,0.914,-4.097,-8.971,0.096,-4.496,-8.4,14.28,1.12
,-8.746,0.543,-4.346,-8.959,0.148,-4.353,-10.92,14.28,1.12
,-8.928,0.239,-4.475,-8.966,0.313,-4.295,-10.29,13.79,1.4
,-8.88,0.141,-4.539,-9.016,0.531,-4.331,-7.28,13.93,2.38
9919.0,-8.976,0.514,-4.243,-8.928,0.799,-4.372,5.53,15.33,5.95
,-8.99,0.483,-4.384,-8.875,1.24,-4.446,7.49,15.47,6.3
,-8.923,0.309,-4.36,-8.851,1.247,-4.551,9.38,15.96,6.72
,-8.804,0.376,-4.298,-8.818,0.964,-4.59,11.62,16.1,6.93
9994.0,-8.705,0.794,-4.537,-8.957,0.826,-4.233,0.84,13.65,2.94
,-8.689,0.718,-4.525,-8.909,0.826,-4.145,1.05,13.3,2.8
,-8.78,0.632,-4.415,-9.055,1.027,-4.31,1.82,13.44,3.15
,-8.918,0.742,-4.336,-8.823,0.61,-4.369,3.01,13.65,3.43
10070.0,-8.741,0.29,-4.334,-8.619,0.866,-4.334,3.29,15.54,2.45
,-8.787,0.637,-4.389,-8.653,0.957,-4.255,6.65,16.17,2.52
,-8.768,0.979,-4.494,-8.696,0.957,-4.123,7.77,16.38,2.1
,-8.71,0.823,-4.477,-8.837,0.725,-4.087,6.86,16.24,1.61
10146.0,-8.861,0.706,-4.099,-8.796,0.847,-4.891,3.22,17.99,0.56
,-8.863,0.471,-4.133,-8.756,0.876,-5.011,2.1,18.9,0.21
,-8.698,0.488,-4.379,-8.78,0.969,-5.054,1.68,19.11,-0.14
,-8.583,0.639,-4.676,-8.815,1.46,-5.245,0.98,19.39,-0.35
10222.0,-8.571,1.247,-5.075,-8.674,0.548,-4.944,-0.63,19.11,-2.31
,-8.5,0.912,-5.219,-8.737,0.572,-4.822,0.14,18.76,-2.24
,-8.5,0.948,-5.229,-8.83,0.591,-4.659,3.43,18.76,-1.61
,-8.581,0.909,-5.116,-8.966,0.445,-4.489,5.74,19.04,-1.19
10297.0,-8.983,0.591,-4.518,-9.701,-0.275,-5.578,17.64,22.61,1.05
,-9.186,0.926,-4.661,-9.16,-2.836,-4.661,18.27,23.59,0.63
,-9.658,2.355,-4.704,-8.926,0.416,-4.547,19.11,24.29,-0.7
,-10.175,3.125,-5.001,-9.758,1.326,-4.611,12.81,24.64,-3.99
10373.0,-9.232,0.61,-4.721,-8.969,-0.108,-5.016,22.05,30.45,1.89
,-8.837,-1.117,-4.676,-8.681,-0.282,-5.027,15.75,31.92,-0.91
,-8.904,-1.082,-4.774,-8.55,-0.079,-5.066,17.71,33.32,-1.54
,-9.074,-0.093,-4.975,-8.375,-0.024,-5.114,18.13,34.44,-2.45
10449.0,-8.387,0.01,-5.24,-8.306,0.4,-5.501,11.13,38.99,-5.67
,-8.318,0.117,-5.317,-8.275,0.29,-5.485,11.97,39.76,-5.46
,-8.27,0.23,-5.389,-8.289,0.512,-5.494,12.74,40.11,-5.11
,-8.334,0.333,-5.463,-8.33,0.692,-5.439,13.86,40.95,-4.55
10525.0,-8.291,0.474,-5.355,-8.064,-0.115,-5.779,19.25,44.31,-3.78
,-8.241,0.223,-5.327,-8.028,-0.179,-5.733,18.76,45.15,-3.64
,-8.145,0.06,-5.528,-8.088,-0.055,-5.836,19.39,45.99,-3.36
,-8.105,0.029,-5.688,-8.028,-0.084,-5.82,20.3,46.76,-3.08
10600.0,-7.956,-0.182,-5.803,-7.502,-0.364,-6.707,22.61,49.84,0.35
,-7.93,-0.129,-6.176,-7.408,0.067,-6.7,23.87,50.19,0.84
,-7.693,-0.163,-6.494,-7.358,0.136,-6.468,24.08,50.4,1.26
,-7.49,-0.519,-6.65,-7.442,0.251,-6.588,24.92,50.47,2.1
10676.0,-7.152,0.376,-6.516,-6.98,-0.773,-6.339,25.41,48.79,2.87
,-6.93,-0.057,-6.466,-7.107,-0.876,-6.356,21.7,48.51,2.38
,-6.904,-0.503,-6.379,-7.117,-1.156,-6.253,19.6,48.44,2.03
,-6.786,-0.72,-6.226,-7.143,-1.283,-6.267,19.88,48.72,2.8
10752.0,-7.117,-1.153,-5.98,-7.435,-1.098,-5.372,37.59,53.41,11.34
,-7.124,-1.199,-5.81,-7.42,-1.522,-5.494,41.02,54.88,13.37
,-7.203,-1.275,-5.52,-7.389,-1.938,-5.549,44.59,56.56,15.54
,-7.435,-1.053,-5.434,-7.406,-2.0,-5.731,48.16,58.1,17.15
10827.0,-7.483,-1.835,-5.836,-7.655,-0.371,-7.418,63.7,67.83,26.74
,-7.48,-1.448,-6.195,-7.988,-0.28,-7.873,70.7,70.7,27.93
,-7.286,-1.094,-6.363,-7.959,-0.034,-8.39,75.04,74.06,28.28
,-7.511,-0.665,-6.887,-8.083,0.072,-9.064,76.23,77.56,26.81
10903.0,-7.552,0.857,-8.653,-6.308,-0.639,-9.265,62.93,76.79,18.83
,-7.272,0.258,-8.971,-5.851,-1.086,-9.471,52.64,74.13,18.55
,-7.006,0.302,-8.995,-5.638,-1.33,-9.45,43.4,70.77,19.88
,-6.671,0.041,-9.095,-5.477,-1.345,-9.416,31.57,66.71,20.44
10979.0,-5.207,-1.316,-9.474,-5.683,-2.015,-8.933,9.87,36.19,24.43
,-5.114,-1.706,-9.756,-5.808,-1.878,-8.763,6.23,28.0,27.72
,-5.379,-2.302,-9.485,-5.535,-2.027,-8.978,3.22,18.83,28.98
,-5.53,-2.347,-9.21,-5.506,-2.3,-8.928,4.62,8.75,31.22
11055.0,-5.315,-1.965,-8.926,-4.563,-1.204,-8.89,2.17,-47.74,26.67
,-5.166,-1.637,-8.966,-4.678,-1.048,-8.947,4.76,-57.96,25.69
,-4.929,-1.558,-8.961,-4.671,-1.235,-9.112,5.32,-68.53,24.15
,-4.714,-1.199,-9.064,-4.719,-1.551,-8.753,4.97,-77.84,23.03
11130.0,-5.001,-1.467,-8.729,-5.523,-2.18,-7.959,-1.75,-114.73,20.65
,-5.14,-1.347,-8.545,-5.719,-2.015,-7.921,-1.82,-120.75,20.02
,-5.14,-1.498,-8.495,-5.903,-1.79,-7.662,-4.27,-126.07,19.6
,-5.205,-1.857,-8.284,-6.138,-1.419,-7.712,-4.9,-129.57,19.74
11206.0,-6.121,-0.902,-7.882,-6.308,-0.718,-7.688,0.56,-143.22,15.96
,-6.068,-0.44,-8.105,-6.475,-0.596,-7.533,-3.57,-145.53,14.14
,-6.207,-0.407,-8.062,-6.442,-0.613,-7.435,-8.75,-147.84,11.97
,-6.111,-0.581,-8.074,-6.363,-0.644,-7.949,-12.88,-149.66,9.45
11282.0,-6.231,-0.881,-7.897,-6.767,-0.998,-6.997,-24.22,-157.08,-0.28
,-6.65,-1.242,-7.361,-6.734,-0.933,-6.628,-21.0,-157.22,-1.68
,-6.951,-1.072,-7.198,-7.035,-0.979,-6.746,-17.57,-159.04,-4.27
,-6.868,-0.905,-7.186,-7.093,-0.854,-6.186,-15.47,-160.44,-6.23
11358.0,-7.753,-0.816,-5.312,-8.531,-1.132,-3.975,-6.58,-156.8,-11.41
,-7.997,-0.916,-4.781,-8.538,-1.189,-4.03,-5.6,-153.58,-11.62
,-8.22,-1.027,-4.48,-8.533,-1.261,-3.68,-7.21,-150.01,-11.76
,-8.32,-1.048,-4.424,-8.547,-1.34,-3.285,-8.68,-146.16,-11.41
11433.0,-8.655,-1.433,-2.855,-8.787,-0.55,-2.388,-11.62,-118.72,-8.96
,-8.686,-1.12,-2.369,-8.954,-0.05,-2.9,-10.57,-111.86,-8.68
,-8.823,-0.787,-2.434,-8.734,0.012,-2.797,-12.46,-104.93,-9.1
,-8.938,-0.483,-2.749,-8.708,-0.354,-2.268,-15.19,-98.35,-10.15
11509.0,-8.923,-0.981,-1.271,-8.725,-0.742,-0.948,-36.4,-64.75,-15.4
,-8.844,-1.048,-1.141,-8.476,-0.617,-1.486,-36.33,-56.42,-14.35
,-8.861,-1.127,-0.94,-8.641,-0.766,-1.122,-36.19,-48.3,-13.3
,-8.93,-1.017,-0.962,-8.6,-1.165,-0.849,-37.1,-39.9,-13.58
11584.0,-8.772,-1.206,-1.039,-8.811,-0.601,-1.486,-39.62,7.35,-4.27
,-8.725,-0.833,-1.249,-9.557,-1.177,-1.728,-34.72,16.38,-1.47
,-8.612,-0.486,-1.338,-11.967,-3.046,-1.003,-33.53,24.92,1.05
,-8.701,-0.498,-1.517,-15.764,-6.157,1.46,-33.6,33.04,3.43
11660.0,-15.161,-5.532,2.268,-10.0,-2.503,0.814,8.19,3.85,17.57
,-10.177,-0.215,-0.648,-9.988,-4.618,1.618,23.1,-2.1,7.91
,-8.447,2.02,-0.639,-10.507,-4.145,1.565,-0.7,-2.87,-2.94
,-9.086,0.742,0.191,-11.024,-2.831,1.517,-39.13,-0.63,-5.88
11736.0,-10.579,-1.311,1.163,-9.433,-0.677,-2.065,-11.76,41.58,16.8
,-9.33,-0.668,0.33,-9.198,-0.251,-2.369,-16.24,49.84,17.43
,-10.225,-0.96,-0.62,-9.316,-0.213,-2.532,-22.54,58.59,18.76
,-9.832,-0.905,-1.754,-9.32,-0.567,-2.371,-22.12,60.27,15.26
11812.0,-9.213,-0.591,-2.108,-9.215,0.005,-3.594,-3.22,52.99,19.74
,-9.241,-0.172,-2.192,-8.978,-0.481,-3.463,2.66,51.66,20.79
,-9.351,0.146,-2.881,-9.091,-0.845,-3.403,4.9,49.91,20.51
,-9.383,0.309,-3.331,-9.447,-0.976,-3.618,4.2,47.53,19.95
11888.0,-9.55,-0.809,-3.812,-9.306,-0.534,-3.551,-1.47,41.16,16.52
,-9.572,-0.505,-3.927,-9.323,-0.665,-3.477,-5.88,39.62,12.46
,-9.457,-0.325,-3.673,-9.337,-0.28,-3.692,-12.95,37.8,8.75
,-9.366,-0.261,-3.496,-9.404,0.05,-3.96,-19.39,36.26,7.21
11963.0,-9.306,0.189,-4.147,-9.643,0.306,-3.632,-20.02,29.26,5.6
,-9.107,0.057,-4.341,-9.608,0.558,-3.692,-18.06,27.02,7.0
,-9.052,-0.098,-3.888,-9.469,0.78,-3.609,-13.79,25.34,9.52
,-9.27,0.141,-3.747,-9.44,0.644,-3.625,-8.47,23.66,11.62
12039.0,-9.079,-0.112,-3.175,-9.44,-0.067,-2.637,-13.23,16.8,10.57
,-9.198,-0.637,-2.773,-9.466,-0.153,-2.57,-13.72,16.66,10.36
,-9.445,-0.493,-2.804,-9.414,-0.045,-2.589,-10.08,17.01,10.01
,-9.452,-0.124,-2.735,-9.399,0.117,-2.788,-7.91,17.57,10.08
12115.0,-9.38,0.438,-3.108,-9.464,0.718,-3.355,-5.25,20.37,11.76
,-9.239,0.512,-3.345,-9.407,1.153,-3.398,-5.53,20.3,12.39
,-9.227,0.438,-3.376,-9.536,1.476,-3.374,-6.93,19.81,12.88
,-9.356,0.373,-3.302,-9.418,1.651,-3.465,-7.7,19.39,12.46
12191.0,-9.237,0.852,-3.29,-9.445,0.651,-4.147,-26.04,16.31,4.9
,-9.354,0.115,-3.333,-8.894,0.689,-4.274,-24.71,16.73,5.6
,-9.438,0.0,-3.668,-8.971,-0.179,-4.274,-19.18,16.87,5.95
,-9.474,0.172,-3.91,-9.191,-0.522,-4.31,-13.58,16.8,6.09
12266.0,-9.026,-0.751,-3.977,-9.021,1.412,-3.903,-5.39,14.0,7.84
,-9.356,-0.366,-4.07,-9.06,0.916,-3.647,-0.07,14.14,8.54
,-9.313,0.436,-4.135,-9.184,0.543,-3.309,4.62,14.0,8.82
,-9.146,1.151,-4.097,-9.351,0.806,-3.149,5.74,13.86,9.17
12342.0,-9.608,1.23,-3.4,-8.949,0.302,-4.13,-0.14,12.6,5.18
,-9.261,1.371,-3.601,-9.177,0.443,-4.24,-5.11,12.18,3.57
,-9.119,0.878,-3.824,-9.146,0.916,-4.288,-10.15,11.83,2.59
,-9.036,0.424,-3.965,-9.04,1.144,-4.544,-12.11,11.34,1.89
12417.0,-9.012,0.962,-4.52,-9.019,0.615,-3.917,-9.66,8.12,1.19
,-9.014,0.768,-4.537,-9.246,0.443,-3.64,-10.5,7.28,0.91
,-9.043,0.462,-4.29,-9.344,0.651,-3.618,-9.8,6.93,0.63
,-9.086,0.689,-4.13,-9.115,0.809,-3.783,-8.33,6.65,0.49
12493.0,-9.012,0.701,-3.843,-9.079,0.526,-3.819,-8.33,6.65,-0.28
,-9.062,0.526,-3.886,-9.143,0.637,-3.534,-8.19,6.72,-0.14
,-9.098,0.445,-3.953,-9.239,0.79,-3.439,-6.65,7.14,0.14
,-9.048,0.445,-3.9,-9.34,0.919,-3.635,-4.69,7.56,0.7
12569.0,-9.148,0.672,-3.74,-8.851,-0.483,-4.013,-8.05,9.38,-0.7
,-8.949,0.316,-4.044,-9.064,0.101,-3.881,-8.19,9.73,-0.49
,-8.844,-0.304,-4.238,-9.215,0.558,-3.702,-6.16,10.36,0.42
,-8.782,-0.694,-4.176,-9.217,0.727,-3.642,-1.61,10.99,2.1
12645.0,-8.914,0.546,-3.486,-9.095,0.72,-3.616,5.04,13.65,3.71
,-9.019,0.349,-3.475,-9.057,0.742,-3.747,5.6,14.35,4.13
,-9.062,0.359,-3.546,-8.909,0.665,-3.752,7.14,15.12,4.34
,-9.019,0.436,-3.506,-8.947,0.665,-4.013,8.68,16.45,4.83
12720.0,-9.009,0.704,-4.2,-8.847,0.567,-4.53,8.12,19.46,3.15
,-8.854,0.998,-4.365,-8.894,0.546,-4.463,8.12,19.32,2.8
,-9.0,1.137,-4.537,-8.916,0.613,-4.209,7.98,18.97,2.1
,-8.796,1.043,-4.635,-9.031,0.625,-3.941,6.3,18.9,1.68
12796.0,-8.894,0.641,-3.771,-8.77,0.371,-4.408,10.71,20.58,3.08
,-8.942,0.804,-3.85,-8.667,0.16,-4.228,9.87,21.21,2.52
,-8.938,0.847,-3.92,-8.547,0.648,-4.776,7.0,21.56,1.26
,-8.703,0.66,-4.188,-8.634,1.041,-4.85,4.69,22.12,0.63
12872.0,-8.638,1.031,-4.865,-8.753,0.656,-4.937,6.16,23.31,-0.84
,-8.708,0.811,-4.929,-8.892,0.871,-4.858,5.67,23.59,-0.98
,-8.6,0.562,-5.042,-9.275,1.893,-4.463,7.07,23.87,-0.7
,-8.65,0.416,-4.879,-10.06,3.628,-4.733,9.45,23.8,-0.42
12948.0,-9.663,1.464,-4.757,-8.638,0.625,-4.57,-0.14,24.43,-8.89
,-8.655,-1.323,-4.542,-8.878,0.318,-5.415,-0.77,25.06,-7.21
,-8.612,-0.522,-4.685,-9.672,-0.847,-4.805,10.92,26.53,-4.27
,-8.906,0.921,-4.877,-8.83,0.605,-4.903,13.93,27.23,-4.34
13024.0,-9.639,-0.414,-5.118,-9.241,0.098,-4.913,4.48,30.17,-9.66
,-9.213,-0.108,-5.312,-9.162,-0.105,-4.664,7.21,31.01,-8.54
,-9.189,-0.364,-5.15,-9.308,-0.065,-4.427,8.68,31.99,-7.07
,-9.294,-0.495,-5.037,-9.313,-0.062,-4.413,15.05,33.6,-5.18
13099.0,-9.153,-0.567,-4.252,-8.691,-0.639,-4.554,26.53,41.37,-1.82
,-9.057,-0.503,-4.35,-8.641,-0.603,-4.781,28.63,43.4,-1.47
,-8.973,-0.383,-4.415,-8.445,-0.558,-4.901,29.96,45.43,-1.12
,-8.82,-0.5,-4.523,-8.265,-0.299,-5.126,30.03,47.04,-0.91
13175.0,-8.129,-0.165,-5.339,-7.729,-0.313,-6.346,29.96,53.34,0.56
,-7.949,-0.184,-5.578,-7.679,-0.34,-6.612,28.42,53.76,0.63
,-7.76,-0.275,-5.788,-7.533,-0.273,-6.619,27.65,53.9,1.4
,-7.763,-0.337,-6.121,-7.428,-0.235,-6.502,28.28,54.18,2.52
13250.0,-7.358,-0.146,-6.49,-7.128,-0.359,-6.035,31.71,52.64,6.65
,-7.291,-0.285,-6.317,-7.042,-0.57,-5.839,30.87,52.29,6.44
,-7.277,-0.33,-6.202,-7.143,-0.943,-5.645,29.47,52.01,5.95
,-7.26,-0.347,-6.2,-7.27,-1.043,-5.176,28.42,51.59,5.67
13326.0,-7.54,-0.749,-5.882,-7.064,-1.689,-6.269,31.57,55.37,8.47
,-7.212,-0.486,-6.071,-6.994,-1.735,-6.322,31.71,55.93,9.17
,-6.944,-1.036,-6.049,-7.373,-1.764,-6.315,30.24,57.12,10.64
,-6.975,-1.642,-6.171,-7.547,-1.412,-6.332,32.27,58.1,11.9
13402.0,-7.65,-1.553,-6.301,-7.727,-0.392,-6.604,56.91,63.77,21.91
,-7.787,-1.314,-6.224,-7.528,-0.349,-6.437,61.6,64.82,23.31
,-7.712,-1.091,-6.274,-7.684,-0.258,-7.081,65.24,65.59,24.64
,-7.88,-0.79,-6.614,-7.631,-0.014,-7.583,68.39,66.15,25.41
13478.0,-7.696,0.369,-7.865,-6.793,0.01,-8.909,55.65,68.53,19.74
,-7.497,0.66,-8.315,-6.116,-0.682,-9.005,51.66,69.37,19.32
,-7.164,0.572,-8.507,-5.887,-1.333,-9.028,46.55,71.12,19.6
,-6.939,0.321,-8.705,-5.695,-1.91,-9.165,38.22,73.43,19.39
13553.0,-5.638,-2.206,-8.83,-4.922,-1.089,-9.052,2.59,60.62,17.71
,-5.482,-1.799,-8.77,-4.85,-1.254,-8.758,8.89,56.84,19.11
,-5.444,-1.371,-9.028,-4.853,-1.211,-8.66,12.6,51.73,20.79
,-5.078,-1.173,-9.115,-4.932,-1.019,-8.567,12.81,45.78,22.19
13629.0,-4.7,-0.983,-8.892,-4.503,-1.541,-8.861,9.73,9.73,23.45
,-4.606,-1.302,-8.906,-4.396,-1.613,-8.691,8.05,1.61,22.05
,-4.501,-1.383,-8.981,-4.482,-1.414,-8.789,8.33,-7.28,22.33
,-4.372,-1.452,-8.971,-4.441,-1.441,-8.82,9.31,-16.31,23.87
13704.0,-4.556,-1.476,-8.502,-5.197,-1.424,-8.241,2.59,-62.44,22.12
,-4.848,-1.436,-8.308,-5.145,-1.307,-8.447,1.68,-69.86,20.86
,-5.173,-1.476,-8.291,-5.264,-1.4,-8.38,-1.26,-77.14,18.41
,-5.42,-1.45,-8.277,-5.544,-1.429,-8.413,-5.88,-85.4,14.98
13780.0,-5.587,-1.441,-8.452,-5.824,-1.342,-8.342,-7.7,-111.72,5.74
,-5.846,-1.371,-8.471,-5.985,-1.577,-8.126,-6.93,-116.69,4.62
,-5.887,-1.409,-8.447,-6.174,-1.797,-7.985,-7.7,-122.01,2.66
,-5.824,-1.383,-8.358,-6.463,-1.859,-8.083,-8.33,-126.63,1.4
13856.0,-6.411,-1.902,-8.004,-7.358,-1.041,-7.227,-9.73,-142.66,0.28
,-6.552,-1.73,-7.978,-7.583,-1.022,-7.035,-4.2,-144.62,1.47
,-6.772,-1.464,-7.617,-7.703,-0.806,-7.026,1.4,-145.53,2.17
,-7.071,-1.211,-7.365,-7.808,-0.782,-6.923,5.46,-145.95,2.87
13932.0,-7.739,-0.761,-6.808,-8.09,-0.78,-5.774,-3.08,-151.13,2.24
,-7.708,-0.905,-6.432,-8.169,-0.663,-5.53,-4.76,-151.2,0.98
,-7.748,-0.785,-6.458,-8.174,-0.593,-5.346,-4.76,-150.99,-0.42
,-7.889,-0.845,-6.1,-8.299,-0.412,-5.008,-5.6,-150.99,-1.47
14008.0,-8.248,-0.464,-4.755,-9.009,-0.629,-3.391,-12.46,-149.66,-11.9
,-8.562,-0.668,-4.386,-9.028,-0.828,-3.068,-14.21,-147.91,-13.23
,-8.765,-0.713,-4.231,-9.371,-0.9,-2.632,-14.07,-145.67,-13.93
,-9.016,-0.694,-3.817,-9.227,-0.859,-2.216,-14.28,-142.66,-14.91
14083.0,-9.237,-0.725,-2.115,-9.141,-1.522,-1.129,-21.42,-119.21,-21.49
,-9.308,-1.091,-2.101,-9.026,-1.385,-0.936,-23.17,-112.84,-21.07
,-9.289,-1.68,-1.716,-8.906,-1.086,-0.895,-24.15,-105.63,-18.06
,-9.189,-1.862,-1.082,-8.82,-1.206,-1.113,-23.1,-97.65,-14.56
14159.0,-8.722,-1.51,-0.66,-8.638,-0.136,-2.158,-10.01,-52.5,-4.34
,-8.698,-1.388,-0.416,-8.514,-0.201,-1.845,-9.87,-41.3,0.28
,-8.918,-0.732,-0.948,-8.555,-0.641,-1.567,-8.47,-31.85,1.68
,-9.031,-0.244,-1.864,-8.581,-0.648,-1.989,-12.18,-26.18,-0.84
14235.0,-8.37,-0.646,-2.079,-8.33,-0.995,-1.488,-27.93,-7.35,-6.51
,-8.256,-0.857,-1.989,-8.545,-0.761,-1.424,-30.94,-3.57,-6.44
,-8.287,-1.132,-1.74,-8.595,-0.696,-1.307,-32.48,0.42,-5.53
,-8.318,-1.137,-1.637,-8.579,-0.747,-1.192,-31.15,4.41,-4.48
14311.0,-8.693,-0.847,-1.127,-16.561,-5.477,3.216,-32.69,28.98,1.68
,-9.268,-0.83,-1.345,-10.703,-0.974,0.242,-33.18,33.18,2.87
,-11.395,-2.383,-1.103,-8.114,0.615,0.34,-35.14,31.36,4.13
,-16.305,-6.286,2.077,-9.73,-1.804,0.668,-28.63,15.4,8.96
14386.0,-10.933,-4.812,1.115,-9.584,-1.668,-0.467,-44.66,7.49,3.71
,-10.424,-4.429,1.419,-9.251,-2.429,-1.28,-20.86,20.58,8.54
,-10.057,-1.95,0.754,-9.306,-2.429,-1.503,-1.26,32.55,12.81
,-10.0,-0.828,0.022,-9.529,-2.072,-1.438,-0.14,40.25,15.19
14462.0,-9.605,-1.582,-1.826,-10.134,1.287,-1.603,32.55,48.37,19.74
,-9.548,-0.826,-2.06,-9.964,0.962,-1.567,34.93,45.78,21.07
,-9.67,0.297,-1.639,-9.677,0.414,-1.481,35.42,42.35,22.61
,-9.974,1.225,-1.701,-9.61,-0.093,-1.45,29.82,38.85,22.47
14537.0,-9.603,-0.225,-1.598,-9.782,0.019,-2.036,4.76,39.62,23.59
,-9.581,0.122,-1.656,-9.667,-0.608,-2.036,5.46,40.74,23.03
,-9.596,0.45,-1.78,-9.497,-1.182,-2.005,2.87,40.74,21.35
,-9.782,0.455,-1.996,-9.344,-1.402,-1.871,-3.36,39.97,19.11
14613.0,-9.574,-1.251,-1.938,-8.952,-0.797,-2.855,-14.63,42.0,12.95
,-9.708,-1.165,-2.407,-9.024,-0.715,-2.85,-13.65,42.35,11.97
,-9.531,-1.041,-2.575,-9.203,-0.093,-2.654,-12.74,42.28,12.11
,-9.182,-0.897,-2.814,-9.459,0.194,-2.938,-11.69,42.35,12.46
14689.0,-9.617,0.246,-3.364,-9.203,1.192,-4.082,-10.85,38.08,11.27
,-9.598,0.345,-3.747,-9.239,1.137,-3.996,-10.15,36.82,13.02
,-9.567,0.57,-3.843,-9.325,1.096,-4.183,-9.24,34.51,14.07
,-9.368,1.098,-3.855,-9.354,0.931,-4.223,-9.66,32.06,13.65
14765.0,-9.261,0.565,-4.336,-9.253,-1.027,-3.561,-28.56,20.93,5.74
,-9.222,0.086,-4.243,-9.074,-1.094,-3.379,-33.39,19.32,4.27
,-9.332,-0.268,-3.939,-9.306,-0.909,-3.216,-37.66,17.78,2.1
,-9.373,-0.701,-3.757,-9.383,-0.526,-3.161,-40.67,16.73,0.49
14841.0,-9.395,-0.026,-3.063,-9.16,0.924,-3.637,-22.68,17.43,7.07
,-9.5,0.342,-3.089,-9.158,0.024,-3.659,-20.58,17.43,7.0
,-9.727,0.804,-3.329,-8.911,-1.173,-3.369,-21.84,16.94,5.25
,-9.387,1.161,-3.546,-8.988,-1.594,-3.173,-25.06,15.68,4.34
14916.0,-9.34,-0.835,-3.503,-8.89,0.182,-3.867,-8.54,17.01,9.38
,-9.423,0.249,-3.632,-9.261,-0.041,-4.176,-2.59,17.01,9.87
,-9.237,0.828,-3.958,-9.462,0.383,-4.657,-2.24,16.94,10.5
,-9.069,0.66,-4.063,-9.234,0.974,-4.774,-4.27,16.59,10.85
14992.0,-9.04,1.003,-4.819,-9.294,1.06,-4.58,10.85,13.3,12.88
,-9.019,0.957,-4.688,-9.079,0.921,-4.322,11.2,11.9,12.39
,-9.165,0.916,-4.657,-9.256,0.629,-4.137,12.32,10.71,12.18
,-9.311,0.847,-4.47,-9.402,0.749,-4.082,13.09,9.59,11.69
15068.0,-9.194,0.888,-3.833,-9.318,0.601,-3.465,10.08,3.36,8.68
,-9.21,0.759,-3.52,-9.21,0.376,-3.649,9.03,3.01,8.33
,-9.411,0.713,-3.379,-8.993,0.084,-3.573,7.84,2.94,7.63
,-9.375,0.701,-3.331,-9.072,-0.017,-3.532,6.72,2.94,7.0
15144.0,-9.184,0.287,-3.405,-9.17,0.369,-3.362,15.61,5.11,8.26
,-9.253,0.704,-3.408,-9.179,0.555,-3.465,16.45,5.25,8.12
,-9.21,0.763,-3.467,-9.33,0.739,-3.654,15.19,5.6,7.91
,-9.208,0.424,-3.405,-9.05,0.615,-3.69,13.23,5.88,7.7
15219.0,-9.024,0.342,-3.628,-9.107,0.814,-4.116,13.51,7.07,7.91
,-9.225,0.479,-3.637,-9.014,0.905,-4.29,14.35,7.21,7.7
,-9.375,0.581,-3.757,-9.038,0.739,-4.3,14.56,7.14,7.21
,-9.301,0.644,-3.939,-9.021,0.51,-4.042,13.65,7.14,6.86
15295.0,-9.093,0.524,-3.862,-9.244,1.039,-3.723,12.25,5.53,6.09
,-9.292,0.593,-3.606,-9.217,1.149,-4.128,13.23,5.39,5.88
,-9.349,0.835,-3.587,-9.067,0.763,-4.089,12.25,5.32,5.04
,-9.196,0.962,-3.539,-9.086,0.603,-4.113,10.71,5.25,4.13
15370.0,-9.048,0.507,-4.034,-9.115,-0.127,-3.944,9.31,5.32,2.66
,-9.002,0.512,-4.013,-9.115,-0.261,-4.058,10.36,5.32,2.59
,-8.993,0.325,-4.046,-8.952,-0.144,-3.975,10.85,5.39,2.52
,-8.921,-0.069,-3.881,-9.122,0.242,-3.946,11.69,5.81,3.36
15446.0,-9.115,0.651,-3.994,-9.304,1.089,-3.877,27.02,7.91,7.42
,-9.064,0.565,-3.958,-9.081,1.094,-4.001,27.09,8.12,7.77
,-9.009,0.443,-3.786,-8.933,0.426,-4.015,27.3,8.47,8.12
,-9.112,0.577,-3.671,-8.854,0.263,-4.049,28.84,8.75,8.12
15522.0,-9.203,0.529,-4.082,-8.942,0.227,-3.948,31.99,8.82,7.91
,-9.146,0.68,-4.003,-9.007,0.065,-3.939,32.55,8.82,7.77
,-9.107,0.759,-3.927,-8.899,-0.12,-3.929,30.73,9.03,7.35
,-9.119,0.503,-3.987,-8.631,-0.907,-3.798,29.05,9.24,6.93
15598.0,-9.005,-1.469,-3.764,-8.926,0.706,-4.472,43.26,16.59,11.9
,-9.675,-0.514,-3.929,-8.849,0.534,-4.381,50.89,16.8,10.99
,-8.804,1.127,-4.25,-8.949,0.579,-4.326,50.89,15.82,10.71
,-8.801,1.079,-4.42,-9.005,0.849,-4.307,46.34,16.17,10.78
15673.0,-9.072,0.931,-4.317,-8.961,0.735,-4.085,50.68,17.43,11.06
,-8.983,0.873,-4.3,-9.069,0.591,-4.034,49.84,17.71,10.64
,-8.94,0.732,-4.286,-9.033,0.409,-3.975,49.21,17.85,10.08
,-8.957,0.739,-4.209,-8.911,0.424,-3.841,48.51,17.92,9.45
15749.0,-8.993,0.632,-4.097,-9.155,0.057,-5.741,54.39,21.63,9.1
,-9.287,1.041,-4.458,-8.983,-0.098,-6.03,56.63,21.56,8.05
,-9.332,1.137,-5.025,-8.794,-0.151,-6.114,54.32,20.79,7.0
,-9.258,0.598,-5.348,-8.689,-0.282,-6.066,51.17,19.88,6.37
15825.0,-8.658,-0.352,-5.894,-8.425,-0.541,-4.743,53.34,12.39,4.62
,-8.595,-0.55,-5.664,-9.404,0.888,-4.898,52.78,10.92,4.55
,-8.488,-0.665,-5.322,-8.655,0.005,-4.829,53.41,10.08,5.04
,-8.189,-1.632,-4.877,-8.794,-1.084,-4.704,52.92,10.08,6.58
15901.0,-8.978,-0.225,-4.996,-8.114,-0.771,-5.162,83.65,11.27,19.39
,-8.693,-0.235,-5.111,-7.928,-0.424,-5.042,82.04,11.41,20.86
,-8.722,-0.847,-5.047,-8.088,-0.041,-4.929,82.18,11.9,22.68
,-8.495,-0.845,-5.195,-8.224,0.177,-4.838,86.94,11.83,24.43
15977.0,-8.445,0.306,-4.805,-8.241,-0.754,-4.788,96.18,11.83,29.4
,-8.693,0.194,-4.791,-8.32,-0.663,-5.006,94.08,11.83,30.45
,-8.574,-0.146,-4.776,-8.43,-0.531,-5.207,93.1,11.69,32.2
,-8.361,-0.536,-4.661,-8.5,-0.572,-5.346,94.43,11.62,35.0
16052.0,-8.454,-0.529,-5.379,-8.236,-0.486,-5.575,113.89,11.76,48.37
,-8.378,-0.476,-5.441,-8.296,-0.785,-5.688,114.73,11.41,50.47
,-8.349,-0.361,-5.446,-8.361,-0.84,-5.805,115.5,10.71,52.57
,-8.301,-0.33,-5.415,-8.193,-1.027,-5.934,115.71,9.8,54.39
16128.0,-8.083,-0.828,-5.877,-8.035,0.304,-5.614,128.66,6.3,66.64
,-8.282,-0.491,-5.803,-8.143,0.05,-5.568,132.79,5.67,69.37
,-8.241,-0.036,-5.695,-8.294,-0.17,-5.575,134.12,4.69,70.49
,-8.071,0.311,-5.54,-8.318,-0.091,-5.465,131.81,3.43,69.37
16203.0,-8.406,-0.191,-5.217,-8.765,-1.283,-4.695,109.34,-4.2,57.47
,-8.454,-0.637,-5.071,-8.696,-1.082,-4.683,105.21,-5.32,56.63
,-8.533,-1.132,-4.992,-8.603,-0.823,-4.767,104.02,-6.16,56.63
,-8.545,-1.321,-4.937,-8.672,-0.651,-4.86,105.0,-6.51,58.45
16279.0,-8.603,-0.778,-4.381,-8.964,-0.05,-4.35,120.54,-6.72,64.19
,-9.009,-0.383,-4.365,-8.928,-0.558,-4.259,123.69,-6.93,63.84
,-9.033,0.199,-4.508,-8.796,-0.991,-4.312,121.17,-8.61,60.9
,-8.921,0.302,-4.47,-8.78,-1.433,-4.338,113.89,-9.87,57.68
16355.0,-8.835,-1.725,-4.243,-8.454,-2.28,-4.436,108.99,-6.79,57.19
,-8.849,-1.905,-4.25,-8.409,-2.276,-4.35,117.46,-4.41,60.13
,-8.729,-2.056,-4.377,-8.363,-1.969,-4.159,126.77,-2.1,63.63
,-8.547,-2.166,-4.41,-8.473,-1.534,-4.496,136.5,0.49,67.55
16431.0,-8.315,-1.35,-4.549,-8.569,-0.912,-4.29,180.95,10.64,83.86
,-8.227,-1.283,-4.561,-8.344,-0.67,-4.073,182.91,11.9,85.47
,-8.361,-1.106,-4.592,-8.562,-0.29,-4.365,184.45,12.95,86.17
,-8.526,-1.101,-4.451,-8.713,0.005,-4.293,184.87,13.86,86.66
16506.0,-8.902,0.16,-4.403,-9.179,0.005,-4.75,172.34,18.55,80.22
,-9.033,0.287,-4.623,-9.103,-0.089,-4.695,165.55,18.27,77.56
,-9.11,0.364,-4.642,-9.052,-0.103,-4.496,157.64,17.64,74.83
,-9.162,0.179,-4.762,-8.861,-0.026,-4.247,149.1,16.52,72.59
16582.0,-8.94,0.012,-4.183,-8.959,-0.079,-3.69,122.29,10.99,63.63
,-9.148,0.089,-4.14,-8.914,-0.086,-3.601,118.72,10.36,61.39
,-9.206,0.172,-3.944,-9.105,0.026,-3.692,114.73,9.66,58.8
,-9.105,0.091,-3.807,-9.251,0.101,-3.865,109.9,9.24,56.14
16658.0,-9.45,0.16,-4.085,-9.136,0.177,-3.74,93.17,6.37,48.23
,-9.485,0.057,-4.104,-9.117,0.268,-3.68,90.23,4.62,47.18
,-9.476,-0.17,-3.936,-9.265,0.203,-3.592,87.99,3.08,46.06
,-9.22,-0.053,-3.788,-9.273,0.235,-3.616,87.15,1.82,45.08
16734.0,-9.296,0.156,-3.585,-9.435,-0.081,-3.606,79.1,-2.1,39.83
,-9.261,0.079,-3.434,-9.375,-0.055,-3.659,77.56,-2.17,38.71
,-9.335,-0.242,-3.436,-9.311,-0.091,-3.611,76.65,-1.82,38.22
,-9.411,-0.27,-3.436,-9.251,-0.05,-3.513,77.07,-1.47,38.57
16810.0,-9.182,0.146,-3.479,-8.966,0.988,-2.881,76.16,-4.62,39.48
,-9.198,0.536,-3.436,-8.748,1.048,-2.898,75.39,-5.88,39.2
,-9.277,0.885,-3.362,-8.856,0.885,-3.142,72.52,-7.14,38.22
,-9.198,0.955,-3.151,-8.983,0.89,-3.498,67.55,-8.05,37.1
16885.0,-9.112,0.873,-3.884,-8.897,0.519,-4.245,46.55,-2.03,32.2
,-9.019,0.637,-3.912,-8.775,0.522,-4.389,42.7,-0.84,30.73
,-8.808,0.392,-3.944,-8.72,0.287,-4.475,38.85,-0.14,29.12
,-8.873,0.309,-4.022,-8.646,0.017,-4.393,37.1,0.63,27.72
16961.0,-8.61,-0.191,-4.092,-9.366,-0.895,-3.704,21.21,-2.8,18.2
,-8.605,-0.402,-3.877,-9.878,-1.125,-3.159,19.11,-3.22,15.82
,-8.696,-0.584,-3.544,-10.514,-0.529,-3.372,17.36,-3.15,13.44
,-8.935,-0.668,-3.831,-10.809,0.077,-3.697,16.1,-2.87,11.48
17036.0,-10.395,0.512,-3.63,-8.916,0.043,-4.034,14.56,0.35,10.57
,-9.883,0.57,-3.625,-8.866,0.282,-4.252,13.02,0.84,10.57
,-9.545,0.759,-3.903,-8.808,0.402,-4.401,10.92,1.12,9.66
,-9.167,0.397,-4.08,-8.799,0.526,-4.446,6.58,0.98,8.82
17112.0,-8.705,0.471,-4.477,-9.148,-0.627,-3.398,-3.57,-2.24,3.22
,-8.705,0.436,-4.336,-9.541,0.292,-3.577,-6.93,-3.29,2.73
,-8.82,0.043,-4.3,-9.411,0.565,-3.214,-10.64,-4.13,2.66
,-8.957,-1.007,-3.819,-9.261,0.543,-2.953,-12.39,-4.2,4.55
17188.0,-9.206,0.648,-2.804,-9.203,0.11,-2.359,-10.43,-1.4,7.49
,-9.306,0.55,-2.694,-9.153,-0.048,-2.13,-14.14,-0.49,6.58
,-9.244,0.328,-2.548,-9.342,0.242,-2.067,-16.73,0.49,6.23
,-9.182,0.419,-2.486,-9.584,0.785,-2.343,-16.87,1.96,6.44
17264.0,-9.514,0.962,-2.812,-9.024,0.809,-5.047,2.94,12.32,10.57
,-9.21,0.893,-3.161,-8.875,0.811,-5.391,5.25,13.37,11.41
,-9.227,0.641,-3.738,-8.794,0.715,-5.427,9.24,13.79,11.9
,-9.213,0.701,-4.508,-8.871,0.854,-5.262,14.49,13.79,11.76
17339.0,-9.048,1.017,-5.083,-9.1,1.405,-4.137,16.73,6.72,9.1
,-9.079,1.11,-4.714,-9.165,1.486,-4.137,15.82,5.74,8.96
,-9.091,1.192,-4.542,-9.129,1.184,-4.089,15.89,4.83,8.89
,-9.201,1.273,-4.434,-9.088,0.751,-3.994,17.08,4.13,8.82
17415.0,-9.036,0.505,-4.066,-9.086,0.701,-4.286,12.46,2.1,5.25
,-9.036,0.38,-4.19,-9.131,0.756,-4.305,14.21,2.17,5.11
,-9.033,0.268,-4.214,-9.067,0.775,-4.36,15.68,2.1,5.25
,-9.028,0.464,-4.329,-9.019,0.706,-4.314,17.22,1.89,5.53
17491.0,-9.048,0.51,-4.424,-9.033,0.462,-3.929,19.04,-0.21,4.83
,-8.923,0.395,-4.298,-9.093,0.574,-3.814,20.72,-0.63,5.04
,-8.959,0.455,-4.235,-9.134,0.751,-3.74,22.82,-0.7,5.25
,-9.033,0.479,-4.073,-9.103,0.735,-3.807,23.59,-0.77,5.53
17567.0,-9.155,0.687,-3.762,-9.031,0.038,-3.635,24.5,0.42,5.04
,-9.158,0.909,-3.838,-9.251,0.261,-3.692,24.08,0.42,4.34
,-9.172,0.895,-3.884,-9.277,0.648,-3.898,21.91,0.35,3.36
,-8.985,0.309,-3.714,-9.095,0.809,-4.147,19.95,0.77,3.5
17642.0,-8.988,0.562,-4.185,-9.115,0.452,-3.874,25.9,2.1,3.5
,-8.904,0.16,-4.164,-9.1,0.378,-3.735,26.04,2.03,3.5
,-9.033,0.201,-4.212,-9.052,0.287,-3.585,28.91,2.03,3.43
,-9.165,0.445,-4.07,-9.074,0.325,-3.453,31.01,2.17,3.22
17718.0,-9.155,0.426,-3.345,-9.296,0.373,-3.187,31.71,4.76,1.61
,-9.177,0.445,-3.178,-9.244,0.73,-3.419,30.94,5.6,0.91
,-9.174,0.419,-3.125,-9.258,1.055,-3.668,29.82,6.72,0.35
,-9.203,0.28,-3.015,-9.203,1.201,-3.879,29.54,8.05,0.28
17794.0,-9.194,1.328,-4.118,-9.031,0.199,-4.91,33.04,11.2,-1.68
,-9.162,1.275,-4.245,-9.086,0.048,-5.162,32.83,11.06,-2.17
,-9.17,1.146,-4.482,-9.033,0.098,-5.319,32.76,10.71,-2.45
,-9.076,0.687,-4.685,-8.897,0.022,-5.312,32.62,10.01,-2.38
17869.0,-8.899,-0.103,-5.178,-9.361,0.182,-4.173,38.01,3.99,-1.75
,-8.961,-0.108,-5.011,-9.256,0.22,-3.886,38.29,3.08,-1.82
,-9.028,-0.069,-4.781,-9.265,0.311,-3.668,38.22,2.03,-1.82
,-9.239,0.002,-4.525,-9.34,0.23,-3.362,37.31,1.54,-2.03
17945.0,-9.43,0.278,-3.147,-9.052,-0.708,-3.056,22.12,1.61,-4.34
,-9.275,0.175,-2.931,-9.124,-1.297,-3.216,17.43,2.1,-5.04
,-9.103,0.045,-2.723,-9.107,-1.555,-3.467,12.46,3.08,-6.09
,-8.921,-0.139,-2.881,-9.074,-1.665,-3.924,7.91,4.34,-6.72
18021.0,-8.768,-1.864,-3.398,-9.361,-1.204,-3.805,12.18,10.78,-1.82
,-9.009,-0.876,-3.709,-9.39,-0.948,-3.8,19.88,11.55,3.08
,-9.103,-0.51,-3.671,-9.043,-0.359,-3.912,23.59,12.25,6.09
,-9.182,-0.811,-3.647,-9.048,-0.086,-3.819,26.81,13.51,9.38
18097.0,-9.117,-0.124,-3.881,-8.665,-1.484,-4.776,44.17,13.65,23.24
,-9.014,-0.16,-4.015,-8.631,-1.24,-4.893,45.29,13.16,25.41
,-8.696,-0.194,-4.068,-8.689,-0.692,-5.035,46.2,12.95,27.79
,-8.626,-0.835,-4.422,-8.71,-0.191,-5.303,48.44,13.44,30.87
18172.0,-8.591,0.024,-5.607,-8.526,0.246,-5.03,68.46,6.79,36.68
,-8.557,-0.249,-5.351,-8.583,0.392,-4.874,62.72,4.41,35.07
,-8.512,-0.349,-5.221,-8.655,0.258,-4.795,57.82,2.1,33.18
,-8.6,-0.124,-5.075,-8.672,0.225,-4.685,53.34,-0.28,29.96
18248.0,-8.667,0.194,-4.671,-8.746,-0.452,-4.369,18.9,-10.08,12.46
,-8.619,-0.096,-4.434,-8.454,-0.976,-4.432,13.72,-10.5,10.08
,-8.65,-0.366,-4.207,-8.457,-1.713,-4.312,10.99,-10.5,8.4
,-8.684,-0.373,-4.173,-8.428,-1.723,-4.216,9.52,-10.43,6.79
18324.0,-8.133,-0.991,-4.293,-8.279,-0.268,-4.937,10.71,-6.37,3.15
,-8.22,-0.361,-4.152,-8.363,-1.139,-4.915,9.24,-3.15,4.2
,-8.83,-0.239,-4.554,-8.579,-1.807,-4.707,6.09,-0.98,3.92
,-8.66,-0.148,-4.846,-8.641,-1.653,-4.484,3.01,0.21,2.59
18400.0,-8.684,-1.043,-4.293,-9.275,0.447,-4.544,13.3,4.69,4.69
,-8.83,-0.385,-4.377,-9.232,-0.026,-4.113,16.59,3.92,5.88
,-9.081,0.165,-4.75,-9.239,-0.471,-3.977,16.59,2.45,5.53
,-9.258,0.524,-4.793,-9.172,-0.665,-4.013,13.3,0.28,5.04
18475.0,-9.229,-0.68,-4.02,-9.189,-0.311,-3.972,5.81,1.12,6.37
,-9.165,-0.589,-3.999,-9.237,-0.206,-4.034,7.84,1.96,7.28
,-9.186,-0.491,-3.91,-9.261,-0.057,-4.329,8.47,2.03,7.63
,-9.177,-0.404,-3.8,-9.186,-0.163,-4.515,7.21,2.17,7.56
18551.0,-9.028,-0.354,-4.484,-8.375,-1.402,-4.707,-13.16,-1.61,2.73
,-8.835,-0.51,-4.769,-8.591,-1.07,-4.63,-16.52,-1.89,1.96
,-8.519,-1.003,-4.86,-8.799,-0.675,-4.429,-18.27,-1.54,2.03
,-8.308,-1.371,-4.685,-9.021,0.05,-4.106,-15.82,-0.91,3.36
18626.0,-9.198,0.668,-4.013,-9.167,0.419,-3.86,-1.61,-0.91,7.56
,-9.296,0.849,-3.987,-8.938,-0.426,-3.865,-8.05,-1.4,5.81
,-9.416,0.675,-3.927,-8.6,-1.359,-3.568,-14.7,-1.75,4.62
,-9.404,0.57,-3.989,-8.739,-1.273,-3.458,-20.93,-2.31,3.71
18702.0,-9.296,-0.522,-3.664,-8.94,-0.122,-4.018,-16.17,0.98,5.25
,-9.397,0.187,-3.731,-8.964,0.093,-4.252,-15.33,1.82,5.11
,-9.227,0.132,-3.872,-8.952,0.081,-4.472,-17.99,2.38,5.53
,-9.124,-0.122,-3.951,-8.763,0.311,-4.628,-18.2,3.01,6.3
18778.0,-8.959,0.565,-4.829,-8.634,-0.256,-4.551,-1.82,3.78,10.29
,-9.019,0.653,-4.944,-9.117,0.144,-4.501,-1.68,3.01,9.8
,-8.894,0.634,-5.001,-9.16,0.55,-4.415,-2.87,1.89,8.89
,-8.593,0.089,-4.872,-8.983,0.663,-4.109,-5.6,0.84,7.98
18854.0,-9.026,0.732,-3.958,-9.239,0.73,-3.963,-2.66,0.91,8.75
,-9.043,0.567,-3.85,-9.105,1.137,-4.243,-2.03,1.47,9.45
,-8.926,0.306,-3.752,-8.899,1.244,-4.25,-0.63,1.89,10.43
,-9.072,0.311,-3.766,-9.043,1.153,-4.288,3.15,2.66,11.48
18930.0,-8.995,1.096,-4.147,-9.028,1.199,-3.652,-1.75,2.66,7.7
,-9.072,0.962,-3.896,-9.014,0.986,-3.68,-2.1,2.94,7.49
,-9.292,1.134,-3.881,-9.076,0.756,-3.606,-0.63,3.15,7.0
,-9.222,1.316,-3.807,-9.32,0.567,-3.695,-0.14,3.64,6.93
19005.0,-8.969,0.725,-3.709,-9.273,1.17,-3.987,-2.52,5.95,2.94
,-8.789,0.67,-3.719,-8.911,1.476,-4.092,-2.8,6.58,3.15
,-9.019,0.651,-3.8,-8.806,1.35,-4.197,-2.38,6.93,2.45
,-8.794,1.029,-3.8,-8.765,0.704,-4.307,-3.57,7.14,1.96
19081.0,-8.646,0.117,-4.267,-9.021,0.026,-4.649,-13.72,6.09,1.33
,-8.83,-0.038,-4.159,-8.902,0.459,-4.879,-10.22,6.86,2.45
,-9.026,0.045,-4.338,-8.727,0.656,-4.965,-6.79,7.63,3.01
,-8.849,-0.081,-4.369,-8.784,0.713,-5.004,-5.46,8.26,3.36
19157.0,-8.751,0.871,-4.81,-8.842,0.491,-3.953,-1.68,8.26,4.06
,-8.741,0.732,-4.566,-8.806,0.452,-3.922,-1.4,8.19,4.48
,-8.882,0.737,-4.307,-8.808,0.548,-3.869,0.0,8.4,4.76
,-8.894,0.754,-4.204,-9.201,0.739,-4.022,0.77,8.61,4.9
19233.0,-8.849,1.292,-4.255,-8.957,1.113,-4.161,3.08,11.48,4.62
,-8.557,0.759,-4.355,-8.94,1.043,-4.08,-0.42,11.76,4.55
,-8.658,0.44,-4.264,-8.966,0.821,-4.054,0.63,12.18,5.25
,-8.751,0.876,-4.269,-8.88,0.481,-4.149,3.43,12.67,5.67
19308.0,-8.897,0.335,-4.25,-8.559,0.397,-4.625,4.34,16.31,6.23
,-8.861,0.151,-4.264,-8.681,0.462,-4.757,6.65,17.5,7.21
,-8.863,0.325,-4.317,-8.952,1.106,-5.051,10.01,18.48,7.98
,-8.83,0.613,-4.544,-8.49,1.749,-5.051,11.48,19.32,8.26
19384.0,-8.368,1.634,-5.018,-8.703,1.259,-4.893,7.56,19.11,5.6
,-8.382,1.4,-4.805,-8.708,0.926,-4.882,5.25,18.41,4.76
,-8.533,1.328,-4.834,-8.748,0.462,-5.138,4.69,18.27,4.2
,-8.588,1.232,-4.738,-8.672,0.359,-5.37,4.48,18.34,3.92
19459.0,-8.562,0.225,-5.363,-8.83,0.651,-5.212,6.23,18.69,3.43
,-8.54,0.246,-5.573,-8.904,1.452,-5.678,10.08,18.83,4.06
,-8.536,0.261,-5.611,-8.519,0.45,-5.152,13.09,19.11,4.83
,-8.576,0.148,-5.444,-8.871,1.522,-5.071,16.38,19.53,5.67
19535.0,-8.796,1.046,-4.92,-8.887,0.658,-5.097,11.9,19.32,2.59
,-8.871,0.816,-4.743,-8.792,0.395,-5.178,13.23,20.09,2.45
,-8.914,1.187,-4.831,-8.691,0.165,-5.193,14.7,20.72,2.52
,-8.99,1.055,-4.92,-8.744,0.141,-5.159,14.49,21.63,2.59
19611.0,-9.007,0.73,-5.071,-8.82,0.108,-5.054,26.39,27.09,4.48
,-9.265,1.462,-5.023,-8.72,0.431,-4.989,27.23,28.21,3.5
,-9.502,1.402,-5.106,-8.648,0.794,-5.078,24.08,29.26,1.54
,-9.375,0.407,-5.068,-8.459,0.914,-5.195,20.51,29.68,0.0
19687.0,-8.382,1.134,-5.269,-8.581,1.17,-5.291,18.27,33.04,-1.82
,-8.533,1.546,-5.276,-8.43,0.972,-5.315,15.47,33.46,-3.29
,-8.76,1.395,-5.2,-8.284,0.775,-5.446,11.83,33.81,-5.6
,-8.684,1.474,-5.238,-8.21,0.457,-5.633,8.54,33.88,-7.49
19763.0,-8.052,0.175,-5.721,-7.954,0.096,-5.623,5.88,37.03,-6.72
,-8.1,-0.053,-5.585,-7.928,0.213,-5.803,8.26,38.29,-5.81
,-8.088,0.057,-5.674,-7.729,0.153,-5.855,11.41,39.27,-5.04
,-8.011,0.084,-5.638,-7.621,-0.294,-5.867,13.86,40.18,-4.69
19838.0,-7.612,-0.335,-5.808,-7.583,-0.297,-5.504,18.62,44.66,-2.8
,-7.657,0.089,-5.743,-7.708,-0.416,-5.583,21.21,45.43,-2.17
,-7.688,0.342,-5.808,-7.597,-0.378,-5.607,21.21,46.27,-2.17
,-7.609,0.239,-5.769,-7.569,-0.708,-5.341,19.11,47.18,-2.24
19914.0,-7.617,-1.007,-5.066,-8.471,-1.347,-4.704,29.33,56.14,5.39
,-7.791,-1.048,-4.834,-8.43,-1.376,-5.217,33.67,58.8,8.33
,-7.952,-1.015,-4.69,-8.107,-1.646,-5.441,37.73,61.04,10.99
,-8.126,-1.242,-4.386,-8.263,-2.453,-5.449,40.88,63.98,14.07
19990.0,-8.387,-2.649,-5.473,-7.803,-0.823,-6.119,60.76,75.88,30.31
,-8.093,-2.721,-5.508,-7.789,-0.306,-6.499,71.89,78.26,32.48
,-8.023,-2.17,-5.631,-7.87,0.124,-7.066,83.65,80.5,34.16
,-7.82,-1.548,-5.896,-7.887,0.512,-7.583,91.91,82.81,36.19
20066.0,-7.992,0.876,-8.122,-7.471,1.591,-9.95,83.02,89.6,29.19
,-7.949,1.254,-8.378,-6.772,1.551,-10.079,76.72,88.2,26.74
,-7.968,1.493,-9.067,-6.238,1.297,-10.211,67.13,84.91,23.59
,-7.904,1.393,-9.584,-5.547,0.629,-9.77,56.56,80.01,19.53
20141.0,-5.463,-0.05,-9.56,-5.406,-0.866,-8.83,-7.35,46.27,6.86
,-5.398,-0.589,-9.028,-5.384,-0.38,-8.775,-11.06,38.22,5.88
,-5.552,-1.012,-9.107,-5.37,-0.043,-8.502,-10.78,28.77,5.67
,-5.41,-1.165,-8.997,-5.463,-0.321,-8.973,-7.0,19.39,6.86
20217.0,-5.367,-0.823,-8.689,-5.138,-1.316,-8.825,-7.07,-36.05,4.97
,-5.377,-1.113,-8.375,-5.106,-1.232,-8.665,-7.84,-46.34,2.38
,-5.147,-1.084,-8.54,-5.217,-1.029,-8.631,-6.86,-56.42,0.14
,-5.207,-1.292,-8.581,-5.365,-0.926,-8.564,-6.16,-66.15,-2.24
20292.0,-5.602,-0.83,-8.425,-5.255,-1.211,-8.289,-10.29,-102.76,-3.08
,-5.815,-0.852,-8.368,-5.513,-1.29,-8.275,-15.19,-110.04,-4.62
,-5.748,-1.017,-8.38,-5.829,-1.256,-8.227,-22.82,-116.69,-6.79
,-5.389,-0.986,-8.306,-6.133,-1.022,-8.212,-25.41,-120.82,-6.72
20368.0,-6.19,-0.773,-8.263,-6.511,-0.462,-7.885,-14.21,-136.22,-4.34
,-6.128,-0.756,-8.337,-6.621,-0.268,-7.901,-15.61,-139.44,-4.76
,-6.092,-0.895,-8.074,-6.758,-0.34,-7.696,-15.4,-141.4,-4.48
,-6.26,-0.617,-8.026,-6.71,-0.366,-7.669,-13.79,-143.71,-4.55
20444.0,-6.796,-0.634,-7.882,-7.172,-1.163,-6.805,-25.06,-156.45,-6.79
,-6.71,-0.897,-7.392,-7.341,-1.175,-6.571,-22.19,-157.22,-6.79
,-7.071,-0.955,-7.081,-7.325,-1.256,-6.439,-18.13,-158.13,-6.65
,-7.093,-1.034,-6.994,-7.466,-1.084,-6.171,-16.1,-159.25,-6.44
20520.0,-7.459,-0.854,-5.989,-8.536,-0.431,-5.159,-7.84,-163.31,-7.14
,-7.59,-0.66,-5.86,-8.344,-0.486,-4.748,-6.58,-162.75,-7.49
,-8.004,-0.536,-5.698,-8.363,-0.656,-4.08,-5.88,-161.77,-7.84
,-8.131,-0.438,-5.422,-8.569,-0.771,-3.757,-5.25,-160.58,-7.84
20595.0,-8.466,-0.912,-3.252,-8.882,-0.646,-1.515,-11.97,-147.14,-10.64
,-8.789,-0.833,-2.417,-8.942,-0.622,-1.352,-11.41,-141.54,-10.57
,-9.189,-0.737,-2.223,-8.878,-0.648,-1.34,-13.51,-135.1,-10.85
,-8.93,-0.677,-2.053,-8.854,-0.546,-1.814,-15.75,-128.31,-12.88
20671.0,-8.411,-0.598,-0.56,-8.804,-1.058,0.273,-31.99,-81.97,-17.78
,-8.751,-0.885,-0.414,-8.574,-0.885,-0.01,-34.44,-69.58,-16.52
,-8.655,-0.744,-0.474,-8.538,-1.094,0.153,-33.53,-57.19,-16.1
,-8.76,-0.972,0.172,-8.583,-1.192,-0.105,-32.97,-44.66,-14.63
20747.0,-8.629,-1.108,-0.51,-9.77,-1.175,-1.464,-30.1,16.31,-3.01
,-8.705,-1.091,-0.823,-11.967,-3.183,-0.948,-29.19,26.6,0.42
,-8.815,-1.041,-0.871,-14.518,-4.633,0.735,-29.33,35.84,2.52
,-9.268,-0.543,-1.34,-13.695,-2.716,1.019,-31.57,44.38,4.83
20823.0,-10.68,0.414,0.223,-9.608,-1.701,0.428,-5.39,31.22,7.49
,-10.019,0.629,0.249,-9.562,-1.261,-0.328,-22.96,32.34,3.29
,-10.347,-0.864,0.359,-10.936,-1.295,-1.357,-38.92,37.31,4.9
,-10.108,-1.998,0.656,-9.052,-1.464,-2.35,-39.76,45.15,7.63
20899.0,-9.005,-0.715,-2.931,-9.074,-0.294,-2.989,-11.2,65.03,17.99
,-8.495,0.335,-3.063,-9.318,-1.007,-3.187,-6.58,58.8,16.1
,-8.552,0.553,-2.986,-9.421,-1.323,-3.137,-8.19,53.41,14.63
,-8.801,0.172,-2.946,-9.509,-0.876,-2.233,-10.43,50.68,14.42
20974.0,-9.624,-0.096,-2.312,-9.198,-0.036,-3.218,15.12,53.13,24.78
,-9.715,-0.225,-2.943,-9.179,0.436,-3.3,13.79,53.62,24.15
,-9.383,-0.39,-2.915,-9.316,0.651,-3.333,12.04,52.78,23.73
,-9.237,-0.342,-3.171,-9.32,0.538,-3.463,11.76,51.31,23.17
21050.0,-9.253,0.395,-3.36,-9.325,0.333,-3.513,-14.0,43.4,10.71
,-9.191,0.407,-3.431,-9.296,0.175,-3.496,-19.32,41.93,9.31
,-9.308,0.268,-3.436,-9.543,0.0,-3.819,-23.24,40.53,8.33
,-9.34,0.266,-3.549,-9.139,0.057,-3.826,-24.92,39.27,8.05
21125.0,-9.055,0.175,-4.032,-9.131,1.196,-4.774,-12.88,33.32,11.76
,-9.368,0.33,-4.274,-8.997,0.658,-4.74,-9.17,32.06,12.18
,-9.519,0.696,-4.391,-9.136,-0.163,-4.53,-10.22,29.75,10.57
,-9.536,1.048,-4.614,-8.99,-0.653,-4.003,-17.15,26.53,6.65
21201.0,-9.155,-1.024,-3.86,-9.502,0.019,-3.087,-36.26,18.69,0.7
,-9.45,-1.027,-3.759,-9.399,1.027,-3.154,-30.52,18.83,1.68
,-9.052,-0.756,-3.357,-9.28,1.563,-3.448,-24.71,19.25,4.13
,-9.036,-0.483,-3.123,-9.27,1.438,-3.731,-18.27,20.23,6.3
21277.0,-9.237,1.053,-4.118,-9.036,-0.048,-4.63,-15.89,19.95,7.07
,-9.158,0.486,-4.276,-9.115,0.022,-4.944,-14.91,19.53,7.56
,-9.002,0.12,-4.508,-9.081,0.201,-4.91,-10.71,19.32,8.82
,-9.002,0.034,-4.712,-8.988,0.256,-4.7,-5.32,18.69,10.01
21353.0,-9.028,0.481,-4.29,-9.028,0.943,-3.723,7.91,16.73,12.88
,-9.256,1.091,-4.111,-9.184,0.311,-3.8,9.24,15.96,12.25
,-9.368,1.802,-3.68,-9.485,0.409,-3.987,7.98,15.05,10.78
,-9.04,1.73,-3.862,-9.067,1.295,-4.152,2.38,14.7,9.1
21428.0,-9.079,1.364,-4.204,-9.167,0.663,-4.602,-0.91,12.18,4.9
,-8.978,0.938,-4.238,-9.112,0.849,-4.678,-4.62,11.48,4.48
,-8.973,0.57,-4.424,-8.954,0.704,-4.671,-4.9,10.92,3.92
,-9.038,0.529,-4.453,-8.926,0.345,-4.439,-3.43,10.5,3.64
21504.0,-9.146,0.203,-4.221,-9.091,0.354,-3.905,-1.4,8.61,4.13
,-9.217,0.407,-4.133,-9.019,0.684,-3.781,1.26,8.61,4.9
,-9.074,0.677,-4.178,-9.014,1.173,-3.534,3.08,8.96,5.25
,-8.839,0.658,-4.022,-9.124,1.62,-3.63,3.08,9.45,5.74
21580.0,-9.072,1.5,-3.556,-8.981,0.254,-3.944,-10.78,8.19,-0.63
,-9.124,0.981,-3.666,-8.878,0.627,-3.936,-13.79,8.33,-1.4
,-8.985,0.713,-3.714,-8.947,0.543,-3.867,-14.7,8.61,-1.96
,-8.882,0.235,-3.877,-8.899,0.471,-3.85,-13.79,8.82,-1.47
21656.0,-8.835,0.33,-3.764,-8.861,0.428,-4.209,-10.08,11.13,0.14
,-8.882,0.292,-3.757,-8.756,0.024,-4.07,-8.82,11.76,0.7
,-9.028,0.495,-3.972,-8.875,0.055,-3.939,-6.79,12.39,1.12
,-8.866,0.672,-4.07,-9.067,0.438,-3.848,-5.81,12.81,1.68
21731.0,-9.141,0.677,-3.757,-8.701,0.244,-3.908,3.5,16.45,4.55
,-9.048,1.015,-3.757,-8.823,-0.153,-3.8,0.91,17.01,3.22
,-8.746,0.998,-3.867,-8.949,0.273,-3.711,-2.45,17.36,2.66
,-8.686,0.634,-3.96,-9.15,0.665,-3.714,-4.76,18.13,2.66
21807.0,-9.162,0.806,-3.905,-8.83,0.141,-4.463,2.45,24.29,5.32
,-8.928,0.498,-4.147,-8.892,0.067,-4.374,0.91,25.48,4.41
,-8.722,0.06,-4.432,-9.15,-0.285,-4.123,1.26,26.53,4.62
,-8.696,0.141,-4.704,-9.129,0.888,-4.207,6.3,27.51,5.74
21883.0,-9.191,1.357,-4.525,-8.868,1.4,-5.492,22.26,33.39,7.42
,-8.863,1.737,-4.774,-8.825,-0.191,-4.956,14.91,32.97,5.39
,-8.691,1.034,-4.886,-9.167,1.728,-5.095,9.1,32.83,4.2
,-8.897,0.854,-4.685,-9.072,1.106,-5.394,8.96,33.53,3.64
21958.0,-8.985,0.395,-5.571,-8.859,0.732,-5.666,3.92,33.88,0.98
,-8.653,0.488,-5.736,-9.294,1.9,-5.504,7.42,34.16,1.89
,-8.835,0.505,-5.891,-9.696,2.228,-5.523,11.48,34.51,2.73
,-8.708,0.591,-5.834,-9.481,0.514,-5.276,14.49,34.72,3.15
22034.0,-8.99,-0.517,-4.965,-8.186,-0.036,-5.315,13.79,36.54,-0.91
,-8.775,0.325,-5.083,-8.191,0.292,-5.339,19.39,37.8,0.14
,-8.71,0.72,-5.224,-8.193,0.632,-5.386,19.25,38.85,-0.35
,-8.406,0.086,-5.238,-8.133,0.869,-5.408,16.03,39.48,-1.54
22110.0,-8.131,1.086,-5.535,-8.074,0.397,-5.709,17.08,42.63,-4.69
,-8.126,1.125,-5.7,-8.162,0.514,-5.714,15.33,42.98,-5.53
,-8.045,0.782,-5.712,-8.102,0.438,-5.688,13.51,43.26,-5.67
,-8.002,0.397,-5.674,-8.141,0.266,-5.863,14.49,43.96,-4.9
22186.0,-8.038,0.034,-5.999,-7.966,0.074,-5.956,25.83,48.16,-1.19
,-7.822,-0.256,-5.98,-7.889,0.266,-6.023,27.51,48.65,-0.56
,-7.794,-0.376,-5.887,-7.775,-0.05,-5.961,29.96,49.35,0.35
,-7.81,-0.211,-5.769,-7.77,-0.385,-5.808,32.2,49.98,1.47
22261.0,-7.834,-0.357,-5.587,-8.349,-1.041,-4.326,33.6,53.76,4.41
,-7.937,-0.306,-5.36,-8.409,-1.283,-4.14,34.93,55.3,5.95
,-8.1,-0.469,-5.006,-8.449,-1.613,-3.781,35.42,57.26,7.84
,-8.222,-0.806,-4.676,-8.693,-1.546,-3.9,37.24,59.71,10.64
22337.0,-8.54,-1.369,-4.757,-7.298,-3.273,-6.03,66.99,77.42,28.98
,-7.897,-1.539,-5.188,-7.128,-2.635,-6.427,69.23,79.1,31.22
,-7.507,-2.34,-5.408,-7.315,-1.606,-7.064,72.52,80.71,34.93
,-7.538,-3.19,-5.595,-7.416,-0.577,-7.38,77.63,82.04,38.29
22412.0,-7.655,0.45,-7.897,-8.002,0.73,-8.509,112.49,92.26,39.69
,-7.98,1.015,-8.361,-7.617,0.672,-8.957,104.44,94.43,36.75
,-8.071,0.967,-8.351,-7.028,0.737,-9.165,93.17,95.69,34.65
,-8.205,0.907,-8.031,-6.614,1.053,-9.095,81.69,95.34,31.99
22488.0,-6.162,0.761,-9.33,-5.147,-1.682,-9.591,19.67,66.57,25.76
,-6.025,-0.168,-9.356,-4.968,-1.127,-9.012,5.74,57.82,24.78
,-5.647,-0.945,-9.519,-5.315,-0.811,-9.273,-2.66,47.25,24.08
,-5.229,-1.436,-9.732,-5.341,-0.146,-8.928,-4.69,36.33,23.94
22564.0,-5.365,0.144,-9.127,-4.434,-0.124,-9.103,-2.24,-20.79,16.59
,-5.14,-0.115,-8.839,-4.061,-0.215,-9.222,-9.24,-34.51,14.07
,-5.08,-0.27,-9.148,-4.259,-0.342,-9.179,-11.69,-47.74,11.9
,-4.812,-0.345,-9.131,-4.448,-0.708,-8.713,-12.81,-59.64,9.87
22640.0,-5.305,-0.976,-8.033,-5.276,-1.149,-8.811,-23.1,-103.32,5.53
,-5.781,-0.955,-8.081,-5.499,-1.28,-8.698,-25.69,-112.98,2.38
,-5.568,-0.931,-8.449,-6.068,-1.385,-8.624,-28.7,-121.45,-1.12
,-5.284,-0.948,-8.693,-6.399,-1.345,-8.485,-30.38,-126.77,-3.36
22715.0,-6.42,-1.251,-8.461,-6.078,-2.491,-8.09,-15.26,-142.66,-4.27
,-6.281,-1.244,-8.459,-6.468,-2.324,-7.7,-16.87,-146.09,-5.18
,-6.033,-1.558,-8.799,-6.779,-1.936,-7.614,-21.28,-149.17,-5.39
,-5.733,-2.252,-8.579,-6.906,-1.421,-7.66,-23.59,-149.8,-3.99
22791.0,-6.851,-0.921,-7.662,-7.109,-0.771,-6.875,-15.33,-151.76,2.38
,-6.894,-0.732,-7.463,-6.968,-0.756,-6.889,-16.31,-151.2,2.94
,-7.227,-0.646,-7.167,-6.894,-0.766,-6.963,-18.48,-150.92,1.82
,-7.26,-0.751,-6.968,-7.057,-0.787,-6.846,-20.37,-151.2,-0.21
22867.0,-7.057,-0.541,-6.734,-7.664,-0.462,-5.822,-20.3,-155.33,-10.36
,-6.973,-0.467,-6.497,-7.98,-0.555,-5.353,-20.44,-155.96,-12.04
,-7.21,-0.436,-6.528,-7.93,-0.905,-4.917,-21.14,-156.31,-14.42
,-7.339,-0.459,-6.403,-8.114,-1.036,-4.748,-20.72,-156.45,-16.45
22943.0,-8.385,-1.472,-3.991,-9.105,-0.522,-2.292,-23.17,-147.84,-17.36
,-8.655,-1.594,-3.53,-9.0,-0.251,-2.221,-20.09,-143.5,-16.8
,-8.909,-1.335,-3.08,-9.127,-0.333,-1.845,-18.13,-138.39,-17.36
,-9.117,-0.974,-2.58,-9.134,0.172,-1.933,-16.03,-131.53,-16.59
23019.0,-8.988,0.479,-1.795,-8.291,-1.441,-0.773,-33.6,-87.57,-21.07
,-8.708,0.122,-1.771,-8.394,-1.656,-0.4,-43.4,-77.42,-23.03
,-8.442,-0.881,-1.247,-8.387,-1.744,-0.371,-51.31,-66.78,-23.31
,-8.318,-1.106,-1.173,-8.406,-1.469,-0.562,-54.53,-55.16,-22.68
23094.0,-8.291,-0.883,-0.897,-11.041,-2.96,-1.137,-46.34,11.27,-12.67
,-8.5,-0.964,-1.314,-13.247,-3.463,0.141,-45.78,23.73,-9.94
,-8.782,-1.448,-1.575,-13.431,-2.228,0.373,-43.68,35.21,-6.16
,-9.435,-2.07,-1.488,-11.335,-0.275,-0.572,-37.31,44.31,0.0
23170.0,-9.966,0.29,-1.079,-9.648,-0.871,0.213,3.43,25.34,9.8
,-9.749,-0.601,-0.715,-9.679,-0.682,0.428,-10.71,24.43,7.35
,-9.749,-1.438,-0.239,-9.911,-1.146,0.242,-15.33,25.9,7.0
,-9.596,-1.35,-0.141,-10.792,-1.137,-0.723,-11.13,29.68,8.61
23245.0,-9.612,-0.84,-1.28,-9.454,-0.751,-2.331,-6.51,51.59,20.58
,-9.196,0.017,-1.78,-9.598,-0.861,-2.35,-6.09,50.54,18.62
,-9.196,0.153,-2.053,-9.619,-0.926,-2.383,-9.66,49.35,16.45
,-9.351,-0.28,-2.187,-9.507,-0.924,-2.726,-13.23,49.07,16.52
23321.0,-9.423,-0.873,-3.01,-9.206,-0.4,-2.974,-1.75,53.2,21.21
,-9.306,-0.696,-2.812,-9.024,0.136,-2.79,-1.82,52.43,19.95
,-9.184,-0.613,-2.572,-9.469,0.27,-3.005,-2.45,51.8,19.74
,-9.335,-0.55,-2.9,-9.502,0.187,-3.183,-3.36,51.17,19.81
23397.0,-9.421,0.05,-3.278,-9.158,-0.069,-4.195,-28.14,44.52,10.36
,-9.39,-0.022,-3.506,-9.196,0.089,-4.566,-31.01,43.26,9.8
,-9.182,-0.117,-3.506,-9.167,0.172,-4.877,-30.1,42.21,9.94
,-9.1,-0.211,-3.812,-9.179,0.024,-5.358,-25.9,41.16,10.22
23473.0,-9.246,-0.251,-5.774,-9.194,1.132,-4.882,-4.48,31.85,13.02
,-9.093,-0.246,-5.75,-9.464,1.204,-4.599,-1.26,29.26,12.81
,-9.05,0.077,-5.659,-9.378,0.581,-4.001,0.91,26.04,11.83
,-9.007,0.572,-5.26,-9.332,0.184,-3.532,-0.42,23.1,10.08
23548.0,-9.268,-0.244,-3.312,-9.507,1.201,-2.206,-24.71,12.25,3.08
,-9.349,-0.376,-2.855,-9.799,1.61,-2.319,-21.14,11.83,3.29
,-9.497,0.328,-2.539,-9.722,1.374,-2.716,-16.73,11.62,3.36
,-9.244,1.031,-2.379,-9.38,0.979,-3.113,-14.07,12.04,4.83
23624.0,-9.005,0.462,-3.175,-9.148,0.361,-3.941,-22.26,14.0,6.37
,-9.124,0.232,-3.412,-9.043,-0.27,-3.738,-17.99,13.93,7.63
,-9.356,0.565,-3.714,-9.141,-0.251,-3.659,-13.23,13.65,8.19
,-9.318,0.861,-3.9,-9.371,0.172,-3.752,-11.83,13.58,8.75
23700.0,-9.38,0.28,-3.74,-9.337,1.256,-3.905,-5.25,15.33,8.61
,-9.239,0.096,-3.79,-9.244,1.393,-3.965,-3.99,15.89,9.1
,-9.184,0.191,-3.685,-9.16,1.213,-4.092,0.07,16.52,9.59
,-9.33,0.842,-3.776,-8.942,0.531,-4.042,3.99,16.8,9.24
23776.0,-8.854,0.108,-3.979,-9.194,0.682,-3.644,-5.18,13.79,5.81
,-9.103,0.249,-3.948,-9.256,0.493,-3.594,-0.98,13.65,6.3
,-9.294,0.732,-3.905,-9.263,0.426,-3.604,0.14,13.3,6.09
,-9.095,0.842,-3.774,-9.22,0.402,-3.582,-2.45,13.16,5.95
23852.0,-9.153,0.644,-3.721,-8.971,0.964,-4.118,0.35,14.91,8.05
,-9.194,1.122,-3.733,-8.959,0.768,-3.96,1.05,14.56,6.93
,-9.127,1.713,-3.989,-9.122,0.84,-3.944,-1.47,13.79,5.39
,-9.038,1.278,-4.152,-9.141,1.027,-3.898,-5.88,13.09,3.57
23927.0,-9.091,0.833,-3.891,-9.407,0.309,-3.307,-5.81,12.81,1.75
,-9.009,0.29,-3.745,-9.287,0.627,-3.424,-6.72,13.23,1.82
,-9.002,-0.177,-3.47,-8.969,0.715,-3.518,-5.6,14.42,2.94
,-9.21,-0.199,-3.197,-8.952,0.715,-3.735,-1.12,15.96,4.13
24003.0,-8.784,0.857,-3.745,-8.734,1.117,-4.673,-0.91,19.81,2.94
,-8.966,1.134,-4.032,-8.641,0.452,-4.759,-1.05,19.74,1.47
,-8.784,1.706,-4.19,-8.756,0.266,-4.769,-3.36,19.04,0.28
,-8.753,1.563,-4.48,-8.765,0.586,-4.7,-7.49,18.27,-0.63
24078.0,-8.854,0.412,-4.547,-9.062,0.266,-4.049,-7.0,17.15,-0.07
,-8.904,0.134,-4.396,-8.938,0.108,-3.936,-5.11,17.57,0.7
,-8.988,0.081,-4.106,-9.036,0.328,-4.166,-1.54,18.55,1.75
,-8.993,0.483,-4.312,-8.957,0.627,-4.377,5.88,19.74,3.22
24154.0,-8.801,0.605,-4.355,-8.753,1.213,-5.047,10.01,24.22,4.69
,-8.842,0.462,-4.475,-8.641,1.163,-5.176,9.59,24.57,4.55
,-8.83,0.67,-4.501,-8.693,0.828,-5.109,10.64,25.06,4.27
,-8.763,0.993,-4.826,-8.784,0.775,-5.133,10.71,25.06,3.64
24230.0,-8.842,0.857,-5.085,-9.079,0.342,-4.949,9.38,24.15,2.52
,-9.038,1.022,-5.243,-9.024,0.352,-4.915,10.15,25.06,2.24
,-8.899,0.316,-5.09,-8.921,0.608,-4.798,10.85,24.43,2.38
,-9.091,0.895,-4.929,-8.981,0.579,-4.697,12.18,24.15,2.38
24306.0,-8.949,0.962,-4.697,-9.777,2.522,-4.884,15.82,27.44,2.52
,-8.89,0.957,-4.645,-9.256,0.809,-4.874,15.05,28.21,2.03
,-9.055,1.438,-4.618,-9.079,-0.062,-4.59,14.84,28.77,0.98
,-9.371,2.747,-4.659,-9.1,0.962,-4.494,14.07,29.19,-0.91
24381.0,-9.093,1.06,-4.458,-8.536,-0.945,-5.281,5.95,33.04,-2.03
,-8.904,0.668,-4.652,-8.557,-0.486,-5.511,4.48,34.65,-2.66
,-8.722,0.074,-4.867,-8.466,-0.56,-5.662,3.78,35.77,-3.15
,-8.591,-0.574,-5.128,-8.275,-0.634,-5.535,4.2,36.82,-3.29
24457.0,-8.191,-0.287,-5.497,-7.904,0.711,-5.803,24.15,42.42,1.96
,-7.98,0.034,-5.487,-7.976,0.967,-5.779,26.88,43.26,2.8
,-7.983,0.263,-5.602,-8.014,0.952,-5.736,28.14,43.75,2.87
,-7.882,0.433,-5.724,-7.873,0.749,-5.619,28.35,43.89,2.52
24533.0,-7.885,0.692,-5.463,-8.107,0.139,-5.688,21.7,44.52,0.28
,-8.021,0.675,-5.482,-7.956,0.12,-5.865,21.0,45.36,0.42
,-7.949,0.385,-5.449,-7.947,-0.172,-5.968,19.81,46.13,0.63
,-8.011,0.005,-5.518,-7.83,-0.457,-5.992,20.23,47.25,1.47
24609.0,-7.868,-0.613,-5.956,-7.65,-1.067,-6.245,27.65,51.59,7.42
,-8.052,-0.45,-6.152,-7.578,-1.352,-6.044,32.13,52.29,9.03
,-7.913,-0.165,-6.356,-7.511,-1.378,-5.688,35.49,52.99,10.43
,-7.679,-0.524,-6.262,-7.65,-1.062,-5.652,36.61,53.62,11.76
24684.0,-7.566,-0.811,-5.554,-7.686,-1.23,-5.063,59.01,59.64,21.49
,-7.55,-0.857,-5.229,-7.686,-1.531,-5.164,60.34,61.32,23.66
,-7.715,-1.015,-5.269,-7.643,-1.754,-5.331,61.18,62.79,25.41
,-7.825,-1.11,-5.14,-7.547,-1.943,-5.473,62.09,64.61,27.02
24760.0,-7.801,-1.764,-5.733,-7.971,0.045,-7.095,81.62,72.87,31.36
,-7.758,-1.503,-6.147,-8.04,0.57,-7.861,86.59,74.06,31.64
,-7.875,-0.919,-6.382,-7.947,0.89,-8.361,89.39,75.25,30.73
,-7.743,-0.445,-6.758,-7.949,0.861,-8.748,87.99,76.65,29.4
24836.0,-7.569,0.902,-9.031,-5.896,-0.675,-9.112,53.2,81.27,21.56
,-7.155,0.694,-9.277,-5.894,-0.845,-9.253,40.11,77.84,19.88
,-6.516,0.235,-9.196,-5.65,-0.725,-9.234,27.65,73.64,18.83
,-6.121,-0.354,-9.232,-5.382,-0.754,-9.249,16.38,68.32,17.78
24911.0,-5.229,-0.983,-9.478,-5.681,-0.359,-8.679,4.48,26.74,19.25
,-5.171,-0.952,-9.409,-5.24,-0.641,-8.27,5.88,18.27,19.67
,-5.205,-0.859,-8.94,-5.047,-0.933,-8.72,8.4,9.17,20.65
,-5.585,-0.531,-8.741,-4.982,-1.12,-8.334,9.66,-2.24,19.67
24987.0,-5.171,-1.127,-8.361,-4.999,-1.012,-8.679,-3.01,-53.27,14.14
,-5.224,-1.213,-8.425,-5.13,-1.543,-8.445,-1.89,-63.35,12.95
,-5.513,-1.098,-8.574,-5.427,-1.843,-8.174,-0.63,-73.99,10.92
,-5.188,-0.928,-8.564,-5.583,-1.871,-8.229,-3.43,-83.79,8.54
25063.0,-5.867,-1.627,-8.251,-6.135,-1.036,-8.406,-3.85,-119.56,10.08
,-6.056,-1.251,-8.32,-6.346,-1.031,-8.205,-3.01,-126.07,9.38
,-5.963,-1.223,-8.284,-6.48,-1.067,-8.04,-4.69,-131.74,8.68
,-6.052,-1.129,-8.291,-6.741,-1.232,-7.76,-5.67,-136.43,8.96
25139.0,-6.796,-1.33,-7.621,-7.045,-1.141,-7.358,-12.81,-151.83,5.74
,-6.676,-1.311,-7.669,-7.09,-0.938,-7.277,-14.84,-154.49,4.83
,-6.619,-1.295,-8.138,-7.078,-0.928,-7.241,-16.52,-157.22,3.92
,-6.518,-1.295,-7.818,-7.258,-0.907,-7.093,-13.65,-158.06,3.64
25214.0,-7.339,-1.072,-6.856,-7.327,-0.756,-6.289,-14.21,-161.28,-1.61
,-7.377,-0.912,-6.786,-7.487,-0.723,-6.04,-14.49,-161.98,-2.52
,-7.392,-0.869,-6.624,-7.851,-0.567,-5.681,-15.05,-162.68,-3.99
,-7.423,-0.811,-6.449,-8.043,-0.486,-5.449,-15.61,-163.1,-5.81
25290.0,-8.392,-0.491,-5.3,-8.854,-0.304,-3.855,-12.74,-160.51,-12.18
,-8.617,-0.491,-4.74,-8.985,-0.603,-3.25,-16.73,-159.39,-14.14
,-8.509,-0.57,-4.19,-9.27,-0.799,-2.19,-21.14,-156.66,-16.94
,-8.476,-0.548,-3.817,-9.194,-0.546,-2.613,-24.08,-152.95,-19.74
25366.0,-9.167,-0.792,-2.211,-8.569,-0.749,-1.031,-44.38,-125.3,-24.5
,-8.756,-0.787,-1.95,-8.423,-0.955,-0.696,-49.35,-117.6,-23.03
,-8.603,-0.802,-1.536,-8.349,-1.414,-0.077,-51.17,-108.43,-22.05
,-8.744,-0.876,-1.687,-8.349,-1.318,0.168,-51.59,-98.84,-22.96
25442.0,-8.294,-1.328,0.098,-8.399,-1.041,-0.89,-51.1,-33.39,-19.88
,-8.478,-1.374,0.045,-8.392,-1.122,-1.206,-48.86,-18.34,-15.89
,-8.591,-1.106,-0.297,-8.495,-1.161,-1.658,-46.41,-4.41,-12.39
,-8.44,-0.94,-0.651,-8.54,-1.318,-2.046,-45.43,8.47,-9.38
25517.0,-8.792,-1.273,-2.292,-14.03,-4.113,0.342,-34.93,56.7,7.35
,-9.418,-1.577,-2.462,-11.144,-0.96,-0.653,-31.22,59.64,9.94
,-11.141,-2.804,-2.297,-9.313,0.366,-0.83,-25.34,56.0,12.95
,-13.692,-4.652,-0.715,-9.71,-0.928,-0.519,-12.67,42.84,17.78
25593.0,-9.969,-2.333,-0.318,-11.017,-0.206,-0.124,-15.75,20.44,7.21
,-9.402,-2.302,-0.294,-10.964,0.337,-0.438,-6.37,26.95,10.36
,-9.49,-1.11,-0.005,-9.708,1.242,-1.721,2.45,34.3,14.35
,-9.99,0.019,-0.002,-9.438,0.895,-2.302,1.82,41.79,18.27
25668.0,-9.287,0.285,-2.563,-9.584,-0.995,-2.601,-33.39,52.01,15.19
,-9.306,-0.579,-2.517,-9.493,-1.285,-2.982,-35.14,50.33,15.4
,-9.301,-1.039,-2.501,-9.337,-1.577,-3.046,-32.2,49.14,15.68
,-9.428,-1.015,-2.565,-9.069,-1.922,-3.18,-28.07,48.65,16.03
25744.0,-8.964,-2.17,-3.025,-9.256,-0.199,-3.039,-13.16,48.09,19.39
,-9.007,-2.096,-2.881,-9.466,0.471,-3.096,-6.16,48.44,21.84
,-8.981,-1.857,-2.778,-9.464,1.048,-3.211,-0.98,49.07,23.1
,-9.012,-1.053,-2.635,-9.517,1.388,-3.364,2.31,49.14,22.26
25820.0,-9.545,1.369,-3.446,-8.949,-0.191,-4.987,-30.31,40.95,10.71
,-9.552,1.271,-3.877,-9.172,-0.548,-5.073,-35.0,38.57,8.89
,-9.411,1.07,-4.348,-9.072,-0.397,-5.027,-36.89,35.91,7.28
,-9.064,0.61,-4.793,-9.031,-0.376,-4.7,-34.58,33.32,8.4
25896.0,-9.349,-0.11,-4.781,-9.215,-0.124,-3.553,-9.24,24.92,11.06
,-9.38,0.455,-4.7,-9.483,0.225,-3.673,-13.16,22.75,8.68
,-9.155,0.541,-4.434,-9.423,0.491,-3.616,-20.44,20.86,6.86
,-8.983,0.105,-3.965,-9.316,0.749,-3.561,-26.32,19.53,6.02
25972.0,-9.32,0.632,-3.664,-9.249,-0.108,-3.46,-16.59,15.47,7.07
,-9.325,0.531,-3.613,-9.318,0.127,-3.482,-14.56,14.7,7.49
,-9.198,0.23,-3.597,-9.335,0.395,-3.491,-12.88,14.35,8.12
,-9.167,0.01,-3.563,-9.416,0.713,-3.831,-10.43,14.56,8.75
26047.0,-9.354,0.696,-4.121,-9.182,0.852,-4.762,-3.43,15.19,10.64
,-9.162,0.495,-4.314,-9.174,0.835,-4.099,-2.87,14.7,11.06
,-9.086,0.452,-4.614,-9.325,1.139,-4.288,0.42,14.14,11.69
,-9.115,0.672,-4.843,-9.311,1.103,-4.092,4.13,13.3,11.62
26123.0,-9.229,0.881,-3.833,-9.241,0.742,-3.422,-4.69,8.19,7.21
,-9.182,0.467,-3.604,-9.146,0.866,-3.338,-5.74,8.12,7.21
,-9.253,0.366,-3.544,-9.241,0.708,-3.252,-2.73,8.61,7.56
,-9.354,0.44,-3.525,-9.356,0.548,-3.252,1.33,8.89,7.77
26199.0,-9.395,0.476,-3.479,-8.947,1.28,-3.798,2.52,10.57,6.58
,-9.136,0.407,-3.484,-8.978,1.194,-3.786,2.8,10.99,6.23
,-9.155,0.507,-3.719,-9.079,0.905,-3.659,3.92,11.2,5.6
,-9.265,0.936,-3.819,-9.158,0.742,-3.585,2.73,10.85,3.92
26275.0,-9.165,0.538,-3.577,-9.083,0.991,-3.472,-7.07,10.29,2.31
,-9.275,0.373,-3.506,-9.155,0.715,-3.446,-6.37,10.85,1.68
,-9.062,0.804,-3.585,-9.253,0.357,-3.53,-7.28,10.78,0.49
,-9.067,0.952,-3.563,-9.172,0.455,-3.757,-10.22,10.78,-0.28
26350.0,-9.062,0.708,-4.178,-8.947,0.124,-4.389,-11.34,13.37,-0.28
,-8.911,0.433,-4.422,-8.945,0.242,-4.025,-10.64,13.72,0.14
,-8.796,0.17,-4.558,-9.095,0.562,-3.86,-8.47,13.86,1.05
,-8.825,-0.034,-4.525,-9.043,0.696,-3.666,-4.9,13.93,1.96
26426.0,-9.141,0.498,-3.623,-8.832,0.665,-3.774,1.26,15.68,3.71
,-9.11,0.445,-3.64,-8.904,0.718,-3.754,0.84,16.31,3.08
,-8.995,0.474,-3.666,-8.914,0.787,-3.735,0.91,16.94,3.01
,-8.885,0.469,-3.709,-8.847,0.593,-3.68,1.47,17.57,3.29
26501.0,-8.947,0.474,-3.936,-8.837,0.823,-4.563,-1.26,21.07,1.89
,-8.784,0.572,-4.25,-8.844,0.782,-4.3,0.07,21.63,2.03
,-8.775,0.385,-4.484,-8.78,0.601,-4.197,1.26,22.12,2.66
,-8.88,0.402,-4.547,-8.78,0.323,-4.25,3.71,22.47,3.15
26577.0,-8.808,0.385,-4.283,-8.964,1.307,-4.647,4.76,23.45,3.5
,-8.916,0.462,-4.279,-8.782,0.883,-4.597,5.6,24.08,3.64
,-9.057,0.38,-4.25,-8.768,0.78,-4.728,5.81,24.71,3.5
,-9.127,0.955,-4.422,-8.839,0.972,-4.862,6.3,25.13,2.73
26653.0,-8.969,1.158,-5.016,-8.662,0.639,-5.154,5.74,26.6,1.4
,-8.856,1.137,-5.166,-9.055,1.11,-5.307,5.39,26.18,1.26
,-8.751,0.598,-5.214,-9.014,0.916,-5.037,5.53,26.25,1.82
,-8.691,0.366,-5.229,-9.289,1.584,-4.941,8.82,26.32,2.8
26729.0,-9.986,1.967,-5.118,-9.407,0.124,-4.903,21.0,28.14,4.13
,-10.069,1.668,-5.451,-9.268,0.321,-4.92,18.62,28.07,2.73
,-9.509,-0.354,-5.272,-8.983,-0.491,-4.793,14.77,28.56,2.38
,-9.342,-1.216,-5.008,-8.691,-0.979,-4.69,20.23,29.68,4.2
26805.0,-8.691,-0.67,-4.549,-8.373,0.22,-4.506,23.73,36.26,1.26
,-8.638,0.057,-4.515,-8.445,0.237,-4.539,24.15,37.66,0.56
,-8.588,0.263,-4.465,-8.471,0.318,-4.714,22.05,38.92,-0.63
,-8.516,0.347,-4.405,-8.416,0.33,-4.941,18.97,40.39,-1.4
26880.0,-8.452,0.225,-5.059,-8.442,-0.129,-5.121,24.78,48.09,0.49
,-8.576,0.33,-5.171,-8.416,-0.38,-5.08,26.95,49.07,0.7
,-8.536,0.593,-5.212,-8.471,-0.321,-5.252,27.44,50.12,0.7
,-8.502,0.328,-5.164,-8.425,-0.151,-5.554,25.62,51.03,0.42
26956.0,-8.282,-0.275,-5.884,-7.832,-0.694,-5.784,30.52,56.42,3.29
,-8.086,-0.684,-6.001,-7.954,-0.546,-5.705,30.66,57.47,4.13
,-7.892,-0.995,-6.092,-8.064,-0.397,-5.427,33.18,58.1,5.39
,-7.875,-0.916,-6.009,-8.105,-0.455,-5.135,37.52,58.8,7.0
27032.0,-8.227,-0.56,-5.181,-7.676,-1.299,-5.255,45.85,64.47,14.42
,-7.949,-0.692,-5.054,-7.519,-1.555,-5.322,47.74,66.29,16.45
,-7.885,-0.921,-5.31,-7.497,-1.665,-5.183,50.54,67.97,18.48
,-7.777,-1.139,-5.243,-7.528,-1.577,-4.87,53.62,69.79,21.0
27108.0,-7.787,-1.177,-5.552,-7.222,-1.153,-6.999,76.93,78.19,30.87
,-7.629,-0.706,-6.138,-7.291,-0.782,-7.463,78.82,78.61,29.4
,-7.193,-0.634,-6.346,-7.514,0.017,-8.062,76.58,78.4,28.14
,-7.136,-1.036,-6.621,-7.76,0.5,-8.44,75.04,78.4,27.02
27183.0,-7.906,1.043,-8.614,-6.281,0.914,-9.028,67.83,81.83,14.42
,-7.717,1.05,-8.813,-5.989,0.536,-9.344,58.87,82.81,13.09
,-7.387,1.089,-9.119,-5.769,-0.057,-9.619,49.98,82.18,11.9
,-7.047,1.12,-9.196,-5.578,-0.613,-9.397,37.8,78.75,10.15
27259.0,-5.463,-0.885,-9.246,-5.2,-1.426,-8.667,-14.14,46.27,3.85
,-5.14,-0.883,-9.383,-5.52,-1.307,-8.435,-14.77,38.36,4.48
,-4.822,-1.187,-9.229,-5.607,-1.012,-8.519,-14.56,31.22,6.02
,-4.728,-1.46,-8.552,-5.25,-0.79,-8.725,-9.8,25.41,8.82
27334.0,-5.071,-1.034,-9.131,-5.114,-2.089,-8.315,-1.4,-30.31,11.9
,-4.506,-1.63,-8.65,-5.319,-2.154,-8.466,-3.5,-39.69,11.55
,-4.602,-1.706,-8.516,-5.171,-1.855,-8.363,-0.49,-47.88,12.74
,-4.855,-1.838,-8.452,-5.298,-1.608,-8.387,1.96,-57.68,13.09
27410.0,-5.257,-1.582,-8.342,-5.808,-1.311,-8.392,-0.63,-102.76,11.48
,-5.528,-1.484,-8.399,-5.977,-1.443,-8.055,-1.54,-109.48,12.04
,-5.76,-1.362,-8.356,-6.054,-1.318,-7.985,-3.01,-116.48,11.97
,-5.762,-1.275,-8.519,-5.946,-1.125,-8.035,-4.34,-122.29,11.9
27486.0,-6.205,-1.07,-8.028,-7.028,-0.66,-7.557,-0.35,-140.98,9.94
,-6.442,-0.983,-8.002,-6.937,-0.589,-7.731,0.77,-142.94,8.82
,-6.815,-0.883,-7.865,-6.963,-0.617,-7.739,0.28,-145.18,7.77
,-7.073,-0.842,-7.569,-7.114,-0.857,-8.052,-1.12,-147.7,6.51
27562.0,-6.899,-1.12,-7.526,-7.569,-1.405,-6.607,-6.72,-156.73,1.54
,-7.329,-1.271,-7.05,-7.48,-1.469,-6.351,-2.31,-156.59,1.96
,-7.535,-1.302,-6.839,-7.332,-1.39,-6.092,-0.49,-157.22,2.31
,-7.533,-1.309,-6.817,-7.375,-1.244,-5.944,-0.21,-158.27,2.87
27637.0,-7.557,-0.931,-5.848,-8.114,0.065,-4.819,4.48,-158.13,1.33
,-7.947,-0.457,-5.659,-8.081,0.036,-4.721,6.09,-157.29,0.98
,-8.102,-0.134,-5.415,-8.437,-0.278,-4.401,4.48,-156.52,-0.7
,-8.265,-0.024,-5.083,-8.832,-0.416,-4.123,0.21,-156.1,-3.92
27713.0,-8.873,-0.684,-3.726,-8.906,-1.048,-2.388,-23.59,-145.6,-14.56
,-8.969,-0.873,-2.862,-8.48,-1.027,-1.608,-26.95,-142.66,-17.5
,-8.964,-0.916,-2.469,-8.614,-0.579,-1.591,-28.77,-138.04,-19.25
,-9.146,-0.771,-2.781,-8.679,-0.299,-1.555,-33.25,-132.51,-20.58
27789.0,-8.547,-0.675,-0.766,-8.246,-1.598,0.256,-47.95,-85.47,-22.33
,-8.433,-0.914,-0.617,-8.148,-1.534,0.302,-49.21,-72.52,-20.09
,-8.366,-1.39,0.005,-8.045,-1.371,0.101,-47.74,-59.15,-17.71
,-8.294,-1.558,0.005,-8.246,-1.261,-0.354,-44.24,-44.38,-14.07
27865.0,-8.301,-1.103,-0.806,-12.125,-2.886,-1.668,-28.35,31.22,5.81
,-8.332,-0.756,-1.326,-16.576,-6.595,1.019,-27.3,43.61,8.68
,-8.32,-0.337,-1.725,-14.29,-4.468,1.134,-28.42,53.62,10.64
,-9.083,-0.706,-2.072,-9.098,-0.177,-0.369,-31.29,60.06,11.41
27941.0,-8.562,0.005,-0.151,-10.072,-0.459,0.96,-19.18,13.86,-2.66
,-10.213,-2.922,0.919,-11.285,-0.026,0.323,-39.76,18.48,1.05
,-10.404,-4.951,1.113,-11.089,0.091,-0.701,-30.94,26.95,5.74
,-10.014,-3.116,1.237,-9.505,0.677,-1.56,-6.72,38.36,9.87
28016.0,-8.839,1.177,-2.12,-9.148,-1.153,-2.927,-17.85,66.36,15.4
,-8.825,0.701,-2.515,-9.122,-0.715,-3.154,-25.2,64.54,14.77
,-8.88,-0.474,-2.536,-9.172,-0.225,-3.484,-28.14,63.21,16.31
,-9.117,-1.211,-2.386,-9.282,-0.031,-3.702,-22.05,62.44,18.76
28092.0,-9.186,-0.077,-3.702,-9.21,-0.352,-3.601,1.19,52.64,23.31
,-9.093,-0.179,-3.542,-9.198,-0.139,-3.635,1.47,50.75,24.5
,-9.139,-0.337,-3.508,-9.239,0.242,-3.506,1.96,49.28,24.85
,-9.165,-0.486,-3.525,-9.471,0.536,-3.518,2.38,48.65,24.36
28167.0,-9.497,0.491,-3.656,-9.411,0.002,-3.781,-16.87,41.86,11.34
,-9.395,0.464,-3.539,-9.115,-0.103,-3.86,-23.66,39.83,10.5
,-9.342,0.524,-3.415,-9.196,-0.043,-4.068,-27.16,37.87,9.8
,-9.485,0.357,-3.649,-9.586,0.304,-4.147,-29.05,36.12,8.68
28243.0,-9.438,1.0,-3.984,-9.141,0.78,-3.953,-12.6,28.35,9.31
,-9.1,1.452,-3.948,-8.973,-0.514,-3.69,-15.96,26.18,8.82
,-9.488,1.34,-3.967,-9.139,-1.596,-3.539,-21.56,24.57,7.07
,-9.545,1.225,-4.073,-9.418,-1.369,-3.542,-29.33,22.75,4.13
28319.0,-9.385,-0.203,-3.69,-9.227,1.156,-4.02,-22.82,20.72,4.2
,-9.153,0.483,-3.776,-9.167,0.811,-4.142,-18.9,20.65,6.09
,-9.392,0.969,-3.819,-9.229,0.447,-4.3,-17.5,20.3,6.79
,-9.457,1.268,-3.932,-9.014,0.242,-4.336,-19.11,19.39,6.09
28395.0,-8.923,-0.388,-4.135,-9.397,0.699,-4.293,-20.23,15.47,6.09
,-9.107,-0.608,-3.97,-9.196,0.577,-4.367,-15.75,15.47,7.28
,-9.246,-0.168,-3.903,-9.088,0.687,-4.647,-10.01,15.82,7.98
,-9.407,0.481,-4.092,-8.976,0.505,-4.487,-6.86,15.89,8.19
28470.0,-9.103,0.409,-4.343,-9.028,0.543,-4.171,-5.18,12.32,8.68
,-9.162,0.462,-4.319,-9.067,0.546,-4.089,-3.5,11.34,8.47
,-9.196,0.634,-4.334,-9.103,0.579,-4.013,-1.96,10.99,8.61
,-9.158,0.589,-4.283,-9.186,0.66,-4.147,-0.84,10.57,8.82
28546.0,-9.088,0.567,-4.173,-9.093,0.574,-4.046,3.08,9.17,8.68
,-9.026,0.297,-3.984,-9.033,0.838,-3.984,3.15,9.1,9.24
,-9.225,0.134,-3.934,-9.17,1.192,-3.944,5.39,9.24,9.87
,-9.275,0.395,-4.104,-9.136,1.086,-3.97,7.98,9.1,10.22
28621.0,-8.993,0.883,-3.979,-9.117,1.213,-4.063,2.73,7.28,7.7
,-9.055,0.756,-4.003,-8.921,0.919,-3.812,1.82,6.65,6.58
,-9.052,1.015,-4.034,-9.067,0.842,-3.503,1.61,5.95,5.81
,-9.134,1.309,-4.18,-9.438,1.144,-3.369,1.12,5.32,4.76
28697.0,-9.347,1.366,-3.183,-9.088,0.622,-3.223,-4.48,5.25,0.84
,-9.258,1.213,-3.037,-9.256,0.83,-3.561,-6.86,5.67,-0.07
,-9.17,1.01,-3.07,-9.091,0.62,-3.687,-7.98,6.44,-0.35
,-9.052,0.589,-3.101,-8.866,0.168,-3.683,-6.86,7.77,0.28
28773.0,-8.923,0.129,-3.85,-8.916,0.156,-3.833,3.92,12.11,2.52
,-8.971,0.304,-3.996,-8.949,0.077,-3.664,6.16,12.74,2.94
,-9.06,0.39,-3.905,-8.978,0.488,-3.738,7.07,13.23,3.43
,-9.162,0.385,-3.877,-8.961,0.732,-3.788,7.0,13.58,3.85
28849.0,-9.0,0.823,-3.824,-8.914,0.309,-4.082,3.64,16.52,3.57
,-8.981,0.639,-3.769,-8.959,0.299,-4.008,2.1,17.36,3.57
,-8.923,0.45,-3.857,-9.052,0.201,-3.841,2.1,18.13,3.78
,-8.882,0.34,-3.927,-9.16,0.285,-3.577,3.78,18.83,4.55
28925.0,-9.15,0.526,-3.506,-8.983,1.24,-3.893,9.73,23.66,7.28
,-9.048,0.713,-3.747,-8.993,1.409,-4.013,9.1,24.85,6.72
,-8.906,0.613,-3.831,-9.088,0.9,-4.099,7.98,26.04,6.37
,-9.026,0.653,-3.874,-8.744,0.593,-4.233,8.19,27.02,5.6
29000.0,-8.787,0.646,-4.393,-8.885,0.809,-5.118,10.29,30.52,3.78
,-8.827,0.89,-4.628,-8.993,0.768,-5.202,12.53,31.08,4.06
,-8.873,0.565,-4.793,-9.189,1.029,-5.446,13.09,31.22,4.06
,-8.899,0.553,-4.975,-8.837,0.617,-5.317,14.21,31.5,3.85
29076.0,-8.885,0.589,-5.451,-8.67,0.514,-5.312,16.52,31.22,4.97
,-8.789,0.127,-5.458,-8.722,0.883,-5.274,19.6,31.64,5.88
,-8.672,0.414,-5.542,-9.194,1.747,-5.087,24.57,31.92,7.07
,-8.701,0.639,-5.389,-9.852,2.879,-5.164,26.95,32.34,7.42
29152.0,-9.885,1.725,-5.41,-8.823,0.928,-5.305,18.48,33.32,-1.4
,-9.158,-0.687,-5.286,-8.5,0.151,-5.13,13.51,33.6,-1.82
,-8.892,-0.859,-5.159,-8.361,-0.172,-5.075,19.81,34.86,0.42
,-8.952,0.617,-5.293,-8.361,-0.28,-5.02,26.67,36.05,1.33
29228.0,-8.291,-0.129,-4.96,-8.514,0.725,-5.03,18.48,39.69,-4.69
,-8.373,0.459,-4.982,-8.459,0.498,-4.97,20.79,40.67,-4.62
,-8.457,0.895,-5.054,-8.485,0.404,-5.111,21.0,41.79,-4.69
,-8.473,0.907,-5.059,-8.416,0.256,-5.173,19.6,42.77,-4.69
29303.0,-8.378,0.055,-5.298,-8.059,-0.254,-5.774,22.26,48.58,-2.45
,-8.37,-0.196,-5.353,-7.913,-0.534,-5.915,23.1,49.7,-1.89
,-8.284,-0.249,-5.389,-7.736,-0.706,-5.913,24.22,50.89,-1.33
,-8.251,-0.184,-5.631,-7.667,-0.601,-5.956,24.85,51.94,-1.19
29379.0,-7.602,-0.495,-5.846,-7.332,-0.926,-5.762,25.83,54.81,0.91
,-7.619,-0.421,-5.932,-7.396,-0.983,-5.674,27.09,55.58,1.82
,-7.597,-0.452,-5.949,-7.322,-0.747,-5.631,27.3,56.14,2.66
,-7.401,-0.67,-5.937,-7.394,-0.536,-5.805,28.0,56.91,4.41
29454.0,-7.286,-0.622,-6.092,-7.499,-0.995,-5.604,44.38,62.16,15.33
,-7.102,-0.792,-6.164,-7.485,-0.723,-6.042,45.08,62.65,16.8
,-7.126,-1.139,-5.977,-7.361,-0.378,-6.451,46.48,63.56,19.18
,-7.363,-1.429,-5.879,-6.983,-0.62,-6.399,50.4,65.24,21.14
29530.0,-7.004,-1.304,-6.432,-7.782,-0.237,-7.138,58.59,69.65,23.17
,-7.085,-1.192,-6.379,-8.05,-0.007,-7.435,61.81,71.26,23.17
,-7.203,-0.931,-6.535,-8.057,0.251,-7.691,65.31,73.36,22.33
,-7.468,-0.555,-6.87,-8.04,0.605,-8.102,67.13,76.44,21.49
29606.0,-7.779,0.692,-8.332,-6.245,-0.605,-9.186,46.69,72.1,13.93
,-7.361,0.644,-8.504,-5.683,-1.177,-9.198,37.1,68.18,11.2
,-6.92,0.512,-8.698,-5.623,-1.515,-9.234,28.42,64.82,10.85
,-6.698,-0.065,-9.153,-5.451,-1.594,-9.007,20.16,61.95,12.11
29682.0,-5.487,-1.531,-8.873,-4.774,-0.778,-9.191,14.91,44.52,20.86
,-5.477,-1.307,-9.251,-4.893,-0.725,-9.162,14.56,36.19,18.34
,-5.083,-0.96,-9.304,-5.054,-0.84,-8.866,15.54,29.4,18.06
,-4.879,-0.672,-9.294,-5.355,-0.668,-8.588,15.75,23.17,20.02
29758.0,-5.212,-0.916,-8.579,-4.508,-1.886,-8.686,1.82,-21.84,17.78
,-4.917,-1.194,-8.65,-4.563,-1.785,-8.543,-1.19,-32.69,17.15
,-4.64,-1.429,-8.746,-4.803,-1.519,-8.691,-1.89,-42.35,17.5
,-4.255,-1.563,-8.792,-5.054,-1.421,-8.564,-1.26,-50.61,17.5
29833.0,-5.083,-1.393,-8.564,-5.872,-1.211,-8.378,-5.81,-97.65,7.63
,-4.415,-1.414,-8.717,-6.049,-0.955,-8.562,-8.75,-102.83,7.56
,-4.769,-1.522,-8.445,-5.877,-1.053,-8.605,-8.33,-107.03,7.35
,-5.391,-1.452,-8.32,-5.812,-1.249,-8.595,-6.3,-113.19,6.23
29909.0,-5.714,-1.448,-8.55,-6.506,-1.328,-8.244,-8.4,-142.87,2.1
,-5.738,-1.51,-8.449,-6.485,-1.12,-8.141,-7.77,-145.95,2.38
,-5.908,-1.546,-8.342,-6.511,-0.849,-8.102,-6.58,-148.75,2.38
,-6.178,-1.374,-8.258,-6.726,-0.615,-7.736,-6.3,-151.48,2.24
29985.0,-7.078,-0.433,-7.645,-7.37,-1.168,-7.112,-9.31,-159.74,-1.4
,-7.267,-0.395,-7.607,-7.351,-1.653,-6.997,-12.95,-160.79,-2.66
,-7.318,-0.519,-7.54,-7.339,-1.754,-6.647,-16.38,-161.49,-3.29
,-7.274,-0.835,-7.32,-7.389,-1.677,-6.32,-19.46,-161.77,-3.85
30061.0,-7.662,-1.452,-6.059,-8.22,-0.546,-5.147,-7.35,-158.69,-5.46
,-7.741,-1.196,-5.934,-8.397,-0.4,-4.925,-4.34,-156.73,-4.06
,-7.892,-1.0,-5.781,-8.471,-0.347,-4.549,-1.33,-154.63,-2.66
,-8.074,-0.737,-5.475,-8.82,-0.493,-4.252,0.42,-152.25,-2.03
30136.0,-8.988,-0.507,-3.762,-8.875,-0.89,-2.359,-6.02,-136.78,-2.03
,-8.634,-0.658,-3.221,-8.854,-0.933,-2.376,-10.08,-132.3,-3.85
,-8.617,-0.601,-3.178,-8.713,-0.998,-1.847,-8.89,-126.63,-4.27
,-8.789,-0.761,-2.721,-8.521,-0.244,-1.953,-11.27,-120.05,-3.71
30212.0,-8.674,-0.055,-2.07,-8.358,-1.316,-0.967,-16.73,-80.43,-6.16
,-8.787,-0.33,-1.625,-8.208,-1.464,-0.605,-22.47,-71.68,-7.35
,-8.634,-0.56,-1.493,-8.153,-1.419,-0.61,-28.42,-62.65,-8.26
,-8.497,-0.95,-1.34,-8.232,-1.247,-0.761,-31.57,-53.2,-8.19
30287.0,-8.32,-1.082,-0.873,-8.909,-1.062,-1.732,-21.49,3.01,-0.77
,-8.299,-0.969,-0.995,-9.686,-1.821,-1.929,-18.34,13.16,1.05
,-8.399,-0.816,-1.326,-11.687,-3.443,-1.73,-16.45,22.4,2.45
,-8.519,-0.859,-1.464,-14.058,-5.066,0.132,-15.26,30.66,3.92
30363.0,-13.704,-3.309,0.514,-10.4,-3.716,1.187,32.34,7.35,18.62
,-10.629,0.065,-0.742,-10.021,-2.395,1.062,34.93,-0.98,8.12
,-9.782,-0.086,-0.369,-9.849,-0.459,1.058,11.41,-2.66,-1.47
,-10.435,-2.644,0.778,-9.722,0.328,0.821,-7.35,0.35,-0.42
30439.0,-9.966,0.479,0.684,-9.794,0.912,-0.945,9.31,39.13,11.55
,-10.615,0.605,0.098,-9.739,0.158,-1.094,3.01,41.44,10.99
,-10.572,0.871,-0.127,-9.782,-0.842,-1.718,-3.71,42.98,10.57
,-10.467,0.835,-0.55,-9.636,-1.776,-2.075,-11.69,45.92,13.09
30515.0,-9.299,-1.886,-1.819,-9.462,0.196,-2.005,-8.12,49.42,17.99
,-9.115,-1.146,-1.651,-9.409,0.163,-2.28,3.71,48.16,19.74
,-9.423,-0.419,-1.551,-9.342,0.014,-2.687,9.94,47.32,20.79
,-9.481,-0.093,-1.677,-9.275,0.093,-2.977,11.83,47.25,21.42
30590.0,-9.244,0.191,-2.86,-9.509,-0.081,-2.498,3.92,43.68,17.57
,-9.363,0.132,-2.86,-9.505,0.55,-2.577,-2.17,42.7,15.12
,-9.493,-0.306,-2.735,-9.574,1.072,-2.613,-8.61,41.79,12.95
,-9.533,-0.333,-2.496,-9.478,1.055,-2.814,-11.34,40.95,11.9
30666.0,-9.55,0.814,-3.046,-8.94,-0.876,-4.281,-23.66,34.86,8.19
,-9.469,0.514,-3.465,-9.139,-0.931,-4.257,-23.24,33.6,8.19
,-9.368,0.086,-3.886,-9.323,-0.668,-4.58,-21.77,32.2,8.12
,-9.153,-0.402,-4.226,-9.407,-0.292,-4.417,-19.04,30.73,9.24
30742.0,-9.332,0.144,-4.661,-9.452,0.615,-4.066,-6.58,23.59,7.63
,-9.244,0.388,-4.578,-9.43,0.668,-3.955,-9.94,21.49,6.65
,-9.292,0.5,-4.41,-9.328,0.407,-3.568,-12.25,19.46,6.23
,-9.399,0.486,-4.183,-9.347,0.007,-3.118,-13.09,17.57,5.81
30818.0,-9.555,-0.115,-2.73,-9.576,0.4,-2.742,-11.62,11.9,5.81
,-9.469,-0.072,-2.809,-9.423,0.333,-2.699,-11.83,11.69,5.6
,-9.287,0.151,-2.666,-9.619,0.744,-2.733,-12.67,11.76,6.23
,-9.45,0.223,-2.637,-9.701,1.441,-3.209,-12.88,12.25,6.58
30894.0,-9.538,1.486,-3.597,-9.014,-0.938,-3.886,-17.99,12.88,3.29
,-9.239,1.082,-4.058,-9.328,-0.199,-3.728,-21.07,11.69,3.15
,-8.942,-0.019,-4.281,-9.368,0.586,-3.525,-21.7,10.85,3.78
,-8.76,-0.938,-3.982,-9.375,0.859,-3.527,-17.5,10.71,5.25
30969.0,-9.356,0.715,-3.417,-9.292,0.519,-3.676,-5.04,9.59,7.0
,-9.301,0.428,-3.429,-9.196,0.373,-3.642,-4.13,9.8,7.42
,-9.253,0.27,-3.431,-9.194,0.459,-3.439,-0.98,9.94,7.91
,-9.268,0.44,-3.561,-9.457,0.84,-3.491,2.87,9.94,8.54
31045.0,-9.478,1.072,-3.656,-9.21,-0.333,-3.85,9.24,9.38,8.19
,-9.313,0.967,-3.565,-9.292,-0.089,-4.013,6.02,8.75,7.56
,-9.229,0.483,-3.704,-9.191,0.208,-3.999,4.41,8.68,7.49
,-9.174,-0.168,-3.664,-9.203,0.306,-4.135,6.58,9.1,8.26
31120.0,-9.258,0.316,-4.2,-9.256,0.514,-4.113,25.83,9.8,10.99
,-9.115,0.388,-4.283,-9.191,0.474,-3.879,27.3,9.31,10.99
,-9.189,0.462,-4.238,-9.124,0.62,-3.606,29.96,9.17,11.27
,-9.038,0.34,-4.063,-9.246,0.845,-3.649,32.06,8.47,11.48
31196.0,-9.244,1.029,-3.838,-9.299,1.479,-4.02,24.92,6.23,8.05
,-9.048,1.039,-3.817,-9.251,1.476,-4.068,21.84,5.95,7.7
,-9.167,0.895,-3.881,-9.129,1.158,-3.97,21.77,5.39,7.91
,-9.33,1.218,-3.984,-9.117,0.656,-3.888,23.66,5.11,8.12
31272.0,-9.186,0.459,-3.924,-9.361,0.476,-3.187,15.33,0.63,6.09
,-9.072,0.615,-3.843,-9.342,0.816,-2.986,15.4,0.21,5.81
,-9.131,0.211,-3.551,-9.282,0.883,-2.974,14.77,0.35,6.16
,-9.196,-0.01,-3.228,-9.368,0.893,-3.037,16.94,0.91,7.0
31348.0,-9.273,0.936,-3.025,-8.897,-0.409,-3.848,20.72,4.13,6.79
,-9.277,0.955,-3.439,-8.861,-0.447,-3.719,19.6,4.2,5.74
,-9.222,1.024,-3.735,-9.074,-0.11,-3.733,17.92,3.92,4.55
,-9.016,0.34,-3.781,-9.237,0.141,-3.577,14.35,3.99,4.13
31423.0,-9.356,0.522,-3.247,-8.971,0.668,-3.991,25.83,6.86,7.7
,-9.512,0.881,-3.446,-9.134,0.627,-4.128,24.36,7.14,7.21
,-9.495,1.01,-3.685,-9.213,0.687,-4.298,22.68,7.07,6.51
,-9.232,0.931,-3.927,-9.083,0.531,-4.24,20.79,7.0,5.88
31499.0,-8.993,0.5,-4.118,-9.174,0.168,-4.13,25.2,6.09,4.97
,-9.129,0.419,-4.216,-9.033,0.024,-4.078,25.06,5.81,4.41
,-8.988,0.258,-4.054,-9.119,0.297,-4.085,25.2,5.46,4.41
,-9.036,0.287,-3.951,-9.229,0.625,-4.178,26.67,5.67,4.55
31575.0,-9.22,0.692,-4.264,-9.016,-0.045,-4.068,37.8,6.3,6.72
,-9.189,0.763,-4.221,-9.045,-0.12,-4.013,37.87,5.81,6.44
,-9.04,0.732,-4.259,-9.007,-0.077,-3.963,38.08,5.11,6.23
,-9.005,0.369,-4.137,-8.983,-0.077,-3.92,38.64,4.97,6.44
31651.0,-9.275,0.108,-3.817,-9.033,0.546,-3.953,53.13,6.93,8.54
,-9.064,0.514,-3.74,-8.949,0.431,-3.946,54.74,7.21,8.61
,-9.162,0.469,-3.709,-8.83,0.378,-4.008,56.14,7.84,9.1
,-9.153,0.567,-3.786,-8.988,0.625,-3.927,57.68,8.61,9.59
31726.0,-9.119,0.766,-3.618,-9.287,0.742,-3.175,60.9,9.24,8.61
,-9.036,0.507,-3.302,-9.366,0.718,-3.319,59.36,10.22,8.12
,-9.131,0.479,-3.125,-9.273,0.823,-3.556,58.94,11.34,7.49
,-9.127,0.658,-3.022,-9.32,0.83,-3.958,59.01,12.53,7.0
31802.0,-9.222,0.62,-4.29,-8.978,0.172,-4.02,55.09,15.54,4.27
,-9.088,0.495,-4.35,-8.983,0.022,-3.819,56.63,15.4,3.36
,-8.873,0.799,-4.424,-9.076,-0.139,-4.08,57.33,14.84,2.59
,-8.887,0.682,-4.329,-9.409,-0.101,-4.456,55.37,14.35,1.82
31878.0,-9.493,-0.096,-4.913,-9.06,-0.232,-4.602,51.1,12.88,-0.14
,-9.143,-0.158,-4.996,-9.105,-0.589,-4.46,48.58,12.04,-0.14
,-8.882,-0.476,-4.989,-9.098,-0.933,-4.46,47.88,11.83,0.14
,-9.005,-0.395,-4.781,-9.072,-1.029,-4.348,49.84,11.62,-0.07
31953.0,-8.739,-1.204,-4.575,-9.536,-0.376,-4.848,59.01,12.67,6.09
,-9.083,-0.285,-3.977,-9.146,-0.086,-5.358,66.43,14.07,13.02
,-9.598,1.007,-4.168,-8.983,-0.938,-5.808,71.61,15.12,17.64
,-9.165,0.156,-4.518,-8.531,-1.256,-6.025,73.78,16.31,22.05
32029.0,-8.315,-1.005,-6.389,-8.095,-0.488,-5.535,99.12,16.17,34.44
,-8.397,-0.737,-6.396,-7.99,-0.646,-5.197,101.78,14.0,33.53
,-8.294,-0.45,-6.241,-8.296,-0.548,-4.946,101.71,11.48,32.41
,-8.279,-0.498,-5.743,-8.38,-0.517,-4.872,100.94,9.24,32.2
32105.0,-8.301,-0.938,-4.728,-8.387,-0.388,-4.774,113.89,7.63,46.27
,-8.069,-1.029,-4.606,-8.485,-0.419,-4.86,117.39,8.96,49.91
,-8.038,-0.713,-4.573,-8.579,-0.902,-5.152,120.4,10.15,51.73
,-8.272,-0.409,-4.786,-8.394,-1.601,-5.439,119.84,10.99,51.1
32181.0,-8.153,-2.233,-5.623,-8.066,-2.438,-5.525,113.68,9.52,52.36
,-8.035,-2.601,-5.915,-8.198,-0.605,-4.937,124.39,9.03,57.82
,-8.023,-2.685,-6.25,-8.007,1.012,-5.532,138.53,8.4,64.61
,-8.153,-2.553,-6.425,-7.988,1.33,-5.451,153.09,7.84,72.45
32256.0,-8.014,1.177,-5.236,-8.2,-0.357,-5.185,174.93,7.49,82.67
,-8.019,1.395,-5.207,-8.313,-1.388,-5.252,163.24,7.21,77.77
,-8.05,1.275,-5.202,-8.351,-2.211,-5.31,148.89,7.49,72.73
,-8.208,0.596,-5.121,-8.27,-2.857,-5.188,135.1,8.47,68.95
32332.0,-8.177,-3.082,-5.09,-8.703,-0.981,-5.111,163.38,15.68,80.5
,-8.349,-2.943,-4.908,-8.696,-0.608,-4.982,181.72,17.43,86.73
,-8.701,-2.395,-4.908,-8.741,-0.392,-4.654,198.94,18.41,92.12
,-8.784,-1.615,-5.016,-8.61,-0.084,-4.465,210.7,18.48,95.83
32408.0,-8.48,0.084,-4.302,-8.911,0.112,-4.525,216.51,20.44,100.59
,-8.576,0.01,-4.161,-9.119,0.292,-4.398,212.59,21.0,99.19
,-8.591,0.0,-3.92,-8.978,0.658,-4.336,209.16,22.12,97.58
,-8.744,-0.101,-4.197,-9.055,0.797,-4.14,205.24,22.61,94.99
32484.0,-9.282,0.797,-4.066,-8.813,0.17,-3.671,159.18,17.5,77.84
,-9.194,0.629,-3.929,-8.938,0.077,-3.62,147.63,16.59,74.76
,-8.985,0.546,-3.766,-8.959,0.266,-3.632,137.34,16.03,71.47
,-8.823,0.361,-3.647,-9.124,0.469,-3.991,128.45,15.75,68.11
32559.0,-9.148,0.459,-4.171,-9.162,-0.402,-4.13,101.85,12.95,51.8
,-9.141,0.191,-4.312,-8.973,-0.45,-4.118,96.25,11.27,49.07
,-9.174,-0.136,-4.202,-8.945,-0.931,-4.219,92.75,9.66,47.25
,-9.162,-0.364,-4.178,-9.067,-1.108,-4.188,90.93,8.26,46.48
32635.0,-9.134,-1.067,-4.329,-9.103,0.168,-4.183,101.64,3.92,50.12
,-9.249,-0.818,-4.353,-9.024,0.091,-4.161,108.43,3.85,52.64
,-9.363,-0.481,-4.341,-8.961,-0.005,-4.133,114.38,3.99,54.53
,-9.328,-0.129,-4.255,-8.911,0.218,-4.032,118.16,4.27,56.07
32710.0,-9.007,0.438,-3.786,-9.174,0.342,-3.34,118.93,1.26,56.77
,-9.28,0.694,-3.719,-9.131,0.44,-3.171,117.04,-0.28,54.25
,-9.34,0.562,-3.628,-9.143,0.878,-3.163,111.65,-1.33,52.43
,-9.174,0.445,-3.364,-9.485,0.835,-3.238,106.89,-1.68,52.57
32786.0,-9.82,0.854,-2.673,-9.488,0.55,-3.183,79.66,-7.0,44.38
,-9.921,1.359,-2.084,-9.497,-0.735,-3.223,70.35,-11.83,40.67
,-9.677,1.802,-1.96,-9.519,-0.838,-3.125,61.11,-14.91,36.82
,-9.383,1.778,-2.551,-9.268,-0.165,-3.518,48.09,-15.89,32.83
32862.0,-8.985,0.249,-3.936,-8.789,0.256,-4.235,41.79,-4.9,28.56
,-8.995,0.61,-4.341,-8.593,-0.44,-3.522,38.29,-2.8,27.58
,-9.055,0.845,-4.453,-8.66,-0.581,-3.525,31.29,-2.8,24.29
,-9.028,0.794,-4.563,-8.717,-0.416,-3.539,20.51,-4.34,19.32
32938.0,-8.88,0.057,-3.329,-10.778,1.003,-2.364,-2.1,-5.18,5.95
,-9.507,0.11,-3.266,-10.249,0.55,-2.565,-3.71,-4.55,6.16
,-10.263,0.352,-2.84,-9.416,-0.134,-2.551,-3.71,-4.34,7.84
,-10.859,0.864,-2.297,-8.976,-0.39,-2.967,-3.15,-4.06,10.36
33014.0,-9.098,-0.285,-3.331,-8.993,-0.991,-3.46,-3.57,1.05,11.62
,-9.294,-0.474,-3.563,-9.002,-0.452,-3.436,-4.83,2.03,10.43
,-9.301,-0.555,-3.561,-9.28,0.184,-3.726,-6.58,2.31,9.31
,-9.251,-0.771,-3.486,-9.337,0.548,-3.865,-7.63,2.45,8.68
33089.0,-9.351,0.28,-3.9,-9.306,0.72,-3.412,-4.55,4.2,9.66
,-8.971,-0.043,-3.848,-9.519,1.046,-3.546,-5.04,3.99,9.59
,-8.77,-0.493,-3.582,-9.366,0.782,-3.752,-2.24,4.13,11.27
,-8.765,-0.069,-3.58,-9.083,0.72,-3.728,3.08,4.69,12.53
33165.0,-9.098,0.759,-3.955,-9.155,-0.081,-3.47,-13.93,2.94,5.81
,-9.098,0.651,-3.991,-9.009,0.428,-3.278,-18.2,2.45,4.62
,-9.165,-0.16,-3.915,-9.249,0.94,-3.429,-21.84,2.24,5.04
,-9.129,-0.727,-3.592,-9.45,1.223,-3.465,-18.76,2.87,5.67
33241.0,-9.325,1.06,-3.503,-9.268,0.73,-4.003,-14.7,4.27,6.44
,-9.261,0.771,-3.611,-9.325,0.711,-4.018,-13.79,4.55,7.07
,-8.983,0.136,-3.678,-9.34,0.802,-4.152,-11.13,5.11,8.82
,-9.002,0.189,-3.769,-9.239,0.584,-4.377,-4.41,5.6,10.92
33317.0,-9.115,0.213,-4.448,-9.474,1.036,-4.003,8.4,5.32,11.27
,-8.988,0.208,-4.539,-9.299,1.321,-3.709,13.16,5.04,11.76
,-8.978,0.223,-4.384,-9.289,1.127,-3.305,18.06,5.46,12.6
,-9.182,0.514,-4.221,-9.287,0.742,-3.063,22.4,5.88,13.3
33392.0,-9.249,0.778,-2.984,-9.052,1.17,-3.747,21.84,7.35,10.36
,-9.38,0.962,-3.089,-8.961,1.05,-3.908,24.64,8.4,10.29
,-9.184,1.11,-3.276,-9.028,0.967,-4.08,26.04,9.17,10.64
,-9.028,1.132,-3.508,-9.052,1.141,-4.209,26.39,9.38,10.92
33468.0,-8.871,0.976,-4.243,-8.844,0.493,-3.85,22.89,8.61,9.94
,-8.961,0.912,-4.259,-8.916,-0.33,-3.391,21.56,7.98,9.8
,-9.119,1.122,-4.168,-9.323,0.23,-3.352,20.44,7.35,9.31
,-9.026,1.259,-4.058,-9.371,0.495,-3.307,16.52,6.72,8.47
33543.0,-9.349,0.474,-3.422,-8.844,1.034,-3.86,18.55,10.85,9.45
,-9.208,0.713,-3.671,-8.983,1.106,-4.011,20.65,11.97,9.52
,-9.055,0.833,-3.747,-9.1,1.156,-4.221,20.65,12.6,9.45
,-8.971,0.902,-3.764,-9.057,1.371,-4.357,19.53,12.88,8.89
33619.0,-8.643,1.256,-4.515,-9.079,0.794,-4.446,7.35,11.27,4.41
,-8.643,1.134,-4.542,-8.983,0.818,-4.341,6.51,10.43,4.83
,-8.909,1.433,-4.582,-9.002,1.031,-4.405,6.02,9.73,4.41
,-9.014,1.268,-4.511,-9.026,1.173,-4.683,3.15,9.17,3.71
33695.0,-8.646,0.132,-4.721,-9.0,1.134,-4.274,0.49,7.84,2.24
,-8.571,-0.665,-4.611,-8.89,0.957,-4.094,4.9,8.19,3.78
,-8.782,-0.139,-4.661,-8.88,0.627,-4.013,13.86,8.89,5.18
,-8.856,0.68,-4.377,-9.107,0.708,-4.185,18.41,9.38,5.95
33771.0,-8.813,1.125,-4.317,-8.93,1.01,-4.444,10.85,9.17,3.57
,-8.562,0.907,-4.436,-8.981,1.058,-4.463,8.68,9.03,3.64
,-8.67,0.739,-4.429,-9.048,1.268,-4.379,8.68,8.89,3.99
,-8.782,1.06,-4.444,-8.734,1.984,-4.298,8.68,8.61,3.78
33847.0,-8.701,2.867,-4.128,-8.485,-1.491,-3.372,-7.42,4.76,-3.85
,-8.839,3.228,-3.833,-8.866,-1.721,-3.431,-16.17,3.64,-5.18
,-8.713,2.594,-3.697,-9.414,-0.962,-3.932,-26.04,3.15,-6.02
,-8.516,0.419,-3.522,-9.117,-0.211,-4.159,-32.41,3.85,-4.83
33922.0,-8.88,0.038,-4.338,-8.93,1.208,-4.8,2.73,14.84,2.31
,-8.748,-0.005,-4.413,-8.634,0.871,-4.757,-1.05,15.68,1.4
,-8.78,0.254,-4.551,-8.5,0.421,-4.597,-0.7,16.45,1.47
,-8.988,0.804,-4.683,-8.605,0.278,-4.446,1.33,16.45,1.82
33998.0,-8.93,0.285,-4.391,-8.815,0.818,-4.202,2.45,17.43,4.13
,-8.921,-0.055,-4.123,-8.674,1.283,-4.556,3.85,18.76,4.83
,-9.043,-0.096,-4.066,-8.574,1.283,-4.767,6.37,20.37,6.16
,-9.117,0.074,-4.267,-8.447,0.914,-4.953,11.2,21.98,7.56
34074.0,-8.48,0.632,-4.915,-8.375,0.878,-5.52,8.05,24.99,6.44
,-8.591,0.845,-5.229,-8.478,0.603,-5.36,12.81,25.27,7.28
,-8.727,1.158,-5.398,-8.626,0.754,-5.441,14.35,24.85,6.79
,-8.313,1.225,-5.453,-8.65,0.732,-5.348,12.46,24.08,6.23
34150.0,-8.543,0.682,-5.365,-8.713,0.627,-5.145,16.38,24.08,6.37
,-8.435,0.488,-5.343,-8.806,0.883,-5.162,17.43,24.36,7.07
,-8.619,0.235,-5.339,-8.866,0.804,-5.226,19.74,24.43,6.93
,-8.469,0.531,-5.171,-8.866,1.151,-5.465,20.65,24.78,7.0
34225.0,-8.569,1.359,-5.671,-9.32,1.479,-6.176,21.7,26.67,5.67
,-8.533,1.058,-5.798,-8.902,0.414,-5.987,20.3,26.46,5.32
,-8.801,1.352,-5.903,-8.698,-0.223,-5.769,22.19,26.32,4.48
,-9.256,1.883,-6.068,-8.734,0.213,-5.779,23.52,26.11,3.01
34301.0,-8.72,0.641,-5.896,-8.399,0.445,-5.482,27.51,27.02,1.26
,-8.416,0.438,-5.872,-8.311,0.768,-5.372,25.55,27.3,0.14
,-8.452,0.136,-5.781,-8.287,0.974,-5.257,24.85,27.65,-0.63
,-8.516,0.112,-5.616,-8.323,0.986,-5.178,26.04,28.21,-0.91
34376.0,-8.344,0.842,-5.08,-8.409,0.182,-4.903,26.95,31.43,0.56
,-8.361,0.727,-5.097,-8.399,-0.002,-4.989,28.7,32.69,1.47
,-8.392,0.625,-5.063,-8.375,-0.249,-5.001,30.59,34.09,2.59
,-8.397,0.38,-5.047,-8.48,-0.562,-5.08,31.92,35.42,3.5
34452.0,-8.531,-0.744,-5.207,-7.971,-0.436,-5.705,36.47,43.61,5.74
,-8.382,-0.646,-5.207,-7.82,-0.474,-5.841,37.59,45.15,6.23
,-8.244,-0.632,-5.365,-7.65,-0.462,-5.863,38.01,46.41,6.23
,-8.069,-0.579,-5.559,-7.485,-0.538,-5.851,38.5,47.81,6.37
34528.0,-7.399,-0.562,-5.745,-6.782,-0.144,-7.038,39.2,52.08,8.82
,-7.55,-0.325,-5.721,-6.667,-0.641,-7.05,40.6,52.71,9.45
,-7.538,0.139,-6.14,-6.683,-0.603,-7.035,41.51,52.92,9.59
,-7.2,0.179,-6.851,-6.7,-0.23,-6.949,39.48,52.36,8.54
34604.0,-6.81,-0.079,-6.633,-8.004,-0.928,-5.422,35.42,51.03,7.0
,-6.839,-0.297,-6.174,-8.258,-0.811,-5.274,32.9,51.8,7.49
,-7.351,-0.572,-5.93,-8.069,-0.792,-5.236,32.06,53.76,9.1
,-7.473,-0.723,-5.52,-8.102,-0.835,-5.252,32.55,55.79,10.01
34679.0,-8.064,-0.761,-5.31,-8.043,-0.045,-7.222,51.66,71.75,21.7
,-7.956,-0.66,-5.54,-8.004,0.079,-7.576,54.04,75.46,23.87
,-7.971,-0.249,-6.272,-7.952,0.249,-7.858,55.86,78.89,25.13
,-7.949,-0.057,-6.726,-7.679,0.244,-8.16,54.11,81.06,26.32
34755.0,-7.346,0.175,-8.641,-6.009,-0.794,-9.162,35.21,75.81,24.5
,-7.05,0.199,-8.899,-5.693,-0.972,-9.383,31.36,73.01,23.94
,-6.638,-0.189,-9.158,-5.083,-1.529,-9.457,26.25,71.12,24.29
,-6.348,-0.653,-9.119,-5.083,-2.065,-8.959,20.44,67.76,24.15
34831.0,-5.468,-2.082,-8.729,-5.171,-1.448,-8.689,9.1,37.38,30.8
,-5.465,-1.744,-8.873,-4.91,-1.536,-8.497,13.3,27.65,32.55
,-5.434,-1.577,-8.662,-5.001,-1.424,-8.5,14.91,16.8,33.88
,-5.303,-1.393,-8.684,-5.116,-1.431,-8.634,14.91,6.58,33.25
34907.0,-5.142,-1.527,-8.603,-5.013,-1.141,-8.911,10.85,-38.36,26.74
,-5.307,-1.472,-8.619,-4.951,-1.036,-8.768,10.99,-47.25,25.13
,-5.106,-1.445,-8.653,-5.231,-0.871,-8.631,9.45,-55.44,23.87
,-5.044,-1.381,-8.725,-5.413,-0.684,-8.526,8.19,-63.77,21.63
34983.0,-5.698,-0.507,-8.521,-5.604,-1.24,-8.267,1.96,-91.28,13.37
,-5.741,-0.615,-8.533,-5.721,-1.369,-8.378,-1.4,-97.09,11.13
,-5.87,-0.907,-8.177,-6.073,-1.591,-8.236,-4.62,-102.83,9.45
,-5.817,-1.144,-8.153,-6.37,-1.565,-8.212,-6.58,-108.57,7.91
35058.0,-6.499,-1.409,-8.026,-6.626,-0.648,-7.849,3.78,-126.35,6.79
,-6.691,-1.144,-8.172,-6.762,-0.639,-7.545,4.27,-130.06,6.16
,-6.583,-0.986,-8.169,-7.038,-0.584,-7.404,2.87,-133.77,5.18
,-6.549,-0.763,-7.937,-7.229,-0.548,-7.327,1.47,-136.57,4.83
35134.0,-7.188,-0.694,-7.449,-7.385,-1.256,-6.564,-8.68,-146.93,-0.21
,-7.272,-0.936,-7.392,-7.322,-1.062,-6.607,-11.55,-148.47,-0.91
,-7.363,-1.144,-7.14,-7.38,-0.787,-6.59,-13.3,-150.36,-1.82
,-7.356,-1.287,-6.901,-7.516,-0.632,-6.382,-12.53,-152.11,-2.73
35209.0,-7.681,-0.431,-6.406,-8.536,-0.495,-4.87,-5.11,-158.62,-6.44
,-7.976,-0.316,-6.178,-8.634,-0.782,-4.353,-4.76,-158.83,-7.49
,-8.122,-0.261,-5.702,-8.727,-1.027,-4.08,-3.57,-158.27,-8.96
,-8.361,-0.275,-5.391,-8.794,-1.113,-3.69,-3.29,-157.43,-10.43
35285.0,-8.576,-1.089,-3.343,-9.409,-0.857,-1.919,-3.78,-143.71,-8.26
,-8.854,-1.177,-3.041,-9.026,-0.172,-2.187,-3.15,-138.46,-7.56
,-8.94,-0.988,-3.061,-9.031,0.132,-2.431,-1.47,-133.0,-6.79
,-9.232,-1.029,-2.843,-8.844,-0.06,-2.103,-3.78,-127.61,-6.51
35361.0,-8.588,-0.311,-1.407,-8.349,-0.491,-1.472,-15.33,-91.42,-9.38
,-8.576,-0.369,-0.993,-8.428,-0.584,-0.881,-18.48,-82.46,-9.03
,-8.703,-0.225,-1.211,-8.66,-0.861,-0.883,-21.7,-73.43,-10.36
,-8.607,-0.29,-1.697,-8.796,-0.761,-0.701,-26.53,-64.96,-11.76
35437.0,-8.717,-0.412,-0.725,-8.435,-0.916,-0.986,-29.19,-20.02,-10.01
,-8.672,-0.328,-0.902,-8.387,-1.122,-1.103,-34.86,-11.13,-10.5
,-8.65,-0.316,-0.785,-8.299,-1.165,-1.151,-40.88,-1.82,-10.85
,-8.447,-0.704,-0.811,-8.184,-0.871,-1.467,-45.01,7.98,-10.08
35512.0,-8.1,-0.754,-1.577,-16.42,-7.449,2.056,-44.1,49.56,1.47
,-8.236,-0.768,-1.697,-17.875,-7.167,3.128,-44.38,56.49,4.55
,-8.555,-1.005,-1.809,-11.821,-1.503,-0.237,-43.47,61.46,6.79
,-10.895,-2.714,-1.728,-8.287,1.924,-0.727,-40.67,60.13,9.8
35588.0,-8.823,0.404,0.026,-11.182,-0.751,1.096,-16.73,5.18,-0.63
,-10.445,-2.843,1.29,-11.761,-0.084,0.608,-34.86,11.62,3.71
,-9.828,-4.192,1.359,-10.625,1.058,-0.696,-23.17,24.5,7.63
,-10.335,-2.568,1.625,-8.593,1.917,-1.728,-5.04,40.39,15.12
35663.0,-8.49,0.675,-2.079,-8.784,1.153,-2.934,-29.75,66.85,12.6
,-9.359,-1.055,-1.704,-9.49,1.61,-2.654,-36.96,65.03,12.53
,-9.481,-1.393,-2.371,-9.828,0.945,-2.225,-34.37,62.37,11.27
,-8.93,-0.136,-2.869,-9.335,0.05,-2.446,-29.96,58.87,9.8
35739.0,-8.622,-0.591,-3.597,-9.505,-1.259,-4.477,-18.97,46.83,22.75
,-8.354,-1.019,-4.716,-9.612,-0.629,-4.166,-10.43,49.49,24.15
,-8.961,-1.957,-4.606,-9.576,0.11,-3.879,-3.57,49.98,24.36
,-9.639,-1.819,-4.633,-8.971,0.27,-3.759,2.1,48.3,22.82
35815.0,-9.014,0.17,-3.51,-9.471,1.101,-3.245,-31.99,37.73,7.98
,-9.265,0.258,-3.479,-9.418,1.366,-3.396,-28.77,36.4,8.75
,-9.361,0.663,-3.269,-9.502,1.194,-3.891,-23.73,35.0,11.41
,-9.335,0.72,-3.108,-9.177,0.225,-4.147,-17.29,33.95,14.7
35891.0,-8.93,-0.974,-4.19,-9.079,1.007,-4.166,-26.39,27.79,10.22
,-8.995,-1.467,-4.259,-9.234,0.948,-3.757,-21.91,27.23,10.29
,-9.277,-0.756,-4.396,-9.478,0.945,-3.733,-12.6,26.67,10.5
,-9.316,0.443,-4.458,-9.318,1.184,-3.577,-8.26,25.48,10.29
35967.0,-9.38,1.204,-3.276,-9.296,0.514,-3.731,-19.11,19.53,6.16
,-9.512,0.964,-3.422,-9.103,0.316,-3.585,-21.21,18.41,4.9
,-9.411,0.804,-3.398,-9.189,0.287,-3.561,-22.26,17.99,4.97
,-9.375,0.651,-3.518,-9.325,0.768,-3.632,-22.54,17.43,5.18
36042.0,-9.28,1.05,-3.754,-9.239,-0.299,-4.515,-15.54,16.24,5.32
,-9.21,0.66,-3.888,-9.162,0.438,-4.822,-16.73,16.1,5.46
,-9.026,-0.134,-4.015,-8.911,0.852,-4.927,-16.03,15.82,5.88
,-8.973,-0.646,-4.018,-9.273,1.079,-4.774,-10.71,15.89,7.14
36118.0,-9.107,1.486,-4.664,-9.344,1.278,-3.451,1.12,10.36,4.9
,-9.107,1.479,-4.116,-9.112,0.763,-3.331,-1.33,8.54,3.92
,-9.399,1.718,-3.86,-9.194,0.254,-3.175,-4.41,6.65,1.96
,-9.402,1.646,-3.592,-9.174,0.194,-3.3,-8.19,5.81,0.77
36194.0,-9.275,0.287,-3.558,-8.933,0.254,-4.487,-6.16,7.63,2.94
,-9.249,0.184,-3.917,-8.981,0.364,-4.448,-5.39,8.4,3.15
,-9.031,0.172,-4.25,-8.875,0.55,-4.173,-4.13,8.82,3.43
,-8.938,0.144,-4.398,-9.107,0.546,-3.958,-2.66,8.89,3.71
36270.0,-9.208,0.479,-3.833,-9.78,0.38,-3.104,5.6,9.31,6.44
,-9.069,0.177,-3.774,-9.244,2.197,-3.223,5.39,9.8,6.44
,-8.794,-0.156,-3.503,-9.273,2.211,-3.051,6.23,10.71,7.7
,-9.016,-0.491,-3.271,-9.253,1.433,-3.206,9.8,12.53,9.59
36345.0,-9.076,1.139,-3.388,-9.081,0.488,-4.116,-10.08,12.74,1.96
,-9.1,0.888,-3.51,-8.981,0.148,-4.19,-8.75,13.23,1.96
,-8.957,0.782,-3.723,-8.947,0.043,-4.156,-6.51,13.93,1.96
,-9.009,0.553,-3.893,-8.873,0.211,-4.274,-4.34,14.35,2.17
36421.0,-8.947,0.246,-4.329,-8.748,0.586,-4.539,7.28,15.68,4.27
,-9.0,0.498,-4.482,-8.815,0.648,-4.264,8.68,15.54,4.41
,-8.988,0.775,-4.659,-8.993,0.785,-3.905,8.75,14.98,4.2
,-8.875,0.735,-4.645,-9.122,0.574,-3.57,7.7,14.49,3.71
36496.0,-9.086,0.694,-3.503,-8.832,-0.56,-3.92,6.23,14.84,4.83
,-9.172,0.766,-3.408,-8.966,-0.124,-3.922,5.25,15.68,4.76
,-8.856,0.337,-3.635,-9.024,0.677,-3.941,3.01,16.59,4.62
,-8.691,-0.352,-3.719,-9.064,1.208,-4.281,2.45,18.13,5.18
36572.0,-8.686,0.993,-4.31,-8.909,0.833,-4.838,4.48,22.68,6.16
,-8.538,0.658,-4.551,-8.887,0.823,-4.621,3.85,22.82,6.44
,-8.574,0.766,-4.743,-8.796,0.675,-4.42,6.72,23.17,6.79
,-8.804,1.189,-5.147,-8.916,0.814,-4.233,9.31,23.31,6.86
36648.0,-8.77,1.484,-4.116,-8.847,0.668,-4.91,9.24,24.29,5.04
,-8.926,1.397,-4.192,-8.827,0.531,-5.26,5.6,24.64,3.5
,-8.885,1.036,-4.312,-8.82,0.297,-5.564,3.08,25.27,2.45
,-8.873,0.634,-4.513,-8.765,0.019,-5.786,3.64,25.9,2.24
36724.0,-8.701,-0.239,-5.918,-9.356,1.086,-5.001,23.17,28.91,6.51
,-8.885,-0.457,-5.592,-8.973,1.175,-4.903,30.03,29.4,7.98
,-9.237,0.342,-5.439,-8.964,1.007,-4.834,35.77,29.75,8.68
,-9.445,0.66,-5.138,-8.753,1.12,-4.848,35.56,30.03,8.12
36800.0,-8.729,1.397,-4.838,-8.626,-1.05,-5.059,28.07,31.08,4.27
,-8.818,1.981,-4.891,-8.485,-1.589,-4.886,27.09,31.64,3.01
,-9.316,2.931,-4.951,-8.588,-0.567,-4.891,25.2,32.2,0.35
,-9.466,1.756,-5.269,-8.794,-0.227,-4.949,16.73,32.13,-2.94
36875.0,-8.595,0.395,-5.147,-8.337,0.584,-4.984,30.87,39.34,0.07
,-8.662,0.792,-5.152,-8.394,1.11,-5.011,24.29,39.62,-2.38
,-8.557,0.56,-5.056,-8.559,1.407,-4.901,17.15,39.76,-4.76
,-8.43,0.352,-4.994,-8.624,1.359,-4.882,15.19,40.46,-5.95
36951.0,-8.67,0.957,-4.81,-8.555,-0.373,-4.865,14.49,46.2,-7.07
,-8.631,0.412,-4.836,-8.485,-0.543,-4.865,14.07,47.95,-6.51
,-8.646,0.048,-4.836,-8.457,-0.637,-5.004,15.26,49.77,-5.67
,-8.54,-0.232,-4.824,-8.366,-0.57,-5.427,17.08,51.8,-4.55
37027.0,-8.224,-0.567,-5.899,-7.538,-0.747,-6.561,25.34,60.55,-0.7
,-8.045,-0.799,-6.068,-7.437,-1.031,-6.327,26.46,61.53,0.14
,-8.014,-0.677,-6.454,-7.401,-1.036,-6.049,28.56,61.67,0.42
,-7.731,-0.44,-6.604,-7.507,-0.948,-5.623,29.54,61.32,1.05
37103.0,-7.629,-0.893,-5.2,-8.349,-1.73,-4.24,38.85,63.7,9.45
,-7.76,-1.031,-4.805,-8.667,-1.804,-4.654,41.3,65.38,11.97
,-7.892,-1.357,-4.489,-8.425,-1.723,-4.568,44.73,67.69,14.7
,-8.236,-1.505,-4.381,-8.361,-1.419,-5.059,49.14,70.63,17.85
37178.0,-8.232,-1.036,-5.468,-7.964,0.39,-7.93,81.06,84.35,29.75
,-8.031,-0.579,-6.167,-8.1,0.416,-8.576,83.86,85.89,30.03
,-7.954,-0.067,-6.722,-8.107,0.373,-8.753,83.58,86.59,28.63
,-7.894,0.129,-7.315,-7.798,0.311,-9.005,79.66,87.15,26.81
37254.0,-7.262,0.249,-9.064,-5.451,-0.469,-9.275,41.44,80.5,22.82
,-6.549,0.299,-9.363,-5.03,-0.447,-9.452,33.32,75.53,22.19
,-6.071,0.043,-9.414,-4.838,-0.658,-9.56,25.06,70.35,21.84
,-5.645,-0.266,-9.411,-4.429,-0.883,-9.194,17.15,63.35,20.37
37329.0,-4.903,-0.902,-9.198,-4.688,-1.237,-8.638,4.69,24.29,19.95
,-5.293,-0.864,-9.031,-4.769,-1.584,-8.495,2.94,12.53,19.25
,-5.547,-1.01,-9.256,-4.872,-1.565,-8.526,-2.03,-1.75,17.43
,-4.886,-1.23,-8.981,-4.566,-1.546,-8.938,-6.02,-14.49,17.78
37405.0,-4.625,-1.685,-8.823,-5.013,-0.84,-8.543,4.83,-66.08,21.7
,-4.597,-1.431,-8.746,-5.379,-0.852,-8.614,6.86,-75.46,19.25
,-4.841,-1.031,-8.61,-5.54,-0.677,-8.734,5.39,-83.51,16.73
,-4.903,-0.826,-8.5,-5.631,-0.584,-8.78,1.68,-90.3,14.42
37481.0,-5.64,-0.816,-8.677,-5.714,-1.589,-8.418,-14.07,-117.04,0.14
,-5.664,-0.998,-8.528,-5.808,-1.785,-8.385,-15.75,-120.68,-1.82
,-5.666,-1.132,-8.509,-5.956,-2.022,-8.126,-16.03,-124.46,-3.64
,-5.705,-1.378,-8.519,-6.133,-1.823,-8.119,-16.8,-127.68,-5.11
37557.0,-6.502,-1.766,-7.868,-7.066,-0.663,-7.545,-5.25,-135.03,-3.5
