Timestamp,AccX,AccY,AccZ,GyroX,GyroY,GyroZ,MagnX,MagnY,MagnZ
0.0,-8.581,2.204,-4.424,-8.636,2.146,-4.374,2.66,1.54,0.84
,-8.598,2.245,-4.417,-8.65,2.123,-4.422,2.45,1.61,0.98
,-8.61,2.175,-4.401,-8.593,2.233,-4.444,2.73,1.75,0.84
,-8.576,2.245,-4.338,-8.562,2.29,-4.499,3.01,1.68,0.91
75.0,-8.543,2.228,-4.508,-8.586,2.192,-4.36,3.43,1.54,0.91
,-8.564,2.233,-4.515,-8.595,2.242,-4.372,3.15,1.47,0.84
,-8.545,2.194,-4.477,-8.612,2.206,-4.401,2.87,1.54,0.91
,-8.612,2.173,-4.422,-8.634,2.173,-4.444,2.87,1.61,0.91
151.0,-8.636,2.106,-4.53,-8.545,2.276,-4.539,2.45,1.54,0.7
,-8.571,2.168,-4.551,-8.603,2.257,-4.453,3.01,1.47,0.77
,-8.516,2.29,-4.611,-8.607,2.216,-4.403,3.08,1.26,0.84
,-8.512,2.285,-4.621,-8.598,2.163,-4.357,2.45,1.26,0.77
227.0,-8.598,2.192,-4.367,-8.545,2.216,-4.369,2.31,1.05,0.28
,-8.579,2.259,-4.341,-8.641,2.161,-4.379,2.73,1.12,0.35
,-8.569,2.309,-4.424,-8.576,2.151,-4.302,2.45,1.12,0.21
,-8.531,2.304,-4.403,-8.588,2.161,-4.274,2.1,1.26,0.07
302.0,-8.641,2.166,-4.293,-8.581,2.331,-4.547,2.94,1.54,0.14
,-8.631,2.194,-4.336,-8.514,2.302,-4.637,3.01,1.75,0.0
,-8.643,2.151,-4.463,-8.524,2.245,-4.625,2.94,1.82,0.14
,-8.593,2.223,-4.465,-8.497,2.187,-4.585,3.22,1.61,0.0
378.0,-8.595,2.151,-4.48,-8.607,2.221,-4.477,1.96,1.05,-0.14
,-8.605,2.185,-4.468,-8.574,2.314,-4.489,2.31,0.84,-0.21
,-8.593,2.139,-4.417,-8.598,2.211,-4.413,2.59,0.84,-0.21
,-8.626,2.168,-4.463,-8.581,2.178,-4.389,2.8,0.77,-0.14
453.0,-8.66,2.101,-4.384,-8.689,1.991,-4.377,2.59,0.7,-0.14
,-8.624,2.156,-4.341,-8.605,2.096,-4.398,3.01,0.63,0.0
,-8.617,2.087,-4.293,-8.559,2.268,-4.456,3.01,0.7,0.0
,-8.638,2.048,-4.312,-8.536,2.328,-4.448,2.87,0.77,-0.07
529.0,-8.653,2.17,-4.396,-8.607,2.123,-4.269,1.61,0.98,-0.21
,-8.619,2.094,-4.348,-8.698,2.07,-4.35,1.96,1.19,-0.07
,-8.617,2.063,-4.307,-8.674,2.027,-4.338,2.8,1.19,0.07
,-8.629,2.044,-4.348,-8.622,2.082,-4.372,3.36,1.19,0.21
605.0,-8.636,2.201,-4.401,-8.677,1.993,-4.393,4.41,1.4,0.28
,-8.514,2.288,-4.369,-8.648,2.067,-4.456,3.99,1.82,0.35
,-8.579,2.168,-4.398,-8.612,2.142,-4.496,3.15,2.03,0.21
,-8.643,2.041,-4.415,-8.574,2.175,-4.46,2.94,1.82,0.28
681.0,-8.605,2.137,-4.465,-8.646,2.132,-4.408,2.8,1.75,0.35
,-8.646,2.082,-4.456,-8.6,2.111,-4.393,2.87,1.61,0.42
,-8.629,2.044,-4.456,-8.617,2.06,-4.391,3.29,1.4,0.49
,-8.61,2.089,-4.468,-8.603,2.101,-4.386,3.71,1.47,0.77
757.0,-8.624,2.178,-4.377,-8.598,2.158,-4.448,3.85,1.47,0.63
,-8.607,2.163,-4.403,-8.569,2.149,-4.422,3.85,1.54,0.7
,-8.636,2.12,-4.403,-8.586,2.101,-4.408,3.78,1.47,0.49
,-8.641,2.125,-4.42,-8.646,2.115,-4.386,3.85,1.4,0.7
832.0,-8.67,2.113,-4.405,-8.715,1.989,-4.381,3.01,1.68,0.7
,-8.684,2.063,-4.422,-8.677,1.986,-4.427,2.66,1.89,0.56
,-8.691,2.02,-4.441,-8.552,2.024,-4.396,2.52,1.61,0.49
,-8.693,1.991,-4.444,-8.588,2.115,-4.458,2.52,1.75,0.63
908.0,-8.586,2.144,-4.468,-8.614,2.173,-4.396,2.73,1.68,0.98
,-8.619,2.185,-4.417,-8.574,2.187,-4.355,2.45,1.68,0.91
,-8.614,2.245,-4.456,-8.502,2.233,-4.379,2.45,1.68,0.77
,-8.588,2.197,-4.341,-8.54,2.343,-4.47,2.31,1.75,0.7
984.0,-8.622,2.285,-4.46,-8.76,1.833,-4.506,2.38,1.19,-0.49
,-8.538,2.211,-4.276,-8.619,1.876,-4.578,1.96,1.05,-0.63
,-8.614,2.228,-4.279,-8.478,2.118,-4.585,1.68,1.54,-0.56
,-8.725,2.056,-4.42,-8.425,2.252,-4.551,0.98,1.54,-0.56
1060.0,-8.528,2.233,-4.513,-8.583,2.144,-4.357,4.06,-0.14,0.14
,-8.593,2.201,-4.441,-8.6,2.264,-4.52,3.36,0.07,0.07
,-8.705,2.027,-4.365,-8.6,2.261,-4.472,3.43,0.14,0.07
,-8.689,2.034,-4.319,-8.588,2.201,-4.422,4.69,-0.07,0.07
1135.0,-8.622,2.161,-4.283,-8.614,2.773,-4.496,5.46,-0.42,-0.28
,-8.76,1.914,-4.281,-8.557,2.654,-4.463,5.81,-0.77,0.21
,-8.708,1.981,-4.405,-8.538,2.06,-4.305,8.96,-1.47,0.98
,-8.387,2.312,-4.446,-8.969,1.565,-4.319,11.34,-1.68,1.68
1211.0,-9.033,0.921,-4.257,-9.009,1.601,-4.204,18.97,-4.34,8.54
,-8.667,1.082,-4.578,-9.765,0.373,-3.654,24.71,-5.04,9.73
,-8.126,1.764,-4.58,-9.883,-0.677,-3.503,27.65,-5.11,10.29
,-8.342,2.096,-4.484,-9.677,-0.998,-3.613,24.5,-4.34,10.64
1286.0,-9.237,0.053,-4.159,-8.452,2.309,-4.975,32.76,-4.62,18.76
,-8.782,1.651,-4.74,-8.593,2.051,-4.908,35.77,-4.27,19.11
,-8.586,2.728,-5.121,-8.516,2.161,-5.027,29.54,-3.36,18.13
,-8.492,2.785,-5.193,-8.344,2.434,-5.099,20.16,-2.45,17.71
1362.0,-8.083,3.058,-5.3,-8.636,2.486,-4.195,14.0,-3.78,16.94
,-8.033,3.463,-5.207,-8.71,2.228,-4.231,7.42,-2.8,14.21
,-8.251,3.501,-4.915,-8.567,2.319,-4.3,-0.7,-1.75,11.76
,-8.334,3.07,-4.597,-8.536,2.496,-4.391,-8.33,-0.63,9.8
1438.0,-8.478,2.407,-4.202,-8.861,1.299,-3.183,-20.51,2.59,5.95
,-8.631,2.182,-3.874,-8.997,1.488,-3.046,-23.87,3.78,5.25
,-8.902,1.811,-3.661,-8.949,1.697,-2.867,-26.6,4.76,4.97
,-8.894,1.452,-3.348,-9.148,1.9,-2.879,-27.72,5.81,4.76
1514.0,-9.162,1.668,-2.728,-8.124,3.506,-4.233,-21.91,10.57,9.45
,-8.997,1.78,-3.01,-8.48,3.056,-3.821,-16.1,11.13,12.39
,-8.67,2.319,-3.568,-8.945,1.673,-3.343,-9.94,12.11,14.77
,-8.327,3.08,-4.116,-9.452,0.464,-2.962,-8.96,13.72,15.54
1590.0,-9.598,-0.103,-3.415,-8.413,1.168,-6.413,-12.6,15.05,23.87
,-9.129,0.215,-4.02,-8.387,1.464,-6.877,-2.52,14.35,27.37
,-8.961,0.866,-5.092,-8.461,2.209,-7.136,2.87,13.3,30.45
,-8.72,1.132,-5.977,-8.277,2.812,-7.813,3.01,11.83,33.18
1665.0,-7.985,2.529,-7.947,-9.227,0.775,-6.882,-15.68,1.61,40.81
,-8.299,1.512,-8.076,-9.476,0.998,-6.384,-24.08,-1.68,42.28
,-8.837,0.581,-7.693,-9.586,1.527,-6.245,-24.64,-5.88,43.96
,-9.294,0.725,-7.356,-9.531,2.752,-6.19,-22.19,-9.87,45.78
1741.0,-9.998,4.111,-5.977,-11.529,5.587,-2.503,-22.82,-25.55,58.1
,-11.196,4.893,-5.743,-10.952,3.252,-1.235,-29.47,-26.88,56.42
,-12.608,4.728,-4.568,-11.419,0.792,-0.55,-39.69,-27.16,52.64
,-12.919,5.257,-3.661,-11.168,-1.024,0.431,-40.39,-27.3,51.45
1817.0,-9.569,-1.682,1.579,-7.234,2.649,0.469,-29.05,-7.35,22.26
,-9.442,-1.783,1.74,-7.521,4.439,-1.821,-12.46,1.05,13.58
,-8.406,-0.546,1.359,-8.868,1.003,-3.125,2.17,11.27,3.78
,-5.901,1.522,0.928,-8.083,-2.3,-5.585,6.93,30.52,-5.6
1893.0,-7.006,-4.068,-6.935,-6.341,-1.926,-7.169,-14.14,92.75,-71.05
,-6.822,-3.135,-7.487,-6.509,-0.763,-6.839,9.03,95.97,-75.67
,-6.616,-2.989,-7.26,-6.411,0.199,-6.545,22.12,93.59,-79.73
,-6.48,-2.438,-7.698,-6.336,0.124,-6.03,32.13,87.01,-83.02
1968.0,-6.913,-0.17,-6.085,-9.052,-2.17,-6.121,42.56,47.53,-93.31
,-7.31,-0.357,-6.435,-9.256,-1.467,-6.93,52.43,37.52,-92.12
,-7.502,-0.536,-6.748,-8.966,0.883,-7.385,63.14,27.16,-90.65
,-8.177,-1.541,-6.193,-7.535,4.475,-8.007,74.27,17.29,-87.29
2044.0,-5.834,8.191,-8.09,-6.978,8.457,-7.523,173.11,-28.14,-53.76
,-4.609,11.06,-8.22,-7.815,5.867,-6.827,160.79,-28.35,-57.54
,-5.073,11.866,-8.416,-8.442,4.212,-6.265,127.96,-28.7,-64.61
,-6.047,10.598,-7.918,-8.751,4.728,-6.068,82.04,-30.8,-71.61
2119.0,-9.239,5.465,-5.587,-6.181,6.1,-3.582,17.92,-28.91,-47.32
,-8.299,6.504,-5.339,-7.873,11.323,-5.097,21.91,-32.34,-34.44
,-6.133,6.837,-4.415,-8.543,18.188,-5.87,22.05,-33.32,-22.12
,-5.255,5.846,-3.917,-9.909,18.801,-2.534,21.7,-31.99,-10.5
2195.0,-12.046,9.325,3.86,-6.329,6.825,1.201,-68.46,-46.9,34.23
,-19.581,3.415,1.989,-2.312,-2.154,-2.288,-36.82,-19.67,37.03
,-23.386,1.505,0.311,-6.162,-3.587,-4.783,33.32,3.43,36.68
,-12.582,10.096,2.197,-9.978,-2.249,-6.767,84.49,8.96,45.64
2271.0,-8.825,-0.208,-7.583,-9.82,0.206,-7.619,-2.38,27.23,8.68
,-6.88,1.457,-7.167,-8.801,-0.952,-7.715,-26.74,25.06,0.98
,-7.385,2.173,-6.791,-7.854,-1.031,-7.968,-45.64,23.31,2.17
,-9.541,1.232,-6.913,-7.983,0.249,-7.748,-52.64,20.93,5.67
2347.0,-8.626,1.003,-6.966,-8.842,0.749,-4.649,-10.43,7.07,22.96
,-9.079,0.735,-6.162,-8.562,0.78,-4.384,-19.67,5.74,21.35
,-8.835,0.428,-5.276,-8.483,0.601,-3.946,-23.52,4.83,21.7
,-8.713,0.665,-4.87,-8.825,0.419,-3.733,-22.68,4.62,23.1
2422.0,-8.954,0.632,-3.522,-7.964,2.235,-4.803,-16.24,5.39,29.26
,-8.772,1.046,-3.757,-7.794,2.326,-4.886,-11.48,6.09,31.08
,-8.492,1.534,-4.178,-7.856,2.548,-4.731,-8.89,7.21,32.69
,-8.162,2.027,-4.621,-8.208,2.539,-4.477,-8.96,8.12,34.02
2498.0,-8.282,2.101,-4.214,-8.557,0.483,-4.484,-17.85,12.32,37.66
,-8.641,1.488,-3.597,-8.792,0.9,-4.867,-17.92,13.51,39.06
,-8.964,0.622,-3.63,-8.964,0.83,-5.14,-15.82,13.09,41.79
,-8.842,0.258,-3.939,-9.112,0.428,-5.652,-10.57,12.6,45.01
2574.0,-8.969,0.096,-6.301,-9.77,-1.23,-8.234,-7.98,10.78,56.91
,-8.478,0.608,-6.949,-8.442,0.335,-7.569,-3.78,9.24,60.34
,-8.174,1.385,-7.894,-9.32,2.383,-8.004,-2.24,7.56,63.42
,-8.22,1.637,-8.593,-9.739,5.068,-8.308,-6.3,4.83,66.08
2650.0,-11.481,6.463,-7.353,-12.455,-2.156,-4.949,11.27,-13.09,85.89
,-11.149,4.798,-6.762,-11.857,-1.206,-4.681,-21.84,-10.85,74.34
,-11.431,2.175,-6.071,-10.754,1.132,-4.322,-50.4,-9.52,63.91
,-11.878,-0.799,-5.133,-9.481,2.63,-3.699,-65.03,-9.87,56.98
2726.0,-7.94,2.398,-2.709,-6.43,2.496,-1.464,-24.71,-17.5,30.03
,-6.863,1.206,-1.673,-7.083,4.403,-3.824,-34.16,-12.74,15.75
,-5.717,0.577,-0.603,-7.617,1.055,-5.824,-41.44,-3.78,2.87
,-5.427,1.421,-1.721,-6.76,-1.378,-5.798,-48.09,12.04,-7.84
2801.0,-7.495,-2.766,-4.542,-8.648,-4.932,-4.341,-86.1,77.07,-78.75
,-7.748,-5.741,-4.123,-8.162,-1.534,-4.755,-56.63,70.56,-77.28
,-7.581,-8.205,-3.805,-6.827,0.603,-5.633,-12.25,64.4,-73.99
,-8.107,-8.078,-4.41,-7.387,1.586,-5.951,44.73,59.92,-67.13
2877.0,-7.911,1.608,-6.157,-7.241,2.541,-7.222,126.7,43.33,-66.15
,-8.538,1.419,-6.138,-6.889,4.135,-7.138,121.03,37.03,-72.31
,-8.019,1.139,-6.662,-6.497,5.973,-8.418,117.6,31.29,-78.19
,-7.478,1.271,-6.925,-5.875,6.042,-7.985,116.2,26.67,-84.07
2952.0,-3.932,6.904,-10.907,-7.428,7.136,-7.399,82.88,-10.99,-93.31
,-6.815,5.714,-8.732,-8.251,7.758,-6.892,73.22,-23.8,-88.34
,-7.028,4.676,-7.935,-8.995,8.763,-6.633,68.25,-36.26,-79.31
,-6.935,5.937,-7.935,-9.091,9.261,-6.54,76.93,-45.15,-68.95
3028.0,-8.851,8.825,-6.502,-9.129,2.582,-4.015,28.63,-62.65,-40.04
,-9.536,7.246,-5.686,-8.844,4.826,-4.41,8.82,-62.93,-38.5
,-9.708,5.343,-5.475,-6.53,8.485,-4.74,1.33,-62.86,-34.23
,-8.909,3.676,-4.762,-5.011,9.184,-4.568,2.87,-60.76,-26.95
3104.0,-5.102,9.722,-4.527,-15.934,6.463,-3.429,27.72,-26.39,12.39
,-7.026,9.749,-3.427,-12.905,-0.026,-4.362,7.98,-11.27,11.97
,-9.619,10.4,-2.45,-8.603,-2.424,-4.513,-2.1,1.96,15.75
,-14.061,11.204,-2.754,-5.86,-1.653,-6.549,-1.12,6.86,26.32
3180.0,-4.874,0.136,-7.459,-9.378,0.847,-4.487,69.23,10.08,52.08
,-5.925,1.218,-6.578,-8.614,3.262,-4.831,49.91,9.66,46.34
,-7.373,-0.488,-5.532,-8.399,3.649,-5.449,25.62,5.6,36.12
,-9.438,-1.488,-4.441,-8.172,2.845,-5.463,16.45,4.27,26.25
3255.0,-8.327,2.175,-5.128,-8.406,-0.199,-5.669,-2.1,14.84,21.56
,-8.77,1.309,-5.13,-8.882,-0.189,-5.523,-3.85,16.24,21.07
,-8.646,0.266,-5.305,-8.66,0.313,-5.391,-8.96,16.31,19.81
,-8.428,-0.227,-5.568,-8.375,0.742,-5.3,-12.46,15.82,18.2
3331.0,-8.409,1.05,-5.552,-8.562,1.053,-4.776,-4.13,11.27,23.94
,-8.179,1.309,-5.461,-8.6,0.998,-4.769,-3.78,10.78,24.64
,-8.031,1.22,-5.389,-8.282,0.986,-4.518,-5.25,11.13,24.15
,-8.43,1.098,-5.023,-8.402,0.902,-4.549,-8.33,11.62,23.17
3407.0,-8.83,0.68,-4.654,-8.21,0.833,-5.872,-13.65,13.86,26.32
,-8.545,0.995,-5.43,-7.956,0.857,-5.968,-9.73,12.95,28.42
,-8.064,1.357,-5.678,-7.952,0.735,-5.776,-8.61,13.72,29.33
,-7.913,1.218,-5.757,-8.567,0.689,-5.549,-12.32,14.49,29.19
3483.0,-8.49,0.809,-5.348,-8.65,0.993,-6.061,-20.09,12.46,34.09
,-8.191,0.749,-5.123,-8.497,0.838,-6.289,-17.92,12.18,35.98
,-8.49,0.792,-5.2,-8.083,0.715,-6.372,-15.75,11.76,38.29
,-8.598,1.125,-5.592,-8.16,0.747,-6.53,-13.86,11.62,39.97
3559.0,-8.256,0.708,-6.446,-8.387,0.23,-7.16,-21.07,8.05,47.74
,-8.445,0.672,-6.743,-8.052,0.603,-6.671,-21.56,6.93,50.54
,-8.402,0.581,-6.815,-8.538,0.526,-6.612,-22.82,5.67,52.85
,-8.074,0.177,-6.636,-9.572,1.053,-6.537,-24.99,4.83,55.16
3634.0,-10.026,1.644,-6.829,-10.184,2.769,-6.856,-14.56,-3.43,67.97
,-9.734,2.235,-6.841,-9.954,2.735,-6.619,-18.34,-2.94,66.01
,-9.612,2.584,-6.978,-9.84,2.465,-6.19,-23.03,-1.75,62.16
,-9.887,2.747,-7.057,-9.782,2.69,-5.91,-29.68,-0.91,56.91
3710.0,-9.447,3.168,-5.616,-8.382,0.955,-1.452,-62.65,-4.13,31.22
,-9.493,3.431,-5.037,-8.035,-0.696,1.003,-68.39,-4.62,23.73
,-9.548,3.508,-4.463,-5.843,-0.062,3.139,-74.27,-5.53,15.12
,-9.098,2.984,-3.159,-7.126,1.615,1.027,-79.94,-7.28,5.18
3785.0,-8.466,2.891,-3.34,-8.366,-4.35,-4.683,-84.28,37.31,-44.87
,-7.837,1.785,-3.637,-8.387,-6.602,-4.714,-87.36,52.43,-65.59
,-8.38,1.237,-4.13,-8.294,-6.298,-5.004,-79.66,64.47,-78.12
,-8.512,-0.876,-4.424,-8.232,-4.011,-4.862,-69.93,68.04,-82.04
3861.0,-7.569,-0.637,-4.748,-7.504,2.407,-5.843,101.01,42.42,-70.28
,-6.999,2.702,-5.846,-7.284,1.06,-5.796,111.3,39.13,-72.73
,-6.772,4.848,-6.849,-7.538,1.187,-5.906,98.7,35.7,-79.52
,-7.112,4.171,-6.387,-7.475,3.104,-6.523,72.03,30.1,-88.06
3937.0,-7.461,5.02,-7.303,-6.533,3.793,-7.045,79.8,-5.74,-95.06
,-6.418,6.348,-7.875,-6.317,3.513,-6.04,71.54,-12.67,-102.06
,-6.245,5.379,-7.298,-6.435,2.749,-4.913,56.07,-20.79,-108.29
,-6.478,4.503,-7.961,-7.731,2.599,-5.171,44.31,-30.73,-111.09
4013.0,-8.136,3.211,-5.293,-9.847,8.196,-4.654,51.45,-64.82,-58.8
,-8.837,4.874,-5.293,-9.619,8.256,-4.334,67.83,-67.41,-44.52
,-9.497,6.298,-5.027,-10.098,8.658,-3.049,79.38,-68.18,-32.76
,-9.617,7.7,-5.19,-13.695,8.174,1.931,86.03,-67.41,-24.85
4088.0,-14.221,12.95,-5.178,-6.882,4.949,-5.061,97.44,-18.06,13.37
,-5.528,19.239,-9.916,-9.672,2.603,-3.941,114.31,11.69,36.47
,-3.886,16.085,-9.045,-11.768,3.659,-3.623,56.42,27.02,26.95
,-5.516,9.703,-6.858,-9.641,10.201,-4.058,-2.24,22.89,13.16
4164.0,-7.253,12.757,-4.527,-8.847,3.338,-5.173,1.68,12.04,18.27
,-7.265,9.447,-4.654,-8.172,5.243,-5.633,-54.67,15.47,1.96
,-9.105,5.939,-4.647,-8.028,8.555,-6.164,-86.87,17.43,-7.42
,-9.852,3.855,-4.795,-7.971,10.491,-5.714,-89.25,17.57,-6.23
4240.0,-8.356,9.562,-5.989,-9.761,0.72,-5.815,-111.93,35.28,3.92
,-8.67,6.25,-5.896,-9.404,2.367,-6.267,-143.01,33.95,4.55
,-9.591,2.8,-5.721,-8.906,4.633,-6.521,-150.15,29.47,8.96
,-9.919,0.885,-5.786,-8.418,5.724,-6.58,-131.88,23.73,16.8
4316.0,-8.148,5.056,-6.384,-7.693,3.094,-5.547,-60.34,1.89,51.59
,-8.122,3.769,-6.056,-7.667,3.34,-5.525,-66.85,-5.32,55.09
,-8.382,2.905,-5.743,-8.019,3.044,-5.616,-65.59,-12.46,60.06
,-8.177,2.474,-5.372,-8.248,2.594,-5.559,-57.89,-18.06,65.8
4392.0,-8.165,2.221,-5.425,-8.33,1.62,-4.676,-42.21,-28.28,69.72
,-7.76,2.711,-5.619,-7.961,0.799,-4.424,-38.64,-29.47,67.69
,-7.167,2.991,-5.444,-7.858,0.067,-4.147,-41.44,-29.05,63.21
,-7.566,2.388,-5.02,-7.715,-0.309,-3.994,-51.31,-28.91,59.5
4467.0,-7.327,0.196,-4.015,-6.971,1.249,-3.053,-31.71,-31.29,53.34
,-6.868,1.728,-4.257,-6.901,0.175,-2.804,-22.68,-28.56,50.68
,-6.729,2.357,-3.692,-6.626,-0.526,-2.556,-23.73,-25.06,46.48
,-7.059,2.261,-3.448,-6.535,-0.672,-2.534,-29.47,-22.05,42.21
4543.0,-6.884,0.041,-2.869,-7.124,2.132,-3.278,2.94,-7.63,26.6
,-7.038,0.651,-2.979,-7.913,2.154,-3.247,11.97,-5.67,24.36
,-6.77,0.335,-2.304,-7.514,2.618,-3.518,18.62,-1.96,21.0
,-7.023,1.101,-3.137,-7.038,3.723,-3.81,32.27,4.06,20.37
4618.0,-7.37,5.013,-3.606,-9.746,2.175,-2.548,25.76,19.67,-20.51
,-9.062,4.882,-3.039,-11.125,0.323,-2.785,7.77,20.93,-32.34
,-9.734,3.333,-2.386,-11.153,-0.168,-3.489,-7.42,19.6,-39.48
,-9.227,2.568,-2.661,-11.749,2.95,-2.965,-12.74,18.76,-46.41
4694.0,-13.735,8.971,-0.108,-2.371,-0.916,-8.406,67.34,18.62,-58.31
,-18.215,14.393,-2.955,-2.465,0.029,-9.663,68.53,23.03,-53.27
,-14.75,9.134,-5.918,-6.884,0.416,-8.435,29.54,19.67,-40.95
,-7.55,1.06,-5.87,-9.383,0.342,-7.318,11.55,13.72,-37.17
4770.0,-9.995,-0.519,-6.592,-8.918,-1.586,-5.968,7.98,1.33,-56.56
,-10.459,-1.132,-6.028,-9.043,-0.246,-5.855,3.01,-2.17,-54.67
,-9.935,-1.694,-5.681,-9.395,1.168,-5.559,8.19,-5.46,-45.5
,-9.387,-2.024,-6.025,-9.399,1.749,-5.238,20.93,-9.45,-35.42
4846.0,-8.677,2.324,-4.886,-8.947,0.555,-3.159,45.08,-16.8,-21.07
,-8.332,2.178,-4.779,-9.012,0.383,-2.924,40.11,-17.71,-19.39
,-8.61,1.716,-4.355,-9.098,1.412,-2.881,37.87,-18.41,-17.43
,-9.177,1.551,-3.886,-8.906,2.252,-2.955,39.83,-19.46,-14.77
4921.0,-8.961,2.233,-2.97,-8.835,2.297,-3.601,44.31,-14.91,-8.89
,-9.182,1.577,-2.95,-8.835,2.659,-4.176,38.29,-13.09,-8.19
,-9.146,1.117,-2.907,-8.636,2.501,-4.716,38.78,-11.34,-7.21
,-8.686,1.701,-2.941,-8.471,2.419,-5.549,43.4,-8.96,-6.65
4997.0,-8.031,3.025,-5.7,-8.43,3.355,-2.855,33.11,-5.67,-11.27
,-7.767,3.678,-5.353,-8.366,2.513,-2.41,29.61,-4.55,-13.51
,-7.722,3.912,-4.736,-8.337,2.044,-2.213,22.68,-3.01,-16.59
,-7.844,3.766,-3.522,-8.815,1.866,-2.271,14.07,-0.21,-20.09
5073.0,-8.88,1.345,-2.048,-8.272,5.867,-2.316,-4.41,20.44,-31.92
,-8.866,1.577,-1.955,-8.208,6.994,-2.448,-1.82,24.43,-32.55
,-8.066,2.568,-1.984,-8.588,6.779,-2.781,-0.91,29.82,-35.98
,-8.205,3.939,-1.938,-8.437,5.542,-3.553,-3.78,35.14,-40.81
5149.0,-8.552,3.726,-3.948,-12.084,1.275,-6.839,-69.44,46.83,-54.67
,-9.813,2.324,-5.434,-9.895,3.58,-7.942,-67.06,44.17,-49.14
,-10.548,2.45,-7.217,-7.272,6.6,-7.93,-54.95,39.76,-44.03
,-10.849,2.826,-7.248,-7.93,8.557,-7.241,-42.77,36.68,-42.42
5224.0,-8.842,7.669,-7.547,-8.949,8.287,-6.521,-33.88,14.77,3.01
,-8.133,6.09,-7.179,-8.947,5.765,-5.647,-49.14,12.18,4.27
,-7.935,7.054,-7.131,-8.947,3.046,-6.126,-50.05,15.4,10.43
,-8.696,8.777,-6.901,-9.533,1.345,-5.899,-59.85,15.61,17.78
5300.0,-9.615,0.864,-5.64,-7.731,6.695,-6.391,-58.87,-15.82,53.48
,-8.985,1.922,-5.595,-7.552,5.619,-6.174,-27.86,-20.37,63.84
,-8.203,4.082,-6.152,-7.717,3.329,-5.197,-7.07,-22.96,72.8
,-7.356,6.011,-6.518,-8.028,1.572,-4.779,-4.62,-22.89,78.33
5376.0,-7.928,0.72,-4.307,-6.42,3.601,-4.068,-41.58,-30.66,88.55
,-7.87,1.01,-4.523,-6.379,3.448,-3.951,-26.18,-33.18,93.38
,-7.519,1.945,-4.542,-6.829,3.206,-3.891,-12.46,-35.0,96.32
,-7.152,3.238,-4.501,-6.753,3.013,-3.96,-3.5,-37.38,96.67
5451.0,-6.643,3.175,-4.001,-7.667,1.199,-2.876,-22.05,-30.8,81.83
,-6.951,3.223,-3.96,-7.818,0.584,-2.982,-24.29,-28.28,77.14
,-7.038,2.924,-3.836,-7.566,-0.447,-2.357,-27.44,-25.62,71.54
,-7.011,2.087,-3.211,-7.363,-0.876,-2.558,-31.92,-21.21,64.33
5527.0,-7.061,-0.077,-2.735,-7.071,1.173,-3.19,2.8,-5.18,40.32
,-7.014,0.318,-2.273,-9.586,0.991,-4.183,11.48,-0.56,34.72
,-7.243,-0.574,-1.95,-9.385,2.568,-4.233,17.57,3.92,30.94
,-7.341,0.007,-3.924,-9.095,3.391,-3.592,43.26,12.74,33.74
5603.0,-10.05,4.803,-2.551,-11.479,-4.164,-4.061,47.67,7.28,-29.19
,-9.323,4.676,-2.678,-11.876,-4.025,-4.171,25.55,12.46,-49.7
,-9.765,3.613,-3.276,-10.675,0.943,-5.001,-6.51,18.69,-65.1
,-9.926,-0.275,-4.13,-9.576,5.884,-6.025,-26.46,20.44,-68.32
5679.0,-9.49,7.487,-6.219,-9.627,-0.225,-6.078,59.85,4.97,-61.6
,-10.603,7.81,-5.307,-7.449,-4.549,-6.301,38.64,5.25,-65.03
,-12.266,8.411,-4.743,-6.947,-3.556,-6.468,30.03,6.23,-66.43
,-12.362,6.688,-6.238,-7.787,-0.744,-5.951,22.33,6.16,-64.82
5754.0,-8.926,0.543,-5.116,-8.122,1.512,-4.75,54.18,-5.18,-45.99
,-9.974,1.015,-4.513,-8.488,1.986,-5.066,35.98,-4.97,-51.38
,-9.902,1.563,-4.532,-8.713,1.914,-4.898,21.35,-5.53,-51.38
,-8.495,1.555,-4.587,-8.768,1.653,-4.826,16.03,-5.25,-46.83
5830.0,-8.504,1.493,-4.642,-8.514,2.022,-3.924,15.33,-2.87,-34.72
,-8.83,1.675,-4.771,-8.911,1.201,-3.376,11.13,-2.52,-34.02
,-8.935,1.661,-4.585,-9.519,0.378,-3.197,5.67,-2.87,-34.09
,-8.983,1.73,-4.338,-9.392,-0.045,-3.475,3.43,-3.08,-33.04
5906.0,-9.129,0.299,-4.097,-8.684,2.259,-4.238,14.35,-1.19,-22.33
,-8.775,1.192,-4.463,-8.971,1.653,-4.563,20.09,-0.14,-22.33
,-8.311,2.137,-4.525,-8.6,1.33,-4.173,20.09,1.19,-22.61
,-8.1,2.678,-4.113,-8.224,1.797,-4.133,14.77,2.45,-22.82
5982.0,-7.983,2.369,-3.743,-9.005,1.237,-2.539,20.37,3.08,-23.17
,-8.717,2.429,-3.106,-8.914,1.249,-2.948,17.08,5.18,-23.52
,-9.136,1.754,-2.592,-8.933,1.326,-3.137,11.97,6.58,-24.08
,-8.854,1.235,-2.209,-8.662,1.649,-3.209,9.1,9.31,-25.76
6057.0,-8.303,2.41,-2.85,-8.497,4.235,0.357,-11.83,26.39,-37.52
,-7.99,3.434,-1.797,-9.572,3.498,0.323,-16.73,32.06,-41.3
,-8.248,4.319,-0.744,-11.17,2.517,-1.108,-23.03,37.94,-44.31
,-8.574,4.681,-0.223,-11.723,2.804,-3.307,-29.26,42.77,-45.71
6133.0,-12.39,3.204,-4.386,-8.454,8.801,-8.023,-8.61,38.71,-42.42
,-13.34,2.857,-4.178,-8.938,5.305,-8.064,-4.34,32.83,-39.62
,-10.797,6.052,-7.428,-9.081,2.505,-8.098,9.87,34.86,-30.24
,-8.576,8.823,-8.203,-8.174,3.687,-8.227,15.54,40.74,-23.52
6209.0,-6.762,8.148,-9.299,-9.651,2.23,-6.085,-25.62,23.59,4.76
,-7.322,11.474,-8.095,-9.608,0.062,-5.178,-45.85,20.65,13.16
,-8.636,11.043,-7.042,-9.072,0.83,-5.255,-82.18,10.92,15.12
,-9.454,6.681,-6.82,-8.449,3.575,-6.092,-118.02,-4.34,18.48
6284.0,-8.495,6.595,-6.722,-6.779,3.774,-5.324,-1.82,-46.83,85.54
,-8.873,7.966,-7.03,-8.471,2.257,-3.953,-13.44,-48.44,88.62
,-8.49,7.408,-7.033,-8.466,1.338,-4.48,-39.34,-50.05,89.39
,-7.643,5.621,-6.219,-7.739,0.756,-4.52,-62.51,-50.47,89.25
6360.0,-7.346,1.467,-4.451,-7.169,3.824,-3.592,-35.35,-84.0,100.17
,-7.437,2.883,-4.286,-6.937,3.087,-3.731,-19.95,-84.28,102.27
,-7.54,4.578,-4.259,-6.844,2.62,-3.166,-13.93,-82.04,102.2
,-7.31,4.664,-3.891,-7.456,1.438,-2.443,-22.54,-77.77,99.12
6436.0,-7.696,0.297,-2.182,-7.148,-1.072,-2.063,-27.72,-37.87,81.41
,-7.578,-0.373,-1.687,-6.935,0.345,-2.63,-14.07,-29.26,77.77
,-7.487,-1.005,-1.694,-6.059,1.149,-2.797,1.89,-20.3,74.13
,-7.059,-1.314,-1.409,-6.257,0.373,-2.986,16.87,-10.01,70.7
6512.0,-6.14,-0.215,-3.187,-8.263,3.271,-5.401,42.77,37.66,37.87
,-6.145,0.931,-4.628,-8.727,5.171,-3.484,56.35,47.95,33.95
,-7.052,0.306,-4.054,-9.265,5.42,-2.149,53.2,50.75,20.72
,-8.971,-0.39,-5.477,-8.062,6.183,-2.737,51.31,42.0,11.48
6587.0,-9.698,3.963,-4.068,-10.644,1.077,-3.757,-26.6,34.44,-56.84
,-10.38,-1.936,-4.207,-9.543,5.106,-5.114,-36.89,32.34,-53.06
,-12.252,-5.81,-2.828,-8.954,6.126,-6.559,-2.1,23.87,-47.6
,-11.768,-5.212,-2.568,-8.133,5.879,-7.83,59.64,18.48,-45.85
6663.0,-7.7,5.37,-8.847,-14.64,3.982,-4.649,29.61,17.43,-69.93
,-7.593,4.343,-10.072,-14.673,3.64,-5.212,7.63,14.77,-78.54
,-8.325,2.484,-9.481,-9.418,-0.065,-5.032,-10.36,9.66,-80.99
,-10.737,1.412,-6.628,-5.528,-0.979,-5.185,-9.8,2.38,-73.99
6739.0,-6.889,-0.297,-4.647,-9.899,-2.381,-3.372,58.8,-6.79,-37.24
,-8.813,0.201,-4.379,-9.332,-1.115,-3.12,42.98,-6.86,-46.13
,-9.758,-0.165,-4.511,-9.426,1.139,-3.24,21.91,-7.56,-50.61
,-9.978,-1.752,-3.798,-9.342,2.156,-3.345,12.46,-9.52,-46.27
6815.0,-9.067,1.917,-3.216,-8.031,3.238,-5.724,59.85,-7.28,-23.66
,-9.129,1.173,-3.886,-8.124,4.037,-5.398,46.97,-7.0,-24.01
,-8.952,0.455,-4.532,-8.507,3.568,-5.217,39.06,-6.93,-23.52
,-8.796,1.374,-5.181,-8.667,2.065,-5.315,42.35,-6.09,-21.77
6890.0,-8.753,1.11,-5.743,-7.889,4.228,-3.719,14.7,-5.04,-20.3
,-8.428,1.256,-5.743,-7.923,3.556,-2.675,19.67,-6.3,-19.81
,-7.997,2.472,-5.291,-8.131,2.742,-1.893,24.92,-6.44,-18.83
,-8.014,3.795,-4.637,-8.141,2.319,-1.12,26.46,-5.81,-18.55
6966.0,-8.217,2.391,-0.503,-7.906,4.403,-1.692,7.98,14.21,-32.2
,-8.622,2.888,-0.629,-8.043,4.992,-1.948,3.85,21.77,-35.56
,-8.634,3.01,-0.699,-8.957,5.233,-2.187,-4.76,29.05,-39.48
,-8.418,3.628,-1.235,-9.423,4.92,-2.352,-11.13,36.12,-42.49
7041.0,-9.232,4.597,-2.149,-13.068,3.266,-3.869,-47.39,60.34,-55.72
,-9.526,3.733,-1.601,-13.321,6.504,-4.74,-48.44,60.2,-57.19
,-11.44,2.56,-1.082,-11.565,7.885,-7.131,-43.61,55.58,-54.88
,-12.642,1.732,-1.957,-10.541,7.006,-7.322,-28.49,49.14,-44.87
7117.0,-9.311,5.059,-8.004,-5.523,7.107,-10.316,2.52,52.01,-22.89
,-7.849,3.503,-8.83,-6.171,10.479,-9.653,-9.66,48.65,-19.81
,-7.535,3.077,-9.282,-7.523,10.108,-9.227,-16.52,42.77,-13.79
,-6.384,3.609,-10.275,-8.27,6.789,-8.224,-22.54,35.56,-5.18
7193.0,-8.524,2.843,-7.408,-6.939,1.931,-6.671,-130.62,-30.03,34.58
,-8.344,-0.11,-6.683,-7.09,5.879,-7.071,-116.41,-49.35,51.03
,-8.705,-1.965,-6.219,-7.559,8.011,-7.337,-79.52,-65.31,66.78
,-7.746,-1.393,-6.533,-7.203,7.251,-7.423,-32.48,-73.64,80.57
7269.0,-7.413,4.52,-6.813,-7.743,2.592,-4.867,-72.73,-76.3,96.25
,-6.272,1.019,-5.903,-8.174,4.886,-4.561,-84.77,-81.34,98.7
,-6.446,-0.524,-5.281,-7.882,5.549,-3.367,-70.84,-85.05,102.48
,-6.884,0.302,-5.097,-7.337,5.264,-2.534,-42.28,-90.65,105.07
7345.0,-7.16,4.48,-2.362,-7.109,-0.766,-1.785,-20.16,-76.23,91.07
,-7.636,3.542,-2.352,-6.853,-0.816,-1.596,-26.32,-64.05,84.91
,-7.954,2.003,-2.0,-6.753,0.055,-1.953,-27.44,-53.06,79.73
,-7.763,0.299,-1.938,-6.564,1.0,-2.405,-18.97,-42.98,74.76
7420.0,-6.19,1.433,-2.443,-6.667,0.388,-3.163,32.06,7.49,50.19
,-6.37,1.555,-2.783,-8.617,-0.067,-3.561,27.37,15.47,41.44
,-6.671,0.407,-2.364,-9.414,0.955,-3.754,22.33,22.19,33.6
,-7.069,-0.584,-3.058,-9.105,2.06,-3.154,32.76,31.36,31.5
7496.0,-10.352,2.783,-1.953,-9.94,-1.251,-6.097,60.13,8.54,-14.49
,-8.531,3.384,-3.195,-11.393,-2.213,-5.207,57.47,9.94,-33.11
,-7.664,6.145,-4.424,-10.553,0.955,-4.427,39.55,20.23,-51.8
,-9.014,4.618,-5.37,-9.624,4.817,-4.903,10.57,24.57,-55.23
7572.0,-9.928,4.733,-4.836,-9.052,-2.625,-5.674,32.2,17.92,-73.36
,-12.192,3.833,-2.314,-4.164,-3.051,-7.389,14.21,18.34,-76.3
,-16.963,6.135,-1.728,-4.867,-1.125,-7.976,23.94,18.2,-70.77
,-16.111,3.151,-4.877,-8.148,0.66,-7.198,28.21,12.81,-53.9
7648.0,-9.502,2.065,-6.614,-9.505,-0.409,-4.625,61.39,0.98,-45.08
,-9.22,1.541,-5.587,-8.969,1.563,-4.752,42.49,-2.59,-45.43
,-8.892,-0.414,-4.905,-8.557,2.979,-4.767,37.73,-5.67,-41.02
,-9.15,-1.168,-4.685,-8.737,2.788,-4.781,51.17,-7.91,-33.04
7723.0,-8.933,1.869,-4.819,-8.686,2.158,-4.898,37.59,-6.79,-28.77
,-8.842,1.036,-4.831,-8.708,2.285,-5.2,27.65,-7.0,-28.35
,-8.454,0.739,-4.611,-8.495,2.058,-5.226,27.23,-6.44,-26.88
,-8.559,1.333,-4.791,-8.433,2.149,-5.31,30.17,-5.95,-25.69
7799.0,-8.323,2.24,-5.03,-8.911,0.876,-4.855,13.86,-4.69,-25.06
,-8.557,2.17,-4.805,-8.526,0.869,-4.362,10.71,-4.34,-25.48
,-8.768,1.62,-4.927,-8.593,0.96,-3.594,7.35,-4.55,-25.34
,-8.873,1.053,-5.059,-8.753,1.28,-3.228,6.72,-5.32,-23.94
7874.0,-8.995,1.886,-3.355,-7.944,4.52,-4.3,23.87,-0.35,-16.03
,-8.311,2.91,-3.439,-8.679,3.92,-5.307,25.2,1.96,-18.55
,-7.53,4.221,-3.441,-8.066,3.187,-5.798,22.19,6.23,-21.84
,-7.114,4.654,-3.422,-7.416,2.972,-5.676,9.94,11.55,-26.18
7950.0,-7.473,2.919,-5.037,-9.15,2.295,-0.804,-45.01,25.76,-45.99
,-8.358,2.58,-3.893,-9.505,2.709,-0.498,-51.87,26.46,-48.58
,-8.83,2.252,-2.52,-9.284,3.247,-0.715,-55.16,26.6,-48.65
,-8.61,1.953,-1.436,-8.524,2.254,-0.45,-53.83,26.39,-47.67
8026.0,-9.596,2.103,-2.414,-10.703,3.53,-4.542,-48.3,38.36,-58.31
,-10.443,2.426,-4.18,-11.424,7.818,-7.057,-50.61,39.83,-59.71
,-10.653,2.565,-5.229,-8.689,10.971,-6.621,-53.41,41.86,-61.81
,-10.201,3.35,-5.599,-9.689,9.605,-5.564,-54.88,44.38,-62.58
8102.0,-11.51,4.901,-5.135,-9.438,5.8,-5.197,-123.34,21.98,-39.76
,-11.402,2.185,-4.788,-9.241,6.126,-5.133,-113.47,15.19,-33.04
,-11.161,2.819,-4.322,-8.911,5.47,-5.508,-82.04,9.73,-16.45
,-10.043,4.527,-4.427,-9.014,5.59,-5.76,-60.27,3.78,1.61
8178.0,-9.603,5.997,-5.561,-8.581,3.886,-5.104,-51.24,-30.59,41.86
,-9.923,6.068,-5.485,-8.531,3.123,-5.291,-58.03,-33.53,47.81
,-9.586,5.583,-5.645,-8.844,2.309,-5.097,-66.92,-35.98,52.57
,-8.765,4.769,-5.434,-8.576,1.723,-5.011,-73.85,-36.82,56.56
8253.0,-7.868,1.316,-4.972,-7.396,2.761,-5.118,-41.79,-56.21,86.38
,-7.394,1.364,-5.071,-7.188,2.386,-4.714,-28.35,-63.42,91.0
,-7.05,2.204,-5.432,-7.093,1.474,-3.934,-18.13,-68.81,93.66
,-6.968,2.601,-4.951,-7.765,1.187,-4.123,-13.44,-71.33,93.38
8329.0,-8.143,0.244,-3.762,-6.473,1.34,-3.118,-0.35,-67.2,90.72
,-7.894,-0.682,-3.084,-6.557,2.424,-3.716,10.29,-63.84,90.3
,-7.229,-1.041,-3.324,-6.241,2.19,-3.699,27.44,-58.87,89.81
,-6.614,-0.024,-3.216,-6.277,0.991,-3.336,44.1,-50.75,87.01
8405.0,-6.497,0.129,-2.86,-7.112,0.988,-4.353,38.43,-8.4,53.27
,-6.54,-1.177,-2.295,-7.435,3.522,-4.783,43.4,-1.82,48.72
,-6.487,-1.548,-2.986,-7.617,5.631,-4.719,62.51,7.77,50.05
,-6.095,-0.395,-3.13,-8.399,7.387,-4.424,82.11,14.77,46.48
8481.0,-8.289,6.717,-4.027,-11.419,-3.017,-4.8,32.76,9.38,-17.92
,-9.775,3.766,-2.989,-11.661,-2.51,-4.48,-8.68,15.33,-35.7
,-9.225,-1.089,-3.297,-11.318,-0.725,-4.161,-27.72,20.65,-45.57
,-10.093,-3.125,-4.42,-11.105,0.223,-4.941,-11.76,23.59,-47.81
8556.0,-10.845,-0.952,-5.307,-12.079,7.191,-7.521,15.19,21.0,-75.25
,-11.187,-0.065,-5.564,-7.557,4.661,-8.363,26.18,14.56,-66.92
,-11.914,3.027,-5.193,-5.001,1.895,-8.406,49.42,7.0,-51.87
,-13.731,6.229,-5.386,-6.037,0.481,-7.624,75.25,0.21,-33.74
8632.0,-7.937,0.814,-6.865,-9.33,0.409,-4.468,50.05,-13.37,-33.39
,-9.1,1.45,-6.047,-8.689,1.304,-4.324,43.05,-15.89,-36.82
,-9.861,1.397,-5.377,-8.856,1.546,-4.049,34.09,-17.92,-35.98
,-9.715,0.311,-4.712,-9.155,1.388,-3.506,31.85,-20.09,-30.52
8707.0,-8.928,1.922,-2.8,-9.663,-0.239,-2.886,33.46,-15.33,-19.81
,-9.091,1.91,-2.245,-8.909,0.402,-3.417,25.76,-13.02,-21.28
,-9.596,1.158,-2.261,-8.698,2.053,-3.948,18.48,-11.41,-21.35
,-10.194,0.184,-2.312,-8.473,3.754,-4.355,17.01,-11.06,-19.88
8783.0,-8.241,4.022,-4.243,-8.323,2.556,-4.444,20.65,-4.97,-15.26
,-8.653,3.285,-4.379,-8.043,3.235,-3.702,8.68,-3.85,-15.68
,-8.904,2.144,-4.46,-8.33,3.515,-3.037,3.57,-3.36,-15.89
,-8.847,1.799,-4.606,-9.021,2.675,-2.103,5.95,-3.22,-16.24
8859.0,-9.457,1.385,-1.843,-8.232,2.97,-4.013,3.15,3.29,-19.46
,-9.407,0.538,-1.663,-7.636,3.187,-4.085,10.01,5.04,-18.2
,-9.191,0.457,-2.209,-8.445,2.649,-3.879,17.36,6.86,-17.29
,-9.194,1.546,-3.376,-9.402,1.522,-3.795,22.05,7.56,-17.29
8935.0,-9.471,0.325,-3.9,-8.782,-0.184,-4.649,5.67,10.15,-16.24
,-9.148,0.359,-4.491,-9.273,0.488,-3.996,10.5,9.03,-16.52
,-7.844,2.8,-4.944,-8.722,2.087,-4.831,18.13,8.89,-17.29
,-9.036,1.134,-5.013,-9.77,1.644,-4.453,3.01,7.7,-19.32
9011.0,-9.095,-0.337,-4.439,-9.045,-0.12,-4.877,0.91,7.42,-11.76
,-9.148,-0.639,-4.59,-8.914,0.261,-4.96,4.62,6.86,-9.8
,-9.234,-0.421,-4.731,-9.088,0.531,-4.886,9.59,6.02,-7.0
,-9.232,-0.041,-4.968,-9.277,0.414,-4.893,11.06,4.69,-4.34
9086.0,-9.481,-0.072,-4.472,-8.983,1.292,-4.547,5.04,-0.14,-0.21
,-9.249,-0.203,-4.621,-8.926,1.613,-4.606,7.63,-1.89,1.61
,-8.796,0.28,-4.606,-8.698,1.869,-4.573,12.32,-3.01,3.36
,-8.923,0.89,-4.637,-8.586,1.938,-4.501,15.19,-3.5,4.41
9162.0,-8.76,1.974,-4.441,-8.976,1.46,-3.587,2.94,-2.52,3.99
,-8.806,1.847,-4.305,-9.072,1.417,-3.396,0.21,-1.82,3.85
,-8.734,1.742,-4.092,-9.076,1.146,-3.19,-2.31,-1.05,3.57
,-8.823,1.711,-3.869,-9.141,0.96,-3.293,-3.85,-0.63,3.43
9238.0,-9.04,1.091,-3.479,-9.115,1.089,-3.795,-5.6,3.36,3.85
,-8.83,1.275,-3.635,-9.165,0.5,-3.939,-5.95,3.78,3.64
,-8.772,1.421,-3.697,-9.158,0.369,-4.219,-7.21,4.69,3.5
,-9.021,1.488,-3.79,-8.973,0.744,-4.47,-8.82,5.53,4.2
9314.0,-8.77,1.189,-4.489,-9.079,1.161,-4.298,-2.73,5.88,7.14
,-8.808,1.661,-4.642,-8.708,1.065,-4.152,-5.74,6.16,6.86
,-8.727,1.814,-4.609,-8.722,0.94,-4.015,-9.8,6.51,6.44
,-8.897,1.452,-4.214,-9.002,1.405,-4.19,-13.72,6.58,6.79
9389.0,-8.997,1.61,-3.917,-8.875,1.132,-3.506,-9.8,6.3,11.27
,-9.005,1.318,-3.819,-8.88,1.603,-3.745,-14.63,6.65,10.99
,-9.002,1.003,-3.659,-8.748,2.02,-3.678,-18.27,6.86,11.41
,-9.064,1.055,-3.719,-8.725,1.773,-3.436,-17.15,7.21,12.6
9465.0,-8.885,1.342,-3.41,-9.287,1.395,-3.898,-18.27,12.39,16.59
,-9.043,1.106,-3.4,-8.971,1.204,-3.991,-18.97,12.95,17.57
,-8.923,1.034,-3.484,-8.77,1.22,-4.192,-17.5,13.72,18.34
,-9.045,1.268,-3.676,-8.882,1.409,-4.501,-15.75,14.21,19.39
9540.0,-8.863,1.371,-4.858,-8.76,1.156,-4.302,-15.33,13.79,25.9
,-8.866,1.321,-4.908,-8.801,1.273,-4.142,-16.52,12.88,27.44
,-8.918,1.043,-4.891,-8.921,1.429,-3.982,-15.61,11.48,29.61
,-8.758,0.998,-4.561,-9.316,1.316,-4.372,-12.39,10.5,31.64
9616.0,-9.61,0.471,-4.728,-8.425,2.565,-6.571,-7.63,7.7,40.88
,-9.311,-0.491,-5.035,-8.684,2.539,-6.98,-3.43,4.97,43.68
,-8.935,0.227,-5.678,-8.717,1.914,-7.286,8.61,4.13,46.76
,-8.509,1.701,-6.071,-8.725,1.493,-7.475,15.05,3.64,49.14
9692.0,-8.789,1.778,-7.483,-10.598,3.446,-6.248,-10.08,-4.06,56.14
,-8.964,2.029,-7.356,-11.852,2.958,-5.542,-11.9,-6.65,57.61
,-9.89,1.402,-6.906,-12.266,3.01,-5.051,-18.9,-10.29,58.8
,-10.263,2.864,-6.571,-11.436,2.594,-4.748,-14.49,-15.26,64.12
9768.0,-10.455,1.981,-4.305,-8.38,-3.017,-0.689,-19.67,-17.22,44.17
,-10.012,0.876,-3.833,-6.159,-1.792,-0.089,-24.85,-15.96,36.19
,-9.909,-0.493,-2.745,-6.913,1.084,-2.053,-25.34,-16.03,28.0
,-9.15,-2.391,-1.271,-6.671,3.144,-0.998,-17.64,-16.87,19.74
9843.0,-7.808,3.46,-4.362,-7.313,-3.606,-5.43,-39.83,34.72,-41.65
,-7.93,0.995,-5.109,-7.538,-3.558,-5.327,-62.44,45.92,-63.77
,-8.662,-1.579,-5.427,-7.882,-2.663,-4.927,-67.41,47.74,-74.41
,-7.59,-3.022,-5.695,-8.428,-0.761,-4.544,-51.24,44.87,-77.84
9919.0,-8.725,1.285,-4.424,-8.641,0.749,-4.092,65.31,22.89,-85.19
,-8.5,2.247,-4.374,-8.413,2.127,-4.625,60.69,20.72,-86.66
,-8.222,1.687,-4.338,-7.657,3.975,-5.374,50.33,18.62,-88.76
,-8.617,0.443,-3.676,-7.607,5.339,-5.635,47.11,15.89,-89.11
9995.0,-7.346,5.377,-5.961,-8.265,6.121,-5.793,86.17,0.42,-91.56
,-7.193,4.75,-5.642,-8.327,4.893,-5.571,76.44,-3.29,-90.58
,-7.653,4.819,-5.554,-8.758,3.587,-5.073,70.42,-5.6,-87.36
,-7.801,6.257,-6.111,-9.162,3.783,-5.09,64.26,-6.86,-82.39
10071.0,-8.899,4.843,-5.006,-7.303,7.109,-5.178,61.95,-25.97,-30.8
,-8.488,5.422,-4.958,-6.09,7.227,-4.704,72.8,-30.03,-16.87
,-7.794,5.951,-5.078,-6.657,6.789,-3.884,80.29,-31.64,-4.76
,-7.77,6.439,-4.671,-7.999,7.923,-4.688,82.67,-31.85,4.34
10147.0,-8.289,9.667,-5.133,-12.515,5.073,-1.242,35.28,-21.21,24.22
,-9.196,10.062,-4.877,-15.733,2.907,-4.841,17.78,-25.83,31.08
,-10.112,7.693,-3.226,-12.197,8.066,-4.982,6.16,-33.74,44.45
,-10.495,5.65,-0.838,-7.083,9.28,-4.783,15.33,-32.97,56.84
10222.0,-6.253,1.804,-4.683,-10.079,-0.352,-4.692,-29.82,12.11,33.25
,-5.305,-3.262,-5.181,-9.052,2.714,-4.637,-44.94,11.41,28.91
,-8.033,-3.07,-5.58,-8.842,4.326,-4.874,-29.96,10.92,22.82
,-10.361,-2.491,-5.394,-9.148,2.596,-5.111,-16.17,8.54,20.65
10298.0,-9.15,-0.424,-5.525,-8.83,3.149,-4.893,-46.55,4.9,18.48
,-8.897,-1.732,-5.544,-9.203,2.285,-4.535,-32.41,2.45,19.39
,-8.545,-0.302,-5.511,-9.139,0.361,-4.183,-13.44,0.84,19.6
,-8.449,2.022,-5.331,-9.127,-0.713,-3.843,-9.31,0.84,17.71
10373.0,-9.34,-0.723,-3.683,-9.119,1.01,-2.144,-35.28,-1.26,18.27
,-8.815,0.208,-3.214,-9.158,1.321,-1.89,-22.26,-1.54,21.49
,-9.024,1.24,-2.785,-9.002,1.675,-1.876,-15.61,-0.98,24.57
,-9.265,1.273,-2.558,-8.88,2.099,-1.957,-13.79,-0.77,26.53
10449.0,-8.574,2.206,-1.878,-8.882,1.608,-3.381,-7.91,10.71,26.46
,-8.691,2.374,-2.525,-8.899,1.055,-3.676,-6.93,13.37,28.0
,-8.897,2.486,-2.819,-8.988,0.543,-3.506,-7.0,15.4,29.26
,-8.868,2.201,-3.156,-8.914,0.529,-3.637,-8.05,17.22,30.24
10525.0,-8.804,1.309,-3.843,-8.78,0.522,-4.815,1.33,19.95,38.99
,-8.658,1.788,-3.812,-8.32,0.692,-5.494,1.61,21.28,40.04
,-8.961,1.785,-4.183,-8.44,0.986,-5.798,-1.47,21.63,40.74
,-9.222,1.161,-4.31,-8.466,0.945,-6.052,-4.48,20.79,41.93
10601.0,-8.397,0.866,-6.128,-9.021,2.06,-6.82,1.33,15.82,53.76
,-8.528,1.603,-6.104,-10.45,-0.421,-7.691,3.15,15.26,56.21
,-8.579,2.386,-6.394,-9.469,1.594,-7.504,1.26,14.98,57.4
,-8.713,2.575,-6.7,-10.617,2.003,-7.796,-5.39,14.63,58.17
10676.0,-11.146,3.403,-7.382,-9.84,1.555,-5.542,26.11,-3.5,90.09
,-11.888,4.276,-6.485,-10.45,0.543,-5.688,16.94,-3.5,83.02
,-11.029,3.477,-6.178,-12.082,0.17,-4.965,-1.47,-3.22,76.86
,-10.263,2.675,-5.891,-10.881,2.395,-5.288,-14.84,-1.68,70.42
10752.0,-8.746,3.331,-5.111,-8.267,-2.027,-2.24,-4.55,-5.67,46.83
,-8.172,2.907,-4.427,-7.822,-2.407,-3.343,-14.77,-4.34,35.21
,-7.033,1.527,-2.302,-6.657,-0.921,-3.151,-31.92,0.7,24.85
,-7.315,-0.369,-1.263,-6.908,0.66,-7.234,-54.88,9.03,16.73
10828.0,-7.028,1.89,-6.133,-6.93,-1.871,-3.604,-9.1,36.54,-54.6
,-7.81,0.964,-3.898,-7.437,-1.017,-3.778,-17.99,37.8,-69.09
,-7.306,-0.759,-2.606,-8.48,0.218,-4.034,-17.57,37.8,-76.79
,-6.609,-1.919,-2.254,-8.083,1.292,-4.338,-7.28,38.92,-84.98
10904.0,-7.648,2.158,-4.946,-6.904,2.005,-6.552,48.65,38.15,-118.3
,-7.83,2.127,-5.894,-6.906,1.548,-6.628,43.47,35.14,-124.95
,-8.136,1.443,-6.707,-7.588,1.036,-6.286,38.64,30.1,-129.64
,-7.526,1.603,-6.875,-7.935,2.036,-6.525,42.42,25.13,-133.63
10980.0,-6.614,3.953,-7.258,-8.677,4.692,-6.348,71.89,-13.37,-103.32
,-6.296,5.408,-7.229,-6.87,7.779,-8.603,78.82,-20.37,-95.69
,-7.239,5.394,-6.939,-9.167,8.196,-7.392,77.49,-28.63,-89.11
,-8.287,4.606,-6.423,-8.985,6.906,-6.37,78.47,-37.45,-79.8
11055.0,-9.598,6.549,-5.571,-6.011,10.301,-5.245,77.63,-42.21,-27.44
,-8.983,6.949,-5.24,-6.353,10.517,-4.075,74.9,-38.22,-17.36
,-8.301,7.746,-5.315,-7.157,10.651,-3.666,71.75,-35.56,-8.26
,-6.585,9.411,-5.887,-9.502,11.156,-2.429,69.58,-29.96,-1.33
11131.0,-11.046,12.673,1.855,-5.494,8.059,-4.089,14.56,-42.49,40.25
,-14.714,13.398,2.757,-4.96,4.231,-6.224,25.62,-27.65,41.93
,-19.677,4.657,-3.47,-5.973,-0.081,-6.389,25.13,-6.58,35.42
,-11.979,4.183,-4.36,-8.074,-1.914,-6.293,35.7,4.69,37.1
11206.0,-9.768,-3.204,-5.757,-9.093,1.249,-4.891,-33.32,12.67,21.07
,-9.457,-3.008,-4.647,-8.782,0.352,-5.439,-29.26,10.85,18.34
,-9.069,-0.771,-3.886,-8.531,-0.223,-5.865,-20.44,9.17,17.15
,-9.672,1.287,-4.429,-8.346,0.292,-5.927,-20.44,7.63,20.23
11282.0,-8.028,1.721,-5.745,-8.964,0.321,-4.422,-1.47,3.15,27.09
,-8.248,2.778,-5.231,-8.909,-0.342,-4.063,-4.06,3.92,25.48
,-9.052,2.852,-4.893,-8.892,-0.072,-4.03,-14.0,4.2,23.94
,-9.337,1.687,-4.539,-8.385,1.084,-3.824,-23.31,3.36,24.15
11358.0,-8.311,1.835,-3.68,-8.294,0.699,-4.001,3.64,1.05,28.77
,-8.926,1.993,-3.778,-8.473,1.326,-3.874,-0.7,2.24,29.26
,-9.258,1.598,-4.037,-8.598,1.996,-3.498,-4.9,2.73,29.4
,-8.626,0.952,-3.886,-8.624,2.333,-3.19,-5.39,2.59,29.54
11434.0,-8.811,2.063,-3.07,-8.593,1.663,-3.865,-6.51,10.43,31.29
,-8.885,1.668,-3.053,-8.66,1.196,-3.991,-12.04,12.95,30.8
,-8.964,1.441,-3.563,-8.952,0.73,-3.96,-14.77,14.21,30.73
,-8.614,1.814,-3.85,-9.045,0.373,-4.051,-15.61,15.19,31.57
11509.0,-8.775,0.452,-4.64,-8.461,1.682,-5.056,-6.51,14.07,40.18
,-8.691,0.84,-4.877,-8.885,1.256,-4.712,-3.29,14.42,42.35
,-8.186,1.273,-5.41,-9.182,0.57,-4.202,-2.03,14.14,43.89
,-8.004,1.627,-5.542,-9.072,0.778,-4.64,-3.92,15.19,44.38
11585.0,-9.024,1.273,-5.37,-10.072,-0.711,-7.765,-2.24,15.4,56.91
,-8.961,1.843,-6.358,-9.198,0.833,-7.889,-4.41,15.54,59.43
,-8.454,2.312,-6.987,-8.423,2.9,-7.444,-11.2,15.4,60.97
,-8.825,1.991,-7.832,-9.825,3.305,-6.913,-20.09,14.21,62.3
11660.0,-11.847,3.783,-5.934,-9.742,3.467,-3.484,2.73,-3.92,81.34
,-11.804,2.807,-5.293,-10.036,3.649,-3.271,-10.92,-4.27,73.64
,-10.476,2.352,-4.558,-10.778,3.68,-2.532,-18.69,-2.66,67.2
,-10.065,2.79,-3.996,-10.249,4.417,-2.156,-19.95,0.7,59.36
11736.0,-8.49,4.798,-1.582,-8.284,-0.656,-2.398,-38.99,17.92,15.96
,-8.318,3.922,-2.206,-7.162,0.321,-2.225,-60.48,26.18,4.48
,-9.27,1.213,-1.845,-7.715,-0.067,-3.69,-92.05,30.87,-4.97
,-9.196,-0.345,-2.099,-8.299,-1.139,-5.604,-105.07,31.78,-10.5
11812.0,-7.621,-0.821,-6.229,-6.71,-0.907,-5.202,1.26,46.13,-70.21
,-6.772,-0.553,-6.669,-7.282,-0.514,-4.267,8.05,47.67,-78.4
,-6.645,-0.773,-6.327,-7.557,0.012,-4.549,11.34,46.41,-87.92
,-6.652,-0.986,-5.879,-6.865,0.546,-5.477,14.49,43.75,-96.95
11888.0,-7.27,0.392,-5.681,-7.856,1.929,-6.368,29.75,31.71,-116.69
,-8.167,-0.148,-5.824,-6.93,2.56,-6.954,34.72,27.86,-117.6
,-8.497,0.431,-6.14,-6.322,3.199,-7.035,48.58,22.54,-115.64
,-8.167,1.376,-6.219,-5.973,4.642,-7.664,63.28,17.08,-113.19
11964.0,-5.781,5.956,-7.911,-8.105,2.938,-6.492,85.89,-7.35,-108.64
,-5.915,5.267,-7.408,-8.071,3.709,-6.109,68.81,-11.06,-106.89
,-6.913,3.79,-6.825,-8.748,4.166,-6.04,54.25,-16.1,-100.8
,-7.935,2.513,-6.712,-8.667,5.482,-6.545,52.43,-21.42,-90.02
12039.0,-7.849,7.382,-6.729,-6.834,5.918,-5.054,94.64,-27.16,-35.91
,-7.806,8.337,-6.155,-8.043,4.898,-4.044,88.2,-25.76,-31.22
,-6.978,9.012,-6.674,-7.906,6.779,-4.604,73.5,-24.64,-26.88
,-6.109,7.81,-6.061,-8.217,11.539,-4.846,51.31,-21.42,-22.47
12115.0,-11.421,12.962,-3.697,-8.344,1.866,-6.245,55.79,-37.45,28.21
,-11.634,11.491,-3.061,-9.67,9.222,-5.824,38.57,-45.92,43.19
,-9.512,5.82,-4.121,-11.285,10.11,-2.857,20.65,-40.53,55.23
,-8.701,0.663,-5.473,-12.745,2.417,-2.91,42.07,-28.07,62.79
12191.0,-11.137,-0.861,-3.549,-9.739,-0.156,-5.741,-20.37,5.11,14.14
,-7.803,-0.488,-4.769,-9.969,1.61,-5.812,-29.47,8.05,11.55
,-5.865,-0.467,-5.358,-8.782,2.568,-5.76,-32.13,7.84,16.94
,-7.899,-1.053,-5.717,-8.332,1.582,-5.817,-26.04,5.11,21.49
12267.0,-8.775,0.089,-5.851,-8.947,0.526,-5.791,-35.07,5.67,14.56
,-8.957,-0.519,-5.942,-8.94,0.596,-5.659,-33.81,3.92,15.05
,-8.684,-0.57,-5.887,-8.643,0.629,-5.121,-28.14,1.89,14.84
,-8.753,0.031,-5.863,-8.457,0.524,-4.697,-23.38,0.28,14.77
12342.0,-8.636,0.57,-4.274,-8.926,0.644,-2.79,-25.97,-3.5,19.6
,-8.667,0.766,-3.831,-8.976,0.66,-2.613,-24.15,-3.29,20.23
,-8.715,0.89,-3.494,-9.222,0.885,-2.788,-23.59,-2.45,20.44
,-8.799,0.794,-3.173,-9.064,0.828,-3.005,-24.36,-1.26,20.51
12418.0,-8.698,0.821,-3.295,-8.65,2.651,-4.326,-10.64,4.34,26.53
,-8.701,1.232,-3.632,-8.504,2.003,-4.231,-8.68,5.74,27.09
,-8.315,2.022,-3.788,-8.579,1.661,-4.336,-7.77,7.49,27.44
,-8.354,2.563,-4.037,-8.624,1.261,-3.929,-10.43,9.1,27.65
12493.0,-8.954,0.797,-3.568,-8.784,-0.268,-4.322,-17.71,13.65,30.66
,-9.167,0.814,-3.752,-8.854,-0.258,-4.367,-16.31,14.42,31.71
,-9.091,0.632,-3.697,-8.902,-0.117,-4.348,-17.57,14.98,32.34
,-8.906,-0.041,-3.989,-9.32,0.337,-4.927,-18.83,14.56,32.9
12569.0,-8.765,1.086,-5.444,-8.586,1.192,-5.851,0.07,12.32,43.89
,-8.143,1.484,-5.942,-8.887,1.278,-5.441,-2.66,12.32,45.15
,-8.256,1.421,-6.222,-9.098,1.462,-5.571,-6.93,11.83,46.76
,-8.504,1.421,-6.26,-8.717,1.764,-5.98,-10.5,10.78,48.44
12645.0,-9.225,0.12,-5.781,-11.06,4.212,-5.351,-23.94,8.89,56.21
,-8.746,1.46,-6.224,-11.833,3.032,-4.982,-20.65,4.9,66.08
,-7.992,4.109,-6.377,-11.297,2.02,-4.87,-8.89,1.82,75.81
,-9.194,4.295,-5.999,-11.641,0.979,-4.953,-7.35,2.38,74.06
12721.0,-11.819,0.081,-4.793,-9.962,0.986,-4.664,-48.65,9.87,43.12
,-11.239,-0.316,-4.922,-9.136,1.67,-4.149,-45.5,9.45,39.27
,-10.493,0.108,-4.908,-7.887,2.008,-3.53,-40.53,8.33,36.33
,-10.184,0.359,-4.867,-6.482,2.431,-2.649,-37.73,6.79,32.06
12797.0,-5.415,2.958,-3.171,-6.7,-2.199,-4.819,-45.85,16.73,-13.23
,-6.327,2.395,-2.324,-8.665,-3.262,-5.02,-78.61,26.32,-24.57
,-6.985,2.644,-1.153,-8.856,-5.083,-4.836,-103.74,35.42,-37.73
,-7.542,-0.371,-3.175,-7.885,-5.621,-5.073,-100.24,43.47,-52.08
12872.0,-7.487,-4.714,-4.908,-7.361,0.854,-5.855,51.66,45.92,-72.8
,-8.327,-2.41,-5.396,-7.736,1.074,-5.851,82.39,40.67,-72.38
,-8.849,-0.893,-5.018,-8.519,1.11,-5.853,95.34,33.25,-72.73
,-7.779,0.187,-5.508,-8.567,1.436,-6.329,95.69,29.47,-74.97
12948.0,-8.334,1.965,-6.573,-7.308,5.772,-7.925,90.09,11.48,-92.75
,-8.567,3.053,-6.47,-6.98,7.061,-7.679,92.26,7.07,-94.64
,-8.066,3.431,-6.487,-6.966,6.939,-7.09,89.04,2.59,-96.25
,-8.04,3.965,-6.647,-6.908,6.272,-7.085,86.17,-1.96,-94.57
13024.0,-7.038,5.511,-7.322,-8.055,6.633,-6.341,51.66,-27.86,-87.29
,-7.38,5.03,-7.054,-7.846,6.966,-6.559,45.22,-30.94,-80.01
,-7.825,5.41,-6.983,-7.791,6.013,-6.068,40.32,-32.69,-70.35
,-8.445,6.147,-6.734,-8.782,5.322,-4.817,35.35,-36.12,-58.45
13100.0,-8.545,3.369,-3.994,-8.485,9.914,-4.901,34.65,-71.96,3.01
,-7.428,4.2,-4.312,-6.796,7.018,-5.207,62.72,-73.43,18.41
,-6.537,9.837,-5.083,-7.37,6.375,-5.042,90.37,-62.51,26.46
,-8.148,12.709,-4.755,-9.253,5.341,-3.556,80.08,-50.12,23.94
13175.0,-10.347,4.697,-2.003,-6.805,4.219,-5.566,9.59,-15.96,46.27
,-13.879,3.539,-0.696,-4.384,3.092,-6.868,35.91,-11.06,43.96
,-16.423,2.29,-1.409,-6.243,-0.194,-7.341,56.7,-6.02,36.05
,-12.201,3.369,-3.218,-9.251,-2.587,-7.045,56.07,0.35,31.78
13251.0,-9.878,-2.338,-6.662,-8.629,1.603,-5.616,-3.71,4.69,27.65
,-8.794,-0.124,-6.334,-8.978,0.948,-5.42,6.65,1.68,26.74
,-8.248,1.871,-6.107,-8.871,0.467,-4.958,4.2,0.28,26.81
,-8.105,2.187,-5.872,-8.847,0.115,-4.92,-6.93,0.21,24.92
13326.0,-8.758,0.462,-4.63,-9.095,0.909,-3.408,-5.39,-3.5,24.43
,-8.748,1.132,-4.317,-9.198,0.584,-3.216,-6.51,-3.15,23.8
,-8.674,1.149,-3.922,-9.033,0.558,-3.202,-11.2,-2.24,22.82
,-8.851,1.096,-3.589,-8.789,0.665,-2.941,-14.91,-0.98,22.33
13402.0,-9.04,0.809,-3.046,-8.646,1.388,-3.482,-4.06,1.68,28.42
,-8.933,0.979,-3.101,-8.447,1.438,-3.329,-2.38,2.94,29.12
,-8.973,0.974,-3.089,-8.696,1.565,-3.431,-3.5,4.27,28.98
,-8.933,0.895,-3.386,-8.878,1.615,-3.257,-4.41,5.46,29.33
13478.0,-8.789,1.642,-3.211,-8.938,1.237,-4.027,-9.03,12.67,29.26
,-8.672,1.744,-3.273,-8.899,1.098,-4.24,-10.15,14.91,29.47
,-8.882,1.704,-3.565,-8.744,0.928,-4.491,-11.62,15.75,30.24
,-8.686,1.374,-3.881,-8.634,1.029,-4.891,-12.81,16.1,30.8
13554.0,-8.356,1.405,-4.855,-8.849,1.685,-4.685,-8.47,16.52,35.14
,-8.138,1.981,-4.905,-9.093,0.503,-4.724,-6.86,16.87,36.19
,-7.956,2.699,-4.891,-8.969,-0.38,-4.963,-6.65,18.27,36.4
,-8.37,2.493,-4.846,-8.818,-0.134,-4.946,-11.34,19.46,35.56
13630.0,-8.722,1.28,-5.219,-8.454,1.56,-6.224,-3.71,17.99,44.31
,-8.648,1.924,-5.329,-8.643,1.874,-6.712,-5.39,18.06,45.92
,-8.789,1.9,-5.585,-8.835,2.053,-6.894,-10.5,17.36,47.39
,-8.756,1.551,-5.796,-9.277,1.646,-8.093,-14.0,16.94,49.0
13705.0,-8.557,4.247,-7.777,-10.244,2.065,-5.485,-16.03,7.28,60.9
,-9.543,4.02,-7.258,-10.388,2.333,-5.205,-18.55,6.44,61.25
,-9.959,3.64,-6.676,-10.091,2.757,-4.944,-25.97,6.58,56.0
,-10.964,2.776,-5.906,-9.746,3.549,-4.903,-35.7,5.11,53.13
13781.0,-9.524,4.362,-4.898,-8.478,3.118,-4.369,-36.33,2.03,43.75
,-9.347,4.762,-4.882,-8.538,2.087,-3.874,-44.59,3.15,37.52
,-9.186,4.681,-4.836,-8.77,1.637,-3.666,-55.79,4.34,30.59
,-8.672,4.135,-4.681,-7.514,1.74,-2.594,-67.62,5.32,23.38
13857.0,-7.588,1.864,-2.443,-7.507,-0.251,-2.757,-93.03,13.23,-2.87
,-9.079,-0.282,-1.414,-7.138,0.818,-4.855,-115.15,14.56,-7.42
,-8.894,-1.656,-0.464,-7.944,1.084,-5.286,-108.78,13.3,-10.29
,-7.679,-0.883,-0.553,-7.877,-0.273,-5.075,-77.42,16.38,-14.77
13933.0,-7.131,-2.474,-3.764,-8.684,0.684,-3.733,4.76,36.26,-62.79
,-7.502,-3.403,-3.398,-8.48,1.414,-3.91,26.81,35.07,-66.99
,-7.999,-2.503,-3.539,-8.416,1.845,-4.547,52.85,35.35,-70.63
,-8.622,-0.771,-3.678,-8.263,1.747,-5.518,69.58,35.77,-73.71
14008.0,-8.466,1.436,-6.023,-7.018,4.252,-6.396,67.62,30.03,-93.03
,-8.155,1.759,-6.399,-7.188,4.154,-6.229,74.34,27.37,-96.81
,-7.779,2.139,-6.375,-7.475,3.477,-6.832,79.8,24.71,-100.31
,-7.557,3.293,-6.432,-7.344,2.986,-7.145,84.98,20.51,-103.32
14084.0,-7.614,2.773,-6.466,-7.306,6.688,-7.696,70.84,-7.14,-101.99
,-7.703,2.23,-6.26,-5.535,10.435,-7.502,74.48,-12.46,-94.57
,-8.114,1.723,-6.212,-5.573,11.728,-7.337,79.8,-18.97,-84.0
,-8.358,2.369,-6.516,-6.368,10.459,-7.021,91.35,-25.06,-70.42
14159.0,-7.868,8.093,-6.849,-8.323,5.674,-5.587,19.46,-30.38,-65.8
,-8.866,5.662,-6.284,-8.581,6.286,-5.477,-1.19,-32.83,-61.6
,-8.906,4.618,-5.958,-9.241,5.805,-5.099,-5.32,-35.98,-53.55
,-8.502,4.834,-5.877,-9.258,4.549,-4.812,1.26,-38.15,-44.73
14235.0,-9.103,3.97,-4.192,-9.387,8.361,-3.934,6.65,-43.05,-13.23
,-8.66,4.642,-3.963,-10.089,8.789,-3.154,18.62,-39.41,-7.42
,-8.524,5.815,-4.379,-9.548,9.215,-3.329,23.45,-35.35,-3.36
,-8.696,7.265,-4.592,-9.545,8.93,-4.439,19.18,-29.82,-2.38
14311.0,-10.22,6.499,-4.513,-9.706,0.292,-3.338,-48.09,23.87,-3.5
,-10.526,3.34,-4.032,-10.139,2.087,-3.029,-53.9,19.18,-0.42
,-10.342,0.921,-3.484,-9.586,3.805,-3.68,-41.79,9.8,5.25
,-10.01,-0.251,-3.376,-9.052,4.061,-4.022,-17.29,2.1,9.17
14387.0,-9.811,2.953,-4.324,-8.552,4.011,-5.602,-20.72,5.67,2.38
,-9.081,2.845,-5.188,-8.856,5.083,-5.126,-27.02,9.38,2.45
,-7.782,2.881,-5.142,-8.394,6.238,-5.329,-28.98,14.14,3.43
,-8.04,3.137,-5.092,-8.368,6.595,-5.449,-30.52,16.8,3.64
14462.0,-8.543,5.602,-5.25,-9.258,1.421,-5.391,-73.22,28.77,1.4
,-8.524,3.96,-4.676,-9.378,1.584,-5.358,-83.86,28.56,3.92
,-8.756,2.273,-4.147,-9.311,2.304,-5.451,-85.54,27.37,9.1
,-9.179,1.496,-4.743,-7.925,3.178,-5.791,-74.9,24.08,17.64
14538.0,-7.509,3.757,-5.717,-8.521,4.798,-5.607,3.78,-2.8,58.73
,-7.808,4.434,-5.607,-8.547,3.924,-5.307,3.92,-3.5,62.86
,-8.344,5.047,-5.415,-8.739,2.998,-5.018,-0.77,-4.69,65.1
,-8.562,5.123,-5.585,-8.746,2.795,-5.229,-10.57,-5.95,66.15
14614.0,-8.461,2.694,-5.243,-8.478,1.847,-4.817,-34.86,-7.56,67.06
,-8.44,2.883,-5.288,-8.392,2.333,-4.669,-32.48,-6.44,66.29
,-8.198,2.716,-5.379,-8.155,2.553,-4.396,-32.76,-5.53,65.45
,-8.44,2.111,-4.867,-7.612,2.804,-4.836,-34.65,-5.39,65.52
14690.0,-7.341,2.615,-4.633,-7.193,2.769,-4.752,-21.28,-10.01,64.82
,-7.763,2.599,-4.69,-6.935,3.379,-5.104,-20.37,-10.85,61.04
,-7.921,2.821,-4.896,-7.081,3.479,-4.621,-20.58,-12.46,58.59
,-7.751,2.553,-4.657,-7.325,3.202,-4.082,-24.5,-14.0,55.58
14766.0,-7.389,2.407,-3.671,-7.258,1.29,-2.989,-53.83,-17.99,38.08
,-7.425,1.28,-3.061,-7.155,2.276,-2.869,-55.58,-18.76,36.12
,-7.569,0.656,-3.02,-6.712,2.436,-2.398,-48.23,-19.46,35.91
,-7.413,0.799,-3.07,-6.889,1.893,-2.568,-33.18,-19.39,34.93
14841.0,-6.741,1.187,-2.785,-6.724,2.888,-4.089,-8.12,1.61,15.82
,-7.095,-0.105,-2.97,-9.213,2.484,-4.575,-4.48,5.39,11.55
,-7.308,-0.79,-2.706,-9.165,3.195,-4.913,7.35,7.0,9.17
,-6.341,1.01,-3.53,-8.222,2.718,-4.805,40.46,15.75,13.23
14917.0,-8.354,3.86,-4.999,-9.146,-0.187,-6.164,48.3,6.23,-28.21
,-8.825,5.587,-5.307,-9.366,0.756,-5.587,29.05,7.56,-40.46
,-8.787,5.315,-5.745,-10.347,4.372,-4.19,0.07,8.05,-43.54
,-8.102,1.847,-6.116,-13.656,9.402,0.0,-20.16,8.26,-46.62
14992.0,-19.258,12.407,-2.891,-5.891,-3.518,-6.621,17.64,11.55,-61.67
,-15.973,5.054,-4.527,-9.655,-1.012,-6.016,-19.74,11.55,-54.67
,-6.731,-3.041,-5.434,-10.646,0.184,-5.662,-31.22,9.24,-52.78
,-2.469,-4.841,-6.518,-10.206,-0.541,-5.14,-13.79,10.43,-52.43
15068.0,-9.548,-0.993,-5.063,-8.622,1.134,-5.659,16.59,-5.39,-41.79
,-8.856,-0.471,-5.102,-9.062,1.039,-5.324,27.16,-7.91,-34.58
,-8.772,0.663,-5.518,-9.22,1.345,-4.87,39.48,-11.13,-28.84
,-8.478,1.07,-5.724,-9.091,1.685,-4.389,44.66,-14.07,-25.62
15144.0,-8.89,1.957,-4.183,-8.782,1.338,-3.539,39.06,-18.55,-19.81
,-8.799,1.835,-4.003,-8.777,2.166,-3.525,36.26,-18.2,-18.41
,-9.148,1.517,-3.754,-8.823,2.443,-3.276,34.16,-17.64,-17.71
,-8.995,1.192,-3.812,-8.827,2.266,-3.125,33.74,-17.64,-17.01
15220.0,-9.072,1.742,-3.211,-8.904,1.821,-4.532,24.71,-11.06,-14.7
,-9.124,1.283,-3.412,-8.674,2.137,-4.8,23.1,-9.94,-14.7
,-8.966,1.249,-3.63,-8.488,2.536,-5.004,23.8,-8.89,-14.14
,-8.871,1.522,-4.168,-8.368,2.745,-4.685,24.71,-8.54,-13.65
15295.0,-8.54,2.608,-4.463,-9.04,2.087,-3.295,10.64,-6.23,-15.12
,-8.811,1.967,-4.006,-9.256,2.075,-3.793,5.74,-5.95,-15.75
,-8.65,1.46,-3.477,-8.887,1.479,-3.989,4.48,-5.18,-16.38
,-8.576,1.615,-3.151,-8.641,1.22,-4.099,6.16,-3.01,-17.5
15371.0,-8.485,1.721,-4.264,-8.33,3.065,-1.352,0.63,3.71,-22.89
,-8.662,2.237,-3.917,-8.098,3.305,-0.809,-1.89,6.02,-25.34
,-8.844,2.371,-3.027,-8.739,3.812,-0.998,-5.95,7.91,-28.0
,-8.646,2.548,-2.118,-8.38,4.489,-1.297,-6.51,10.64,-29.68
15447.0,-8.074,5.243,-1.661,-10.608,3.439,-3.69,-6.02,36.54,-34.79
,-7.966,6.159,-2.213,-11.036,2.213,-5.011,-13.51,42.21,-40.04
,-7.626,6.351,-2.51,-11.388,1.165,-4.432,-29.26,49.35,-45.08
,-9.251,5.018,-2.802,-11.783,1.783,-4.164,-50.68,52.57,-48.44
15523.0,-11.931,4.405,-6.985,-10.065,6.877,-5.372,-32.48,41.02,-27.65
,-8.629,10.445,-7.487,-10.567,3.68,-4.58,-13.51,42.84,-14.49
,-6.705,13.963,-6.731,-10.227,4.36,-5.152,-30.38,45.01,-6.58
,-8.947,12.096,-6.033,-9.318,5.817,-5.585,-75.11,38.99,-3.08
15599.0,-9.15,6.298,-5.97,-8.323,3.821,-6.212,-47.81,12.25,47.04
,-9.05,5.69,-6.143,-8.375,4.554,-6.212,-49.63,6.65,54.11
,-9.06,4.929,-6.372,-7.877,5.69,-6.317,-51.03,1.26,60.48
,-8.569,4.204,-6.647,-7.296,5.927,-6.26,-47.81,-2.66,66.71
15674.0,-7.349,5.485,-5.776,-7.83,1.754,-4.762,-42.77,-14.07,83.72
,-7.988,4.202,-5.587,-7.456,2.0,-5.133,-53.55,-15.47,84.49
,-8.289,2.776,-5.209,-7.66,2.123,-5.52,-56.77,-17.57,86.73
,-8.124,1.785,-4.697,-7.449,1.491,-5.14,-50.4,-18.34,89.11
15750.0,-7.184,1.266,-5.159,-6.753,3.259,-5.58,-25.06,-27.51,88.27
,-6.643,1.218,-5.327,-7.258,2.051,-4.7,-22.75,-30.94,87.57
,-6.446,1.938,-5.487,-7.423,0.555,-4.006,-19.88,-34.65,85.82
,-6.389,2.955,-5.631,-7.535,-0.103,-3.656,-18.2,-38.36,82.18
15825.0,-7.775,0.172,-3.118,-6.58,0.201,-1.859,-15.33,-44.17,66.5
,-7.578,0.68,-2.982,-6.959,-0.988,-1.405,-1.47,-42.56,65.31
,-7.014,0.682,-2.393,-7.133,-2.73,-1.723,10.01,-39.62,61.25
,-6.738,0.586,-2.12,-6.525,-3.623,-2.123,21.77,-33.95,55.79
15901.0,-6.009,-2.087,-2.374,-8.105,5.738,-3.642,107.87,-1.96,42.63
,-5.032,3.278,-3.195,-9.275,4.968,-2.809,134.82,10.29,39.41
,-6.095,6.277,-2.804,-9.995,4.606,-2.905,123.62,19.95,21.14
,-8.739,6.375,-3.683,-9.172,5.58,-4.506,93.17,20.16,3.78
15977.0,-9.689,3.137,-6.004,-9.713,3.872,-5.647,-3.71,26.18,-56.07
,-11.113,0.546,-5.992,-9.459,2.967,-6.25,5.11,23.03,-57.33
,-10.869,0.806,-5.288,-9.177,1.84,-6.298,24.85,18.06,-58.66
,-10.507,3.374,-5.056,-9.033,0.782,-6.722,37.66,14.77,-56.42
16053.0,-8.959,0.359,-7.128,-9.016,-0.964,-7.564,13.65,8.05,-68.39
,-8.703,0.522,-7.7,-9.675,0.163,-6.245,13.86,5.95,-70.21
,-8.658,-0.189,-8.057,-11.548,3.13,-4.03,9.59,1.96,-70.28
,-8.658,-0.907,-8.165,-13.943,6.504,-2.881,9.24,-3.71,-66.71
16128.0,-13.465,5.494,-3.25,-9.05,-0.419,-4.243,55.37,-20.16,-26.53
,-9.241,0.948,-3.774,-9.71,0.737,-3.9,41.37,-18.83,-26.53
,-6.731,-1.89,-4.121,-9.533,0.952,-3.553,38.01,-16.45,-27.09
,-7.416,-1.804,-4.075,-9.22,0.888,-3.046,45.29,-14.7,-26.18
16204.0,-8.772,1.84,-3.491,-8.782,0.924,-4.496,53.2,-12.39,-14.28
,-8.727,2.247,-3.752,-8.581,1.357,-4.448,53.41,-10.92,-12.88
,-9.229,2.005,-3.946,-8.959,1.833,-4.681,48.65,-10.36,-13.09
,-9.239,1.347,-4.334,-9.026,2.297,-5.221,42.91,-10.85,-12.6
16280.0,-8.662,2.654,-5.86,-8.179,3.192,-5.291,41.93,-11.83,-7.35
,-8.234,3.269,-6.387,-8.373,2.661,-4.434,38.99,-12.25,-7.77
,-7.736,3.53,-6.212,-8.399,1.833,-3.594,32.55,-12.46,-9.03
,-7.569,3.482,-5.808,-8.6,1.137,-2.946,26.11,-12.74,-9.66
16356.0,-9.028,0.639,-2.419,-9.758,0.404,-2.922,22.4,-8.33,-15.26
,-9.299,0.278,-2.077,-9.842,0.148,-4.422,23.87,-6.3,-17.08
,-9.139,0.412,-1.826,-9.342,0.242,-5.623,25.83,-3.5,-18.2
,-9.407,0.567,-2.06,-8.559,0.907,-6.212,27.37,-0.7,-18.34
16432.0,-8.083,1.706,-6.004,-7.669,3.575,-3.168,39.69,-4.34,-11.06
,-8.842,2.302,-5.396,-7.93,4.116,-2.795,37.94,-5.32,-10.43
,-9.349,2.68,-4.549,-8.737,4.939,-2.34,35.42,-7.0,-8.68
,-8.193,3.068,-3.793,-7.727,5.745,-2.127,32.76,-7.21,-10.36
16507.0,-7.346,6.035,-2.242,-9.675,3.582,-4.013,-17.29,17.5,-37.8
,-7.66,5.975,-2.199,-9.706,4.101,-4.951,-29.33,25.83,-41.93
,-8.66,5.686,-3.032,-9.481,5.197,-5.729,-38.57,30.94,-45.15
,-9.734,3.996,-3.116,-9.988,5.765,-6.186,-46.83,33.81,-45.15
16583.0,-10.622,4.97,-5.829,-8.832,7.102,-5.635,-49.07,41.09,-37.52
,-10.06,5.621,-6.437,-9.241,5.26,-5.686,-53.76,37.66,-29.26
,-8.167,7.181,-6.293,-9.349,4.063,-5.487,-55.93,35.77,-19.88
,-7.6,8.09,-6.054,-9.107,4.135,-5.413,-65.31,33.95,-13.86
16658.0,-8.875,5.008,-5.736,-8.856,5.351,-6.444,-68.81,1.82,24.99
,-8.794,5.403,-5.985,-8.301,4.815,-5.566,-64.75,-3.85,30.66
,-9.062,5.662,-6.281,-8.605,4.549,-5.26,-63.14,-9.94,34.86
,-9.543,5.487,-5.741,-8.442,4.606,-5.171,-62.65,-15.89,38.71
16734.0,-8.44,4.355,-4.858,-8.124,2.79,-4.681,-67.9,-32.69,61.6
,-8.693,3.3,-4.436,-7.55,3.178,-5.027,-68.95,-35.7,65.38
,-8.849,2.503,-4.338,-7.246,3.458,-5.032,-62.79,-39.55,69.58
,-8.579,2.477,-4.501,-7.569,3.285,-4.736,-52.43,-42.42,73.36
16810.0,-7.932,2.828,-4.508,-6.853,3.24,-4.054,-43.68,-45.85,79.45
,-7.952,2.223,-4.413,-6.971,3.084,-3.685,-43.54,-47.39,79.87
,-7.595,2.146,-4.283,-7.705,2.034,-3.403,-37.94,-47.46,79.52
,-7.365,2.479,-4.087,-7.751,1.383,-3.101,-30.17,-45.78,78.26
16886.0,-7.499,1.041,-2.79,-7.047,0.44,-2.73,-27.58,-24.43,62.93
,-7.358,1.065,-3.02,-7.064,-0.61,-2.757,-18.2,-19.32,59.71
,-7.059,1.601,-3.075,-6.875,-0.957,-2.824,-9.8,-13.44,55.72
,-7.014,1.335,-2.845,-6.98,-1.12,-2.919,-7.07,-7.28,51.8
16961.0,-6.93,-1.278,-2.541,-7.741,3.175,-3.704,46.48,10.36,39.06
,-6.552,-1.213,-1.788,-8.516,4.556,-4.683,62.65,14.84,36.4
,-6.619,0.452,-2.848,-8.074,6.951,-4.42,87.29,23.45,36.61
,-6.312,3.053,-3.881,-8.71,7.14,-2.907,101.29,32.48,31.57
17037.0,-9.375,5.41,-2.359,-11.912,-3.022,-2.946,11.62,20.79,-45.78
,-8.918,4.494,-2.898,-11.163,2.489,-3.252,-8.61,27.3,-56.07
,-9.878,2.594,-2.994,-9.916,7.14,-4.305,-21.77,28.77,-56.56
,-11.027,-2.474,-3.415,-9.091,7.593,-6.021,-7.7,23.8,-50.89
17113.0,-8.818,5.564,-6.985,-9.162,0.323,-8.248,28.07,19.25,-56.98
,-9.067,3.685,-7.083,-9.89,-0.105,-7.258,7.84,18.34,-64.89
,-8.914,1.821,-7.693,-11.165,1.043,-5.662,0.7,15.05,-67.9
,-8.801,0.713,-8.11,-12.874,3.666,-4.92,3.29,10.71,-67.83
17189.0,-11.967,3.714,-4.96,-9.445,-1.541,-4.324,45.22,-9.31,-38.29
,-8.844,1.452,-5.2,-9.976,-0.847,-4.039,38.36,-10.08,-37.03
,-6.851,-0.414,-4.975,-9.734,-0.062,-3.963,33.11,-9.59,-38.01
,-7.861,-1.443,-4.623,-9.076,1.108,-4.03,33.18,-10.36,-37.66
17264.0,-8.435,2.34,-3.965,-9.361,0.112,-3.838,50.68,-13.51,-25.48
,-8.339,3.192,-3.869,-8.969,0.201,-3.994,45.92,-11.62,-25.34
,-8.703,2.955,-3.625,-8.734,1.704,-4.032,36.96,-10.71,-25.2
,-9.416,1.642,-3.764,-8.684,2.699,-3.802,27.79,-10.43,-24.08
17340.0,-8.949,2.362,-3.417,-8.67,1.615,-3.967,23.59,-6.58,-20.16
,-9.359,1.35,-3.441,-8.899,2.491,-4.494,17.01,-5.81,-18.9
,-9.189,0.792,-3.518,-8.638,3.285,-4.915,19.74,-5.67,-17.36
,-8.71,0.921,-3.565,-8.052,3.233,-4.793,25.62,-4.83,-16.52
17416.0,-8.126,2.726,-4.513,-8.55,1.85,-3.463,15.19,-1.82,-18.48
,-8.375,2.529,-4.475,-8.796,1.412,-2.893,13.93,-1.61,-18.48
,-8.435,2.474,-4.324,-9.241,0.778,-2.422,13.16,-1.12,-19.18
,-8.457,2.242,-4.034,-9.938,0.122,-2.91,12.04,-0.28,-20.09
17491.0,-9.751,0.218,-3.408,-8.765,3.101,-4.657,14.63,6.09,-19.18
,-8.67,1.208,-3.912,-8.234,2.924,-4.049,17.99,7.84,-20.3
,-8.133,2.204,-4.396,-7.925,3.01,-3.003,15.61,10.5,-22.33
,-8.358,2.781,-4.752,-7.408,3.738,-2.089,6.51,13.16,-24.36
17567.0,-7.885,4.532,-1.744,-9.143,4.336,-1.491,-22.33,31.71,-40.67
,-8.581,4.901,-1.335,-9.227,4.484,-3.431,-28.21,35.7,-43.82
,-8.516,5.26,-1.316,-10.5,3.625,-4.475,-34.72,39.76,-45.57
,-8.856,4.956,-0.354,-11.328,2.687,-5.389,-43.96,44.87,-47.6
17643.0,-11.776,2.757,-5.841,-7.437,9.495,-6.236,-42.91,35.42,-39.55
,-11.543,3.037,-5.267,-8.378,9.627,-6.234,-35.84,34.51,-36.05
,-11.548,4.678,-6.679,-9.34,7.581,-5.26,-23.66,31.5,-26.88
,-9.031,7.557,-6.492,-9.349,6.499,-5.353,-15.82,32.83,-15.89
17719.0,-9.418,7.052,-5.614,-9.153,2.9,-5.779,-76.3,19.88,15.26
,-9.158,6.312,-5.808,-8.737,3.941,-5.82,-81.2,12.11,25.62
,-9.021,4.484,-5.755,-8.265,5.41,-6.241,-82.95,2.59,34.79
,-9.284,3.092,-5.678,-8.052,6.628,-6.322,-71.75,-7.63,44.87
17794.0,-8.234,6.557,-6.123,-6.825,3.221,-5.468,-31.36,-28.28,78.68
,-8.684,5.449,-5.633,-7.399,3.625,-5.317,-44.38,-31.71,81.34
,-8.019,3.788,-5.329,-8.203,3.611,-5.142,-51.1,-36.75,83.72
,-7.069,2.874,-5.351,-8.007,3.084,-5.147,-47.81,-37.94,87.78
17870.0,-7.715,2.546,-4.984,-7.315,3.989,-4.647,-31.99,-51.73,97.09
,-7.128,1.922,-4.594,-7.243,4.221,-4.381,-27.02,-53.9,98.28
,-7.157,2.072,-4.463,-6.913,3.302,-4.015,-19.11,-54.25,99.12
,-7.148,2.958,-4.537,-7.102,1.357,-3.453,-11.69,-52.64,98.07
17946.0,-7.334,0.321,-2.943,-6.853,0.584,-2.402,-27.3,-30.59,77.21
,-7.277,0.467,-2.582,-6.549,0.22,-2.584,-14.07,-25.9,74.34
,-7.066,0.806,-2.515,-6.695,-0.235,-2.627,-1.33,-20.23,70.84
,-7.047,0.897,-2.527,-6.987,-0.548,-2.833,8.89,-14.84,68.04
18022.0,-6.691,-1.347,-2.544,-8.306,3.805,-5.001,52.57,12.81,47.25
,-5.989,-1.007,-2.931,-8.179,5.434,-3.9,73.92,21.56,45.22
,-5.877,1.199,-3.704,-8.119,3.826,-3.86,88.41,30.52,38.43
,-7.492,1.673,-4.585,-8.509,3.805,-3.556,81.9,31.43,24.15
18097.0,-9.675,4.381,-4.312,-11.132,0.034,-4.178,15.75,23.24,-55.51
,-9.019,2.594,-5.81,-10.505,2.324,-4.487,2.59,24.08,-55.86
,-10.811,-0.785,-5.54,-9.923,2.946,-5.205,9.38,21.0,-56.28
,-11.742,-2.087,-4.602,-9.663,3.561,-6.128,32.34,17.15,-59.01
18173.0,-9.088,4.111,-7.184,-9.454,0.905,-7.119,53.27,6.86,-57.54
,-8.191,4.2,-8.267,-10.529,2.393,-5.432,40.53,6.3,-63.98
,-7.992,4.097,-8.808,-12.792,4.788,-3.795,24.43,5.6,-69.93
,-8.557,2.233,-8.215,-13.486,4.53,-3.865,6.93,2.24,-72.24
18249.0,-10.625,1.441,-4.252,-9.435,-2.513,-4.372,35.14,-9.73,-38.22
,-7.222,-0.759,-4.769,-9.706,-1.357,-4.13,28.63,-6.72,-40.46
,-7.557,-1.436,-5.03,-9.564,0.045,-4.013,23.52,-4.48,-44.45
,-8.863,-2.429,-4.745,-8.713,1.68,-4.379,18.69,-5.18,-45.64
18324.0,-8.308,2.984,-5.037,-8.842,0.156,-5.396,47.6,-10.29,-23.17
,-8.191,3.472,-5.351,-8.684,0.945,-5.599,41.02,-10.08,-22.05
,-8.514,2.733,-5.554,-8.311,2.221,-5.535,31.22,-10.85,-20.51
,-8.746,0.967,-5.374,-8.248,3.027,-5.343,25.27,-12.04,-18.9
18400.0,-8.643,3.245,-5.327,-7.932,2.206,-4.728,31.5,-15.33,-13.23
,-8.794,2.649,-5.374,-8.253,2.412,-4.123,24.99,-15.4,-14.0
,-8.469,1.881,-5.334,-8.873,1.979,-3.34,21.7,-15.89,-14.98
,-8.066,1.692,-5.08,-9.16,1.481,-2.941,23.03,-16.17,-14.63
18476.0,-8.949,1.251,-2.886,-8.279,3.288,-3.951,23.87,-11.06,-15.12
,-9.062,1.452,-3.173,-9.072,2.41,-4.408,25.34,-9.45,-16.94
,-8.425,2.453,-3.352,-8.868,1.768,-4.721,26.04,-7.63,-19.46
,-7.82,3.309,-3.443,-8.253,1.364,-4.697,22.33,-4.76,-22.33
18552.0,-8.904,0.802,-4.824,-9.227,1.783,-3.46,4.76,-3.15,-22.75
,-9.536,0.156,-4.779,-9.04,2.831,-2.977,1.26,-3.78,-23.38
,-9.16,0.096,-4.649,-8.863,2.934,-2.599,-0.63,-3.57,-25.41
,-8.748,0.797,-4.221,-9.375,2.635,-2.448,-3.85,-1.82,-29.4
18627.0,-9.414,2.496,-2.371,-10.593,4.616,-2.18,-25.9,5.53,-37.66
,-9.203,2.517,-2.024,-11.022,5.863,-2.455,-16.59,6.93,-36.61
,-9.249,2.429,-1.759,-10.936,6.726,-2.381,-6.51,8.61,-34.79
,-10.021,3.027,-1.764,-9.555,8.04,-3.206,4.34,10.92,-33.04
18703.0,-8.244,8.545,-3.64,-7.746,5.934,-5.958,-9.66,40.95,-43.12
,-8.626,7.059,-4.176,-7.581,4.439,-6.226,-28.84,48.02,-44.66
,-9.404,5.748,-4.501,-7.519,3.364,-6.21,-38.64,51.1,-41.37
,-8.715,5.906,-5.365,-6.949,4.503,-6.822,-34.65,52.01,-34.16
18779.0,-6.217,6.793,-7.471,-8.868,5.628,-6.849,-25.13,35.56,12.6
,-6.277,9.488,-7.777,-9.239,3.317,-5.975,-36.19,32.48,18.55
,-7.2,10.153,-7.966,-9.217,2.115,-5.638,-63.91,26.32,21.84
,-8.181,8.428,-7.358,-9.342,1.902,-5.363,-96.6,18.06,25.34
18855.0,-9.282,2.29,-5.202,-8.787,1.175,-4.963,-82.46,-17.36,60.27
,-9.258,2.838,-5.346,-8.021,1.084,-4.903,-76.09,-20.51,64.89
,-9.232,2.56,-5.583,-8.217,1.455,-5.248,-76.65,-24.22,68.46
,-8.952,1.682,-5.573,-8.469,2.19,-5.626,-77.42,-28.21,71.75
18930.0,-8.464,2.379,-5.197,-7.743,1.895,-4.295,-54.32,-46.69,74.9
,-8.378,2.273,-5.128,-7.899,1.78,-4.137,-56.35,-51.17,71.82
,-8.126,2.206,-4.982,-8.133,1.342,-3.802,-59.64,-55.09,69.23
,-7.942,1.933,-4.791,-8.581,0.144,-3.3,-62.72,-57.75,66.71
19006.0,-8.643,-1.132,-2.903,-6.525,-1.462,-0.433,-50.61,-63.0,47.74
,-8.624,-1.393,-2.984,-6.669,-1.486,0.007,-30.66,-64.68,47.32
,-8.155,-1.249,-2.355,-7.105,-0.28,-0.546,-9.59,-64.54,47.11
,-7.741,-1.345,-1.223,-6.138,1.342,-0.725,10.92,-61.25,45.71
19081.0,-5.485,1.333,-0.842,-8.363,0.512,-3.996,47.67,7.56,17.78
,-5.418,3.113,-2.173,-9.383,-2.694,-3.183,52.15,26.39,9.31
,-6.016,4.937,-2.927,-12.278,-3.812,-2.333,41.86,40.25,-9.66
,-8.011,3.944,-3.379,-10.723,-1.965,-2.848,24.85,45.22,-23.66
19157.0,-9.356,1.299,-4.882,-14.635,9.44,-0.991,69.58,28.77,-31.57
,-10.191,1.553,-6.382,-18.916,12.647,-4.482,78.82,27.93,-31.57
,-10.904,1.682,-6.334,-14.022,6.09,-7.298,84.28,25.76,-40.67
,-10.778,4.034,-4.35,-6.286,-1.043,-8.133,83.09,25.2,-47.88
19233.0,-1.625,-3.62,-8.787,-9.136,0.931,-6.92,21.84,20.09,-40.53
,-5.279,-2.943,-8.43,-8.66,-0.194,-6.03,52.22,15.05,-37.24
,-10.029,-0.498,-8.088,-8.949,0.33,-5.714,70.07,7.42,-36.4
,-10.67,1.572,-7.961,-8.914,1.354,-5.674,60.69,0.7,-37.38
19309.0,-9.129,1.797,-5.542,-8.227,2.675,-4.468,37.94,-11.48,-23.17
,-9.421,1.117,-5.162,-8.404,3.477,-4.508,34.72,-12.67,-20.79
,-9.404,0.622,-4.848,-9.019,3.089,-4.427,35.07,-13.16,-20.44
,-8.698,1.448,-4.731,-9.055,1.847,-4.082,38.01,-12.88,-21.63
19385.0,-9.043,0.692,-3.939,-8.655,3.049,-3.625,9.8,-11.13,-19.39
,-9.0,0.823,-3.869,-9.201,2.216,-3.465,17.57,-11.55,-17.5
,-8.533,2.024,-4.054,-9.019,1.065,-3.13,24.57,-11.27,-16.73
,-8.294,3.118,-3.855,-9.067,0.349,-2.831,22.75,-9.73,-16.8
19460.0,-9.136,0.629,-3.135,-8.832,2.371,-3.408,19.67,-3.78,-11.83
,-8.856,1.771,-3.592,-9.253,1.642,-3.247,25.27,-3.22,-10.64
,-8.279,2.572,-3.587,-8.909,1.263,-3.142,24.71,-2.31,-10.71
,-8.172,2.709,-3.644,-8.997,1.173,-3.144,19.32,-0.91,-11.83
19536.0,-9.304,1.194,-3.216,-8.938,1.869,-4.819,9.17,4.69,-13.51
,-9.395,1.177,-3.549,-8.878,1.536,-5.518,8.89,5.46,-13.23
,-8.856,1.563,-3.716,-8.732,1.575,-5.927,9.38,6.51,-13.79
,-8.65,1.864,-4.212,-7.901,2.522,-5.901,8.05,7.49,-14.56
19612.0,-7.911,3.017,-5.363,-9.239,0.268,-3.302,3.64,2.1,-14.14
,-8.543,2.694,-4.659,-8.966,1.031,-3.077,-2.1,2.24,-13.44
,-9.026,1.61,-3.984,-8.557,1.725,-2.965,-6.09,2.59,-13.09
,-9.308,0.579,-3.542,-9.119,1.419,-2.637,-5.53,2.94,-13.02
19688.0,-9.964,1.254,-2.467,-9.763,-2.347,-3.845,-5.6,7.84,-14.7
,-9.825,1.019,-2.824,-9.49,0.05,-4.621,-3.5,9.38,-11.55
,-8.923,-0.378,-2.989,-8.906,1.845,-5.039,-3.08,10.64,-10.01
,-9.079,-2.398,-3.29,-8.892,1.237,-4.908,0.28,9.8,-9.66
19763.0,-9.229,0.292,-4.779,-8.775,1.256,-5.087,-9.38,5.53,-6.51
,-9.356,0.067,-4.594,-8.622,1.194,-5.085,-3.57,4.62,-3.43
,-9.213,0.318,-4.645,-8.811,1.031,-4.922,3.22,4.06,-1.4
,-8.863,0.866,-4.862,-9.076,1.0,-4.685,5.18,3.64,-0.56
19839.0,-9.261,0.749,-4.19,-8.638,1.362,-4.549,-10.57,1.61,-0.07
,-9.289,0.467,-4.089,-8.631,1.936,-4.618,-8.12,1.12,1.4
,-9.112,0.325,-4.164,-8.744,1.957,-4.513,-3.99,0.28,3.22
,-8.911,0.689,-4.343,-8.923,1.371,-4.403,0.56,-0.49,4.06
19914.0,-8.89,1.019,-4.29,-8.902,1.642,-4.355,-6.79,-0.21,3.08
,-8.856,1.043,-4.329,-8.945,1.457,-4.259,-3.22,-0.07,3.57
,-8.866,1.223,-4.305,-9.007,1.082,-4.113,-1.12,-0.28,4.06
,-8.851,1.589,-4.439,-9.091,0.916,-3.955,-1.4,-0.56,3.78
19990.0,-8.988,0.905,-3.719,-9.15,0.993,-3.994,-8.05,0.63,4.76
,-9.043,0.995,-3.616,-8.899,1.256,-4.381,-7.63,0.84,5.04
,-9.194,1.117,-3.63,-8.665,1.362,-4.288,-8.12,1.26,5.53
,-9.174,1.091,-3.762,-8.914,1.297,-4.106,-8.75,1.33,6.09
20066.0,-9.074,1.189,-3.891,-9.079,0.905,-3.711,-6.23,1.61,10.08
,-8.911,0.876,-3.542,-9.158,1.072,-4.003,-5.53,1.75,10.36
,-9.124,0.873,-3.427,-8.851,1.517,-4.109,-4.41,2.24,10.92
,-9.146,1.027,-3.53,-8.727,1.491,-4.087,-3.57,2.59,11.41
20142.0,-9.026,1.106,-3.989,-9.325,1.015,-3.094,-8.75,4.27,14.0
,-9.251,0.821,-3.647,-9.438,0.909,-3.075,-9.03,4.34,15.05
,-9.091,0.572,-3.439,-9.045,0.632,-3.147,-7.07,4.13,16.24
,-8.942,0.663,-3.252,-8.961,0.718,-3.108,-4.76,4.62,16.66
20218.0,-8.859,1.266,-3.352,-8.856,1.754,-3.934,1.19,7.98,20.72
,-8.839,1.895,-3.594,-8.727,1.716,-4.099,1.75,9.24,21.49
,-8.777,2.077,-3.75,-8.811,1.682,-4.094,-0.07,10.29,22.12
,-8.636,1.898,-3.8,-8.942,1.706,-4.145,-3.22,11.06,22.4
20293.0,-8.897,1.35,-4.097,-8.849,1.785,-4.161,-3.15,11.48,28.84
,-8.744,1.082,-4.216,-9.177,1.548,-3.884,-1.68,10.99,30.59
,-8.557,1.242,-4.334,-9.117,0.986,-3.86,1.4,10.99,31.85
,-8.717,1.675,-4.3,-8.985,0.663,-4.29,3.64,11.62,32.97
20369.0,-8.65,0.876,-4.733,-8.469,1.936,-5.444,8.75,11.55,41.3
,-8.775,1.295,-4.874,-8.82,2.225,-5.719,10.43,11.34,43.26
,-8.871,1.551,-5.276,-8.945,2.154,-6.033,10.15,10.57,44.94
,-8.485,1.74,-5.492,-8.758,2.012,-6.686,9.24,10.15,45.64
20445.0,-8.756,1.78,-7.126,-9.49,4.482,-6.245,-2.94,4.76,50.47
,-9.342,0.235,-7.093,-10.22,5.276,-5.719,-9.24,1.19,53.97
,-8.356,2.036,-6.801,-10.421,4.24,-5.209,0.7,-4.41,62.72
,-8.959,3.3,-6.554,-10.352,2.804,-4.707,14.56,-8.68,69.79
20521.0,-10.589,1.833,-4.599,-10.021,3.005,-4.74,-23.73,-5.81,49.14
,-10.435,1.39,-4.252,-9.981,3.221,-4.848,-22.33,-5.95,46.62
,-10.182,1.838,-4.408,-9.828,3.204,-4.968,-18.62,-6.16,44.38
,-9.926,2.613,-4.539,-9.057,2.56,-4.451,-17.92,-6.51,41.3
20596.0,-8.646,1.359,-3.637,-5.863,3.654,-3.805,-37.66,-10.99,16.38
,-7.978,1.127,-3.285,-6.813,3.463,-2.721,-34.37,-11.76,10.01
,-7.341,1.156,-2.776,-7.387,0.933,-2.79,-31.43,-10.85,2.17
,-6.061,1.737,-1.656,-6.927,-1.441,-4.791,-31.29,-5.74,-4.83
20672.0,-7.485,-1.589,-5.195,-7.978,-2.735,-4.245,-61.11,36.05,-46.69
,-8.138,-2.544,-5.157,-8.239,-1.012,-3.592,-36.68,35.63,-48.37
,-7.873,-3.805,-5.24,-8.253,0.014,-3.623,-8.4,32.27,-49.14
,-7.722,-4.044,-4.635,-7.928,0.699,-4.401,23.87,28.98,-50.12
20747.0,-7.361,1.575,-4.755,-7.303,3.154,-5.695,84.21,19.6,-56.63
,-7.368,2.522,-5.135,-7.629,3.025,-5.662,83.58,19.81,-62.58
,-7.538,3.058,-5.437,-7.81,3.077,-5.69,78.33,19.81,-69.3
,-7.571,3.601,-5.611,-7.923,2.716,-5.609,73.29,19.18,-75.88
20823.0,-7.935,2.436,-5.879,-7.109,7.004,-6.126,62.02,9.03,-77.56
,-8.337,2.716,-5.748,-7.609,6.396,-6.085,70.35,4.27,-72.45
,-7.1,4.939,-6.253,-8.287,5.207,-5.927,86.24,3.01,-68.04
,-6.545,6.714,-6.284,-8.287,4.436,-5.671,91.84,2.87,-65.8
20899.0,-8.775,4.214,-5.039,-7.559,5.836,-5.071,59.43,-5.6,-46.34
,-8.789,4.147,-5.061,-7.746,5.441,-4.702,63.42,-7.28,-37.59
,-8.205,4.508,-4.968,-8.102,4.477,-4.649,66.64,-7.77,-28.49
,-7.782,5.343,-5.209,-8.052,3.393,-4.391,69.16,-6.58,-21.14
20975.0,-7.262,3.391,-4.767,-8.265,9.713,-5.779,58.17,-10.36,5.6
,-6.358,3.831,-4.867,-8.33,11.905,-4.853,60.13,-9.45,9.17
,-7.011,4.676,-5.154,-9.091,9.73,0.493,56.91,-10.36,13.23
,-8.476,5.674,-4.987,-14.688,7.932,-0.081,49.84,-16.38,19.04
21051.0,-20.742,1.012,-4.542,-3.754,-0.749,-6.277,4.9,-3.64,31.64
,-15.272,2.357,-2.01,-5.544,1.256,-7.081,28.07,6.79,33.11
,-9.698,6.439,-3.652,-9.866,-0.045,-7.21,55.79,8.19,43.61
,-5.683,0.282,-5.327,-9.318,-1.347,-6.858,41.79,7.91,49.14
21126.0,-8.552,0.196,-5.741,-8.21,-0.395,-6.121,-7.49,6.79,14.0
,-7.985,1.969,-5.824,-8.157,-0.524,-5.717,-11.34,5.18,15.82
,-8.983,2.745,-5.944,-8.461,0.878,-5.322,-21.14,3.78,21.49
,-9.014,0.945,-6.458,-8.593,2.498,-5.068,-26.18,1.33,24.43
21202.0,-8.552,2.69,-4.97,-8.679,0.086,-4.307,0.28,0.63,23.17
,-8.655,1.522,-4.671,-8.607,0.835,-4.269,-12.88,0.07,21.21
,-9.028,0.194,-4.549,-8.617,1.464,-4.286,-16.1,-0.91,22.12
,-8.942,-0.302,-4.35,-8.588,1.79,-4.293,-9.52,-1.33,24.22
21278.0,-8.413,1.756,-4.279,-8.442,1.472,-4.221,1.12,1.26,28.28
,-8.382,1.692,-4.159,-8.693,1.51,-4.288,-0.7,2.24,27.72
,-8.406,1.575,-4.135,-8.837,1.565,-4.625,-1.54,3.01,27.58
,-8.636,1.551,-4.178,-8.514,1.699,-4.884,-1.33,3.5,28.0
21354.0,-8.014,2.139,-5.111,-8.751,1.429,-4.247,-1.75,6.93,30.31
,-7.971,2.539,-4.819,-8.402,1.273,-4.264,-4.41,7.98,30.73
,-8.363,2.41,-4.728,-8.287,1.498,-4.264,-8.26,8.75,31.43
,-8.725,1.938,-4.527,-8.478,1.603,-4.109,-12.67,9.38,31.71
21429.0,-8.531,1.677,-4.372,-8.248,1.529,-5.415,-11.13,13.51,35.07
,-8.674,1.438,-4.293,-7.887,2.048,-5.741,-11.97,13.93,35.77
,-8.792,1.254,-4.513,-8.064,1.89,-5.765,-11.83,15.12,36.47
,-8.744,1.4,-5.104,-8.904,1.055,-6.652,-11.27,15.4,37.45
21505.0,-8.294,2.221,-6.612,-9.854,2.335,-6.42,-12.67,9.17,54.74
,-8.504,2.173,-6.88,-10.215,2.489,-6.322,-9.38,7.0,59.99
,-9.091,2.218,-6.755,-10.689,2.718,-6.09,-8.82,6.37,60.27
,-9.792,2.4,-6.597,-10.888,2.697,-6.013,-13.3,5.53,59.5
21580.0,-11.333,2.472,-5.92,-10.754,1.496,-4.726,-42.28,7.0,45.64
,-11.335,1.974,-5.65,-10.833,1.182,-4.247,-49.28,6.72,42.07
,-11.405,1.73,-5.43,-10.175,1.012,-3.503,-52.85,5.6,39.41
,-11.055,1.744,-5.31,-9.103,1.082,-2.977,-53.69,3.85,37.87
21656.0,-7.971,1.548,-2.446,-8.167,1.39,-2.324,-42.98,0.91,5.81
,-6.468,2.333,-1.945,-7.164,-0.857,-4.513,-44.45,7.28,-2.87
,-5.774,3.4,-2.462,-6.47,-1.321,-5.195,-56.07,15.89,-12.39
,-6.832,2.864,-3.128,-7.703,-1.522,-5.281,-87.5,24.22,-24.08
21732.0,-8.186,-2.915,-4.96,-8.342,-0.503,-4.532,-31.22,34.93,-64.33
,-7.76,-4.269,-4.819,-8.098,0.833,-4.307,-6.65,27.86,-64.89
,-7.516,-4.214,-5.018,-7.667,1.673,-4.771,23.66,21.84,-65.38
,-7.83,-2.697,-4.819,-7.48,2.429,-5.106,52.64,17.08,-66.01
21808.0,-7.619,3.226,-5.848,-7.736,1.228,-5.233,61.39,4.27,-87.22
,-7.72,3.561,-6.028,-7.626,1.893,-5.468,52.08,4.62,-95.13
,-8.373,3.166,-5.647,-6.858,4.209,-5.8,41.65,2.66,-100.17
,-8.064,2.19,-5.669,-7.344,5.607,-5.867,35.56,-0.77,-102.41
21883.0,-7.526,5.59,-6.004,-8.346,4.068,-5.64,59.36,-8.19,-92.05
,-7.954,4.834,-6.119,-8.533,3.704,-5.346,51.73,-10.43,-88.13
,-8.256,4.357,-6.061,-8.404,4.917,-5.918,51.38,-12.11,-83.23
,-8.593,4.35,-5.501,-7.023,7.267,-6.377,55.3,-12.46,-76.72
21959.0,-6.884,8.457,-6.207,-7.15,6.234,-6.224,83.79,-13.93,-24.92
,-7.028,8.342,-6.279,-7.138,6.652,-5.549,73.71,-14.42,-20.3
,-7.509,7.169,-6.061,-7.909,5.87,-4.446,64.19,-14.98,-15.33
,-7.497,6.238,-6.176,-8.959,4.994,-4.329,57.68,-15.19,-9.66
22035.0,-9.167,5.564,-4.415,-7.502,5.676,-3.479,30.17,-18.97,14.7
,-8.593,7.775,-5.016,-6.767,2.553,-3.757,34.16,-25.48,22.05
,-9.217,8.39,-4.453,-7.597,1.644,-3.498,29.19,-34.65,30.52
,-8.909,8.157,-4.02,-11.01,4.817,-3.987,27.3,-43.05,43.61
22111.0,-16.15,6.595,-3.19,-7.653,-0.979,-4.676,46.62,-0.42,23.24
,-14.992,3.714,-1.993,-11.199,-1.462,-5.2,-1.05,-1.89,10.43
,-8.48,0.208,-1.742,-10.842,-1.0,-5.185,-33.6,-0.49,10.36
,-4.86,-0.567,-3.709,-8.509,0.873,-5.461,-35.07,3.92,18.97
22187.0,-8.033,2.237,-5.738,-8.775,-0.115,-5.243,15.75,4.69,25.27
,-8.66,1.744,-5.946,-8.638,0.759,-4.953,-4.76,4.48,25.2
,-8.878,0.598,-5.745,-8.514,1.677,-4.647,-17.5,3.64,22.96
,-8.954,-0.168,-5.406,-8.655,1.912,-4.542,-18.41,2.03,22.33
22262.0,-8.894,1.464,-4.503,-8.861,1.426,-3.666,-9.03,-0.35,25.76
,-8.772,1.225,-4.489,-8.897,1.637,-3.637,-10.64,-0.35,25.41
,-8.39,1.22,-4.233,-8.547,2.123,-3.711,-10.43,0.14,24.78
,-8.514,1.299,-3.814,-8.294,2.446,-3.695,-10.85,1.33,24.01
22338.0,-8.653,2.259,-3.553,-9.055,0.644,-3.283,-19.46,8.33,22.61
,-8.701,1.567,-3.503,-9.038,0.893,-3.419,-21.07,9.24,22.89
,-8.806,1.115,-3.338,-8.832,1.522,-3.821,-19.39,10.08,23.52
,-8.789,0.735,-3.178,-8.519,1.953,-3.884,-16.45,10.92,24.36
22413.0,-8.641,1.816,-3.865,-8.689,1.031,-4.113,-10.36,16.31,29.33
,-8.928,1.565,-3.874,-8.66,1.476,-4.276,-11.41,16.66,31.15
,-9.031,1.261,-4.008,-8.514,1.622,-4.563,-10.15,16.87,32.76
,-8.827,0.936,-4.034,-8.521,1.594,-4.755,-8.33,17.5,33.88
22489.0,-8.629,1.591,-5.176,-8.744,1.548,-5.664,-10.64,18.62,39.2
,-8.662,1.321,-5.394,-8.674,1.598,-5.753,-10.92,18.06,41.02
,-8.509,1.077,-5.506,-8.375,1.67,-6.028,-10.99,17.64,42.28
,-8.619,1.082,-5.386,-8.267,1.771,-6.329,-10.22,16.94,43.47
22565.0,-8.454,1.876,-6.53,-9.971,3.924,-6.243,-13.72,12.32,51.24
,-9.206,0.34,-6.535,-11.043,4.111,-5.899,-24.15,10.78,52.64
,-8.428,1.843,-6.25,-11.419,2.819,-5.992,-20.09,8.05,60.2
,-9.067,3.53,-6.19,-11.105,1.4,-5.688,-11.97,5.88,67.69
22641.0,-11.137,0.986,-5.772,-9.253,4.183,-5.279,-43.61,3.99,52.99
,-10.845,1.309,-5.726,-9.016,4.594,-5.001,-39.41,1.89,53.06
,-10.378,2.216,-5.65,-8.717,4.532,-4.91,-36.26,0.14,52.22
,-9.763,3.429,-5.516,-9.435,4.312,-4.858,-36.68,-1.12,49.49
22716.0,-10.065,4.192,-4.628,-7.002,-1.598,0.282,-75.88,-1.61,13.93
,-9.543,3.723,-4.24,-8.792,-1.857,0.986,-81.34,-2.66,7.14
,-8.239,1.986,-2.257,-7.834,-0.244,-2.216,-88.06,-1.68,1.19
,-7.753,0.148,-0.297,-6.289,3.228,-5.044,-92.19,0.7,-3.57
22792.0,-6.621,4.602,-5.997,-6.815,-2.182,-2.525,-41.72,50.12,-49.0
,-7.064,2.508,-5.901,-7.564,-1.072,-2.783,-57.89,53.06,-63.98
,-6.406,-0.495,-6.016,-7.408,0.447,-3.963,-65.45,51.52,-78.4
,-6.308,-2.266,-4.7,-7.148,0.945,-3.841,-56.21,50.96,-89.53
22868.0,-7.186,1.256,-4.216,-8.064,0.811,-5.439,4.62,52.36,-110.46
,-7.377,1.644,-4.547,-8.392,0.72,-5.284,11.55,50.54,-113.47
,-7.341,1.496,-5.188,-7.83,1.783,-5.872,12.88,48.09,-115.43
,-7.571,0.854,-5.231,-6.908,3.233,-6.159,14.98,45.5,-115.92
22944.0,-6.664,4.625,-5.989,-7.964,3.305,-6.583,73.22,24.92,-106.12
,-6.731,4.719,-6.231,-8.246,3.719,-6.198,67.13,20.3,-105.07
,-7.456,4.212,-6.403,-7.72,4.377,-6.334,59.01,14.84,-100.94
,-7.779,3.51,-6.7,-8.181,5.121,-6.234,55.16,8.82,-94.15
23020.0,-8.37,5.81,-6.387,-9.139,5.757,-5.523,87.85,-12.04,-53.27
,-8.854,6.451,-5.997,-9.538,5.066,-5.068,85.68,-14.07,-45.71
,-8.524,6.86,-5.889,-9.38,3.841,-4.381,79.8,-14.35,-39.06
,-8.447,6.403,-5.741,-9.497,2.465,-4.039,71.26,-12.88,-34.09
23095.0,-9.411,1.876,-4.113,-6.119,6.791,-5.477,76.58,-18.06,13.23
,-8.787,4.422,-5.245,-7.076,5.363,-4.893,102.27,-19.53,26.32
,-7.353,7.353,-6.224,-8.308,5.765,-5.104,116.9,-20.93,32.62
,-6.159,8.016,-5.899,-7.93,8.988,-5.891,107.24,-22.61,32.62
23171.0,-8.818,9.569,-4.178,-10.361,-1.189,-2.474,46.76,-44.52,49.98
,-9.849,6.863,-3.364,-15.252,4.645,-1.881,28.14,-56.63,61.88
,-8.38,1.735,-2.436,-16.358,7.492,-0.974,16.03,-59.85,69.44
,-7.882,-2.534,-2.91,-11.33,6.545,-0.591,36.33,-45.57,71.05
23246.0,-5.439,4.451,-2.491,-8.402,0.045,-5.82,4.34,0.91,28.14
,-6.466,2.501,-3.96,-7.514,3.369,-5.896,-5.53,4.83,37.8
,-9.347,-2.252,-5.047,-8.354,4.372,-6.128,0.98,5.53,42.0
,-9.801,-3.381,-5.339,-8.794,2.991,-6.36,27.3,5.81,36.05
23322.0,-8.947,1.101,-6.159,-8.715,1.065,-5.889,-47.6,7.63,15.68
,-9.043,-0.433,-6.016,-8.311,2.089,-5.367,-44.31,4.69,18.06
,-8.77,-1.07,-5.989,-8.519,2.123,-4.633,-30.38,2.94,20.23
,-8.751,-0.424,-5.989,-9.045,1.189,-4.011,-14.84,1.05,21.7
23398.0,-9.328,0.735,-3.74,-8.885,1.642,-2.424,-30.8,-0.91,21.0
,-8.904,0.799,-3.386,-8.844,1.783,-2.402,-26.46,0.14,21.63
,-8.681,1.127,-3.128,-8.564,2.168,-2.594,-22.26,1.82,21.77
,-8.815,1.496,-2.84,-8.473,2.106,-2.694,-19.95,3.29,22.12
23474.0,-8.701,1.761,-3.204,-8.713,1.821,-3.762,-12.18,11.41,22.26
,-8.837,1.618,-3.62,-8.892,1.68,-3.623,-11.06,12.04,22.89
,-8.55,1.457,-3.807,-8.691,1.534,-3.525,-8.82,13.09,24.29
,-8.421,1.687,-3.934,-8.614,1.383,-3.455,-6.02,14.63,25.83
23549.0,-8.789,1.441,-3.632,-8.461,1.254,-4.654,-8.54,20.86,30.38
,-8.854,1.06,-3.79,-8.591,1.374,-4.824,-10.5,21.77,30.94
,-8.94,0.859,-4.08,-8.677,1.307,-4.941,-10.99,21.98,31.85
,-8.78,0.924,-4.401,-8.701,1.062,-5.233,-9.59,23.1,32.48
23625.0,-8.476,0.775,-5.513,-8.634,1.271,-5.422,-13.72,23.03,40.11
,-8.591,0.694,-5.753,-8.461,1.409,-5.592,-13.02,22.82,41.23
,-8.614,1.034,-5.549,-8.267,1.847,-6.15,-12.32,23.1,42.49
,-8.583,1.455,-5.418,-8.258,2.101,-6.516,-12.67,22.47,44.45
23700.0,-8.634,2.575,-6.705,-10.893,3.501,-6.42,-7.98,16.94,55.58
,-8.748,1.972,-7.449,-11.601,3.034,-6.114,-8.33,15.75,57.96
,-9.328,3.805,-7.009,-11.194,2.228,-6.183,-9.66,13.51,61.46
,-10.345,3.817,-6.753,-11.354,1.627,-6.334,-13.23,12.6,63.28
23776.0,-11.34,0.967,-6.231,-9.112,5.401,-6.006,-32.27,7.21,61.11
,-10.943,1.701,-6.31,-9.038,5.327,-5.638,-25.9,4.06,62.51
,-10.079,3.352,-6.396,-9.074,4.819,-5.403,-21.56,1.89,62.44
,-9.426,4.731,-6.286,-9.675,4.293,-5.047,-24.85,0.7,58.73
23852.0,-8.973,3.453,-4.056,-8.399,-2.857,0.239,-77.91,-1.82,17.99
,-7.727,2.237,-2.326,-7.7,-1.261,-0.634,-83.51,-0.42,10.71
,-7.279,0.522,-1.074,-6.638,1.357,-4.056,-92.05,2.8,5.46
,-8.636,-3.032,-0.316,-7.212,2.596,-4.384,-107.52,6.09,4.2
23928.0,-7.097,0.675,-4.097,-7.597,0.471,-2.876,-5.53,33.74,-37.52
,-6.782,-1.61,-4.042,-7.21,1.977,-3.726,-2.8,32.76,-47.67
,-6.664,-2.443,-3.427,-7.157,2.194,-4.085,10.85,32.9,-57.75
,-7.167,-1.417,-2.553,-7.751,1.764,-4.41,29.54,34.86,-66.36
24004.0,-7.952,1.151,-4.621,-8.385,0.574,-5.762,14.56,36.75,-98.91
,-7.483,0.634,-4.805,-7.978,2.118,-6.236,18.13,35.7,-104.16
,-8.315,-0.134,-5.279,-7.286,3.386,-6.726,25.76,33.04,-107.17
,-8.452,-0.57,-5.48,-7.444,3.625,-6.64,37.17,27.3,-106.47
24079.0,-7.803,3.104,-6.626,-6.521,5.188,-7.607,61.39,3.5,-114.52
,-8.205,2.058,-6.549,-7.076,6.513,-7.932,58.45,-3.78,-111.86
,-8.323,1.216,-6.569,-7.188,6.437,-7.94,63.77,-12.6,-104.65
,-7.753,2.922,-7.184,-7.703,5.891,-7.442,83.86,-19.6,-94.5
24155.0,-7.222,6.011,-7.968,-8.928,3.448,-5.382,69.65,-36.05,-81.48
,-7.423,5.575,-7.545,-8.306,3.285,-5.236,59.08,-35.77,-76.86
,-7.842,5.535,-7.05,-7.578,4.391,-5.542,51.24,-35.63,-69.93
,-8.461,4.374,-5.954,-6.851,6.569,-6.064,41.51,-35.91,-59.22
24231.0,-5.942,9.675,-7.004,-8.737,7.126,-4.721,117.25,-37.31,10.15
,-5.482,11.4,-6.846,-8.638,9.49,-5.504,111.16,-30.45,8.4
,-6.013,11.125,-5.458,-9.509,9.73,-4.736,82.53,-24.71,3.29
,-7.827,8.418,-4.393,-10.203,6.961,-3.74,46.27,-22.12,3.5
24307.0,-8.966,2.252,-3.977,-12.651,10.787,-4.482,15.26,-37.73,55.37
,-7.997,-0.369,-4.91,-15.451,4.02,-1.699,44.24,-30.59,66.22
,-6.937,0.632,-5.664,-10.335,-2.692,-1.977,92.68,-19.67,67.97
,-8.323,6.983,-6.123,-6.774,-2.036,-2.747,120.33,-8.05,57.75
24382.0,-7.442,-1.488,-3.69,-8.844,3.197,-5.173,-5.6,6.23,27.3
,-9.804,-1.405,-3.965,-8.495,1.701,-5.209,12.25,5.04,30.8
,-10.316,-0.546,-4.286,-8.823,0.041,-5.066,31.99,4.34,27.37
,-8.772,2.079,-5.023,-8.854,-0.617,-4.841,40.25,6.16,25.06
24458.0,-8.82,-0.081,-4.853,-9.002,0.462,-4.561,-6.09,8.75,19.39
,-8.614,0.572,-4.716,-8.638,0.409,-4.609,-3.71,8.82,20.09
,-8.808,1.029,-4.623,-8.44,0.73,-4.518,-4.9,9.24,19.95
,-9.213,1.094,-4.537,-8.497,1.182,-4.334,-8.54,9.24,20.44
24533.0,-8.679,1.517,-4.032,-8.703,1.11,-3.486,-7.77,9.66,22.33
,-8.629,1.692,-3.814,-8.559,1.376,-3.764,-9.17,10.99,22.61
,-8.691,1.591,-3.668,-8.301,1.397,-3.996,-10.78,12.53,22.61
,-8.686,1.268,-3.57,-8.296,1.596,-4.367,-11.62,13.93,22.89
24609.0,-8.153,1.917,-4.776,-8.758,0.28,-4.817,-10.43,18.69,22.4
,-8.382,1.5,-4.697,-8.811,0.148,-5.042,-14.07,19.81,22.33
,-8.918,0.94,-4.774,-8.705,0.376,-5.413,-16.66,20.02,22.96
,-8.921,0.596,-4.681,-8.61,0.574,-5.549,-16.45,20.02,24.22
24685.0,-8.65,0.761,-5.547,-8.734,1.23,-5.269,-10.64,17.43,30.8
,-8.634,1.151,-5.355,-8.392,1.225,-5.3,-11.9,17.5,32.41
,-8.533,1.28,-5.073,-8.586,1.512,-5.123,-14.7,17.85,33.18
,-8.78,1.388,-5.197,-8.825,1.536,-5.025,-17.71,17.71,33.88
24761.0,-8.971,1.211,-5.042,-8.808,2.326,-5.729,-23.59,17.64,39.9
,-8.768,0.828,-5.212,-9.112,2.639,-5.571,-24.99,17.78,41.16
,-8.772,0.263,-5.8,-9.763,2.721,-5.331,-22.61,17.29,43.68
,-8.306,1.874,-5.899,-9.758,2.503,-5.327,-18.83,16.31,47.39
24837.0,-9.811,2.656,-5.233,-10.199,3.226,-5.487,-28.77,19.11,43.75
,-9.978,2.864,-5.298,-10.06,3.369,-5.635,-29.61,20.23,42.28
,-10.062,2.943,-5.336,-9.89,3.384,-5.829,-31.64,20.72,40.74
,-10.22,3.132,-5.475,-9.89,3.226,-5.973,-33.95,21.07,39.13
24912.0,-9.89,2.967,-6.178,-8.744,2.357,-5.542,-52.78,19.18,27.86
,-9.651,2.704,-6.267,-8.066,1.843,-4.556,-56.91,17.71,24.08
,-9.698,2.45,-6.056,-6.875,0.715,-3.108,-60.34,15.75,19.81
,-9.588,2.398,-6.016,-5.245,0.493,-1.85,-60.34,12.67,16.8
24988.0,-6.435,0.108,-4.118,-7.533,0.098,-5.252,-66.15,12.95,-4.76
,-6.992,-0.297,-3.604,-7.731,-1.094,-4.743,-73.15,14.98,-11.62
,-7.428,-0.711,-4.149,-7.148,-2.398,-4.235,-62.65,17.92,-19.88
,-6.714,-0.223,-5.422,-7.337,-2.58,-3.857,-45.36,21.42,-26.74
25064.0,-7.911,-1.589,-3.877,-7.332,1.902,-5.185,48.23,13.3,-45.01
,-8.169,-0.282,-4.19,-7.332,1.689,-5.516,64.05,10.92,-47.6
,-7.899,0.668,-4.269,-7.928,1.256,-5.456,70.42,8.75,-50.82
,-7.562,1.393,-4.568,-7.949,1.381,-5.532,71.05,7.49,-55.44
25140.0,-7.483,1.397,-5.87,-7.746,3.867,-6.284,61.81,-4.13,-73.08
,-7.806,1.51,-5.963,-6.791,4.949,-6.779,65.52,-7.56,-73.85
,-7.999,1.692,-5.674,-7.169,5.394,-6.671,70.28,-10.99,-74.97
,-8.277,2.429,-5.654,-7.55,5.853,-6.772,74.9,-14.7,-74.27
25215.0,-7.631,5.298,-6.947,-8.007,4.054,-6.497,51.94,-31.78,-84.35
,-7.344,3.9,-6.571,-7.667,5.494,-6.798,39.34,-35.49,-83.86
,-7.399,2.962,-5.994,-7.286,6.308,-6.659,35.14,-36.61,-79.59
,-8.088,2.994,-5.942,-7.191,7.117,-6.492,38.43,-39.2,-71.4
25291.0,-7.425,7.822,-6.073,-8.691,4.19,-5.508,26.39,-41.93,-49.07
,-7.576,7.205,-6.085,-8.756,4.606,-5.006,10.15,-41.72,-48.3
,-7.619,5.016,-5.461,-8.741,4.666,-5.114,-6.3,-43.05,-44.52
,-7.964,3.704,-5.724,-8.538,5.281,-4.748,-9.45,-44.45,-37.31
25366.0,-9.201,6.145,-3.616,-8.978,14.087,-6.174,18.27,-33.81,-7.49
,-10.651,7.353,-1.831,-8.868,9.67,-4.882,23.03,-25.69,-1.54
,-11.034,10.433,-2.986,-9.995,3.293,-3.537,37.31,-12.46,8.75
,-9.232,13.778,-5.042,-11.196,-1.242,-2.515,38.15,7.0,14.77
25442.0,-10.708,-2.749,-1.893,-8.871,4.166,-3.874,-5.88,-3.85,22.96
,-10.127,-0.101,-2.402,-10.56,2.821,-4.288,35.21,-2.87,28.63
,-8.902,3.262,-3.099,-9.038,2.146,-4.48,50.19,1.33,28.7
,-7.731,5.075,-4.006,-7.473,2.187,-4.774,34.3,7.49,20.09
25518.0,-7.887,2.91,-5.087,-8.189,5.698,-5.884,-22.19,21.84,8.05
,-8.626,4.027,-5.145,-8.55,3.465,-5.887,-22.96,25.9,3.5
,-8.437,5.207,-5.36,-8.543,1.653,-5.676,-30.94,29.89,-1.12
,-8.172,6.135,-5.549,-8.392,1.168,-5.528,-45.5,33.53,-5.32
25594.0,-8.538,1.869,-5.374,-7.932,3.723,-5.54,-77.63,28.21,0.21
,-8.792,2.367,-5.336,-7.722,4.176,-5.58,-67.34,23.94,4.34
,-8.703,2.295,-5.207,-7.897,3.707,-5.573,-58.24,18.13,8.89
,-8.421,2.764,-5.116,-8.193,3.384,-5.482,-46.06,12.53,13.86
25670.0,-8.122,3.719,-5.489,-8.035,4.685,-5.513,-36.26,-1.61,31.5
,-7.973,4.494,-5.475,-8.603,4.527,-5.226,-34.93,-1.75,35.77
,-7.856,4.893,-5.449,-8.717,4.109,-5.116,-38.85,-1.33,38.36
,-8.093,4.786,-5.229,-8.387,3.929,-5.19,-44.52,-0.28,39.9
25745.0,-7.815,4.401,-5.475,-8.878,3.015,-4.953,-47.88,2.45,48.93
,-7.944,4.645,-5.307,-8.887,2.383,-4.558,-48.79,4.55,48.65
,-8.557,4.362,-5.09,-8.765,2.647,-4.508,-52.5,5.39,48.79
,-8.825,3.819,-5.114,-8.612,3.029,-4.496,-54.74,5.25,49.77
25821.0,-8.265,3.049,-4.178,-7.535,4.535,-4.992,-31.99,-7.77,58.59
,-7.87,2.862,-3.841,-7.576,4.384,-4.657,-30.73,-11.06,58.52
,-7.612,2.747,-3.814,-7.569,4.188,-4.681,-29.4,-13.16,57.47
,-7.772,3.542,-4.372,-7.32,4.092,-4.463,-26.81,-14.77,56.0
25897.0,-7.459,3.774,-4.018,-7.758,1.359,-2.18,-63.35,-20.65,41.02
,-7.796,3.087,-3.546,-7.609,1.644,-2.352,-69.86,-21.98,38.22
,-7.688,2.438,-3.101,-6.942,2.434,-2.584,-70.84,-22.82,35.35
,-7.731,1.888,-2.656,-6.659,2.934,-2.582,-67.97,-22.89,32.41
25973.0,-6.801,2.513,-2.496,-7.1,-0.818,-1.876,-42.98,-7.07,19.04
,-7.117,1.464,-2.73,-7.028,-0.818,-1.962,-42.35,-3.29,17.29
,-7.203,0.479,-2.431,-6.849,-1.015,-2.146,-34.51,-1.4,16.03
,-7.2,-0.129,-2.185,-6.533,-0.924,-1.536,-20.09,-0.42,15.75
26048.0,-6.516,2.118,-2.85,-8.198,6.289,-5.451,82.32,24.08,19.18
,-6.174,4.408,-2.314,-9.421,4.736,-4.159,85.12,34.02,8.12
,-7.954,5.377,-3.491,-10.122,3.195,-3.561,67.55,39.06,-2.73
,-7.648,6.356,-4.817,-9.718,3.326,-3.625,47.67,39.55,-11.27
26124.0,-9.347,2.24,-4.408,-9.107,5.389,-5.571,7.49,22.61,-43.4
,-9.574,0.55,-4.874,-8.646,4.357,-7.018,28.49,24.08,-44.31
,-10.605,2.52,-5.164,-8.629,3.197,-8.155,52.57,21.84,-44.87
,-10.127,4.996,-4.817,-8.457,2.369,-8.636,57.96,18.83,-44.87
26199.0,-7.849,2.544,-8.614,-11.919,3.625,-6.389,26.18,2.45,-50.19
,-8.964,4.302,-6.595,-5.855,-1.374,-7.334,28.49,0.14,-52.43
,-12.936,8.177,-4.223,-5.248,-4.075,-6.454,32.55,0.77,-56.63
,-15.657,9.115,-5.597,-9.005,-3.47,-5.616,20.16,0.49,-58.17
26275.0,-10.684,-1.151,-5.049,-8.533,1.613,-3.812,30.17,-12.18,-40.32
,-10.27,-0.029,-4.47,-8.701,2.075,-3.881,30.1,-14.07,-37.45
,-9.306,0.041,-4.089,-9.028,1.972,-3.805,25.48,-14.77,-35.84
,-8.744,0.67,-3.838,-9.007,1.57,-3.853,26.46,-14.42,-33.6
26351.0,-8.914,1.204,-4.058,-8.909,1.933,-4.039,32.06,-15.05,-23.1
,-8.926,1.196,-4.381,-9.318,1.369,-3.869,33.11,-15.47,-22.33
,-8.583,1.57,-4.554,-9.189,0.988,-3.865,32.41,-15.61,-21.63
,-8.6,2.01,-4.377,-8.88,1.479,-4.255,29.89,-15.4,-20.79
26427.0,-8.433,2.534,-4.417,-9.21,0.572,-3.063,30.52,-13.86,-13.93
,-8.351,3.477,-4.369,-9.304,0.258,-3.094,26.32,-12.32,-14.21
,-8.619,3.161,-3.932,-8.911,1.216,-3.518,17.5,-10.99,-14.77
,-8.902,1.84,-3.415,-8.519,2.388,-3.556,10.57,-10.08,-14.91
26502.0,-8.997,2.795,-3.903,-8.641,1.926,-3.123,19.53,-5.67,-14.77
,-9.115,2.544,-4.044,-8.808,2.266,-2.85,11.62,-4.69,-15.12
,-8.71,2.034,-3.812,-8.72,2.544,-2.912,7.7,-3.64,-15.19
,-8.449,1.802,-3.427,-8.311,2.682,-2.793,8.96,-2.38,-14.98
26578.0,-8.394,2.838,-2.776,-8.942,1.776,-3.022,2.59,9.73,-23.17
,-8.425,2.986,-2.737,-8.804,1.795,-3.034,-2.52,13.51,-25.62
,-8.715,2.572,-2.587,-8.77,2.259,-3.173,-7.98,16.87,-27.37
,-9.076,2.142,-2.91,-8.363,2.953,-2.754,-9.45,19.25,-26.95
26654.0,-7.827,3.917,-1.981,-8.449,7.437,-1.697,-5.46,31.5,-36.19
,-7.54,4.956,-1.187,-9.27,4.898,-2.18,-9.03,37.45,-40.04
,-7.413,6.181,-0.818,-10.998,1.977,-3.07,-16.45,44.59,-43.75
,-6.994,7.365,-1.283,-12.883,-0.115,-4.417,-31.5,54.95,-49.56
26730.0,-12.781,-0.67,-5.664,-8.098,10.325,-6.207,-51.66,40.6,-35.56
,-14.197,-1.342,-4.448,-8.638,11.493,-6.741,-30.87,32.97,-31.43
,-12.189,1.431,-6.324,-8.976,9.349,-6.731,-2.45,30.8,-16.59
,-8.643,5.922,-6.435,-9.332,7.504,-6.415,20.44,33.67,0.28
26806.0,-9.72,7.195,-6.255,-9.088,2.757,-6.143,-68.88,21.07,14.63
,-9.675,6.667,-4.736,-8.643,2.493,-6.267,-77.7,19.53,24.43
,-9.217,5.824,-5.327,-8.423,3.692,-6.518,-84.14,14.07,34.09
,-9.232,4.161,-5.76,-7.921,4.709,-6.528,-83.02,7.0,43.12
26881.0,-7.928,5.083,-6.585,-7.093,4.726,-5.252,-4.48,-27.93,83.37
,-7.77,4.939,-6.176,-7.629,4.532,-4.901,-8.82,-34.44,89.6
,-6.949,4.556,-6.171,-7.389,3.506,-4.858,-13.93,-38.01,94.85
,-6.772,4.63,-5.743,-7.301,2.302,-4.685,-17.43,-38.29,99.82
26957.0,-7.392,1.735,-4.748,-6.846,1.326,-4.274,-27.79,-39.97,100.66
,-7.447,1.687,-4.922,-6.49,0.967,-3.814,-20.37,-39.48,101.29
,-7.327,1.407,-4.621,-6.636,0.574,-3.996,-12.74,-39.34,100.31
,-7.43,1.484,-4.829,-7.042,0.476,-4.094,-3.22,-40.18,99.96
27033.0,-7.188,0.797,-4.121,-6.372,1.543,-3.781,28.0,-32.69,89.18
,-6.882,1.072,-3.898,-6.616,1.979,-4.336,30.45,-29.68,83.86
,-6.698,0.993,-3.783,-6.463,1.196,-4.147,30.1,-26.18,77.28
,-6.645,1.019,-3.915,-6.49,-0.019,-3.546,29.61,-21.84,70.63
27109.0,-6.399,-1.273,-2.481,-8.227,2.079,-3.472,9.52,-2.73,27.23
,-6.82,-1.089,-3.611,-7.897,2.986,-3.161,31.92,4.41,25.76
,-6.384,0.526,-3.446,-8.751,4.19,-3.429,47.04,11.97,19.11
,-7.782,1.326,-3.625,-8.909,4.987,-3.853,48.09,14.91,8.82
27184.0,-10.404,5.365,-3.415,-11.029,2.819,-4.501,11.41,13.37,-50.75
,-9.32,3.795,-3.544,-10.122,6.054,-4.518,-6.65,15.12,-54.81
,-10.22,1.35,-4.164,-9.56,6.602,-4.781,-0.98,13.72,-52.92
,-11.117,0.369,-4.491,-9.545,4.824,-5.587,23.24,12.04,-54.95
27260.0,-9.435,2.687,-6.207,-8.457,2.517,-8.1,2.31,11.27,-73.43
,-9.239,1.792,-6.899,-9.459,2.328,-6.805,0.42,8.54,-74.06
,-8.557,1.804,-7.827,-11.433,3.384,-4.982,4.2,4.48,-71.4
,-8.289,2.539,-8.296,-12.759,4.011,-4.125,8.68,0.0,-67.06
27335.0,-11.405,1.9,-4.336,-9.533,0.017,-4.247,37.8,-17.78,-37.87
,-8.346,-0.397,-4.53,-9.966,-0.268,-3.532,35.35,-17.43,-38.71
,-7.119,-0.62,-5.152,-9.99,-0.792,-3.281,33.81,-14.91,-41.65
,-8.253,-0.424,-4.733,-9.541,-0.802,-3.453,29.89,-13.86,-44.1
27411.0,-8.784,0.447,-3.568,-9.048,1.534,-3.187,53.34,-17.43,-22.82
,-8.488,2.675,-3.771,-9.196,0.436,-2.996,57.47,-15.75,-22.4
,-8.315,3.733,-3.601,-9.158,0.735,-2.948,47.74,-13.51,-24.15
,-8.928,3.171,-3.436,-8.839,1.668,-3.02,32.69,-12.32,-25.27
27487.0,-8.964,2.0,-3.154,-8.823,1.409,-4.8,40.32,-6.72,-16.59
,-9.237,1.871,-3.451,-8.614,2.056,-4.968,35.56,-6.02,-15.96
,-8.818,1.706,-3.898,-8.138,3.096,-4.992,33.32,-5.46,-15.4
,-8.729,1.462,-4.422,-8.083,3.302,-4.326,33.25,-4.9,-14.84
27563.0,-8.662,2.28,-3.676,-8.88,1.376,-4.381,26.25,-2.03,-14.28
,-9.208,1.254,-3.53,-8.698,1.699,-4.647,25.62,-1.68,-14.0
,-9.139,0.871,-3.618,-8.124,2.115,-4.858,29.68,-0.98,-13.79
,-8.732,1.01,-4.008,-8.203,2.089,-4.91,32.9,0.7,-14.56
27639.0,-8.636,1.756,-4.972,-8.533,2.582,-4.712,16.03,5.88,-20.37
,-8.801,1.639,-5.233,-8.514,2.529,-4.515,10.5,6.86,-21.21
,-8.363,1.866,-5.159,-8.279,2.678,-4.003,6.44,8.75,-22.19
,-7.999,2.28,-4.798,-8.177,2.776,-3.195,1.61,11.62,-24.15
27714.0,-8.066,3.168,-2.982,-8.466,4.453,-2.828,-27.09,23.1,-39.27
,-8.557,3.599,-3.013,-8.32,3.896,-1.259,-33.88,26.25,-41.93
,-8.595,3.865,-2.584,-9.883,3.714,-3.037,-41.79,29.54,-43.89
,-8.746,4.365,-2.807,-9.538,2.338,-3.453,-47.46,32.69,-45.01
27790.0,-10.297,1.003,-3.893,-10.682,3.211,-6.444,-58.59,34.51,-41.72
,-10.4,0.239,-4.379,-8.066,6.485,-6.992,-44.8,30.38,-36.61
,-10.555,0.041,-4.585,-7.404,9.11,-6.549,-31.78,27.79,-32.06
,-11.713,0.459,-5.461,-7.66,9.43,-6.693,-10.36,24.08,-25.62
27866.0,-7.825,8.473,-4.42,-9.409,4.738,-5.597,-45.36,38.01,-12.04
,-9.775,8.33,-5.358,-9.675,2.785,-5.738,-63.56,37.87,-9.87
,-9.43,8.057,-5.358,-9.883,2.032,-5.805,-80.71,36.89,-2.24
,-9.502,6.904,-5.461,-9.32,3.285,-6.186,-97.44,32.97,7.56
27942.0,-8.67,5.185,-6.353,-7.145,6.382,-5.968,-8.05,-12.25,56.7
,-8.593,7.047,-6.375,-7.901,4.434,-5.468,-5.81,-18.83,63.7
,-7.803,7.904,-6.528,-8.26,2.692,-5.202,-18.69,-24.01,67.97
,-7.145,7.806,-6.444,-8.378,1.618,-4.939,-38.78,-26.67,69.79
28017.0,-8.064,1.759,-5.016,-7.98,3.195,-4.743,-51.59,-51.31,87.15
,-7.787,2.592,-4.927,-8.332,2.302,-4.422,-36.68,-56.21,89.88
,-7.641,3.865,-5.499,-8.131,1.46,-4.221,-28.07,-59.85,89.04
,-7.842,3.975,-5.329,-7.729,1.139,-4.099,-30.87,-62.65,86.73
28093.0,-7.444,1.661,-4.233,-8.074,-1.898,-2.12,-35.91,-63.35,77.0
,-7.203,2.146,-4.018,-7.916,-3.352,-1.986,-32.62,-59.99,73.08
,-7.528,1.799,-3.676,-7.865,-3.171,-1.948,-34.16,-56.98,69.02
,-7.638,0.299,-2.659,-7.363,-1.644,-2.769,-33.18,-54.46,66.5
28168.0,-6.449,-0.761,-3.235,-5.559,3.037,-2.3,73.57,-28.77,68.25
,-6.21,-0.715,-3.096,-7.717,1.586,-3.34,78.68,-20.09,62.37
,-5.915,-0.213,-2.771,-7.712,3.027,-3.147,83.51,-9.31,56.91
,-5.037,1.924,-3.003,-9.265,4.822,-2.206,93.73,5.95,52.15
28244.0,-9.847,2.553,-2.017,-9.876,-0.093,-4.86,36.75,18.2,-26.81
,-9.696,1.469,-1.754,-11.522,-0.849,-4.939,19.67,21.14,-43.54
,-10.278,2.352,-1.551,-10.486,1.957,-4.795,7.91,26.53,-55.02
,-9.086,1.503,-3.625,-9.328,5.968,-5.504,2.1,29.89,-56.14
28320.0,-8.66,6.705,-6.872,-12.201,3.683,-4.903,40.04,21.98,-61.39
,-8.6,5.621,-7.966,-14.597,5.138,-5.702,17.78,21.77,-68.53
,-9.081,4.7,-8.339,-11.799,1.989,-6.217,0.49,19.67,-74.97
,-9.806,3.163,-7.078,-6.793,-1.208,-6.305,-8.05,15.12,-74.34
28396.0,-5.666,-1.33,-6.571,-10.091,-0.424,-4.535,43.12,-1.26,-38.29
,-8.131,-0.983,-5.841,-9.261,-0.775,-4.343,42.0,-1.4,-43.61
,-9.564,-0.833,-5.128,-9.007,-0.084,-4.491,31.57,-3.29,-48.02
,-9.907,-0.493,-4.736,-8.545,1.302,-4.326,20.58,-5.18,-47.88
28472.0,-8.746,1.936,-3.92,-8.815,1.347,-3.647,56.35,-11.48,-22.75
,-9.143,1.551,-3.661,-8.849,2.178,-3.75,49.14,-11.41,-22.47
,-9.433,0.637,-3.57,-8.784,2.687,-3.932,41.86,-12.11,-22.61
,-9.074,0.672,-3.52,-8.82,2.271,-3.838,42.0,-12.04,-22.75
28547.0,-8.839,1.606,-3.953,-9.098,1.898,-4.91,28.91,-6.93,-18.83
,-8.854,1.445,-4.006,-8.409,2.388,-5.2,29.82,-6.58,-17.71
,-8.667,1.51,-4.118,-8.019,2.864,-5.384,31.08,-5.95,-17.22
,-8.851,1.706,-4.276,-8.275,2.898,-5.348,29.82,-5.18,-17.29
28623.0,-8.569,2.455,-4.939,-9.155,1.256,-2.304,14.14,-4.97,-18.9
,-8.291,2.297,-4.293,-9.342,0.811,-2.268,13.37,-4.48,-19.46
,-8.241,2.271,-3.436,-9.146,1.29,-2.764,13.3,-2.52,-20.3
,-8.67,1.862,-2.709,-8.681,2.048,-3.477,10.92,-0.14,-21.56
28699.0,-8.478,2.778,-4.173,-8.112,3.494,-4.633,8.61,11.06,-25.69
,-8.11,3.061,-4.714,-8.215,3.888,-3.671,1.75,13.44,-27.93
,-7.971,3.242,-5.066,-8.133,3.984,-2.493,-6.3,16.73,-31.15
,-7.971,3.601,-5.039,-8.679,3.999,-1.68,-16.73,20.86,-35.42
28775.0,-9.514,4.121,-1.716,-9.777,3.707,-1.491,-42.84,39.34,-44.1
,-9.813,3.85,-1.328,-10.878,4.791,-2.369,-44.1,43.61,-46.76
,-10.043,3.484,-0.823,-11.764,5.944,-3.053,-43.96,47.88,-48.51
,-9.646,3.393,-0.759,-12.132,5.91,-3.96,-42.98,51.73,-49.21
28850.0,-12.012,5.049,-5.15,-8.358,2.288,-7.863,-35.98,53.06,-42.35
,-11.73,3.972,-6.08,-6.808,3.494,-8.634,-30.38,51.31,-41.3
,-10.912,3.295,-6.564,-5.26,7.791,-10.151,-26.32,49.35,-36.75
,-9.856,2.599,-7.061,-5.951,10.759,-9.416,-26.88,45.71,-29.4
28926.0,-8.076,10.797,-8.349,-8.813,-1.218,-5.437,-91.49,22.82,7.56
,-9.572,6.521,-7.942,-7.954,1.378,-4.925,-130.69,-0.42,14.77
,-9.89,1.584,-7.272,-8.215,4.058,-5.274,-140.63,-24.15,27.51
,-9.497,-1.263,-6.425,-8.454,6.222,-6.056,-114.59,-42.14,43.75
29001.0,-7.851,7.282,-6.399,-7.664,0.493,-5.19,-25.41,-55.3,83.51
,-7.672,6.722,-6.669,-7.313,-0.28,-5.229,-58.66,-54.39,84.14
,-7.6,4.594,-6.461,-7.205,0.041,-5.147,-85.33,-55.23,85.4
,-7.715,2.395,-5.942,-7.456,1.323,-5.176,-92.05,-58.38,86.24
29077.0,-7.538,2.68,-4.984,-7.112,3.118,-4.336,-10.08,-85.33,102.83
,-7.076,3.419,-4.891,-7.272,1.768,-3.936,-6.93,-87.57,103.88
,-6.959,3.754,-5.075,-7.42,0.617,-3.723,-8.26,-87.43,102.27
,-6.791,3.869,-4.982,-7.463,-0.177,-3.573,-13.09,-85.05,98.28
29153.0,-7.124,-0.263,-3.345,-6.791,0.237,-1.347,6.09,-66.78,85.33
,-6.782,0.285,-3.072,-6.408,-0.072,-0.668,21.0,-60.97,83.37
,-6.884,0.926,-2.85,-6.332,0.56,-0.818,30.73,-54.81,80.92
,-7.05,0.921,-2.12,-6.265,1.153,-1.103,35.91,-48.02,77.56
29229.0,-5.638,1.9,-1.572,-8.516,2.056,-2.467,83.65,6.09,41.51
,-5.396,3.039,-2.496,-9.713,3.503,-2.527,84.56,19.25,31.36
,-5.925,3.336,-2.747,-10.749,5.494,-1.682,77.42,30.8,18.97
,-7.463,2.312,-2.458,-10.644,5.415,-0.598,66.57,35.91,9.03
29305.0,-9.773,4.702,-0.742,-11.866,1.137,-4.934,25.55,13.02,-42.28
,-9.608,6.188,-2.087,-10.727,5.016,-4.714,19.53,21.77,-52.29
,-10.026,5.422,-3.561,-9.574,7.679,-4.669,12.74,25.97,-53.69
,-11.192,1.029,-4.592,-9.356,6.425,-5.032,17.5,24.57,-54.88
29380.0,-9.947,3.695,-5.958,-11.141,5.422,-6.667,4.69,19.6,-72.66
,-10.428,-0.232,-5.843,-10.246,4.515,-6.949,0.7,14.77,-73.92
,-10.227,-0.893,-5.822,-7.772,1.311,-6.88,16.17,8.12,-66.43
,-10.502,2.168,-5.93,-7.217,-0.06,-6.578,41.79,4.34,-55.44
29456.0,-8.437,-0.672,-5.86,-8.251,0.849,-4.142,-0.91,0.42,-59.92
,-9.84,-0.44,-5.281,-8.267,2.513,-4.101,-0.28,-2.03,-56.0
,-9.828,0.007,-4.709,-8.978,3.01,-3.709,1.12,-3.99,-51.17
,-8.827,0.005,-4.255,-8.926,1.814,-3.386,3.92,-4.34,-47.25
29532.0,-9.421,0.163,-2.773,-8.849,2.745,-3.171,2.59,-2.94,-37.45
,-9.627,-0.78,-2.819,-8.88,3.032,-2.929,11.76,-4.48,-34.23
,-9.469,-0.191,-2.838,-9.091,1.943,-2.972,24.15,-5.32,-31.78
,-9.263,1.125,-3.046,-9.344,0.634,-2.819,31.01,-5.32,-30.52
29608.0,-9.057,0.433,-2.905,-8.684,2.608,-4.472,21.49,-1.05,-23.38
,-8.99,0.785,-3.211,-8.646,2.391,-4.769,29.54,-0.14,-21.35
,-9.174,1.457,-3.762,-8.622,2.417,-4.752,33.32,-0.07,-20.16
,-9.069,2.273,-4.271,-8.241,2.527,-4.716,32.41,0.7,-19.18
29683.0,-8.55,2.371,-4.826,-8.787,2.905,-3.087,15.54,3.01,-21.42
,-8.409,2.876,-4.649,-9.052,1.91,-2.694,15.33,3.71,-21.7
,-8.021,3.178,-4.022,-8.844,1.141,-2.455,12.53,5.95,-23.38
,-8.33,3.149,-3.671,-9.139,0.347,-2.962,7.28,8.47,-24.57
29759.0,-9.457,-0.048,-3.891,-8.062,2.85,-4.803,-1.12,15.89,-26.95
,-9.194,0.495,-4.523,-7.942,3.216,-4.228,2.03,15.12,-27.51
,-8.598,1.106,-4.951,-7.959,3.319,-3.364,2.52,14.56,-28.63
,-8.186,1.962,-4.992,-8.22,3.668,-2.273,-0.21,14.84,-29.19
29834.0,-8.26,3.783,-1.275,-9.555,3.58,-0.562,-38.08,32.9,-45.01
,-8.26,4.137,-0.416,-10.658,2.07,-1.232,-42.28,37.66,-48.3
,-8.402,4.207,-0.041,-11.871,0.653,-2.479,-46.76,43.26,-51.17
,-8.899,4.044,-0.139,-12.596,-0.313,-3.479,-52.36,47.25,-54.6
29910.0,-11.677,-0.108,-4.276,-8.55,7.308,-5.934,-32.76,30.73,-44.1
,-10.739,1.034,-5.03,-9.517,7.562,-6.143,-10.15,29.26,-42.77
,-11.505,2.783,-5.418,-9.337,6.609,-7.021,12.46,29.89,-38.57
,-10.11,5.796,-5.796,-9.012,6.545,-7.631,19.74,35.42,-26.67
29986.0,-8.935,8.569,-8.007,-9.636,2.367,-5.573,-37.31,27.23,-5.04
,-9.282,10.144,-8.428,-10.072,0.861,-5.829,-59.36,22.68,2.1
,-8.808,9.167,-7.794,-9.574,1.397,-5.64,-95.83,15.19,6.51
,-9.215,5.52,-5.042,-8.966,3.589,-5.92,-122.85,7.35,12.11
30062.0,-8.904,5.535,-6.128,-7.459,3.429,-5.181,-18.76,-44.24,73.01
,-8.641,6.138,-5.932,-8.059,2.812,-4.743,-21.84,-49.07,81.41
,-8.528,5.621,-5.513,-8.263,2.757,-4.676,-31.64,-52.99,88.41
,-8.126,4.374,-5.363,-8.014,3.008,-4.59,-39.97,-57.05,94.15
30137.0,-8.002,3.422,-4.614,-7.844,1.29,-3.458,-25.13,-70.91,108.71
,-7.715,3.551,-4.365,-7.775,0.802,-3.448,-25.27,-69.51,107.87
,-7.753,3.199,-4.133,-7.846,0.615,-3.101,-27.37,-67.55,105.07
,-7.825,2.194,-3.731,-7.595,0.802,-3.178,-29.26,-65.52,102.13
30213.0,-7.27,0.849,-3.015,-7.473,-1.247,-2.84,7.98,-40.81,84.56
,-7.14,1.108,-3.175,-7.442,-1.838,-3.029,13.86,-33.53,79.94
,-6.98,0.522,-3.096,-7.459,-2.225,-2.982,14.0,-26.74,73.57
,-7.176,-0.512,-2.797,-7.499,-2.74,-2.606,16.24,-20.44,68.53
30289.0,-7.105,-3.044,-1.933,-7.727,5.949,-3.027,74.27,-0.42,47.11
,-6.762,-0.27,-3.867,-6.906,4.556,-3.017,104.16,7.63,47.88
,-6.073,4.302,-2.771,-8.641,1.752,-2.742,110.04,13.86,28.91
,-7.373,5.635,-2.816,-8.469,-0.938,-3.321,83.09,16.87,2.73
30365.0,-9.347,-1.283,-4.664,-9.572,6.566,-6.004,-15.96,39.34,-64.19
,-10.237,-2.843,-5.884,-9.356,5.654,-6.212,4.76,35.7,-60.13
,-11.622,-2.505,-5.631,-9.514,1.194,-5.966,40.25,29.19,-60.27
,-10.663,2.225,-5.43,-10.282,-0.45,-5.812,68.46,25.69,-65.24
30441.0,-10.349,0.39,-5.633,-11.4,5.836,-5.441,32.9,5.18,-48.23
,-10.613,2.958,-5.506,-7.535,1.749,-5.772,61.11,-0.42,-40.04
,-12.077,6.466,-4.712,-6.49,-0.79,-5.915,77.07,-2.94,-37.03
,-13.486,8.052,-4.738,-8.004,-1.505,-5.743,75.46,-3.22,-36.54
30516.0,-9.067,-0.912,-5.58,-9.005,0.311,-4.645,50.75,-8.89,-30.03
,-9.347,-0.208,-5.358,-8.497,1.247,-4.482,51.52,-10.57,-28.91
,-9.864,-0.05,-4.86,-8.885,2.036,-4.235,46.69,-11.48,-28.28
,-9.88,-0.175,-4.716,-9.366,1.84,-3.905,42.84,-12.88,-26.46
30592.0,-9.308,1.146,-3.848,-8.727,3.654,-4.003,37.73,-13.86,-17.08
,-8.799,1.249,-3.781,-9.04,2.46,-3.841,37.8,-13.37,-17.08
,-8.459,2.362,-3.795,-8.99,1.01,-4.109,39.41,-12.18,-16.1
,-8.595,3.508,-3.946,-9.036,0.864,-4.549,36.26,-10.5,-15.47
30667.0,-8.65,1.855,-5.059,-8.794,1.055,-3.862,18.55,-4.48,-16.38
,-8.495,2.828,-5.418,-8.734,0.981,-3.367,16.87,-4.55,-15.96
,-8.588,2.864,-5.171,-8.655,1.51,-3.197,10.57,-4.76,-15.96
,-8.772,1.864,-4.618,-8.473,2.024,-3.029,5.53,-5.53,-15.4
30743.0,-8.665,2.103,-3.032,-9.191,0.488,-2.874,17.15,-1.33,-14.0
,-9.031,2.008,-2.838,-9.347,0.486,-3.108,11.83,0.84,-14.14
,-9.263,1.694,-2.594,-9.074,0.871,-3.709,7.91,3.01,-13.72
,-9.277,0.914,-2.57,-8.794,1.479,-4.247,6.3,4.97,-12.95
30819.0,-8.698,1.56,-4.415,-9.208,0.859,-4.539,-0.21,8.89,-15.26
,-8.873,1.357,-4.47,-8.957,0.732,-4.848,-3.01,8.68,-14.84
,-8.693,1.522,-4.389,-8.078,3.154,-5.011,-2.8,8.61,-14.7
,-8.76,1.326,-4.405,-9.82,0.66,-5.02,-3.71,8.54,-14.42
30895.0,-8.83,-0.608,-4.719,-9.141,0.237,-3.946,-9.59,3.99,-9.59
,-8.215,1.407,-4.338,-8.842,-1.161,-3.927,3.22,3.01,-8.33
,-8.382,3.656,-4.556,-9.462,-2.228,-3.86,4.69,3.15,-8.54
,-9.998,2.577,-4.101,-9.569,-0.955,-4.013,-9.45,4.55,-7.91
30970.0,-8.918,1.278,-4.508,-8.839,1.34,-4.664,13.58,1.19,-3.64
,-8.737,1.661,-4.769,-8.897,1.173,-4.475,1.89,0.84,-3.78
,-8.94,0.905,-4.63,-9.1,0.787,-4.25,-5.39,0.7,-3.01
,-9.122,0.785,-4.645,-9.107,0.469,-4.078,-1.68,-0.07,-0.98
31046.0,-8.928,0.567,-3.965,-8.983,1.524,-3.743,-0.7,-1.4,1.33
,-8.985,0.866,-3.891,-8.966,1.117,-3.654,-0.7,-1.47,1.26
,-8.988,1.431,-3.977,-9.155,0.742,-3.754,-1.68,-1.05,1.33
,-9.016,1.534,-3.783,-9.134,0.928,-3.891,-4.41,-0.14,1.26
31121.0,-8.983,1.07,-4.006,-8.988,0.964,-4.006,-4.06,1.47,4.27
,-8.945,1.354,-4.111,-8.969,0.857,-4.18,-4.62,1.68,4.34
,-8.973,1.285,-4.015,-8.911,0.871,-4.365,-6.02,2.1,4.69
,-8.887,1.18,-3.939,-8.856,0.993,-4.52,-6.16,2.52,5.25
31197.0,-8.847,1.141,-4.451,-9.11,1.029,-4.037,-0.7,0.84,7.91
,-8.859,1.35,-4.288,-8.88,0.84,-3.735,-1.47,0.84,8.33
,-8.911,1.405,-4.188,-8.949,0.881,-3.534,-2.94,1.26,8.82
,-9.15,1.302,-4.082,-9.165,1.161,-3.486,-3.92,1.47,9.03
31273.0,-9.002,1.586,-3.491,-8.887,1.505,-4.214,2.73,2.52,12.18
,-8.82,1.953,-3.673,-8.574,1.45,-4.214,1.33,3.43,12.04
,-8.911,1.931,-3.884,-8.729,1.517,-3.979,-2.66,4.62,12.11
,-9.05,1.706,-4.07,-9.182,1.615,-3.685,-6.44,5.53,12.32
31349.0,-9.316,1.268,-3.503,-8.947,1.29,-3.211,-11.41,7.49,14.84
,-8.949,0.751,-3.374,-8.916,1.457,-3.326,-11.06,7.7,15.26
,-9.083,0.766,-3.264,-9.064,1.402,-3.649,-8.82,8.12,15.61
,-9.186,1.11,-3.242,-9.107,1.369,-3.853,-5.74,8.96,17.01
31425.0,-8.935,1.192,-4.137,-8.859,1.12,-4.322,-3.92,11.27,22.19
,-8.701,1.039,-4.42,-8.691,1.156,-4.391,-4.13,10.92,22.82
,-8.938,1.335,-4.319,-8.674,1.357,-4.475,-3.71,10.71,23.45
,-9.093,1.33,-4.408,-8.765,1.888,-4.374,-3.22,9.8,25.13
31500.0,-8.447,2.271,-4.424,-9.048,0.68,-4.011,2.1,9.45,29.54
,-8.416,2.381,-4.369,-9.129,0.474,-4.078,0.14,9.8,30.03
,-8.521,2.022,-4.137,-9.158,0.601,-4.068,-3.01,10.22,31.01
,-8.918,1.228,-3.991,-9.095,1.184,-4.257,-4.55,9.87,32.55
31576.0,-8.99,1.374,-4.429,-8.5,2.788,-6.49,10.5,9.87,42.42
,-9.016,1.759,-4.688,-8.418,2.984,-7.117,10.36,10.78,43.89
,-8.794,2.166,-5.042,-8.648,3.017,-6.98,8.4,11.2,44.52
,-8.433,2.508,-5.836,-9.318,2.989,-6.772,4.2,11.69,44.8
31652.0,-10.043,1.711,-6.231,-10.895,4.13,-4.501,-24.01,3.5,47.32
,-9.868,3.759,-5.822,-10.62,2.967,-4.113,-15.54,0.14,53.06
,-10.043,5.039,-5.465,-10.23,1.989,-3.975,-8.26,-1.19,56.49
,-10.45,4.573,-4.927,-10.232,1.579,-3.872,-11.62,0.28,51.38
31728.0,-10.069,1.524,-3.881,-9.076,2.673,-4.606,-19.39,1.68,38.5
,-9.928,1.778,-4.068,-9.014,2.355,-4.494,-15.05,1.12,36.75
,-9.66,2.163,-4.293,-8.229,1.819,-4.279,-13.44,0.7,33.88
,-9.481,2.615,-4.549,-7.71,1.196,-3.515,-13.93,-0.07,30.59
31803.0,-6.188,0.931,-2.781,-7.011,0.481,-5.456,-24.92,4.2,7.14
,-7.686,-0.713,-2.347,-6.796,1.242,-5.75,-45.78,6.79,4.41
,-7.526,-0.491,-3.068,-6.973,1.101,-5.755,-52.92,9.59,-2.24
,-7.626,-0.471,-3.915,-6.999,0.203,-5.458,-43.68,13.09,-12.18
31879.0,-7.186,-1.259,-5.31,-6.82,1.843,-4.726,-4.9,17.92,-55.58
,-7.492,-2.273,-4.769,-6.437,1.905,-4.783,12.11,13.44,-59.29
,-7.837,-1.558,-4.398,-7.121,2.702,-4.614,39.06,9.52,-61.18
,-7.629,0.44,-4.281,-7.162,3.81,-4.771,63.0,6.93,-62.65
31954.0,-6.485,4.487,-4.628,-6.681,5.3,-5.585,52.99,5.18,-72.59
,-5.731,4.633,-4.972,-7.105,5.083,-5.776,47.67,6.37,-72.45
,-5.561,5.176,-5.288,-7.399,4.542,-5.453,42.49,9.52,-73.43
,-6.425,5.317,-5.214,-7.775,4.152,-5.396,35.63,9.87,-73.85
32030.0,-8.39,3.771,-5.2,-8.734,5.099,-5.329,19.25,8.82,-61.11
,-8.576,3.817,-5.329,-8.997,3.558,-4.898,23.1,9.17,-55.86
,-9.007,4.731,-5.384,-9.39,2.996,-4.704,27.79,10.43,-51.59
,-8.969,5.48,-5.43,-9.17,3.061,-4.532,30.52,11.06,-49.35
32106.0,-9.091,2.893,-4.614,-8.624,4.25,-5.695,49.21,8.68,-35.28
,-8.976,2.668,-4.908,-8.358,4.164,-5.949,55.09,6.65,-29.33
,-8.99,2.905,-5.188,-7.978,4.061,-6.054,61.53,5.11,-24.64
,-9.074,3.53,-5.272,-7.262,4.587,-6.19,66.43,3.85,-20.93
32182.0,-7.334,5.037,-6.353,-7.452,4.884,-4.939,43.12,-6.23,-5.88
,-7.485,5.207,-6.147,-8.923,3.838,-3.477,35.14,-11.2,-2.66
,-7.353,5.073,-5.997,-9.658,4.604,-3.754,26.95,-15.89,0.49
,-7.128,4.913,-5.264,-9.349,5.98,-4.056,20.37,-17.29,3.43
32258.0,-8.892,5.164,-3.85,-7.76,0.371,-5.654,13.51,-31.85,26.53
,-8.945,1.438,-2.661,-9.543,6.047,-4.996,12.74,-34.51,36.54
,-8.854,-2.082,-3.343,-10.692,7.511,-3.786,29.75,-33.18,46.83
,-8.031,-3.271,-4.862,-12.57,4.101,-2.91,67.48,-28.84,54.46
32333.0,-11.591,0.586,-3.271,-9.746,2.395,-4.803,7.63,-10.22,17.01
,-8.533,0.091,-3.963,-9.222,2.723,-5.047,3.29,-6.79,16.03
,-7.569,0.369,-4.13,-8.449,2.252,-4.872,13.86,-4.83,22.82
,-8.509,1.261,-4.46,-8.267,1.278,-4.994,28.77,-4.34,29.54
32409.0,-8.325,1.249,-5.121,-8.801,0.873,-5.348,1.12,1.19,19.11
,-8.303,1.508,-5.296,-8.717,0.713,-5.217,-4.76,1.26,17.36
,-8.421,1.498,-5.403,-8.562,0.861,-5.08,-10.57,1.33,16.38
,-8.672,1.163,-5.532,-8.603,1.096,-4.834,-14.49,0.84,16.31
32485.0,-8.935,1.115,-4.484,-9.129,1.062,-3.659,-19.88,1.05,17.22
,-9.007,1.072,-4.219,-8.99,1.323,-3.58,-22.05,1.19,17.71
,-8.837,1.098,-3.81,-8.643,1.352,-3.637,-21.98,1.96,18.69
,-9.002,1.027,-3.685,-8.567,1.232,-3.582,-20.65,2.38,20.16
32561.0,-8.849,1.309,-3.668,-8.725,1.797,-4.097,-12.18,5.46,23.52
,-8.813,1.543,-3.707,-8.346,2.544,-4.02,-12.11,5.88,24.01
,-8.837,1.412,-3.824,-8.265,2.788,-3.491,-12.53,6.16,24.78
,-8.684,1.376,-3.951,-8.753,2.431,-3.273,-12.32,6.93,25.06
32636.0,-9.055,1.608,-3.061,-8.581,0.988,-4.374,-20.44,13.86,28.28
,-9.146,0.754,-3.283,-8.579,1.28,-4.281,-17.01,14.21,30.59
,-8.878,0.467,-3.553,-9.217,1.536,-4.24,-11.2,15.12,32.62
,-8.911,0.648,-4.18,-9.318,0.931,-4.288,-6.3,15.05,33.81
32712.0,-9.074,0.287,-4.669,-8.591,1.582,-5.97,-8.26,16.87,42.28
,-8.806,0.163,-5.24,-8.66,1.833,-5.633,-4.76,16.17,45.36
,-9.009,0.488,-5.587,-8.969,2.479,-6.743,-1.12,15.33,48.3
,-8.727,0.995,-5.951,-8.744,4.755,-6.497,1.4,14.14,50.68
32787.0,-9.859,5.185,-5.93,-11.438,2.051,-5.623,-3.78,11.97,63.77
,-11.105,5.439,-5.458,-11.565,0.818,-5.724,-12.74,14.84,56.35
,-11.481,4.326,-5.128,-11.306,0.357,-5.798,-27.79,16.73,50.54
,-11.172,3.319,-5.449,-10.555,0.495,-5.724,-39.48,18.34,46.9
32863.0,-9.95,0.696,-5.394,-8.531,1.685,-4.75,-36.26,9.87,40.95
,-9.866,1.204,-5.281,-7.495,1.701,-4.149,-32.2,7.14,39.62
,-9.325,1.402,-5.303,-6.387,2.099,-3.716,-31.08,4.55,36.82
,-9.576,1.531,-5.037,-5.753,2.17,-4.312,-29.47,1.54,31.85
32939.0,-6.03,1.01,-3.676,-7.676,-0.378,-5.805,-62.79,14.42,-7.63
,-6.487,0.33,-2.955,-7.657,-1.388,-4.862,-79.45,19.88,-17.71
,-7.21,-1.527,-5.676,-6.925,-2.702,-3.817,-73.43,24.36,-29.12
,-6.442,-1.113,-6.183,-7.136,-2.369,-3.563,-57.61,27.51,-43.4
33015.0,-7.559,-1.015,-3.271,-7.609,0.821,-4.587,44.17,8.33,-62.37
,-8.203,0.292,-3.64,-8.435,1.371,-4.958,56.28,5.67,-65.1
,-7.475,0.742,-4.034,-8.789,2.264,-5.202,59.64,3.5,-67.9
,-6.798,0.646,-4.202,-8.26,2.857,-5.595,59.5,4.41,-73.08
33091.0,-7.643,2.759,-5.698,-7.684,5.102,-6.231,55.44,-1.19,-92.89
,-7.365,3.029,-5.765,-8.181,4.573,-6.128,56.0,-2.94,-94.57
,-7.152,3.862,-5.76,-8.696,3.728,-5.944,59.29,-4.48,-95.69
,-7.358,4.874,-6.001,-8.923,3.494,-5.966,59.36,-5.6,-95.97
33166.0,-9.136,3.64,-6.128,-7.514,6.695,-5.64,48.09,-16.52,-83.09
,-9.246,3.195,-6.178,-7.636,6.992,-5.377,49.28,-19.25,-78.05
,-9.206,3.357,-5.961,-8.031,5.954,-5.296,54.04,-22.19,-71.54
,-8.162,4.982,-6.066,-8.509,4.527,-4.96,63.42,-22.68,-64.26
33242.0,-8.839,3.807,-4.628,-6.15,9.232,-5.169,40.67,-21.14,-33.6
,-8.562,4.587,-5.042,-6.853,7.408,-3.965,53.13,-21.98,-22.33
,-7.648,6.403,-5.217,-8.622,4.695,-3.204,63.7,-21.98,-13.93
,-6.638,8.459,-5.164,-8.267,6.614,-4.068,64.96,-19.67,-10.71
33318.0,-6.707,11.481,-5.166,-13.934,-1.122,-1.582,26.25,-18.9,11.34
,-7.066,12.364,-3.367,-15.508,1.18,-4.506,4.97,-20.65,15.05
,-9.466,7.607,-0.828,-14.077,8.519,-4.48,-30.66,-24.92,23.17
,-11.704,1.07,0.505,-8.239,8.784,-4.329,-33.53,-21.7,34.51
33394.0,-5.853,1.893,-5.31,-9.497,-1.515,-5.705,-25.9,19.32,28.35
,-5.391,-2.95,-6.631,-8.564,0.866,-5.159,-45.85,18.41,28.56
,-8.808,-3.494,-7.117,-8.658,1.96,-5.171,-29.05,16.24,27.02
,-10.706,-3.058,-6.604,-9.275,1.134,-5.389,-13.51,13.23,23.45
33469.0,-9.265,-0.313,-5.291,-8.667,2.326,-4.762,-25.34,2.1,21.91
,-8.349,-0.483,-5.487,-8.725,1.608,-4.379,-11.62,0.42,22.75
,-7.997,0.529,-5.329,-8.928,0.62,-3.848,0.14,0.0,22.75
,-8.509,1.869,-5.059,-9.167,-0.038,-3.597,2.45,0.07,22.19
33545.0,-9.165,-0.144,-3.419,-8.964,0.991,-3.743,-12.39,1.4,21.28
,-9.189,0.065,-3.463,-8.705,1.127,-3.987,-6.23,2.1,23.03
,-9.012,0.651,-3.477,-8.631,1.244,-4.319,-3.08,3.29,24.15
,-9.105,0.969,-3.441,-8.524,1.244,-4.41,-3.08,4.55,24.78
33620.0,-8.557,1.381,-4.472,-8.571,2.249,-4.078,-0.98,6.51,28.49
,-8.492,1.649,-4.334,-8.409,2.355,-3.735,-1.33,7.42,28.42
,-8.634,1.871,-4.274,-8.66,1.977,-3.558,-3.71,8.26,28.28
,-8.631,2.039,-4.104,-8.995,1.376,-3.405,-7.21,9.1,27.93
33696.0,-9.313,0.725,-3.273,-8.55,1.326,-4.63,-18.55,15.75,29.82
,-8.909,0.093,-3.69,-8.495,1.563,-4.491,-15.82,15.68,30.66
,-8.772,0.201,-4.145,-8.839,1.285,-4.697,-11.69,15.47,31.22
,-8.631,0.68,-4.35,-8.804,0.735,-4.609,-9.1,15.89,32.06
33772.0,-8.402,0.627,-4.915,-8.579,1.208,-5.585,-6.79,13.44,41.79
,-8.598,0.916,-5.188,-8.507,1.622,-6.138,-2.73,13.65,43.33
,-8.973,0.998,-5.025,-8.327,2.12,-6.676,-0.91,14.0,45.29
,-8.789,1.187,-5.123,-8.428,2.091,-6.7,-1.12,13.3,47.11
33848.0,-8.701,1.816,-6.908,-10.045,1.129,-6.238,-24.15,11.06,50.68
,-8.818,1.448,-6.75,-9.978,3.558,-5.86,-27.79,9.45,51.87
,-8.983,1.563,-6.76,-10.335,4.791,-5.499,-28.21,7.56,53.34
,-9.189,1.941,-6.679,-10.677,4.621,-5.379,-28.07,5.6,54.46
33923.0,-11.347,4.556,-5.238,-10.055,2.828,-4.721,-40.25,3.99,44.45
,-11.854,3.723,-5.042,-9.696,2.139,-4.058,-50.4,3.57,38.99
,-11.436,3.156,-5.066,-8.507,1.18,-3.293,-55.72,2.73,34.86
,-11.156,3.092,-5.193,-7.834,0.646,-2.749,-55.37,1.12,32.06
33999.0,-6.609,0.586,-1.972,-7.595,-0.38,-3.817,-46.55,-1.33,3.5
,-6.26,1.527,-2.773,-7.988,-0.285,-4.52,-49.49,7.28,-2.52
,-6.954,0.754,-2.29,-8.315,-1.285,-4.367,-66.5,17.22,-8.68
,-8.301,0.615,-2.34,-8.045,-2.807,-4.334,-74.34,24.92,-14.63
34075.0,-7.574,-3.3,-4.57,-7.734,1.012,-4.348,24.5,27.93,-43.12
,-7.303,-2.386,-4.578,-7.394,0.794,-4.377,51.38,23.66,-46.76
,-7.588,-0.672,-4.539,-7.27,0.756,-4.556,68.81,20.09,-49.07
,-7.645,0.605,-4.525,-8.119,0.974,-4.666,72.45,16.59,-51.66
34151.0,-8.624,0.962,-4.625,-8.516,2.556,-5.954,62.3,2.8,-75.88
,-8.126,1.067,-5.066,-8.77,3.159,-5.927,65.38,-0.42,-78.54
,-7.839,1.352,-5.674,-7.944,3.982,-6.145,69.23,-2.8,-81.34
,-8.031,1.929,-5.712,-7.449,3.819,-6.04,71.89,-5.39,-84.56
34227.0,-7.976,3.649,-6.001,-8.315,5.518,-5.999,69.09,-22.26,-90.93
,-8.808,3.597,-6.164,-8.327,6.585,-5.678,71.54,-27.37,-86.45
,-8.902,3.697,-6.059,-8.215,7.298,-5.963,75.11,-30.45,-80.43
,-8.765,4.348,-5.963,-8.241,6.997,-5.796,80.92,-31.64,-74.13
34302.0,-8.504,6.145,-5.547,-6.315,7.286,-5.556,29.75,-21.77,-56.49
,-8.61,4.81,-5.42,-5.583,8.112,-5.195,17.99,-21.35,-48.65
,-8.55,3.819,-4.862,-6.09,7.124,-4.578,19.46,-21.98,-37.94
,-7.887,4.965,-5.111,-7.181,7.193,-5.169,36.26,-22.68,-25.83
34378.0,-7.169,9.686,-5.987,-10.345,-0.175,-0.146,27.51,-6.09,-2.24
,-6.839,15.257,-6.707,-11.077,-2.288,-2.517,15.05,-1.89,-4.9
,-9.234,14.329,-5.004,-12.96,-0.407,-3.996,-39.34,-5.95,-8.4
,-12.881,5.91,-1.957,-10.371,7.667,-5.19,-85.33,-16.66,11.41
34453.0,-9.026,11.44,-4.547,-10.108,-4.346,-5.882,52.15,20.93,24.85
,-7.061,5.118,-4.972,-10.203,-1.194,-5.621,-30.24,20.86,26.74
,-6.502,-2.63,-5.707,-8.454,1.421,-5.714,-65.03,18.06,24.15
,-8.095,-5.619,-5.654,-7.956,2.826,-5.889,-45.92,15.89,21.07
34529.0,-9.083,1.208,-5.755,-8.909,0.555,-4.815,-23.24,6.51,14.91
,-9.347,-0.062,-5.578,-8.768,0.141,-4.604,-17.22,4.48,17.01
,-8.873,0.067,-5.298,-8.693,-0.151,-4.288,-4.69,4.13,18.2
,-8.624,0.402,-5.209,-9.088,-0.136,-4.068,1.12,4.27,18.13
34605.0,-9.368,-0.034,-3.915,-8.473,1.108,-4.882,-21.0,5.25,12.88
,-9.5,-0.457,-3.86,-8.21,1.835,-4.877,-18.2,4.41,15.47
,-9.203,-0.491,-4.19,-8.21,2.067,-4.848,-10.08,2.87,19.67
,-8.849,0.112,-4.451,-8.284,2.077,-4.566,0.42,2.1,23.94
34681.0,-8.509,1.709,-4.288,-8.88,1.027,-3.606,-12.39,6.65,23.94
,-8.713,1.311,-3.898,-8.851,0.943,-3.821,-14.35,7.56,24.01
,-8.739,1.187,-3.687,-8.655,0.869,-4.013,-12.6,8.19,25.13
,-8.672,1.074,-3.501,-8.701,0.814,-3.977,-9.24,9.03,26.67
34756.0,-8.861,1.003,-4.212,-8.715,0.998,-4.161,-0.35,12.88,30.94
,-8.808,1.139,-4.204,-8.445,1.352,-4.427,-1.47,14.21,31.22
,-8.693,1.146,-4.109,-8.275,1.919,-4.657,-3.5,15.19,31.99
,-8.753,0.933,-4.137,-8.533,1.962,-4.633,-3.92,15.4,33.39
34832.0,-8.796,1.543,-4.704,-8.435,1.364,-5.796,-4.41,17.99,37.66
,-8.83,0.852,-4.511,-8.315,1.991,-6.277,-7.21,17.92,38.5
,-8.832,0.318,-4.709,-8.521,2.17,-6.88,-5.95,17.64,39.62
,-8.782,0.615,-5.257,-8.54,1.835,-7.353,-2.59,17.15,41.37
34908.0,-8.378,1.146,-7.636,-9.485,2.656,-7.258,-24.78,13.23,46.55
,-8.239,0.957,-7.705,-9.562,3.369,-7.045,-24.43,9.73,51.31
,-8.772,1.156,-7.691,-9.581,3.058,-6.645,-18.9,5.46,56.63
,-9.155,1.436,-7.437,-9.708,2.431,-6.269,-13.02,2.38,59.15
34984.0,-9.981,1.754,-5.994,-10.182,1.357,-6.119,-40.95,-0.63,47.32
,-9.969,1.34,-5.903,-9.971,2.046,-6.21,-42.35,-2.24,45.85
,-9.943,1.153,-5.932,-9.081,3.108,-6.004,-41.72,-4.48,44.66
,-10.012,1.204,-6.128,-8.172,4.08,-5.776,-40.67,-6.65,43.19
35060.0,-7.913,4.633,-5.47,-7.459,1.484,-2.137,-60.27,-12.74,17.08
,-7.605,4.587,-5.188,-5.803,-0.122,-0.132,-73.01,-12.6,8.05
,-7.552,4.171,-4.877,-6.487,-0.369,0.132,-86.45,-12.32,-1.19
,-7.868,3.439,-4.118,-7.48,-2.017,0.936,-97.09,-12.53,-9.03
35135.0,-8.133,-2.295,-2.393,-7.148,-3.41,-3.692,-79.94,33.25,-31.71
,-8.792,0.055,-2.52,-8.047,-2.489,-3.979,-50.61,46.34,-37.31
,-7.932,-0.854,-2.934,-8.05,-0.62,-4.214,-27.44,52.71,-38.29
,-6.987,-2.879,-3.36,-7.667,1.091,-4.568,-3.15,56.7,-42.7
35211.0,-7.404,1.778,-5.403,-8.631,-0.96,-6.147,67.13,77.56,-72.31
,-7.899,1.151,-5.693,-8.277,-0.916,-6.892,50.33,78.05,-77.98
,-8.356,0.034,-5.408,-8.323,-0.005,-6.695,40.04,76.09,-81.13
,-8.873,-0.708,-5.709,-8.394,1.472,-7.169,43.12,72.59,-81.41
35286.0,-8.32,2.388,-7.645,-6.695,4.575,-7.186,108.71,30.03,-71.75
,-7.545,2.467,-7.834,-6.798,5.623,-7.251,108.85,14.07,-69.3
,-6.978,2.044,-7.863,-7.179,5.98,-7.14,111.09,-1.05,-66.71
,-7.294,2.953,-7.248,-7.653,6.487,-6.868,122.5,-15.26,-62.37
35362.0,-7.82,6.494,-6.346,-7.696,8.677,-6.813,91.77,-54.67,-48.51
,-8.349,5.827,-5.889,-6.901,10.05,-6.53,72.94,-57.68,-43.05
,-8.933,5.035,-5.968,-7.329,9.445,-6.207,61.81,-60.9,-34.09
,-9.359,5.642,-5.619,-8.373,7.717,-5.341,62.58,-63.84,-23.52
35438.0,-8.227,6.719,-5.128,-8.076,6.006,-3.233,22.82,-67.06,-7.28
,-8.294,6.746,-3.927,-8.567,6.312,-3.475,19.18,-62.72,-2.87
,-7.916,6.98,-3.465,-8.842,4.506,-3.666,12.81,-59.22,1.33
,-7.408,6.638,-2.962,-8.102,2.994,-3.788,1.75,-53.41,4.62
35514.0,-7.207,3.738,-4.346,-14.549,2.23,-1.017,20.16,-2.1,20.86
,-9.103,4.477,-3.955,-10.041,0.268,-1.989,23.24,2.1,27.23
,-10.919,5.619,-2.754,-6.961,0.029,-3.52,26.53,1.54,33.6
,-13.142,4.774,-0.529,-6.65,-1.462,-5.03,26.25,1.4,31.85
35589.0,-8.581,-3.245,-5.554,-8.399,0.907,-6.475,15.68,12.25,23.52
,-9.612,-3.69,-6.114,-8.77,2.249,-6.559,20.86,7.98,21.42
,-9.531,-2.474,-6.516,-8.775,3.506,-6.59,27.65,4.69,20.16
,-8.957,-0.696,-6.502,-8.21,4.042,-6.451,29.75,2.87,20.58
35665.0,-7.837,3.446,-6.037,-9.153,0.414,-4.027,-3.01,7.35,21.7
,-8.167,2.333,-5.528,-9.067,-0.101,-4.013,-7.35,7.98,21.77
,-8.603,1.326,-4.838,-9.115,-0.342,-4.441,-8.75,8.4,21.28
,-8.806,0.802,-4.35,-8.957,-0.369,-4.506,-9.87,9.03,20.58
35741.0,-8.88,-0.318,-4.652,-8.37,1.251,-4.896,-8.05,5.11,23.59
,-8.878,0.007,-4.659,-8.191,1.225,-4.511,-0.91,4.34,26.81
,-8.696,0.593,-4.795,-8.342,1.472,-4.31,4.62,4.13,29.47
,-8.605,0.998,-4.903,-8.454,1.445,-3.877,6.44,4.13,30.8
35817.0,-8.612,1.103,-3.616,-8.882,0.704,-4.168,-2.24,8.89,27.86
,-8.722,0.933,-3.475,-8.643,1.055,-4.48,-1.61,9.8,27.58
,-8.882,0.742,-3.549,-8.375,1.543,-4.738,-0.42,10.57,28.42
,-8.856,0.627,-3.807,-8.327,1.871,-4.664,1.61,11.41,29.61
35893.0,-8.725,1.634,-4.535,-8.526,0.907,-4.755,-4.13,15.54,31.85
,-8.825,1.149,-4.2,-8.086,1.663,-5.035,-7.0,15.47,32.69
,-8.808,0.584,-3.996,-8.284,2.166,-5.296,-6.51,15.19,33.53
,-8.847,0.349,-4.403,-8.638,1.91,-5.487,-3.99,15.26,34.37
35968.0,-8.514,1.589,-5.621,-8.514,1.601,-6.162,-14.56,18.41,34.16
,-8.38,1.342,-5.564,-8.526,1.273,-6.001,-16.87,18.34,35.49
,-8.495,1.29,-5.776,-8.722,1.029,-6.013,-15.61,18.27,37.17
,-8.366,1.541,-6.052,-8.469,1.397,-5.961,-15.75,18.34,38.71
36044.0,-8.744,0.723,-6.502,-9.742,2.836,-6.186,-21.0,15.4,47.39
,-8.559,2.247,-6.722,-9.521,2.347,-5.985,-17.71,13.51,50.89
,-8.957,2.812,-6.602,-9.555,2.065,-5.698,-16.31,12.53,53.9
,-9.153,2.797,-6.542,-9.816,2.134,-5.647,-19.6,12.6,51.38
36119.0,-10.103,2.187,-5.575,-9.878,2.749,-5.607,-37.94,11.27,44.38
,-10.089,2.603,-5.762,-9.457,3.044,-5.511,-39.34,10.78,42.77
,-10.081,3.099,-5.973,-9.217,3.489,-5.331,-42.49,10.15,40.39
,-10.002,2.886,-5.788,-8.909,3.609,-5.209,-48.58,9.87,37.38
36195.0,-8.538,3.352,-5.075,-7.251,3.544,-4.202,-73.99,6.51,14.77
,-8.327,3.364,-4.934,-7.033,2.821,-3.309,-79.38,6.51,7.42
,-7.932,3.431,-4.712,-7.102,1.065,-2.206,-84.14,6.51,0.35
,-7.593,3.697,-4.606,-8.526,-1.833,-1.395,-88.9,6.3,-6.65
36271.0,-8.631,-2.73,-0.931,-8.157,0.402,-4.334,-112.42,10.36,-20.79
,-8.344,-2.778,-0.809,-7.449,-0.514,-4.348,-75.11,16.03,-23.45
,-8.189,-2.367,-3.041,-7.078,-0.718,-4.463,-28.98,21.84,-26.81
,-7.693,-0.127,-4.082,-7.195,0.402,-4.133,5.25,27.58,-32.9
36347.0,-7.645,1.85,-4.085,-7.885,-0.237,-5.09,68.46,34.37,-70.63
,-7.765,2.998,-4.113,-8.38,-0.847,-5.312,61.46,35.28,-77.35
,-7.298,3.443,-4.281,-9.014,-0.974,-5.114,47.25,36.82,-84.35
,-7.071,1.807,-5.157,-8.258,-0.156,-5.664,29.54,37.17,-91.07
36422.0,-7.681,1.314,-5.992,-6.435,6.451,-7.32,79.94,20.72,-74.55
,-7.365,3.979,-6.363,-6.566,5.226,-7.361,97.79,16.52,-71.47
,-6.183,6.578,-6.937,-7.296,3.542,-7.329,103.18,13.72,-74.41
,-5.994,7.286,-7.195,-7.827,2.539,-6.815,92.96,10.29,-81.06
36498.0,-7.856,2.201,-7.054,-8.318,4.31,-6.588,47.39,-12.88,-84.49
,-7.873,1.67,-6.671,-6.525,7.236,-7.43,49.91,-17.43,-77.98
,-8.253,2.094,-6.846,-5.987,8.603,-7.188,56.98,-23.03,-70.42
,-8.452,2.759,-6.75,-6.813,8.547,-6.743,64.75,-28.21,-62.51
36574.0,-7.755,7.796,-6.463,-8.447,3.896,-5.705,30.24,-33.81,-54.88
,-8.339,6.272,-5.93,-8.894,4.795,-5.652,5.88,-34.44,-53.27
,-8.15,4.745,-5.599,-8.897,5.547,-5.276,-10.36,-34.86,-48.93
,-7.973,3.843,-5.621,-8.172,5.185,-4.846,-15.26,-34.58,-42.84
36650.0,-8.447,4.252,-4.451,-8.55,4.776,-2.845,-18.13,-35.0,-22.26
,-8.897,3.338,-3.989,-8.815,7.667,-2.716,-18.41,-33.6,-17.71
,-9.095,3.072,-3.676,-9.608,10.907,-2.934,-13.23,-31.57,-13.09
,-8.727,3.525,-3.271,-11.692,10.603,-2.283,-6.09,-27.37,-9.87
36725.0,-12.699,7.186,-2.757,-10.005,-1.811,-1.876,-59.36,14.49,-9.17
,-11.998,3.259,-3.264,-9.33,-0.093,-2.544,-66.29,15.19,-6.86
,-11.103,0.706,-3.077,-8.526,2.838,-3.69,-54.74,10.85,-2.59
,-10.474,-1.106,-2.225,-7.971,4.934,-4.384,-28.84,3.15,3.29
36801.0,-8.253,5.243,-4.891,-8.734,1.972,-4.937,4.2,15.54,5.18
,-9.548,3.398,-4.74,-8.949,2.556,-4.963,-26.81,17.5,-2.1
,-10.656,1.955,-5.095,-9.165,3.096,-4.996,-38.43,18.48,-3.36
,-9.517,1.689,-5.13,-9.213,4.314,-5.312,-34.86,19.53,-1.54
36877.0,-9.328,5.631,-5.236,-8.859,2.611,-5.193,-28.49,29.05,-0.28
,-8.964,6.274,-5.391,-8.672,1.802,-4.927,-39.76,30.03,0.42
,-8.32,5.583,-5.394,-8.696,1.912,-4.48,-53.13,30.24,0.35
,-8.461,4.03,-5.267,-8.44,3.068,-5.269,-63.07,28.77,1.47
36952.0,-8.39,4.087,-5.87,-7.729,5.183,-5.855,-15.89,12.46,37.66
,-8.416,4.401,-6.1,-7.609,5.145,-5.822,-16.73,8.19,43.33
,-8.33,4.465,-6.145,-7.863,4.776,-5.848,-18.2,3.64,47.81
,-8.064,4.905,-6.056,-8.392,4.03,-5.439,-16.87,0.07,50.75
37028.0,-8.562,3.386,-5.054,-7.865,3.939,-5.86,-46.41,-10.85,58.94
,-8.375,3.233,-5.054,-8.217,3.537,-5.92,-47.32,-12.32,62.72
,-8.205,3.321,-5.128,-8.521,2.845,-5.76,-45.78,-13.16,65.59
,-7.911,3.833,-5.583,-8.504,2.027,-5.391,-44.1,-13.16,66.71
37104.0,-7.952,1.426,-5.262,-7.538,1.996,-5.032,-50.68,-20.51,68.18
,-7.322,1.534,-5.233,-7.71,1.835,-4.788,-42.21,-23.03,70.07
,-7.117,1.929,-5.078,-7.262,2.07,-4.791,-34.51,-26.6,70.98
,-7.533,2.197,-4.992,-7.021,2.381,-4.597,-30.38,-31.22,70.77
37180.0,-7.04,2.481,-4.609,-7.332,0.885,-3.113,-23.45,-37.45,63.28
,-6.93,2.438,-4.226,-7.387,0.043,-3.01,-26.11,-36.33,60.62
,-6.791,1.922,-3.759,-7.626,-0.294,-3.154,-28.14,-33.88,56.91
,-7.128,1.378,-3.491,-7.341,-0.213,-2.97,-27.65,-31.15,52.85
37255.0,-7.272,-0.199,-2.965,-7.6,1.151,-3.575,14.42,-8.26,33.32
,-7.239,-0.134,-3.149,-7.442,2.194,-3.475,24.01,-3.22,29.96
,-7.262,-0.572,-2.953,-8.035,3.664,-3.714,30.94,0.91,25.76
