Timestamp,AccX,AccY,AccZ,GyroX,GyroY,GyroZ,MagnX,MagnY,MagnZ
0.0,-9.567,0.328,-2.637,-9.552,0.311,-2.587,2.59,0.98,0.63
,-9.533,0.318,-2.601,-9.557,0.349,-2.613,2.52,1.05,0.63
,-9.557,0.309,-2.539,-9.581,0.39,-2.668,2.59,1.33,0.7
,-9.543,0.335,-2.618,-9.524,0.421,-2.663,2.38,1.4,0.7
76.0,-9.533,0.369,-2.699,-9.545,0.313,-2.687,2.17,1.4,0.7
,-9.569,0.347,-2.666,-9.581,0.292,-2.623,2.17,1.33,0.56
,-9.514,0.361,-2.694,-9.529,0.299,-2.637,2.17,1.19,0.7
,-9.572,0.357,-2.702,-9.591,0.345,-2.668,2.24,1.33,0.7
152.0,-9.562,0.354,-2.692,-9.552,0.313,-2.639,2.59,1.12,0.84
,-9.505,0.349,-2.659,-9.557,0.335,-2.644,2.59,0.98,0.84
,-9.517,0.333,-2.611,-9.579,0.34,-2.627,2.45,1.12,0.84
,-9.586,0.337,-2.639,-9.529,0.352,-2.606,2.45,0.91,0.7
228.0,-9.543,0.333,-2.599,-9.564,0.323,-2.67,2.94,1.05,0.91
,-9.545,0.373,-2.525,-9.538,0.316,-2.694,2.87,1.26,0.84
,-9.598,0.421,-2.618,-9.586,0.38,-2.63,2.45,1.19,0.77
,-9.598,0.364,-2.625,-9.531,0.318,-2.608,2.1,1.19,0.77
304.0,-9.529,0.392,-2.606,-9.622,0.357,-2.611,2.59,1.05,0.84
,-9.579,0.376,-2.556,-9.564,0.369,-2.575,2.59,1.19,0.77
,-9.562,0.354,-2.596,-9.543,0.39,-2.592,2.31,1.26,0.7
,-9.56,0.359,-2.582,-9.581,0.395,-2.618,2.52,1.26,0.77
380.0,-9.584,0.359,-2.635,-9.531,0.364,-2.639,2.45,1.33,0.7
,-9.56,0.316,-2.642,-9.569,0.373,-2.599,2.31,1.26,0.7
,-9.562,0.34,-2.67,-9.572,0.369,-2.572,2.45,1.26,0.63
,-9.531,0.347,-2.651,-9.517,0.354,-2.637,2.8,1.26,0.77
456.0,-9.596,0.361,-2.661,-9.557,0.337,-2.615,3.08,1.26,0.7
,-9.572,0.409,-2.608,-9.543,0.321,-2.599,3.08,1.26,0.7
,-9.574,0.392,-2.565,-9.552,0.28,-2.594,2.94,1.26,0.7
,-9.55,0.371,-2.587,-9.586,0.313,-2.611,3.08,1.19,0.7
532.0,-9.555,0.376,-2.615,-9.572,0.345,-2.649,3.15,1.26,0.7
,-9.533,0.359,-2.635,-9.555,0.385,-2.551,2.94,1.19,0.7
,-9.526,0.328,-2.594,-9.572,0.392,-2.536,2.8,1.33,0.77
,-9.572,0.299,-2.644,-9.617,0.388,-2.608,3.08,1.54,0.84
608.0,-9.531,0.347,-2.584,-9.596,0.419,-2.678,2.17,1.47,0.7
,-9.543,0.342,-2.599,-9.564,0.38,-2.467,1.96,1.33,0.42
,-9.574,0.352,-2.685,-9.574,0.357,-2.584,2.66,1.33,0.49
,-9.574,0.325,-2.706,-9.552,0.325,-2.443,3.36,1.54,0.7
684.0,-9.557,0.369,-2.678,-9.581,0.345,-2.661,2.45,1.4,0.63
,-9.507,0.383,-2.682,-9.612,0.412,-2.58,2.59,1.19,0.49
,-9.548,0.302,-2.673,-9.608,0.287,-2.563,3.08,1.19,0.42
,-9.521,0.309,-2.647,-9.617,0.187,-2.498,3.85,1.05,0.56
760.0,-9.557,0.306,-2.546,-9.552,0.419,-2.417,1.26,1.47,0.49
,-9.567,0.235,-2.45,-9.545,0.333,-2.544,1.26,1.68,0.49
,-9.545,0.337,-2.505,-9.531,0.294,-2.685,1.75,1.96,0.7
,-9.567,0.302,-2.587,-9.519,0.275,-2.568,1.82,1.68,0.56
836.0,-9.517,0.337,-2.582,-9.543,0.392,-2.704,0.42,2.1,0.63
,-9.567,0.299,-2.606,-9.603,0.345,-2.539,0.63,2.24,0.7
,-9.529,0.364,-2.577,-9.56,0.294,-2.359,0.77,2.03,0.77
,-9.519,0.404,-2.637,-9.569,0.333,-2.458,0.56,1.82,0.77
912.0,-9.56,0.34,-2.608,-9.524,0.285,-2.778,-0.42,2.1,0.63
,-9.524,0.306,-2.644,-9.564,0.419,-2.848,0.0,1.89,0.7
,-9.497,0.285,-2.649,-9.536,0.443,-2.845,0.7,1.82,0.91
,-9.483,0.23,-2.759,-9.584,0.407,-2.91,1.47,1.89,0.98
988.0,-9.543,0.357,-2.807,-9.552,0.419,-2.493,1.68,0.84,0.77
,-9.545,0.309,-2.69,-9.526,0.306,-2.45,1.75,0.56,0.7
,-9.55,0.38,-2.608,-9.533,0.239,-2.446,1.96,0.28,0.7
,-9.608,0.438,-2.532,-9.588,0.223,-2.532,1.26,0.42,0.84
1064.0,-9.521,0.28,-2.57,-9.497,0.246,-2.548,0.21,0.98,1.05
,-9.49,0.313,-2.493,-9.552,0.124,-2.474,0.14,1.19,1.26
,-9.505,0.345,-2.58,-9.552,0.079,-2.381,0.14,1.33,1.4
,-9.574,0.297,-2.57,-9.598,0.278,-2.469,0.14,1.47,1.4
1140.0,-9.579,0.426,-2.539,-9.512,0.426,-2.295,3.22,1.96,2.45
,-9.533,0.4,-2.422,-9.591,0.531,-2.295,2.94,2.45,2.59
,-9.509,0.424,-2.455,-9.579,0.479,-2.324,2.38,2.66,2.73
,-9.541,0.39,-2.326,-9.509,0.366,-2.297,2.03,3.22,2.87
1216.0,-9.512,0.263,-2.321,-9.617,0.414,-2.056,-2.03,4.69,3.01
,-9.447,0.201,-2.24,-9.718,0.704,-2.355,-1.75,5.46,3.29
,-9.545,0.115,-2.144,-9.651,0.663,-2.623,-1.61,6.16,3.64
,-9.538,0.139,-2.034,-9.521,0.428,-2.697,-1.75,6.93,4.06
1292.0,-9.459,0.227,-2.771,-9.646,0.601,-3.072,-7.7,8.33,3.78
,-9.533,0.17,-2.764,-9.44,0.591,-3.094,-5.74,8.12,3.99
,-9.524,0.345,-2.788,-9.28,0.376,-2.804,-3.99,7.98,3.99
,-9.557,0.558,-2.618,-9.407,0.395,-3.07,-3.85,8.19,4.06
1368.0,-9.526,0.488,-2.874,-9.253,0.383,-3.168,-1.89,6.23,4.2
,-9.557,0.677,-3.106,-9.363,-0.069,-2.481,-0.7,5.74,4.34
,-9.552,0.766,-3.302,-9.56,0.007,-1.778,-1.54,5.39,4.34
,-9.347,0.601,-3.297,-9.749,0.512,-1.972,-2.73,5.32,4.27
1444.0,-9.744,0.995,-2.749,-9.234,-0.256,-3.731,1.54,5.88,5.67
,-9.445,1.251,-3.386,-9.258,-0.132,-3.281,-4.97,4.97,4.62
,-9.292,0.842,-3.714,-9.351,0.313,-3.132,-9.52,4.48,4.34
,-9.28,0.28,-4.305,-9.512,0.622,-2.893,-9.1,4.06,4.76
1520.0,-9.569,0.881,-2.998,-9.488,0.914,-3.408,5.88,2.24,7.28
,-9.536,0.857,-2.737,-9.375,1.512,-3.709,2.8,2.03,7.35
,-9.488,0.62,-3.094,-9.328,1.508,-3.601,1.47,1.82,7.56
,-9.524,0.541,-2.912,-9.426,1.029,-2.955,3.08,1.89,7.91
1596.0,-9.49,0.718,-2.649,-9.39,1.742,-2.515,-2.94,0.91,5.39
,-9.548,0.732,-1.936,-9.378,1.127,-2.931,-2.87,0.91,4.76
,-9.749,1.292,-2.364,-9.253,0.739,-2.764,-4.76,-0.35,3.29
,-9.603,1.943,-2.587,-9.299,0.213,-3.199,-10.57,-1.68,1.54
1672.0,-9.146,-0.086,-2.946,-9.818,0.488,-1.895,-3.15,0.98,1.75
,-9.179,-0.28,-2.314,-9.926,0.914,-1.838,4.55,2.38,3.43
,-9.411,-0.177,-2.175,-9.545,0.986,-1.752,11.41,3.5,4.76
,-9.648,0.316,-1.9,-9.124,0.498,-1.323,15.68,4.2,5.46
1748.0,-9.048,0.079,-1.493,-9.485,1.07,-3.333,1.89,12.67,7.77
,-9.261,0.022,-1.469,-8.854,1.235,-3.252,2.45,13.58,8.47
,-9.677,0.266,-2.218,-8.784,1.251,-2.886,4.34,12.32,9.31
,-9.832,0.852,-2.946,-9.067,1.182,-2.752,6.02,10.64,10.22
1824.0,-9.313,1.543,-2.414,-9.292,0.534,-2.788,6.3,14.35,8.33
,-9.608,1.701,-2.711,-9.134,0.656,-2.654,2.8,14.77,7.35
,-9.634,1.381,-2.907,-9.069,1.256,-2.52,-2.45,15.89,7.42
,-9.495,0.723,-3.058,-9.349,1.965,-2.819,-4.83,17.36,7.84
1900.0,-9.533,2.436,-3.015,-8.871,1.129,-3.187,8.61,16.73,5.11
,-9.533,2.35,-3.051,-9.112,0.562,-3.147,3.5,16.87,3.92
,-9.196,2.13,-3.187,-9.442,0.558,-3.209,-0.77,18.2,3.15
,-8.813,1.74,-3.211,-9.416,0.845,-3.23,-3.57,19.39,2.45
1976.0,-9.196,1.036,-3.108,-9.512,0.189,-3.661,0.28,21.07,1.33
,-8.949,1.086,-3.07,-9.22,-0.165,-3.788,-0.98,21.21,1.96
,-9.014,1.05,-3.372,-8.842,-0.309,-3.594,-2.87,19.81,2.52
,-9.349,0.68,-3.616,-8.933,0.084,-3.743,-4.62,18.55,2.73
2052.0,-9.103,0.57,-4.044,-8.885,0.969,-4.051,9.45,18.13,7.77
,-9.16,1.062,-4.185,-9.232,0.89,-4.238,10.22,17.15,8.33
,-9.021,1.278,-4.491,-9.483,0.725,-4.35,8.75,17.01,8.68
,-8.859,1.213,-4.147,-9.268,0.656,-4.369,6.86,18.48,9.17
2128.0,-9.062,0.766,-4.384,-9.079,1.711,-4.209,7.28,13.93,11.27
,-8.892,0.787,-4.396,-9.265,2.065,-4.2,8.96,14.0,11.62
,-8.777,1.015,-4.348,-9.385,2.321,-4.207,11.27,14.21,11.48
,-8.892,1.182,-4.152,-8.904,2.283,-4.267,12.39,13.79,11.27
2204.0,-8.624,1.871,-4.223,-9.021,1.618,-4.317,-6.3,9.8,8.75
,-8.641,1.57,-4.118,-8.842,1.149,-4.197,-5.32,10.15,8.33
,-8.875,1.553,-4.221,-8.808,0.543,-4.197,-2.03,9.59,6.93
,-9.069,1.656,-4.235,-8.882,-0.062,-4.267,1.19,9.52,5.74
2280.0,-8.961,-0.251,-4.245,-8.88,2.371,-4.142,0.98,7.14,11.41
,-9.026,-0.026,-4.089,-8.871,2.802,-4.171,5.11,7.0,12.67
,-9.0,0.529,-4.092,-8.777,3.13,-4.137,8.12,6.93,12.6
,-9.005,1.402,-4.054,-8.914,3.07,-4.013,10.08,6.79,11.83
2356.0,-8.612,2.864,-3.896,-9.107,1.967,-3.884,-1.68,9.03,4.83
,-8.478,2.601,-3.695,-9.177,1.778,-4.13,-1.68,10.71,3.08
,-8.658,2.307,-3.642,-8.981,1.699,-4.168,-0.63,11.83,1.68
,-8.985,2.118,-3.711,-8.636,1.84,-4.472,-0.28,11.2,-0.14
2432.0,-8.366,1.496,-4.59,-9.143,-0.017,-4.867,6.86,10.5,-2.38
,-8.361,1.046,-4.719,-9.062,-0.134,-4.999,5.95,11.13,-1.75
,-8.844,0.491,-4.685,-9.031,-0.194,-4.795,5.18,11.34,-0.7
,-8.959,0.127,-4.92,-8.839,-0.043,-4.63,5.32,11.27,0.28
2508.0,-8.756,0.421,-4.525,-8.933,2.142,-4.329,10.43,7.49,7.28
,-8.416,0.785,-4.441,-8.686,2.388,-4.389,10.08,7.14,8.61
,-8.866,1.259,-4.401,-8.576,2.443,-4.322,9.31,7.14,9.31
,-8.842,1.78,-4.456,-8.509,2.608,-4.353,8.96,6.86,8.82
2584.0,-8.598,2.625,-4.427,-9.306,1.39,-4.748,6.79,8.75,4.69
,-8.693,2.223,-4.57,-9.079,1.553,-5.008,5.53,8.19,4.13
,-8.928,1.728,-4.568,-8.772,1.721,-5.231,4.9,8.12,3.85
,-8.997,1.395,-4.642,-8.782,1.424,-5.195,6.23,8.4,3.57
2660.0,-8.887,1.412,-5.183,-8.576,1.084,-5.386,6.86,6.16,1.05
,-8.595,1.589,-5.351,-8.713,1.05,-5.296,4.27,4.41,1.26
,-8.459,1.395,-5.43,-8.617,1.153,-5.217,1.96,3.36,1.89
,-8.471,1.199,-5.403,-8.538,1.508,-5.183,0.28,3.08,2.45
2736.0,-8.646,1.953,-5.171,-8.67,1.78,-5.085,2.03,-0.07,3.43
,-8.753,2.12,-5.087,-8.567,1.63,-5.051,0.21,-0.98,3.29
,-8.71,2.099,-5.114,-8.617,1.531,-4.929,-2.38,-2.03,2.94
,-8.729,1.943,-5.071,-8.658,1.634,-4.829,-4.41,-2.87,2.8
2812.0,-8.72,1.771,-4.709,-8.564,1.527,-4.432,-4.41,-4.27,0.07
,-8.727,1.907,-4.642,-8.689,1.345,-4.381,-5.74,-4.62,-0.42
,-8.648,1.838,-4.456,-8.782,1.304,-4.302,-7.56,-5.25,-0.42
,-8.536,1.692,-4.523,-8.973,1.443,-4.226,-9.59,-5.6,-0.07
2888.0,-9.081,1.637,-4.025,-8.732,1.883,-3.941,-4.27,-4.69,-2.1
,-8.751,1.802,-4.094,-8.863,2.333,-4.087,-4.55,-5.25,-1.96
,-8.502,1.804,-4.006,-8.933,2.321,-4.063,-5.25,-4.69,-0.98
,-8.531,1.718,-3.936,-8.856,2.175,-4.154,-5.25,-4.13,-0.21
2964.0,-8.784,1.744,-4.149,-8.904,1.24,-4.683,-5.67,-1.4,-5.18
,-8.72,1.39,-4.171,-8.988,1.034,-4.724,-5.11,-0.91,-4.97
,-8.775,1.228,-4.357,-8.725,0.993,-4.724,-3.22,-0.91,-4.83
,-8.739,1.295,-4.53,-8.598,0.838,-4.731,-0.63,-1.19,-4.83
3040.0,-8.758,0.78,-4.704,-9.009,1.309,-4.642,1.4,-3.22,-1.05
,-8.887,1.098,-4.776,-8.847,1.146,-4.501,2.59,-3.85,-0.7
,-8.961,1.383,-4.726,-8.772,1.299,-4.46,3.22,-4.41,-0.49
,-8.949,1.493,-4.795,-8.949,1.646,-4.415,2.8,-4.41,-0.28
3116.0,-8.813,1.91,-4.525,-9.093,1.687,-4.374,7.35,-6.79,-0.49
,-8.789,2.163,-4.482,-9.107,1.615,-4.386,7.91,-7.0,-1.19
,-8.756,1.993,-4.42,-9.081,1.445,-4.271,7.7,-6.72,-1.54
,-8.952,1.828,-4.329,-8.933,1.5,-4.312,7.21,-6.65,-1.96
3192.0,-8.818,1.67,-4.456,-8.863,1.424,-4.353,10.08,-8.68,-4.34
,-8.77,1.539,-4.405,-8.902,1.431,-4.329,8.33,-9.73,-4.2
,-8.756,1.452,-4.484,-8.978,1.429,-4.221,6.65,-10.64,-3.85
,-8.825,1.452,-4.503,-8.909,1.5,-4.106,5.74,-11.48,-3.5
3268.0,-8.978,1.452,-3.922,-9.05,1.297,-3.836,5.39,-11.76,-3.43
,-8.949,1.5,-3.877,-9.208,1.345,-3.932,5.88,-11.76,-3.29
,-8.971,1.529,-3.865,-9.162,1.364,-3.965,6.02,-11.62,-2.94
,-8.985,1.359,-3.836,-8.868,1.51,-3.946,5.81,-11.76,-2.94
3344.0,-8.801,1.553,-3.888,-9.189,1.486,-3.68,11.48,-12.53,-4.48
,-8.832,1.646,-3.731,-9.148,1.318,-3.652,11.55,-12.67,-4.48
,-8.993,1.661,-3.664,-9.069,1.232,-3.553,10.36,-12.95,-4.69
,-9.083,1.589,-3.687,-9.057,1.395,-3.537,8.68,-13.09,-4.97
3420.0,-9.074,1.508,-3.451,-9.162,1.438,-3.642,9.17,-12.04,-5.88
,-9.036,1.62,-3.309,-9.136,1.412,-3.436,8.96,-11.76,-6.51
,-9.093,1.369,-3.001,-9.229,1.062,-3.233,4.06,-11.48,-6.93
,-9.048,1.326,-3.932,-9.16,1.053,-3.379,1.05,-11.97,-7.35
3496.0,-9.172,0.981,-3.283,-9.284,1.247,-3.23,3.99,-11.48,-7.98
,-9.206,0.983,-3.369,-9.225,1.254,-3.07,3.5,-11.55,-7.84
,-9.232,1.065,-3.278,-9.141,1.249,-3.276,3.15,-11.48,-7.42
,-9.311,1.192,-3.326,-9.095,1.175,-3.171,3.08,-11.34,-7.35
3572.0,-9.15,1.036,-3.135,-9.21,0.364,-3.034,-2.8,-9.73,-9.1
,-9.217,1.053,-3.139,-9.363,0.369,-3.032,-0.84,-9.38,-8.68
,-9.182,0.842,-3.156,-9.483,0.601,-3.094,0.21,-9.17,-8.68
,-9.069,0.651,-3.171,-9.414,0.876,-3.204,0.91,-8.96,-8.4
3648.0,-9.253,0.96,-3.132,-9.404,0.517,-3.001,3.92,-7.7,-6.44
,-9.127,0.725,-3.003,-9.222,1.031,-2.938,1.26,-7.14,-5.95
,-9.158,0.414,-2.771,-9.201,1.318,-3.183,0.49,-6.3,-5.25
,-9.378,0.237,-2.79,-9.206,1.311,-3.35,2.94,-5.95,-4.41
3724.0,-9.11,1.213,-3.226,-9.423,1.187,-2.867,3.92,-6.37,-5.67
,-9.246,1.101,-3.132,-9.39,1.01,-2.642,5.18,-6.23,-5.39
,-9.385,1.235,-3.254,-9.359,0.842,-2.57,6.09,-6.3,-5.74
,-9.478,1.283,-2.936,-9.507,0.735,-2.764,5.39,-6.44,-6.44
3800.0,-9.349,0.627,-3.008,-9.619,0.313,-2.852,-3.92,-4.76,-8.47
,-9.172,0.409,-2.821,-9.584,0.617,-2.848,-4.2,-4.48,-7.77
,-9.378,0.156,-3.046,-9.517,0.61,-2.723,-3.01,-4.27,-6.93
,-9.383,0.055,-2.52,-9.433,0.505,-2.84,-0.21,-3.57,-5.95
3876.0,-9.495,0.459,-3.068,-9.476,0.883,-3.096,0.7,-2.87,-4.2
,-9.349,0.558,-2.936,-9.45,0.869,-2.929,1.82,-2.66,-4.13
,-9.347,0.747,-3.149,-9.395,0.701,-2.838,3.01,-2.73,-4.2
,-9.335,0.847,-2.967,-9.411,0.536,-2.8,2.8,-2.8,-4.48
3952.0,-9.505,0.373,-2.862,-9.447,0.558,-2.56,1.33,-2.73,-4.62
,-9.474,0.455,-2.601,-9.485,0.258,-2.443,2.94,-2.59,-4.48
,-9.395,0.605,-2.68,-9.569,0.196,-2.489,3.43,-2.38,-4.55
,-9.423,0.766,-2.706,-9.576,0.191,-2.498,2.1,-2.24,-4.69
4028.0,-9.478,0.23,-2.498,-9.421,0.658,-2.592,-0.28,0.42,-3.01
,-9.418,0.357,-2.474,-9.507,0.514,-2.601,1.05,0.91,-2.52
,-9.435,0.491,-2.603,-9.457,0.507,-2.608,2.1,1.54,-1.89
,-9.445,0.586,-2.525,-9.476,0.644,-2.769,2.52,1.82,-1.68
4104.0,-9.488,0.598,-2.96,-9.373,0.708,-3.415,4.34,2.8,-1.19
,-9.375,0.677,-3.065,-9.342,0.579,-3.305,4.48,2.59,-1.19
,-9.457,0.816,-3.333,-9.265,0.261,-3.075,4.41,2.03,-1.4
,-9.529,0.861,-3.448,-9.351,0.101,-2.97,3.78,1.54,-1.89
4180.0,-9.512,0.206,-2.895,-9.284,0.342,-2.699,7.42,-0.35,-1.19
,-9.457,0.349,-2.905,-9.464,0.378,-2.661,7.7,-0.7,-1.12
,-9.385,0.433,-2.903,-9.622,0.469,-2.639,6.79,-0.56,-0.91
,-9.308,0.467,-2.86,-9.548,0.538,-2.79,5.74,-0.42,-0.7
4256.0,-9.457,0.464,-2.869,-9.519,0.5,-2.984,2.94,0.14,-0.42
,-9.426,0.433,-2.946,-9.435,0.369,-2.888,2.59,0.21,-0.21
,-9.426,0.39,-2.924,-9.462,0.366,-2.919,2.8,0.21,-0.07
,-9.452,0.505,-3.029,-9.409,0.428,-2.874,3.15,-0.07,-0.21
4332.0,-9.44,0.431,-2.728,-9.45,0.397,-2.812,2.31,-0.35,-0.14
,-9.579,0.433,-2.761,-9.438,0.443,-2.845,1.54,-0.42,-0.28
,-9.6,0.426,-2.764,-9.435,0.407,-2.871,0.84,-0.49,-0.42
,-9.478,0.388,-2.797,-9.485,0.452,-2.826,0.77,-0.42,-0.35
4408.0,-9.502,0.486,-2.936,-9.428,0.469,-2.996,4.62,-0.7,0.56
,-9.447,0.471,-2.886,-9.466,0.337,-2.979,4.55,-0.7,0.56
,-9.457,0.514,-2.922,-9.414,0.287,-2.883,4.2,-0.91,0.49
,-9.466,0.493,-2.927,-9.464,0.388,-2.91,3.85,-1.05,0.42
4484.0,-9.452,0.431,-2.838,-9.615,0.531,-2.587,6.51,-1.19,1.12
,-9.445,0.416,-2.548,-9.572,0.474,-2.635,7.07,-0.91,1.47
,-9.426,0.4,-2.498,-9.538,0.364,-2.769,7.49,-0.7,1.68
,-9.598,0.433,-2.603,-9.409,0.242,-2.788,7.56,-0.84,1.54
4560.0,-9.383,0.278,-2.685,-9.474,0.778,-2.479,5.53,-0.07,1.54
,-9.471,0.337,-2.73,-9.335,0.632,-2.525,6.09,-0.14,1.68
,-9.56,0.378,-2.685,-9.366,0.316,-2.446,5.74,-0.21,1.47
,-9.572,0.632,-2.637,-9.507,0.254,-2.462,3.71,-0.49,0.98
4636.0,-9.524,0.261,-2.422,-9.474,0.153,-1.919,-0.07,1.61,1.89
,-9.56,0.354,-2.505,-9.538,0.285,-1.919,1.33,2.17,2.31
,-9.481,0.304,-2.304,-9.701,0.45,-2.216,1.12,3.08,2.87
,-9.423,0.182,-2.12,-9.665,0.694,-2.548,1.05,4.06,3.5
4712.0,-9.495,0.593,-2.678,-9.605,0.665,-2.57,-2.03,6.72,4.34
,-9.359,0.438,-2.764,-9.586,0.73,-2.656,-2.38,7.07,4.34
,-9.299,0.407,-2.551,-9.591,0.428,-2.635,-1.54,7.42,4.62
,-9.471,0.476,-2.525,-9.414,0.467,-2.477,-0.84,7.91,4.97
4788.0,-9.299,0.524,-2.529,-9.643,0.833,-2.517,-9.17,8.33,4.55
,-9.344,0.426,-2.197,-9.509,0.73,-2.515,-7.56,9.31,4.69
,-9.505,0.491,-2.237,-9.493,0.531,-3.077,-6.3,10.15,5.04
,-9.629,0.558,-2.127,-9.407,0.517,-3.486,-7.21,10.85,5.32
4864.0,-9.165,0.388,-3.238,-9.485,0.969,-3.171,-9.45,10.64,5.67
,-9.184,0.644,-3.307,-9.428,0.823,-3.364,-4.76,10.57,5.88
,-9.256,0.907,-3.156,-9.189,0.225,-3.19,-2.38,10.71,5.46
,-9.45,0.916,-3.07,-9.162,-0.258,-2.905,-3.15,10.71,5.25
4940.0,-9.27,-0.211,-3.101,-9.306,1.18,-3.419,-2.17,10.29,7.84
,-9.409,0.038,-2.565,-8.961,1.249,-3.829,3.78,10.99,8.4
,-9.665,0.536,-2.982,-8.964,0.995,-3.666,6.93,10.71,8.54
,-9.44,1.086,-2.864,-9.237,0.699,-3.917,5.32,10.5,8.12
5016.0,-9.294,0.967,-3.537,-9.332,0.134,-2.087,-4.97,6.44,8.47
,-9.198,0.818,-3.884,-9.538,0.988,-2.359,-5.53,6.44,8.26
,-8.993,0.61,-3.439,-9.667,1.833,-2.115,-6.16,8.12,8.19
,-8.918,0.146,-2.761,-9.813,2.307,-2.96,-4.06,10.92,9.1
5092.0,-9.529,2.515,-2.962,-9.253,0.945,-3.297,1.19,9.38,7.63
,-9.184,2.115,-3.276,-9.253,0.761,-2.867,-2.87,9.8,7.14
,-8.952,1.823,-3.652,-9.299,0.684,-2.405,-5.88,10.57,5.81
,-8.983,1.431,-3.417,-9.304,0.735,-2.819,-6.51,11.48,4.27
5168.0,-9.196,0.488,-2.802,-9.122,1.129,-3.587,-2.73,17.01,4.48
,-9.201,0.112,-2.936,-9.103,1.378,-3.881,-2.73,17.29,5.67
,-9.268,0.101,-2.891,-9.083,1.192,-3.778,0.0,17.78,6.65
,-9.122,0.562,-3.245,-9.088,0.771,-3.46,3.64,17.78,6.79
5244.0,-9.11,0.467,-3.309,-9.239,0.988,-3.85,4.83,18.2,8.47
,-9.069,0.428,-3.357,-9.1,1.744,-4.054,5.39,18.27,9.1
,-9.076,0.426,-3.518,-8.969,2.18,-4.061,6.44,17.85,9.52
,-9.287,0.548,-3.51,-8.882,2.68,-4.195,9.59,17.57,9.94
5320.0,-8.849,2.845,-4.271,-9.021,1.268,-3.967,9.17,16.87,5.18
,-8.859,2.419,-4.073,-8.935,0.928,-4.061,4.34,17.78,2.94
,-9.045,1.931,-3.826,-8.973,0.56,-4.011,0.56,18.55,1.4
,-9.162,1.615,-3.723,-9.014,0.28,-4.02,-0.42,19.04,0.35
5396.0,-9.127,0.402,-3.936,-8.751,0.682,-4.537,7.07,15.75,3.29
,-9.167,0.809,-4.123,-8.866,0.117,-4.365,8.96,14.56,3.29
,-9.002,1.173,-4.484,-9.048,-0.146,-4.322,7.56,13.3,3.5
,-8.727,1.062,-4.46,-9.095,0.182,-4.436,3.71,13.65,4.2
5472.0,-9.256,0.773,-4.271,-8.382,1.469,-4.539,10.01,13.16,7.28
,-9.21,1.311,-4.247,-8.65,1.168,-4.563,11.69,11.83,7.14
,-8.844,1.823,-4.487,-9.083,1.132,-4.537,9.31,10.57,7.35
,-8.433,1.917,-4.614,-9.162,1.378,-4.527,4.83,10.22,8.33
5548.0,-9.016,1.749,-4.743,-8.734,2.003,-4.63,4.34,8.82,7.14
,-8.825,1.953,-4.776,-8.815,1.955,-4.697,3.57,8.26,6.51
,-8.677,1.957,-4.719,-8.72,1.577,-4.503,2.45,7.7,6.23
,-8.748,1.943,-4.547,-8.825,1.357,-4.324,1.12,6.16,5.95
5624.0,-8.842,1.156,-4.365,-8.555,1.01,-4.515,-3.08,5.81,1.96
,-8.765,1.146,-4.104,-8.815,0.787,-4.527,-0.35,5.95,1.4
,-8.655,1.457,-4.336,-8.971,0.672,-4.542,0.77,5.32,1.89
,-8.552,1.302,-4.446,-8.918,0.732,-4.614,0.07,4.62,3.36
5700.0,-8.811,0.625,-4.566,-8.928,1.316,-4.575,3.92,5.11,6.23
,-8.854,0.598,-4.625,-8.789,1.79,-4.566,2.52,3.71,8.12
,-8.787,0.682,-4.697,-8.78,2.091,-4.424,2.66,3.29,9.73
,-8.825,1.029,-4.606,-8.844,2.132,-4.247,4.55,3.57,10.36
5776.0,-9.045,2.347,-4.046,-8.052,2.481,-4.594,5.81,5.67,4.13
,-9.009,2.709,-4.159,-8.055,1.414,-4.733,5.81,4.83,2.24
,-8.72,3.022,-4.171,-8.617,0.503,-4.776,4.55,4.55,0.77
,-8.334,3.029,-4.46,-9.172,0.287,-4.731,1.47,3.92,0.28
5852.0,-9.311,0.4,-4.917,-8.521,0.78,-4.882,6.51,3.99,3.57
,-9.234,0.682,-4.879,-8.638,0.883,-4.817,8.61,3.01,3.36
,-8.861,0.921,-4.91,-8.768,1.089,-4.594,8.12,2.24,3.57
,-8.614,0.835,-4.922,-8.758,1.424,-4.558,5.53,2.17,4.76
5928.0,-8.76,1.637,-4.288,-8.825,2.18,-4.293,6.65,4.06,7.42
,-8.701,2.003,-4.298,-8.717,2.326,-4.506,6.02,3.57,7.42
,-8.753,2.139,-4.3,-8.6,2.388,-4.618,5.67,4.06,6.93
,-8.775,2.024,-4.267,-8.519,2.199,-4.592,5.67,4.62,6.09
6004.0,-8.574,2.283,-4.716,-8.512,1.347,-4.762,4.41,4.27,1.96
,-8.605,2.319,-4.893,-8.555,1.407,-4.92,3.5,4.34,0.56
,-8.77,1.943,-4.793,-8.782,1.39,-4.858,1.4,4.2,-0.28
,-8.713,1.536,-4.733,-8.863,1.529,-4.793,-0.56,3.85,-0.63
6080.0,-8.737,1.977,-4.874,-8.966,1.725,-4.719,0.91,2.94,-1.33
,-8.674,2.032,-4.874,-8.938,1.488,-4.745,-0.07,3.36,-2.03
,-8.839,1.924,-4.678,-8.689,1.359,-4.922,-1.12,3.92,-3.01
,-8.973,1.864,-4.728,-8.562,1.199,-4.996,-1.61,3.57,-3.99
6156.0,-8.775,1.196,-4.898,-8.533,1.144,-4.908,2.1,0.98,-3.99
,-8.739,1.374,-4.98,-8.646,0.936,-4.941,3.01,-0.42,-3.71
,-8.574,1.558,-5.037,-8.638,0.993,-4.999,2.1,-1.26,-3.15
,-8.449,1.429,-5.02,-8.748,1.151,-4.951,-0.21,-1.75,-2.17
6232.0,-8.782,1.316,-5.066,-8.67,1.12,-4.74,-0.21,-4.97,1.47
,-8.789,1.285,-5.056,-8.725,1.536,-4.666,0.07,-5.39,1.68
,-8.768,1.134,-5.018,-8.717,1.917,-4.63,-0.14,-5.81,2.17
,-8.696,1.05,-4.86,-8.758,2.084,-4.563,0.49,-5.39,3.22
6308.0,-8.825,2.024,-4.544,-8.82,1.802,-4.487,0.84,-7.63,2.38
,-8.717,1.953,-4.314,-9.057,1.627,-4.219,0.14,-7.28,1.89
,-8.808,1.799,-4.582,-9.122,1.721,-4.357,0.63,-7.14,1.05
,-8.83,1.752,-4.436,-8.837,1.84,-4.468,3.01,-6.86,0.0
6384.0,-8.598,1.74,-4.527,-8.88,1.251,-4.549,7.63,-8.61,-2.52
,-8.696,1.352,-4.47,-8.885,1.134,-4.52,7.14,-8.75,-2.8
,-8.842,1.381,-4.525,-8.715,1.235,-4.59,7.14,-9.52,-3.15
,-8.863,1.455,-4.575,-8.717,1.299,-4.587,7.14,-9.8,-3.29
6460.0,-8.763,1.297,-4.41,-8.904,1.747,-4.271,9.03,-10.5,-0.7
,-8.856,1.512,-4.355,-8.789,1.955,-4.24,10.36,-10.15,-1.05
,-8.902,1.62,-4.288,-8.72,1.232,-4.097,10.43,-10.15,-1.75
,-8.988,1.723,-4.245,-9.11,1.302,-4.104,9.59,-10.71,-2.31
6536.0,-8.89,1.572,-4.07,-8.947,2.027,-3.821,11.55,-12.46,-1.96
,-8.871,1.965,-4.008,-8.916,1.797,-3.874,11.62,-12.53,-2.94
,-8.839,2.178,-3.991,-9.028,1.606,-3.668,10.29,-12.46,-3.78
,-8.868,2.233,-3.951,-8.985,1.271,-3.609,8.05,-12.46,-4.83
6612.0,-8.949,1.376,-3.498,-8.976,1.814,-3.841,8.82,-10.71,-7.7
,-8.945,1.259,-3.171,-8.911,1.632,-3.991,9.03,-10.85,-7.98
,-8.985,1.675,-3.599,-8.861,1.184,-3.891,9.03,-11.13,-8.47
,-9.009,1.783,-3.781,-8.966,0.972,-3.731,7.35,-11.76,-8.82
6688.0,-8.89,0.878,-3.455,-9.048,1.261,-3.616,3.36,-11.2,-9.17
,-9.162,0.976,-3.721,-8.99,0.991,-3.759,5.11,-11.83,-8.82
,-9.306,1.036,-3.527,-8.993,0.955,-3.86,4.97,-11.83,-8.61
,-9.198,1.263,-3.518,-9.048,0.823,-3.86,3.36,-12.04,-9.17
6764.0,-8.99,0.883,-3.539,-9.201,0.95,-3.405,2.52,-11.69,-8.4
,-9.064,1.077,-3.496,-9.139,0.847,-3.419,3.36,-11.34,-8.47
,-9.229,1.062,-3.233,-9.081,0.914,-3.453,2.59,-10.99,-8.89
,-9.294,1.012,-3.324,-9.095,1.027,-3.309,0.98,-10.99,-8.89
6840.0,-9.119,1.0,-3.137,-9.337,0.708,-2.934,2.52,-10.43,-8.33
,-9.241,0.823,-3.185,-9.447,0.967,-3.12,2.24,-10.22,-8.33
,-9.134,0.715,-3.092,-9.395,1.125,-3.262,1.47,-10.08,-8.05
,-9.194,0.565,-3.041,-9.225,0.995,-3.369,2.1,-9.8,-7.42
6916.0,-9.112,0.701,-3.254,-9.418,0.447,-3.046,-0.49,-8.4,-7.35
,-9.081,0.428,-3.34,-9.378,0.553,-2.723,0.21,-8.12,-7.07
,-9.131,0.237,-3.034,-9.387,0.766,-2.781,1.89,-7.91,-6.86
,-9.316,0.304,-3.269,-9.332,0.938,-2.852,4.34,-8.19,-6.37
6992.0,-9.263,0.995,-3.147,-9.387,0.952,-2.661,5.32,-6.37,-5.25
,-9.165,0.991,-3.197,-9.476,1.027,-2.74,3.92,-6.23,-5.6
,-9.167,1.003,-3.096,-9.43,1.003,-2.513,4.48,-5.81,-5.46
,-9.22,0.988,-2.824,-9.457,0.847,-2.764,5.74,-5.11,-5.39
7068.0,-9.445,0.689,-2.915,-9.258,0.275,-3.434,-3.15,-3.29,-7.63
,-9.323,0.546,-2.814,-9.265,0.287,-3.19,-3.64,-3.08,-7.49
,-9.323,0.443,-3.202,-9.328,0.304,-3.101,-3.92,-3.08,-7.07
,-9.354,0.407,-3.348,-9.418,0.352,-2.979,-3.64,-3.29,-6.86
7144.0,-9.488,0.424,-2.974,-9.316,0.493,-2.704,3.64,-2.8,-4.69
,-9.435,0.404,-2.778,-9.43,0.392,-2.453,4.06,-2.73,-4.27
,-9.426,0.505,-2.998,-9.526,0.584,-2.785,4.62,-2.59,-3.99
,-9.342,0.469,-2.836,-9.524,0.668,-2.836,4.97,-2.24,-3.85
7220.0,-9.447,0.562,-2.857,-9.45,0.342,-2.618,4.69,-0.98,-3.5
,-9.292,0.409,-2.879,-9.414,0.282,-2.46,4.48,-0.49,-3.15
,-9.244,0.237,-2.666,-9.493,0.383,-2.556,5.32,0.21,-2.66
,-9.299,0.251,-2.714,-9.56,0.483,-2.812,6.23,0.56,-2.17
7296.0,-9.438,0.526,-2.938,-9.485,0.416,-3.144,6.44,2.52,-0.77
,-9.337,0.519,-3.013,-9.438,0.61,-3.276,6.23,2.73,-0.49
,-9.299,0.414,-2.991,-9.399,0.723,-3.513,6.51,3.08,-0.07
,-9.447,0.33,-2.989,-9.328,0.715,-3.642,7.14,3.29,0.14
7372.0,-9.194,0.646,-3.472,-9.706,0.189,-2.503,5.67,1.19,-0.28
,-9.28,0.383,-3.276,-9.694,0.299,-2.8,5.25,1.26,0.14
,-9.344,0.129,-2.924,-9.454,0.452,-3.082,5.74,1.19,0.21
,-9.509,0.156,-2.513,-9.296,0.577,-3.214,6.58,1.4,0.28
7448.0,-9.275,0.519,-3.3,-9.397,0.696,-3.276,3.64,1.61,0.56
,-9.342,0.359,-3.23,-9.39,0.672,-3.352,4.06,1.82,0.91
,-9.454,0.4,-3.211,-9.368,0.615,-3.4,4.9,1.26,0.98
,-9.454,0.586,-3.254,-9.33,0.632,-3.508,5.81,0.77,0.7
7524.0,-9.342,0.555,-3.417,-9.562,0.187,-2.769,3.85,-1.4,-0.14
,-9.275,0.428,-3.276,-9.667,0.457,-3.084,3.78,-1.75,-0.21
,-9.318,0.115,-2.979,-9.512,0.603,-2.958,3.99,-1.54,0.21
,-9.356,0.055,-2.793,-9.383,0.514,-2.984,5.25,-1.4,0.63
7600.0,-9.363,0.292,-3.058,-9.423,0.514,-2.941,3.01,-1.12,0.77
,-9.366,0.306,-3.017,-9.416,0.546,-2.943,4.34,-1.12,0.91
,-9.402,0.33,-2.955,-9.462,0.601,-2.898,5.74,-1.19,1.33
,-9.454,0.407,-2.948,-9.459,0.546,-2.871,6.79,-1.12,1.47
7676.0,-9.45,0.323,-2.733,-9.474,0.555,-2.754,2.73,-0.7,1.05
,-9.488,0.263,-2.766,-9.457,0.555,-2.776,3.22,-0.56,1.26
,-9.505,0.285,-2.752,-9.428,0.481,-2.735,4.27,-0.28,1.4
,-9.435,0.452,-2.718,-9.44,0.404,-2.711,4.83,-0.28,1.4
7752.0,-9.493,0.371,-2.704,-9.404,0.44,-2.974,3.29,1.61,1.61
,-9.517,0.371,-2.694,-9.368,0.651,-3.125,3.43,1.68,1.47
,-9.457,0.392,-2.812,-9.378,0.668,-3.025,3.22,1.89,1.54
,-9.39,0.376,-2.907,-9.466,0.531,-2.984,3.5,2.03,1.75
7828.0,-9.435,0.459,-2.95,-9.395,0.637,-3.041,2.59,2.03,1.26
,-9.464,0.428,-3.027,-9.438,0.598,-2.955,2.45,1.75,1.26
,-9.392,0.591,-3.041,-9.447,0.471,-2.888,2.8,1.61,1.12
,-9.5,0.543,-3.061,-9.421,0.4,-2.917,2.24,1.61,0.98
7904.0,-9.411,0.333,-3.003,-9.521,0.56,-2.843,-2.31,1.61,0.7
,-9.485,0.345,-3.072,-9.493,0.593,-2.773,-1.54,1.4,0.63
,-9.502,0.395,-3.068,-9.55,0.634,-2.876,-0.35,1.47,0.63
,-9.55,0.467,-2.986,-9.541,0.601,-2.907,0.14,1.19,0.7
7980.0,-9.545,0.565,-3.027,-9.423,0.407,-2.953,-3.85,1.47,0.56
,-9.404,0.668,-3.063,-9.426,0.335,-2.793,-3.85,1.05,0.28
,-9.308,0.639,-3.08,-9.476,0.227,-2.721,-4.06,0.98,0.21
,-9.371,0.519,-3.005,-9.56,0.28,-2.778,-4.06,1.05,0.21
8056.0,-9.464,0.479,-2.68,-9.462,0.256,-2.572,-5.88,1.33,0.91
,-9.383,0.402,-2.615,-9.55,0.462,-2.726,-6.58,1.68,0.98
,-9.306,0.215,-2.682,-9.512,0.596,-2.807,-5.95,2.24,1.4
,-9.33,0.117,-2.505,-9.428,0.622,-3.159,-3.57,2.94,2.03
8132.0,-9.45,0.495,-3.252,-9.457,0.593,-2.879,1.12,3.85,3.15
,-9.337,0.467,-3.374,-9.56,0.677,-2.95,2.8,3.85,3.29
,-9.304,0.495,-3.314,-9.641,0.893,-3.254,4.48,3.71,3.43
,-9.361,0.529,-3.228,-9.43,0.859,-3.128,5.46,3.43,3.29
8208.0,-9.38,0.742,-3.099,-9.493,0.426,-3.063,1.89,2.38,2.1
,-9.354,0.627,-3.135,-9.447,0.378,-2.922,0.56,2.24,2.31
,-9.399,0.459,-3.022,-9.392,0.366,-2.73,-0.63,2.31,2.17
,-9.435,0.359,-3.049,-9.44,0.311,-2.615,-0.84,2.17,2.03
8284.0,-9.471,0.464,-2.67,-9.574,0.988,-2.793,1.4,3.08,3.29
,-9.483,0.625,-2.596,-9.474,1.0,-2.9,1.19,3.64,3.29
,-9.416,0.682,-2.271,-9.335,0.766,-2.974,0.28,4.48,3.22
,-9.526,0.797,-2.453,-9.311,0.436,-2.958,0.35,4.97,3.01
8360.0,-9.342,0.378,-3.262,-9.385,0.479,-3.092,-5.95,5.32,2.59
,-9.301,0.524,-3.302,-9.332,0.086,-2.757,-4.62,5.04,2.24
,-9.268,0.787,-3.362,-9.438,-0.156,-3.099,-6.09,4.55,1.82
,-9.249,0.718,-3.025,-9.335,0.005,-2.649,-9.03,4.9,1.96
8436.0,-9.462,0.28,-3.099,-9.292,0.692,-2.154,5.46,4.9,4.83
,-9.442,0.732,-3.18,-9.234,1.01,-2.551,7.98,4.55,4.76
,-9.378,1.0,-3.084,-9.306,1.342,-3.061,8.4,4.69,5.32
,-9.27,0.96,-2.661,-9.172,1.402,-3.671,9.59,6.23,6.37
8512.0,-9.153,1.0,-3.79,-9.313,1.273,-3.025,-6.23,5.6,2.73
,-9.261,0.519,-3.53,-9.344,1.225,-3.13,-5.18,6.58,3.22
,-9.521,0.412,-3.051,-9.533,0.548,-3.233,-1.82,7.42,3.43
,-9.438,0.806,-2.627,-9.411,-0.065,-3.077,0.28,8.19,3.43
8588.0,-9.141,-0.651,-1.567,-9.045,0.615,-3.446,5.88,11.9,6.86
,-9.17,-0.258,-2.173,-8.933,-0.045,-3.039,14.21,12.81,6.93
,-9.217,0.9,-2.639,-8.988,-0.074,-3.216,13.51,11.62,5.25
,-9.196,1.11,-3.417,-9.28,0.639,-2.965,7.14,10.71,4.76
8664.0,-9.5,1.575,-3.312,-9.105,0.388,-2.905,11.62,12.53,6.72
,-9.445,2.099,-3.412,-9.308,0.108,-3.044,4.97,11.9,5.39
,-9.316,1.685,-3.338,-9.368,0.517,-3.137,-2.1,12.46,5.6
,-9.148,1.015,-3.317,-9.174,0.902,-3.233,-5.81,13.51,6.58
8740.0,-8.892,1.187,-3.139,-9.615,1.407,-3.867,7.42,16.66,6.93
,-8.938,1.345,-2.764,-9.031,1.196,-4.235,7.77,17.64,7.56
,-9.196,1.431,-3.228,-8.679,0.864,-4.075,6.65,16.94,6.93
,-9.627,1.438,-3.623,-8.734,0.498,-3.965,3.36,14.84,5.53
8816.0,-9.208,0.586,-3.821,-8.777,0.637,-3.941,5.74,15.19,5.04
,-9.497,0.881,-3.891,-9.036,0.459,-3.965,6.93,14.14,4.76
,-9.289,1.01,-3.982,-9.342,0.498,-4.087,4.34,14.0,4.76
,-8.949,0.878,-3.857,-9.536,0.833,-4.101,1.61,14.84,5.6
8892.0,-9.349,1.273,-4.269,-8.878,0.713,-4.312,4.48,11.34,7.42
,-8.976,1.318,-4.501,-8.923,0.859,-4.116,1.19,10.57,7.42
,-8.763,0.981,-4.36,-9.05,1.053,-4.185,-1.54,9.87,7.98
,-8.847,0.802,-4.338,-8.916,1.199,-4.171,-1.89,8.89,8.12
8968.0,-9.074,0.845,-4.212,-8.701,1.225,-4.152,-3.85,6.02,10.57
,-9.012,0.613,-4.226,-8.748,1.73,-4.168,-4.34,5.74,11.27
,-8.914,0.68,-4.149,-9.055,1.773,-4.015,-1.89,6.51,11.83
,-8.911,0.787,-3.977,-9.34,1.931,-3.963,0.28,5.67,12.6
9044.0,-9.385,2.111,-4.056,-9.184,1.527,-3.668,-0.14,6.65,10.22
,-9.045,2.029,-4.137,-9.457,1.9,-3.635,-2.59,6.72,9.17
,-8.677,1.692,-4.046,-9.28,2.161,-3.955,-4.27,8.19,7.98
,-8.835,1.546,-3.807,-8.842,1.907,-4.104,-3.5,9.31,6.72
9120.0,-8.648,1.857,-3.996,-8.981,1.953,-3.92,-4.62,6.65,3.99
,-8.693,1.737,-4.034,-8.835,1.922,-3.975,-3.15,6.79,2.73
,-8.909,1.811,-3.745,-8.796,1.711,-4.101,-1.4,7.42,0.84
,-9.026,1.936,-3.8,-8.696,1.591,-4.29,-1.33,8.19,-0.35
9196.0,-8.66,1.421,-4.235,-9.012,0.857,-4.329,-5.95,7.49,-0.35
,-8.686,1.283,-4.264,-8.952,0.928,-4.616,-4.48,7.91,-0.35
,-8.866,1.017,-4.147,-8.571,0.782,-4.654,-3.22,8.33,-0.21
,-9.088,0.9,-4.075,-8.191,0.218,-4.795,-2.59,8.26,0.14
9272.0,-8.437,-0.112,-4.702,-9.15,0.751,-3.999,-4.97,8.82,6.44
,-9.019,-0.541,-4.405,-8.904,1.359,-4.03,-3.01,9.17,8.89
,-9.351,-0.354,-4.18,-8.849,1.613,-4.02,0.56,9.24,10.29
,-9.5,0.086,-4.027,-8.854,1.953,-4.073,3.43,8.47,10.78
9348.0,-9.122,2.192,-3.939,-8.634,1.943,-4.212,3.36,8.19,8.82
,-9.222,2.108,-3.932,-8.559,1.871,-4.293,2.38,8.4,7.63
,-8.737,2.084,-4.008,-8.524,1.735,-4.362,2.24,7.84,7.28
,-8.5,1.972,-3.977,-8.698,1.598,-4.48,2.24,7.98,7.7
9424.0,-8.775,1.4,-4.439,-8.631,1.732,-4.357,5.95,8.47,6.65
,-8.777,1.407,-4.551,-8.806,1.843,-4.444,6.3,8.47,7.21
,-8.698,1.388,-4.355,-8.832,1.869,-4.499,6.23,8.96,7.91
,-8.717,1.536,-4.398,-8.76,1.936,-4.573,5.04,8.68,8.26
9500.0,-8.648,2.027,-4.558,-8.859,2.498,-4.453,1.96,9.45,6.44
,-8.643,2.139,-4.484,-8.48,2.395,-4.628,3.01,10.15,5.67
,-8.715,2.446,-4.427,-8.423,2.235,-4.748,4.34,10.29,4.41
,-9.143,2.651,-4.47,-8.603,2.218,-4.865,4.55,8.89,3.22
9576.0,-8.72,2.266,-4.953,-8.674,1.326,-5.219,2.1,9.94,0.21
,-8.722,2.158,-5.037,-8.67,1.192,-5.264,1.26,9.94,-0.28
,-8.662,1.776,-5.054,-8.411,1.472,-5.382,0.14,9.66,-0.21
,-8.667,1.577,-5.217,-8.275,1.541,-5.401,-0.49,8.75,-0.21
9652.0,-8.626,1.445,-5.219,-8.772,1.905,-5.183,-2.38,6.09,1.54
,-8.88,1.534,-5.13,-8.753,1.893,-4.977,-2.38,5.53,1.61
,-8.871,1.673,-5.14,-8.536,1.881,-4.982,-2.45,4.9,1.68
,-8.868,1.85,-5.152,-8.437,2.012,-5.016,-2.38,3.99,1.75
9728.0,-8.495,1.972,-4.879,-8.882,1.383,-4.793,-2.94,1.05,-0.07
,-8.725,2.0,-4.776,-8.871,1.366,-4.798,-2.17,0.98,-1.19
,-8.871,1.797,-4.81,-8.813,1.352,-4.803,-1.89,1.05,-1.89
,-8.768,1.634,-4.853,-8.693,1.417,-4.805,-1.54,1.47,-1.82
9804.0,-8.368,1.505,-4.843,-8.823,1.596,-5.073,-0.49,-3.15,0.49
,-8.203,1.531,-5.001,-8.954,1.639,-4.999,-1.26,-3.5,1.61
,-8.311,1.488,-5.025,-8.636,1.704,-4.999,-1.96,-3.64,2.45
,-8.55,1.529,-5.116,-8.442,1.711,-4.879,-1.54,-3.85,2.87
9880.0,-8.509,1.692,-4.602,-8.741,2.376,-4.757,3.36,-5.53,2.45
,-8.638,1.752,-4.661,-8.583,2.213,-4.759,4.69,-6.3,1.82
,-8.784,2.07,-4.563,-8.607,1.795,-4.7,5.18,-6.58,1.19
,-8.801,2.204,-4.666,-8.662,1.598,-4.645,4.55,-7.35,0.84
9956.0,-8.789,1.407,-4.508,-8.751,2.032,-4.523,6.23,-8.54,-0.7
,-8.763,1.486,-4.733,-8.772,1.888,-4.424,8.89,-9.24,-1.12
,-8.775,1.845,-4.544,-8.792,1.835,-4.408,11.48,-10.08,-1.33
,-8.78,2.051,-4.573,-8.746,1.826,-4.403,12.04,-10.85,-1.26
10032.0,-8.737,1.945,-4.451,-8.832,1.579,-4.346,4.97,-12.18,-3.15
,-8.799,2.027,-4.458,-8.653,1.553,-4.221,4.27,-12.46,-3.64
,-8.851,1.977,-4.513,-8.591,1.656,-4.113,3.15,-12.6,-4.13
,-8.938,1.73,-4.374,-8.727,1.914,-4.176,2.59,-12.74,-3.92
10108.0,-8.818,2.01,-4.209,-8.825,1.103,-4.02,7.42,-13.23,-3.99
,-8.871,1.878,-4.178,-9.129,1.381,-4.025,6.58,-13.37,-4.13
,-8.799,1.665,-4.14,-9.05,1.737,-4.003,5.95,-13.16,-4.55
,-8.847,1.424,-4.058,-9.067,1.969,-4.085,6.02,-12.6,-4.34
10184.0,-8.928,1.85,-3.999,-8.94,1.575,-3.587,8.33,-13.44,-5.11
,-8.756,1.658,-3.965,-8.952,1.957,-3.582,7.0,-13.51,-4.62
,-8.777,1.388,-3.85,-8.928,2.063,-3.527,7.28,-12.88,-3.99
,-8.847,1.199,-3.695,-8.916,1.981,-3.46,9.03,-12.74,-3.78
10260.0,-8.983,1.847,-3.297,-9.136,1.874,-3.453,7.7,-11.69,-5.74
,-9.088,1.78,-3.25,-8.902,1.725,-3.496,8.61,-10.85,-6.72
,-9.201,1.759,-3.187,-8.768,1.709,-3.594,9.24,-10.29,-7.42
,-9.172,1.843,-3.369,-8.813,1.584,-3.896,8.82,-10.43,-8.19
10336.0,-9.04,1.302,-3.285,-9.103,0.988,-3.728,4.9,-9.59,-9.59
,-9.383,1.338,-3.503,-9.088,1.053,-3.609,3.85,-9.94,-10.01
,-9.194,1.333,-3.618,-9.091,1.125,-3.515,2.1,-10.08,-10.29
,-9.127,1.125,-3.625,-9.074,1.304,-3.568,1.26,-9.8,-10.01
10412.0,-9.002,1.431,-3.542,-9.316,1.07,-3.369,5.67,-8.96,-10.08
,-9.062,1.338,-3.573,-9.347,1.11,-3.312,3.43,-9.03,-9.87
,-9.045,1.228,-3.522,-9.292,1.158,-3.455,2.1,-9.31,-9.8
,-9.191,1.091,-3.546,-9.057,0.974,-3.233,2.73,-9.38,-9.73
10488.0,-8.885,0.799,-3.116,-9.44,1.039,-3.312,2.17,-8.47,-9.38
,-9.005,0.692,-3.041,-9.208,0.955,-3.218,4.9,-7.84,-8.82
,-9.356,0.9,-3.242,-9.038,0.802,-3.338,6.65,-7.91,-8.82
,-9.497,1.158,-3.151,-9.098,0.701,-3.08,6.16,-7.84,-8.82
10564.0,-9.313,0.747,-3.269,-9.186,0.483,-3.187,6.86,-6.79,-7.56
,-9.34,1.141,-3.491,-9.177,0.182,-2.62,5.95,-7.7,-7.63
,-9.294,1.115,-3.336,-9.378,0.244,-2.627,3.92,-7.91,-7.63
,-9.208,0.9,-3.276,-9.493,0.854,-3.034,2.31,-7.56,-7.28
10640.0,-9.462,1.369,-3.338,-9.488,0.905,-2.836,10.08,-7.21,-6.51
,-9.277,1.529,-3.362,-9.507,1.342,-3.01,8.05,-6.93,-6.37
,-9.198,1.115,-3.111,-9.414,1.381,-3.314,6.37,-6.02,-6.02
,-9.237,0.802,-2.627,-9.294,1.101,-3.12,7.0,-4.83,-6.02
10716.0,-9.277,0.579,-3.18,-9.576,0.359,-2.848,-0.07,-5.53,-7.84
,-9.273,0.112,-2.831,-9.497,0.747,-3.075,1.68,-4.62,-7.7
,-9.282,-0.17,-2.359,-9.34,0.802,-3.226,4.69,-3.78,-6.93
,-9.418,0.024,-2.316,-9.162,0.706,-3.123,7.28,-3.43,-6.02
10792.0,-9.172,0.591,-3.056,-9.409,0.634,-2.764,5.32,-3.29,-5.18
,-9.316,0.651,-2.938,-9.469,0.421,-2.659,6.02,-2.87,-5.04
,-9.474,0.665,-2.816,-9.426,0.419,-2.757,5.25,-3.08,-5.25
,-9.495,0.747,-2.95,-9.414,0.5,-2.513,3.85,-3.43,-5.6
10868.0,-9.505,0.67,-2.922,-9.497,0.127,-2.63,3.92,-1.82,-4.83
,-9.395,0.538,-2.625,-9.435,0.144,-2.596,2.66,-1.4,-4.83
,-9.33,0.328,-2.57,-9.488,0.256,-2.752,2.52,-0.84,-4.48
,-9.442,0.208,-2.699,-9.423,0.292,-2.637,2.66,-0.35,-4.13
10944.0,-9.383,0.345,-2.694,-9.426,0.036,-2.592,5.88,1.75,-1.82
,-9.407,0.39,-2.833,-9.521,0.053,-2.541,5.32,1.68,-1.54
,-9.407,0.313,-2.852,-9.562,0.203,-2.687,4.34,2.24,-1.47
,-9.38,0.194,-2.702,-9.521,0.412,-2.749,3.99,2.73,-0.98
11020.0,-9.5,0.617,-2.991,-9.414,0.33,-3.058,6.51,3.57,0.42
,-9.395,0.61,-3.13,-9.447,0.239,-2.972,5.74,3.5,0.28
,-9.284,0.486,-3.022,-9.344,0.297,-2.838,5.39,4.06,0.63
,-9.371,0.407,-3.159,-9.5,0.357,-2.752,5.67,4.13,0.91
11096.0,-9.579,0.436,-2.831,-9.311,0.409,-3.228,8.89,4.13,1.61
,-9.533,0.445,-2.974,-9.311,0.503,-3.159,7.84,4.13,1.68
,-9.438,0.39,-2.994,-9.462,0.579,-3.209,7.0,4.13,1.75
,-9.416,0.395,-3.211,-9.495,0.785,-3.324,6.65,4.13,1.68
11172.0,-9.399,0.869,-3.41,-9.399,0.407,-3.374,3.08,3.01,1.26
,-9.313,0.821,-3.501,-9.541,0.297,-3.247,1.54,2.31,1.05
,-9.232,0.637,-3.451,-9.497,0.132,-3.25,1.26,1.96,0.98
,-9.246,0.488,-3.477,-9.397,0.156,-3.135,2.17,1.4,0.84
11248.0,-9.337,0.218,-3.235,-9.483,0.452,-2.819,4.55,0.14,1.75
,-9.366,0.275,-3.137,-9.457,0.419,-2.74,5.46,-0.07,1.89
,-9.392,0.457,-3.063,-9.529,0.462,-2.912,6.09,0.21,2.1
,-9.407,0.486,-2.979,-9.474,0.625,-2.95,6.09,0.07,2.24
11324.0,-9.361,0.715,-3.163,-9.411,0.704,-3.125,4.06,0.21,1.96
,-9.289,0.61,-3.235,-9.457,0.648,-3.022,3.43,0.14,1.75
,-9.311,0.632,-3.271,-9.387,0.524,-2.874,3.64,-0.14,1.75
,-9.349,0.711,-3.218,-9.402,0.431,-2.814,3.99,-0.14,1.61
11400.0,-9.438,0.479,-2.807,-9.392,0.479,-3.082,0.98,0.14,0.91
,-9.442,0.565,-2.783,-9.387,0.431,-2.97,0.28,0.49,0.91
,-9.464,0.57,-2.907,-9.407,0.395,-3.008,-0.56,0.77,0.91
,-9.428,0.498,-2.929,-9.45,0.416,-2.991,-1.12,0.77,0.84
11476.0,-9.45,0.471,-2.994,-9.404,0.555,-3.008,1.96,0.84,1.19
,-9.466,0.555,-2.977,-9.428,0.51,-2.934,2.1,0.84,1.05
,-9.404,0.603,-2.938,-9.397,0.534,-2.924,1.68,0.84,1.05
,-9.395,0.627,-3.053,-9.493,0.651,-2.953,1.19,0.84,0.98
11552.0,-9.438,0.684,-2.912,-9.402,0.39,-3.037,2.1,0.84,0.84
,-9.421,0.603,-2.97,-9.38,0.404,-3.001,1.4,1.05,0.7
,-9.464,0.577,-3.025,-9.407,0.433,-2.907,0.77,1.26,0.7
,-9.459,0.447,-3.07,-9.418,0.572,-2.84,0.35,1.12,0.49
11628.0,-9.507,0.653,-2.836,-9.44,0.378,-3.061,1.12,1.75,0.98
,-9.533,0.62,-2.86,-9.373,0.447,-3.001,-0.07,1.89,0.77
,-9.483,0.524,-2.907,-9.387,0.536,-3.111,-0.98,2.03,0.7
,-9.39,0.383,-2.967,-9.438,0.526,-3.077,-0.98,2.03,0.77
11704.0,-9.423,0.443,-3.099,-9.402,0.687,-3.144,0.77,1.61,1.26
,-9.418,0.416,-3.082,-9.395,0.637,-3.113,1.19,1.26,1.26
,-9.418,0.495,-3.209,-9.421,0.526,-2.974,1.68,0.98,1.4
,-9.445,0.603,-3.183,-9.416,0.416,-2.922,2.03,0.98,1.54
11780.0,-9.435,0.357,-2.855,-9.347,0.455,-2.838,0.35,0.84,2.17
,-9.502,0.385,-2.824,-9.359,0.443,-2.74,0.42,0.91,2.24
,-9.481,0.433,-2.934,-9.416,0.522,-2.771,0.56,1.05,2.38
,-9.368,0.438,-2.893,-9.438,0.538,-2.68,0.35,1.4,2.52
11856.0,-9.411,0.579,-2.761,-9.373,0.794,-3.214,0.77,2.45,3.22
,-9.414,0.536,-2.814,-9.347,0.943,-3.336,0.14,2.73,3.29
,-9.342,0.646,-2.936,-9.351,0.893,-3.393,0.0,2.87,3.29
,-9.383,0.653,-3.084,-9.342,0.756,-3.278,-0.63,2.66,3.15
11932.0,-9.373,0.689,-3.106,-9.474,1.376,-2.807,-2.59,1.54,2.03
,-9.543,0.467,-2.922,-9.136,1.237,-2.793,-1.82,1.54,2.03
,-9.67,0.474,-2.742,-9.148,0.692,-2.685,-2.24,1.05,1.96
,-9.679,0.986,-2.558,-9.296,0.273,-2.534,-3.92,0.28,1.82
12008.0,-9.45,0.112,-2.422,-9.186,-0.019,-2.596,-12.32,2.66,0.84
,-9.584,0.352,-2.223,-9.38,-0.299,-2.733,-11.76,3.08,1.47
,-9.586,0.625,-2.675,-9.337,-0.141,-2.661,-14.98,2.73,1.33
,-9.313,0.349,-2.426,-9.39,0.313,-2.814,-19.04,3.01,1.61
12084.0,-9.375,0.761,-3.094,-9.509,1.062,-2.58,-0.35,5.88,5.88
,-9.289,0.859,-2.73,-9.371,1.175,-3.07,0.56,6.51,6.23
,-9.316,0.897,-2.527,-9.275,0.95,-3.058,0.56,7.42,6.65
,-9.464,1.003,-2.704,-9.354,0.706,-3.025,-0.91,7.84,6.72
12160.0,-9.385,0.838,-3.329,-9.32,1.163,-3.099,-0.91,8.47,6.51
,-9.407,0.945,-3.331,-9.347,1.201,-3.331,0.0,8.68,6.16
,-9.392,0.945,-3.166,-9.395,1.213,-3.683,-0.42,9.17,5.46
,-9.395,1.031,-3.211,-9.258,1.117,-3.747,-2.31,9.1,5.04
12236.0,-9.261,0.486,-3.206,-9.359,0.816,-3.18,-13.02,5.88,3.01
,-9.363,0.66,-3.434,-9.421,1.108,-3.436,-8.75,5.74,3.29
,-9.296,0.541,-3.364,-9.371,1.058,-3.123,-3.08,5.81,3.22
,-9.284,0.68,-3.163,-9.399,1.141,-3.163,1.82,5.18,3.57
12312.0,-9.265,1.524,-2.996,-9.433,-0.115,-3.075,2.52,5.6,3.22
,-9.184,1.457,-3.029,-9.335,-0.223,-3.123,-0.07,5.88,2.45
,-9.048,1.141,-3.19,-9.141,-0.23,-2.833,-4.97,6.09,2.17
,-9.179,0.464,-3.044,-9.213,0.187,-2.986,-7.63,6.65,2.8
12388.0,-9.304,0.572,-3.003,-9.22,1.278,-2.761,13.51,7.91,8.19
,-9.409,0.914,-3.276,-9.359,1.608,-2.917,13.51,8.05,8.4
,-9.27,1.192,-3.281,-9.284,1.493,-3.017,12.32,8.89,9.1
,-9.072,1.17,-2.826,-9.198,1.18,-2.919,11.97,10.64,9.59
12464.0,-9.067,0.969,-3.061,-9.186,1.046,-3.403,-1.61,11.76,7.21
,-9.016,0.749,-3.168,-9.265,1.182,-3.408,0.14,11.76,7.56
,-9.072,0.763,-3.336,-9.299,1.17,-3.161,3.78,11.34,8.47
,-9.086,0.998,-3.549,-9.344,1.151,-3.223,7.0,10.99,9.38
12540.0,-9.356,1.134,-3.333,-9.05,1.823,-3.039,3.5,13.16,8.61
,-9.246,0.991,-3.556,-8.961,2.632,-3.108,2.73,12.74,8.61
,-9.002,1.065,-3.649,-9.021,2.946,-3.247,3.43,13.16,8.33
,-9.007,1.364,-3.362,-9.203,2.807,-3.314,5.88,14.56,7.63
12616.0,-9.416,2.302,-3.51,-8.753,0.598,-3.857,-4.34,14.21,0.91
,-9.268,1.709,-3.52,-9.057,0.407,-3.92,-6.58,14.91,0.07
,-8.76,1.328,-3.635,-9.409,0.426,-3.965,-5.11,16.1,-0.49
,-8.614,0.895,-3.592,-9.536,0.565,-3.917,-1.47,17.22,-0.56
12692.0,-9.27,0.859,-4.188,-8.871,0.854,-4.424,7.0,15.54,2.87
,-8.861,1.027,-4.484,-9.05,0.739,-4.372,5.39,14.63,3.36
,-8.758,1.091,-4.673,-9.062,0.629,-4.255,3.36,14.0,3.78
,-8.758,1.005,-4.704,-9.139,0.524,-4.293,1.4,13.86,4.13
12768.0,-9.067,0.491,-4.319,-8.792,1.484,-4.286,3.29,12.04,7.0
,-9.04,0.627,-4.322,-8.665,1.699,-4.377,5.53,11.06,7.63
,-9.222,0.739,-4.19,-8.648,2.053,-4.393,6.93,9.87,7.28
,-9.115,0.974,-4.295,-8.598,2.4,-4.156,6.37,7.7,7.0
12844.0,-8.732,2.233,-4.164,-9.191,0.804,-4.085,-5.88,8.47,5.95
,-9.04,1.996,-3.939,-8.973,1.314,-4.183,-11.2,8.61,5.25
,-9.052,1.484,-4.07,-8.686,1.586,-4.24,-13.93,8.33,5.39
,-9.191,1.01,-4.128,-8.588,1.713,-4.3,-13.37,7.63,5.95
12920.0,-8.701,1.723,-4.097,-8.763,1.766,-3.9,-2.38,6.02,3.78
,-8.856,1.74,-4.202,-8.77,1.764,-3.869,-3.64,6.3,3.92
,-8.969,1.656,-4.037,-8.918,1.579,-3.778,-3.92,6.72,3.64
,-8.978,1.819,-4.018,-9.162,1.57,-4.018,-3.29,7.07,2.52
12996.0,-8.861,1.591,-4.381,-8.849,0.725,-4.635,-2.66,7.21,2.45
,-8.77,1.175,-4.393,-8.878,1.036,-4.578,-2.1,7.28,3.15
,-8.705,0.857,-4.494,-8.978,1.043,-4.611,-0.14,7.35,4.13
,-8.775,0.804,-4.523,-8.99,0.943,-4.551,2.03,7.21,4.06
13072.0,-8.906,0.979,-4.625,-8.863,1.625,-4.341,0.77,6.37,5.18
,-8.808,1.17,-4.743,-8.686,2.161,-4.398,0.49,6.3,5.95
,-8.66,1.22,-4.757,-8.543,2.379,-4.42,0.91,6.02,6.37
,-8.76,1.283,-4.417,-8.708,2.58,-4.408,1.47,5.25,6.58
13148.0,-8.705,2.431,-4.573,-9.052,0.857,-4.135,-4.41,4.97,3.57
,-8.746,1.701,-4.482,-8.859,1.376,-4.341,-6.58,5.39,3.78
,-8.827,1.027,-4.542,-8.684,1.814,-4.355,-5.81,5.53,4.2
,-8.842,0.658,-4.513,-8.394,1.996,-4.475,-1.89,5.46,4.13
13224.0,-8.325,1.658,-4.508,-8.775,0.799,-4.322,-4.48,3.57,6.37
,-8.818,1.127,-4.53,-8.737,1.18,-4.379,-6.58,3.85,7.28
,-9.005,0.689,-4.456,-8.71,1.431,-4.432,-5.81,4.27,8.12
,-8.988,0.591,-4.379,-8.899,1.469,-4.537,-1.89,4.48,8.75
13300.0,-9.27,1.543,-4.369,-8.619,2.802,-4.439,12.04,3.78,9.38
,-9.136,2.3,-4.3,-8.614,2.4,-4.42,14.91,3.36,8.12
,-8.713,2.915,-4.36,-8.746,1.95,-4.317,15.61,3.71,6.58
,-8.681,3.075,-4.2,-8.775,1.826,-4.47,12.53,4.06,5.53
13376.0,-8.591,1.792,-4.714,-8.787,1.852,-4.917,9.24,5.25,3.36
,-8.394,1.697,-4.951,-8.847,2.096,-4.807,7.77,4.48,4.48
,-8.519,1.658,-5.279,-8.954,2.304,-4.889,7.7,4.27,5.32
,-8.713,1.735,-5.264,-8.851,2.077,-4.908,8.47,3.64,5.04
13452.0,-8.674,1.79,-4.884,-8.832,2.254,-4.676,6.65,2.31,3.29
,-8.67,1.644,-4.434,-8.957,2.111,-4.649,10.01,1.89,3.57
,-8.763,1.924,-4.494,-8.983,1.883,-4.712,13.09,0.56,3.15
,-8.801,2.209,-4.475,-8.885,1.606,-4.621,14.0,0.0,1.89
13528.0,-8.854,1.249,-4.539,-8.54,1.689,-4.633,17.36,-1.96,2.24
,-8.457,1.077,-4.7,-9.048,2.144,-4.57,17.5,-2.66,3.29
,-8.057,1.213,-4.807,-9.232,2.197,-4.544,17.5,-2.66,3.99
,-8.043,1.323,-4.558,-9.079,1.63,-4.59,18.27,-1.75,3.92
13604.0,-8.76,1.173,-4.685,-8.928,1.73,-4.547,-4.27,-4.06,4.41
,-8.294,1.012,-4.884,-8.995,2.259,-4.609,-4.13,-4.27,5.95
,-8.155,1.022,-4.874,-8.849,2.436,-4.621,-0.56,-4.27,6.3
,-8.469,1.213,-4.736,-8.832,2.393,-4.702,4.76,-4.06,5.32
13680.0,-8.815,2.166,-4.535,-8.488,1.804,-4.635,2.52,-4.48,2.45
,-8.792,2.065,-4.535,-8.83,1.759,-4.755,0.91,-5.53,1.33
,-8.519,2.134,-4.659,-9.057,1.835,-4.726,-0.21,-6.02,-0.14
,-8.354,2.067,-4.669,-8.933,1.981,-4.867,-0.49,-5.53,-0.84
13756.0,-8.799,1.778,-4.657,-8.545,1.242,-4.659,5.46,-5.81,-3.85
,-9.064,1.45,-4.271,-8.89,1.206,-4.676,5.39,-6.37,-4.06
,-8.899,1.651,-4.594,-8.978,1.409,-4.757,4.55,-8.68,-3.78
,-8.579,1.622,-4.637,-8.983,1.539,-4.58,3.57,-9.45,-3.08
13832.0,-8.827,1.634,-4.52,-8.997,1.656,-4.123,10.22,-10.64,-2.52
,-8.717,1.766,-4.384,-8.894,1.622,-4.104,10.29,-10.01,-2.87
,-8.65,1.864,-4.269,-8.756,1.426,-4.054,9.45,-9.31,-3.22
,-8.847,1.747,-4.066,-8.899,1.467,-4.046,8.05,-9.31,-3.36
13908.0,-8.985,1.754,-3.972,-8.796,1.809,-3.977,9.17,-12.53,-2.94
,-9.005,1.89,-4.063,-8.847,1.788,-3.831,8.96,-13.16,-3.22
,-8.957,2.015,-4.03,-8.892,1.673,-3.807,8.54,-13.44,-4.27
,-8.856,1.969,-4.027,-9.028,1.709,-3.793,7.28,-13.51,-3.99
13984.0,-9.043,1.706,-3.857,-8.935,1.546,-3.642,9.24,-11.27,-6.16
,-9.045,1.711,-3.841,-8.863,1.594,-3.812,9.24,-11.34,-6.72
,-9.014,1.661,-3.776,-8.851,1.807,-3.915,9.1,-10.85,-7.7
,-8.949,1.567,-3.656,-8.849,1.515,-3.958,9.1,-10.5,-8.33
14060.0,-8.945,1.17,-3.814,-9.021,1.558,-4.558,2.03,-12.46,-7.35
,-9.179,0.967,-3.699,-9.115,1.508,-3.977,3.92,-12.32,-7.49
,-9.244,1.048,-3.527,-9.15,1.441,-3.69,6.16,-12.39,-8.26
,-9.191,1.273,-3.733,-9.105,1.18,-3.496,7.35,-12.53,-8.68
14136.0,-9.005,1.082,-3.558,-9.091,1.299,-3.606,9.66,-12.53,-8.54
,-8.952,1.251,-3.577,-9.074,1.378,-3.36,10.71,-12.95,-8.54
,-9.05,1.175,-3.659,-9.091,1.464,-3.288,12.18,-13.58,-8.05
,-9.17,1.189,-3.678,-9.115,1.498,-3.075,12.74,-14.0,-7.63
14212.0,-9.191,1.462,-3.159,-9.27,0.639,-2.929,6.72,-12.32,-9.52
,-9.395,1.237,-3.058,-9.048,0.68,-3.419,4.34,-12.32,-9.59
,-9.581,1.043,-2.96,-8.873,0.766,-3.446,3.36,-12.25,-9.94
,-9.521,0.842,-2.871,-8.926,0.675,-3.142,3.5,-11.76,-10.29
14288.0,-9.246,0.737,-2.955,-9.347,1.084,-2.596,8.68,-10.99,-8.47
,-9.375,0.797,-2.766,-9.39,0.907,-2.718,8.89,-10.08,-8.12
,-9.395,0.96,-2.74,-9.328,0.773,-2.481,7.98,-9.66,-8.33
,-9.323,1.146,-2.807,-9.404,0.677,-2.613,5.53,-9.73,-8.82
14364.0,-9.28,0.763,-2.374,-9.359,0.584,-2.587,1.33,-5.95,-8.89
,-9.301,0.725,-2.67,-9.474,0.682,-2.563,0.28,-5.6,-9.03
,-9.198,0.737,-2.536,-9.517,0.943,-2.654,-0.98,-5.04,-9.03
,-9.234,0.512,-2.572,-9.55,1.165,-2.97,-0.84,-4.27,-8.61
14440.0,-9.375,1.213,-3.013,-9.368,0.656,-2.903,-5.11,-2.38,-9.52
,-9.261,0.933,-2.972,-9.514,0.782,-3.367,-5.81,-1.82,-9.45
,-9.222,0.658,-2.871,-9.478,0.847,-3.589,-4.9,-1.19,-9.03
,-9.316,0.57,-2.886,-9.284,0.555,-3.62,-3.5,-0.91,-8.96
14516.0,-9.258,0.124,-3.372,-9.438,0.349,-2.623,-1.96,-2.66,-8.19
,-9.337,-0.112,-2.955,-9.409,0.278,-2.891,2.1,-2.45,-7.21
,-9.521,0.115,-3.053,-9.265,0.263,-2.917,4.55,-2.66,-6.93
,-9.476,0.371,-2.735,-9.134,0.189,-2.723,3.64,-2.8,-6.86
14592.0,-9.263,0.17,-2.694,-9.442,0.605,-2.773,5.95,-1.12,-3.85
,-9.485,0.287,-2.52,-9.359,0.414,-2.888,7.42,-0.84,-3.36
,-9.605,0.524,-2.615,-9.289,0.299,-2.984,7.28,-0.7,-3.5
,-9.569,0.658,-2.783,-9.361,0.273,-2.838,5.67,-0.56,-3.85
14668.0,-9.38,0.311,-2.575,-9.557,0.105,-2.254,4.48,1.4,-2.31
,-9.397,0.321,-2.285,-9.567,-0.024,-2.455,4.9,2.31,-1.68
,-9.442,0.395,-2.302,-9.526,-0.053,-2.474,3.78,3.15,-1.26
,-9.49,0.385,-2.242,-9.457,0.053,-2.489,1.89,3.78,-1.12
14744.0,-9.454,0.254,-2.522,-9.395,0.443,-3.441,1.4,7.42,1.19
,-9.521,0.507,-2.795,-9.335,0.371,-3.568,1.26,7.7,1.33
,-9.485,0.672,-3.139,-9.38,0.352,-3.489,0.07,7.14,1.05
,-9.462,0.651,-3.391,-9.323,0.469,-3.482,-0.7,6.86,0.84
14820.0,-9.411,0.543,-3.376,-9.359,0.589,-3.719,4.97,4.69,1.4
,-9.481,0.687,-3.498,-9.306,0.474,-3.582,4.55,3.99,1.12
,-9.45,0.708,-3.503,-9.328,0.321,-3.257,3.29,3.43,0.84
,-9.354,0.694,-3.676,-9.383,0.187,-3.056,2.38,2.66,0.7
14896.0,-9.552,0.139,-2.836,-9.447,0.474,-2.927,8.47,1.19,1.4
,-9.478,0.299,-2.716,-9.332,0.28,-2.874,9.66,1.26,1.68
,-9.49,0.514,-2.692,-9.392,0.318,-2.917,9.52,1.47,1.68
,-9.541,0.591,-2.831,-9.435,0.443,-2.982,7.63,1.47,1.33
14972.0,-9.399,0.632,-3.015,-9.404,0.361,-3.24,2.8,2.66,1.26
,-9.395,0.739,-3.075,-9.464,0.345,-3.135,1.4,2.66,1.19
,-9.368,0.663,-3.233,-9.462,0.426,-3.061,0.56,2.73,0.98
,-9.354,0.5,-3.242,-9.483,0.44,-3.032,0.84,2.45,0.98
15048.0,-9.447,0.526,-2.898,-9.387,0.447,-3.283,3.08,2.59,1.26
,-9.466,0.459,-3.025,-9.308,0.428,-3.314,2.24,2.31,1.12
,-9.476,0.495,-3.08,-9.304,0.469,-3.254,1.61,2.1,0.91
,-9.414,0.488,-3.206,-9.306,0.565,-3.204,1.47,2.24,0.98
15124.0,-9.414,0.615,-3.092,-9.359,0.373,-3.147,4.34,1.61,1.4
,-9.481,0.596,-3.149,-9.383,0.29,-3.135,3.57,1.47,1.19
,-9.442,0.601,-3.173,-9.349,0.256,-3.056,2.24,1.12,0.84
,-9.359,0.474,-3.118,-9.361,0.23,-2.962,1.26,1.4,0.91
15200.0,-9.49,0.318,-2.895,-9.44,0.512,-2.982,4.27,1.75,1.68
,-9.452,0.436,-2.857,-9.363,0.479,-3.084,4.34,1.96,1.68
,-9.45,0.574,-2.893,-9.335,0.541,-3.159,3.15,2.38,1.75
,-9.442,0.507,-2.934,-9.39,0.546,-3.13,1.75,2.45,1.61
15276.0,-9.387,0.593,-3.13,-9.373,0.586,-3.326,3.5,2.66,1.68
,-9.416,0.577,-3.223,-9.292,0.495,-3.307,3.43,2.66,1.54
,-9.433,0.637,-3.24,-9.328,0.385,-3.264,3.29,2.38,1.33
,-9.395,0.629,-3.326,-9.411,0.268,-3.209,2.66,2.17,1.26
15352.0,-9.418,0.38,-3.003,-9.392,0.548,-3.161,3.01,1.68,1.26
,-9.44,0.431,-3.046,-9.378,0.531,-3.199,3.5,1.96,1.54
,-9.445,0.579,-3.022,-9.435,0.38,-3.187,3.01,1.96,1.61
,-9.438,0.553,-3.084,-9.49,0.457,-3.235,2.1,1.89,1.54
15428.0,-9.442,0.505,-3.403,-9.356,0.565,-3.283,2.1,1.19,1.33
,-9.311,0.543,-3.269,-9.435,0.56,-3.175,2.38,1.12,1.4
,-9.325,0.517,-3.276,-9.428,0.584,-3.271,2.31,0.84,1.33
,-9.354,0.526,-3.329,-9.347,0.562,-3.238,2.38,0.7,1.33
15504.0,-9.328,0.503,-3.252,-9.383,0.412,-3.163,2.45,-0.42,1.19
,-9.301,0.486,-3.149,-9.385,0.373,-3.08,2.52,-0.56,1.19
,-9.404,0.493,-3.108,-9.39,0.345,-2.998,2.52,-0.7,1.26
,-9.378,0.51,-3.123,-9.452,0.467,-2.891,2.38,-0.56,1.4
15580.0,-9.435,0.601,-2.929,-9.39,0.424,-2.867,3.64,-0.35,1.96
,-9.418,0.603,-2.991,-9.34,0.687,-3.044,2.66,-0.35,1.96
,-9.349,0.579,-3.01,-9.316,0.536,-2.807,1.75,-0.21,1.89
,-9.38,0.476,-2.953,-9.349,0.395,-2.685,1.4,0.0,1.96
15656.0,-9.349,0.325,-2.544,-9.378,0.402,-2.793,0.7,1.75,3.08
,-9.351,0.402,-2.438,-9.373,0.335,-2.804,-0.21,2.52,3.22
,-9.361,0.44,-2.623,-9.332,0.266,-2.855,-0.91,2.94,3.36
,-9.366,0.436,-2.678,-9.263,0.309,-2.931,-1.82,3.22,3.5
15732.0,-9.294,0.266,-2.893,-9.407,0.704,-2.809,-2.73,5.6,5.74
,-9.287,0.196,-2.682,-9.332,0.735,-2.919,-1.54,6.37,6.65
,-9.363,0.321,-2.685,-9.361,0.589,-3.295,-0.28,6.65,7.49
,-9.471,0.5,-2.639,-9.237,0.457,-3.19,-0.7,6.79,7.77
15808.0,-9.232,0.385,-3.049,-9.586,1.106,-2.905,-4.13,8.19,8.26
,-9.306,0.359,-2.735,-9.347,1.359,-3.089,-3.64,8.61,8.82
,-9.438,0.342,-2.412,-9.098,1.17,-3.039,-3.08,9.1,9.45
,-9.605,0.641,-2.302,-9.11,0.778,-3.128,-3.5,9.31,9.52
15884.0,-9.258,0.634,-2.685,-9.21,1.496,-3.482,-12.74,11.27,8.68
,-9.416,0.842,-3.015,-9.189,1.232,-3.36,-9.45,11.83,8.75
,-9.311,1.249,-3.12,-9.153,0.974,-3.333,-8.96,11.41,7.84
,-9.206,1.496,-2.955,-9.229,0.9,-3.424,-8.61,11.2,6.86
15960.0,-9.294,0.847,-3.163,-9.359,0.823,-3.551,-9.45,11.27,5.88
,-9.124,1.062,-3.309,-9.421,0.914,-3.934,-10.36,11.76,5.74
,-9.174,0.905,-3.139,-9.399,1.201,-4.078,-10.85,12.53,5.95
,-9.344,0.78,-3.419,-9.318,1.359,-4.281,-10.01,12.46,6.51
16036.0,-9.045,1.543,-4.458,-9.447,1.146,-3.721,-4.06,9.73,6.79
,-8.808,1.419,-3.673,-9.356,0.96,-3.848,-3.22,10.92,5.74
,-8.957,1.218,-3.676,-9.141,0.467,-3.769,-3.29,10.78,4.69
,-9.234,1.271,-3.544,-9.134,0.132,-3.412,-5.11,9.8,3.78
16112.0,-9.165,0.282,-3.149,-9.131,1.254,-4.001,1.82,9.38,7.49
,-9.062,0.919,-3.381,-9.038,0.699,-3.903,6.58,8.68,7.7
,-8.923,1.441,-3.826,-8.983,0.603,-3.518,6.79,7.21,7.91
,-8.976,1.565,-4.173,-9.076,0.94,-3.63,3.78,5.88,8.26
16188.0,-9.306,1.4,-3.683,-9.239,1.388,-3.266,6.93,6.86,8.54
,-9.507,1.378,-3.518,-9.052,1.943,-3.472,4.9,7.28,9.17
,-9.493,1.182,-3.144,-8.868,2.364,-3.795,3.08,8.4,9.59
,-9.304,1.062,-2.927,-8.815,2.276,-3.905,3.36,9.66,9.31
16264.0,-8.916,1.74,-3.58,-9.129,1.505,-3.826,1.05,8.12,5.32
,-9.012,1.565,-3.412,-9.026,1.096,-3.972,1.26,8.89,4.41
,-9.052,1.728,-3.297,-8.938,0.45,-3.884,2.38,8.75,3.22
,-9.131,1.658,-3.441,-9.021,0.469,-3.783,1.96,8.47,3.08
16340.0,-9.055,0.871,-3.958,-8.938,1.577,-3.879,6.51,9.38,5.39
,-9.005,1.307,-4.063,-8.99,1.481,-3.764,6.44,8.61,5.25
,-8.825,1.61,-4.133,-9.148,1.261,-3.652,4.55,8.12,6.09
,-8.815,1.675,-4.135,-9.251,1.0,-3.51,3.08,9.03,6.72
16416.0,-9.162,0.921,-3.556,-8.904,1.735,-3.896,2.1,9.24,7.56
,-9.196,1.194,-3.69,-8.911,1.273,-3.965,5.53,8.89,7.42
,-9.076,1.591,-3.872,-8.918,1.029,-3.999,7.77,8.68,6.65
,-8.88,1.783,-3.776,-8.717,0.986,-4.178,7.35,9.24,6.09
16492.0,-8.83,1.271,-4.209,-9.098,2.249,-3.695,1.4,8.54,8.89
,-8.94,1.56,-4.156,-8.952,2.441,-3.764,4.13,9.03,7.56
,-9.055,1.855,-3.948,-8.772,2.654,-3.759,4.76,9.38,6.58
,-9.131,2.087,-3.707,-8.746,2.816,-3.752,3.64,9.59,6.37
16568.0,-8.782,3.022,-3.707,-8.492,2.783,-3.865,-4.06,9.73,0.91
,-8.88,2.941,-3.726,-8.626,2.051,-3.855,-4.69,10.29,-0.98
,-8.949,3.044,-3.853,-8.806,1.034,-3.989,-4.9,9.94,-2.87
,-8.684,3.092,-3.814,-8.961,0.081,-4.07,-5.46,10.64,-4.34
16644.0,-9.088,-0.452,-4.475,-8.603,0.366,-5.413,-6.86,10.92,-2.03
,-9.201,-0.584,-4.805,-8.378,0.282,-5.42,-1.33,10.43,-0.35
,-9.033,-0.366,-4.972,-8.495,-0.065,-5.08,4.34,10.01,0.77
,-8.899,0.053,-5.185,-8.839,0.129,-5.023,7.49,9.31,2.1
16720.0,-9.072,0.424,-4.841,-8.894,2.491,-4.018,4.97,3.92,13.65
,-9.021,1.043,-4.578,-8.801,2.91,-3.905,6.23,3.64,14.0
,-8.827,1.756,-4.666,-8.696,3.202,-4.015,7.77,4.13,14.07
,-8.957,2.063,-4.156,-8.301,3.336,-4.355,8.19,4.48,13.3
16796.0,-8.083,2.723,-4.451,-8.993,1.302,-4.056,4.34,4.69,7.14
,-8.334,1.914,-4.317,-9.131,1.448,-3.982,4.27,5.6,7.0
,-8.882,1.381,-4.247,-9.091,1.728,-4.2,5.67,5.39,6.65
,-9.074,1.235,-4.116,-8.646,1.852,-4.472,9.03,5.25,6.16
16872.0,-8.442,1.965,-4.42,-8.959,2.067,-4.25,3.99,5.46,8.12
,-8.406,1.84,-4.424,-8.748,2.084,-4.377,3.29,6.3,8.26
,-8.624,1.838,-4.219,-8.555,2.087,-4.434,3.43,6.79,7.21
,-9.024,1.95,-4.08,-8.256,2.134,-4.556,4.27,7.07,6.16
16948.0,-8.145,2.288,-4.726,-9.16,1.878,-4.874,5.46,6.72,5.39
,-8.397,2.412,-4.748,-9.194,1.524,-4.917,6.09,7.14,5.04
,-8.684,2.45,-4.831,-8.949,1.18,-4.879,6.02,6.93,4.48
,-8.916,2.264,-4.905,-8.744,1.228,-4.872,5.25,6.72,3.64
17024.0,-8.631,1.668,-4.999,-8.758,1.895,-4.987,6.79,3.22,2.45
,-8.507,1.922,-5.176,-8.756,2.051,-4.944,6.09,2.17,3.22
,-8.636,1.706,-5.051,-8.581,2.259,-4.996,4.06,1.96,3.85
,-8.753,1.716,-5.025,-8.586,2.398,-4.934,2.87,1.75,4.06
17100.0,-8.662,2.149,-4.48,-8.72,1.948,-4.537,2.38,2.73,2.73
,-8.509,2.381,-4.556,-8.732,1.931,-4.702,2.1,1.61,2.38
,-8.442,2.443,-4.58,-8.777,1.831,-4.817,1.26,1.26,1.82
,-8.605,2.197,-4.532,-8.619,1.878,-4.872,-0.91,0.98,1.26
17176.0,-8.76,2.017,-4.879,-8.765,2.094,-4.704,1.75,1.54,-0.7
,-8.909,2.139,-4.939,-8.672,2.123,-4.767,0.77,0.42,-1.4
,-8.756,2.201,-4.855,-8.536,1.967,-4.848,-0.07,-0.07,-2.24
,-8.72,2.249,-4.803,-8.536,1.833,-4.657,-0.56,-0.21,-2.73
17252.0,-8.734,1.95,-4.695,-8.713,1.292,-4.721,2.66,-1.19,-3.71
,-8.837,2.003,-4.834,-8.71,1.419,-4.748,2.8,-1.75,-4.48
,-8.763,1.73,-4.8,-8.693,1.598,-4.793,1.4,-1.96,-5.18
,-8.693,1.424,-4.716,-8.705,1.718,-4.757,-0.14,-2.45,-4.97
17328.0,-8.763,1.665,-4.683,-8.758,1.39,-4.302,-2.17,-5.81,-2.03
,-8.653,1.429,-4.594,-8.672,1.991,-4.432,-3.08,-5.81,-1.19
,-8.643,1.232,-4.468,-8.808,2.45,-4.305,-2.8,-5.46,-0.42
,-8.756,1.149,-4.36,-8.727,2.728,-4.465,-0.77,-5.74,-0.07
17404.0,-8.782,2.565,-4.515,-8.947,2.111,-4.561,1.68,-8.47,-2.8
,-8.696,2.199,-4.494,-9.012,2.084,-4.539,-0.07,-8.12,-3.01
,-8.808,1.929,-4.468,-9.103,1.917,-4.523,0.77,-7.77,-3.64
,-8.698,1.96,-4.434,-8.775,1.792,-4.645,2.73,-7.63,-4.83
17480.0,-8.643,1.491,-4.585,-8.696,1.575,-4.501,3.71,-10.29,-7.14
,-8.792,1.149,-4.561,-8.708,1.649,-4.36,3.08,-11.55,-6.86
,-8.83,1.225,-4.575,-8.751,1.594,-4.195,3.08,-12.74,-6.79
,-8.708,1.46,-4.592,-8.847,1.402,-4.094,3.43,-13.37,-6.44
17556.0,-8.971,1.271,-4.003,-9.007,1.857,-4.037,7.98,-11.41,-5.18
,-9.148,1.34,-3.965,-8.875,1.962,-4.152,9.94,-12.6,-5.11
,-9.11,1.606,-4.008,-8.65,1.649,-4.025,10.57,-13.79,-5.53
,-9.043,1.785,-3.944,-8.949,1.766,-4.061,10.43,-14.14,-6.02
17632.0,-8.775,1.649,-4.022,-8.94,1.531,-3.594,3.71,-16.03,-6.44
,-8.892,1.543,-3.917,-8.947,1.472,-3.628,2.94,-16.45,-6.58
,-9.012,1.433,-3.723,-9.038,1.637,-3.546,3.08,-16.38,-7.14
,-9.043,1.493,-3.697,-9.165,1.661,-3.611,3.57,-16.1,-7.56
17708.0,-9.112,1.519,-3.563,-9.057,1.443,-3.34,5.95,-14.14,-8.75
,-9.05,1.371,-3.364,-8.952,1.445,-3.333,6.02,-13.79,-8.96
,-9.105,1.304,-3.211,-8.868,1.199,-3.154,6.37,-13.37,-8.89
,-9.16,1.271,-3.288,-9.091,0.9,-3.032,6.37,-13.3,-9.24
17784.0,-9.162,1.113,-3.211,-9.208,1.316,-3.34,3.08,-13.37,-7.56
,-9.115,1.417,-3.252,-9.155,1.144,-3.238,2.66,-13.3,-8.19
,-9.136,1.493,-3.281,-9.153,1.036,-3.18,2.66,-13.37,-8.68
,-9.196,1.522,-3.396,-9.229,1.039,-3.185,2.03,-13.3,-9.03
17860.0,-9.347,1.11,-3.144,-9.201,1.218,-3.245,6.16,-10.92,-9.17
,-9.237,1.225,-3.348,-9.141,0.914,-3.142,7.63,-10.85,-8.75
,-9.198,1.369,-3.317,-9.117,0.462,-2.922,7.84,-10.99,-8.47
,-9.222,1.326,-3.25,-9.227,0.311,-2.84,6.72,-10.92,-8.82
17936.0,-9.366,0.507,-2.627,-9.136,1.017,-2.86,6.79,-9.24,-7.42
,-9.478,0.895,-2.927,-9.107,0.878,-2.522,7.98,-9.59,-7.14
,-9.452,1.161,-3.008,-9.198,0.811,-2.407,7.56,-9.31,-7.14
,-9.301,1.139,-2.96,-9.361,0.924,-2.589,6.44,-8.4,-7.07
18012.0,-9.459,1.055,-2.95,-9.447,1.242,-2.493,6.37,-6.3,-6.51
,-9.44,1.134,-2.924,-9.404,1.228,-2.503,5.39,-6.3,-6.72
,-9.301,0.972,-2.663,-9.423,0.885,-2.371,6.44,-5.39,-6.51
,-9.301,1.05,-2.587,-9.433,0.407,-2.481,7.21,-4.2,-7.0
18088.0,-9.411,0.22,-2.4,-9.347,0.668,-2.936,-2.38,-1.4,-7.28
,-9.397,0.199,-2.513,-9.304,0.72,-2.776,0.77,-0.63,-6.86
,-9.342,0.443,-2.675,-9.34,0.62,-3.025,2.52,-0.42,-6.51
,-9.359,0.603,-2.534,-9.34,0.78,-3.056,2.59,-0.14,-5.95
18164.0,-9.442,0.73,-3.214,-9.572,0.378,-2.56,1.61,0.35,-5.67
,-9.356,0.828,-3.108,-9.555,0.503,-2.659,0.63,0.35,-5.67
,-9.418,0.57,-2.888,-9.497,0.596,-2.661,-0.21,0.98,-5.18
,-9.493,0.306,-2.711,-9.411,0.579,-2.881,0.56,1.68,-4.55
18240.0,-9.423,0.608,-3.199,-9.423,0.72,-3.173,3.29,1.96,-3.36
,-9.313,0.715,-3.3,-9.385,0.653,-3.108,4.55,1.75,-3.5
,-9.292,0.821,-3.273,-9.411,0.677,-3.147,5.04,1.47,-3.64
,-9.39,0.778,-3.238,-9.462,0.613,-3.08,5.04,1.4,-3.57
18316.0,-9.411,0.505,-3.061,-9.325,0.546,-2.898,5.18,0.21,-3.57
,-9.421,0.426,-2.907,-9.308,0.486,-2.733,5.74,0.28,-3.36
,-9.469,0.505,-3.037,-9.385,0.462,-2.594,6.3,0.07,-3.29
,-9.39,0.577,-3.015,-9.361,0.426,-2.316,6.44,-0.21,-3.43
18392.0,-9.445,0.397,-2.3,-9.284,0.404,-3.345,6.72,2.1,-1.89
,-9.459,0.534,-2.611,-9.222,0.395,-3.443,5.88,2.52,-1.96
,-9.414,0.481,-2.687,-9.237,0.34,-3.23,5.32,2.66,-1.68
,-9.337,0.424,-3.099,-9.426,0.419,-3.099,5.39,2.8,-1.4
18468.0,-9.619,0.553,-2.943,-9.215,0.424,-3.568,10.71,2.59,0.07
,-9.636,0.725,-3.151,-9.332,0.246,-3.448,9.45,1.96,-0.14
,-9.605,0.83,-3.398,-9.454,0.275,-3.23,6.65,0.98,-0.98
,-9.34,0.684,-3.453,-9.43,0.388,-2.955,4.9,0.63,-1.4
18544.0,-9.533,0.412,-2.838,-9.308,0.311,-2.96,10.64,-0.56,0.14
,-9.533,0.471,-2.991,-9.268,0.067,-2.816,9.59,-0.91,-0.21
,-9.529,0.462,-2.95,-9.395,-0.045,-2.666,8.12,-1.26,-0.56
,-9.426,0.457,-2.948,-9.548,-0.034,-2.51,6.72,-1.19,-0.49
18620.0,-9.596,0.189,-2.577,-9.366,0.601,-2.881,8.75,0.63,1.54
,-9.552,0.431,-2.656,-9.426,0.534,-2.998,8.47,0.91,1.82
,-9.474,0.62,-2.833,-9.438,0.56,-3.02,7.07,1.12,1.75
,-9.356,0.653,-2.886,-9.452,0.598,-3.056,5.32,1.68,1.68
18696.0,-9.435,0.553,-3.123,-9.521,0.426,-2.927,2.8,1.47,1.19
,-9.363,0.371,-3.029,-9.529,0.469,-2.943,2.66,1.61,1.26
,-9.368,0.285,-2.991,-9.476,0.479,-2.962,3.08,1.89,1.54
,-9.474,0.366,-2.912,-9.476,0.567,-2.998,3.43,1.82,1.54
18772.0,-9.421,0.584,-3.094,-9.428,0.323,-2.97,1.89,1.54,1.26
,-9.397,0.682,-3.159,-9.505,0.354,-2.898,2.31,1.47,1.19
,-9.399,0.603,-3.135,-9.507,0.428,-2.893,2.17,1.26,1.05
,-9.392,0.404,-3.025,-9.529,0.471,-2.974,2.66,1.33,1.26
18848.0,-9.404,0.354,-2.948,-9.517,0.553,-2.946,0.98,1.54,1.33
,-9.356,0.244,-2.912,-9.457,0.543,-2.857,0.77,1.82,1.54
,-9.428,0.254,-2.903,-9.454,0.483,-2.907,1.75,1.89,1.68
,-9.464,0.354,-2.831,-9.509,0.495,-3.015,2.94,2.03,1.82
18924.0,-9.459,0.684,-3.209,-9.423,0.524,-3.266,2.73,1.75,1.4
,-9.356,0.706,-3.288,-9.454,0.687,-3.226,2.31,1.61,1.26
,-9.323,0.579,-3.352,-9.469,0.792,-3.132,2.03,1.4,1.33
,-9.342,0.474,-3.297,-9.44,0.625,-3.049,2.73,1.05,1.47
19000.0,-9.421,0.45,-2.931,-9.356,0.5,-2.962,2.59,-0.07,1.05
,-9.433,0.318,-2.907,-9.387,0.481,-2.931,2.59,-0.07,0.98
,-9.442,0.426,-2.948,-9.342,0.483,-2.821,2.73,-0.21,0.84
,-9.414,0.534,-3.013,-9.445,0.471,-2.761,2.45,-0.14,0.77
19076.0,-9.447,0.498,-2.742,-9.428,0.541,-2.994,2.24,1.05,1.4
,-9.459,0.428,-2.706,-9.409,0.546,-2.929,1.47,1.05,1.4
,-9.423,0.471,-2.649,-9.411,0.45,-2.895,1.05,1.26,1.47
,-9.43,0.519,-2.905,-9.464,0.486,-2.948,0.77,1.47,1.4
19152.0,-9.497,0.577,-3.053,-9.409,0.421,-3.128,0.77,1.4,1.47
,-9.435,0.608,-3.068,-9.426,0.522,-3.101,1.12,1.26,1.4
,-9.452,0.538,-3.151,-9.442,0.584,-3.077,1.19,1.12,1.47
,-9.387,0.407,-3.118,-9.459,0.634,-2.958,1.54,1.05,1.68
19228.0,-9.447,0.646,-2.929,-9.418,0.567,-2.986,2.45,0.63,1.89
,-9.481,0.613,-2.95,-9.378,0.567,-3.003,1.61,0.63,1.82
,-9.371,0.567,-2.879,-9.354,0.445,-2.946,1.05,0.63,1.75
,-9.459,0.598,-2.984,-9.385,0.397,-2.869,0.84,0.77,1.75
19304.0,-9.459,0.438,-2.773,-9.395,0.514,-2.855,0.42,0.98,1.96
,-9.454,0.476,-2.742,-9.452,0.503,-2.989,0.14,1.26,1.96
,-9.481,0.524,-2.735,-9.452,0.67,-3.053,-0.91,1.33,1.96
,-9.464,0.488,-2.804,-9.423,0.68,-3.113,-1.82,1.4,1.89
19380.0,-9.325,0.562,-3.025,-9.529,0.751,-2.606,-4.48,1.26,1.82
,-9.411,0.349,-2.879,-9.428,0.921,-2.625,-4.27,1.33,2.03
,-9.471,0.177,-2.682,-9.292,0.749,-2.539,-3.92,1.47,2.24
,-9.548,0.428,-2.536,-9.268,0.459,-2.448,-4.34,1.4,2.59
19456.0,-9.411,0.349,-2.45,-9.471,0.438,-2.266,-7.84,3.64,3.15
,-9.526,0.531,-2.321,-9.342,0.112,-2.247,-6.02,4.2,3.36
,-9.579,0.651,-2.381,-9.371,-0.026,-2.12,-5.25,4.62,3.5
,-9.6,0.593,-2.405,-9.552,0.256,-2.467,-5.74,5.18,3.92
19532.0,-9.497,0.835,-2.986,-9.375,0.613,-3.525,-1.96,8.26,6.02
,-9.371,1.194,-3.369,-9.28,0.335,-3.257,-4.2,7.91,5.53
,-9.249,1.015,-3.283,-9.399,0.33,-3.139,-8.33,7.91,5.6
,-9.368,0.771,-3.539,-9.497,0.629,-2.915,-10.5,7.7,5.6
19608.0,-9.505,0.938,-3.233,-9.215,1.139,-2.931,0.42,6.93,6.3
,-9.363,1.134,-3.137,-9.292,1.141,-2.577,-0.07,6.79,6.09
,-9.356,0.897,-3.192,-9.316,1.462,-2.929,-1.12,6.93,6.02
,-9.237,0.79,-2.905,-9.203,1.328,-3.089,-1.26,7.63,6.09
19684.0,-9.227,1.01,-3.609,-9.385,1.488,-3.369,-13.16,6.51,3.78
,-9.301,0.847,-3.824,-9.411,1.642,-3.264,-11.83,6.65,4.2
,-9.294,0.687,-3.477,-9.234,1.563,-3.07,-5.32,7.28,4.06
,-9.438,1.106,-3.539,-9.139,0.948,-3.049,1.26,7.42,3.92
19760.0,-9.201,0.644,-3.142,-9.418,0.639,-3.07,1.47,7.56,2.66
,-9.411,0.567,-3.29,-9.426,0.948,-3.039,5.18,7.07,2.8
,-9.359,0.498,-3.278,-9.521,0.938,-2.955,7.49,7.0,2.94
,-9.402,0.541,-3.137,-9.43,1.106,-3.262,8.05,7.63,3.15
19836.0,-9.194,1.046,-3.872,-9.201,0.627,-3.297,-8.19,5.67,3.78
,-8.964,0.931,-3.709,-9.397,0.656,-3.436,-8.96,5.81,3.99
,-9.048,0.73,-3.915,-9.328,0.261,-3.338,-6.72,6.02,4.06
,-9.019,0.68,-3.611,-9.373,-0.084,-2.881,-3.08,6.79,3.85
19912.0,-9.316,-0.172,-2.453,-9.055,1.749,-3.62,13.3,10.36,7.7
,-9.38,0.419,-2.489,-8.775,1.653,-3.467,17.64,10.29,8.4
,-9.351,1.35,-3.077,-8.787,1.61,-3.364,16.8,9.24,7.63
,-9.39,1.857,-3.565,-9.162,1.721,-3.297,10.99,8.12,7.14
19988.0,-9.512,1.795,-3.295,-9.127,0.263,-3.128,-0.49,9.94,3.85
,-9.421,1.51,-3.245,-9.196,0.316,-3.175,-3.29,10.57,3.57
,-9.115,0.718,-3.041,-9.253,0.452,-3.403,-4.06,11.9,4.13
,-9.117,0.22,-2.979,-9.208,0.718,-3.446,-0.91,12.32,4.83
20064.0,-9.299,1.015,-3.25,-8.997,1.766,-3.343,9.31,14.63,7.91
,-9.246,1.397,-3.34,-9.15,1.615,-3.326,8.54,15.19,7.7
,-9.048,1.737,-3.393,-9.191,1.505,-3.424,6.09,15.54,7.07
,-8.971,1.843,-3.307,-9.033,1.278,-3.778,3.01,16.17,7.0
20140.0,-9.002,0.895,-3.798,-9.088,1.417,-3.855,2.52,15.68,5.67
,-9.088,0.577,-3.917,-8.945,1.716,-4.161,5.46,15.68,6.23
,-9.191,0.589,-3.843,-8.961,1.721,-4.379,9.52,15.61,6.16
,-9.134,0.948,-3.853,-8.99,1.266,-4.597,13.09,15.61,5.88
20216.0,-8.906,1.094,-4.465,-8.734,1.163,-4.403,-4.06,14.14,5.81
,-8.985,1.173,-4.542,-8.837,0.995,-4.154,-2.45,13.37,5.46
,-8.961,1.242,-4.484,-8.978,0.986,-3.903,-1.4,12.25,5.25
,-8.894,1.385,-4.549,-9.119,1.173,-3.683,-0.77,11.41,5.25
20292.0,-9.17,1.517,-3.783,-9.019,1.924,-3.764,8.19,12.6,3.99
,-9.086,1.728,-3.903,-8.964,2.123,-3.9,6.79,12.04,3.99
,-9.014,1.761,-3.833,-8.705,2.075,-3.917,4.76,11.97,3.85
,-8.993,1.776,-3.738,-8.502,1.917,-4.034,4.27,12.32,3.15
20368.0,-8.492,1.484,-4.13,-8.837,0.101,-4.695,-3.71,10.71,2.59
,-8.681,1.0,-4.286,-8.78,-0.11,-4.63,-2.24,11.41,2.1
,-8.839,0.677,-4.508,-8.751,-0.007,-4.755,0.14,11.2,1.82
,-8.947,0.464,-4.664,-8.691,0.302,-4.788,2.59,10.92,2.38
20444.0,-8.667,0.653,-4.826,-8.679,1.924,-4.41,10.08,10.08,9.66
,-8.878,0.809,-4.527,-8.528,2.242,-4.666,10.43,10.64,10.22
,-8.961,1.165,-4.393,-8.528,2.166,-4.685,9.59,10.71,10.64
,-8.851,1.555,-4.3,-8.334,1.974,-4.511,9.1,9.94,11.06
20520.0,-8.562,1.847,-4.542,-8.923,1.433,-4.432,7.0,9.8,8.05
,-8.88,1.563,-4.515,-9.072,1.237,-4.348,7.91,9.66,7.07
,-9.098,1.517,-4.362,-8.981,1.419,-4.611,9.66,9.17,5.67
,-9.11,1.505,-4.312,-8.861,1.694,-4.69,10.85,8.96,4.62
20596.0,-8.44,2.101,-5.056,-8.643,-0.337,-5.106,11.48,6.72,2.1
,-8.263,2.233,-5.379,-9.296,-0.251,-5.051,8.54,5.46,2.1
,-8.086,1.385,-5.564,-9.524,0.242,-4.681,2.73,5.46,3.36
,-8.241,0.266,-5.353,-9.009,0.991,-4.659,-0.91,6.02,5.39
20672.0,-8.679,1.658,-4.671,-8.792,2.56,-4.312,10.29,0.84,7.91
,-8.27,2.065,-4.614,-8.586,2.458,-4.41,7.98,1.33,8.4
,-8.512,2.357,-4.453,-8.447,2.465,-4.511,5.88,1.61,7.28
,-8.775,2.57,-4.341,-8.471,2.17,-4.578,4.34,2.66,5.6
20748.0,-8.751,1.742,-4.417,-8.729,1.039,-4.824,1.89,4.13,0.63
,-8.947,1.594,-4.503,-8.536,0.998,-4.994,3.22,4.27,-0.35
,-9.079,1.352,-4.518,-8.442,0.979,-5.016,3.78,3.85,-0.21
,-8.997,1.17,-4.635,-8.471,1.137,-4.956,3.85,3.36,0.63
20824.0,-8.629,1.33,-4.853,-8.445,2.058,-4.793,4.83,3.15,3.78
,-8.758,1.773,-4.697,-8.598,1.821,-4.75,5.25,3.5,3.43
,-8.827,2.113,-4.681,-8.734,1.893,-4.714,3.71,2.8,3.01
,-8.545,2.257,-4.848,-8.674,1.998,-4.767,1.4,2.66,2.8
20900.0,-8.722,1.986,-4.855,-8.399,1.106,-5.095,3.57,4.83,0.42
,-8.827,1.811,-4.872,-8.667,0.928,-5.066,3.22,4.2,-0.21
,-8.772,1.515,-4.92,-8.916,0.928,-5.097,1.68,3.85,-0.28
,-8.521,1.342,-5.013,-8.811,0.919,-5.128,0.7,3.99,-0.21
20976.0,-8.758,1.048,-5.274,-8.681,1.608,-5.095,-0.07,1.89,2.59
,-8.717,1.082,-5.233,-8.705,1.594,-5.013,0.21,1.4,3.01
,-8.818,1.271,-5.19,-8.689,1.828,-4.999,0.14,0.07,3.36
,-8.72,1.455,-5.173,-8.569,2.01,-4.917,-0.28,-0.91,3.43
21052.0,-8.433,2.273,-4.882,-8.495,2.048,-4.573,0.77,-2.52,1.33
,-8.725,2.283,-4.783,-8.382,1.764,-4.769,0.07,-2.03,0.0
,-8.921,2.197,-4.666,-8.492,1.417,-4.721,-0.91,-1.89,-1.33
,-8.861,2.154,-4.566,-8.737,1.146,-4.764,-2.24,-2.52,-2.38
21128.0,-9.0,0.972,-4.764,-8.557,1.07,-5.042,0.0,-3.5,-3.36
,-8.911,0.981,-4.848,-8.607,1.146,-4.901,0.56,-4.62,-3.01
,-8.691,0.919,-5.092,-8.794,1.249,-4.769,0.35,-5.18,-2.45
,-8.521,0.938,-5.075,-8.818,1.493,-4.716,-0.07,-5.46,-1.05
21204.0,-8.705,1.682,-4.614,-8.789,2.077,-4.338,-1.68,-6.02,-0.35
,-8.727,1.857,-4.501,-8.861,2.056,-4.281,-0.42,-5.88,-0.7
,-8.804,2.012,-4.441,-8.906,2.041,-4.302,1.4,-6.09,-1.19
,-8.701,2.053,-4.212,-8.832,2.027,-4.367,3.22,-6.23,-2.03
21280.0,-8.792,1.962,-4.36,-8.71,1.192,-4.599,9.94,-7.7,-8.26
,-8.667,1.79,-4.499,-8.67,1.084,-4.585,8.47,-8.33,-8.68
,-8.727,1.455,-4.465,-8.801,1.048,-4.74,7.07,-9.03,-9.03
,-8.737,1.259,-4.549,-8.839,1.029,-4.616,5.81,-9.52,-8.47
21356.0,-8.973,0.962,-4.456,-8.748,1.443,-4.367,5.74,-11.34,-5.39
,-8.906,0.924,-4.377,-8.734,1.441,-4.288,5.67,-11.83,-4.62
,-8.89,1.101,-4.389,-8.849,1.345,-4.295,5.88,-12.74,-4.41
,-8.835,1.314,-4.324,-8.806,1.543,-4.281,5.67,-13.72,-4.27
21432.0,-8.911,1.213,-4.125,-8.784,1.778,-3.994,6.09,-13.02,-5.32
,-9.134,1.314,-4.046,-8.804,1.642,-3.936,9.8,-12.81,-5.39
,-8.926,1.376,-4.066,-8.878,1.527,-3.888,11.69,-12.81,-5.18
,-8.823,1.709,-3.996,-8.89,1.601,-4.176,12.25,-12.74,-5.6
21508.0,-9.009,1.251,-3.908,-8.954,1.036,-3.754,8.47,-12.95,-7.14
,-8.997,1.134,-3.793,-8.897,1.137,-3.683,9.24,-12.95,-7.0
,-9.074,1.058,-3.833,-8.916,1.11,-3.652,9.52,-13.44,-6.65
,-9.028,1.082,-3.762,-8.995,1.091,-3.616,9.31,-14.07,-6.23
21584.0,-9.158,0.991,-3.577,-9.117,0.739,-3.692,5.32,-13.93,-6.02
,-9.215,0.9,-3.522,-9.002,0.799,-3.666,4.83,-13.37,-5.67
,-9.21,0.905,-3.716,-8.839,0.964,-3.819,5.32,-12.67,-5.53
,-9.16,0.885,-3.723,-9.088,1.146,-3.687,6.79,-12.53,-5.95
21660.0,-9.198,1.335,-4.049,-9.22,1.113,-3.439,15.96,-12.6,-5.18
,-9.038,1.764,-3.568,-9.06,0.926,-3.369,13.79,-12.25,-5.74
,-9.282,1.579,-3.381,-9.136,0.701,-3.453,10.29,-12.18,-6.44
,-9.189,1.333,-3.534,-9.217,0.627,-3.381,5.74,-12.81,-7.21
21736.0,-9.239,0.768,-3.396,-9.249,1.173,-3.209,7.35,-12.11,-7.7
,-9.222,0.955,-3.099,-9.203,1.077,-3.087,9.45,-11.27,-7.42
,-9.251,1.125,-3.037,-9.282,0.754,-2.986,9.03,-10.92,-7.77
,-9.299,1.254,-2.912,-9.296,0.493,-3.072,7.7,-10.29,-8.47
21812.0,-9.284,0.538,-3.063,-9.273,0.457,-2.934,3.29,-8.82,-8.96
,-9.256,0.479,-3.166,-9.378,0.275,-2.793,3.57,-8.75,-9.17
,-9.213,0.452,-3.02,-9.416,0.311,-2.625,2.24,-8.82,-8.96
,-9.306,0.433,-3.135,-9.521,0.378,-2.498,0.07,-9.38,-8.61
21888.0,-9.485,0.586,-2.599,-9.191,0.692,-2.998,3.15,-5.53,-7.42
,-9.426,0.692,-2.989,-9.32,0.617,-2.931,3.01,-5.6,-7.56
,-9.222,0.83,-3.049,-9.423,0.625,-2.678,3.71,-5.88,-7.21
,-9.174,0.663,-3.123,-9.438,0.531,-2.544,4.69,-5.74,-6.79
21964.0,-9.462,0.486,-2.63,-9.421,0.474,-2.718,6.23,-3.15,-6.65
,-9.483,0.591,-2.85,-9.296,0.653,-2.69,4.27,-3.01,-6.93
,-9.447,0.62,-2.795,-9.392,0.593,-2.967,2.73,-2.94,-7.21
,-9.351,0.514,-2.615,-9.292,0.574,-3.02,1.12,-2.52,-7.28
22040.0,-9.323,0.345,-2.917,-9.71,0.483,-2.785,-0.35,-1.33,-7.21
,-9.318,0.23,-2.73,-9.588,0.57,-3.166,1.82,-0.49,-6.79
,-9.485,0.179,-2.565,-9.445,0.416,-3.391,3.71,0.42,-6.44
,-9.576,0.352,-2.582,-9.244,0.136,-3.532,4.13,0.7,-6.51
22116.0,-9.158,-0.062,-3.403,-9.564,0.031,-2.807,3.99,0.91,-5.95
,-9.201,-0.139,-3.283,-9.521,0.026,-2.592,7.21,1.26,-5.32
,-9.323,-0.246,-2.934,-9.454,0.069,-2.74,10.57,1.61,-4.41
,-9.548,-0.062,-2.943,-9.361,0.067,-2.553,13.3,1.33,-3.92
22192.0,-9.313,0.101,-2.465,-9.466,0.333,-3.041,12.53,3.08,-1.47
,-9.328,0.024,-2.192,-9.368,0.246,-3.049,10.99,3.99,-0.84
,-9.418,0.045,-2.261,-9.332,-0.041,-3.044,10.01,4.62,-0.42
,-9.488,0.22,-2.613,-9.318,-0.191,-3.063,8.75,4.9,-0.49
22268.0,-9.418,-0.189,-2.871,-9.32,0.33,-3.388,6.86,6.16,1.19
,-9.579,0.007,-3.032,-9.263,0.292,-3.544,7.35,5.74,1.19
,-9.572,0.385,-3.266,-9.261,0.27,-3.472,6.37,5.32,0.98
,-9.387,0.467,-3.372,-9.217,0.227,-3.36,3.92,4.9,0.42
22344.0,-9.34,0.16,-3.211,-9.608,-0.034,-2.9,4.9,3.78,1.4
,-9.464,0.002,-2.934,-9.543,0.132,-3.128,5.74,3.64,1.54
,-9.509,-0.014,-2.907,-9.43,0.187,-3.197,6.51,3.78,1.75
,-9.521,-0.101,-2.802,-9.325,0.313,-3.281,6.72,3.99,1.89
22420.0,-9.308,0.349,-3.386,-9.452,0.615,-3.544,3.85,3.78,1.82
,-9.284,0.376,-3.19,-9.287,0.543,-3.522,4.27,3.71,1.89
,-9.409,0.409,-3.238,-9.28,0.409,-3.498,4.76,3.57,1.96
,-9.462,0.517,-3.343,-9.294,0.074,-3.503,4.9,2.87,1.68
22496.0,-9.301,-0.041,-3.288,-9.435,0.258,-3.18,1.75,1.68,0.84
,-9.43,-0.108,-3.096,-9.34,0.369,-3.295,2.66,1.68,1.05
,-9.526,-0.045,-2.965,-9.294,0.168,-3.305,3.36,1.68,1.33
,-9.507,0.06,-3.065,-9.311,0.019,-3.262,3.36,1.54,1.4
22572.0,-9.361,-0.034,-3.077,-9.478,0.318,-3.266,4.2,1.54,2.24
,-9.43,0.172,-2.962,-9.325,0.328,-3.309,6.09,1.61,2.52
,-9.483,0.378,-3.063,-9.332,0.201,-3.453,5.67,1.54,2.24
,-9.493,0.409,-3.139,-9.311,0.179,-3.403,3.15,1.19,1.75
22648.0,-9.328,0.179,-3.173,-9.469,0.414,-2.867,3.43,0.7,1.75
,-9.478,0.28,-3.029,-9.399,0.388,-2.953,4.41,0.56,1.75
,-9.536,0.33,-2.831,-9.344,0.313,-3.056,4.27,0.77,1.82
,-9.416,0.404,-2.857,-9.342,0.187,-3.041,3.36,0.84,1.61
22724.0,-9.361,0.122,-3.044,-9.44,0.459,-3.137,0.91,2.17,1.33
,-9.318,0.146,-3.025,-9.351,0.443,-3.35,1.61,2.24,1.4
,-9.428,0.208,-2.958,-9.28,0.225,-3.441,1.89,2.52,1.54
,-9.435,0.349,-3.053,-9.292,0.06,-3.417,1.61,2.59,1.4
22800.0,-9.342,-0.05,-3.326,-9.426,0.488,-3.161,1.68,1.89,1.4
,-9.416,-0.012,-3.151,-9.33,0.361,-3.269,3.64,1.89,1.75
,-9.483,0.196,-3.075,-9.38,0.313,-3.352,4.69,1.82,1.96
,-9.476,0.424,-3.142,-9.33,0.311,-3.412,4.13,1.68,1.68
22876.0,-9.27,0.278,-3.324,-9.414,0.34,-3.082,2.66,1.05,1.4
,-9.342,0.273,-3.202,-9.421,0.256,-3.144,3.43,1.19,1.61
,-9.38,0.282,-3.135,-9.428,0.242,-3.218,3.92,1.12,1.75
,-9.399,0.325,-3.125,-9.397,0.29,-3.206,3.64,1.12,1.68
22952.0,-9.404,0.266,-3.247,-9.383,0.239,-3.309,0.98,1.12,1.54
,-9.385,0.311,-3.262,-9.344,0.23,-3.329,1.19,1.05,1.47
,-9.402,0.349,-3.276,-9.337,0.254,-3.324,1.4,0.84,1.26
,-9.421,0.364,-3.324,-9.328,0.316,-3.242,1.4,0.63,1.26
23028.0,-9.426,0.385,-3.23,-9.418,0.323,-3.029,3.01,-0.14,1.47
,-9.409,0.383,-3.128,-9.428,0.392,-3.159,2.8,-0.14,1.47
,-9.39,0.285,-3.101,-9.423,0.412,-3.118,2.73,-0.07,1.4
,-9.366,0.29,-3.12,-9.378,0.371,-3.149,2.94,-0.21,1.47
23104.0,-9.421,0.383,-3.154,-9.385,0.153,-3.159,2.52,-0.14,1.19
,-9.44,0.313,-3.12,-9.335,0.215,-3.168,2.38,0.07,1.33
,-9.39,0.251,-3.197,-9.337,0.239,-3.017,2.24,0.0,1.26
,-9.373,0.132,-3.147,-9.335,0.242,-2.965,2.52,0.0,1.4
23180.0,-9.445,0.213,-2.955,-9.383,0.455,-3.314,4.41,0.28,2.03
,-9.493,0.258,-2.843,-9.256,0.335,-3.307,4.34,0.84,2.17
,-9.533,0.325,-2.979,-9.342,0.223,-3.276,4.06,0.77,2.03
,-9.457,0.462,-3.221,-9.366,0.282,-3.171,3.36,0.7,1.89
23256.0,-9.462,0.392,-3.142,-9.43,0.567,-3.262,4.69,0.56,1.96
,-9.454,0.469,-3.113,-9.378,0.495,-3.204,3.85,0.35,1.61
,-9.483,0.507,-3.084,-9.371,0.402,-3.199,2.66,0.21,1.33
,-9.497,0.519,-3.171,-9.438,0.287,-3.137,1.61,0.14,1.12
23332.0,-9.385,0.292,-3.132,-9.435,0.256,-3.175,-1.33,-0.42,0.21
,-9.421,0.318,-3.027,-9.373,0.235,-3.147,-0.91,-0.42,0.35
,-9.402,0.318,-3.044,-9.368,0.215,-3.084,-0.77,-0.42,0.42
,-9.397,0.287,-3.001,-9.402,0.199,-3.106,-0.77,-0.49,0.35
23408.0,-9.402,0.282,-3.034,-9.39,0.503,-2.862,1.89,-0.63,1.12
,-9.43,0.316,-2.977,-9.428,0.526,-2.735,1.96,-0.56,1.33
,-9.414,0.373,-2.912,-9.469,0.347,-2.599,1.47,-0.28,1.26
,-9.38,0.438,-2.915,-9.459,0.191,-2.381,0.7,-0.28,1.19
23484.0,-9.45,0.029,-2.103,-9.395,0.069,-2.761,-0.91,2.66,2.24
,-9.529,0.01,-2.223,-9.241,0.086,-2.994,-1.19,3.5,2.66
,-9.478,0.05,-2.252,-9.134,-0.11,-2.742,-2.1,4.2,2.73
,-9.497,0.141,-2.498,-9.215,-0.12,-2.436,-3.22,4.97,2.87
23560.0,-9.433,0.218,-2.45,-9.021,-0.041,-3.214,-2.24,8.33,6.58
,-9.497,0.893,-3.008,-9.253,-0.464,-2.687,-5.67,7.84,5.95
,-9.124,1.132,-3.161,-9.478,-0.122,-2.998,-11.48,7.63,4.9
,-8.906,0.715,-3.281,-9.476,0.51,-3.003,-15.12,8.54,5.11
23636.0,-9.428,0.648,-2.922,-9.174,0.861,-3.223,-3.85,10.43,7.77
,-9.421,0.419,-2.312,-9.072,0.821,-3.64,-7.28,11.27,8.47
,-9.454,0.304,-1.948,-9.048,0.627,-4.286,-7.98,12.53,9.87
,-9.414,0.546,-2.706,-9.04,0.086,-3.451,-7.63,12.39,9.59
23712.0,-9.213,0.048,-3.625,-9.208,1.436,-3.247,2.31,13.02,11.13
,-9.316,0.538,-3.618,-9.21,0.969,-2.864,8.26,11.9,10.92
,-9.387,1.079,-3.482,-9.332,0.677,-3.379,7.77,10.71,9.59
,-9.308,1.57,-3.601,-9.471,0.814,-3.254,3.01,9.94,8.68
23788.0,-9.49,1.108,-3.898,-9.134,1.036,-3.671,0.98,10.5,6.02
,-9.208,1.141,-3.788,-9.337,1.307,-3.908,0.14,10.36,6.37
,-9.04,0.928,-3.587,-9.289,1.393,-4.302,0.91,11.27,7.49
,-9.005,0.749,-3.747,-9.15,0.936,-3.972,3.08,11.55,7.56
23864.0,-8.99,0.426,-3.534,-9.387,0.988,-3.877,-2.66,10.36,4.48
,-8.928,0.529,-3.613,-9.158,1.003,-3.647,-0.77,10.29,4.41
,-9.206,0.672,-3.628,-9.021,0.809,-3.553,0.0,9.45,3.78
,-9.392,0.78,-3.64,-8.971,0.785,-3.489,-1.19,8.75,3.99
23940.0,-9.086,0.754,-3.577,-9.179,1.424,-3.781,0.49,10.71,5.32
,-9.201,0.814,-3.666,-8.995,1.017,-3.599,1.68,10.08,4.9
,-9.263,1.015,-3.553,-8.959,0.553,-3.427,2.66,10.01,4.69
,-9.342,1.256,-3.829,-9.1,0.345,-3.369,4.41,9.8,4.62
24016.0,-9.268,0.239,-3.336,-8.887,1.084,-3.465,-0.42,12.04,5.04
,-9.277,0.285,-3.281,-9.002,1.139,-3.403,0.07,12.25,5.39
,-9.069,0.648,-3.19,-8.997,1.086,-3.4,0.63,12.46,6.16
,-8.909,1.022,-3.372,-8.871,1.173,-3.534,1.05,13.09,6.93
24092.0,-8.959,1.266,-3.563,-8.787,1.039,-4.006,1.82,16.52,7.98
,-8.957,1.527,-3.743,-8.815,0.715,-3.991,3.01,15.68,7.35
,-9.005,1.61,-3.987,-9.009,0.443,-4.051,2.8,15.12,6.3
,-8.856,1.333,-3.893,-9.136,0.553,-4.214,2.31,15.89,6.09
24168.0,-9.11,0.739,-4.343,-8.964,1.555,-4.377,6.79,14.84,7.14
,-8.698,1.101,-4.31,-8.957,1.737,-4.362,6.16,14.91,7.28
,-8.528,1.168,-4.214,-8.847,1.551,-4.329,3.64,15.68,7.42
,-8.753,1.309,-4.054,-8.782,1.101,-4.245,2.59,16.52,7.21
24244.0,-8.921,0.751,-4.078,-8.851,1.06,-4.346,-4.55,17.36,7.56
,-9.033,0.517,-4.209,-8.746,1.508,-4.367,-1.68,16.59,7.91
,-9.005,0.558,-4.355,-8.715,1.857,-4.355,2.24,15.96,7.91
,-9.05,0.706,-4.377,-8.765,2.13,-4.42,5.53,15.4,7.84
24320.0,-8.691,2.422,-4.558,-8.93,1.539,-4.403,1.12,14.91,5.18
,-8.559,2.379,-4.535,-8.945,1.328,-4.582,-2.38,15.4,4.55
,-8.796,2.127,-4.515,-8.662,0.945,-4.738,-4.97,15.68,3.64
,-8.914,1.85,-4.52,-8.299,0.459,-4.893,-6.02,15.26,2.52
24396.0,-8.16,-0.148,-5.016,-8.904,0.029,-5.561,0.63,14.98,4.83
,-8.447,-0.577,-5.071,-8.66,0.625,-5.662,4.06,14.77,6.65
,-8.851,-0.596,-5.355,-8.368,0.928,-5.554,8.4,13.23,8.05
,-9.148,-0.498,-5.363,-8.387,1.187,-5.489,11.2,11.55,9.24
24472.0,-8.447,1.304,-5.126,-8.38,2.008,-4.81,5.81,8.4,13.3
,-8.483,1.242,-5.092,-8.423,2.242,-4.776,3.57,8.05,13.79
,-8.746,1.297,-4.795,-8.629,2.376,-4.707,2.03,7.56,14.07
,-8.677,1.673,-4.867,-8.61,2.264,-4.685,2.1,6.65,13.86
24548.0,-8.638,2.362,-4.712,-8.193,1.713,-4.956,4.97,7.63,8.4
,-9.088,2.209,-4.582,-8.351,1.4,-4.98,4.69,7.28,6.79
,-8.813,2.223,-4.685,-8.686,1.158,-5.095,4.13,5.95,5.39
,-8.325,2.197,-4.85,-8.722,1.17,-5.145,3.29,5.6,4.55
24624.0,-8.715,1.235,-5.164,-8.461,1.534,-5.08,4.48,5.67,4.97
,-8.495,1.397,-5.154,-8.526,1.74,-5.063,5.11,5.6,5.32
,-8.349,1.539,-5.073,-8.631,2.003,-5.087,3.99,4.62,5.95
,-8.275,1.431,-5.063,-8.555,2.197,-5.075,3.15,4.27,6.37
24700.0,-8.433,2.242,-5.123,-8.741,1.771,-5.26,2.94,4.97,3.36
,-8.399,2.257,-5.229,-8.567,1.828,-5.398,2.17,4.76,2.66
,-8.382,2.06,-5.348,-8.387,1.601,-5.307,2.24,4.9,1.96
,-8.533,1.857,-5.343,-8.294,1.534,-5.274,2.59,5.04,1.68
24776.0,-8.265,1.522,-5.37,-8.588,1.634,-5.494,2.66,2.73,0.63
,-8.366,1.426,-5.374,-8.39,1.929,-5.382,2.31,2.52,0.77
,-8.538,1.347,-5.396,-8.315,1.89,-5.195,2.45,2.45,0.77
,-8.689,1.381,-5.353,-8.327,1.766,-5.023,2.73,2.17,0.91
24852.0,-8.452,1.668,-5.138,-8.337,1.677,-5.329,0.49,1.4,-0.42
,-8.634,1.63,-5.169,-8.521,1.634,-5.226,0.21,0.7,0.14
,-8.722,1.704,-5.195,-8.679,1.665,-5.173,0.14,-0.63,0.7
,-8.492,1.694,-5.231,-8.605,1.826,-5.171,-0.14,-1.47,0.42
24928.0,-8.464,1.878,-5.19,-8.538,1.653,-5.042,0.21,-3.64,-2.8
,-8.461,1.799,-5.118,-8.512,1.711,-4.977,0.49,-3.36,-3.71
,-8.61,1.625,-5.092,-8.485,1.716,-5.027,0.98,-3.22,-4.27
,-8.607,1.625,-5.099,-8.61,1.5,-4.898,2.17,-2.94,-4.2
25004.0,-8.617,1.474,-4.908,-8.478,1.407,-5.159,0.28,-6.02,-4.41
,-8.605,1.5,-4.965,-8.693,1.615,-5.181,-1.54,-6.51,-3.99
,-8.538,1.268,-5.013,-8.765,1.553,-4.989,-3.15,-7.07,-3.29
,-8.497,1.218,-5.032,-8.624,1.443,-5.006,-3.78,-7.42,-2.59
25080.0,-8.574,1.261,-4.903,-8.756,0.909,-4.877,-3.92,-9.17,-3.36
,-8.43,0.933,-4.97,-8.866,1.352,-4.999,-3.64,-9.52,-2.17
,-8.531,0.665,-5.011,-9.005,1.764,-5.099,-1.54,-9.66,-0.77
,-8.593,0.672,-4.925,-8.746,1.673,-4.965,2.45,-9.66,-0.14
25156.0,-8.495,1.653,-5.018,-8.839,1.582,-4.664,4.13,-11.48,-0.91
,-8.413,1.383,-5.013,-8.753,1.792,-4.645,2.24,-11.48,-0.35
,-8.571,1.204,-4.867,-8.82,1.778,-4.558,3.36,-11.55,-0.21
,-8.746,1.364,-4.776,-8.784,1.778,-4.59,6.58,-11.69,-0.98
25232.0,-8.696,1.771,-4.592,-8.847,2.118,-4.379,10.15,-11.76,-2.31
,-8.653,1.831,-4.566,-8.995,1.804,-4.255,11.2,-12.11,-2.94
,-8.655,1.924,-4.503,-8.959,1.618,-4.226,12.46,-12.39,-3.85
,-8.734,1.977,-4.231,-8.897,1.424,-4.355,12.39,-12.95,-4.9
25308.0,-8.679,1.381,-4.549,-8.737,1.192,-4.039,2.24,-15.05,-6.58
,-8.464,0.763,-4.379,-8.806,1.204,-3.948,3.64,-15.47,-6.72
,-8.77,0.845,-4.365,-8.942,1.206,-3.951,7.49,-15.61,-5.88
,-8.619,0.912,-4.305,-9.021,1.096,-3.841,9.87,-15.54,-5.53
25384.0,-9.045,0.89,-3.848,-8.827,1.419,-3.955,3.22,-16.17,-3.5
,-9.002,0.852,-3.929,-8.777,1.625,-3.987,3.85,-16.24,-3.36
,-8.926,1.041,-3.908,-8.825,1.606,-3.946,5.88,-16.31,-3.29
,-8.878,1.175,-3.932,-8.847,1.436,-3.826,7.7,-16.1,-3.36
25460.0,-8.866,1.352,-3.692,-9.11,1.503,-3.372,7.07,-15.33,-4.62
,-9.019,1.419,-3.695,-9.155,1.378,-3.348,7.84,-15.05,-5.04
,-9.15,1.457,-3.563,-9.146,1.335,-3.494,7.49,-14.91,-5.46
,-9.15,1.529,-3.616,-7.485,2.259,-5.638,6.09,-15.05,-5.74
25536.0,-8.911,1.575,-2.73,-8.916,1.182,-3.836,4.41,-15.47,-8.26
,-9.287,1.275,-3.467,-9.239,0.986,-3.709,3.99,-13.93,-8.4
,-8.902,1.182,-3.317,-9.296,0.847,-3.522,-1.05,-13.16,-9.03
,-8.815,0.986,-3.711,-9.299,0.656,-3.372,-0.56,-13.44,-9.17
25612.0,-9.229,0.467,-3.247,-9.067,0.637,-3.173,1.82,-11.34,-7.77
,-9.091,0.471,-3.099,-9.208,0.495,-3.061,2.1,-11.27,-7.49
,-9.105,0.625,-3.266,-9.179,0.445,-2.919,2.17,-11.55,-7.14
,-9.074,0.759,-3.321,-9.191,0.467,-2.635,2.38,-11.9,-6.86
25688.0,-9.167,0.751,-2.618,-9.371,0.936,-2.9,6.51,-8.4,-4.69
,-9.32,1.012,-2.539,-9.182,0.543,-2.917,6.16,-7.91,-4.76
,-9.399,1.225,-2.723,-9.143,0.488,-3.013,4.62,-7.56,-5.25
,-9.385,1.194,-2.742,-9.167,0.732,-2.891,1.33,-6.72,-5.46
25764.0,-9.342,1.029,-3.013,-9.206,0.56,-2.984,3.36,-4.13,-5.81
,-9.344,1.297,-3.025,-9.33,0.447,-2.685,0.98,-3.92,-6.3
,-9.261,1.096,-3.056,-9.543,0.589,-3.025,-2.31,-3.43,-6.44
,-9.16,0.725,-2.972,-9.533,0.794,-3.35,-4.27,-2.8,-6.09
25840.0,-9.335,0.732,-3.3,-9.318,0.847,-3.037,-1.47,-1.82,-5.88
,-9.222,0.397,-3.101,-9.316,0.785,-2.943,-0.21,-1.12,-4.83
,-9.294,0.323,-3.029,-9.387,0.452,-2.982,1.54,-0.42,-4.27
,-9.282,0.584,-2.989,-9.416,0.266,-2.958,2.45,-0.21,-4.48
25916.0,-9.354,0.378,-2.982,-9.268,1.036,-3.144,1.61,0.84,-3.43
,-9.361,0.723,-3.037,-9.246,0.761,-3.12,3.99,1.05,-3.15
,-9.359,1.065,-3.128,-9.366,0.677,-3.099,4.41,1.05,-3.22
,-9.294,1.278,-3.218,-9.385,0.56,-3.034,3.22,0.98,-3.78
25992.0,-9.39,0.625,-3.116,-9.318,0.39,-3.135,-0.28,1.47,-4.62
,-9.411,0.524,-3.161,-9.351,0.45,-3.142,-1.26,1.61,-4.48
,-9.316,0.469,-3.185,-9.433,0.481,-3.116,-1.82,1.75,-4.13
,-9.251,0.385,-3.163,-9.385,0.402,-3.233,-1.54,2.03,-3.85
26068.0,-9.306,0.459,-3.209,-9.237,0.61,-3.372,0.56,2.31,-2.45
,-9.287,0.424,-3.19,-9.263,0.546,-3.242,1.75,2.38,-1.96
,-9.342,0.596,-3.388,-9.316,0.455,-3.039,2.8,1.82,-1.89
,-9.263,0.682,-3.415,-9.325,0.445,-2.984,3.64,1.4,-2.03
26144.0,-9.349,0.373,-2.752,-9.253,0.491,-3.46,5.6,1.96,-1.05
,-9.447,0.397,-2.771,-9.239,0.342,-3.451,4.62,2.03,-1.05
,-9.445,0.452,-3.087,-9.258,0.189,-3.187,3.22,2.1,-1.26
,-9.347,0.581,-3.333,-9.349,0.146,-3.013,2.31,2.03,-1.33
26220.0,-9.399,0.225,-2.874,-9.258,0.562,-3.384,7.28,2.45,0.28
,-9.493,0.522,-2.915,-9.217,0.4,-3.324,8.05,2.73,0.42
,-9.478,0.704,-3.137,-9.284,0.333,-3.192,7.14,2.45,0.21
,-9.325,0.775,-3.307,-9.373,0.385,-2.982,5.46,2.66,0.07
26296.0,-9.464,0.359,-2.766,-9.27,0.696,-3.745,8.12,3.36,1.19
,-9.517,0.431,-2.816,-9.105,0.486,-3.781,7.42,3.5,1.12
,-9.495,0.591,-2.996,-9.201,0.395,-3.81,5.95,3.5,0.91
,-9.514,0.742,-3.46,-9.249,0.433,-3.606,4.13,3.43,0.49
26372.0,-9.251,0.589,-3.257,-9.33,0.407,-3.393,10.29,1.89,1.19
,-9.49,0.742,-3.216,-9.263,0.203,-3.441,9.38,1.75,0.91
,-9.485,0.739,-3.19,-9.246,0.124,-3.364,6.86,1.33,0.42
,-9.38,0.658,-3.34,-9.361,0.158,-3.173,4.27,1.19,0.07
26448.0,-9.457,0.335,-3.12,-9.306,0.443,-3.565,5.6,1.33,1.12
,-9.447,0.534,-3.061,-9.239,0.337,-3.537,4.83,1.47,1.26
,-9.438,0.61,-3.252,-9.304,0.376,-3.513,3.36,1.26,1.05
,-9.351,0.586,-3.408,-9.378,0.488,-3.431,1.96,1.26,0.91
26524.0,-9.402,0.529,-3.386,-9.347,0.627,-3.209,6.3,-0.07,1.47
,-9.356,0.603,-3.307,-9.34,0.486,-3.168,5.81,-0.14,1.4
,-9.344,0.632,-3.276,-9.371,0.352,-3.101,5.11,-0.35,1.26
,-9.342,0.677,-3.25,-9.354,0.4,-3.049,3.99,-0.42,1.05
26600.0,-9.371,0.471,-3.039,-9.335,0.476,-3.247,4.41,0.28,1.05
,-9.378,0.534,-3.087,-9.313,0.505,-3.29,3.99,0.21,0.91
,-9.404,0.57,-3.156,-9.342,0.481,-3.23,3.08,0.42,0.84
,-9.354,0.486,-3.178,-9.371,0.445,-3.192,2.31,0.77,0.98
26676.0,-9.409,0.474,-3.166,-9.361,0.395,-3.238,2.59,0.91,0.63
,-9.375,0.469,-3.238,-9.347,0.378,-3.178,2.17,0.84,0.7
,-9.366,0.469,-3.276,-9.399,0.443,-3.159,1.47,0.91,0.56
,-9.311,0.419,-3.226,-9.395,0.426,-3.061,1.54,1.12,0.63
26752.0,-9.38,0.495,-3.075,-9.32,0.452,-3.262,3.78,1.54,1.26
,-9.418,0.479,-3.108,-9.34,0.447,-3.238,3.71,1.68,1.33
,-9.426,0.495,-3.221,-9.371,0.421,-3.257,3.15,1.54,1.26
,-9.363,0.503,-3.238,-9.407,0.378,-3.175,2.52,1.75,1.26
26828.0,-9.392,0.462,-3.245,-9.313,0.56,-3.419,2.03,1.61,1.26
,-9.409,0.5,-3.391,-9.301,0.546,-3.35,1.96,1.26,1.12
,-9.318,0.641,-3.417,-9.373,0.495,-3.228,1.68,1.26,1.12
,-9.332,0.524,-3.443,-9.397,0.526,-3.183,1.61,0.98,1.19
26904.0,-9.378,0.507,-3.202,-9.38,0.345,-3.25,2.24,0.56,1.19
,-9.378,0.5,-3.221,-9.351,0.445,-3.24,2.17,0.63,1.19
,-9.347,0.459,-3.295,-9.318,0.469,-3.216,1.96,0.42,1.12
,-9.282,0.392,-3.238,-9.323,0.462,-3.113,2.38,0.35,1.12
26980.0,-9.354,0.519,-3.075,-9.311,0.462,-3.307,2.94,0.63,1.33
,-9.361,0.598,-3.13,-9.347,0.498,-3.247,2.38,0.56,1.19
,-9.38,0.558,-3.197,-9.366,0.512,-3.257,1.61,0.63,1.19
,-9.299,0.474,-3.166,-9.359,0.51,-3.161,1.19,0.7,1.19
27056.0,-9.32,0.512,-3.18,-9.378,0.5,-3.195,1.68,0.7,1.26
,-9.363,0.438,-3.13,-9.282,0.62,-3.259,1.54,0.7,1.33
,-9.363,0.376,-3.025,-9.304,0.639,-3.386,1.61,0.84,1.54
,-9.387,0.445,-2.938,-9.316,0.613,-3.336,1.54,1.12,1.61
27132.0,-9.304,0.5,-3.374,-9.399,0.584,-3.068,2.59,0.63,1.75
,-9.359,0.529,-3.281,-9.373,0.44,-2.965,3.43,0.77,1.89
,-9.361,0.629,-3.204,-9.294,0.244,-2.888,3.99,0.56,2.03
,-9.356,0.668,-3.039,-9.404,0.215,-2.8,3.85,0.7,2.03
27208.0,-9.433,0.33,-2.769,-9.261,0.704,-3.144,4.34,2.38,2.73
,-9.409,0.526,-2.836,-9.277,0.591,-3.223,4.48,2.66,2.87
,-9.385,0.713,-2.972,-9.294,0.538,-3.266,4.06,3.08,2.94
,-9.311,0.749,-3.082,-9.268,0.579,-3.271,3.15,3.22,2.94
27284.0,-9.234,0.711,-3.314,-9.392,0.402,-3.226,3.36,3.57,2.87
,-9.222,0.797,-3.336,-9.385,0.29,-3.025,3.15,3.29,2.59
,-9.232,0.833,-3.482,-9.447,0.388,-3.116,3.08,3.15,2.45
,-9.32,0.574,-3.307,-9.385,0.555,-3.056,0.91,3.29,2.52
27360.0,-9.301,0.579,-2.907,-9.237,0.596,-3.264,0.21,4.55,3.57
,-9.385,0.663,-3.111,-9.311,0.536,-3.092,-0.84,4.55,3.64
,-9.38,0.675,-3.271,-9.34,0.507,-2.833,-2.31,4.48,3.22
,-9.282,0.675,-3.302,-9.402,0.495,-2.86,-3.01,4.76,3.22
27436.0,-9.397,0.534,-2.826,-9.229,0.598,-2.977,-2.66,6.58,3.92
,-9.361,0.579,-2.84,-9.256,0.617,-3.092,-3.99,6.79,3.85
,-9.273,0.491,-2.735,-9.256,0.517,-3.015,-4.69,7.42,4.06
,-9.301,0.512,-2.919,-9.275,0.488,-2.986,-3.92,7.98,4.13
27512.0,-9.351,0.871,-3.063,-9.373,0.689,-3.589,-1.19,9.66,5.6
,-9.273,1.278,-3.345,-9.34,0.546,-3.479,-2.45,8.96,4.76
,-9.179,1.438,-3.522,-9.304,0.809,-3.448,-4.97,8.75,3.92
,-9.189,1.046,-3.587,-9.153,0.983,-3.348,-7.07,8.68,3.57
27588.0,-9.203,0.914,-3.254,-9.191,1.091,-3.53,-8.54,7.84,3.43
,-9.308,0.806,-3.139,-9.117,1.347,-4.295,-8.19,8.75,3.71
,-9.392,0.651,-3.156,-8.993,1.177,-4.697,-6.58,9.03,3.99
,-9.301,0.871,-3.242,-8.923,0.412,-4.202,-5.6,8.89,3.5
27664.0,-9.074,0.246,-3.934,-9.392,1.041,-3.817,-4.97,6.72,3.78
,-9.182,0.632,-3.829,-9.445,0.907,-3.967,-1.05,6.02,3.71
,-9.323,1.11,-3.999,-9.351,0.957,-3.812,0.49,4.69,2.94
,-9.347,1.271,-4.032,-9.256,0.787,-3.431,-0.98,3.78,2.8
27740.0,-9.033,0.979,-3.944,-9.232,-0.057,-3.417,-1.05,2.66,2.03
,-8.89,1.012,-4.125,-9.072,0.495,-3.044,-3.36,2.03,1.75
,-8.914,0.488,-4.111,-9.033,1.034,-3.084,-2.73,2.31,2.87
,-9.167,-0.117,-3.764,-9.15,1.295,-3.008,0.63,2.17,4.34
27816.0,-9.316,1.299,-3.058,-9.194,1.335,-3.793,4.06,3.92,5.74
,-9.182,1.06,-3.025,-9.191,1.225,-3.946,1.19,5.32,6.65
,-9.098,0.916,-3.216,-9.069,0.797,-3.793,0.28,5.95,7.0
,-9.074,1.17,-3.513,-8.969,0.371,-3.527,0.49,5.53,5.95
27892.0,-9.038,-0.053,-3.427,-9.244,0.902,-2.771,0.0,7.07,7.35
,-9.172,-0.069,-3.388,-9.103,1.232,-2.764,2.87,6.23,8.05
,-9.325,0.117,-3.214,-8.976,1.797,-3.149,6.23,6.02,8.96
,-9.354,0.483,-3.128,-8.906,1.955,-3.386,8.54,7.14,10.08
27968.0,-8.981,1.89,-3.685,-8.854,1.955,-3.817,-0.49,10.57,8.54
,-9.172,1.847,-3.726,-8.899,1.419,-3.786,-0.84,11.13,7.91
,-9.227,1.835,-3.441,-9.15,0.572,-3.752,1.89,12.32,6.37
,-9.026,1.955,-3.68,-9.203,0.235,-3.544,2.8,12.32,4.55
28044.0,-9.15,0.282,-3.35,-8.882,1.531,-3.656,5.6,14.56,5.32
,-8.909,0.921,-3.563,-9.069,1.529,-3.424,9.17,14.14,4.55
,-8.703,1.553,-3.699,-9.172,1.543,-3.453,9.52,13.65,4.27
,-8.744,1.773,-3.807,-9.189,1.56,-3.594,6.86,13.93,4.9
28120.0,-9.076,1.304,-3.711,-9.021,0.859,-4.097,-1.33,16.17,2.94
,-8.952,1.01,-3.764,-9.012,1.45,-4.259,-1.12,16.66,4.48
,-8.77,0.581,-3.788,-8.808,1.826,-4.568,0.56,17.5,6.09
,-8.928,0.56,-3.74,-8.715,1.67,-4.678,4.9,17.85,6.65
28196.0,-8.789,1.259,-4.649,-8.643,1.015,-4.752,1.33,16.87,4.69
,-9.095,0.909,-4.484,-8.617,0.759,-4.635,0.21,16.87,4.76
,-9.258,0.794,-4.527,-8.696,0.512,-4.47,0.07,15.89,4.9
,-8.954,0.981,-4.716,-8.918,0.574,-4.515,0.21,14.35,5.67
28272.0,-8.957,0.933,-4.661,-8.605,2.364,-4.245,4.41,12.67,8.54
,-8.89,1.496,-4.69,-8.674,2.326,-4.171,6.16,12.67,8.47
,-8.744,1.874,-4.657,-8.722,2.357,-4.42,7.07,13.3,7.35
,-8.717,2.209,-4.444,-8.543,2.077,-4.556,6.79,13.37,5.81
28348.0,-8.708,1.768,-4.386,-8.574,1.706,-4.64,-2.03,11.69,2.31
,-8.677,1.606,-4.463,-8.492,1.34,-4.69,1.19,12.88,0.63
,-8.717,1.608,-4.46,-8.569,0.948,-4.661,3.78,12.88,-0.77
,-8.689,1.771,-4.616,-8.722,0.785,-4.582,4.97,11.9,-1.05
28424.0,-8.722,0.79,-4.752,-8.545,1.17,-5.164,4.41,11.55,0.7
,-8.804,1.072,-4.843,-8.459,1.208,-5.212,5.18,10.08,1.26
,-8.643,1.161,-5.269,-8.485,1.041,-5.042,5.25,9.87,2.03
,-8.49,1.072,-5.157,-8.643,0.955,-5.018,4.34,10.01,2.52
28500.0,-8.741,1.0,-4.872,-8.638,1.503,-4.815,3.43,9.31,3.78
,-8.748,1.189,-4.819,-8.464,1.429,-4.867,5.39,9.1,3.64
,-8.708,1.369,-4.786,-8.423,1.548,-5.011,7.0,8.68,3.15
,-8.739,1.543,-4.764,-8.497,1.517,-5.207,7.49,8.05,2.66
28576.0,-8.576,1.29,-5.097,-8.55,1.077,-4.946,3.85,4.76,3.92
,-8.658,1.055,-5.059,-8.459,1.369,-5.121,3.85,4.76,4.2
,-8.595,0.924,-4.951,-8.516,1.462,-5.025,4.27,4.83,4.48
,-8.612,0.912,-4.855,-8.533,1.371,-4.956,4.83,4.83,4.83
28652.0,-8.344,1.371,-4.913,-8.624,2.245,-5.09,4.13,4.34,5.88
,-8.478,1.385,-4.946,-8.521,1.783,-5.061,5.32,4.9,5.74
,-8.636,1.783,-4.831,-8.471,1.62,-5.118,6.09,4.62,5.32
,-8.78,2.091,-4.968,-8.461,1.586,-5.236,5.74,3.92,4.97
28728.0,-8.528,1.57,-5.374,-8.325,1.321,-5.422,4.06,2.8,2.87
,-8.787,1.625,-5.398,-8.236,1.184,-5.475,3.99,2.52,2.38
,-8.856,1.63,-5.475,-8.38,1.053,-5.516,3.57,2.1,1.75
,-8.626,1.472,-5.494,-8.595,0.972,-5.528,2.45,1.82,1.75
28804.0,-8.677,0.993,-5.465,-8.413,1.565,-5.202,0.7,-0.56,5.04
,-8.758,1.323,-5.47,-8.607,1.405,-5.269,1.54,-0.98,5.46
,-8.603,1.594,-5.291,-8.77,1.225,-5.264,1.82,-1.54,5.32
,-8.334,1.661,-5.269,-8.698,1.235,-5.032,1.19,-1.89,5.25
28880.0,-8.591,1.737,-4.805,-8.703,2.592,-4.659,2.31,-3.29,6.16
,-8.44,2.498,-4.862,-8.701,2.204,-4.606,2.38,-4.27,5.32
,-8.363,2.996,-4.905,-8.684,1.989,-4.439,-0.7,-4.62,4.13
,-8.533,2.946,-4.877,-8.681,2.02,-4.568,-4.9,-4.06,3.01
28956.0,-8.526,2.017,-4.702,-8.739,1.333,-4.913,-5.6,-2.8,-3.78
,-8.533,2.06,-4.669,-8.775,1.058,-4.956,-4.06,-3.15,-3.78
,-8.485,2.01,-4.893,-8.567,0.885,-5.025,-3.57,-3.64,-4.13
,-8.593,1.63,-4.877,-8.44,0.955,-5.032,-4.13,-3.85,-4.76
29032.0,-8.502,1.417,-5.025,-8.734,1.232,-4.774,0.42,-5.32,-3.5
,-8.538,1.539,-5.027,-8.555,1.208,-4.779,-0.49,-5.53,-3.57
,-8.691,1.517,-4.97,-8.653,1.309,-4.762,-2.52,-4.97,-3.29
,-8.703,1.34,-4.92,-8.918,1.421,-4.635,-4.27,-4.69,-2.8
29108.0,-8.88,1.637,-4.815,-8.543,1.551,-4.944,2.03,-6.79,-3.64
,-8.636,1.627,-4.75,-8.772,1.565,-4.776,2.38,-6.58,-3.29
,-8.557,1.4,-4.683,-8.89,1.673,-4.752,2.38,-6.93,-2.38
,-8.392,1.359,-4.793,-8.887,1.776,-4.776,2.94,-7.77,-1.82
29184.0,-8.691,1.74,-4.645,-8.952,1.309,-4.503,3.64,-9.66,-4.2
,-8.674,1.673,-4.731,-9.002,1.481,-4.465,2.94,-9.8,-4.48
,-8.598,1.467,-4.721,-8.933,1.318,-4.436,3.15,-9.38,-4.76
,-8.775,1.314,-4.513,-8.957,1.153,-4.367,4.62,-9.1,-4.69
29260.0,-8.464,1.318,-4.647,-8.933,1.472,-4.322,6.72,-11.2,-4.06
,-8.198,1.115,-4.525,-8.947,1.804,-4.226,6.65,-11.27,-2.45
,-8.368,0.933,-4.444,-8.787,1.57,-4.156,6.93,-11.9,-1.19
,-8.777,1.18,-4.36,-9.014,1.57,-4.257,7.84,-12.11,-0.98
29336.0,-8.768,1.283,-4.195,-8.715,1.144,-3.934,6.51,-10.85,-2.24
,-8.799,1.007,-4.07,-8.878,1.232,-3.97,6.44,-11.06,-1.54
,-8.78,0.991,-4.001,-9.045,1.431,-3.874,6.16,-11.83,-0.91
,-8.681,1.177,-3.965,-8.976,1.419,-3.881,6.44,-12.32,-0.49
29411.0,-8.89,1.553,-3.891,-8.964,1.247,-3.549,4.62,-11.27,-0.77
,-8.78,1.68,-3.752,-9.002,1.12,-3.549,4.48,-10.15,-0.98
,-8.861,1.484,-3.563,-9.119,1.287,-3.685,3.85,-9.73,-1.05
,-8.868,1.429,-3.644,-9.112,1.546,-3.654,2.87,-9.59,-0.77
29486.0,-9.014,1.814,-3.702,-8.904,1.675,-3.886,9.1,-7.63,-3.01
,-8.902,1.888,-3.731,-8.928,1.742,-3.848,7.77,-6.93,-3.5
,-8.983,1.809,-3.86,-9.055,1.689,-3.821,5.74,-6.65,-3.78
,-8.844,1.764,-3.951,-9.22,1.5,-3.747,4.34,-6.16,-3.99
29561.0,-9.162,1.409,-3.807,-8.971,1.031,-3.841,0.07,-7.77,-7.77
,-8.978,1.256,-3.85,-9.103,1.053,-3.79,-1.33,-7.91,-7.56
,-8.897,1.079,-4.015,-9.174,1.034,-3.738,-1.68,-7.98,-7.56
,-8.911,1.082,-3.994,-9.253,0.739,-3.912,0.0,-7.7,-7.84
29636.0,-9.162,1.015,-4.125,-8.964,1.048,-3.819,0.98,-8.89,-5.74
,-8.902,1.117,-4.145,-9.014,0.986,-3.463,0.7,-9.45,-5.6
,-8.871,1.079,-4.056,-9.22,0.991,-3.496,1.12,-9.38,-5.81
,-9.012,1.024,-3.989,-9.289,1.24,-3.632,2.1,-9.1,-5.95
29711.0,-9.153,1.433,-3.649,-9.213,1.376,-2.9,4.06,-9.73,-6.16
,-9.007,1.429,-3.498,-9.217,1.448,-3.288,4.27,-9.24,-6.37
,-9.081,1.362,-3.199,-9.112,1.287,-3.494,4.55,-8.26,-6.58
,-9.237,1.302,-2.917,-9.055,0.926,-3.654,4.41,-7.14,-7.14
29786.0,-9.127,0.66,-3.561,-9.308,1.34,-3.252,0.0,-6.93,-7.35
,-9.203,0.651,-3.36,-9.33,1.017,-3.295,3.64,-6.23,-7.42
,-9.194,1.003,-3.206,-9.256,0.689,-3.278,5.6,-5.67,-7.49
,-9.227,1.414,-3.276,-9.112,0.567,-3.309,3.71,-6.02,-7.98
29861.0,-9.115,0.634,-3.326,-9.184,0.519,-2.682,-0.14,-5.18,-7.56
,-9.206,0.854,-3.199,-9.349,0.562,-2.912,1.54,-5.18,-7.56
,-9.206,0.895,-3.199,-9.268,0.849,-3.046,1.12,-5.04,-7.14
,-9.227,0.72,-3.087,-9.263,0.883,-3.424,-0.07,-4.48,-6.65
29936.0,-9.184,0.727,-3.288,-9.328,0.692,-2.982,-2.17,-3.71,-5.67
,-9.237,0.345,-3.12,-9.332,0.519,-2.845,-1.47,-3.22,-4.83
,-9.261,0.232,-2.955,-9.335,0.223,-2.742,0.35,-2.59,-4.41
,-9.258,0.33,-2.666,-9.411,0.242,-2.972,1.96,-2.17,-4.2
30011.0,-9.347,0.433,-3.065,-9.222,0.44,-3.135,2.17,0.0,-1.12
,-9.268,0.701,-3.238,-9.354,0.462,-3.072,4.13,0.07,-0.98
,-9.225,0.749,-3.319,-9.385,0.766,-3.23,4.34,0.0,-0.7
,-9.244,0.644,-3.211,-9.311,1.031,-3.415,4.69,0.49,-0.14
30086.0,-9.213,1.072,-3.475,-9.318,0.354,-2.955,5.81,0.0,0.28
,-9.148,1.012,-3.527,-9.373,0.397,-2.793,5.32,0.0,0.21
,-9.124,0.818,-3.415,-9.447,0.651,-2.845,5.18,0.07,0.21
,-9.213,0.55,-3.223,-9.423,0.933,-3.202,5.74,0.21,0.42
30161.0,-9.323,1.039,-3.398,-9.383,0.526,-2.934,7.28,0.7,0.84
,-9.253,0.909,-3.628,-9.495,0.794,-2.917,5.95,0.7,0.77
,-9.167,0.579,-3.53,-9.538,0.974,-3.063,6.02,0.84,0.91
,-9.261,0.447,-3.379,-9.337,1.048,-3.269,7.56,0.98,1.12
30236.0,-9.268,0.897,-3.283,-9.371,0.83,-3.149,2.73,1.4,0.35
,-9.208,0.704,-3.424,-9.296,0.828,-3.056,3.22,1.54,0.42
,-9.246,0.641,-3.245,-9.342,0.668,-2.953,4.83,1.61,0.49
,-9.325,0.766,-3.293,-9.363,0.577,-3.02,5.95,1.47,0.63
30311.0,-9.373,0.529,-2.943,-9.294,0.773,-3.503,1.89,2.87,0.7
,-9.397,0.469,-3.027,-9.263,0.849,-3.69,2.03,3.22,0.91
,-9.349,0.457,-3.101,-9.232,0.792,-3.699,2.59,3.5,1.26
,-9.311,0.558,-3.242,-9.256,0.739,-3.668,3.36,3.43,1.33
30386.0,-9.304,0.737,-3.506,-9.284,0.737,-3.326,5.88,2.03,1.54
,-9.38,0.763,-3.398,-9.284,0.548,-3.161,6.51,1.75,1.61
,-9.407,0.821,-3.29,-9.34,0.553,-3.142,6.16,1.47,1.4
,-9.351,0.804,-3.34,-9.347,0.577,-3.02,5.32,1.4,1.26
30461.0,-9.433,0.73,-3.037,-9.208,0.778,-3.585,5.81,2.45,1.47
,-9.442,0.883,-3.221,-9.308,0.763,-3.587,4.97,2.31,1.19
,-9.263,0.905,-3.345,-9.373,0.816,-3.587,4.13,2.38,0.98
,-9.198,0.897,-3.477,-9.325,0.773,-3.518,3.5,2.38,0.98
30536.0,-9.34,0.78,-3.451,-9.261,0.505,-3.171,5.18,1.12,0.77
,-9.306,0.742,-3.343,-9.328,0.457,-3.161,4.69,0.98,0.56
,-9.34,0.732,-3.379,-9.359,0.543,-3.142,3.99,1.12,0.35
,-9.301,0.689,-3.295,-9.402,0.625,-3.24,3.43,1.12,0.49
30611.0,-9.392,0.656,-3.185,-9.237,0.936,-3.594,5.88,1.89,1.33
,-9.311,0.684,-3.19,-9.249,0.852,-3.599,5.81,1.96,1.47
,-9.356,0.723,-3.412,-9.232,0.821,-3.513,5.53,1.82,1.33
,-9.265,0.857,-3.561,-9.258,0.847,-3.489,4.9,1.54,1.12
30686.0,-9.323,0.84,-3.36,-9.263,0.517,-3.075,3.15,0.7,0.14
,-9.351,0.835,-3.29,-9.328,0.431,-3.046,2.45,0.63,-0.07
,-9.301,0.739,-3.228,-9.368,0.526,-3.084,1.12,0.56,-0.21
,-9.301,0.579,-3.23,-9.318,0.672,-3.137,0.49,0.84,0.07
30761.0,-9.323,0.751,-3.235,-9.296,0.706,-3.393,0.84,1.96,0.56
,-9.311,0.723,-3.278,-9.304,0.747,-3.367,0.14,2.1,0.63
,-9.256,0.68,-3.381,-9.318,0.754,-3.396,0.0,2.24,0.7
,-9.304,0.68,-3.381,-9.275,0.759,-3.408,0.28,2.1,0.63
30836.0,-9.275,0.782,-3.448,-9.351,0.739,-3.276,0.49,1.47,0.42
,-9.292,0.713,-3.391,-9.349,0.694,-3.23,0.91,1.54,0.35
,-9.289,0.701,-3.381,-9.344,0.651,-3.218,0.98,1.4,0.28
,-9.354,0.725,-3.29,-9.328,0.66,-3.19,0.49,1.54,0.21
30911.0,-9.361,0.677,-3.195,-9.234,0.761,-3.604,1.12,1.75,0.63
,-9.328,0.814,-3.369,-9.253,0.732,-3.611,1.26,1.68,0.35
,-9.294,0.876,-3.472,-9.306,0.718,-3.551,0.49,1.68,0.21
,-9.299,0.816,-3.515,-9.328,0.708,-3.417,-0.63,1.75,0.14
30986.0,-9.323,0.727,-3.376,-9.316,0.68,-3.441,0.49,0.63,0.0
,-9.34,0.814,-3.374,-9.328,0.596,-3.434,0.63,0.28,-0.14
,-9.33,0.835,-3.379,-9.265,0.61,-3.398,0.21,0.35,-0.21
,-9.289,0.771,-3.393,-9.318,0.593,-3.388,-0.35,0.21,-0.28
31061.0,-9.275,0.581,-3.252,-9.316,0.735,-3.163,0.56,-0.35,-0.07
,-9.251,0.663,-3.214,-9.32,0.694,-3.142,1.26,-0.14,0.14
,-9.328,0.711,-3.24,-9.351,0.672,-3.25,1.4,-0.14,0.21
,-9.299,0.794,-3.214,-9.296,0.648,-3.269,1.33,-0.14,0.21
31136.0,-9.332,0.797,-3.367,-9.282,0.751,-3.429,-0.77,0.56,0.28
,-9.385,0.878,-3.513,-9.296,0.72,-3.443,-0.91,0.28,-0.14
,-9.294,0.897,-3.472,-9.332,0.696,-3.503,-1.61,-0.07,-0.35
,-9.356,0.864,-3.551,-9.368,0.799,-3.393,-1.89,-0.35,-0.35
31211.0,-9.342,0.725,-3.262,-9.292,0.692,-3.128,0.14,-1.12,-0.35
,-9.33,0.637,-3.262,-9.354,0.66,-3.185,0.14,-0.98,-0.28
,-9.363,0.586,-3.168,-9.387,0.651,-3.195,0.42,-1.05,-0.28
,-9.287,0.706,-3.123,-9.347,0.632,-3.132,0.28,-1.05,-0.35
31286.0,-9.246,0.637,-3.082,-9.378,0.79,-2.946,1.82,-0.49,0.14
,-9.275,0.637,-3.061,-9.397,0.797,-2.929,2.31,-0.28,0.28
,-9.253,0.613,-3.039,-9.337,0.732,-2.871,2.8,0.21,0.56
,-9.282,0.68,-2.922,-9.301,0.493,-2.733,3.22,0.42,0.7
31361.0,-9.349,0.309,-2.654,-9.284,1.065,-2.962,2.59,2.87,1.54
,-9.399,0.404,-2.615,-9.234,1.017,-3.372,4.27,3.78,1.89
,-9.402,0.73,-2.79,-9.239,0.9,-3.439,5.88,4.2,2.03
,-9.402,1.034,-2.903,-9.196,0.704,-3.546,6.37,4.62,2.03
31436.0,-9.275,0.517,-3.714,-9.33,0.505,-3.044,-0.21,4.27,0.98
,-9.261,0.526,-3.573,-9.485,0.735,-3.18,-1.05,3.99,0.77
,-9.261,0.572,-3.501,-9.529,0.847,-3.319,-1.68,3.92,1.05
,-9.301,0.581,-3.264,-9.395,0.639,-3.41,-2.59,4.06,1.54
31511.0,-9.277,0.447,-3.47,-9.246,1.161,-3.711,-1.47,3.5,2.31
,-9.284,0.474,-3.305,-9.119,1.067,-3.716,0.14,3.29,2.59
,-9.313,0.696,-3.391,-9.172,0.744,-3.738,1.82,3.01,2.38
,-9.316,1.005,-3.654,-9.22,0.364,-3.309,0.91,2.31,1.96
31586.0,-9.32,0.352,-2.862,-9.182,0.78,-3.07,0.28,0.84,2.1
,-9.442,0.603,-2.929,-9.11,0.778,-3.302,2.24,0.91,2.31
,-9.428,0.89,-2.718,-9.167,0.694,-3.185,1.75,1.05,2.1
,-9.201,1.029,-2.941,-9.253,0.998,-3.556,0.14,1.19,2.03
31661.0,-9.162,0.979,-3.159,-9.304,0.266,-3.273,-2.59,1.68,2.17
,-9.167,1.036,-3.453,-9.507,0.199,-3.216,-1.68,1.61,2.38
,-9.019,1.053,-3.735,-9.497,0.148,-3.202,-1.12,1.47,2.17
,-9.026,0.677,-3.388,-9.416,0.443,-3.391,-1.12,1.89,2.24
31736.0,-9.332,0.778,-3.623,-9.253,1.173,-2.879,1.54,2.17,4.62
,-9.282,0.928,-3.709,-9.275,1.414,-3.003,1.54,2.03,4.97
,-9.153,1.027,-3.486,-9.239,1.431,-2.977,4.97,2.45,5.25
,-9.194,0.94,-3.049,-9.11,1.067,-2.905,6.3,2.87,5.18
31811.0,-9.15,0.727,-2.618,-9.426,1.675,-3.477,3.85,4.48,3.99
,-9.471,0.668,-2.642,-8.983,1.201,-3.408,4.34,5.32,3.22
,-9.639,1.122,-2.994,-8.775,0.517,-3.24,2.66,5.25,1.82
,-9.6,1.553,-3.104,-9.062,0.17,-3.314,-0.7,5.39,1.19
31886.0,-9.44,0.132,-3.539,-9.012,0.893,-3.046,-4.83,4.48,2.17
,-9.452,0.275,-3.465,-9.127,0.945,-3.123,0.84,4.06,2.73
,-9.299,0.586,-3.465,-9.313,0.916,-2.929,5.18,5.18,3.99
,-9.115,0.828,-3.199,-9.356,1.115,-3.252,6.51,6.58,4.69
31961.0,-8.945,1.431,-3.388,-9.292,0.366,-3.867,-5.25,6.58,6.3
,-8.78,1.412,-3.795,-9.395,0.172,-3.642,-5.04,6.51,6.3
,-8.804,1.206,-4.025,-9.471,0.313,-3.465,-4.69,5.6,6.3
,-9.158,0.637,-3.845,-9.349,0.802,-3.58,-2.73,5.04,6.65
32036.0,-9.076,0.969,-3.568,-9.61,1.577,-2.879,8.89,6.72,7.84
,-9.107,0.876,-3.434,-9.201,1.689,-2.881,6.65,7.35,8.4
,-9.421,1.05,-3.128,-8.753,1.519,-2.905,4.13,8.12,8.33
,-9.715,1.153,-2.838,-8.691,1.23,-3.005,1.68,9.03,6.93
32111.0,-9.038,1.127,-3.025,-9.04,1.412,-3.63,-1.54,10.92,7.28
,-9.337,1.318,-3.202,-8.861,1.113,-3.62,2.38,10.71,6.37
,-9.471,1.517,-3.434,-8.94,0.948,-3.494,5.11,10.5,5.18
,-9.313,1.409,-3.427,-8.997,1.283,-3.477,5.53,11.13,4.27
32186.0,-8.753,1.639,-3.635,-9.337,-0.357,-3.472,-2.8,13.3,5.32
,-8.603,1.488,-3.678,-9.548,-0.517,-3.642,-6.93,14.56,5.53
,-8.686,0.885,-3.47,-9.402,-0.196,-3.843,-10.78,16.52,6.51
,-8.904,0.127,-3.475,-9.165,0.34,-3.872,-11.97,17.78,8.54
32261.0,-8.928,1.055,-3.896,-8.89,2.46,-3.723,17.92,15.26,14.49
,-8.763,1.685,-3.771,-8.952,2.077,-3.685,18.83,15.19,14.21
,-8.722,2.199,-3.917,-8.945,1.63,-3.611,16.31,14.98,13.65
,-8.885,2.572,-3.905,-8.935,1.326,-3.805,11.55,15.4,12.53
32336.0,-9.043,1.201,-3.833,-8.871,2.529,-4.386,3.5,18.13,11.76
,-9.038,1.153,-4.123,-8.756,2.95,-4.448,7.7,17.5,11.13
,-9.002,1.467,-4.384,-8.629,2.867,-4.379,11.97,16.73,9.87
,-9.014,1.957,-4.183,-8.567,2.769,-4.499,15.96,16.03,8.54
32411.0,-8.595,2.391,-4.269,-8.686,1.687,-4.652,4.41,16.45,1.26
,-8.918,2.027,-4.046,-8.595,1.091,-4.817,3.08,16.24,-0.49
,-9.012,2.106,-4.233,-8.732,0.474,-4.937,3.36,15.68,-2.38
,-8.796,2.091,-4.468,-8.871,0.325,-5.245,4.06,15.12,-3.64
32486.0,-8.775,0.443,-5.252,-9.136,0.893,-4.965,13.79,11.27,-1.05
,-8.65,0.495,-5.324,-9.11,1.307,-4.908,15.61,10.71,-0.21
,-8.823,0.428,-5.018,-8.871,1.907,-4.922,15.19,10.64,0.28
,-8.892,0.512,-5.011,-8.588,2.17,-5.135,13.93,10.43,0.49
32561.0,-8.131,2.111,-5.138,-8.77,1.103,-4.805,3.08,7.49,1.68
,-8.021,1.661,-4.893,-8.921,0.759,-4.769,1.75,7.7,1.75
,-8.464,1.397,-4.736,-9.153,0.56,-4.621,2.45,7.14,1.47
,-8.681,1.359,-4.853,-9.026,0.514,-4.506,4.2,6.16,1.05
32636.0,-8.741,0.976,-4.647,-8.753,1.182,-4.874,12.74,4.76,2.45
,-8.684,1.441,-4.841,-8.672,0.909,-4.523,13.51,4.69,2.1
,-8.765,1.634,-4.922,-8.478,0.833,-4.618,12.6,4.06,1.75
,-8.823,1.577,-4.972,-8.409,1.055,-4.614,11.2,4.06,1.47
32711.0,-8.442,1.505,-4.752,-8.839,1.929,-4.59,7.35,4.27,4.76
,-8.619,1.637,-4.716,-9.076,1.965,-4.625,7.21,4.41,4.48
,-8.528,1.665,-4.568,-9.117,1.737,-4.52,6.51,4.55,4.27
,-8.425,1.74,-4.48,-8.691,1.773,-4.618,6.37,4.83,4.13
32786.0,-8.392,1.821,-4.74,-8.768,1.316,-4.996,4.69,5.25,-0.35
,-8.543,1.74,-4.692,-8.768,1.287,-5.109,3.64,5.32,-0.42
,-8.478,1.553,-4.893,-8.509,1.299,-5.171,2.17,5.6,-0.21
,-8.655,1.309,-4.972,-8.416,1.302,-5.205,1.61,6.09,0.14
32861.0,-8.437,1.129,-5.286,-8.804,0.936,-5.14,-1.96,5.39,0.91
,-8.48,0.809,-5.229,-8.679,1.134,-5.085,-2.94,5.25,1.4
,-8.624,0.804,-5.288,-8.528,1.457,-5.061,-2.52,4.97,2.1
,-8.725,0.811,-5.229,-8.526,1.598,-5.051,-1.82,4.62,2.87
32936.0,-8.636,1.778,-5.068,-8.619,1.385,-4.688,-2.87,2.66,3.36
,-8.646,1.704,-5.044,-8.717,1.615,-4.915,-4.06,2.45,3.29
,-8.528,1.61,-4.999,-8.729,1.663,-4.98,-5.18,2.59,3.29
,-8.595,1.46,-4.721,-8.677,1.493,-4.927,-5.6,2.8,3.22
33011.0,-8.622,1.39,-4.941,-8.758,0.816,-4.975,-4.55,1.82,1.96
,-8.531,1.003,-4.886,-8.717,1.034,-5.102,-4.97,1.96,2.38
,-8.531,0.778,-4.822,-8.531,1.352,-5.205,-5.11,1.89,2.87
,-8.586,0.744,-4.953,-8.478,1.402,-5.214,-3.92,1.61,3.78
33086.0,-8.634,1.508,-5.176,-8.581,1.993,-5.164,-3.22,-1.26,5.67
,-8.674,1.553,-5.128,-8.454,1.95,-5.178,-3.71,-1.19,5.25
,-8.689,1.61,-4.96,-8.378,1.764,-5.08,-4.41,-1.54,5.11
,-8.689,1.79,-4.968,-8.411,1.706,-4.996,-4.55,-2.66,4.48
33161.0,-8.559,1.625,-5.047,-8.832,1.534,-4.903,-1.33,-4.69,2.24
,-8.693,1.637,-4.87,-8.789,1.558,-4.661,-0.28,-5.46,1.61
,-8.727,1.639,-4.937,-8.607,1.692,-4.704,0.0,-5.88,0.84
,-8.746,1.618,-4.989,-8.406,1.883,-4.752,0.0,-5.74,0.28
33236.0,-8.179,1.79,-4.59,-9.112,1.759,-4.523,-0.14,-7.56,0.42
,-8.466,1.759,-4.822,-8.873,1.926,-4.614,-0.07,-7.35,0.56
,-8.825,1.567,-4.592,-8.643,1.922,-4.602,0.98,-7.14,-0.21
,-9.024,1.505,-4.518,-8.55,1.816,-4.511,1.89,-7.28,-1.61
33311.0,-8.715,1.754,-4.523,-8.784,1.713,-4.448,7.77,-5.95,-4.41
,-8.655,1.814,-4.408,-8.808,1.644,-4.542,7.98,-6.02,-5.46
,-8.653,1.778,-4.314,-8.629,1.565,-4.683,7.07,-6.09,-5.74
,-8.732,1.586,-4.302,-8.655,1.522,-4.633,5.88,-6.23,-5.81
33386.0,-8.55,1.45,-4.592,-8.952,1.57,-4.235,5.25,-9.17,-5.81
,-8.61,1.615,-4.503,-8.71,1.369,-4.295,5.74,-8.89,-6.37
,-8.732,1.826,-4.424,-8.679,1.184,-4.312,5.11,-8.33,-6.79
,-8.784,1.5,-4.35,-8.758,0.909,-4.29,3.43,-8.75,-7.35
33461.0,-8.823,0.967,-4.298,-8.923,1.031,-4.087,2.1,-10.64,-5.67
,-8.768,1.094,-4.298,-8.945,0.948,-4.013,4.55,-10.29,-5.53
,-8.737,1.149,-4.176,-9.005,0.981,-4.078,5.95,-9.45,-5.6
,-8.804,1.168,-4.161,-8.83,1.22,-4.207,6.51,-8.68,-5.53
33536.0,-8.689,1.283,-4.125,-9.012,1.328,-4.082,7.0,-10.64,-2.45
,-8.662,1.144,-4.039,-9.04,1.527,-4.13,7.0,-10.29,-2.17
,-8.815,1.129,-4.042,-9.019,1.594,-4.243,7.77,-9.87,-2.1
,-8.911,1.247,-3.944,-8.756,1.639,-4.355,8.26,-9.59,-2.38
33611.0,-8.622,1.5,-4.154,-9.232,1.397,-3.85,6.79,-9.17,-3.36
,-8.715,1.314,-3.984,-9.16,1.242,-3.743,7.7,-9.03,-3.64
,-8.99,1.285,-3.855,-8.926,1.082,-3.752,9.03,-8.68,-3.85
,-9.246,1.362,-3.838,-8.859,0.895,-3.817,10.15,-8.68,-4.06
33686.0,-8.933,0.854,-3.754,-9.005,1.591,-3.936,10.29,-6.93,-4.06
,-8.949,0.895,-3.577,-8.928,1.594,-4.032,11.69,-6.44,-3.01
,-9.191,1.01,-3.74,-8.801,1.625,-3.996,12.6,-6.37,-2.59
,-9.127,1.328,-3.817,-8.811,1.539,-3.795,12.88,-6.79,-2.8
33761.0,-8.99,1.464,-3.613,-9.191,0.799,-3.661,7.21,-7.07,-5.11
,-9.129,1.445,-3.503,-9.179,0.572,-3.8,5.6,-7.21,-5.6
,-9.196,1.309,-3.745,-9.103,0.625,-3.609,2.94,-7.84,-6.44
,-9.186,1.161,-3.845,-9.05,0.811,-3.69,0.77,-8.4,-6.79
33836.0,-9.0,1.151,-3.819,-9.06,0.469,-3.434,4.62,-7.63,-5.95
,-8.978,1.251,-3.721,-9.043,0.457,-3.317,2.8,-7.84,-6.02
,-9.115,1.149,-3.999,-9.182,0.625,-3.324,0.7,-8.12,-6.3
,-9.107,0.818,-3.79,-9.134,1.053,-3.345,-0.42,-8.05,-6.16
33911.0,-9.079,1.295,-3.556,-9.072,0.505,-3.135,4.9,-7.42,-5.18
,-9.215,1.206,-3.778,-9.112,0.61,-3.056,3.29,-7.7,-5.6
,-9.203,1.125,-3.771,-9.237,0.995,-3.202,2.66,-7.7,-6.16
,-9.072,0.715,-3.489,-9.232,1.206,-3.376,3.29,-6.86,-5.74
33986.0,-9.201,0.948,-3.396,-9.232,0.909,-3.429,0.21,-6.3,-6.3
,-9.165,0.596,-3.305,-9.316,0.835,-3.295,-0.28,-5.32,-5.53
,-9.191,0.426,-3.305,-9.313,0.584,-3.475,2.17,-4.55,-4.9
,-9.217,0.648,-3.355,-9.292,0.543,-3.601,4.62,-4.55,-4.97
34061.0,-9.234,0.589,-3.644,-9.136,0.5,-3.793,3.71,-5.18,-4.48
,-9.179,0.715,-3.821,-9.215,0.376,-3.427,4.48,-5.39,-4.62
,-9.194,0.897,-4.08,-9.328,0.414,-3.384,3.92,-5.88,-4.69
,-9.177,0.735,-3.874,-9.342,0.615,-3.396,3.43,-6.16,-4.62
34136.0,-9.253,0.486,-3.18,-9.308,0.672,-3.13,6.09,-7.0,-3.43
,-9.282,0.141,-3.113,-9.253,0.881,-3.108,5.46,-6.44,-2.73
,-9.337,0.043,-3.02,-9.251,0.711,-2.881,6.79,-6.16,-2.03
,-9.368,0.27,-3.075,-9.337,0.562,-2.783,8.4,-6.23,-1.75
34211.0,-9.383,0.574,-2.781,-9.249,0.452,-2.28,5.81,-3.85,-1.54
,-9.332,0.61,-2.754,-9.435,0.51,-2.335,6.3,-3.29,-1.4
,-9.33,0.613,-2.644,-9.514,0.713,-2.477,6.37,-2.52,-1.19
,-9.253,0.491,-2.481,-9.452,0.706,-2.716,6.3,-1.33,-0.91
34286.0,-9.299,0.651,-2.874,-9.354,0.529,-3.087,-0.21,2.87,-0.98
,-9.208,0.622,-3.099,-9.474,0.572,-3.123,-0.56,3.43,-0.77
,-9.261,0.627,-3.266,-9.497,0.723,-3.297,0.7,3.78,-0.63
,-9.292,0.522,-3.099,-9.385,0.94,-3.656,1.89,3.99,-0.35
34361.0,-9.225,0.948,-3.939,-9.399,0.452,-3.489,-1.33,2.8,-1.4
,-9.174,0.761,-4.085,-9.435,0.536,-3.24,-1.33,2.45,-1.4
,-9.196,0.507,-4.066,-9.383,0.562,-2.967,0.63,1.96,-1.12
,-9.265,0.34,-3.671,-9.395,0.507,-2.991,3.36,1.4,-0.98
34436.0,-9.375,0.505,-3.089,-9.15,0.146,-3.233,3.01,1.12,-0.56
,-9.277,0.538,-3.24,-9.287,0.263,-3.235,2.38,1.05,-0.63
,-9.234,0.412,-3.386,-9.361,0.447,-3.202,2.38,1.26,-0.21
,-9.203,0.249,-3.384,-9.373,0.589,-3.273,3.64,1.4,0.21
34511.0,-9.356,0.584,-3.29,-9.268,0.615,-3.556,5.81,1.47,1.33
,-9.351,0.596,-3.419,-9.304,0.694,-3.589,4.76,1.12,1.12
,-9.354,0.574,-3.537,-9.313,0.677,-3.518,4.2,0.84,1.05
,-9.239,0.627,-3.582,-9.342,0.701,-3.539,4.9,0.56,1.05
34586.0,-9.284,0.787,-3.489,-9.392,0.483,-3.017,5.74,-1.05,0.63
,-9.253,0.677,-3.319,-9.414,0.436,-2.97,5.46,-0.98,0.56
,-9.296,0.574,-3.144,-9.452,0.323,-3.005,5.04,-0.91,0.49
,-9.323,0.505,-3.027,-9.395,0.246,-3.025,5.18,-0.56,0.63
34661.0,-9.378,0.239,-3.049,-9.313,0.467,-3.209,3.71,0.7,1.05
,-9.368,0.445,-3.159,-9.385,0.491,-3.221,4.2,0.77,1.05
,-9.328,0.538,-3.156,-9.385,0.625,-3.331,3.71,0.91,1.05
,-9.301,0.493,-3.178,-9.325,0.701,-3.326,2.94,1.12,1.26
34736.0,-9.356,0.579,-3.247,-9.387,0.546,-3.034,3.85,1.26,1.33
,-9.311,0.529,-3.173,-9.438,0.526,-3.022,4.06,1.4,1.26
,-9.359,0.541,-3.108,-9.342,0.491,-3.072,4.27,1.33,1.19
,-9.368,0.565,-2.991,-9.407,0.507,-3.214,4.06,1.89,1.12
34811.0,-9.359,0.479,-3.269,-9.34,0.663,-3.36,2.52,2.52,1.05
,-9.332,0.503,-3.245,-9.296,0.627,-3.364,2.8,2.59,1.33
,-9.371,0.541,-3.242,-9.296,0.567,-3.403,2.94,2.8,1.4
,-9.414,0.572,-3.264,-9.263,0.488,-3.412,2.73,2.59,1.4
34886.0,-9.251,0.486,-3.424,-9.378,0.572,-3.23,1.12,2.03,1.19
,-9.268,0.491,-3.317,-9.375,0.553,-3.336,1.82,2.03,1.33
,-9.301,0.531,-3.266,-9.351,0.555,-3.396,2.38,2.03,1.47
,-9.375,0.596,-3.197,-9.263,0.562,-3.455,2.24,2.03,1.47
34961.0,-9.27,0.474,-3.475,-9.328,0.653,-3.403,1.96,1.61,1.33
,-9.323,0.522,-3.374,-9.313,0.574,-3.448,2.94,1.4,1.54
,-9.402,0.574,-3.333,-9.234,0.519,-3.388,3.64,1.33,1.54
,-9.397,0.644,-3.379,-9.249,0.491,-3.329,3.36,1.12,1.26
35036.0,-9.366,0.476,-3.276,-9.332,0.462,-3.139,3.15,0.49,1.33
,-9.442,0.586,-3.24,-9.344,0.546,-3.159,3.15,0.56,1.19
,-9.366,0.558,-3.128,-9.344,0.543,-3.163,2.8,0.84,1.33
,-9.375,0.531,-3.104,-9.371,0.57,-3.23,2.59,0.91,1.4
35111.0,-9.366,0.653,-3.3,-9.28,0.56,-3.348,2.45,1.54,1.4
,-9.296,0.732,-3.329,-9.347,0.462,-3.285,2.24,1.33,1.26
,-9.349,0.713,-3.434,-9.404,0.625,-3.331,1.75,1.19,1.19
,-9.251,0.625,-3.374,-9.354,0.694,-3.307,1.19,1.26,1.19
35186.0,-9.328,0.648,-3.288,-9.375,0.617,-3.247,2.38,0.84,1.05
,-9.313,0.593,-3.238,-9.361,0.591,-3.233,2.38,0.84,0.98
,-9.354,0.562,-3.259,-9.299,0.553,-3.254,2.45,0.98,0.84
,-9.375,0.598,-3.214,-9.32,0.565,-3.168,2.59,0.98,0.77
35261.0,-9.289,0.512,-3.199,-9.316,0.579,-3.228,3.08,1.12,0.77
,-9.359,0.517,-3.166,-9.32,0.593,-3.3,3.01,1.26,0.91
,-9.359,0.536,-3.223,-9.277,0.577,-3.171,2.87,1.26,0.84
,-9.344,0.589,-3.285,-9.332,0.596,-3.199,2.59,1.19,0.84
35336.0,-9.368,0.531,-3.197,-9.273,0.646,-3.331,2.03,1.75,0.63
,-9.347,0.534,-3.068,-9.359,0.632,-3.269,1.47,1.54,0.7
,-9.337,0.498,-3.41,-9.354,0.553,-3.35,1.19,1.54,0.56
,-9.289,0.603,-3.412,-9.349,0.555,-3.252,1.61,1.61,0.7
35411.0,-9.347,0.536,-3.309,-9.289,0.625,-3.223,0.35,1.54,0.98
,-9.335,0.591,-3.3,-9.294,0.581,-3.149,0.7,1.54,0.98
,-9.328,0.591,-3.331,-9.349,0.579,-3.147,1.19,1.33,1.05
,-9.33,0.591,-3.324,-9.332,0.572,-3.01,1.47,1.26,1.12
35486.0,-9.325,0.476,-2.895,-9.292,0.505,-2.716,-0.63,2.17,1.47
,-9.325,0.428,-2.745,-9.325,0.548,-2.816,-0.91,3.01,1.75
,-9.337,0.457,-2.812,-9.301,0.493,-2.948,-0.84,3.5,1.89
,-9.316,0.495,-2.797,-9.158,0.493,-2.931,-1.05,3.92,2.17
35561.0,-9.196,0.543,-3.106,-9.27,0.692,-2.986,-0.28,6.65,3.78
,-9.177,0.646,-3.159,-9.351,0.641,-2.953,0.7,7.07,3.92
,-9.098,0.732,-3.183,-9.485,0.593,-2.879,1.54,7.28,4.06
,-9.158,0.754,-3.051,-9.543,0.603,-2.989,1.75,7.84,4.41
35636.0,-9.469,0.732,-3.01,-9.095,0.737,-3.288,-0.77,9.17,4.27
,-9.383,0.739,-3.384,-9.139,0.735,-3.343,-2.66,9.24,4.06
,-9.265,0.821,-3.479,-9.143,0.715,-3.484,-5.18,8.82,3.43
,-9.167,0.79,-3.29,-9.103,0.629,-3.556,-7.7,8.82,3.29
35711.0,-9.146,0.385,-3.53,-9.572,0.928,-3.867,-9.87,9.94,4.62
,-9.213,0.309,-3.307,-9.38,0.983,-4.037,-6.86,10.5,5.67
,-9.435,0.414,-3.484,-9.206,0.787,-4.247,-3.29,10.78,6.44
,-9.519,0.756,-3.661,-8.911,0.864,-4.427,-2.38,10.57,6.16
35786.0,-8.796,0.838,-4.08,-9.258,0.775,-4.125,0.07,6.72,4.83
,-9.06,1.022,-4.176,-9.282,0.392,-3.683,-0.14,5.04,4.13
,-9.213,1.376,-4.381,-9.282,0.402,-3.204,-3.01,3.57,3.01
,-9.194,1.347,-4.427,-9.265,1.007,-3.697,-7.0,2.52,2.24
35861.0,-9.222,1.496,-3.979,-8.947,0.838,-3.496,1.68,0.35,2.73
,-9.134,1.405,-4.147,-8.914,1.251,-3.518,0.35,-0.21,2.66
,-9.081,1.079,-4.29,-9.036,1.548,-3.618,1.26,0.14,3.43
,-9.244,0.593,-3.86,-9.229,1.295,-3.649,3.43,0.98,3.99
35936.0,-9.251,0.806,-3.506,-9.0,1.517,-3.419,-7.7,-0.63,2.03
,-9.337,0.517,-3.52,-9.064,1.606,-3.384,-5.81,0.0,3.15
,-9.148,0.577,-3.479,-9.452,1.031,-3.125,-2.24,0.63,3.43
,-8.99,0.921,-3.168,-9.366,0.718,-3.24,1.75,1.26,3.29
36011.0,-9.146,0.407,-3.154,-9.093,0.388,-2.867,0.28,2.59,2.8
,-9.11,0.311,-3.094,-8.899,0.048,-2.824,3.64,3.29,2.87
,-9.112,0.584,-3.139,-8.885,0.098,-2.398,5.95,3.43,2.45
,-9.136,0.665,-3.185,-9.026,0.364,-2.546,6.02,3.92,2.1
36086.0,-9.229,0.653,-2.831,-8.851,0.878,-3.726,5.88,10.01,7.63
,-9.349,0.593,-3.096,-8.911,1.18,-3.64,3.08,9.73,8.68
,-9.215,0.627,-3.537,-9.04,1.4,-3.585,1.05,9.8,10.01
,-8.945,0.756,-3.726,-9.038,1.457,-3.644,2.24,10.85,10.85
36161.0,-9.002,1.242,-3.494,-9.098,2.146,-3.836,4.2,13.72,11.55
,-8.933,1.22,-3.283,-9.146,1.821,-4.07,4.76,15.47,11.48
,-8.981,1.421,-3.029,-9.184,1.139,-4.135,8.61,16.38,10.64
,-9.04,1.819,-3.376,-9.275,0.658,-4.101,10.92,15.89,9.31
36236.0,-9.143,0.5,-3.977,-8.686,0.34,-3.91,5.18,14.98,7.84
,-8.961,0.663,-4.092,-8.748,0.246,-3.743,8.47,14.21,6.93
,-8.911,0.909,-4.152,-8.885,0.479,-3.821,8.89,13.65,7.21
,-8.763,0.742,-4.054,-8.995,0.964,-4.066,6.65,14.42,8.89
36311.0,-9.067,1.579,-3.977,-9.098,1.869,-3.848,5.88,15.26,13.09
,-8.942,1.874,-4.185,-8.885,1.883,-3.869,4.9,15.68,12.39
,-9.251,1.969,-3.989,-8.674,1.89,-4.006,3.29,15.89,11.06
,-9.244,1.773,-3.924,-8.538,1.847,-3.996,2.45,15.61,9.24
36386.0,-8.605,2.032,-4.188,-8.619,2.477,-4.343,-1.89,15.19,7.77
,-8.765,2.228,-4.331,-8.792,2.254,-4.255,-1.47,15.4,6.72
,-8.835,2.443,-4.391,-9.021,2.199,-4.47,-1.12,15.19,5.39
,-8.636,2.57,-4.432,-8.835,1.936,-4.704,-1.75,15.33,4.13
36461.0,-8.607,1.634,-4.793,-8.842,1.328,-4.838,-6.86,14.49,-1.26
,-8.454,1.189,-4.882,-8.679,1.845,-4.841,-5.6,14.35,-1.33
,-8.586,0.916,-4.769,-8.349,1.941,-4.877,-2.45,14.63,-1.4
,-8.844,0.952,-4.826,-8.27,1.656,-4.893,1.75,14.42,-1.47
36536.0,-8.528,1.323,-4.764,-8.973,0.471,-4.934,-2.1,13.09,-0.7
,-8.753,0.902,-4.755,-9.019,0.849,-4.98,-2.24,13.23,-0.14
,-8.921,0.517,-4.669,-8.894,1.448,-5.25,-1.26,13.09,0.63
,-8.928,0.402,-4.752,-8.313,1.785,-5.451,1.82,12.67,1.4
36611.0,-8.004,1.285,-5.238,-8.957,1.031,-4.733,11.34,8.68,3.29
,-8.071,1.058,-5.14,-8.897,1.079,-4.537,10.85,9.1,3.99
,-8.703,0.967,-4.963,-8.873,1.472,-4.7,12.39,9.03,3.92
,-9.04,1.019,-4.855,-8.849,1.689,-4.889,14.07,8.26,3.71
36686.0,-8.605,1.866,-4.91,-8.289,0.983,-4.97,11.41,6.51,1.47
,-8.418,1.941,-5.095,-8.514,0.629,-4.968,8.96,6.44,0.91
,-8.531,1.713,-5.047,-8.547,0.517,-4.913,6.02,6.23,1.19
,-8.433,1.335,-5.061,-8.758,0.792,-4.91,3.5,5.53,1.96
36761.0,-8.725,1.149,-5.121,-8.691,1.261,-5.006,7.42,4.41,5.18
,-8.461,1.328,-5.142,-8.425,1.187,-5.056,6.51,4.27,5.18
,-8.435,1.362,-5.15,-8.418,1.11,-5.083,5.04,4.2,5.39
,-8.739,1.39,-5.004,-8.538,1.027,-4.886,3.08,3.5,5.6
36836.0,-8.579,1.082,-4.884,-8.66,2.568,-4.815,1.75,3.36,7.49
,-8.425,1.397,-4.831,-8.708,2.455,-4.86,3.29,3.92,7.35
,-8.519,1.816,-4.755,-8.856,2.309,-4.896,5.81,4.48,6.93
,-8.689,2.352,-4.669,-8.605,2.259,-4.968,6.37,4.13,5.74
36911.0,-8.289,2.206,-4.934,-8.524,1.448,-5.348,1.75,5.67,0.56
,-8.193,1.991,-5.051,-8.524,1.34,-5.422,0.49,5.46,0.28
,-8.392,1.809,-5.229,-8.559,1.206,-5.439,-0.63,5.53,-0.14
,-8.547,1.567,-5.245,-8.48,1.022,-5.42,-1.47,5.53,-0.49
36986.0,-8.43,0.986,-5.518,-8.461,1.56,-5.463,-3.71,4.27,0.42
,-8.588,1.012,-5.528,-8.488,1.364,-5.267,-2.38,4.06,0.98
,-8.775,1.161,-5.396,-8.502,1.318,-5.214,-1.75,3.5,1.54
,-8.641,1.412,-5.377,-8.399,1.378,-5.207,-1.47,2.87,1.61
37061.0,-8.406,1.73,-5.059,-8.466,1.91,-5.044,-1.54,0.91,3.08
,-8.485,2.005,-5.004,-8.399,1.799,-5.075,-1.19,0.21,2.38
,-8.662,2.204,-4.882,-8.471,1.728,-5.071,-2.38,-0.28,1.75
,-8.567,2.132,-4.946,-8.614,1.663,-5.238,-4.97,-0.63,1.05
37136.0,-8.701,1.723,-5.226,-8.476,1.268,-5.075,-4.62,-1.89,-0.91
,-8.521,1.754,-5.343,-8.526,1.354,-5.183,-3.5,-2.66,-1.12
,-8.344,1.543,-5.284,-8.61,1.508,-5.195,-3.64,-3.01,-1.12
,-8.299,1.254,-5.116,-8.624,1.405,-5.135,-3.99,-2.73,-1.26
37211.0,-8.591,1.476,-5.152,-8.576,1.575,-4.953,-3.78,-5.74,-0.56
,-8.5,1.467,-5.193,-8.54,1.589,-4.965,-3.92,-5.81,-0.42
,-8.502,1.613,-5.178,-8.569,1.591,-4.925,-3.36,-5.81,-0.91
,-8.576,1.653,-5.035,-8.5,1.73,-4.934,-2.66,-6.23,-1.61
37286.0,-8.48,1.821,-4.905,-8.49,1.579,-4.767,-0.63,-8.68,-1.75
,-8.559,1.73,-4.86,-8.571,1.718,-4.716,-0.21,-9.24,-2.31
,-8.66,1.553,-4.769,-8.741,1.819,-4.628,-0.14,-9.38,-2.73
,-8.557,1.529,-4.783,-8.763,1.73,-4.635,0.49,-9.17,-2.38
37361.0,-8.713,1.603,-4.582,-8.449,1.359,-4.491,3.71,-7.14,-5.04
,-8.796,1.22,-4.468,-8.655,1.529,-4.491,3.57,-7.21,-4.62
,-8.847,0.983,-4.348,-8.67,1.673,-4.484,2.87,-9.17,-4.06
,-8.524,1.232,-4.439,-8.61,1.85,-4.515,3.99,-9.8,-3.5
37436.0,-8.629,1.642,-4.551,-8.77,1.29,-4.616,4.83,-9.1,-2.66
,-8.787,1.457,-4.573,-8.739,1.452,-4.568,3.85,-9.1,-2.52
,-8.758,1.287,-4.551,-8.516,1.697,-4.494,4.69,-8.54,-2.31
,-8.748,1.17,-4.575,-8.66,1.898,-4.57,7.0,-7.91,-2.59
37511.0,-8.591,1.522,-4.472,-8.686,1.163,-4.204,3.99,-11.41,-1.54
,-8.854,1.28,-4.252,-8.698,1.17,-4.166,3.01,-11.27,-1.82
,-8.985,1.151,-4.228,-8.746,1.187,-4.116,2.87,-11.2,-2.31
,-8.899,1.117,-4.176,-8.854,1.347,-4.087,3.78,-10.71,-2.24
37586.0,-8.959,1.455,-4.015,-8.727,1.601,-3.927,10.78,-9.59,-1.61
,-8.892,1.529,-3.991,-8.892,1.723,-4.032,10.78,-9.31,-1.68
,-8.751,1.618,-3.987,-8.899,1.833,-3.96,10.01,-9.03,-1.75
,-8.717,1.519,-3.838,-8.842,1.814,-3.927,9.52,-8.61,-1.89
37661.0,-8.827,1.725,-3.857,-9.134,1.378,-3.716,4.9,-7.7,-3.22
,-8.799,1.828,-3.848,-9.244,1.201,-3.836,2.94,-7.56,-3.78
,-8.727,1.783,-3.838,-9.1,1.326,-3.955,-0.28,-7.35,-4.27
,-8.835,1.546,-3.762,-8.959,1.268,-3.869,-3.43,-7.0,-4.69
37736.0,-8.813,1.292,-3.951,-8.959,1.371,-3.893,-0.42,-5.53,-5.53
,-8.875,1.393,-4.015,-8.957,1.436,-3.869,0.35,-5.67,-5.88
,-8.971,1.366,-3.989,-9.05,1.431,-3.936,0.35,-5.95,-6.16
,-8.981,1.369,-3.932,-9.014,1.237,-3.903,-0.07,-6.23,-6.16
37811.0,-8.916,1.022,-3.879,-8.993,1.003,-4.061,-2.8,-5.46,-6.37
,-8.887,0.921,-3.869,-8.945,0.981,-3.829,-1.12,-5.46,-5.88
,-8.918,1.024,-4.061,-9.079,1.046,-3.738,1.19,-5.81,-5.74
,-9.028,1.122,-4.133,-9.081,1.158,-3.534,2.52,-6.51,-5.67
37886.0,-9.007,1.23,-3.563,-9.093,0.718,-3.647,4.55,-6.16,-5.32
,-8.983,1.146,-3.601,-9.122,0.948,-3.573,1.82,-5.81,-4.62
,-9.045,0.735,-3.539,-9.095,1.173,-3.455,1.12,-5.74,-4.06
,-9.115,0.584,-3.723,-9.067,1.273,-3.616,2.52,-5.88,-3.36
37961.0,-9.076,1.328,-3.668,-9.086,1.041,-3.233,3.92,-4.9,-3.57
,-8.993,1.146,-3.563,-9.131,1.488,-3.295,2.87,-4.34,-3.22
,-9.083,0.943,-3.489,-9.251,1.723,-3.776,3.85,-3.85,-3.22
,-9.043,0.869,-3.23,-9.134,1.766,-3.939,5.81,-3.22,-3.36
38036.0,-9.119,1.292,-3.967,-9.076,1.333,-3.845,-2.45,-2.87,-5.32
,-9.103,0.816,-3.63,-9.091,1.074,-3.735,-1.47,-2.31,-5.32
,-9.122,0.682,-3.534,-9.206,0.687,-3.81,1.33,-2.1,-5.53
,-9.095,1.089,-3.719,-9.131,0.524,-3.561,2.66,-2.66,-6.3
38111.0,-9.124,0.668,-3.329,-9.261,0.926,-3.262,2.87,-2.31,-5.74
,-9.256,0.907,-3.324,-9.162,1.086,-3.441,3.29,-1.96,-5.74
,-9.229,0.988,-3.061,-9.005,1.235,-3.731,1.33,-1.54,-5.6
,-9.203,0.871,-3.049,-8.94,1.17,-3.788,-0.63,-0.84,-5.11
38186.0,-9.021,0.797,-3.434,-9.229,0.672,-3.482,0.42,-0.49,-5.25
,-9.11,0.562,-3.233,-9.1,0.493,-3.683,0.7,0.07,-4.83
,-9.268,0.493,-3.13,-9.024,0.347,-3.676,0.35,0.14,-5.04
,-9.296,0.68,-3.343,-9.033,0.328,-3.668,-1.05,0.21,-5.11
38261.0,-9.115,0.546,-3.704,-9.155,0.354,-3.671,2.52,0.77,-1.89
,-9.172,0.735,-3.728,-9.155,0.514,-3.508,3.29,0.63,-1.54
,-9.191,0.692,-3.783,-9.182,0.723,-3.367,3.43,0.49,-1.12
,-9.153,0.522,-3.735,-9.265,0.926,-3.417,3.78,0.42,-0.42
38336.0,-9.316,0.919,-3.546,-9.083,0.603,-3.482,4.97,0.84,0.77
,-9.134,0.833,-3.57,-9.184,0.493,-3.273,3.64,0.91,1.05
,-9.115,0.644,-3.625,-9.299,0.713,-3.34,4.06,0.98,1.4
,-9.095,0.61,-3.695,-9.38,1.029,-3.616,5.6,0.84,1.68
38411.0,-9.246,1.297,-4.054,-9.311,0.503,-3.515,2.45,0.14,1.26
,-8.99,1.074,-4.18,-9.407,0.739,-3.329,0.07,0.21,1.33
,-8.995,0.629,-4.08,-9.399,1.062,-3.482,1.05,0.14,1.82
,-9.177,0.397,-3.855,-9.232,1.295,-3.62,4.76,0.0,2.24
38486.0,-9.105,1.189,-3.814,-9.203,1.055,-3.403,5.88,-0.98,1.47
,-9.098,0.89,-3.884,-9.229,1.223,-3.324,5.11,-0.77,1.4
,-9.093,0.778,-3.8,-9.268,1.299,-3.384,6.86,-0.91,1.4
,-9.184,0.849,-3.707,-9.213,1.261,-3.381,9.17,-1.05,1.33
38561.0,-9.17,0.888,-3.479,-9.232,0.57,-3.068,1.54,-1.05,-0.35
,-9.203,0.522,-3.422,-9.296,0.658,-3.116,1.47,-0.7,-0.35
,-9.21,0.414,-3.376,-9.332,0.924,-3.355,3.5,-0.49,-0.14
,-9.308,0.507,-3.211,-9.206,1.156,-3.759,5.18,0.07,0.14
38636.0,-9.048,1.074,-4.001,-9.328,0.881,-3.47,2.1,0.35,0.28
,-9.036,0.797,-4.075,-9.368,0.878,-3.235,3.01,0.14,0.56
,-9.134,0.706,-3.939,-9.32,0.713,-3.216,5.74,-0.21,0.77
,-9.201,0.806,-3.68,-9.287,0.613,-3.254,7.91,-0.63,0.7
38711.0,-9.256,0.536,-3.331,-9.215,0.615,-3.273,2.73,0.21,0.49
,-9.232,0.51,-3.357,-9.28,0.737,-3.297,3.78,0.42,0.77
,-9.213,0.431,-3.305,-9.222,0.823,-3.4,5.25,0.77,1.12
,-9.232,0.495,-3.34,-9.273,0.814,-3.51,6.79,1.12,1.61
38786.0,-9.225,0.835,-3.723,-9.241,1.077,-3.671,4.06,1.4,1.89
,-9.146,0.871,-3.833,-9.306,1.058,-3.606,4.76,1.4,1.68
,-9.093,0.902,-3.805,-9.275,0.924,-3.527,6.3,1.33,1.61
,-9.22,0.981,-3.774,-9.294,0.739,-3.522,7.42,1.05,1.61
38861.0,-9.28,0.715,-3.482,-9.206,0.768,-3.314,4.27,0.35,0.42
,-9.213,0.713,-3.527,-9.222,0.833,-3.386,4.06,0.35,0.21
,-9.213,0.634,-3.496,-9.215,0.847,-3.336,3.92,0.35,0.35
,-9.201,0.715,-3.472,-9.249,0.771,-3.364,4.41,0.42,0.42
38936.0,-9.239,0.869,-3.434,-9.21,0.936,-3.678,3.22,1.26,0.49
,-9.15,0.852,-3.57,-9.194,0.821,-3.635,3.64,1.19,0.49
,-9.184,0.838,-3.656,-9.184,0.794,-3.609,4.06,1.05,0.56
,-9.162,0.924,-3.649,-9.198,0.68,-3.498,4.41,1.05,0.56
39011.0,-9.22,0.706,-3.475,-9.277,0.732,-3.439,3.78,0.49,0.28
,-9.296,0.794,-3.455,-9.244,0.782,-3.412,3.71,0.56,0.28
,-9.225,0.761,-3.429,-9.182,0.763,-3.451,3.01,0.49,0.21
,-9.294,0.72,-3.446,-9.244,0.775,-3.573,2.31,0.56,0.28
39086.0,-9.249,0.797,-3.556,-9.256,0.871,-3.64,2.17,0.77,0.42
,-9.225,0.782,-3.589,-9.239,0.89,-3.632,2.17,0.91,0.42
,-9.179,0.747,-3.611,-9.227,0.826,-3.609,2.59,0.91,0.56
,-9.222,0.775,-3.613,-9.227,0.742,-3.542,2.87,0.35,0.35
