Timestamp,AccX,AccY,AccZ,GyroX,GyroY,GyroZ,MagnX,MagnY,MagnZ
0.0,-9.246,0.077,-3.625,-9.203,0.043,-3.616,2.03,0.77,0.7
,-9.232,-0.022,-3.683,-9.198,-0.031,-3.652,1.82,0.91,0.63
,-9.196,-0.002,-3.644,-9.206,-0.038,-3.654,1.89,0.91,0.7
,-9.225,0.005,-3.699,-9.237,-0.024,-3.642,1.96,1.05,0.56
75.0,-9.194,0.036,-3.604,-9.225,-0.007,-3.654,2.52,1.19,0.84
,-9.217,0.05,-3.599,-9.208,-0.017,-3.671,2.45,1.19,0.7
,-9.234,0.079,-3.585,-9.241,0.069,-3.668,2.31,1.33,0.7
,-9.249,-0.012,-3.628,-9.232,0.019,-3.745,1.89,1.47,0.7
150.0,-9.184,-0.031,-3.745,-9.239,0.031,-3.644,1.82,1.33,0.63
,-9.179,-0.062,-3.709,-9.217,0.014,-3.642,1.82,1.19,0.63
,-9.189,-0.06,-3.719,-9.256,-0.045,-3.618,2.31,1.4,0.84
,-9.215,0.034,-3.687,-9.251,0.007,-3.618,2.73,1.26,0.84
226.0,-9.241,-0.012,-3.63,-9.229,-0.019,-3.661,2.8,1.47,0.91
,-9.237,0.007,-3.594,-9.206,0.01,-3.64,2.94,1.61,0.91
,-9.215,0.007,-3.589,-9.213,0.06,-3.702,2.73,1.4,0.98
,-9.237,0.014,-3.635,-9.268,0.089,-3.707,2.52,1.61,0.91
302.0,-9.222,0.043,-3.781,-9.217,0.024,-3.731,2.24,1.82,0.98
,-9.249,-0.036,-3.776,-9.229,-0.024,-3.702,2.31,1.61,0.91
,-9.182,-0.038,-3.745,-9.198,0.002,-3.64,2.45,1.61,1.05
,-9.198,0.045,-3.726,-9.246,-0.05,-3.642,2.66,1.54,1.12
378.0,-9.229,0.0,-3.656,-9.227,0.026,-3.692,2.17,1.4,1.12
,-9.201,0.007,-3.656,-9.184,0.06,-3.731,2.24,1.4,1.19
,-9.177,0.077,-3.709,-9.189,0.065,-3.735,2.17,1.47,1.12
,-9.198,0.089,-3.702,-9.105,0.074,-3.762,2.03,1.4,1.05
453.0,-9.129,0.074,-3.795,-9.179,0.031,-3.735,1.82,0.91,1.05
,-9.196,0.072,-3.821,-9.177,0.048,-3.788,1.61,0.84,0.91
,-9.227,0.031,-3.793,-9.148,-0.012,-3.766,1.19,0.49,0.84
,-9.167,0.014,-3.747,-9.143,-0.036,-3.716,1.12,0.49,0.98
529.0,-9.119,-0.007,-3.752,-9.227,0.213,-3.647,0.07,-0.14,0.49
,-9.191,0.012,-3.692,-9.256,0.057,-3.676,0.07,-0.28,0.49
,-9.222,-0.024,-3.711,-9.201,0.103,-3.575,-0.14,-0.21,0.63
,-9.155,0.05,-3.647,-9.21,0.024,-3.862,0.07,-0.35,0.49
605.0,-9.229,0.022,-3.697,-9.258,-0.026,-3.671,0.56,-0.21,0.63
,-9.16,0.093,-3.697,-9.206,0.105,-3.589,1.12,-0.28,0.7
,-9.237,0.024,-3.568,-9.282,0.01,-3.542,1.54,-0.07,0.98
,-9.203,0.029,-3.57,-9.21,-0.081,-3.563,2.38,0.0,1.19
681.0,-9.244,0.184,-3.601,-9.258,0.144,-3.606,1.96,0.07,0.98
,-9.337,0.134,-3.491,-9.227,0.17,-3.644,0.42,0.0,0.56
,-9.296,0.115,-3.494,-9.244,0.079,-3.678,-0.28,0.14,0.49
,-9.292,0.084,-3.556,-9.246,0.079,-3.599,-1.19,0.14,0.28
757.0,-9.239,0.029,-3.616,-9.227,-0.01,-3.623,-1.05,0.28,0.49
,-9.215,-0.019,-3.522,-9.22,-0.096,-3.551,-0.77,0.14,0.63
,-9.261,0.029,-3.582,-9.196,-0.127,-3.609,-0.56,0.28,0.56
,-9.33,0.055,-3.563,-9.191,-0.045,-3.542,-0.49,0.42,0.7
832.0,-9.263,0.038,-3.58,-9.184,-0.034,-3.494,1.4,0.49,1.4
,-9.294,0.182,-3.549,-9.203,-0.007,-3.53,1.05,0.77,1.47
,-9.289,0.084,-3.522,-9.263,0.223,-3.673,0.63,0.56,1.26
,-9.249,-0.005,-3.484,-9.275,0.127,-3.666,0.49,0.7,1.26
908.0,-9.174,0.024,-3.692,-9.261,0.117,-3.683,-0.84,0.49,1.12
,-9.203,0.053,-3.659,-9.227,0.065,-3.697,-0.98,0.56,1.19
,-9.273,0.108,-3.606,-9.237,-0.002,-3.745,-0.7,0.35,1.26
,-9.213,0.28,-3.743,-9.234,-0.067,-3.743,-0.98,0.0,1.19
983.0,-9.217,0.05,-3.687,-9.28,0.096,-3.656,-0.21,-0.91,1.47
,-9.174,0.014,-3.728,-9.249,0.034,-3.592,0.42,-0.91,1.68
,-9.208,0.12,-3.671,-9.22,0.086,-3.606,0.28,-0.98,1.68
,-9.261,0.175,-3.63,-9.299,-0.01,-3.632,-0.07,-1.05,1.47
1059.0,-9.28,0.177,-3.58,-9.244,0.077,-3.522,1.05,-1.26,1.96
,-9.241,0.22,-3.618,-9.213,0.089,-3.522,1.26,-1.47,1.96
,-9.292,0.17,-3.542,-9.273,0.079,-3.553,0.49,-1.61,2.03
,-9.22,0.139,-3.561,-9.196,0.139,-3.57,0.07,-1.89,2.1
1135.0,-9.289,0.258,-3.522,-9.098,-0.153,-3.398,-1.19,-1.96,1.75
,-9.263,0.136,-3.491,-9.227,0.091,-3.396,-2.24,-2.17,1.68
,-9.28,0.077,-3.455,-9.371,0.345,-3.367,-2.59,-2.1,1.75
,-9.153,-0.112,-3.467,-9.421,0.498,-3.333,-3.15,-2.24,1.75
1211.0,-9.368,0.507,-3.187,-9.33,0.043,-3.228,-8.68,-2.38,0.56
,-9.368,0.215,-3.039,-9.301,0.022,-3.264,-9.8,-1.96,0.49
,-9.311,0.053,-2.972,-9.445,0.218,-3.408,-8.4,-1.47,0.98
,-9.404,0.235,-3.07,-9.215,0.244,-3.484,-6.3,-1.33,1.33
1286.0,-9.095,0.072,-3.367,-9.411,0.223,-3.623,-3.99,-0.07,1.33
,-9.191,0.141,-3.537,-9.433,0.546,-3.568,-4.48,-0.07,1.05
,-9.174,-0.29,-3.518,-9.301,0.723,-3.556,-6.16,-0.21,1.05
,-9.208,-0.33,-3.568,-9.306,0.967,-3.544,-4.27,0.0,1.68
1362.0,-9.33,0.818,-3.611,-9.373,0.177,-3.4,-6.65,-1.05,0.56
,-9.217,0.517,-3.515,-9.198,0.146,-3.29,-7.56,-1.68,0.42
,-9.129,0.105,-3.427,-9.237,0.345,-3.326,-7.14,-1.68,0.63
,-9.287,0.168,-3.448,-9.371,0.615,-3.329,-4.97,-1.75,0.84
1438.0,-9.351,0.931,-3.479,-9.399,0.4,-3.419,-3.71,-1.61,-0.21
,-9.282,0.804,-3.424,-9.347,0.462,-3.4,-6.79,-2.17,-1.05
,-9.359,0.727,-3.439,-9.483,0.725,-3.309,-8.47,-2.73,-1.54
,-9.399,0.531,-3.486,-9.541,0.759,-3.168,-9.73,-3.01,-2.1
1514.0,-9.474,0.574,-2.9,-9.371,0.256,-2.704,-9.45,-2.24,-3.5
,-9.552,0.763,-2.711,-9.359,0.306,-2.74,-9.73,-1.96,-4.2
,-9.658,0.715,-2.673,-9.45,0.471,-2.927,-10.36,-1.33,-4.55
,-9.562,0.479,-2.572,-9.375,0.428,-3.01,-9.94,-0.56,-4.41
1589.0,-9.351,0.421,-3.099,-9.385,0.723,-3.228,-4.76,2.59,-3.57
,-9.332,0.378,-3.13,-9.328,0.548,-3.269,-4.69,3.01,-3.57
,-9.33,0.431,-3.168,-9.268,0.223,-3.314,-4.41,3.15,-3.64
,-9.306,0.603,-3.113,-9.337,0.242,-3.312,-4.41,3.22,-3.64
1665.0,-9.33,0.144,-3.307,-9.287,0.122,-3.522,-5.74,3.71,-4.2
,-9.356,0.153,-3.269,-9.241,0.139,-3.64,-4.76,4.06,-3.85
,-9.438,0.354,-3.391,-9.249,0.223,-3.606,-4.34,4.27,-3.92
,-9.301,0.306,-3.429,-9.421,0.299,-3.611,-4.34,4.06,-3.92
1740.0,-9.351,0.172,-3.431,-9.39,0.316,-2.982,-2.8,2.66,-4.2
,-9.354,0.309,-3.309,-9.323,0.244,-3.039,-2.52,2.66,-4.27
,-9.495,0.524,-3.283,-9.363,0.002,-3.106,-1.89,2.8,-4.62
,-9.517,0.5,-3.154,-9.215,-0.012,-3.094,-2.38,2.94,-4.83
1816.0,-9.275,-0.053,-3.269,-9.366,0.357,-3.309,3.01,4.76,-4.2
,-9.239,-0.179,-3.25,-9.363,0.024,-3.113,3.01,5.18,-4.06
,-9.313,0.108,-3.336,-9.366,0.258,-3.161,3.71,5.53,-4.2
,-9.392,0.316,-3.319,-9.323,0.462,-3.238,3.01,5.95,-4.34
1892.0,-9.258,0.359,-3.264,-9.433,0.668,-3.551,1.68,7.56,-4.48
,-9.306,0.232,-3.293,-9.213,0.675,-3.577,1.75,7.91,-4.62
,-9.378,0.239,-3.333,-9.263,0.311,-3.609,2.94,8.05,-4.9
,-9.44,0.541,-3.415,-9.191,0.103,-3.63,3.71,8.4,-5.39
1968.0,-9.335,0.156,-3.731,-9.098,0.156,-3.637,0.98,7.42,-8.54
,-9.38,0.067,-3.666,-9.323,0.316,-3.733,2.38,7.35,-8.26
,-9.306,0.065,-3.58,-9.306,0.208,-3.601,4.55,7.49,-7.91
,-9.16,-0.122,-3.623,-9.268,0.246,-3.448,6.3,7.63,-7.49
2044.0,-9.373,0.134,-3.381,-9.239,0.256,-3.697,7.21,7.56,-9.52
,-9.277,0.282,-3.408,-9.299,-0.156,-3.704,8.05,7.77,-9.66
,-9.263,0.28,-3.486,-9.081,-0.428,-3.671,8.26,8.12,-9.94
,-9.225,0.282,-3.532,-9.217,-0.206,-3.63,7.77,8.12,-10.43
2119.0,-9.304,0.302,-3.587,-9.342,0.258,-3.597,14.49,9.38,-11.2
,-9.256,0.498,-3.542,-9.287,0.132,-3.515,13.86,9.24,-11.9
,-9.22,0.285,-3.489,-9.239,0.06,-3.542,12.74,9.31,-12.74
,-9.284,0.258,-3.51,-9.227,0.136,-3.549,13.16,9.31,-13.51
2195.0,-9.253,-0.012,-3.479,-9.306,0.132,-3.616,15.33,10.57,-16.66
,-9.294,0.01,-3.518,-9.201,-0.158,-3.475,16.73,10.85,-17.15
,-9.256,0.01,-3.642,-9.217,-0.11,-3.436,17.29,10.99,-18.06
,-9.208,0.139,-3.666,-9.296,-0.089,-3.41,17.85,11.2,-19.04
2271.0,-9.28,-0.062,-3.467,-9.481,-0.034,-3.285,21.63,13.16,-22.33
,-9.143,-0.158,-3.46,-9.476,0.124,-3.159,22.05,13.44,-23.03
,-9.28,-0.28,-3.458,-9.509,0.065,-3.183,23.17,14.0,-23.8
,-9.481,-0.146,-3.398,-9.55,0.117,-3.381,24.43,14.56,-24.43
2347.0,-9.404,-0.132,-3.652,-8.969,-1.862,-3.9,28.35,17.01,-28.98
,-9.304,-0.627,-3.805,-8.813,-2.166,-3.977,27.79,17.22,-29.54
,-9.146,-1.117,-3.886,-8.88,-2.422,-4.286,27.44,17.15,-30.1
,-9.107,-1.445,-3.829,-8.887,-2.742,-4.508,26.6,17.15,-30.52
2422.0,-8.875,-2.788,-4.709,-9.363,-1.91,-5.047,24.57,16.38,-27.09
,-8.902,-2.697,-4.946,-9.485,-2.012,-4.922,28.35,16.24,-25.2
,-9.028,-2.441,-5.152,-9.533,-2.283,-4.673,31.92,15.61,-23.59
,-9.136,-2.096,-5.173,-9.689,-2.144,-4.453,33.95,14.35,-22.4
2498.0,-9.823,-2.221,-4.216,-9.454,-2.694,-3.647,34.93,9.24,-15.54
,-9.931,-2.41,-4.037,-9.227,-2.307,-3.563,34.37,8.82,-14.0
,-9.95,-2.883,-3.908,-9.083,-2.237,-3.814,34.37,8.61,-13.44
,-9.596,-2.922,-3.726,-8.703,-2.29,-3.826,37.03,8.82,-11.9
2573.0,-8.485,-2.225,-3.912,-8.212,-1.783,-4.02,46.97,10.01,2.87
,-8.49,-2.316,-4.006,-8.093,-2.053,-3.991,48.93,10.01,5.46
,-8.382,-1.969,-4.018,-7.978,-2.419,-4.2,52.29,10.22,8.4
,-8.232,-1.541,-4.044,-7.985,-2.62,-4.279,53.55,10.5,10.64
2649.0,-7.985,-2.4,-4.42,-8.212,-1.357,-4.774,59.15,15.19,24.71
,-8.047,-1.874,-4.53,-8.141,-0.859,-4.523,62.09,15.89,27.16
,-8.126,-1.266,-4.879,-8.21,-0.663,-4.202,61.53,15.89,28.49
,-8.133,-1.18,-5.013,-8.169,-1.079,-4.226,57.82,15.12,29.26
2725.0,-8.045,-1.141,-3.955,-8.332,-2.125,-4.123,22.19,8.19,25.27
,-8.009,-0.945,-4.066,-8.437,-2.481,-3.979,16.03,7.21,23.31
,-8.136,-1.039,-4.133,-8.545,-2.333,-4.176,9.1,6.3,21.49
,-8.32,-1.462,-4.135,-8.533,-2.13,-4.317,2.66,5.81,20.51
2801.0,-8.636,-1.862,-4.269,-8.579,-0.44,-4.125,5.18,7.98,25.62
,-8.557,-1.464,-4.271,-8.603,-0.514,-4.027,6.09,8.4,27.23
,-8.655,-1.33,-4.24,-8.591,-0.658,-3.934,4.41,8.89,28.07
,-8.547,-0.909,-4.257,-8.713,-0.694,-3.888,1.54,8.96,28.28
2876.0,-8.739,-0.505,-4.149,-8.875,-0.9,-4.489,-29.05,9.73,26.32
,-8.677,-0.421,-4.216,-8.88,-1.058,-4.63,-35.84,9.38,25.13
,-8.729,-0.584,-4.173,-8.942,-1.314,-4.623,-42.56,8.82,23.87
,-8.854,-0.735,-4.465,-8.995,-1.208,-4.685,-47.46,8.19,23.38
2952.0,-8.885,-0.507,-4.712,-9.139,-0.644,-4.963,-50.82,2.38,26.74
,-9.05,-0.057,-4.803,-9.06,-0.964,-4.968,-54.88,-0.07,24.78
,-9.098,-0.203,-4.803,-9.069,-1.259,-4.898,-60.62,-2.17,22.82
,-9.0,-0.503,-4.683,-9.069,-1.74,-4.884,-64.89,-3.99,21.84
3028.0,-9.079,-1.969,-4.781,-8.99,-2.309,-4.645,-69.44,-14.49,18.83
,-9.103,-2.041,-4.867,-8.945,-2.326,-4.621,-63.77,-15.19,20.51
,-9.258,-2.199,-4.769,-9.103,-2.419,-4.307,-57.82,-16.1,21.98
,-9.136,-2.35,-4.671,-8.966,-1.668,-4.29,-51.24,-16.94,23.59
3104.0,-9.117,-0.995,-3.769,-8.748,-2.41,-4.03,-21.49,-21.14,24.57
,-9.229,-0.962,-4.082,-8.653,-2.577,-4.087,-24.29,-21.63,21.28
,-9.134,-1.584,-3.999,-8.571,-2.57,-4.089,-27.65,-22.12,18.13
,-8.847,-2.118,-3.881,-8.404,-2.639,-4.298,-28.0,-22.26,15.96
3180.0,-7.361,-3.644,-4.929,-7.406,-0.531,-6.128,-10.57,-19.39,11.55
,-7.408,-7.772,-5.207,-8.356,0.203,-6.159,1.26,-10.29,11.13
,-8.179,-8.945,-5.398,-9.15,-0.11,-5.494,25.76,-0.84,9.03
,-7.459,-5.37,-5.726,-8.763,0.608,-4.441,53.97,2.94,7.98
3255.0,-9.148,0.304,-3.757,-10.639,2.697,-3.829,-2.73,-4.97,-12.25
,-9.809,-1.151,-3.355,-10.471,3.685,-3.551,-4.13,-2.94,-12.88
,-9.945,-1.338,-3.417,-10.096,3.094,-3.262,8.26,0.63,-7.49
,-10.352,0.44,-3.714,-9.509,1.871,-3.245,26.53,3.57,1.12
3331.0,-8.985,0.766,-3.573,-8.873,-2.752,-4.015,17.5,-3.71,10.71
,-8.579,-0.057,-3.683,-9.005,-2.838,-3.841,13.65,-3.15,8.89
,-8.6,-0.675,-3.932,-9.27,-2.142,-3.96,8.47,-2.73,6.3
,-8.801,-1.957,-3.991,-9.454,-0.945,-3.958,2.38,-1.89,3.78
3406.0,-9.588,0.297,-3.967,-9.402,1.321,-3.556,-4.2,0.49,-1.75
,-9.462,0.943,-3.86,-9.337,1.039,-3.506,-8.54,-0.28,-2.17
,-9.28,1.158,-3.738,-9.296,0.782,-3.52,-10.5,-0.77,-1.96
,-9.32,1.328,-3.685,-9.241,0.467,-3.699,-9.17,-0.56,-1.05
3482.0,-9.162,0.022,-3.92,-9.112,-0.715,-4.123,2.45,0.07,2.87
,-9.005,-0.28,-4.097,-9.124,-0.68,-4.037,3.29,0.0,2.8
,-8.911,-0.608,-4.044,-9.201,-0.33,-3.955,3.92,0.07,2.52
,-9.014,-0.605,-4.125,-9.177,0.062,-3.912,4.62,0.07,1.96
3558.0,-9.155,0.273,-3.881,-9.232,0.672,-3.673,5.53,-0.56,2.24
,-9.119,0.558,-3.884,-9.17,0.412,-3.589,4.62,-0.7,2.24
,-9.167,0.723,-3.81,-9.127,-0.05,-3.453,3.01,-1.12,1.75
,-9.208,0.742,-3.745,-9.196,-0.345,-3.364,1.33,-1.33,1.12
3634.0,-9.33,-0.282,-3.443,-9.165,-0.091,-3.731,3.92,0.14,1.82
,-9.356,-0.093,-3.606,-9.083,-0.273,-3.75,6.09,0.7,2.1
,-9.361,0.0,-3.606,-9.1,-0.045,-3.743,6.44,0.91,2.03
,-9.239,-0.041,-3.75,-9.215,0.275,-3.692,5.88,0.91,1.89
3709.0,-9.217,0.457,-3.604,-9.117,0.254,-3.561,4.55,1.4,0.91
,-9.122,0.584,-3.64,-9.131,0.036,-3.539,2.94,1.19,0.56
,-9.203,0.565,-3.582,-9.153,-0.105,-3.47,1.47,1.12,0.14
,-9.177,0.421,-3.577,-9.316,0.086,-3.551,0.56,1.26,-0.21
3785.0,-9.304,0.163,-3.752,-9.174,0.129,-3.788,3.92,2.73,0.42
,-9.177,0.045,-3.776,-9.148,0.278,-3.74,2.87,2.73,0.21
,-9.139,-0.067,-3.81,-9.179,0.285,-3.678,2.66,2.66,0.0
,-9.148,0.0,-3.85,-9.136,0.347,-3.561,3.22,2.73,-0.07
3860.0,-9.196,0.29,-3.599,-9.311,0.053,-3.96,2.24,3.36,-0.42
,-9.249,0.223,-3.69,-9.227,0.124,-4.089,1.89,3.43,-0.49
,-9.232,0.168,-3.766,-9.258,0.124,-4.145,1.96,3.71,-0.63
,-9.375,0.091,-3.886,-9.375,-0.069,-4.279,2.38,3.5,-0.63
3936.0,-9.253,-0.349,-4.257,-9.832,-0.797,-4.022,2.59,1.82,-0.91
,-9.028,-0.491,-4.104,-9.777,-0.895,-3.912,4.41,1.75,-0.28
,-9.179,-0.45,-4.209,-9.931,-0.924,-3.659,7.07,1.75,0.14
,-9.531,-0.546,-4.214,-9.33,-0.529,-3.24,9.38,1.61,0.42
4012.0,-9.036,-0.704,-2.694,-9.258,-0.223,-3.75,13.86,4.55,-2.17
,-9.316,-0.976,-2.953,-8.945,-0.388,-3.817,16.87,6.86,-0.28
,-9.536,-0.859,-3.281,-8.765,-0.586,-3.905,20.23,8.54,1.26
,-9.418,-0.4,-3.582,-8.748,-0.864,-4.171,20.44,9.17,1.75
4088.0,-8.677,-0.919,-4.487,-8.184,-2.58,-4.934,6.16,11.9,0.56
,-8.665,-1.0,-4.535,-8.098,-3.556,-4.865,5.46,12.18,-0.35
,-8.784,-1.089,-4.793,-8.153,-3.738,-5.114,5.04,11.97,-1.54
,-8.524,-1.326,-4.817,-8.323,-3.321,-5.214,4.62,11.27,-3.43
4164.0,-8.758,-2.843,-5.193,-8.844,-2.723,-5.063,39.27,13.65,-5.46
,-8.78,-2.534,-5.408,-9.05,-2.692,-5.013,42.49,12.67,-7.56
,-8.701,-2.666,-5.372,-9.16,-2.462,-4.968,43.26,11.34,-10.01
,-8.598,-2.761,-5.114,-9.107,-2.405,-4.972,44.94,10.15,-11.9
4239.0,-9.074,-2.747,-4.891,-9.342,-1.945,-4.173,52.43,3.78,-21.14
,-9.1,-3.29,-4.719,-9.416,-1.639,-4.042,55.02,2.87,-21.7
,-9.1,-3.185,-4.487,-9.383,-1.309,-4.106,60.34,1.96,-22.4
,-9.237,-2.431,-4.341,-9.308,-1.462,-4.101,65.31,1.47,-23.52
4315.0,-9.232,-1.795,-3.977,-9.055,-2.161,-4.006,51.52,-0.28,-33.53
,-9.115,-2.0,-3.912,-9.028,-2.039,-3.972,49.84,-0.35,-34.44
,-9.103,-1.981,-3.9,-9.06,-1.67,-4.128,49.91,-0.35,-34.93
,-9.095,-1.833,-3.929,-9.179,-1.519,-3.97,50.4,-0.07,-34.58
4391.0,-9.289,-1.165,-4.101,-9.129,-1.826,-3.9,57.19,-2.1,-31.92
,-9.239,-1.204,-4.116,-8.878,-1.756,-3.666,54.11,-3.5,-32.41
,-9.127,-1.278,-3.92,-8.971,-1.254,-3.451,51.73,-4.83,-32.13
,-9.131,-1.364,-3.984,-9.074,-0.981,-3.788,50.26,-5.88,-31.43
4467.0,-9.012,-1.208,-3.534,-8.768,-1.807,-3.199,44.38,-9.38,-28.98
,-8.961,-1.474,-3.475,-8.835,-1.864,-2.979,39.9,-10.08,-28.0
,-8.899,-1.586,-3.343,-9.048,-1.419,-3.013,35.63,-10.85,-27.65
,-8.703,-1.608,-3.242,-8.856,-0.986,-3.302,31.78,-10.85,-26.67
4542.0,-8.775,-1.048,-3.139,-8.804,-1.713,-3.137,14.07,-8.96,-25.62
,-8.918,-1.18,-3.281,-8.722,-1.922,-3.132,8.12,-8.26,-25.13
,-8.847,-1.651,-3.376,-8.679,-1.792,-3.214,3.29,-7.7,-24.5
,-8.835,-1.826,-3.271,-8.782,-1.704,-3.132,2.45,-7.21,-22.89
4618.0,-8.799,-1.632,-2.982,-8.279,-2.0,-2.903,-7.35,-7.49,-15.61
,-8.717,-1.567,-2.955,-8.313,-1.866,-2.984,-10.01,-7.14,-14.63
,-8.519,-1.785,-2.95,-8.16,-1.905,-3.281,-13.65,-6.23,-14.77
,-8.363,-2.065,-2.79,-8.126,-2.496,-3.424,-16.45,-4.76,-13.93
4693.0,-8.167,-2.647,-3.424,-8.282,-2.74,-3.721,-25.48,6.72,-7.35
,-8.186,-2.0,-3.429,-8.433,-3.068,-3.731,-23.31,7.56,-5.25
,-8.22,-1.22,-3.534,-8.557,-3.08,-3.625,-27.16,8.82,-3.85
,-8.251,-1.828,-3.565,-8.686,-2.776,-3.283,-35.07,9.1,-2.66
4769.0,-8.593,-2.594,-3.252,-8.832,-2.67,-3.458,-19.04,7.28,12.6
,-8.653,-2.659,-3.204,-8.71,-2.977,-3.628,-17.22,7.49,15.61
,-8.593,-2.714,-3.118,-8.641,-3.23,-3.855,-15.33,8.33,18.48
,-8.614,-2.568,-3.379,-8.811,-3.479,-4.25,-13.65,9.45,20.44
4845.0,-8.792,-3.4,-4.477,-8.935,-2.175,-4.408,-4.06,13.3,30.24
,-8.737,-3.087,-4.58,-8.863,-2.517,-4.319,-1.54,11.83,30.45
,-8.808,-2.838,-4.53,-8.897,-2.941,-4.147,-2.66,9.73,29.61
,-8.935,-2.467,-4.499,-9.04,-3.216,-3.953,-4.97,8.26,28.49
4921.0,-9.088,-3.015,-3.821,-9.112,-0.268,-3.855,1.05,6.58,35.56
,-9.253,-2.477,-3.716,-9.031,-1.563,-3.762,10.15,6.65,39.76
,-8.835,-0.483,-3.939,-8.89,-2.477,-3.707,13.93,6.44,40.67
,-9.05,0.333,-4.049,-9.316,-2.761,-3.862,6.23,5.11,38.36
4996.0,-9.301,-2.644,-3.929,-9.897,-1.788,-4.621,-28.35,1.96,24.64
,-9.569,-2.302,-4.264,-9.643,-2.012,-4.503,-29.89,1.47,23.8
,-9.787,-1.831,-4.731,-9.385,-1.665,-3.994,-34.37,0.35,21.56
,-9.878,-1.591,-4.86,-9.074,-0.926,-3.826,-41.58,-1.4,19.18
5072.0,-9.229,-0.73,-3.774,-8.808,-0.816,-3.92,-60.62,-6.3,14.07
,-9.28,-0.737,-3.848,-9.019,-0.773,-4.128,-60.69,-6.37,14.07
,-9.103,-0.988,-3.778,-9.009,-0.641,-4.35,-58.17,-6.16,15.54
,-8.88,-1.082,-3.704,-8.993,-0.718,-4.647,-51.31,-5.88,17.99
5148.0,-8.837,-1.015,-4.649,-9.308,-0.371,-4.389,-29.4,-6.65,22.82
,-8.768,-0.89,-4.649,-9.34,0.098,-4.472,-28.49,-7.21,22.47
,-9.064,-0.641,-4.726,-9.086,0.294,-4.57,-27.44,-7.77,22.12
,-9.229,-0.61,-4.52,-8.966,-0.127,-4.527,-25.48,-8.12,22.61
5224.0,-9.241,-0.23,-4.365,-9.237,0.469,-3.778,-6.02,-9.59,23.87
,-9.234,-0.311,-4.259,-9.086,0.098,-3.625,-3.01,-9.8,23.66
,-9.246,0.062,-4.106,-9.232,-0.141,-3.597,-0.98,-9.73,23.17
,-9.433,0.342,-3.778,-9.38,-0.036,-3.585,-1.19,-9.87,21.91
5300.0,-9.275,0.184,-3.618,-9.476,0.605,-3.364,-4.97,-8.82,17.15
,-9.165,-0.309,-3.3,-9.555,0.313,-3.34,-4.27,-8.05,16.94
,-9.091,-0.179,-3.18,-9.404,-0.211,-3.362,-1.12,-7.56,16.8
,-9.383,0.373,-3.324,-8.815,-0.701,-3.321,0.98,-6.86,16.17
5375.0,-9.064,-0.548,-3.415,-9.648,0.608,-3.431,1.82,-4.69,14.42
,-9.32,0.012,-3.527,-9.789,0.282,-3.556,3.29,-4.13,14.21
,-9.196,0.282,-3.479,-9.067,-0.33,-3.424,1.4,-3.71,13.58
,-9.342,0.325,-3.439,-8.94,-0.28,-3.372,-1.05,-3.43,12.67
5451.0,-9.289,0.302,-3.364,-9.471,0.866,-3.135,5.11,-1.19,12.25
,-9.399,0.555,-3.297,-9.442,0.991,-3.18,4.27,-0.7,11.97
,-9.318,0.385,-3.147,-9.237,0.852,-3.154,2.03,-0.28,11.27
,-9.22,0.409,-3.029,-9.541,0.995,-3.003,1.4,0.49,10.57
5526.0,-9.679,1.24,-3.034,-9.122,-0.108,-3.781,-11.83,0.49,0.91
,-9.423,0.694,-3.113,-8.952,0.103,-3.939,-18.13,0.0,-0.56
,-9.241,-0.278,-3.19,-9.086,0.302,-4.001,-18.97,0.56,-0.14
,-9.177,-0.414,-3.458,-9.258,0.311,-4.068,-14.21,1.33,0.56
5602.0,-9.1,0.519,-3.881,-9.234,0.201,-3.723,-10.08,1.47,0.56
,-9.021,0.912,-3.807,-9.203,-0.175,-3.81,-10.85,0.91,-0.07
,-9.038,0.847,-3.764,-9.105,-0.352,-3.917,-12.46,0.28,-0.21
,-9.131,0.589,-3.618,-9.086,-0.471,-3.932,-13.02,0.14,-0.07
5678.0,-9.165,-0.313,-3.936,-9.103,0.634,-3.661,-5.46,0.98,2.1
,-9.306,-0.06,-3.936,-9.222,0.648,-3.707,-3.29,1.26,2.52
,-9.268,0.223,-3.836,-9.155,0.402,-3.656,-1.89,1.26,2.52
,-9.15,0.474,-3.697,-9.282,0.246,-3.594,-1.19,0.98,2.52
5754.0,-9.323,0.517,-3.527,-8.66,-1.393,-3.376,-2.03,0.42,1.68
,-9.337,0.464,-3.245,-8.622,-2.072,-3.135,-4.62,-0.14,0.91
,-9.497,1.307,-3.496,-9.265,0.148,-3.264,-5.04,0.07,-0.14
,-9.416,1.448,-3.637,-9.909,1.237,-3.25,-7.91,-0.07,-0.28
5829.0,-9.658,1.295,-3.118,-10.074,2.187,-3.419,11.13,5.39,6.09
,-9.34,0.613,-2.812,-9.916,1.969,-3.754,7.84,6.02,5.67
,-8.794,0.622,-2.654,-9.459,1.232,-4.042,8.82,7.07,5.11
,-9.418,1.498,-2.962,-9.117,0.481,-4.377,10.64,7.63,4.2
5905.0,-9.009,-0.325,-4.724,-9.007,-0.223,-4.63,-10.01,3.08,-4.48
,-8.811,-0.519,-4.846,-9.1,-0.132,-4.389,-6.09,2.31,-3.36
,-8.961,-0.56,-4.905,-9.177,-0.01,-4.075,-1.89,1.75,-2.59
,-8.997,-0.603,-4.728,-9.127,0.223,-3.85,2.24,1.12,-1.54
5980.0,-9.064,0.392,-3.565,-9.304,0.524,-2.967,19.88,-0.84,4.55
,-9.028,0.653,-3.393,-9.337,0.285,-2.845,20.16,-0.63,4.76
,-9.268,0.735,-3.24,-9.284,0.115,-2.869,18.27,-0.56,4.2
,-9.418,0.629,-3.037,-9.33,-0.012,-3.037,14.77,-0.56,3.36
6056.0,-9.301,-0.017,-3.238,-9.206,-0.034,-3.855,7.21,2.73,1.26
,-9.275,-0.11,-3.34,-9.196,-0.029,-3.991,7.14,3.29,1.47
,-9.213,-0.16,-3.51,-9.179,0.048,-3.994,7.63,3.64,1.54
,-9.186,-0.103,-3.685,-9.158,0.256,-3.958,8.47,3.85,2.03
6132.0,-9.141,0.404,-3.843,-9.162,0.321,-3.489,9.24,3.01,2.45
,-9.186,0.409,-3.814,-9.165,0.139,-3.53,8.05,2.59,2.17
,-9.215,0.436,-3.728,-9.153,0.194,-3.475,7.28,2.52,1.96
,-9.191,0.464,-3.558,-9.17,0.251,-3.664,6.44,2.03,1.68
6208.0,-9.203,0.206,-3.8,-9.117,0.235,-3.781,3.92,2.52,1.47
,-9.079,0.179,-3.8,-9.158,0.249,-3.702,3.29,2.38,1.4
,-9.079,0.089,-3.814,-9.201,0.254,-3.678,3.22,2.38,1.61
,-9.079,0.084,-3.843,-9.222,0.28,-3.74,3.57,2.45,1.82
6284.0,-9.172,0.299,-3.695,-9.136,0.357,-3.664,1.47,1.68,1.4
,-9.167,0.366,-3.757,-9.107,0.232,-3.582,1.33,1.61,1.19
,-9.139,0.436,-3.666,-9.127,0.179,-3.587,0.56,1.61,0.84
,-9.16,0.419,-3.687,-9.177,0.225,-3.577,0.07,1.47,0.49
6359.0,-9.129,0.151,-3.556,-9.232,0.005,-3.419,-1.26,1.89,0.98
,-9.083,0.036,-3.525,-9.1,-0.378,-3.324,-1.96,2.03,0.98
,-9.208,0.089,-3.522,-8.961,-0.823,-3.238,-2.17,2.31,0.98
,-9.256,0.026,-3.51,-9.028,-0.256,-3.199,-1.89,2.73,1.19
6435.0,-9.445,0.091,-3.551,-9.34,0.572,-4.008,4.27,5.95,4.06
,-9.174,-0.579,-3.649,-9.67,1.139,-4.056,-0.07,5.88,4.41
,-8.629,-0.833,-3.537,-9.612,1.039,-3.817,-1.33,5.95,4.9
,-8.825,-0.531,-3.716,-9.316,0.948,-3.644,-0.35,6.23,4.55
6511.0,-9.0,0.95,-3.711,-9.076,1.132,-4.47,-11.9,3.85,-0.49
,-9.0,1.426,-3.879,-9.134,0.479,-4.472,-8.47,3.29,-0.49
,-9.155,1.917,-4.214,-9.203,0.546,-4.523,-7.7,2.52,-0.98
,-9.196,1.634,-4.401,-9.263,0.546,-4.465,-11.2,1.68,-2.03
6587.0,-9.182,0.656,-4.35,-9.165,0.586,-3.719,-12.25,-1.54,-4.13
,-9.253,0.725,-4.262,-9.287,0.936,-3.652,-12.46,-2.31,-4.2
,-9.304,0.447,-4.123,-9.282,0.641,-3.384,-11.9,-2.45,-4.34
,-9.229,0.158,-3.946,-9.206,0.333,-3.161,-8.82,-2.31,-3.71
6662.0,-9.296,0.292,-3.125,-9.232,0.44,-3.192,-0.14,0.07,-2.59
,-9.184,0.309,-2.991,-9.146,0.44,-3.223,1.68,0.91,-2.38
,-9.158,0.491,-3.056,-9.316,0.57,-3.386,3.22,1.75,-2.31
,-9.332,0.66,-3.156,-9.167,0.479,-3.36,3.57,2.59,-2.66
6738.0,-9.112,0.546,-3.506,-9.005,0.168,-3.733,1.47,4.97,-3.64
,-9.124,0.555,-3.62,-9.127,0.366,-3.774,-0.49,4.83,-4.27
,-9.227,0.577,-3.714,-9.294,0.27,-3.628,-2.45,4.69,-4.9
,-9.139,0.318,-3.836,-9.292,0.464,-3.367,-4.9,4.69,-5.53
6813.0,-9.342,0.605,-3.331,-9.206,0.567,-3.783,-7.28,6.09,-6.65
,-9.373,0.732,-3.312,-9.134,0.237,-3.944,-7.7,6.58,-7.14
,-9.347,0.55,-3.376,-8.976,0.055,-3.872,-8.54,7.28,-7.35
,-9.222,0.51,-3.542,-9.086,0.407,-4.051,-8.05,7.91,-7.7
6889.0,-8.983,0.653,-4.209,-8.973,0.225,-4.2,1.68,8.33,-7.84
,-8.976,0.658,-4.259,-9.143,0.567,-4.125,1.82,7.77,-7.91
,-9.165,0.364,-4.379,-9.191,0.751,-4.056,2.38,7.49,-8.12
,-9.012,0.146,-4.286,-9.304,0.541,-3.994,3.92,7.21,-8.05
6965.0,-9.127,0.45,-3.905,-9.024,0.11,-3.838,6.93,6.09,-10.08
,-9.009,0.421,-4.022,-9.186,0.249,-3.68,7.28,5.88,-10.5
,-9.143,0.096,-4.058,-9.222,0.632,-3.853,6.86,6.02,-10.71
,-8.985,0.081,-3.912,-9.201,0.194,-3.879,7.63,6.16,-10.64
7041.0,-9.05,0.337,-3.867,-9.115,0.246,-4.003,9.59,7.63,-12.53
,-9.165,0.617,-4.099,-9.16,0.337,-3.939,10.01,7.56,-13.51
,-9.251,0.306,-4.068,-9.024,0.507,-4.022,9.03,7.56,-14.07
,-9.052,0.179,-3.991,-8.933,0.201,-4.02,9.66,7.56,-14.35
7116.0,-8.89,0.163,-4.042,-9.007,0.074,-3.888,15.19,8.47,-16.87
,-9.064,0.218,-4.022,-9.052,0.069,-3.85,16.03,8.75,-17.71
,-9.098,0.278,-3.975,-9.155,0.065,-3.898,16.1,8.75,-18.34
,-9.165,0.464,-3.96,-9.091,-0.179,-3.92,16.45,8.82,-19.32
7192.0,-9.043,-0.045,-4.171,-9.062,-0.302,-3.86,20.23,10.43,-23.38
,-9.028,0.079,-4.111,-8.957,-0.364,-3.805,21.07,10.64,-24.29
,-9.177,0.184,-3.972,-8.966,-0.144,-3.946,20.51,10.64,-25.41
,-9.122,-0.014,-3.927,-8.993,-0.115,-4.032,19.46,10.71,-26.6
7268.0,-9.05,-0.117,-4.034,-9.139,-0.153,-3.788,19.46,11.62,-31.78
,-9.064,-0.455,-3.932,-9.165,-0.639,-3.79,19.11,11.62,-32.76
,-9.031,-0.371,-3.9,-9.131,-0.993,-3.936,20.16,11.83,-33.53
,-9.055,-0.201,-3.853,-9.072,-1.213,-4.185,21.07,11.97,-34.3
7344.0,-9.127,-1.546,-4.279,-9.452,-2.596,-4.527,25.27,13.16,-35.84
,-9.105,-1.888,-4.329,-9.646,-2.895,-4.537,27.93,13.44,-34.86
,-9.005,-2.168,-4.403,-9.646,-3.161,-4.58,29.75,13.58,-33.88
,-9.186,-2.565,-4.374,-9.476,-3.202,-4.525,32.62,13.58,-32.48
7420.0,-9.531,-2.8,-4.692,-9.196,-2.386,-4.515,42.98,12.88,-22.12
,-9.497,-2.613,-4.628,-9.088,-2.362,-4.63,42.84,12.67,-20.58
,-9.529,-2.343,-4.57,-8.909,-2.752,-4.664,40.74,11.69,-19.95
,-9.457,-2.379,-4.58,-8.684,-3.163,-4.542,36.61,10.5,-20.44
7495.0,-8.598,-3.001,-4.549,-8.198,-2.536,-4.582,19.6,6.79,-21.77
,-8.538,-2.584,-4.779,-8.165,-2.687,-4.391,20.65,6.23,-21.49
,-8.373,-2.414,-4.836,-8.122,-2.735,-4.281,19.46,5.25,-21.63
,-8.227,-2.371,-4.776,-8.148,-2.752,-4.094,17.57,4.13,-21.28
7571.0,-8.272,-2.419,-4.14,-8.193,-2.041,-3.939,22.12,2.8,-13.79
,-8.361,-2.0,-4.228,-8.136,-2.17,-3.946,22.47,2.45,-12.11
,-8.332,-1.771,-4.137,-8.196,-2.237,-4.063,20.58,1.54,-10.71
,-8.311,-1.807,-4.039,-8.256,-2.486,-4.283,17.85,0.98,-9.31
7646.0,-8.5,-2.917,-4.441,-7.791,-2.879,-4.298,20.58,-0.21,-0.21
,-8.119,-2.946,-4.908,-7.937,-2.479,-4.037,25.55,0.0,2.59
,-8.129,-3.331,-4.669,-8.009,-1.421,-3.932,32.62,0.42,7.21
,-7.976,-3.412,-4.573,-8.299,-0.756,-3.951,42.42,1.54,11.27
7722.0,-8.576,0.268,-3.874,-8.483,-0.4,-4.623,64.33,15.47,32.69
,-8.646,0.739,-4.834,-8.198,-0.933,-4.456,52.85,15.47,33.18
,-8.626,0.625,-5.2,-8.186,-1.661,-4.25,36.12,12.46,33.74
,-8.598,0.263,-5.018,-8.169,-2.414,-4.118,19.53,8.05,35.42
7798.0,-8.153,-2.601,-4.063,-8.827,0.12,-4.369,8.33,5.95,46.69
,-8.126,-2.0,-3.795,-8.921,0.026,-4.439,13.23,8.05,49.07
,-8.112,-1.108,-3.711,-8.413,-0.438,-4.594,13.93,10.43,50.47
,-8.265,-0.191,-3.788,-8.066,-2.611,-4.736,10.01,12.6,50.82
7874.0,-7.997,-4.542,-4.544,-8.38,-1.692,-4.903,-33.46,15.05,48.86
,-8.057,-4.111,-4.671,-8.512,-1.534,-4.733,-18.9,16.24,52.29
,-8.136,-2.955,-4.791,-8.717,-1.084,-4.805,-6.02,16.8,53.69
,-8.399,-2.094,-4.716,-8.832,-0.4,-4.812,-1.61,16.31,52.64
7949.0,-9.098,-0.335,-4.984,-8.507,-4.776,-5.331,-32.48,7.77,34.79
,-9.206,-0.713,-4.975,-8.495,-4.008,-5.319,-45.43,5.53,29.54
,-9.234,-1.421,-5.413,-8.911,-2.68,-5.26,-55.79,3.29,25.13
,-8.729,-3.494,-5.482,-9.153,-1.883,-5.219,-63.21,1.68,23.31
8025.0,-9.165,-1.517,-4.786,-9.562,-0.84,-4.664,-29.75,-8.47,22.19
,-8.935,-0.737,-4.714,-9.318,-1.4,-4.403,-34.16,-11.55,18.62
,-9.287,-0.333,-4.956,-9.014,-2.12,-4.575,-42.56,-14.14,14.28
,-9.579,-0.354,-4.826,-8.892,-2.869,-4.262,-53.34,-17.01,9.94
8101.0,-9.048,-2.757,-4.307,-9.074,-1.778,-4.113,-71.26,-22.82,-2.38
,-9.182,-2.108,-4.178,-9.028,-1.79,-4.003,-66.43,-22.68,-2.73
,-9.227,-1.783,-4.147,-8.966,-1.656,-3.879,-64.96,-23.03,-3.71
,-9.158,-1.831,-4.066,-9.069,-1.742,-3.915,-65.52,-23.8,-5.25
8177.0,-9.105,-1.967,-3.817,-9.007,-1.948,-3.506,-62.51,-23.73,-8.47
,-9.153,-2.288,-3.709,-8.971,-1.512,-3.685,-58.59,-23.1,-8.19
,-8.964,-2.477,-3.589,-8.923,-1.385,-3.759,-52.85,-21.98,-7.14
,-8.897,-2.431,-3.386,-8.88,-1.51,-3.845,-44.87,-20.02,-5.11
8253.0,-8.765,-1.649,-3.85,-8.241,-2.943,-4.322,-18.62,-12.6,2.45
,-8.411,-1.862,-4.178,-8.241,-1.534,-4.508,-12.11,-10.85,4.41
,-8.174,-2.395,-4.523,-8.189,-0.639,-4.819,-3.64,-6.58,7.63
,-8.275,-3.47,-4.547,-8.258,-1.046,-4.874,6.3,-3.08,8.96
8328.0,-8.244,-1.948,-4.884,-8.971,-0.696,-5.047,14.63,3.01,3.71
,-8.681,-1.534,-5.025,-9.1,-0.44,-4.724,17.01,4.27,2.87
,-9.052,-0.632,-5.126,-9.1,0.165,-4.422,18.2,3.36,1.4
,-9.098,-0.507,-5.068,-9.021,0.371,-4.343,16.59,1.19,-0.14
8404.0,-8.887,0.342,-4.269,-9.686,1.314,-3.836,32.97,-0.84,10.36
,-8.806,0.44,-4.156,-9.928,1.374,-3.798,38.99,-0.91,12.95
,-9.153,0.79,-4.25,-9.952,1.015,-3.498,43.96,-1.4,14.77
,-9.497,1.07,-4.087,-9.773,0.376,-3.546,45.08,-2.17,15.96
8480.0,-9.574,-0.589,-3.314,-9.304,-0.737,-2.953,8.75,-6.79,5.88
,-9.318,-1.177,-3.106,-9.227,-0.483,-2.855,3.29,-6.09,3.99
,-9.215,-1.366,-3.089,-9.342,-0.313,-2.915,0.21,-4.76,2.52
,-9.316,-1.055,-3.013,-9.316,-0.191,-3.092,-2.1,-3.36,1.47
8556.0,-9.249,-0.029,-3.257,-9.28,0.517,-3.888,-12.04,0.91,0.21
,-9.237,0.086,-3.527,-9.225,0.431,-3.97,-9.94,1.68,0.98
,-9.28,0.122,-3.685,-9.05,0.235,-4.015,-7.07,2.1,1.96
,-9.33,0.385,-3.721,-9.009,0.196,-4.142,-3.5,2.45,2.94
8631.0,-9.036,0.115,-4.221,-9.024,-0.634,-4.159,2.8,0.56,2.87
,-9.098,0.007,-4.396,-9.062,-0.38,-4.061,2.87,0.28,2.8
,-9.043,-0.144,-4.29,-9.15,0.022,-4.061,2.66,-0.21,2.8
,-8.983,-0.445,-4.219,-9.196,-0.05,-4.039,2.66,-0.7,2.94
8707.0,-9.086,-0.574,-3.896,-9.373,0.847,-3.439,2.1,-2.17,3.64
,-9.016,-0.385,-3.673,-9.33,0.541,-3.29,4.41,-2.03,4.62
,-9.246,0.081,-3.609,-9.318,0.246,-3.221,7.28,-1.61,4.9
,-9.397,0.653,-3.503,-9.294,0.199,-3.266,7.77,-1.54,4.41
8782.0,-9.385,0.278,-3.369,-9.17,0.017,-3.384,0.91,-0.84,1.68
,-9.332,0.34,-3.427,-9.258,0.029,-3.355,0.7,-0.7,1.4
,-9.244,0.373,-3.451,-9.292,0.086,-3.448,-0.28,-0.35,1.05
,-9.172,0.297,-3.479,-9.313,0.148,-3.479,-1.68,-0.21,0.56
8858.0,-9.289,0.091,-3.609,-9.158,0.05,-3.8,-1.82,1.54,0.21
,-9.158,-0.108,-3.656,-9.11,0.304,-3.793,-0.98,1.89,0.63
,-9.196,0.007,-3.769,-9.194,0.342,-3.788,0.98,1.89,0.84
,-9.203,0.029,-3.855,-9.253,0.287,-3.754,2.1,1.96,0.98
8934.0,-9.371,0.244,-3.743,-9.445,0.101,-3.551,2.59,1.89,0.42
,-9.34,0.175,-3.661,-9.409,-0.01,-3.522,3.22,2.03,0.56
,-9.292,0.129,-3.654,-9.732,-0.115,-3.577,4.2,1.96,0.56
,-9.385,0.203,-3.692,-10.156,-0.278,-3.644,4.9,1.96,0.77
9010.0,-10.002,-0.354,-3.888,-9.191,-0.306,-4.714,4.76,3.15,-2.45
,-9.497,-0.371,-3.963,-9.241,-0.629,-4.807,5.46,2.87,-3.71
,-9.289,-0.235,-4.221,-9.318,-0.854,-4.618,6.51,2.73,-4.2
,-9.244,-0.333,-4.413,-9.165,-0.727,-4.298,7.28,2.59,-5.04
9085.0,-9.048,-0.306,-3.601,-9.134,-1.196,-2.625,23.45,3.01,0.7
,-9.129,0.086,-3.235,-9.088,-1.869,-2.788,21.35,3.71,0.84
,-9.134,-0.321,-2.991,-9.093,-2.01,-2.819,15.96,4.9,0.56
,-9.062,-0.744,-2.785,-8.99,-1.204,-3.238,11.13,6.37,0.56
9161.0,-8.921,-1.082,-3.726,-8.406,-3.364,-4.92,7.28,19.67,-0.21
,-8.686,-2.065,-4.02,-8.804,-3.032,-4.75,4.41,21.91,-1.05
,-8.339,-3.092,-4.312,-8.894,-2.644,-4.815,7.63,24.22,-1.26
,-8.246,-3.53,-4.57,-8.732,-2.766,-4.709,17.08,26.6,-1.05
9236.0,-8.653,-2.702,-4.707,-8.885,-3.422,-4.647,44.52,23.17,-8.75
,-8.681,-2.67,-4.91,-8.856,-3.192,-4.434,45.5,20.93,-11.69
,-8.624,-2.934,-4.91,-8.751,-2.603,-4.496,46.55,18.41,-13.65
,-8.689,-3.147,-4.819,-9.024,-2.414,-4.602,49.49,15.47,-15.33
9312.0,-9.342,-2.347,-4.515,-9.411,-1.914,-4.216,63.49,5.11,-24.22
,-9.411,-2.115,-4.439,-9.361,-1.68,-4.451,63.07,3.22,-26.67
,-9.304,-2.027,-4.302,-9.225,-2.249,-4.386,61.74,1.96,-28.49
,-9.356,-2.163,-4.166,-9.17,-2.376,-4.305,60.55,1.4,-29.33
9388.0,-9.232,-2.079,-4.386,-9.131,-1.438,-4.348,63.35,-0.14,-29.96
,-9.074,-2.359,-4.317,-9.253,-1.165,-4.286,64.33,-0.28,-29.47
,-8.849,-2.438,-4.178,-9.308,-1.263,-4.336,66.99,-0.63,-28.7
,-8.952,-1.895,-4.264,-9.289,-1.362,-4.212,70.28,-0.63,-28.14
9464.0,-8.947,-1.534,-4.176,-9.086,-1.579,-4.185,50.54,-5.74,-34.58
,-8.961,-1.771,-4.087,-8.93,-1.565,-3.941,46.2,-5.6,-35.0
,-8.935,-1.271,-4.113,-8.866,-1.673,-3.817,43.4,-5.32,-35.49
,-8.978,-1.393,-4.164,-8.894,-1.505,-3.867,38.71,-4.62,-35.84
9540.0,-8.866,-0.897,-4.049,-8.334,-2.146,-3.702,24.29,-3.5,-32.34
,-8.799,-0.68,-4.14,-8.153,-1.895,-3.781,17.36,-3.99,-33.25
,-8.65,-0.833,-3.944,-8.184,-1.596,-3.857,8.82,-4.48,-34.09
,-8.471,-1.534,-3.941,-8.323,-1.342,-4.056,1.68,-4.06,-33.95
9615.0,-8.378,-1.225,-4.338,-8.186,-1.814,-3.472,-10.36,1.26,-28.0
,-8.466,-1.091,-4.113,-8.177,-1.598,-3.463,-14.35,0.07,-26.74
,-8.366,-1.268,-3.85,-8.356,-1.323,-2.986,-21.14,-1.75,-25.9
,-8.212,-1.732,-3.699,-8.186,-1.141,-3.082,-27.44,-2.94,-25.2
9691.0,-8.062,-1.799,-3.209,-8.064,-2.216,-3.635,-36.89,-2.17,-17.85
,-8.026,-2.663,-3.312,-8.191,-2.611,-3.618,-37.8,-0.84,-15.4
,-8.031,-3.156,-3.388,-8.435,-2.62,-3.728,-33.32,-0.07,-12.11
,-7.918,-2.702,-3.508,-8.643,-2.268,-3.85,-26.46,1.61,-8.26
9767.0,-8.727,-1.965,-3.953,-8.689,-2.919,-3.764,-17.64,4.69,6.37
,-8.497,-1.955,-4.022,-8.533,-3.01,-3.932,-19.53,3.22,7.98
,-8.614,-2.24,-3.841,-8.483,-3.297,-4.106,-21.21,2.94,10.36
,-8.681,-2.642,-3.778,-8.703,-3.338,-4.171,-21.07,3.5,13.02
9843.0,-8.665,-2.898,-4.2,-8.696,-1.397,-4.614,4.34,9.94,32.76
,-8.713,-2.419,-4.195,-8.727,-1.711,-4.535,10.08,10.01,36.47
,-8.744,-1.811,-4.336,-8.725,-2.067,-4.427,13.51,9.31,38.64
,-8.667,-1.256,-4.523,-8.71,-2.111,-4.302,12.25,8.26,39.06
9918.0,-8.734,-1.79,-4.145,-8.887,-2.675,-4.006,4.76,3.36,40.39
,-8.763,-1.271,-4.166,-8.961,-2.678,-3.996,3.29,2.52,40.18
,-8.847,-1.405,-4.24,-9.268,-2.158,-3.987,-1.33,1.4,39.13
,-8.856,-2.01,-4.159,-9.667,-1.725,-4.106,-6.02,0.91,38.08
9994.0,-9.797,-1.39,-4.147,-9.78,-2.029,-3.972,-20.65,-0.91,30.59
,-9.694,-1.469,-4.362,-10.024,-1.165,-3.838,-31.5,-2.24,27.37
,-9.809,-2.168,-4.262,-10.01,-1.256,-3.604,-40.6,-3.15,24.43
,-9.835,-2.477,-4.14,-9.493,-1.766,-3.668,-44.73,-3.57,22.4
10069.0,-9.232,-1.46,-3.592,-8.342,-1.019,-4.314,-49.28,-2.87,22.54
,-9.174,-0.601,-3.611,-8.66,-0.981,-4.429,-43.89,-2.31,23.31
,-8.976,0.112,-4.046,-8.964,-0.56,-4.709,-42.7,-2.31,22.68
,-8.557,-0.646,-4.116,-9.134,-0.168,-5.095,-45.01,-2.59,22.12
10145.0,-9.028,-0.701,-4.987,-8.758,-0.737,-5.011,-34.09,-5.18,21.14
,-8.533,-1.01,-4.994,-8.938,-0.45,-4.721,-31.99,-6.23,21.28
,-8.55,-0.67,-5.063,-9.098,0.156,-4.769,-27.86,-7.14,21.28
,-8.739,-0.581,-5.128,-9.208,0.302,-4.561,-25.69,-7.91,21.28
10221.0,-9.088,0.402,-4.494,-9.349,0.436,-4.049,-18.55,-11.48,20.23
,-9.112,0.034,-4.477,-9.036,0.373,-3.86,-19.11,-12.04,19.46
,-9.146,-0.048,-4.319,-9.086,-0.392,-3.489,-17.36,-12.11,18.69
,-9.167,0.208,-4.259,-9.287,-0.648,-3.312,-15.19,-12.32,18.27
10297.0,-9.347,-0.687,-3.166,-9.282,-0.069,-3.723,-8.89,-10.36,16.8
,-9.689,-0.261,-3.218,-9.16,0.215,-3.893,-5.11,-9.03,16.52
,-9.765,0.055,-3.271,-9.1,0.445,-3.922,-3.78,-7.91,15.96
,-9.469,-0.096,-3.417,-9.086,0.519,-3.836,-2.59,-6.58,15.47
10373.0,-9.227,0.593,-3.635,-9.134,0.089,-3.455,6.51,-3.57,13.51
,-9.308,0.988,-3.553,-9.064,0.239,-3.649,3.78,-3.92,11.48
,-9.208,0.67,-3.398,-9.064,0.012,-3.687,0.14,-4.13,10.57
,-9.127,0.388,-3.415,-9.182,0.029,-3.611,-1.33,-4.06,10.08
10448.0,-9.11,0.187,-3.637,-9.11,1.079,-3.786,-6.23,-3.43,8.75
,-9.256,0.67,-3.606,-8.993,0.919,-3.649,-5.18,-3.15,8.54
,-9.273,1.043,-3.623,-9.172,1.388,-3.494,-4.34,-2.87,8.26
,-9.586,1.117,-3.788,-9.045,1.228,-3.25,-4.55,-3.36,7.0
10524.0,-9.167,0.66,-2.986,-9.304,-0.625,-3.228,-19.39,-4.55,1.05
,-9.213,-0.213,-2.941,-9.21,-0.084,-3.271,-20.16,-3.71,0.77
,-9.402,-0.732,-2.977,-9.44,0.22,-3.302,-15.82,-2.17,1.54
,-9.521,-0.727,-3.228,-9.294,0.199,-3.463,-10.22,-0.42,2.8
10600.0,-9.16,0.426,-3.551,-9.062,1.043,-3.831,-4.48,3.64,3.5
,-9.072,0.919,-3.683,-9.093,1.022,-3.86,-4.48,3.5,3.01
,-9.086,1.055,-3.891,-8.997,0.558,-3.788,-6.16,3.01,2.66
,-9.033,1.01,-3.912,-9.05,-0.225,-3.699,-8.33,2.45,2.59
10676.0,-8.978,-1.117,-3.719,-9.251,0.27,-4.044,-17.08,1.54,1.89
,-9.122,-0.713,-3.881,-9.368,0.371,-3.944,-10.15,2.45,3.5
,-9.225,-0.249,-3.972,-9.27,0.572,-3.936,-6.02,3.08,4.48
,-9.095,0.055,-4.02,-9.28,0.732,-3.927,-4.2,3.5,5.25
10751.0,-9.371,0.845,-4.018,-9.481,1.012,-3.793,5.46,4.13,6.09
,-9.014,1.048,-3.862,-9.481,1.491,-3.877,5.74,3.5,5.88
,-9.227,0.701,-4.044,-9.38,0.739,-4.056,6.58,3.36,5.74
,-9.588,1.067,-4.042,-8.368,-0.048,-3.817,11.13,3.78,5.74
10827.0,-8.299,-0.526,-3.479,-9.351,1.027,-3.171,14.42,2.94,6.93
,-9.139,-0.687,-3.513,-9.478,2.056,-3.321,13.16,3.78,6.23
,-9.483,-0.524,-3.482,-9.648,2.429,-3.51,10.15,4.69,5.46
,-9.299,0.007,-3.211,-9.361,2.302,-3.79,8.54,5.67,5.46
10902.0,-9.409,1.591,-4.111,-9.366,0.871,-4.125,0.56,4.69,0.0
,-9.005,-0.56,-4.161,-9.715,0.818,-3.955,3.22,4.62,1.47
,-8.229,-1.424,-4.022,-9.466,0.302,-3.47,12.53,4.48,4.13
,-8.413,-0.108,-4.08,-9.402,0.297,-3.096,19.67,4.62,4.27
10978.0,-9.361,1.139,-3.147,-8.808,-0.519,-3.982,-1.96,5.18,-2.31
,-9.198,1.874,-3.257,-8.906,-0.749,-4.305,-1.26,5.53,-2.17
,-9.067,1.515,-3.477,-8.942,-0.653,-4.489,-4.97,5.46,-2.87
,-8.911,0.402,-3.738,-8.871,0.005,-4.614,-6.86,5.74,-3.01
11054.0,-8.918,0.412,-4.774,-9.05,0.227,-4.034,17.01,6.16,3.64
,-8.849,0.311,-4.661,-9.074,0.304,-3.891,15.19,5.04,3.64
,-8.863,0.249,-4.491,-9.026,0.335,-3.781,14.07,4.27,3.5
,-8.949,0.249,-4.274,-9.208,0.424,-3.814,13.09,3.78,3.08
11130.0,-9.313,0.455,-3.924,-9.026,0.692,-4.226,7.98,2.8,1.96
,-9.16,0.57,-4.025,-8.985,0.613,-4.279,6.93,2.66,1.61
,-9.043,0.596,-4.051,-8.811,0.208,-4.197,6.09,2.31,1.4
,-9.045,0.641,-4.152,-8.832,0.203,-4.03,5.74,2.17,1.12
11205.0,-9.052,0.517,-4.075,-9.122,0.345,-3.781,5.04,0.42,0.42
,-9.15,0.641,-4.061,-9.064,0.428,-3.757,3.99,0.28,0.07
,-9.098,0.534,-3.929,-9.292,0.371,-3.745,2.31,-0.07,-0.14
,-9.167,0.431,-3.881,-9.22,0.266,-3.79,1.68,-0.42,-0.35
11281.0,-9.079,0.309,-3.814,-9.131,0.376,-3.996,3.08,0.56,0.0
,-9.079,0.352,-3.721,-9.064,0.237,-4.068,3.15,0.98,0.07
,-9.11,0.407,-3.762,-8.868,0.014,-4.161,2.8,1.47,0.14
,-9.186,0.426,-3.877,-8.861,0.124,-4.176,2.17,1.54,0.07
11356.0,-9.026,0.28,-4.128,-9.086,0.464,-4.003,1.82,0.56,0.28
,-9.057,0.457,-4.116,-9.129,0.591,-3.987,1.26,0.35,0.21
,-9.091,0.503,-4.078,-9.057,0.553,-3.929,0.35,0.28,0.14
,-9.088,0.462,-4.051,-9.052,0.5,-3.922,-0.14,-0.07,0.0
11432.0,-8.988,0.409,-3.848,-9.11,0.208,-3.932,-1.12,-1.26,-0.49
,-9.05,0.237,-3.824,-8.957,-0.012,-3.855,-0.98,-0.84,-0.35
,-9.162,0.316,-3.845,-9.019,-0.029,-3.884,-0.63,-0.77,-0.35
,-9.17,0.378,-3.841,-9.055,0.242,-3.9,-0.77,-0.7,-0.35
11508.0,-9.16,0.184,-3.891,-8.906,-0.022,-4.049,-0.42,-0.14,0.56
,-9.141,0.103,-3.886,-8.859,-0.529,-4.195,-0.21,-0.21,1.05
,-9.048,-0.12,-3.877,-8.454,-0.682,-4.149,-0.07,0.14,1.47
,-8.849,-0.124,-3.924,-8.815,-0.148,-4.257,1.12,0.21,1.82
11584.0,-9.409,0.474,-4.386,-8.516,0.0,-4.525,0.84,-0.7,1.89
,-9.421,1.225,-4.305,-8.686,0.136,-4.889,-0.28,-1.19,1.68
,-9.371,1.409,-4.401,-9.165,0.981,-4.944,-3.15,-2.03,0.91
,-8.921,0.577,-4.472,-9.567,1.732,-4.779,-7.0,-3.08,0.21
11660.0,-9.708,1.814,-4.164,-9.438,0.73,-2.481,-4.83,-7.28,-1.4
,-9.639,1.735,-3.525,-9.474,0.562,-2.635,-8.33,-7.98,-2.38
,-9.397,1.402,-2.874,-9.495,0.447,-2.797,-10.71,-8.05,-3.08
,-9.261,0.983,-2.623,-9.282,0.036,-2.783,-11.55,-7.14,-3.29
11735.0,-9.182,-0.194,-2.836,-9.182,0.615,-3.513,-3.57,-0.28,-2.52
,-9.237,0.194,-2.931,-9.105,0.641,-3.664,0.98,1.33,-1.61
,-9.361,0.412,-3.156,-9.026,0.565,-3.623,3.71,2.59,-1.26
,-9.306,0.534,-3.238,-8.928,0.299,-3.697,5.39,3.22,-0.84
11811.0,-9.052,0.211,-3.666,-9.5,0.687,-3.623,10.64,4.13,0.28
,-8.997,0.261,-3.661,-9.258,0.806,-3.659,8.89,4.13,-0.42
,-9.107,0.383,-3.632,-9.076,0.838,-3.829,5.95,4.06,-1.19
,-9.373,0.522,-3.64,-9.213,0.565,-3.977,3.5,4.27,-1.75
11887.0,-9.098,0.613,-4.022,-9.378,0.845,-3.812,-0.21,3.85,-3.64
,-9.083,0.45,-4.001,-9.105,0.773,-3.659,0.63,3.78,-3.36
,-9.088,0.316,-3.912,-9.251,0.553,-3.549,1.75,3.71,-3.08
,-9.287,0.531,-3.867,-9.146,0.658,-3.4,3.22,3.57,-3.78
11963.0,-9.105,0.675,-3.35,-9.239,0.483,-3.498,-4.76,3.43,-8.33
,-9.208,0.596,-3.319,-9.306,0.337,-3.494,-4.62,3.78,-8.4
,-9.115,0.768,-3.391,-9.351,0.148,-3.34,-4.55,4.27,-8.54
,-9.139,0.503,-3.424,-9.22,0.388,-3.288,-4.83,4.76,-8.61
12038.0,-9.325,0.493,-3.391,-9.196,0.452,-4.228,-4.2,7.56,-11.2
,-9.191,0.694,-3.467,-9.0,0.103,-4.264,-5.04,7.98,-11.9
,-9.119,0.651,-3.692,-8.935,0.012,-4.276,-6.16,8.4,-12.39
,-9.155,0.543,-3.908,-8.99,0.28,-4.262,-6.3,8.61,-12.67
12114.0,-9.069,0.28,-4.104,-9.052,0.263,-4.13,-2.1,8.68,-13.02
,-9.162,0.577,-3.989,-9.012,-0.069,-4.185,-1.75,8.47,-13.72
,-9.182,0.778,-4.089,-9.036,0.06,-4.128,-2.03,8.12,-14.49
,-9.191,0.402,-4.046,-9.031,0.065,-4.159,-2.24,8.12,-14.63
12189.0,-8.99,-0.084,-3.951,-9.088,0.474,-3.994,4.69,8.19,-15.12
,-9.055,0.414,-3.91,-9.074,0.045,-3.951,6.02,8.4,-15.82
,-9.21,0.445,-3.874,-8.983,-0.055,-3.838,5.32,8.54,-16.52
,-9.21,0.45,-3.862,-9.103,0.148,-3.888,5.11,8.68,-17.15
12265.0,-9.179,0.361,-3.754,-9.064,0.223,-4.235,12.81,11.06,-19.11
,-9.143,0.529,-3.819,-9.0,0.242,-4.477,12.53,11.48,-20.16
,-9.191,0.292,-3.924,-8.837,-0.081,-4.647,12.04,11.69,-21.07
,-9.105,0.124,-3.991,-8.847,-0.313,-4.654,13.72,12.04,-21.7
12341.0,-8.94,-0.144,-4.592,-8.983,-0.105,-3.673,21.56,11.55,-24.85
,-9.036,0.055,-4.451,-9.079,-0.251,-3.534,22.68,10.92,-25.69
,-9.079,-0.031,-4.121,-9.124,-0.177,-3.494,22.54,10.78,-26.6
,-9.007,-0.005,-3.853,-9.241,-0.165,-3.496,22.89,10.78,-27.65
12417.0,-9.273,-0.4,-3.525,-9.273,-0.737,-3.774,26.39,13.72,-31.43
,-9.232,-0.644,-3.439,-9.222,-0.967,-3.941,26.88,14.7,-32.06
,-9.261,-0.593,-3.549,-9.098,-1.189,-4.267,27.58,15.47,-33.04
,-9.34,-0.522,-3.673,-8.966,-1.414,-4.52,26.81,15.75,-34.02
12492.0,-8.894,-1.484,-4.7,-9.414,-2.661,-5.051,18.69,16.31,-35.98
,-8.933,-1.62,-4.891,-9.624,-2.675,-5.188,16.94,15.82,-36.05
,-9.043,-2.067,-5.03,-9.959,-2.661,-5.291,15.82,15.33,-35.77
,-9.277,-2.472,-5.135,-9.899,-3.022,-5.3,16.8,14.63,-34.51
12568.0,-9.77,-3.489,-5.157,-9.079,-2.601,-4.8,29.05,11.69,-24.71
,-9.445,-3.372,-5.059,-9.028,-2.728,-4.683,33.6,11.2,-21.91
,-9.383,-2.967,-4.893,-8.729,-2.276,-4.719,37.24,10.64,-19.46
,-9.244,-2.68,-4.779,-8.433,-2.163,-4.558,38.71,10.08,-17.5
12644.0,-8.145,-2.304,-4.551,-7.964,-1.761,-4.535,43.61,6.58,-8.19
,-8.126,-2.374,-4.549,-7.851,-1.383,-4.415,48.72,6.44,-3.99
,-8.098,-2.34,-4.616,-7.746,-1.07,-4.176,55.23,6.37,0.56
,-8.031,-2.259,-4.575,-7.765,-0.773,-4.073,62.09,6.23,5.46
12720.0,-7.851,-0.814,-3.965,-7.834,-0.416,-4.302,72.38,7.0,22.89
,-7.921,-0.531,-3.979,-8.112,-0.369,-4.678,70.49,7.63,24.71
,-8.011,-0.302,-4.346,-8.373,-0.546,-5.066,65.59,8.4,25.62
,-7.803,-0.268,-4.343,-8.703,-0.206,-5.176,58.52,9.17,26.74
12796.0,-8.703,0.409,-4.886,-8.459,-2.501,-4.133,14.56,5.32,29.96
,-8.591,-0.031,-4.748,-8.478,-1.845,-4.078,-2.17,1.89,29.05
,-8.442,-1.359,-4.58,-8.5,-1.043,-4.235,-15.26,-0.63,29.96
,-8.413,-2.261,-4.429,-8.595,-1.575,-4.302,-19.11,-1.96,32.41
12871.0,-8.61,-2.295,-4.183,-7.968,-2.984,-4.264,-23.03,-2.1,38.08
,-8.519,-2.347,-4.448,-8.263,-2.699,-4.006,-21.98,-2.17,39.48
,-8.334,-2.871,-4.429,-8.614,-2.139,-4.176,-22.61,-2.31,41.09
,-7.997,-3.039,-4.386,-8.469,-1.663,-4.42,-21.0,-1.75,43.47
12947.0,-8.337,-2.185,-4.606,-9.069,-1.299,-4.527,-14.56,-0.21,40.25
,-8.413,-2.458,-4.561,-9.146,-1.283,-4.628,-15.61,-0.21,38.85
,-8.552,-2.166,-4.597,-9.146,-1.381,-4.542,-13.72,-0.42,37.73
,-8.835,-1.706,-4.391,-9.009,-1.519,-4.439,-12.53,-0.77,36.47
13022.0,-8.942,-1.273,-4.539,-8.88,-1.572,-4.649,-35.42,-3.22,24.78
,-9.127,-1.709,-5.068,-8.83,-1.036,-4.432,-39.34,-3.43,22.75
,-8.993,-2.295,-4.927,-8.897,-0.543,-4.685,-40.67,-3.78,22.47
,-8.89,-2.067,-4.858,-8.94,-0.455,-4.683,-37.66,-4.2,22.82
13098.0,-9.131,-0.608,-4.975,-8.681,-3.654,-4.901,-57.54,-12.39,8.54
,-9.196,-0.924,-4.913,-8.423,-3.369,-4.681,-65.45,-15.33,4.48
,-9.107,-1.414,-5.061,-8.449,-2.797,-4.499,-72.24,-18.48,0.7
,-8.818,-2.804,-5.145,-8.564,-2.472,-4.121,-76.44,-20.86,-1.12
13174.0,-8.954,-2.154,-3.958,-8.705,-2.008,-3.577,-38.22,-25.06,1.19
,-8.741,-1.776,-4.046,-8.873,-1.788,-3.623,-35.56,-25.06,-0.63
,-8.607,-1.84,-3.702,-8.918,-1.732,-3.343,-34.02,-24.01,-1.05
,-8.686,-1.898,-3.747,-9.009,-1.709,-3.417,-31.71,-22.75,-1.26
13250.0,-9.081,-2.13,-3.391,-9.11,-1.747,-3.479,-20.51,-12.39,-0.98
,-9.038,-2.34,-3.477,-9.275,-1.01,-3.501,-15.75,-9.94,0.56
,-8.926,-2.154,-3.565,-9.342,-0.285,-3.711,-9.73,-7.98,2.03
,-9.026,-2.003,-3.573,-9.217,-0.189,-3.697,-3.5,-6.16,3.85
13325.0,-9.074,-0.639,-3.991,-9.677,-1.029,-3.759,-0.35,-3.08,4.2
,-8.686,-1.878,-3.994,-9.533,0.153,-3.771,0.49,-3.08,4.34
,-9.21,-2.783,-4.082,-9.49,-0.096,-3.831,8.19,-2.1,5.53
,-9.658,-2.563,-3.972,-9.323,-0.543,-3.68,17.99,-0.84,6.09
13401.0,-9.062,-0.404,-3.647,-8.744,-0.723,-4.027,2.38,2.52,0.56
,-9.194,-0.443,-3.525,-8.765,-0.285,-4.374,-1.54,3.36,-0.84
,-9.105,-0.646,-3.853,-9.129,0.096,-5.023,-3.92,3.36,-2.17
,-8.887,-0.876,-3.965,-9.265,0.034,-5.281,-3.43,2.52,-2.24
13477.0,-9.052,-0.031,-5.346,-9.026,-0.507,-5.13,3.43,-4.83,1.33
,-8.78,-0.237,-5.229,-9.098,-0.383,-4.81,5.6,-6.16,2.52
,-8.82,-0.409,-5.343,-9.124,-0.144,-4.491,9.8,-6.79,3.99
,-8.859,-0.567,-5.26,-9.174,-0.141,-4.039,15.12,-6.93,5.53
13553.0,-9.172,-0.282,-3.498,-9.892,0.045,-2.3,16.66,-11.2,6.02
,-9.206,-0.457,-2.888,-10.091,0.16,-2.197,14.63,-10.64,5.46
,-9.284,-0.357,-2.419,-9.947,0.084,-2.067,13.16,-9.87,4.69
,-9.603,-0.246,-2.266,-9.555,-0.254,-1.85,11.13,-8.75,3.92
13629.0,-9.366,-0.302,-1.788,-9.354,-0.077,-2.472,2.31,-2.31,3.43
,-9.438,-0.306,-1.857,-9.371,-0.098,-2.759,4.55,0.07,3.92
,-9.478,-0.127,-2.151,-9.397,-0.237,-3.01,5.95,1.89,3.99
,-9.457,-0.041,-2.383,-9.459,-0.132,-3.46,5.18,3.29,4.06
13704.0,-9.418,-0.036,-3.716,-9.129,0.079,-4.223,-1.12,6.23,1.82
,-9.311,-0.124,-3.903,-9.17,0.093,-4.207,-2.52,5.88,1.33
,-9.155,-0.112,-3.989,-9.196,0.129,-4.116,-2.87,5.32,1.19
,-9.1,-0.026,-4.101,-9.234,0.01,-3.97,-2.38,4.83,1.05
13780.0,-9.196,-0.122,-3.819,-9.385,-0.16,-3.429,-0.49,1.89,1.4
,-9.21,-0.153,-3.75,-9.354,-0.246,-3.35,0.63,1.61,1.47
,-9.17,-0.168,-3.609,-9.237,-0.211,-3.254,1.47,1.54,1.75
,-9.304,-0.148,-3.489,-9.225,-0.249,-3.307,1.89,1.54,1.75
13855.0,-9.253,-0.199,-3.242,-9.213,-0.156,-3.513,2.1,2.73,2.03
,-9.28,-0.101,-3.448,-9.203,-0.156,-3.549,2.24,3.08,2.03
,-9.316,-0.067,-3.477,-9.253,-0.096,-3.635,1.68,3.15,2.03
,-9.227,-0.148,-3.498,-9.32,-0.014,-3.685,1.61,3.01,1.82
13931.0,-9.313,-0.067,-3.716,-9.261,-0.081,-3.75,3.92,3.29,2.24
,-9.229,-0.062,-3.745,-9.459,-0.115,-3.759,3.99,3.01,2.17
,-9.174,-0.077,-3.74,-9.586,-0.33,-3.664,4.13,3.01,2.1
,-9.16,-0.06,-3.719,-9.466,-0.491,-3.542,4.13,2.66,2.1
14007.0,-9.378,-0.55,-3.477,-9.61,-0.735,-3.147,4.83,2.59,3.15
,-9.512,-0.531,-3.506,-9.897,-0.883,-3.008,5.11,3.08,3.36
,-9.564,-0.543,-3.446,-9.837,-0.751,-3.096,4.55,3.36,3.36
,-9.481,-0.586,-3.343,-9.83,-0.526,-3.266,4.13,3.92,3.5
14083.0,-9.727,-0.378,-3.465,-9.093,-0.534,-3.623,0.14,7.63,-1.89
,-9.509,-0.196,-3.553,-9.129,-0.27,-3.786,-2.87,7.84,-3.15
,-9.318,-0.208,-3.542,-9.155,-0.39,-3.75,-6.02,8.12,-4.06
,-9.201,-0.369,-3.606,-9.131,-0.759,-4.173,-8.47,9.24,-4.55
14158.0,-8.847,-1.151,-4.312,-8.253,-3.013,-4.865,-9.94,15.68,-5.74
,-8.835,-1.117,-4.532,-8.411,-3.077,-4.731,-8.75,15.82,-6.79
,-8.507,-1.254,-4.86,-8.662,-2.754,-4.508,-9.52,15.47,-8.54
,-8.258,-2.091,-4.937,-8.765,-2.592,-5.011,-10.08,15.68,-9.1
14234.0,-8.509,-2.977,-5.054,-8.555,-3.082,-4.647,23.24,18.13,-10.01
,-8.291,-3.092,-4.838,-8.6,-2.962,-4.448,27.86,17.36,-10.15
,-8.301,-3.147,-4.843,-8.603,-2.764,-4.29,33.46,16.31,-10.64
,-8.447,-3.135,-4.731,-8.794,-2.556,-4.439,39.9,14.91,-11.06
14310.0,-9.0,-2.821,-4.324,-9.194,-2.455,-4.322,59.64,10.99,-15.82
,-8.949,-3.07,-4.226,-9.225,-2.417,-4.159,62.86,10.71,-16.24
,-9.06,-3.046,-4.238,-9.354,-2.429,-4.176,67.48,10.78,-16.38
,-9.119,-2.783,-4.235,-9.215,-2.668,-4.25,72.31,10.85,-16.66
14386.0,-9.112,-2.436,-4.204,-9.361,-1.637,-4.666,80.29,12.95,-18.97
,-9.062,-1.96,-4.346,-9.33,-1.637,-4.726,81.27,13.02,-20.23
,-9.222,-1.732,-4.472,-9.265,-1.642,-4.582,80.29,12.74,-22.05
,-9.375,-1.675,-4.633,-9.354,-1.383,-4.592,78.19,12.04,-23.73
14461.0,-9.265,-1.256,-4.501,-9.119,-1.68,-4.171,60.06,3.85,-31.43
,-9.131,-1.158,-4.575,-9.16,-0.78,-4.087,55.37,1.89,-32.76
,-8.971,-2.051,-4.429,-9.036,-0.718,-4.214,49.35,0.7,-32.55
,-8.959,-2.362,-4.286,-8.839,-1.089,-3.867,49.42,0.21,-31.01
14537.0,-8.595,-1.0,-3.764,-8.713,-0.031,-4.051,24.99,-4.06,-36.89
,-8.672,-0.826,-3.932,-8.748,-0.483,-4.164,19.25,-3.92,-36.82
,-8.775,-0.625,-3.917,-8.567,-0.948,-3.795,13.23,-4.06,-36.4
,-8.591,-0.225,-3.53,-8.394,-1.043,-3.257,6.51,-4.69,-36.75
14612.0,-8.323,-0.529,-3.692,-7.98,-1.321,-4.063,-21.49,-7.77,-34.16
,-8.433,-0.182,-3.532,-8.112,-2.431,-3.888,-26.74,-7.91,-33.18
,-8.557,-0.692,-3.209,-8.117,-2.364,-3.63,-34.86,-7.98,-31.57
,-8.303,-1.046,-3.697,-8.071,-0.878,-3.618,-40.67,-7.84,-30.59
14688.0,-8.452,0.251,-3.951,-8.385,-3.685,-3.393,-35.84,3.92,-13.44
,-8.598,-0.677,-3.905,-8.385,-3.611,-3.494,-43.96,3.43,-10.99
,-8.5,-2.304,-3.664,-8.299,-3.245,-3.666,-45.08,2.38,-7.63
,-8.524,-3.151,-3.534,-8.236,-2.599,-3.948,-37.17,1.82,-1.33
14764.0,-8.193,-1.888,-4.329,-8.545,-1.261,-5.008,29.75,8.4,34.37
,-8.287,-1.546,-4.463,-8.653,-1.393,-4.941,32.97,10.15,38.43
,-8.287,-1.304,-4.721,-8.775,-1.905,-4.724,33.88,11.76,41.37
,-8.476,-1.208,-4.905,-8.83,-2.261,-4.556,33.18,12.18,42.84
14840.0,-8.854,-2.709,-4.324,-8.844,-1.46,-3.941,24.57,4.76,45.71
,-8.67,-1.893,-4.288,-8.947,-1.431,-3.917,24.43,4.13,45.43
,-8.832,-1.61,-4.31,-9.189,-1.713,-4.02,19.25,3.22,43.47
,-9.043,-1.931,-4.058,-9.172,-2.091,-4.013,11.69,2.17,40.81
14916.0,-9.237,-2.343,-4.202,-9.95,-1.266,-4.113,-37.8,-2.66,22.26
,-9.459,-2.206,-4.226,-9.892,-1.546,-3.915,-39.34,-3.22,21.91
,-9.564,-1.823,-4.298,-9.512,-1.704,-3.743,-38.5,-3.85,22.54
,-9.83,-1.448,-4.231,-9.194,-1.323,-3.565,-37.17,-4.13,23.59
14991.0,-9.182,-1.184,-3.601,-9.61,-1.311,-4.042,-29.54,-3.43,27.3
,-9.447,-1.716,-3.642,-9.409,-1.0,-4.314,-33.18,-3.08,25.55
,-9.603,-2.108,-3.79,-8.923,-1.06,-4.42,-35.49,-2.87,24.08
,-9.663,-1.785,-3.877,-8.533,-1.039,-4.29,-35.84,-2.45,23.38
15067.0,-8.425,-0.627,-4.389,-9.067,0.115,-4.384,-30.24,-3.5,24.29
,-8.495,-0.246,-4.365,-9.095,-0.258,-4.279,-28.56,-3.99,24.36
,-8.835,-0.057,-4.379,-9.05,-0.534,-4.185,-28.56,-4.48,24.08
,-8.976,0.17,-4.439,-9.404,-0.469,-4.195,-29.19,-5.53,23.73
15143.0,-9.423,-0.091,-4.188,-9.014,0.048,-4.176,-24.36,-7.49,21.7
,-9.349,-0.254,-4.075,-9.189,0.108,-4.24,-22.47,-7.56,22.12
,-9.165,-0.586,-4.025,-9.263,-0.141,-4.192,-19.74,-7.63,22.12
,-8.727,-0.208,-4.113,-9.261,-0.196,-4.07,-16.17,-7.28,21.91
15219.0,-9.172,0.158,-3.927,-9.148,0.144,-3.896,-5.88,-6.65,20.86
,-9.241,0.436,-3.893,-9.335,0.045,-4.039,-3.29,-6.44,20.3
,-9.165,0.646,-3.836,-9.253,0.184,-4.032,-3.5,-6.37,19.04
,-9.062,0.378,-3.853,-9.155,0.558,-3.982,-5.25,-6.51,17.71
15294.0,-9.136,0.526,-4.032,-9.229,0.601,-3.47,-0.42,-5.6,14.84
,-9.009,0.086,-3.867,-9.184,0.584,-3.273,-1.19,-5.6,14.77
,-8.935,0.17,-3.743,-9.249,0.464,-3.226,-0.91,-5.53,14.21
,-9.16,0.4,-3.599,-9.079,0.414,-3.214,-1.19,-5.11,13.23
15370.0,-9.103,0.522,-3.364,-9.174,-0.115,-3.532,-3.29,-2.59,10.99
,-9.227,0.687,-3.534,-9.05,0.541,-3.719,-2.59,-2.24,10.5
,-9.569,0.28,-3.723,-8.854,0.459,-3.762,-3.92,-1.82,10.5
,-9.497,-0.388,-3.472,-8.811,0.574,-3.709,-2.52,-1.54,10.92
15445.0,-9.115,0.67,-3.676,-9.44,0.802,-3.132,0.35,-0.84,8.96
,-9.34,0.916,-3.644,-9.311,0.905,-2.998,-0.91,-0.91,8.05
,-9.301,0.976,-3.589,-9.557,0.742,-3.077,-3.15,-0.98,7.07
,-9.44,0.816,-3.283,-9.466,0.562,-3.259,-4.55,-0.91,6.16
15521.0,-8.973,-0.172,-3.393,-9.148,0.581,-3.972,-13.72,0.84,1.26
,-9.105,-0.462,-3.738,-9.191,0.325,-3.881,-9.59,1.47,2.38
,-9.16,-0.084,-3.979,-9.246,0.28,-3.831,-4.83,2.03,3.15
,-9.115,0.345,-4.034,-9.198,0.526,-3.967,-3.22,2.24,3.43
15597.0,-9.036,0.469,-4.032,-9.107,0.476,-3.821,-2.45,1.89,4.06
,-8.988,0.727,-4.042,-9.079,0.538,-3.838,-2.52,1.75,4.13
,-9.038,0.546,-3.975,-9.091,0.715,-3.879,-3.78,1.33,3.92
,-9.088,0.347,-3.898,-9.043,0.787,-3.819,-4.48,1.33,3.85
15673.0,-9.127,0.995,-3.903,-8.583,-0.718,-3.51,-3.01,0.84,3.43
,-9.335,1.115,-4.02,-8.902,0.495,-3.606,-3.36,0.56,3.22
,-9.182,0.782,-3.948,-9.56,0.96,-3.649,-3.92,0.14,3.43
,-8.885,0.007,-3.96,-9.545,0.916,-3.69,-3.29,0.21,4.34
15749.0,-9.493,0.591,-3.604,-9.569,2.127,-4.025,0.35,1.19,3.85
,-9.342,0.787,-3.549,-8.765,0.392,-3.975,4.69,1.47,3.78
,-9.292,1.565,-3.62,-8.413,-0.96,-3.659,7.98,1.54,3.43
,-9.505,2.324,-3.793,-9.072,0.313,-3.654,7.49,1.33,2.45
15824.0,-9.574,1.055,-3.731,-9.21,0.608,-3.738,-3.15,-0.42,-2.73
,-9.442,0.976,-3.623,-9.268,0.266,-4.168,-9.87,-0.7,-4.2
,-9.277,0.436,-3.51,-8.562,-1.196,-3.896,-12.46,-0.77,-4.13
,-9.287,0.33,-3.599,-8.6,-0.823,-3.774,-10.15,-0.28,-3.64
15900.0,-9.344,0.503,-4.027,-9.239,0.809,-3.209,16.8,1.12,3.01
,-9.588,1.103,-3.967,-9.308,1.297,-3.331,13.09,1.05,1.68
,-9.38,0.842,-3.704,-9.316,1.374,-3.355,7.0,0.49,0.77
,-9.225,0.531,-3.355,-9.232,1.232,-3.314,5.39,0.42,0.56
15976.0,-9.15,0.723,-3.312,-9.206,0.273,-3.537,3.92,1.33,-1.26
,-9.088,0.325,-3.405,-9.237,0.369,-3.482,4.34,1.96,-1.47
,-9.119,-0.12,-3.367,-9.258,0.438,-3.527,5.32,2.45,-0.91
,-9.129,-0.014,-3.408,-9.313,0.603,-3.575,7.84,3.08,-0.14
16052.0,-9.253,0.639,-3.599,-9.17,0.608,-3.869,5.39,4.13,-0.35
,-9.141,0.469,-3.611,-9.153,0.581,-3.836,3.92,3.99,-0.63
,-9.083,0.44,-3.745,-9.019,0.223,-3.824,3.78,3.99,-0.84
,-9.158,0.601,-3.848,-8.904,-0.014,-3.821,3.85,3.99,-0.91
16127.0,-8.997,0.158,-3.915,-9.024,0.258,-4.219,2.59,3.29,-1.05
,-9.155,0.325,-4.113,-9.067,0.45,-4.173,3.43,3.15,-0.98
,-9.179,0.347,-4.204,-9.143,0.629,-4.068,2.94,2.73,-1.05
,-9.016,0.275,-4.298,-9.239,0.718,-4.037,2.59,2.03,-0.91
16203.0,-9.284,0.603,-3.982,-8.983,0.053,-3.611,2.17,-0.28,-0.98
,-9.143,0.507,-3.857,-9.15,0.168,-3.522,1.19,-0.84,-1.33
,-9.127,0.421,-3.831,-9.263,0.321,-3.51,0.49,-1.12,-1.75
,-9.009,0.175,-3.728,-9.275,0.428,-3.477,-0.42,-1.12,-1.82
16278.0,-9.227,0.416,-3.443,-9.04,0.117,-3.381,0.28,0.0,-0.91
,-9.32,0.471,-3.427,-9.225,0.491,-3.467,-1.26,0.21,-1.75
,-9.069,0.414,-3.439,-9.284,-0.045,-3.556,-4.69,-0.14,-3.22
,-8.806,0.053,-3.302,-8.904,-0.701,-3.367,-7.28,-0.14,-2.87
16354.0,-8.804,-0.665,-3.381,-9.543,1.137,-4.015,-10.92,1.54,-2.8
,-9.038,-0.684,-3.422,-9.153,1.33,-4.152,-6.86,2.8,-1.54
,-9.182,-0.282,-3.408,-9.038,0.797,-4.374,-2.8,3.71,-0.07
,-9.356,0.656,-3.649,-9.105,0.66,-4.549,0.07,4.13,0.07
16430.0,-9.17,0.78,-4.803,-9.036,0.67,-4.96,-6.37,0.56,-3.22
,-8.993,0.782,-4.92,-9.21,0.723,-4.539,-4.2,-0.21,-2.94
,-8.866,0.771,-5.035,-9.349,0.684,-4.223,-2.59,-1.26,-2.59
,-9.019,0.656,-5.09,-9.246,0.608,-3.965,-1.19,-2.66,-2.52
16506.0,-9.232,0.754,-3.678,-9.414,0.845,-2.843,0.14,-7.07,-3.43
,-9.354,0.632,-3.486,-9.485,0.952,-2.771,-0.42,-7.21,-3.64
,-9.117,0.723,-3.329,-9.495,0.503,-2.627,-1.61,-7.28,-3.99
,-9.024,0.699,-3.022,-9.337,0.266,-2.606,-2.8,-7.07,-4.06
16581.0,-9.34,0.438,-2.852,-9.356,0.337,-3.348,-7.0,-3.01,-5.95
,-9.44,0.558,-3.101,-9.399,0.261,-3.338,-5.46,-2.1,-5.67
,-9.21,0.347,-3.135,-9.313,0.206,-3.34,-5.39,-1.68,-5.39
,-9.227,0.445,-3.223,-9.208,0.172,-3.331,-4.13,-1.05,-5.11
16657.0,-9.256,0.464,-3.348,-9.179,0.361,-3.436,-0.77,1.26,-4.9
,-9.273,0.675,-3.391,-9.16,0.227,-3.412,-1.82,1.33,-5.11
,-9.323,0.701,-3.398,-9.162,0.304,-3.362,-3.15,1.19,-5.6
,-9.215,0.725,-3.455,-9.306,0.431,-3.3,-4.06,1.4,-5.81
16732.0,-9.399,0.366,-3.345,-9.284,0.055,-3.434,-4.97,2.31,-6.02
,-9.378,0.311,-3.276,-9.294,0.33,-3.542,-6.93,2.45,-7.14
,-9.287,0.189,-3.36,-9.308,0.481,-3.546,-8.19,2.59,-7.77
,-9.184,0.122,-3.436,-9.294,0.644,-3.491,-8.68,2.73,-7.7
16808.0,-9.349,0.424,-3.472,-9.337,0.098,-3.62,-8.96,3.99,-9.24
,-9.292,0.232,-3.376,-9.115,0.132,-3.752,-7.28,4.34,-8.96
,-9.359,0.239,-3.381,-9.024,0.081,-3.8,-4.83,4.83,-8.89
,-9.414,0.287,-3.577,-9.196,0.378,-3.838,-3.01,5.04,-9.1
16884.0,-9.32,0.61,-3.764,-9.229,0.694,-3.869,-0.28,5.6,-10.43
,-9.304,0.747,-3.726,-9.048,0.093,-3.807,-1.05,5.04,-11.06
,-9.265,0.814,-3.752,-9.033,-0.313,-3.776,-1.47,4.55,-11.76
,-9.234,0.861,-3.783,-9.177,-0.062,-3.735,-1.89,4.13,-12.6
16960.0,-9.375,0.168,-3.549,-9.215,-0.098,-3.156,6.72,4.83,-12.39
,-9.299,0.273,-3.427,-9.373,0.086,-3.221,5.32,4.76,-13.16
,-9.308,0.024,-3.283,-9.33,0.335,-3.271,3.57,5.11,-13.93
,-9.263,-0.313,-3.187,-9.198,0.414,-3.388,3.57,6.02,-14.21
17036.0,-9.292,0.299,-3.513,-9.074,-0.469,-3.853,11.27,9.24,-15.19
,-9.33,0.112,-3.644,-9.069,-0.239,-3.886,11.34,9.31,-15.82
,-9.182,-0.141,-3.702,-9.21,-0.017,-3.91,10.85,9.45,-16.52
,-9.093,-0.376,-3.812,-9.189,-0.012,-3.965,11.41,9.59,-17.15
17111.0,-9.162,0.022,-4.056,-9.122,0.469,-3.999,16.31,9.94,-19.11
,-9.139,0.175,-4.058,-9.148,0.067,-3.91,18.41,9.94,-19.32
,-9.251,0.431,-4.13,-9.136,0.007,-3.8,20.23,9.8,-19.6
,-9.182,0.651,-4.025,-9.227,0.079,-3.707,20.44,9.52,-20.44
17187.0,-9.251,0.213,-3.57,-9.083,-0.44,-3.503,24.15,9.17,-25.06
,-9.306,0.361,-3.419,-9.033,-0.833,-3.64,24.5,9.66,-26.04
,-9.373,0.249,-3.427,-9.086,-1.012,-3.539,22.96,9.8,-27.58
,-9.265,-0.158,-3.388,-9.074,-1.017,-3.542,21.07,9.59,-29.19
17263.0,-9.064,-1.431,-3.424,-8.873,-1.852,-3.75,18.41,11.06,-33.25
,-9.021,-1.515,-3.472,-8.921,-2.058,-3.821,19.18,11.55,-33.46
,-9.134,-1.704,-3.599,-8.954,-2.24,-3.886,20.37,12.11,-33.39
,-8.957,-1.792,-3.762,-9.064,-2.075,-3.927,21.91,12.6,-33.25
17339.0,-9.139,-1.608,-3.963,-9.466,-2.082,-4.441,25.13,13.3,-31.36
,-9.296,-1.663,-3.975,-9.287,-2.18,-4.487,21.49,12.88,-32.06
,-9.404,-1.761,-4.121,-9.342,-2.422,-4.475,19.25,12.46,-31.99
,-9.512,-1.938,-4.257,-9.344,-2.802,-4.491,18.27,12.04,-31.29
17414.0,-9.304,-3.094,-4.365,-9.469,-3.302,-4.269,23.38,8.96,-21.77
,-9.316,-2.907,-4.314,-9.337,-3.635,-4.245,26.04,8.68,-19.32
,-9.447,-2.979,-4.259,-9.083,-3.709,-4.195,28.42,8.26,-17.01
,-9.43,-3.065,-4.252,-8.978,-3.396,-4.121,30.24,7.84,-14.49
17490.0,-8.844,-3.128,-3.97,-8.753,-1.859,-3.979,50.82,7.56,0.35
,-8.794,-2.618,-4.003,-8.643,-1.967,-3.872,54.39,7.84,2.59
,-8.885,-2.3,-3.967,-8.521,-1.843,-3.695,56.21,7.7,4.62
,-8.787,-1.972,-4.034,-8.61,-1.709,-3.594,56.35,7.35,6.65
17565.0,-8.502,-1.586,-3.496,-8.318,-1.409,-3.642,57.12,7.42,16.87
,-8.375,-1.357,-3.352,-8.382,-1.249,-3.738,57.12,8.61,19.11
,-8.263,-1.247,-3.329,-8.397,-0.692,-3.74,56.63,10.22,21.42
,-8.279,-1.261,-3.518,-8.507,-0.067,-4.075,55.86,12.04,23.52
17641.0,-8.734,-0.127,-4.429,-8.057,-1.235,-4.444,30.24,15.96,30.45
,-8.806,-0.921,-4.592,-7.906,-0.333,-3.922,17.43,15.33,32.41
,-8.753,-1.756,-4.692,-8.509,-0.077,-3.798,9.73,13.86,36.05
,-8.677,-2.28,-4.695,-9.064,-0.263,-3.984,5.88,11.27,39.97
17717.0,-8.957,-0.383,-3.546,-8.658,-1.357,-4.362,-7.42,6.44,38.36
,-8.753,-0.538,-3.941,-8.78,-1.809,-4.377,-14.7,6.23,36.47
,-8.691,-1.089,-4.207,-8.681,-2.027,-4.29,-22.33,5.32,34.37
,-8.603,-1.019,-4.3,-8.722,-2.218,-4.271,-26.32,4.13,34.3
17793.0,-8.375,-1.558,-4.343,-9.009,-1.003,-4.783,-31.36,1.19,37.87
,-8.593,-0.974,-4.456,-8.863,-0.682,-4.798,-31.99,1.33,37.31
,-8.916,-0.847,-4.776,-9.04,-0.476,-4.97,-36.4,0.77,35.35
,-9.062,-0.972,-4.736,-9.141,-0.804,-5.142,-40.88,0.07,33.53
17869.0,-8.856,-1.933,-5.209,-8.617,-3.369,-4.704,-67.9,-8.4,22.75
,-8.543,-2.742,-5.085,-8.691,-2.764,-4.616,-67.62,-10.29,22.89
,-8.287,-2.96,-4.91,-8.868,-2.225,-4.489,-62.09,-12.04,23.59
,-8.423,-3.384,-5.027,-8.916,-1.788,-4.197,-54.74,-13.16,24.78
17944.0,-8.973,-1.429,-4.207,-9.055,-2.056,-3.805,-24.57,-16.8,23.66
,-9.057,-1.33,-3.977,-8.794,-2.271,-3.848,-27.51,-16.38,21.42
,-9.062,-1.292,-4.063,-8.729,-2.477,-3.812,-30.59,-16.45,18.2
,-9.069,-1.591,-3.967,-8.804,-2.508,-3.965,-34.58,-15.96,15.26
18020.0,-8.717,-2.173,-4.054,-9.21,-1.474,-4.228,-33.53,-6.65,7.21
,-8.768,-1.998,-4.006,-9.148,-1.266,-4.243,-30.94,-4.97,6.16
,-9.136,-1.785,-4.001,-9.237,-0.957,-4.226,-28.0,-3.64,4.62
,-9.246,-1.553,-4.235,-9.215,-0.878,-4.276,-26.04,-1.89,3.08
18096.0,-9.002,-1.11,-4.207,-8.871,-1.4,-4.681,-23.66,3.92,-0.77
,-8.794,-1.364,-4.343,-8.722,-1.204,-4.812,-22.75,4.69,-0.14
,-8.871,-1.572,-4.396,-8.593,-0.957,-4.867,-19.74,5.11,0.98
,-8.942,-1.397,-4.496,-8.54,-0.675,-4.594,-15.54,5.25,2.31
18172.0,-8.65,-0.479,-4.355,-8.832,-1.405,-3.12,2.24,-6.16,2.8
,-8.677,-0.605,-3.975,-8.796,-1.718,-2.927,2.73,-9.03,1.54
,-8.655,-0.771,-3.738,-8.725,-1.639,-2.948,4.06,-11.41,0.56
,-8.737,-0.957,-3.431,-8.88,-1.429,-3.206,6.3,-13.02,0.49
18247.0,-9.253,-0.921,-3.709,-10.172,0.024,-3.896,28.63,-5.32,5.46
,-9.505,-0.419,-3.955,-10.144,0.256,-3.443,27.58,-4.06,4.76
,-9.734,-0.196,-4.07,-9.964,0.187,-3.187,24.22,-2.87,3.71
,-10.122,-0.098,-4.046,-9.933,-0.194,-3.003,20.51,-1.89,1.54
18323.0,-9.923,-0.053,-2.697,-9.385,1.297,-2.809,-2.03,-0.42,-5.18
,-9.88,0.419,-2.608,-9.119,0.175,-3.106,-3.57,0.28,-5.81
,-9.686,0.883,-2.548,-9.048,-1.18,-3.319,-7.35,0.77,-7.63
,-9.756,1.448,-2.649,-8.959,-1.871,-3.542,-13.93,1.19,-10.22
18398.0,-9.05,-1.68,-4.046,-8.595,-1.527,-4.805,-21.21,4.62,-7.49
,-8.794,-0.931,-4.489,-8.741,-0.957,-4.764,-17.22,4.2,-6.51
,-8.607,-0.943,-4.815,-8.973,-0.656,-4.733,-17.57,3.5,-6.16
,-8.607,-1.493,-4.855,-9.136,-0.73,-4.52,-15.96,3.36,-5.11
18474.0,-9.179,-0.514,-4.171,-9.198,0.337,-4.183,17.01,2.1,6.72
,-9.32,0.101,-4.001,-9.148,0.313,-4.063,25.41,1.75,9.59
,-9.562,0.433,-4.075,-9.241,0.495,-3.647,30.45,1.26,11.2
,-9.459,0.397,-4.111,-9.332,0.773,-3.36,32.62,0.84,12.04
18550.0,-9.407,0.699,-3.161,-9.292,-0.562,-2.639,28.42,-0.84,9.17
,-9.363,0.443,-2.934,-9.378,-0.51,-2.781,21.49,-0.91,7.21
,-9.308,0.146,-2.718,-9.505,-0.488,-3.015,15.89,-0.7,5.39
,-9.282,-0.345,-2.568,-9.49,-0.371,-3.235,11.76,0.21,3.92
18626.0,-9.34,-0.16,-3.486,-9.067,0.345,-4.262,10.22,4.62,4.06
,-9.217,0.055,-3.692,-9.05,0.261,-4.202,10.08,4.55,3.78
,-9.237,0.239,-3.941,-9.095,0.239,-4.142,9.17,4.55,3.29
,-9.148,0.376,-4.137,-9.184,0.163,-4.106,7.49,4.13,2.59
18701.0,-9.215,-0.101,-4.032,-9.11,-0.359,-3.877,3.43,1.68,0.77
,-9.15,-0.29,-3.965,-9.067,-0.328,-3.862,3.57,1.26,0.98
,-9.143,-0.438,-3.879,-9.074,-0.237,-3.819,4.34,0.91,1.12
,-9.134,-0.409,-3.862,-9.081,-0.263,-3.79,5.25,0.98,1.19
18777.0,-9.107,-0.282,-3.793,-9.174,-0.148,-3.759,3.08,0.56,0.56
,-9.196,-0.232,-3.735,-9.11,-0.077,-3.75,3.36,0.63,0.63
,-9.316,-0.127,-3.8,-9.076,-0.01,-3.798,3.78,0.63,0.7
,-9.313,-0.093,-3.812,-9.086,0.036,-3.812,3.99,0.49,0.77
18853.0,-9.052,-0.038,-3.836,-9.174,-0.17,-3.52,4.2,0.21,1.12
,-9.11,-0.041,-3.771,-9.208,-0.239,-3.434,3.99,0.0,1.19
,-9.196,-0.036,-3.723,-9.337,-0.316,-3.458,3.57,-0.28,1.19
,-9.201,-0.041,-3.616,-9.502,-0.455,-3.623,2.87,-0.07,0.91
18929.0,-9.426,-0.505,-3.714,-9.115,-0.124,-3.786,1.05,0.98,0.77
,-9.139,-0.34,-3.754,-9.308,-0.163,-3.853,1.12,0.63,0.84
,-9.057,-0.282,-3.757,-9.457,-0.239,-3.836,0.91,0.77,0.77
,-9.019,-0.215,-3.788,-9.564,-0.333,-3.757,0.98,0.91,0.84
19005.0,-9.622,-0.414,-3.625,-9.631,-0.627,-3.558,0.98,1.05,2.24
,-9.505,-0.596,-3.668,-9.914,-0.79,-3.515,1.05,1.4,2.17
,-9.363,-0.658,-3.544,-9.873,-0.538,-3.692,2.03,1.82,2.52
,-9.399,-0.629,-3.486,-9.856,-0.129,-3.58,3.64,2.52,3.01
19080.0,-9.354,-0.072,-3.601,-8.88,-0.833,-4.48,-6.3,2.94,-3.57
,-9.131,-0.4,-3.735,-9.112,-1.156,-4.47,-9.1,3.29,-2.87
,-8.942,-0.838,-3.888,-9.22,-1.223,-4.408,-7.91,4.41,-1.61
,-8.813,-0.782,-4.29,-9.146,-1.548,-4.221,-4.83,5.39,-0.42
19156.0,-8.981,-1.869,-3.915,-8.693,-2.723,-3.855,6.16,3.43,0.98
,-8.894,-1.998,-3.819,-8.612,-2.63,-3.637,10.64,4.48,1.26
,-8.887,-2.096,-3.888,-8.679,-2.008,-3.934,14.63,6.44,0.77
,-8.856,-2.515,-3.917,-8.801,-1.46,-4.286,18.06,8.26,0.07
19231.0,-8.708,-1.625,-4.575,-8.583,-2.601,-4.803,24.64,15.54,-8.19
,-8.564,-2.254,-4.676,-8.559,-2.577,-4.755,21.35,15.05,-11.06
,-8.504,-2.855,-4.695,-8.66,-2.484,-4.57,21.98,14.49,-13.23
,-8.516,-2.749,-4.714,-8.701,-2.455,-4.537,25.62,13.86,-15.33
19307.0,-8.737,-2.649,-4.386,-9.095,-2.271,-4.336,36.47,11.2,-23.59
,-8.751,-3.025,-4.329,-9.083,-2.039,-4.573,40.32,11.34,-23.8
,-8.737,-3.149,-4.145,-9.038,-2.242,-4.47,46.69,12.39,-22.82
,-8.849,-2.843,-4.025,-8.94,-2.79,-4.525,53.97,13.93,-21.42
19383.0,-8.947,-3.175,-4.657,-9.179,-1.697,-4.848,73.36,15.26,-20.93
,-8.961,-2.778,-4.807,-9.165,-2.173,-4.645,80.71,15.33,-19.46
,-9.04,-2.115,-4.755,-9.043,-2.161,-4.401,85.89,14.77,-19.11
,-9.227,-1.663,-4.798,-9.172,-1.725,-4.381,86.87,13.65,-19.74
19459.0,-9.265,-1.345,-4.432,-9.016,-1.019,-4.137,81.13,8.05,-22.26
,-9.237,-1.046,-4.274,-9.005,-0.902,-4.188,76.93,7.07,-23.73
,-9.225,-0.84,-4.415,-9.167,-1.326,-4.243,71.33,5.74,-25.48
,-9.167,-1.012,-4.305,-9.036,-1.034,-3.953,64.54,3.99,-27.09
19534.0,-9.325,-0.682,-4.295,-8.378,-1.62,-3.532,35.91,-5.74,-31.64
,-9.119,-0.586,-4.245,-8.662,-0.536,-3.417,27.86,-8.12,-33.74
,-8.768,-1.072,-3.915,-8.873,0.414,-3.774,18.13,-10.15,-34.79
,-8.612,-2.103,-3.721,-8.847,0.11,-3.752,10.64,-10.29,-34.02
19610.0,-8.792,-0.211,-3.475,-8.571,-2.627,-2.953,-24.43,-12.04,-36.26
,-8.598,-0.632,-3.542,-8.471,-3.111,-2.943,-34.37,-13.51,-37.52
,-8.461,-1.089,-3.269,-8.43,-2.989,-2.883,-40.81,-13.86,-37.52
,-8.516,-1.788,-3.204,-8.069,-2.091,-2.704,-44.52,-13.44,-37.03
19686.0,-7.705,-1.778,-3.36,-8.591,-0.656,-3.329,-29.19,-4.13,-22.12
,-7.968,-3.049,-3.125,-8.49,-1.699,-3.381,-28.49,-1.19,-16.87
,-8.026,-2.776,-3.173,-8.502,-2.134,-3.465,-18.41,0.98,-9.8
,-8.258,-1.601,-3.144,-8.715,-1.345,-3.317,-9.94,3.15,-4.27
19762.0,-8.595,-0.402,-3.62,-8.189,-1.479,-4.293,-4.69,7.35,14.63
,-8.552,-0.926,-3.489,-8.332,-2.084,-4.551,-8.89,7.0,17.29
,-8.452,-1.697,-3.503,-8.622,-2.546,-4.848,-8.12,7.21,21.21
,-8.253,-1.553,-3.862,-8.964,-2.632,-5.097,-3.08,7.98,25.2
19837.0,-8.938,-1.986,-5.353,-8.993,-2.891,-4.676,15.61,7.49,41.3
,-9.028,-1.814,-5.31,-9.284,-3.065,-4.221,13.16,4.41,40.74
,-9.182,-2.395,-5.085,-9.261,-2.661,-3.948,7.28,2.31,38.57
,-9.007,-2.656,-4.896,-9.27,-2.091,-3.781,2.38,1.05,35.91
19913.0,-9.531,-2.161,-3.714,-9.615,-1.591,-3.774,-21.42,-3.57,25.2
,-9.476,-2.335,-3.743,-9.588,-0.948,-3.805,-28.07,-4.06,23.17
,-9.536,-2.51,-3.817,-9.564,-1.333,-3.788,-31.78,-4.34,22.4
,-9.773,-2.367,-3.743,-9.622,-1.874,-3.9,-32.62,-4.13,22.54
19989.0,-9.495,-2.333,-4.02,-9.038,-0.931,-3.853,-46.2,-5.46,20.72
,-9.201,-2.503,-4.013,-9.115,-0.811,-3.833,-41.79,-5.32,22.47
,-9.081,-1.878,-4.145,-9.179,-1.046,-3.695,-37.31,-5.25,23.8
,-9.067,-1.321,-3.905,-9.256,-1.173,-3.618,-36.82,-5.32,23.45
20064.0,-9.28,-1.208,-3.647,-9.112,-0.424,-3.824,-36.68,-5.18,23.17
,-9.225,-1.113,-3.424,-8.839,-1.285,-3.922,-30.87,-4.48,24.99
,-9.167,-0.51,-3.577,-8.538,-1.862,-3.867,-26.32,-4.06,25.41
,-9.083,-0.077,-3.652,-8.995,-1.156,-3.977,-27.44,-4.06,24.29
20140.0,-9.371,-0.136,-4.219,-9.263,0.45,-4.561,-25.41,-3.22,22.4
,-9.426,0.213,-4.271,-9.268,0.536,-4.697,-26.46,-3.5,21.35
,-9.119,-0.211,-4.164,-9.167,0.093,-4.621,-28.14,-3.78,20.93
,-9.088,-0.096,-4.312,-9.11,-0.136,-4.614,-25.9,-3.99,20.44
20216.0,-9.11,-0.22,-4.312,-9.292,0.048,-3.403,-17.57,-7.77,17.43
,-9.158,0.347,-4.171,-9.375,0.105,-3.283,-13.93,-7.84,17.43
,-9.15,0.263,-3.953,-9.261,0.026,-3.293,-14.7,-8.19,16.03
,-9.045,0.081,-3.601,-9.141,-0.201,-3.333,-16.94,-8.61,14.56
20292.0,-9.021,-0.077,-3.372,-9.375,0.115,-3.762,-13.58,-5.39,12.18
,-9.342,-0.074,-3.508,-9.146,0.069,-3.829,-12.25,-4.69,11.97
,-9.378,0.007,-3.489,-8.918,0.041,-3.833,-12.39,-4.27,11.13
,-9.256,0.16,-3.661,-9.112,0.249,-3.821,-12.18,-3.92,10.36
20367.0,-9.39,0.28,-3.795,-9.328,0.134,-3.745,-12.39,-3.57,7.84
,-9.414,-0.098,-3.692,-9.177,0.383,-3.841,-12.74,-3.08,7.98
,-9.268,-0.555,-3.479,-8.957,0.16,-3.857,-9.73,-2.59,8.82
,-9.318,-0.407,-3.589,-8.983,0.057,-3.85,-3.15,-1.75,10.15
20443.0,-9.146,0.366,-3.81,-9.294,0.565,-3.417,7.0,-0.56,11.34
,-9.304,0.696,-3.697,-9.38,1.017,-3.374,5.88,-0.7,10.78
,-9.34,0.749,-3.601,-9.129,0.938,-3.355,3.71,-0.84,9.59
,-9.34,0.739,-3.582,-9.153,0.447,-3.262,1.05,-1.19,8.26
20519.0,-9.347,0.105,-3.29,-9.459,0.4,-3.618,-14.91,-1.82,1.54
,-9.282,-0.108,-3.398,-9.246,0.261,-3.632,-13.3,-0.98,1.82
,-9.174,0.144,-3.398,-9.253,0.014,-3.74,-11.27,-0.49,2.38
,-9.268,0.306,-3.506,-9.237,-0.11,-3.903,-10.01,-0.21,2.38
20595.0,-9.244,0.244,-4.015,-9.237,0.44,-3.69,-0.07,0.84,3.99
,-9.086,0.51,-4.089,-9.275,0.483,-3.553,0.77,0.63,3.92
,-9.119,0.239,-4.001,-9.095,0.112,-3.489,0.0,0.42,3.78
,-9.15,0.261,-3.857,-8.837,-0.129,-3.494,-0.14,0.28,3.29
20670.0,-9.081,-0.112,-3.577,-9.323,0.605,-3.192,-0.63,0.77,3.57
,-9.179,0.012,-3.532,-9.34,0.828,-3.204,-0.56,1.19,3.71
,-9.136,0.014,-3.415,-9.368,0.962,-3.343,-0.91,1.82,4.2
,-9.194,0.237,-3.24,-9.277,0.737,-3.506,-0.42,2.45,4.62
20746.0,-9.148,0.313,-3.515,-9.273,0.479,-3.479,-3.29,3.92,3.5
,-9.172,0.514,-3.496,-9.076,-0.048,-3.606,-1.4,3.99,3.64
,-9.433,1.091,-3.52,-8.959,0.031,-3.838,-1.33,4.27,3.01
,-9.557,1.311,-3.472,-9.217,0.802,-4.032,-3.99,4.27,2.03
20821.0,-9.557,1.249,-4.094,-9.39,1.005,-3.814,-5.6,3.71,0.28
,-9.43,1.189,-3.989,-9.045,0.089,-4.14,-10.36,3.08,-1.05
,-9.378,0.895,-3.872,-8.581,-2.0,-3.831,-11.62,2.8,-1.75
,-9.354,0.756,-3.745,-8.849,-1.409,-4.073,-8.4,2.94,-1.33
20897.0,-9.318,0.237,-4.415,-8.804,-0.002,-3.623,33.39,5.11,8.68
,-9.304,1.003,-4.35,-8.892,0.191,-3.53,34.44,4.9,8.61
,-9.131,1.06,-4.173,-9.234,0.632,-3.448,30.1,3.71,7.77
,-9.012,0.598,-3.869,-9.227,0.577,-3.278,25.55,2.73,6.72
20973.0,-9.122,0.235,-3.228,-9.158,0.33,-3.987,6.79,2.87,2.38
,-9.115,-0.151,-3.216,-9.014,0.156,-4.075,4.34,3.22,2.17
,-8.954,-0.06,-3.302,-9.16,0.287,-4.176,4.62,4.06,2.66
,-9.074,0.455,-3.743,-9.143,0.491,-4.228,5.11,4.62,2.94
21049.0,-9.184,0.711,-4.317,-8.961,0.266,-4.015,6.58,3.64,4.27
,-9.174,0.84,-4.341,-8.947,0.287,-3.795,5.53,2.59,3.57
,-9.131,0.715,-4.343,-9.22,0.498,-3.611,3.99,1.26,2.73
,-9.1,0.488,-4.286,-9.325,0.596,-3.412,3.29,0.63,2.24
21125.0,-9.311,0.512,-3.257,-9.155,0.428,-3.661,1.75,0.42,0.63
,-9.306,0.342,-3.149,-9.134,0.522,-3.728,0.98,0.98,0.56
,-9.33,0.096,-3.259,-9.148,0.507,-3.912,1.82,1.47,0.77
,-9.244,0.258,-3.448,-9.129,0.383,-4.03,3.99,2.17,1.26
21200.0,-9.139,0.407,-4.003,-9.16,0.409,-4.104,2.59,2.59,1.05
,-9.141,0.357,-4.039,-9.146,0.39,-4.032,2.38,2.24,0.98
,-8.997,0.163,-3.977,-9.11,0.421,-3.987,2.66,2.17,1.12
,-9.0,0.4,-4.056,-9.15,0.4,-3.877,3.99,1.96,1.12
21276.0,-9.136,0.464,-3.817,-9.122,0.278,-3.764,4.55,0.84,1.26
,-9.182,0.711,-3.855,-9.095,0.146,-3.666,4.55,0.7,1.12
,-9.167,0.514,-3.762,-9.122,0.309,-3.697,3.29,0.42,0.84
,-9.069,0.369,-3.68,-9.22,0.407,-3.695,2.94,0.56,0.84
21352.0,-9.239,0.517,-3.599,-9.048,0.235,-3.79,2.87,1.4,0.56
,-9.155,0.565,-3.654,-9.002,0.038,-3.776,1.82,1.47,0.42
,-9.186,0.455,-3.68,-9.014,0.196,-3.731,1.12,1.19,0.21
,-9.105,0.421,-3.786,-9.15,0.409,-3.733,0.77,1.26,0.14
21428.0,-9.194,0.553,-3.728,-9.074,0.297,-3.97,-1.68,1.61,-0.07
,-9.289,0.61,-3.757,-9.031,0.44,-3.967,-3.64,1.54,-0.77
,-9.158,0.641,-3.735,-9.139,0.196,-3.975,-5.32,1.12,-1.47
,-9.122,0.469,-3.872,-9.019,0.199,-3.896,-6.16,0.77,-1.4
21503.0,-9.093,0.01,-3.824,-9.139,0.818,-4.037,-4.34,0.42,-0.35
,-9.052,0.014,-3.896,-9.083,0.215,-3.946,-2.59,0.49,-0.14
,-8.971,0.069,-3.948,-8.923,-0.266,-3.79,-1.89,0.14,0.14
,-9.05,0.56,-3.996,-8.949,-0.01,-3.845,-2.38,-0.14,-0.35
21579.0,-9.062,0.412,-3.877,-9.184,0.498,-4.111,-3.43,-0.28,-0.14
,-9.227,0.936,-3.941,-9.134,0.383,-4.109,-3.22,-0.42,-0.14
,-9.241,0.969,-3.946,-9.22,0.641,-4.125,-6.09,-0.98,-0.63
,-9.306,0.706,-4.013,-9.354,0.938,-4.097,-8.19,-1.19,-1.26
21654.0,-9.27,1.158,-3.982,-9.103,0.754,-3.735,-6.79,-2.59,-1.89
,-9.435,1.259,-3.92,-9.093,0.845,-3.63,-7.28,-3.01,-2.24
,-9.45,1.158,-3.886,-9.258,0.881,-3.599,-7.14,-3.29,-2.8
,-9.263,1.113,-3.824,-9.43,0.677,-3.278,-6.93,-3.92,-3.29
21730.0,-9.304,0.574,-3.041,-9.217,0.287,-2.891,-2.24,-3.08,-4.2
,-9.32,0.572,-2.912,-9.146,0.096,-2.936,-0.63,-2.17,-4.34
,-9.356,0.696,-2.84,-9.208,0.093,-2.96,0.91,-1.26,-4.48
,-9.27,0.526,-2.848,-9.203,0.495,-3.034,1.12,-0.42,-4.62
21806.0,-9.356,0.459,-3.07,-9.074,0.39,-3.599,0.91,4.06,-5.81
,-9.299,0.424,-3.104,-9.043,0.294,-3.704,0.0,4.9,-5.95
,-9.225,0.558,-3.264,-9.232,0.455,-3.771,-0.21,5.39,-6.23
,-9.229,0.596,-3.448,-9.361,0.416,-3.824,-1.05,5.67,-6.51
21882.0,-9.222,0.455,-3.788,-9.067,0.436,-4.219,-4.9,6.09,-7.35
,-9.27,0.546,-3.826,-9.067,-0.017,-4.312,-5.74,5.74,-8.05
,-9.16,0.845,-3.996,-9.091,-0.096,-4.269,-7.28,5.46,-9.03
,-9.05,0.687,-4.075,-9.088,0.108,-4.011,-9.8,4.69,-9.45
21957.0,-9.155,0.38,-3.848,-9.249,0.469,-3.319,-0.98,3.64,-7.63
,-9.368,0.629,-3.673,-9.34,0.584,-3.419,-1.05,3.78,-8.05
,-9.304,0.514,-3.551,-9.182,0.584,-3.34,-1.4,3.99,-8.4
,-9.294,0.211,-3.348,-9.251,0.459,-3.424,0.56,4.55,-8.05
22033.0,-9.215,0.199,-3.36,-9.158,-0.132,-3.829,3.43,7.21,-9.8
,-9.213,0.323,-3.424,-8.935,-0.297,-3.836,3.92,7.84,-10.22
,-9.258,0.352,-3.551,-9.055,0.057,-3.965,4.13,8.54,-10.5
,-9.158,0.227,-3.623,-9.162,0.352,-3.924,4.2,8.89,-10.78
22109.0,-9.134,0.62,-4.003,-9.083,0.285,-4.161,4.9,9.66,-12.81
,-9.098,0.519,-3.989,-9.067,0.285,-4.185,3.15,9.45,-13.51
,-9.026,0.244,-3.987,-9.091,0.081,-4.197,2.38,9.1,-14.07
,-9.052,0.242,-4.14,-9.055,0.067,-4.142,3.57,8.89,-14.14
22185.0,-9.067,0.151,-4.049,-9.088,-0.055,-3.987,7.42,8.12,-15.61
,-9.182,0.115,-3.951,-9.081,0.022,-3.948,8.33,8.12,-15.89
,-9.186,0.05,-3.979,-8.94,-0.347,-3.814,9.66,8.33,-16.03
,-9.091,0.029,-3.965,-8.964,-0.732,-3.872,11.83,8.54,-16.03
22261.0,-9.129,-0.526,-3.74,-9.143,0.239,-3.786,22.61,10.78,-16.24
,-9.213,-0.108,-3.676,-9.141,0.187,-3.92,24.5,11.55,-16.8
,-9.275,0.28,-3.719,-9.182,0.232,-4.049,24.36,11.76,-17.85
,-9.213,0.369,-3.69,-9.256,0.28,-3.975,23.52,12.04,-18.9
22336.0,-9.225,0.041,-3.879,-8.949,-0.814,-4.015,25.62,12.46,-23.03
,-9.229,0.034,-3.843,-8.985,-0.833,-4.058,25.13,12.6,-24.22
,-9.072,-0.235,-3.891,-9.091,-0.787,-4.054,23.94,12.46,-25.34
,-8.993,-0.699,-3.948,-9.136,-0.651,-4.281,23.38,12.67,-26.04
22412.0,-9.028,-0.833,-4.398,-8.832,-1.357,-4.769,22.05,12.32,-28.35
,-8.866,-1.208,-4.511,-8.921,-1.237,-4.788,21.35,11.97,-28.63
,-8.835,-1.397,-4.64,-9.014,-1.496,-4.786,22.05,11.69,-28.7
,-8.725,-1.419,-4.707,-9.04,-1.871,-4.724,22.82,10.92,-28.63
22487.0,-9.052,-2.242,-4.58,-9.476,-2.615,-4.582,18.06,7.28,-27.93
,-9.033,-2.491,-4.484,-9.351,-2.848,-4.441,20.86,7.28,-26.39
,-9.306,-2.489,-4.482,-9.153,-2.881,-4.439,24.78,7.49,-24.5
,-9.562,-2.46,-4.63,-9.155,-2.785,-4.396,27.93,7.7,-22.4
22563.0,-9.292,-2.86,-4.451,-8.748,-2.273,-4.413,44.31,7.98,-11.62
,-9.091,-2.661,-4.609,-8.681,-2.369,-4.401,47.32,7.63,-10.78
,-8.928,-2.367,-4.482,-8.509,-2.469,-4.324,47.81,6.93,-9.17
,-8.832,-2.3,-4.36,-8.416,-2.434,-4.286,47.88,6.51,-7.42
22639.0,-8.382,-2.175,-4.178,-8.655,-0.782,-3.606,63.77,4.97,6.3
,-8.363,-1.603,-4.046,-8.729,-1.091,-3.508,67.34,4.9,8.75
,-8.504,-1.122,-3.939,-8.619,-1.242,-3.228,67.27,5.04,10.08
,-8.595,-0.838,-3.829,-8.473,-1.194,-2.8,64.05,4.76,10.71
22715.0,-8.294,-0.802,-2.419,-8.488,-1.06,-4.034,36.33,7.7,11.41
,-8.325,-0.586,-2.596,-8.741,-1.184,-4.848,30.87,10.22,13.37
,-8.66,-0.613,-3.23,-9.067,-1.594,-5.322,24.71,12.04,14.91
,-8.684,-1.072,-3.601,-8.945,-0.993,-5.386,19.95,13.3,16.38
22790.0,-8.801,-0.005,-5.111,-8.811,-2.211,-4.018,2.52,6.02,25.41
,-8.799,0.369,-5.039,-8.715,-2.173,-3.778,-6.51,1.89,25.2
,-8.859,-0.376,-4.642,-8.562,-1.699,-3.549,-14.91,-0.98,25.2
,-8.811,-1.476,-4.307,-8.739,-1.249,-3.551,-18.83,-2.24,26.67
22866.0,-8.753,-1.335,-3.415,-8.658,-1.847,-4.86,-8.33,3.36,40.32
,-8.744,-1.443,-3.632,-8.394,-1.933,-4.841,-9.87,5.25,42.35
,-8.784,-1.338,-3.903,-8.32,-1.558,-5.123,-11.06,7.7,44.1
,-8.648,-1.283,-4.456,-8.229,-1.479,-5.315,-13.79,9.1,45.08
22941.0,-8.332,-1.077,-5.233,-8.607,-0.412,-4.984,-17.5,5.74,43.68
,-8.378,-0.907,-5.255,-8.681,-0.694,-5.13,-22.33,3.01,41.02
,-8.574,-0.926,-4.977,-8.758,-1.23,-4.946,-28.14,0.91,38.15
,-8.701,-0.687,-4.989,-8.808,-1.575,-4.678,-35.63,-1.61,34.16
23017.0,-8.875,-1.577,-4.893,-8.76,-1.907,-5.004,-73.78,-8.47,14.28
,-8.746,-1.582,-4.968,-8.782,-1.651,-4.982,-77.28,-8.82,11.69
,-8.82,-1.697,-5.19,-8.825,-1.57,-4.822,-80.78,-9.24,9.52
,-8.784,-2.022,-5.2,-8.804,-1.393,-5.102,-82.18,-9.73,7.7
23093.0,-8.804,-1.412,-4.834,-8.672,-2.544,-4.556,-82.67,-14.35,-2.1
,-8.722,-1.563,-5.102,-8.918,-2.199,-4.59,-83.86,-15.89,-4.55
,-8.739,-2.065,-4.858,-8.899,-1.874,-4.472,-83.3,-16.66,-5.81
,-8.619,-2.388,-4.815,-9.026,-1.692,-3.991,-80.01,-16.66,-5.88
23169.0,-9.074,-1.788,-4.082,-8.447,-2.103,-4.018,-43.19,-12.53,-1.19
,-9.028,-1.984,-3.958,-8.363,-1.79,-4.159,-36.54,-10.99,0.77
,-8.674,-2.041,-3.747,-8.344,-1.271,-4.422,-28.49,-8.68,4.06
,-8.607,-2.12,-3.922,-8.323,-1.144,-5.142,-19.39,-6.51,7.42
23245.0,-8.095,-1.974,-5.051,-8.232,0.112,-5.252,25.97,-7.42,22.12
,-8.583,-4.934,-4.977,-8.744,-1.414,-4.295,38.36,-7.7,22.96
,-8.756,-4.645,-4.587,-8.614,-1.18,-4.652,57.12,-7.28,19.6
,-8.449,-1.464,-4.712,-8.818,-0.438,-4.279,68.18,-9.1,15.26
23320.0,-9.378,0.129,-4.405,-11.345,2.247,-3.575,12.88,-5.46,-1.05
,-9.521,0.038,-4.252,-10.392,2.027,-2.91,6.58,-5.81,-5.11
,-10.491,0.558,-4.183,-9.514,0.653,-2.233,4.27,-6.51,-5.95
,-11.263,1.405,-3.96,-8.964,0.141,-2.209,2.8,-7.07,-4.2
23396.0,-8.861,0.096,-2.467,-9.332,-1.543,-2.927,-7.98,-5.74,-1.61
,-9.026,-0.287,-2.673,-9.466,-1.56,-3.058,-13.16,-3.99,-3.29
,-9.129,-0.823,-2.86,-9.543,-0.897,-3.092,-18.83,-2.66,-3.99
,-9.131,-1.266,-2.955,-9.462,0.067,-3.254,-21.7,-1.05,-3.99
23472.0,-9.375,0.711,-3.412,-9.122,0.565,-4.209,1.96,5.95,3.01
,-9.241,0.821,-3.642,-9.083,0.479,-4.288,2.8,6.23,3.85
,-9.162,0.768,-3.838,-9.088,0.45,-4.367,4.13,6.3,4.55
,-9.15,0.668,-4.025,-9.0,0.416,-4.369,5.81,6.09,4.9
23548.0,-9.038,0.196,-4.255,-9.328,-0.038,-3.896,5.53,3.43,3.85
,-9.076,-0.151,-4.135,-9.241,0.031,-3.908,4.97,2.87,3.71
,-9.067,-0.421,-3.924,-9.143,0.146,-3.958,5.88,2.87,4.2
,-9.162,-0.232,-3.848,-9.055,0.096,-3.936,7.7,3.01,4.62
23623.0,-9.0,0.278,-3.975,-9.182,0.136,-3.697,6.72,2.17,4.06
,-9.062,0.371,-3.924,-9.375,0.436,-3.74,6.37,1.96,3.71
,-8.966,0.196,-3.891,-9.397,0.34,-3.798,4.69,1.61,3.43
,-8.926,-0.041,-3.685,-9.206,-0.012,-3.793,4.69,1.96,3.78
23699.0,-9.177,-0.215,-3.807,-9.088,0.526,-4.085,4.97,2.24,3.78
,-9.229,-0.002,-3.92,-9.005,0.404,-4.116,7.56,2.31,4.06
,-9.316,0.294,-4.073,-9.057,0.345,-4.183,9.1,2.17,3.99
,-9.289,0.507,-4.085,-9.076,0.385,-4.183,8.61,1.75,3.85
23774.0,-9.024,0.392,-4.159,-9.005,0.031,-3.726,4.34,-0.63,1.68
,-9.069,0.345,-4.037,-9.11,0.034,-3.661,4.48,-0.98,1.61
,-9.055,0.4,-3.953,-9.153,0.206,-3.592,4.34,-1.12,1.47
,-9.036,0.306,-3.867,-9.294,0.304,-3.64,3.92,-1.19,1.33
23850.0,-9.318,0.33,-3.652,-9.296,0.4,-3.726,6.02,-0.07,1.82
,-9.265,0.294,-3.599,-9.196,0.488,-3.805,5.6,0.07,1.61
,-9.191,0.158,-3.532,-9.11,0.483,-3.862,5.32,0.21,1.61
,-9.184,0.208,-3.599,-9.081,0.409,-3.891,6.16,0.56,1.75
23926.0,-9.055,0.33,-3.905,-9.146,0.179,-3.546,3.36,0.14,0.28
,-9.05,0.282,-3.857,-9.17,0.029,-3.544,3.43,0.07,0.28
,-9.103,0.364,-3.764,-9.22,0.05,-3.522,3.5,0.14,0.07
,-9.179,0.337,-3.647,-9.201,0.077,-3.534,3.01,0.28,-0.14
24002.0,-9.198,0.103,-3.51,-9.177,0.17,-3.637,4.2,1.61,0.42
,-9.251,0.177,-3.556,-9.194,0.254,-3.759,4.13,2.03,0.35
,-9.198,0.172,-3.63,-9.172,0.33,-3.905,3.71,1.96,0.14
,-9.172,0.127,-3.594,-9.17,0.304,-4.006,3.43,2.31,0.14
24077.0,-9.143,0.246,-4.073,-9.311,0.33,-4.255,4.83,2.31,0.07
,-9.189,0.218,-4.075,-9.337,0.141,-4.31,5.46,2.03,0.14
,-9.409,0.352,-4.204,-9.536,-0.067,-4.367,5.74,1.54,-0.07
,-9.387,0.357,-4.279,-9.88,-0.208,-4.341,5.25,0.98,-0.28
24153.0,-10.158,-0.534,-4.121,-9.686,-1.077,-2.924,8.26,-1.61,-0.14
,-9.818,-0.613,-3.829,-9.66,-1.275,-2.706,9.45,-1.33,-1.47
,-9.622,-0.718,-3.448,-9.452,-0.763,-2.448,10.99,-0.77,-1.12
,-9.586,-0.668,-3.101,-9.596,-0.249,-2.819,12.18,-0.42,-0.35
24229.0,-9.739,-0.33,-3.111,-8.696,0.182,-3.652,6.86,7.14,-1.47
,-9.399,-0.467,-3.302,-8.617,-0.153,-3.865,1.96,7.91,-2.73
,-9.124,-0.849,-3.163,-8.806,-0.701,-4.204,-1.82,8.68,-2.94
,-8.825,-0.426,-3.398,-8.598,-0.503,-4.477,-1.75,9.1,-2.24
24305.0,-8.483,-0.816,-4.673,-8.107,-3.396,-4.721,-6.79,10.29,-9.66
,-8.459,-1.709,-4.688,-8.179,-3.553,-4.841,-6.86,8.96,-10.78
,-8.531,-2.407,-4.862,-8.619,-3.549,-4.975,-2.1,7.7,-11.06
,-8.344,-3.075,-4.69,-8.83,-3.326,-4.992,5.32,6.65,-10.78
24381.0,-8.705,-3.013,-4.858,-8.78,-2.314,-4.932,58.31,7.91,-5.39
,-8.648,-2.726,-4.874,-8.737,-2.347,-4.738,63.35,8.96,-5.25
,-8.789,-2.568,-4.968,-8.89,-2.18,-4.664,67.41,9.87,-5.81
,-8.83,-2.541,-4.958,-8.945,-2.192,-4.748,70.98,10.36,-6.58
24456.0,-8.851,-2.426,-4.678,-8.839,-2.233,-4.781,74.76,12.46,-14.42
,-8.863,-2.139,-4.882,-8.811,-2.8,-4.681,75.67,12.46,-15.61
,-8.892,-1.981,-4.982,-8.887,-2.745,-4.661,75.88,11.62,-17.5
,-8.923,-1.864,-4.781,-8.844,-2.046,-4.767,75.04,10.92,-19.25
24532.0,-8.866,-1.184,-4.803,-9.064,-0.967,-4.381,85.33,9.24,-20.58
,-8.894,-0.778,-4.841,-9.265,-1.017,-4.355,82.04,7.42,-23.1
,-8.875,-0.799,-4.688,-9.301,-1.314,-4.343,76.3,5.32,-25.55
,-8.921,-0.845,-4.487,-9.155,-1.362,-4.137,70.7,3.36,-27.51
24607.0,-9.086,-1.149,-3.872,-9.141,-0.878,-3.987,50.61,-4.41,-30.38
,-8.976,-1.33,-3.673,-9.093,-0.814,-3.96,46.34,-4.55,-30.24
,-9.057,-1.335,-3.769,-9.153,-0.847,-3.788,44.1,-4.2,-30.1
,-9.112,-1.0,-3.884,-9.155,-1.103,-3.683,41.44,-4.48,-30.87
24683.0,-9.189,-0.835,-3.747,-8.83,-1.012,-3.381,16.73,-10.92,-33.74
,-9.306,-0.297,-3.609,-8.818,-1.594,-3.278,10.92,-12.6,-34.23
,-9.371,-0.055,-3.86,-8.737,-1.553,-3.022,2.38,-14.42,-35.28
,-9.012,-0.201,-3.783,-8.729,-1.603,-2.938,-7.14,-15.75,-35.14
24759.0,-8.708,-1.694,-2.532,-8.536,-0.861,-2.778,-10.36,-12.39,-22.54
,-8.703,-1.122,-2.206,-8.342,-1.67,-2.601,-8.33,-10.5,-19.39
,-8.715,-0.632,-2.68,-8.203,-1.864,-2.4,-10.57,-8.54,-17.29
,-8.775,-0.79,-2.127,-8.241,-1.448,-2.3,-15.05,-7.14,-14.77
24835.0,-8.32,-1.586,-2.795,-8.516,-2.838,-3.668,-25.69,2.59,-5.53
,-8.406,-2.13,-2.867,-8.564,-3.824,-3.745,-27.37,4.55,-2.38
,-8.366,-2.161,-3.331,-8.794,-3.826,-4.003,-28.35,6.02,0.28
,-8.346,-2.352,-3.446,-8.863,-2.601,-4.123,-29.12,8.82,3.01
24910.0,-8.674,-1.149,-4.097,-8.691,-3.027,-4.451,-1.26,9.52,15.89
,-8.72,-1.318,-4.087,-8.748,-3.647,-4.523,-10.99,8.33,14.49
,-8.741,-1.639,-4.188,-8.942,-3.336,-4.645,-19.6,7.98,13.23
,-8.552,-2.194,-4.31,-9.079,-2.601,-4.518,-25.48,7.63,12.39
24986.0,-8.983,-2.022,-4.226,-9.143,-1.682,-4.02,-13.44,6.09,20.86
,-9.055,-1.96,-4.104,-9.117,-1.426,-3.848,-14.77,5.6,21.91
,-9.131,-2.003,-4.171,-9.203,-1.11,-3.764,-14.56,5.67,22.96
,-9.172,-1.866,-4.183,-9.237,-1.012,-3.565,-13.3,5.04,24.43
25062.0,-9.246,-0.799,-3.333,-9.471,-2.924,-4.195,-5.95,4.55,33.53
,-9.447,-0.333,-3.345,-9.603,-3.635,-4.539,-9.73,3.99,32.76
,-9.5,-0.139,-3.604,-9.629,-3.276,-4.688,-18.97,2.87,29.47
,-9.471,-1.141,-3.924,-9.543,-2.407,-4.609,-31.99,1.54,25.06
25138.0,-9.411,-1.378,-4.463,-8.622,-0.835,-3.769,-32.62,0.56,23.24
,-9.115,-0.701,-4.269,-8.433,-0.526,-3.719,-34.37,0.21,23.03
,-8.746,-0.366,-4.006,-8.777,-0.464,-3.702,-37.45,-0.42,22.33
,-8.641,-0.55,-3.812,-9.351,-0.371,-3.881,-38.78,-0.63,22.54
25213.0,-9.617,-0.321,-4.204,-8.732,-1.216,-4.59,-40.46,-0.91,20.58
,-9.557,-0.62,-4.295,-9.009,-0.486,-4.712,-42.0,-1.47,19.88
,-9.366,-0.849,-4.537,-8.875,-0.589,-4.645,-40.67,-1.89,19.53
,-8.897,-1.493,-4.558,-8.737,-0.546,-4.456,-36.26,-1.89,20.65
25289.0,-8.926,-0.333,-4.314,-9.069,0.0,-4.121,-18.27,-3.08,22.61
,-9.186,0.168,-4.243,-9.088,-0.122,-4.178,-16.73,-3.29,21.91
,-9.332,0.239,-4.142,-9.162,-0.041,-4.29,-17.64,-3.57,21.07
,-9.246,0.153,-4.013,-9.15,-0.196,-4.279,-19.18,-3.85,20.16
25365.0,-8.981,-0.081,-4.171,-9.043,-0.275,-4.07,-14.42,-4.41,17.71
,-9.198,0.036,-4.166,-9.005,-0.115,-4.111,-14.28,-4.27,16.66
,-9.052,-0.041,-4.13,-9.007,0.208,-4.259,-15.82,-4.48,15.47
,-8.839,0.053,-4.106,-9.11,0.34,-4.259,-16.03,-4.69,15.19
25440.0,-9.122,0.249,-4.324,-9.129,0.625,-3.568,-3.64,-4.27,15.96
,-9.11,0.127,-4.247,-9.325,0.9,-3.525,-1.47,-4.2,15.89
,-9.237,0.191,-4.192,-9.493,1.089,-3.338,1.47,-3.85,16.1
,-9.253,0.242,-4.097,-9.148,1.027,-3.08,4.69,-3.5,16.45
25516.0,-9.088,0.617,-2.91,-9.162,0.627,-3.226,-10.22,-3.36,6.79
,-9.17,0.584,-2.888,-9.182,0.95,-3.515,-10.78,-2.31,6.02
,-9.27,0.56,-3.017,-9.131,0.706,-3.826,-10.64,-1.26,5.67
,-9.292,0.739,-3.178,-8.964,-0.165,-3.74,-11.34,-0.7,5.18
25592.0,-8.909,-0.488,-3.922,-9.079,0.73,-4.487,-17.15,0.98,3.64
,-9.301,-0.438,-4.252,-9.201,0.756,-4.391,-11.41,2.03,4.41
,-9.189,-0.019,-4.456,-9.043,0.514,-4.267,-7.91,2.24,4.9
,-9.057,0.359,-4.46,-8.892,0.239,-3.979,-6.65,2.1,5.04
25668.0,-9.024,0.268,-3.917,-9.079,-0.002,-3.953,-9.45,0.56,3.85
,-9.234,0.433,-3.984,-9.007,0.459,-4.159,-10.78,0.49,2.8
,-9.308,0.002,-3.994,-8.99,0.601,-4.25,-13.09,0.63,2.31
,-9.177,-0.136,-3.955,-9.04,0.335,-4.276,-12.39,0.91,2.73
25743.0,-8.976,0.191,-4.305,-8.976,-0.029,-4.128,-7.42,0.42,4.06
,-9.098,0.333,-4.365,-8.751,0.062,-4.336,-5.04,0.21,4.34
,-9.112,0.589,-4.429,-8.804,0.335,-4.432,-3.78,-0.28,4.41
,-9.153,0.632,-4.513,-8.866,0.22,-4.113,-3.78,-0.91,4.27
25819.0,-8.686,0.51,-4.001,-8.993,0.541,-3.398,7.91,-0.56,8.33
,-9.287,-0.404,-4.054,-8.691,0.931,-3.704,9.8,0.35,8.75
,-9.73,1.771,-3.75,-9.091,1.728,-3.826,15.89,0.56,9.31
,-9.373,1.005,-3.41,-9.442,2.012,-4.212,11.48,0.56,9.45
25895.0,-8.607,0.225,-3.695,-9.797,0.601,-3.393,10.78,-0.84,7.49
,-8.035,-0.012,-3.185,-9.366,-0.474,-3.362,9.87,-1.12,5.88
,-9.158,1.297,-3.47,-9.079,0.038,-3.436,8.82,-0.91,3.15
,-9.931,1.639,-3.53,-9.368,1.292,-4.058,-0.63,-0.91,0.0
25971.0,-9.363,1.658,-4.654,-8.894,0.191,-4.975,13.02,2.03,2.52
,-8.911,0.931,-4.872,-8.524,-0.036,-4.472,8.54,0.7,1.75
,-9.016,0.199,-5.008,-8.835,0.069,-4.073,9.66,-0.35,1.75
,-9.081,0.328,-5.126,-9.258,0.565,-3.857,14.77,-1.19,2.24
26046.0,-9.325,0.778,-3.53,-9.256,1.484,-2.816,15.61,-4.69,2.73
,-9.21,0.694,-3.135,-9.356,1.101,-2.943,12.32,-4.41,2.17
,-9.127,0.775,-3.001,-9.119,-0.299,-2.886,11.62,-3.57,1.89
,-9.146,1.268,-2.86,-9.165,-0.014,-2.958,10.78,-2.66,1.47
26122.0,-9.552,0.608,-3.381,-9.021,0.079,-4.054,8.96,1.96,0.07
,-9.445,0.907,-3.671,-9.162,0.354,-4.137,7.42,2.38,-0.42
,-9.098,0.651,-3.819,-9.174,0.424,-4.082,3.85,2.24,-0.91
,-8.981,0.211,-3.92,-9.122,0.474,-3.96,2.17,2.31,-1.33
26197.0,-9.033,0.474,-3.867,-8.983,0.079,-3.908,0.7,0.91,-1.75
,-8.985,0.268,-3.946,-9.122,0.589,-3.989,-0.07,0.56,-1.96
,-8.981,0.206,-3.979,-9.227,0.799,-4.054,0.0,0.49,-1.61
,-8.909,-0.043,-3.936,-9.134,0.67,-3.951,0.7,0.35,-1.12
26273.0,-9.079,0.431,-3.891,-9.1,0.335,-3.795,-0.28,-1.12,-1.12
,-9.115,0.416,-3.908,-9.241,0.373,-3.848,0.49,-1.4,-1.19
,-9.146,0.447,-3.927,-9.268,0.347,-3.865,1.33,-1.33,-1.12
,-9.158,0.409,-3.877,-9.184,0.299,-3.86,1.26,-1.61,-1.05
26349.0,-9.067,-0.184,-3.774,-9.256,0.641,-3.585,0.77,-1.75,-0.7
,-8.971,-0.534,-3.661,-9.174,0.486,-3.551,3.01,-1.26,0.28
,-9.143,-0.098,-3.678,-9.198,0.436,-3.494,6.93,-0.84,1.33
,-9.325,0.467,-3.656,-9.139,0.445,-3.546,7.91,-0.77,1.54
26425.0,-9.141,0.514,-3.62,-9.15,-0.005,-3.568,3.5,-0.21,1.12
,-9.136,0.644,-3.692,-9.091,0.062,-3.565,2.87,-0.14,0.98
,-9.198,0.529,-3.69,-9.172,0.254,-3.609,1.33,-0.35,0.63
,-9.134,0.177,-3.628,-9.239,0.565,-3.616,0.35,-0.28,0.63
26501.0,-9.27,0.677,-3.659,-9.136,0.258,-3.778,3.5,0.63,1.54
,-9.225,0.507,-3.743,-9.134,0.256,-3.723,2.03,0.7,1.33
,-9.177,0.354,-3.743,-9.179,0.436,-3.632,1.82,0.77,1.26
,-9.091,0.208,-3.769,-9.227,0.491,-3.673,2.45,0.7,1.54
26576.0,-9.15,0.297,-3.601,-9.359,0.184,-3.661,2.52,1.12,2.03
,-8.985,-0.036,-3.587,-9.275,0.01,-3.721,1.19,1.26,2.03
,-8.923,-0.148,-3.534,-8.981,0.203,-3.831,0.7,1.47,2.17
,-9.124,-0.074,-3.618,-9.012,0.436,-4.001,0.07,1.89,2.45
26652.0,-9.083,0.986,-4.137,-9.311,0.838,-3.917,0.21,1.19,1.47
,-9.103,0.787,-4.214,-9.399,1.235,-3.838,-5.6,0.35,-0.21
,-8.76,0.424,-4.049,-9.22,1.06,-3.731,-9.87,-0.42,-1.12
,-8.89,0.213,-3.991,-9.129,0.943,-3.678,-9.45,-0.84,-1.05
26728.0,-9.222,0.428,-3.855,-9.273,1.07,-4.31,-9.73,-2.31,-2.03
,-9.069,0.445,-4.046,-9.301,1.0,-4.099,-8.33,-2.52,-2.31
,-9.177,0.905,-4.281,-9.258,0.665,-3.932,-6.93,-2.94,-2.59
,-9.32,1.065,-4.413,-9.215,0.68,-3.769,-7.14,-3.5,-3.22
26804.0,-9.356,0.955,-3.64,-9.251,0.447,-3.113,-0.07,-5.53,-2.66
,-9.591,0.991,-3.503,-9.361,0.565,-2.996,0.35,-5.53,-2.94
,-9.502,0.878,-3.293,-9.368,0.603,-2.907,0.28,-5.39,-3.29
,-9.335,0.613,-3.209,-9.294,0.507,-2.8,0.7,-4.9,-3.36
26879.0,-9.416,0.56,-2.735,-9.304,0.366,-2.929,9.66,-0.35,-2.66
,-9.342,0.38,-2.661,-9.289,0.572,-3.049,9.52,0.49,-2.94
,-9.27,0.397,-2.716,-9.249,0.603,-3.137,9.66,1.68,-3.29
,-9.347,0.237,-2.809,-9.268,0.617,-3.202,9.66,2.66,-3.22
26955.0,-9.292,0.359,-3.319,-9.232,0.57,-3.551,4.97,5.53,-5.04
,-9.165,0.287,-3.398,-9.177,0.72,-3.671,4.2,5.67,-5.18
,-9.162,0.517,-3.491,-9.206,0.672,-3.709,3.36,6.02,-5.74
,-9.356,0.558,-3.549,-9.105,0.385,-3.704,1.26,5.95,-6.51
27030.0,-9.119,0.246,-3.671,-9.474,1.019,-3.592,-6.65,5.11,-8.33
,-9.229,0.05,-3.618,-9.316,0.888,-3.527,-6.93,5.39,-8.61
,-9.27,0.172,-3.623,-9.062,0.313,-3.57,-6.16,5.46,-8.89
,-9.34,0.704,-3.542,-9.184,0.036,-3.714,-5.95,5.67,-9.52
27106.0,-9.261,0.263,-3.855,-9.342,0.584,-3.664,-2.1,5.95,-10.22
,-9.177,0.187,-3.862,-9.354,0.56,-3.673,-0.98,5.88,-10.08
,-9.174,0.117,-3.766,-9.124,0.431,-3.747,0.0,6.09,-10.15
,-9.273,0.436,-3.723,-8.981,0.294,-3.814,1.4,6.37,-10.85
27182.0,-9.088,-0.16,-3.838,-9.11,0.593,-3.826,3.78,6.65,-12.25
,-9.127,-0.16,-3.821,-9.117,0.275,-3.865,5.95,6.65,-11.97
,-9.222,0.086,-3.833,-9.091,0.172,-3.92,7.7,6.93,-12.32
,-9.241,0.282,-3.738,-9.172,0.151,-4.042,7.84,7.07,-13.09
27258.0,-9.115,-0.034,-3.862,-9.139,0.069,-3.69,6.3,6.72,-15.33
,-9.141,0.258,-3.81,-9.131,0.089,-3.699,7.0,6.79,-15.96
,-9.217,0.38,-3.786,-9.213,0.349,-3.68,6.65,6.72,-16.66
,-9.179,0.28,-3.74,-9.296,0.498,-3.683,5.67,6.86,-17.36
27333.0,-9.261,0.359,-3.623,-9.174,-0.132,-3.635,5.11,7.63,-21.42
,-9.139,-0.069,-3.565,-9.256,0.007,-3.671,4.2,8.05,-22.19
,-8.978,-0.625,-3.51,-9.201,-0.067,-3.613,5.18,8.4,-22.4
,-9.036,-0.55,-3.484,-9.146,-0.019,-3.676,9.31,9.38,-22.19
27409.0,-9.143,0.007,-3.719,-9.17,-0.27,-4.082,19.32,12.39,-24.78
,-9.119,0.041,-3.776,-9.072,-0.5,-4.08,21.56,12.74,-25.34
,-9.134,0.067,-3.891,-9.024,-0.67,-3.987,23.1,13.02,-26.11
,-9.206,-0.132,-4.006,-9.0,-0.589,-3.915,23.87,13.09,-26.81
27485.0,-9.229,-0.302,-3.917,-9.215,-0.806,-3.924,27.16,12.18,-31.78
,-9.232,-0.474,-3.802,-9.237,-0.792,-4.097,25.69,12.39,-32.97
,-9.098,-0.62,-3.853,-9.282,-0.924,-4.188,25.06,12.53,-33.88
,-9.098,-0.775,-3.874,-9.206,-1.441,-4.147,25.62,12.74,-34.37
27561.0,-9.062,-1.807,-4.245,-9.464,-2.651,-4.551,24.85,11.2,-34.58
,-9.0,-2.218,-4.207,-9.5,-2.761,-4.523,24.08,10.92,-33.67
,-9.081,-2.599,-4.281,-9.524,-2.876,-4.413,23.8,10.5,-32.34
,-9.335,-2.704,-4.439,-9.521,-2.845,-4.415,23.94,9.94,-30.73
27637.0,-9.634,-2.807,-4.48,-9.399,-2.977,-4.491,22.19,8.54,-23.17
,-9.713,-2.867,-4.487,-9.251,-2.982,-4.271,23.38,8.05,-21.84
,-9.67,-2.915,-4.649,-8.961,-2.848,-4.037,24.08,7.56,-21.28
,-9.485,-3.037,-4.63,-8.815,-2.426,-3.972,23.73,6.72,-20.58
27712.0,-8.763,-2.343,-3.915,-8.421,-2.13,-3.656,28.91,6.58,-12.88
,-8.646,-2.458,-3.764,-8.433,-1.797,-3.75,30.45,7.07,-10.15
,-8.519,-2.563,-3.676,-8.366,-1.598,-3.833,33.32,7.63,-6.86
,-8.428,-2.424,-3.635,-8.222,-1.524,-3.891,37.8,8.47,-2.45
27788.0,-8.059,-1.622,-3.972,-8.033,-0.823,-4.503,52.71,11.83,17.85
,-7.932,-1.639,-4.044,-8.177,-0.761,-4.592,54.95,12.32,21.7
,-7.968,-1.512,-4.238,-8.464,-0.919,-4.599,57.19,12.39,25.13
,-7.956,-1.24,-4.357,-8.536,-0.66,-4.503,58.03,11.9,27.86
27863.0,-8.49,-0.103,-4.355,-8.88,-1.125,-3.388,29.89,-0.56,33.32
,-8.593,0.053,-4.269,-8.751,-0.756,-3.264,19.74,-3.78,32.2
,-8.77,-0.452,-4.085,-8.866,-0.854,-3.75,9.38,-6.37,31.08
,-8.849,-0.926,-3.841,-8.681,-1.78,-3.723,3.29,-7.84,30.73
27939.0,-8.567,-2.465,-3.824,-8.715,-0.89,-4.008,-15.4,-5.25,33.18
,-8.344,-2.312,-3.881,-8.866,-0.471,-4.302,-10.71,-3.99,35.56
,-8.421,-1.833,-3.884,-8.83,-0.677,-4.334,-6.51,-3.22,36.75
,-8.588,-1.347,-3.91,-8.519,-2.079,-4.276,-5.46,-2.94,36.75
28015.0,-8.387,-3.484,-4.068,-8.911,-1.551,-4.073,-30.31,-7.28,33.18
,-8.387,-3.379,-4.008,-8.957,-1.407,-3.955,-21.49,-6.65,35.98
,-8.581,-2.544,-3.948,-9.177,-1.335,-3.898,-12.32,-5.95,37.94
,-8.993,-1.907,-4.116,-9.32,-1.177,-3.81,-8.96,-5.46,38.22
28091.0,-9.38,-0.991,-3.927,-8.631,-3.01,-4.415,-26.95,-1.82,30.17
,-9.268,-1.438,-4.089,-8.813,-2.257,-4.542,-35.42,-0.98,27.79
,-9.091,-2.063,-4.401,-9.0,-1.826,-4.817,-41.37,-0.14,26.46
,-8.732,-3.082,-4.267,-9.028,-1.682,-4.81,-43.19,0.91,26.88
28166.0,-8.866,-1.385,-4.853,-9.079,-0.914,-4.599,-26.6,-0.63,24.15
,-8.911,-1.072,-4.807,-9.028,-1.211,-4.685,-28.07,-2.8,21.49
,-8.949,-0.672,-4.743,-9.093,-1.529,-4.489,-31.57,-4.76,18.69
,-9.055,-0.651,-4.826,-9.031,-1.709,-4.302,-36.75,-6.86,15.82
28242.0,-9.086,-2.06,-4.025,-8.882,-1.249,-3.893,-47.95,-13.02,6.58
,-8.99,-1.969,-3.898,-8.942,-1.082,-3.922,-45.29,-12.32,6.3
,-8.966,-1.68,-3.898,-8.823,-1.156,-3.979,-42.91,-10.99,6.44
,-8.902,-1.421,-3.994,-8.787,-1.462,-3.979,-41.44,-9.8,6.16
28317.0,-8.849,-1.596,-4.032,-9.44,-2.185,-3.975,-41.3,-6.86,1.19
,-8.808,-1.383,-4.02,-9.715,-2.941,-3.833,-38.15,-6.44,0.63
,-8.875,-1.608,-3.853,-9.387,-3.171,-3.64,-35.63,-6.02,0.0
,-9.206,-1.692,-3.92,-9.304,-3.187,-3.52,-30.8,-5.74,-0.07
28393.0,-8.921,-3.664,-3.491,-8.677,0.299,-3.888,-11.41,-13.79,-5.74
,-8.44,-4.726,-3.489,-8.78,1.534,-3.941,-3.99,-11.76,-3.78
,-8.624,-5.188,-3.218,-9.399,1.326,-4.676,8.96,-8.96,-0.56
,-8.516,-3.156,-2.668,-9.72,0.866,-4.604,27.51,-7.56,2.94
28469.0,-9.464,1.144,-4.721,-9.407,0.481,-4.027,11.06,1.82,2.66
,-9.746,1.17,-4.712,-9.064,0.031,-3.743,15.68,-0.21,3.71
,-9.907,1.046,-4.611,-9.026,-0.292,-3.599,18.13,-2.66,4.9
,-9.643,0.792,-4.326,-9.17,-0.493,-3.664,19.74,-4.55,6.09
28545.0,-9.273,-0.742,-3.628,-9.43,-0.44,-2.924,9.31,-6.3,2.31
,-9.131,-0.986,-3.609,-9.538,-0.211,-2.802,3.36,-6.09,0.7
,-9.148,-1.117,-3.257,-9.581,-0.055,-2.601,-0.98,-6.09,-0.35
,-9.186,-0.773,-3.202,-9.55,0.014,-2.417,-3.22,-6.02,-1.47
28621.0,-9.665,0.098,-2.283,-9.663,0.246,-3.154,-3.85,-1.33,0.21
,-9.703,0.261,-2.307,-9.502,0.026,-3.431,-1.19,-0.07,1.12
,-9.646,0.275,-2.465,-9.225,-0.309,-3.762,0.84,0.98,1.61
,-9.624,0.251,-2.836,-9.019,-0.452,-4.113,2.87,1.75,1.89
28696.0,-8.983,-0.4,-4.319,-9.148,0.007,-3.896,4.55,1.05,0.77
,-9.117,-0.402,-4.434,-9.225,0.208,-3.745,4.69,0.35,0.84
,-9.134,-0.313,-4.377,-9.282,0.244,-3.635,5.53,-0.35,0.98
,-9.143,-0.144,-4.25,-9.363,0.177,-3.326,5.81,-1.05,1.19
28772.0,-9.368,0.187,-3.151,-9.462,-0.096,-2.742,2.8,-3.57,0.63
,-9.466,0.115,-3.044,-9.423,-0.134,-2.764,2.66,-3.36,0.49
,-9.562,0.043,-2.967,-9.387,-0.187,-2.745,2.59,-2.94,0.35
,-9.555,-0.017,-2.898,-9.497,-0.237,-2.797,2.31,-2.66,0.35
28848.0,-9.497,-0.292,-2.95,-9.347,0.043,-3.242,2.17,0.91,0.0
,-9.287,-0.345,-3.041,-9.399,0.163,-3.242,2.52,1.4,0.07
,-9.184,-0.215,-3.139,-9.402,0.206,-3.235,3.22,2.03,0.28
,-9.196,-0.153,-3.209,-9.337,0.124,-3.276,3.71,2.31,0.28
28924.0,-9.265,0.108,-3.223,-9.318,-0.359,-3.539,0.42,2.87,-0.42
,-9.335,0.055,-3.36,-9.263,-0.481,-3.496,-0.14,3.01,-0.7
,-9.426,-0.093,-3.391,-9.22,-0.452,-3.458,-0.77,2.87,-0.98
,-9.426,-0.256,-3.498,-9.213,-0.366,-3.558,-1.05,2.52,-0.98
28999.0,-9.189,-0.395,-3.513,-9.38,-0.031,-3.594,1.61,2.73,0.0
,-9.198,-0.285,-3.491,-9.318,0.007,-3.527,2.1,2.73,0.28
,-9.275,-0.203,-3.553,-9.249,-0.01,-3.597,2.94,2.87,0.42
,-9.373,-0.151,-3.546,-9.28,0.019,-3.534,3.78,2.87,0.56
29075.0,-9.301,-0.007,-3.527,-9.32,-0.254,-3.441,3.71,1.61,0.07
,-9.28,-0.101,-3.51,-9.229,-0.239,-3.4,3.22,1.26,-0.07
,-9.304,-0.144,-3.463,-9.273,-0.151,-3.388,3.29,1.26,0.0
,-9.423,-0.206,-3.446,-9.251,-0.158,-3.386,3.5,1.12,0.0
29150.0,-9.249,-0.196,-3.333,-9.447,-0.378,-3.226,2.87,1.05,0.0
,-9.323,-0.187,-3.278,-9.337,-0.251,-3.23,2.38,1.19,-0.14
,-9.478,-0.189,-3.319,-9.445,-0.148,-3.321,2.38,1.33,-0.21
,-9.588,-0.378,-3.295,-9.581,-0.191,-3.448,2.45,1.61,-0.07
29226.0,-9.672,-0.388,-3.498,-9.378,-0.967,-3.197,3.01,2.31,0.49
,-9.765,-0.598,-3.542,-9.438,-0.677,-2.958,3.15,2.38,0.49
,-9.679,-0.847,-3.537,-9.739,-0.826,-2.793,3.85,2.52,0.35
,-9.584,-0.991,-3.439,-9.892,-0.797,-2.635,5.18,3.01,0.35
29302.0,-9.775,-0.708,-2.611,-9.229,-0.503,-3.364,8.61,8.54,-1.33
,-9.727,-0.952,-2.505,-9.107,-0.995,-3.728,8.12,10.08,-1.12
,-9.56,-0.866,-2.843,-9.122,-1.46,-3.841,10.08,11.83,0.28
,-9.608,-0.51,-3.23,-9.019,-1.263,-4.223,10.5,13.02,0.77
29378.0,-8.99,-1.457,-4.341,-8.918,-1.249,-4.465,13.3,14.21,3.71
,-9.076,-1.742,-4.362,-8.799,-1.701,-4.46,17.08,13.65,4.69
,-8.957,-1.419,-4.463,-8.82,-1.943,-4.539,21.84,12.32,4.27
,-8.808,-1.012,-4.525,-8.722,-2.261,-4.446,24.71,11.34,3.22
29454.0,-8.634,-2.146,-4.46,-8.909,-1.945,-4.391,32.2,8.26,-3.92
,-8.61,-1.991,-4.436,-8.775,-1.993,-4.453,33.81,8.12,-5.11
,-8.732,-1.855,-4.264,-8.784,-2.144,-4.444,35.21,7.77,-5.88
,-8.945,-1.9,-4.314,-8.689,-1.984,-4.216,35.91,7.91,-6.93
29529.0,-8.748,-1.685,-4.166,-8.76,-2.333,-4.209,40.74,8.26,-14.0
,-8.744,-1.491,-4.183,-8.746,-2.833,-4.068,40.18,8.33,-15.54
,-8.832,-1.45,-4.089,-8.969,-2.749,-4.123,38.78,8.26,-17.29
,-8.837,-1.62,-4.183,-9.131,-2.158,-4.097,36.26,8.12,-19.11
29605.0,-9.174,-1.555,-3.948,-9.215,-2.28,-4.135,54.11,7.91,-18.55
,-9.27,-1.266,-4.195,-9.203,-2.443,-3.991,53.55,7.56,-20.02
,-9.261,-1.476,-4.121,-9.287,-1.883,-3.812,51.59,7.14,-21.14
,-9.203,-1.668,-4.18,-9.325,-1.543,-3.711,50.12,6.23,-21.91
29681.0,-9.268,-1.699,-3.494,-9.1,-1.79,-3.678,53.27,4.55,-23.03
,-9.375,-1.649,-3.683,-9.069,-1.972,-3.592,51.24,4.41,-23.66
,-9.308,-1.67,-3.623,-9.206,-1.761,-3.563,47.81,3.5,-24.71
,-9.241,-1.431,-3.62,-9.354,-1.491,-3.549,43.89,2.52,-26.18
29757.0,-9.428,-1.295,-3.728,-9.263,-1.807,-3.568,32.06,-5.11,-31.99
,-9.32,-1.764,-3.92,-9.399,-1.462,-3.262,26.46,-7.91,-33.67
,-9.074,-2.015,-3.733,-9.529,-1.359,-2.946,24.43,-10.71,-34.02
,-9.112,-1.957,-3.601,-9.586,-1.357,-2.828,25.41,-13.23,-34.02
29832.0,-9.325,-1.074,-2.56,-8.674,-1.962,-2.508,17.01,-22.33,-32.83
,-9.081,-0.682,-2.527,-8.847,-1.658,-2.491,10.08,-21.91,-33.81
,-9.088,-0.981,-2.584,-8.985,-1.12,-2.726,1.33,-19.95,-33.95
,-8.878,-1.74,-2.539,-9.091,-1.187,-2.883,-4.97,-16.66,-32.69
29908.0,-8.918,-1.472,-2.831,-8.547,-1.536,-2.967,-14.0,-6.86,-21.84
,-8.823,-1.668,-2.891,-8.533,-1.364,-3.223,-14.21,-5.18,-19.53
,-8.784,-1.799,-2.996,-8.504,-1.232,-3.226,-12.74,-3.43,-16.94
,-8.653,-1.852,-2.972,-8.38,-1.074,-3.166,-9.73,-2.03,-13.51
29983.0,-8.131,-0.696,-3.29,-8.356,-2.867,-4.176,-19.88,4.34,-5.25
,-7.851,-0.651,-3.276,-8.366,-2.565,-4.233,-27.37,7.56,-4.34
,-7.875,-0.916,-3.51,-8.442,-2.29,-4.403,-33.6,10.85,-2.66
,-8.217,-1.905,-4.19,-8.646,-3.228,-4.068,-39.62,13.3,-0.91
30059.0,-8.574,-4.506,-3.628,-8.916,-2.651,-3.463,-16.52,6.72,15.75
,-8.526,-4.166,-3.692,-8.689,-2.139,-3.252,-2.52,6.44,19.74
,-8.842,-3.601,-3.81,-8.72,-2.233,-3.139,7.42,5.18,22.19
,-8.969,-3.276,-3.747,-9.016,-2.505,-3.077,11.48,3.36,22.68
30135.0,-9.174,-3.266,-3.053,-9.493,-1.811,-2.955,-14.84,8.96,17.5
,-9.246,-3.568,-3.123,-9.177,-1.117,-3.206,-12.95,9.17,18.34
,-9.404,-3.23,-3.13,-9.265,-1.218,-3.405,-8.19,8.68,20.09
,-9.533,-2.589,-3.084,-9.296,-1.558,-3.532,-5.39,8.05,21.7
30211.0,-9.16,-1.79,-3.551,-8.897,-1.22,-3.958,-32.62,6.3,17.01
,-9.012,-1.96,-3.46,-9.141,-1.072,-4.195,-33.67,6.09,17.43
,-9.048,-1.835,-3.69,-9.277,-1.055,-4.348,-32.48,5.88,18.27
,-8.993,-1.677,-3.817,-9.117,-1.457,-4.463,-31.71,5.88,19.46
30286.0,-9.215,-1.847,-4.597,-9.165,-0.637,-4.506,-34.23,1.4,22.26
,-9.253,-2.017,-4.582,-9.375,-0.759,-4.365,-28.14,0.77,25.06
,-9.356,-1.981,-4.614,-9.387,-1.438,-4.439,-20.44,0.14,28.35
,-9.27,-1.33,-4.52,-9.229,-1.649,-4.403,-12.53,-0.49,31.22
30362.0,-9.263,-1.759,-4.302,-9.153,-1.761,-3.609,-28.0,-6.79,23.73
,-9.383,-2.029,-4.25,-9.241,-0.73,-3.58,-34.65,-7.77,21.14
,-9.273,-2.173,-4.022,-9.397,0.428,-3.556,-38.78,-8.4,19.67
,-9.189,-2.163,-3.685,-9.38,0.17,-3.458,-38.71,-8.4,19.74
30438.0,-8.921,-0.069,-3.338,-9.541,-0.311,-4.008,-30.87,-7.07,18.27
,-9.028,-0.101,-3.221,-9.308,-0.61,-4.056,-29.19,-7.0,17.92
,-9.079,-0.053,-3.422,-9.167,-1.182,-4.18,-27.02,-6.65,17.57
,-9.392,-0.079,-3.807,-9.189,-1.213,-4.068,-25.2,-6.51,17.5
30514.0,-9.38,-0.462,-3.97,-9.244,-0.225,-3.817,-12.25,-7.63,17.36
,-9.509,-0.079,-3.774,-9.17,-0.12,-3.891,-10.92,-7.56,17.15
,-9.404,0.045,-3.647,-9.27,0.313,-3.786,-9.87,-7.84,17.01
,-9.392,-0.084,-3.594,-9.184,-0.067,-3.616,-8.47,-7.84,16.87
30590.0,-9.215,-0.313,-3.448,-9.277,0.115,-3.647,-4.2,-7.49,14.07
,-9.466,0.208,-3.575,-9.332,0.053,-3.575,-1.61,-7.63,13.16
,-9.464,0.562,-3.642,-9.356,-0.814,-3.482,-2.38,-7.7,12.18
,-9.292,0.469,-3.666,-9.462,-1.4,-3.266,-4.41,-7.91,11.55
30665.0,-9.509,-0.715,-3.161,-9.395,-0.043,-2.826,7.84,-5.81,10.22
,-9.385,0.081,-3.07,-9.347,-0.103,-2.931,9.8,-4.83,9.94
,-9.33,0.112,-2.931,-9.402,-0.187,-2.989,7.56,-3.78,9.66
,-9.34,0.067,-2.778,-9.39,-0.007,-3.18,6.23,-3.01,9.52
30741.0,-9.225,0.292,-2.994,-9.428,0.849,-3.431,10.92,0.7,9.31
,-9.229,0.933,-3.278,-9.308,0.715,-3.443,8.54,0.84,7.7
,-9.28,0.933,-3.288,-9.337,0.562,-3.369,2.59,0.56,5.81
,-9.373,0.749,-3.199,-9.423,0.577,-3.266,-2.24,0.14,3.99
30816.0,-9.347,0.345,-3.376,-9.39,0.179,-3.262,-10.01,-0.49,0.14
,-8.983,-0.421,-3.259,-9.217,0.105,-3.278,-13.37,-0.77,-0.28
,-9.124,-0.627,-3.187,-9.241,-0.184,-3.288,-12.67,-0.49,-0.28
,-9.517,-0.146,-3.185,-9.289,-0.29,-3.486,-10.71,-0.07,-0.42
30892.0,-9.234,-0.041,-3.685,-9.414,-0.416,-3.458,-4.06,0.07,2.03
,-9.28,0.029,-3.771,-9.366,-0.146,-3.324,-4.13,-0.56,1.47
,-9.251,0.034,-3.79,-9.244,0.153,-3.307,-5.74,-0.84,0.84
,-9.261,-0.239,-3.649,-9.244,0.246,-3.34,-6.51,-0.91,0.91
30968.0,-9.411,0.022,-3.321,-9.576,-0.419,-2.548,-6.3,-2.45,2.87
,-9.397,-0.282,-3.23,-9.457,0.196,-2.582,-8.19,-2.52,2.59
,-9.306,-0.409,-2.996,-9.686,0.235,-3.271,-9.03,-2.03,2.52
,-9.478,-0.574,-2.709,-9.83,0.567,-3.19,-8.61,-1.05,3.29
31044.0,-9.325,1.464,-3.211,-9.502,-0.306,-3.85,-17.92,1.33,0.07
,-9.347,0.835,-3.563,-9.507,0.282,-3.8,-23.52,1.19,-0.91
,-9.263,-0.567,-3.743,-9.273,0.723,-3.549,-24.5,1.12,0.0
,-9.198,-0.83,-3.817,-9.387,0.517,-3.393,-16.8,1.54,2.03
31119.0,-9.347,0.146,-3.25,-9.318,-0.244,-3.448,0.0,2.31,4.13
,-9.493,0.002,-3.19,-9.172,-0.191,-3.551,3.01,3.08,4.27
,-9.675,-0.098,-3.197,-9.131,0.055,-3.817,6.09,3.71,4.69
,-9.469,-0.249,-3.19,-9.1,-0.206,-3.972,9.38,4.13,5.46
31195.0,-9.072,-0.505,-4.113,-9.28,0.433,-3.482,13.65,2.94,6.65
,-8.985,-0.488,-4.078,-9.225,0.828,-3.278,15.33,2.31,7.42
,-8.916,-0.498,-3.805,-9.241,0.529,-3.137,18.13,2.1,8.47
,-9.129,-0.249,-3.671,-9.299,0.136,-2.984,21.56,1.96,9.17
31271.0,-9.225,-0.093,-2.891,-9.385,0.459,-3.187,13.16,1.12,7.35
,-9.277,-0.323,-2.74,-9.38,0.251,-3.386,11.62,1.89,7.21
,-9.421,-0.194,-2.845,-9.162,0.134,-3.544,10.71,2.31,6.79
,-9.409,0.29,-3.072,-9.057,0.318,-3.463,8.82,2.59,6.02
31347.0,-9.206,0.385,-3.601,-9.217,0.199,-3.577,3.92,2.59,5.11
,-9.34,0.44,-3.618,-9.316,0.258,-3.486,4.41,2.31,5.11
,-9.249,0.462,-3.606,-9.428,0.345,-3.4,3.71,1.96,4.69
,-9.177,0.345,-3.553,-9.497,0.431,-3.312,2.59,1.54,4.2
31422.0,-9.423,0.44,-3.166,-9.423,0.27,-3.147,2.03,1.61,4.06
,-9.392,0.23,-3.053,-9.428,0.232,-3.23,1.33,2.03,4.06
,-9.308,0.187,-3.022,-9.375,0.369,-3.266,1.19,2.38,3.99
,-9.301,0.191,-3.034,-9.246,0.244,-3.338,1.54,2.87,4.06
31498.0,-9.191,0.067,-3.278,-9.294,0.28,-3.546,1.19,4.06,3.5
,-9.251,0.168,-3.374,-9.308,0.421,-3.57,1.19,4.06,3.36
,-9.323,0.261,-3.467,-9.177,0.225,-3.498,0.63,4.27,3.36
,-9.373,0.302,-3.513,-9.095,-0.285,-3.503,-0.28,4.34,3.22
31573.0,-9.115,-0.069,-3.503,-9.227,0.436,-3.594,1.12,4.06,3.92
,-9.385,0.45,-3.609,-9.232,0.361,-3.654,2.45,4.06,3.78
,-9.447,0.637,-3.63,-9.127,0.424,-3.654,0.7,3.92,3.5
,-9.292,0.574,-3.577,-9.057,0.23,-3.649,-1.4,3.64,3.29
31649.0,-8.947,-0.603,-3.647,-9.134,-0.079,-3.687,-3.29,2.24,3.71
,-8.914,-0.675,-3.453,-8.964,-0.074,-3.783,-0.21,2.45,4.76
,-9.316,-0.108,-3.463,-9.141,0.316,-3.975,3.43,2.87,5.39
,-9.485,-0.091,-3.57,-9.529,1.237,-4.185,2.94,3.22,5.6
31725.0,-9.521,1.752,-4.039,-9.392,0.974,-3.403,-8.75,0.21,1.4
,-9.402,1.634,-3.867,-9.591,1.072,-3.317,-13.72,-0.98,0.28
,-9.313,0.574,-3.687,-9.462,0.694,-3.221,-15.89,-1.47,-0.07
,-9.174,0.416,-3.357,-9.426,0.426,-3.149,-12.25,-1.4,-0.07
31801.0,-9.337,0.05,-3.089,-9.213,1.017,-3.604,-2.8,0.77,0.21
,-9.316,0.321,-3.032,-9.349,0.5,-3.857,1.47,1.54,1.26
,-9.426,0.972,-3.266,-9.009,-0.026,-3.807,4.55,2.03,1.05
,-9.366,1.103,-3.376,-8.997,0.031,-3.934,3.64,2.24,0.77
31877.0,-9.39,0.503,-3.953,-9.45,0.873,-3.061,10.08,0.98,2.87
,-9.466,0.852,-3.63,-9.28,0.768,-3.111,10.01,0.7,3.22
,-9.493,0.991,-3.302,-9.182,0.517,-3.142,8.05,0.42,2.73
,-9.411,0.794,-3.072,-9.313,0.55,-3.271,7.21,0.42,2.24
31952.0,-9.347,0.689,-3.441,-9.234,0.634,-3.233,8.89,2.1,0.84
,-9.239,0.598,-3.348,-9.337,0.737,-3.417,8.4,2.03,0.7
,-9.186,0.514,-3.206,-9.354,0.57,-3.467,7.07,2.24,0.42
,-9.182,0.385,-3.23,-9.237,0.258,-3.498,6.23,2.52,0.21
32028.0,-9.074,0.395,-3.446,-9.251,0.73,-3.618,4.55,3.43,-0.07
,-9.184,0.668,-3.565,-9.373,0.668,-3.551,5.11,3.43,-0.14
,-9.179,0.768,-3.699,-9.375,0.759,-3.475,2.87,2.87,-0.77
,-9.215,0.845,-3.58,-9.351,0.94,-3.532,0.21,2.52,-1.33
32104.0,-9.038,0.692,-3.34,-9.311,0.44,-3.221,-9.52,1.4,-6.44
,-8.918,0.361,-3.264,-9.299,0.601,-3.159,-10.71,1.4,-6.37
,-9.239,-0.038,-3.297,-9.371,0.4,-3.288,-9.45,2.1,-5.88
,-9.347,0.201,-3.199,-9.354,0.436,-3.553,-6.72,3.01,-5.46
32180.0,-9.347,0.447,-3.783,-9.043,0.299,-3.599,-1.89,4.2,-5.25
,-9.311,0.517,-3.9,-9.191,0.66,-3.628,-0.28,4.2,-5.04
,-9.306,0.615,-4.054,-9.368,0.761,-3.453,0.35,3.99,-5.18
,-9.162,0.361,-3.838,-9.32,0.593,-3.379,-0.28,3.43,-5.46
32255.0,-9.375,0.364,-3.403,-9.127,-0.227,-3.628,-4.2,2.87,-8.05
,-9.251,0.727,-3.439,-9.239,-0.05,-3.747,-1.4,3.22,-7.84
,-9.22,0.964,-3.63,-9.253,0.323,-3.635,-1.61,3.15,-8.26
,-9.098,0.383,-3.709,-9.289,0.751,-3.482,-4.2,2.87,-8.61
32331.0,-9.361,0.998,-3.582,-9.239,-0.091,-3.448,0.91,3.5,-9.24
,-9.289,0.706,-3.513,-9.21,0.103,-3.283,0.14,3.29,-9.66
,-9.124,0.44,-3.417,-9.495,0.498,-3.142,0.63,3.43,-9.73
,-9.275,0.196,-3.472,-9.548,0.491,-2.936,1.68,3.78,-9.73
32406.0,-9.359,0.191,-2.742,-9.277,0.196,-3.19,2.73,5.95,-10.92
,-9.282,0.313,-2.759,-9.292,-0.421,-3.252,4.2,6.93,-11.06
,-9.375,0.782,-2.929,-9.246,-0.089,-3.324,4.97,7.56,-11.34
,-9.34,0.747,-3.072,-9.239,0.357,-3.568,3.29,8.12,-11.76
32482.0,-9.363,0.268,-3.752,-9.064,0.33,-4.204,5.95,10.71,-13.02
,-9.062,0.093,-3.939,-9.052,0.211,-4.221,5.04,10.85,-13.79
,-9.05,-0.06,-4.056,-9.045,0.258,-4.14,5.04,10.78,-14.14
,-9.107,0.132,-4.161,-9.072,0.397,-4.085,6.51,10.85,-14.21
32558.0,-9.22,0.306,-3.955,-9.304,-0.294,-3.623,8.82,9.03,-16.45
,-9.074,0.089,-3.929,-9.289,0.026,-3.465,9.24,8.75,-17.01
,-9.105,-0.124,-3.862,-9.378,0.474,-3.384,10.71,8.82,-17.43
,-9.107,-0.158,-3.726,-9.409,0.404,-3.288,12.39,9.03,-17.64
32634.0,-9.304,0.316,-3.314,-9.261,-0.426,-3.465,14.77,11.55,-22.75
,-9.33,0.06,-3.281,-9.124,-0.476,-3.671,15.4,12.11,-23.66
,-9.359,-0.017,-3.326,-9.062,-0.605,-3.845,17.08,12.88,-24.5
,-9.349,-0.199,-3.417,-8.961,-0.644,-3.862,18.55,13.79,-25.2
32710.0,-8.966,-0.486,-4.087,-8.83,-1.436,-4.46,23.17,15.26,-29.4
,-8.957,-0.57,-4.223,-8.985,-1.23,-4.41,22.54,15.12,-30.17
,-8.969,-0.756,-4.36,-8.969,-0.924,-4.365,22.33,14.7,-30.66
,-8.844,-1.027,-4.508,-8.945,-1.003,-4.226,22.75,14.0,-30.8
32785.0,-9.026,-1.163,-4.125,-9.206,-1.955,-3.891,28.28,12.18,-29.75
,-9.107,-1.146,-3.984,-9.225,-2.233,-4.003,27.86,11.83,-29.96
,-9.213,-1.364,-3.939,-9.194,-2.24,-4.106,26.74,11.69,-30.17
,-9.196,-1.644,-3.987,-9.342,-2.099,-4.226,25.48,11.48,-29.82
32861.0,-9.435,-2.077,-4.379,-9.629,-2.553,-4.52,26.6,11.9,-25.76
,-9.447,-2.194,-4.558,-9.505,-2.395,-4.496,24.85,11.76,-25.27
,-9.466,-2.474,-4.606,-9.624,-2.151,-4.496,23.8,11.2,-24.29
,-9.497,-2.505,-4.472,-9.564,-2.048,-4.326,24.5,10.85,-22.61
32937.0,-9.323,-2.283,-4.025,-8.751,-2.185,-4.082,22.47,8.05,-17.29
,-9.117,-2.312,-3.92,-8.547,-2.288,-4.176,22.96,8.12,-15.75
,-8.926,-2.079,-3.932,-8.507,-2.144,-4.252,25.2,8.19,-13.65
,-8.851,-1.931,-4.063,-8.557,-1.914,-4.283,26.95,8.05,-11.34
33013.0,-8.748,-1.78,-4.219,-8.098,-1.429,-3.427,39.2,5.88,1.4
,-8.839,-1.866,-4.219,-8.191,-1.024,-3.379,39.76,4.97,2.31
,-8.406,-1.701,-4.066,-8.181,-0.983,-3.771,39.48,5.11,3.5
,-8.311,-1.649,-3.833,-8.181,-1.28,-4.341,37.94,5.04,5.25
33088.0,-8.232,-1.096,-4.934,-8.133,-0.297,-5.788,35.77,13.3,23.66
,-8.172,-1.201,-5.063,-8.136,-0.56,-5.406,36.82,13.86,26.46
,-8.22,-1.022,-4.975,-8.126,-0.206,-5.071,37.03,14.28,28.35
,-8.222,-0.311,-5.499,-8.172,0.086,-4.81,33.39,14.56,28.77
33164.0,-8.421,-0.024,-4.456,-8.031,-1.883,-3.96,-9.8,4.27,31.64
,-8.641,-0.275,-4.008,-8.172,-1.668,-4.154,-19.95,3.01,31.15
,-8.686,-0.909,-4.2,-8.648,-1.251,-4.295,-29.96,2.38,30.38
,-8.191,-1.543,-4.145,-8.887,-0.579,-4.31,-37.38,3.08,31.22
33239.0,-8.725,-0.206,-4.324,-9.107,-0.926,-4.264,-34.86,6.02,35.98
,-8.811,-0.426,-4.312,-9.117,-1.512,-4.408,-41.16,5.88,35.07
,-9.016,-0.639,-4.322,-8.686,-3.094,-4.398,-45.85,5.53,33.46
,-9.081,-0.603,-4.408,-8.346,-4.24,-4.334,-49.14,4.97,31.71
33315.0,-8.148,-4.089,-4.03,-8.89,-1.003,-4.85,-46.13,6.16,37.45
,-8.315,-2.773,-4.197,-8.945,-1.141,-4.992,-33.95,6.93,38.78
,-8.619,-1.773,-4.396,-8.832,-1.28,-5.408,-28.84,6.72,36.82
,-8.756,-1.144,-4.688,-8.686,-1.668,-5.731,-29.61,5.74,33.25
33391.0,-8.744,-1.977,-5.927,-8.411,-2.627,-5.932,-54.6,-8.33,9.24
,-8.823,-2.252,-5.853,-8.478,-2.778,-5.642,-54.39,-11.62,6.72
,-8.591,-2.405,-6.09,-8.588,-2.728,-5.408,-52.85,-15.12,4.06
,-8.488,-2.477,-6.133,-8.567,-2.489,-5.164,-50.61,-18.97,2.17
33467.0,-8.658,-2.161,-4.968,-9.048,-0.964,-3.929,-25.41,-26.74,4.55
,-8.71,-1.704,-4.98,-9.103,-0.876,-3.934,-20.23,-26.6,5.39
,-8.827,-1.51,-4.561,-9.33,-1.065,-3.886,-17.08,-25.97,6.02
,-9.019,-1.359,-4.192,-9.347,-1.034,-3.977,-14.49,-24.85,6.23
33542.0,-9.213,-1.251,-3.965,-8.976,-1.397,-4.03,-15.33,-14.98,6.72
,-9.024,-1.682,-3.898,-8.835,-1.362,-3.97,-14.56,-13.86,7.7
,-9.012,-2.003,-3.757,-8.823,-1.029,-4.307,-10.22,-12.81,9.31
,-8.973,-1.644,-3.759,-8.655,-0.794,-4.113,-4.55,-11.76,11.13
33618.0,-8.586,-0.479,-4.07,-8.71,-1.141,-3.226,10.22,-15.12,11.06
,-8.844,-0.321,-3.879,-8.205,-2.149,-3.412,9.38,-16.87,9.73
,-8.954,-0.541,-3.594,-8.485,-3.879,-3.774,6.72,-17.85,8.96
,-8.971,-0.668,-3.259,-8.911,-3.86,-3.458,5.53,-17.64,8.89
33693.0,-9.294,-1.003,-3.924,-8.88,-0.524,-3.92,48.93,-5.88,15.26
,-9.141,0.486,-4.142,-8.787,-0.062,-4.271,44.66,-6.86,14.7
,-9.208,-0.474,-4.195,-8.739,-0.06,-4.487,35.14,-7.0,14.49
,-8.837,-1.194,-4.034,-9.162,-0.048,-4.599,31.92,-4.9,12.88
33769.0,-9.715,0.163,-4.444,-9.782,0.239,-3.905,15.75,-0.07,1.61
,-9.959,0.601,-4.252,-9.316,0.526,-3.987,11.55,-1.33,1.12
,-9.952,0.61,-4.018,-9.033,0.51,-3.97,7.7,-2.66,0.91
,-9.995,0.359,-3.903,-9.057,0.337,-3.764,6.23,-3.92,1.19
33845.0,-9.139,0.263,-3.553,-9.368,-0.84,-2.943,2.1,-6.44,0.91
,-9.129,-0.103,-3.477,-9.622,-0.591,-3.027,-1.61,-6.58,-0.07
,-9.079,-0.56,-3.183,-9.608,-0.256,-3.104,-4.41,-6.23,-0.7
,-9.119,-0.814,-3.065,-9.497,-0.048,-3.037,-5.11,-5.53,-0.84
33921.0,-9.438,0.112,-3.039,-9.191,0.179,-3.606,2.45,-1.47,1.19
,-9.428,0.27,-3.214,-9.32,0.05,-3.716,3.22,-1.05,1.4
,-9.38,0.345,-3.381,-9.32,-0.089,-3.786,3.64,-0.77,1.47
,-9.275,0.335,-3.53,-9.186,-0.077,-3.733,3.71,-0.7,1.54
33997.0,-9.249,-0.005,-3.711,-9.196,-0.062,-3.817,4.97,-0.77,1.82
,-9.313,0.122,-3.855,-9.15,-0.175,-3.671,4.27,-1.12,1.54
,-9.342,0.17,-3.884,-9.213,-0.172,-3.494,2.87,-1.82,1.33
,-9.299,0.124,-3.932,-9.249,-0.081,-3.331,1.19,-2.38,0.98
34072.0,-9.32,-0.165,-3.094,-9.392,-0.086,-2.776,1.82,-2.1,1.19
,-9.301,-0.156,-2.876,-9.407,-0.11,-2.886,2.17,-1.54,1.4
,-9.349,-0.156,-2.764,-9.38,-0.031,-2.874,2.38,-0.7,1.47
,-9.349,-0.112,-2.711,-9.402,0.151,-3.037,2.8,0.28,1.4
34148.0,-9.435,0.014,-3.178,-9.234,0.093,-3.707,4.13,3.5,1.26
,-9.237,-0.022,-3.238,-9.251,0.06,-3.841,4.27,3.99,1.33
,-9.184,0.077,-3.484,-9.256,0.038,-3.948,4.41,4.13,1.19
,-9.225,0.053,-3.604,-9.239,0.06,-3.948,3.92,4.27,1.05
34224.0,-9.27,0.091,-3.915,-9.206,-0.043,-3.783,2.66,2.38,0.63
,-9.263,0.079,-3.927,-9.261,-0.053,-3.735,2.66,1.82,0.35
,-9.232,0.014,-3.967,-9.316,0.002,-3.659,1.82,1.33,0.0
,-9.115,-0.084,-3.841,-9.241,0.034,-3.472,1.61,0.77,-0.07
34300.0,-9.273,0.069,-3.405,-9.366,0.029,-3.307,4.13,0.07,0.28
,-9.263,0.036,-3.338,-9.32,-0.012,-3.305,4.62,0.14,0.49
,-9.371,0.091,-3.297,-9.351,0.024,-3.273,5.18,0.35,0.63
,-9.454,0.084,-3.331,-9.265,-0.012,-3.266,5.67,0.63,0.63
34375.0,-9.232,0.017,-3.269,-9.411,-0.014,-3.293,5.81,1.68,0.56
,-9.246,0.072,-3.333,-9.564,-0.141,-3.36,5.39,2.1,0.21
,-9.275,0.06,-3.312,-9.45,-0.122,-3.477,4.83,2.24,0.0
,-9.316,0.069,-3.262,-9.105,-0.141,-3.398,4.06,2.59,0.0
34451.0,-9.079,-0.103,-3.429,-9.127,-0.206,-3.745,2.87,3.43,0.0
,-9.258,-0.019,-3.544,-9.055,-0.187,-3.699,2.8,3.64,-0.14
,-9.433,-0.01,-3.661,-9.136,-0.156,-3.606,2.24,3.43,-0.21
,-9.332,-0.134,-3.795,-9.229,0.017,-3.659,1.33,3.08,-0.28
34526.0,-9.414,0.124,-3.805,-9.28,-0.254,-3.522,4.34,2.73,0.7
,-9.404,0.084,-3.771,-9.373,-0.244,-3.561,3.29,2.38,0.84
,-9.261,-0.11,-3.676,-9.308,-0.261,-3.458,2.45,2.03,0.98
,-9.172,-0.285,-3.553,-9.296,-0.187,-3.419,2.94,2.17,1.26
34602.0,-9.275,-0.115,-3.393,-9.562,-0.112,-3.853,4.34,2.45,2.31
,-9.328,-0.041,-3.453,-9.43,-0.151,-4.008,3.92,2.45,2.17
,-9.418,-0.014,-3.601,-9.45,-0.242,-4.099,3.43,2.38,1.96
,-9.497,-0.031,-3.671,-9.354,-0.177,-4.207,3.01,2.03,1.82
34678.0,-9.251,-0.187,-4.183,-9.43,-0.268,-3.204,1.89,-1.26,0.56
,-9.378,-0.464,-4.073,-9.383,-0.376,-2.807,0.7,-1.68,-0.14
,-9.28,-0.433,-3.927,-9.311,-0.909,-2.402,0.28,-1.61,-0.98
,-9.512,-0.349,-3.565,-9.428,-1.194,-2.283,-1.05,-1.89,-2.1
34754.0,-9.478,-1.385,-2.285,-9.495,-2.46,-3.623,-2.38,7.63,-0.21
,-9.387,-1.508,-2.307,-9.17,-2.496,-4.233,2.31,11.27,2.31
,-9.423,-1.776,-2.544,-9.052,-2.424,-4.865,8.54,15.05,4.97
,-9.608,-2.125,-3.18,-9.04,-2.312,-5.049,16.31,18.41,6.79
34829.0,-8.837,-2.053,-5.31,-8.495,-2.479,-4.673,55.44,24.99,9.45
,-8.787,-2.084,-5.245,-8.557,-2.28,-4.391,58.52,23.45,6.79
,-8.681,-2.276,-5.013,-8.545,-2.285,-4.41,59.78,21.91,3.99
,-8.619,-2.424,-4.913,-8.619,-2.438,-4.446,59.99,20.58,1.26
34905.0,-8.521,-2.379,-4.429,-8.732,-2.151,-4.336,50.54,17.85,-11.9
,-8.411,-2.362,-4.427,-8.873,-2.288,-4.432,48.51,17.08,-14.77
,-8.495,-2.546,-4.317,-8.799,-2.639,-4.408,46.69,16.17,-17.29
,-8.478,-2.419,-4.233,-8.808,-2.651,-4.357,46.62,15.54,-19.81
34981.0,-9.016,-2.367,-4.494,-9.359,-1.531,-4.7,54.11,11.9,-26.95
,-9.153,-1.936,-4.592,-9.306,-1.749,-4.75,57.26,10.85,-28.07
,-9.208,-1.663,-4.649,-9.225,-2.216,-4.716,58.66,9.73,-28.98
,-9.273,-1.5,-4.666,-9.182,-2.52,-4.671,59.08,8.4,-29.68
35057.0,-9.189,-2.223,-4.508,-8.847,-0.751,-4.298,66.92,1.61,-26.04
,-9.296,-1.804,-4.396,-8.782,-1.338,-4.094,71.12,0.28,-24.64
,-9.354,-1.4,-4.338,-8.997,-1.177,-4.259,72.38,-1.26,-24.29
,-9.287,-0.871,-4.262,-9.256,-1.0,-4.197,70.56,-3.43,-26.04
35133.0,-9.361,-0.948,-4.283,-8.983,-0.773,-3.53,46.62,-10.64,-32.55
,-9.196,-0.924,-4.255,-9.05,-0.639,-3.338,38.57,-12.39,-34.23
,-9.222,-0.969,-3.817,-9.093,-0.842,-3.429,30.8,-14.07,-35.21
,-9.131,-1.022,-3.709,-8.945,-1.376,-3.345,22.82,-15.4,-36.61
35208.0,-8.756,-1.819,-3.355,-8.71,-1.519,-3.245,-17.78,-17.71,-41.72
,-8.698,-2.065,-3.424,-8.564,-1.232,-3.178,-19.04,-16.8,-39.97
,-8.555,-1.732,-3.285,-8.435,-1.094,-3.101,-17.78,-16.52,-37.8
,-8.818,-1.433,-3.376,-8.437,-1.299,-3.565,-18.27,-16.31,-36.82
35284.0,-8.37,-1.974,-3.367,-8.5,-1.565,-3.025,-39.9,-8.19,-33.67
,-8.287,-2.072,-2.895,-8.461,-2.309,-2.998,-37.24,-6.23,-29.96
,-8.334,-1.472,-3.094,-8.478,-2.479,-2.642,-33.25,-4.41,-27.02
,-8.404,-1.141,-2.852,-8.449,-1.536,-2.996,-33.6,-2.45,-24.78
35359.0,-8.576,-1.134,-3.001,-8.725,-1.493,-3.477,-25.55,6.51,-5.81
,-8.619,-1.213,-2.898,-8.859,-1.895,-3.64,-27.02,6.93,-1.61
,-8.569,-1.251,-2.955,-8.674,-2.278,-3.912,-28.0,7.56,2.66
,-8.655,-1.273,-3.128,-8.658,-2.666,-3.967,-27.02,8.05,7.0
35435.0,-8.49,-2.864,-4.18,-8.885,-3.094,-4.934,-5.32,8.19,27.51
,-8.425,-2.702,-4.525,-8.873,-3.013,-4.786,1.19,10.36,31.64
,-8.416,-2.491,-4.886,-8.782,-2.809,-4.585,5.53,11.55,34.44
,-8.557,-2.651,-5.066,-8.844,-2.68,-4.393,8.61,11.2,36.4
35511.0,-8.839,-2.56,-4.2,-9.019,-2.254,-3.285,21.14,4.41,39.97
,-8.799,-2.472,-4.037,-9.086,-1.866,-3.23,20.16,4.48,40.39
,-8.964,-2.527,-3.845,-9.191,-1.567,-3.278,19.46,4.41,40.67
,-8.995,-2.355,-3.534,-9.184,-1.17,-3.355,17.99,4.2,39.9
35587.0,-9.342,-1.431,-3.57,-9.777,-2.324,-4.558,-20.37,3.57,26.39
,-9.631,-2.206,-3.862,-9.792,-1.776,-4.64,-31.5,2.73,22.61
,-9.56,-2.769,-4.128,-9.533,-1.407,-4.578,-37.59,1.89,20.02
,-9.588,-2.79,-4.295,-9.435,-1.261,-4.451,-38.36,1.54,19.53
35662.0,-9.294,-1.249,-4.343,-8.454,-1.216,-4.721,-32.62,-1.75,22.33
,-8.928,-0.615,-4.372,-8.54,-1.78,-4.649,-30.1,-2.8,22.12
,-8.76,-0.325,-4.384,-8.885,-2.225,-4.535,-31.78,-3.85,21.07
,-8.698,-0.713,-4.518,-9.177,-1.697,-4.592,-36.26,-5.04,19.74
35738.0,-9.512,-0.771,-4.771,-8.983,-0.357,-3.697,-24.43,-8.19,22.33
,-9.495,-0.443,-4.472,-9.313,0.002,-3.587,-23.73,-9.17,22.61
,-9.074,-0.948,-4.073,-9.387,-0.376,-3.321,-26.11,-10.15,22.4
,-8.672,-0.931,-3.865,-9.433,-0.725,-3.111,-25.55,-10.43,22.47
35814.0,-9.459,-0.849,-2.994,-9.325,-0.67,-3.592,-29.26,-8.47,19.67
,-9.344,-0.428,-3.096,-9.323,-0.593,-3.522,-22.26,-7.14,20.93
,-9.363,0.103,-3.273,-9.411,-0.017,-3.92,-17.57,-6.23,21.63
,-9.32,0.022,-3.451,-9.273,0.409,-4.082,-16.94,-5.39,21.63
35890.0,-8.964,0.254,-4.085,-9.371,0.282,-3.348,-11.13,-3.99,18.13
,-9.074,0.168,-3.905,-9.462,0.349,-3.467,-12.18,-4.2,17.15
,-9.313,0.036,-3.668,-9.246,-0.01,-3.592,-11.55,-4.41,16.24
,-9.237,0.146,-3.455,-9.165,-0.156,-3.766,-10.64,-4.06,15.68
35966.0,-9.244,-0.12,-3.979,-9.696,0.443,-3.592,-3.85,-1.75,14.21
,-9.189,0.223,-3.743,-9.174,0.933,-3.57,-1.33,-1.68,14.14
,-9.129,0.373,-3.757,-9.04,0.404,-3.553,-2.24,-1.68,13.02
,-9.304,0.452,-3.707,-9.162,-0.136,-3.451,-4.55,-1.75,11.13
36041.0,-9.007,0.074,-3.69,-9.179,-0.024,-3.084,-12.18,-3.01,5.88
,-9.232,-0.043,-3.601,-9.265,0.144,-2.934,-12.18,-2.66,6.02
,-9.438,-0.048,-3.498,-9.292,0.266,-2.991,-13.23,-2.17,5.74
,-9.375,-0.215,-3.168,-9.229,0.335,-3.209,-14.21,-1.68,5.25
36117.0,-9.241,0.263,-3.606,-9.012,0.273,-4.334,-11.48,1.96,4.69
,-9.246,-0.055,-3.922,-9.119,0.426,-4.286,-9.8,2.59,4.97
,-9.268,-0.103,-4.166,-9.215,0.28,-4.171,-6.3,3.01,5.32
,-9.103,-0.01,-4.336,-9.28,0.172,-4.195,-3.29,2.87,5.74
36192.0,-9.153,-0.268,-4.2,-9.167,0.412,-4.176,-4.76,-0.28,5.18
,-9.012,-0.357,-4.07,-9.141,0.371,-3.979,-4.2,-0.56,6.02
,-9.117,-0.201,-4.027,-9.083,0.22,-3.757,-0.7,-0.77,6.93
,-9.179,0.258,-4.247,-9.088,0.225,-3.652,2.45,-1.4,7.35
36268.0,-9.093,0.404,-3.575,-9.466,0.797,-3.123,-2.31,-3.5,6.72
,-9.153,0.261,-3.482,-9.378,0.883,-3.022,-4.97,-3.71,5.67
,-9.115,0.22,-3.436,-9.332,0.682,-2.962,-7.56,-3.78,4.9
,-9.184,0.483,-3.309,-9.519,0.323,-2.953,-8.61,-3.57,4.34
36344.0,-9.474,0.12,-2.895,-9.304,-0.203,-3.484,-12.74,-0.77,0.77
,-9.462,0.251,-3.025,-9.344,0.378,-3.295,-7.84,0.56,1.61
,-9.478,0.701,-3.058,-9.225,0.33,-3.329,-4.06,1.68,1.96
,-9.222,0.79,-3.525,-9.198,0.278,-3.618,-2.31,2.59,1.47
36420.0,-8.902,-0.055,-3.771,-9.356,1.299,-4.011,4.9,4.27,3.57
,-8.978,-0.098,-3.821,-9.33,1.462,-4.006,8.05,4.34,4.41
,-9.083,0.524,-3.908,-9.378,1.68,-3.877,11.83,4.62,5.18
,-9.249,1.094,-4.118,-9.517,2.036,-4.025,11.9,4.2,4.76
36495.0,-9.368,1.268,-4.135,-9.631,0.022,-3.731,4.9,0.28,0.98
,-8.758,-1.256,-4.008,-9.725,0.373,-3.419,1.33,-0.42,1.89
,-7.787,-2.209,-3.69,-9.383,0.503,-2.974,4.48,-0.21,3.43
,-8.739,-1.285,-3.826,-9.43,0.967,-2.845,10.08,0.77,3.92
36571.0,-9.469,1.551,-2.819,-8.739,-1.603,-3.293,0.0,3.99,0.98
,-9.445,2.024,-3.022,-9.134,-0.586,-3.685,-0.56,4.48,0.28
,-9.402,1.718,-3.357,-9.452,0.462,-4.011,-4.48,4.06,-1.05
,-8.99,-0.402,-3.46,-9.397,0.89,-4.118,-8.26,4.27,-1.19
36646.0,-9.277,0.79,-4.101,-9.198,0.254,-4.161,16.87,6.3,2.73
,-9.153,0.352,-3.991,-8.839,-0.191,-3.958,15.54,5.95,2.24
,-9.148,0.23,-4.034,-8.847,0.089,-3.965,17.43,5.6,1.96
,-9.304,0.584,-4.118,-9.213,0.567,-3.999,19.6,5.11,2.1
36722.0,-9.349,0.818,-3.884,-9.201,0.299,-3.719,6.02,2.24,-0.91
,-9.203,0.73,-3.671,-9.198,0.395,-3.838,-1.26,1.26,-2.1
,-9.143,0.471,-3.599,-9.172,0.462,-3.953,-5.53,1.05,-2.87
,-9.194,0.275,-3.606,-9.15,0.371,-4.097,-6.37,1.12,-2.87
36798.0,-9.229,0.359,-4.202,-9.064,0.036,-3.979,-2.1,0.14,-2.1
,-9.222,0.285,-4.133,-9.088,0.101,-3.86,-1.96,-0.28,-2.38
,-9.194,0.235,-4.085,-9.15,0.041,-3.74,-1.54,-0.84,-2.38
,-9.162,0.11,-4.121,-9.179,0.065,-3.532,-0.77,-1.12,-2.17
36874.0,-9.17,0.191,-3.458,-9.184,0.23,-3.429,9.52,-0.49,0.35
,-9.241,0.206,-3.422,-9.277,0.227,-3.482,10.64,-0.14,0.56
,-9.265,0.129,-3.391,-9.349,0.223,-3.542,10.99,0.35,0.63
,-9.246,0.175,-3.412,-9.225,0.11,-3.451,11.13,0.49,0.7
36949.0,-9.088,0.098,-3.496,-9.117,0.139,-3.733,4.27,1.12,-0.14
,-9.086,0.153,-3.644,-9.131,0.177,-3.709,3.08,1.4,-0.42
,-9.127,0.196,-3.659,-9.21,0.249,-3.786,2.03,1.61,-0.42
,-9.1,0.215,-3.64,-9.359,0.321,-3.824,1.05,1.54,-0.42
37025.0,-9.28,0.352,-3.884,-9.131,0.055,-3.771,0.63,1.33,-0.35
,-9.201,0.191,-3.874,-9.191,0.077,-3.778,0.35,0.98,-0.35
,-9.069,0.031,-3.783,-9.146,0.069,-3.8,0.84,1.05,0.0
,-9.079,0.026,-3.728,-9.098,0.086,-3.781,1.96,1.12,0.35
37101.0,-9.143,0.136,-3.783,-9.217,0.239,-3.786,2.8,0.77,0.84
,-9.189,0.129,-3.8,-9.15,0.223,-3.668,2.73,0.7,0.98
,-9.158,0.211,-3.774,-9.095,0.129,-3.592,2.59,0.49,0.98
,-9.141,0.261,-3.731,-9.055,0.141,-3.53,2.24,0.63,1.19
37177.0,-9.131,0.098,-3.458,-9.088,-0.486,-3.429,0.35,0.63,0.91
,-9.16,0.019,-3.455,-9.052,-0.321,-3.513,0.0,0.77,1.05
,-9.275,-0.045,-3.412,-9.15,0.084,-3.74,0.42,1.4,1.26
,-9.273,-0.16,-3.496,-9.354,0.498,-3.929,0.91,1.68,1.47
37253.0,-9.227,0.395,-3.999,-9.237,0.091,-4.046,2.38,2.24,1.96
,-8.844,0.043,-3.967,-9.139,0.136,-3.984,0.42,1.61,1.75
,-8.906,0.223,-4.022,-9.069,0.366,-3.979,0.84,1.26,1.12
,-9.244,0.22,-4.135,-9.088,0.175,-3.994,0.56,0.56,0.56
37328.0,-9.04,0.493,-3.917,-8.911,-0.292,-3.735,-4.41,-1.96,-0.28
,-9.261,0.967,-4.013,-8.804,-0.474,-3.64,-6.65,-2.66,-1.61
,-9.418,1.017,-4.039,-9.081,-0.11,-3.551,-11.27,-3.15,-2.87
,-9.232,0.357,-3.874,-9.385,0.759,-3.515,-14.56,-3.71,-3.36
37404.0,-9.483,1.127,-3.35,-9.332,0.12,-3.405,-6.02,-3.36,-1.54
,-9.49,0.888,-3.312,-9.373,0.658,-3.496,-11.69,-3.36,-2.8
,-9.241,0.179,-3.178,-9.428,0.931,-3.455,-15.68,-3.01,-3.22
,-9.095,-0.091,-3.262,-9.337,0.811,-3.472,-13.58,-2.45,-2.73
37480.0,-9.325,0.627,-3.465,-9.311,0.907,-3.496,-11.2,-1.47,-3.99
,-9.435,0.775,-3.448,-9.33,0.562,-3.508,-9.94,-1.47,-3.99
,-9.442,0.878,-3.482,-9.225,0.412,-3.491,-8.33,-1.26,-3.99
,-9.395,0.936,-3.494,-9.373,0.404,-3.484,-7.07,-1.12,-3.64
37556.0,-9.476,0.335,-3.472,-9.261,0.309,-3.412,-2.45,-0.42,-4.48
,-9.306,0.325,-3.305,-9.136,0.086,-3.376,-1.82,0.07,-4.27
,-9.318,0.244,-3.319,-9.122,0.048,-3.367,-0.35,0.63,-3.92
,-9.313,0.146,-3.372,-9.299,0.311,-3.391,1.47,0.98,-3.57
37631.0,-9.311,0.158,-3.479,-9.239,0.469,-3.604,0.63,2.17,-3.5
,-9.189,0.115,-3.498,-9.268,0.39,-3.537,-0.56,2.17,-3.64
,-9.22,-0.017,-3.635,-9.237,0.086,-3.357,-1.05,2.24,-3.78
,-9.215,0.103,-3.611,-9.229,0.182,-3.257,0.0,2.59,-3.64
37707.0,-9.49,0.266,-3.326,-9.292,0.428,-3.238,0.14,3.5,-3.99
,-9.356,0.304,-3.192,-9.399,0.146,-3.29,-0.42,3.85,-4.2
,-9.16,0.498,-3.125,-9.268,-0.237,-3.467,-1.19,4.2,-4.55
,-9.311,0.572,-3.156,-9.143,0.002,-3.649,-2.87,4.69,-5.32
37782.0,-9.122,-0.002,-3.719,-9.261,0.744,-3.678,-5.81,6.23,-6.58
