Timestamp,AccX,AccY,AccZ,GyroX,GyroY,GyroZ,MagnX,MagnY,MagnZ
0.0,-9.11,-0.605,-3.91,-9.1,-0.634,-3.903,2.66,1.05,0.7
,-9.1,-0.579,-3.903,-9.11,-0.637,-3.9,2.45,1.12,0.7
,-9.064,-0.668,-3.888,-9.136,-0.639,-3.893,2.52,1.26,0.77
,-9.117,-0.651,-3.951,-9.115,-0.57,-3.922,2.73,1.12,0.77
75.0,-9.091,-0.562,-3.903,-9.069,-0.598,-3.9,2.66,1.05,0.7
,-9.091,-0.629,-3.955,-9.098,-0.574,-3.946,2.52,1.05,0.63
,-9.119,-0.593,-3.955,-9.095,-0.581,-3.975,2.38,1.19,0.77
,-9.076,-0.639,-3.905,-9.045,-0.622,-4.142,2.38,1.19,0.84
150.0,-9.045,-0.593,-4.034,-9.172,-0.634,-3.821,2.59,0.63,0.63
,-9.057,-0.639,-3.9,-9.076,-0.665,-3.819,2.52,0.7,0.77
,-9.107,-0.622,-3.893,-9.091,-0.696,-3.845,2.73,0.77,0.77
,-9.131,-0.586,-3.891,-9.124,-0.723,-3.879,2.8,0.84,0.84
226.0,-9.083,-0.646,-3.86,-9.098,-0.562,-3.92,2.94,0.84,0.98
,-9.122,-0.663,-3.888,-9.076,-0.615,-3.951,3.01,0.91,0.98
,-9.093,-0.601,-3.886,-9.045,-0.692,-3.917,3.01,1.05,1.05
,-9.083,-0.579,-3.838,-9.072,-0.596,-3.953,2.87,1.19,1.05
302.0,-9.115,-0.605,-3.963,-9.186,-0.723,-4.011,2.52,1.19,1.12
,-9.105,-0.622,-3.9,-9.117,-0.577,-4.013,2.38,1.05,1.12
,-9.069,-0.656,-3.905,-9.11,-0.584,-3.96,2.24,0.77,1.05
,-9.117,-0.644,-3.927,-9.136,-0.715,-4.027,2.24,0.77,1.05
378.0,-9.143,-0.512,-4.049,-9.107,-0.526,-4.008,2.59,0.7,1.12
,-9.16,-0.579,-3.963,-9.069,-0.665,-3.886,2.1,0.84,1.05
,-9.062,-0.622,-3.867,-9.098,-0.617,-3.915,1.75,0.56,0.98
,-9.134,-0.493,-4.255,-9.16,-0.522,-3.924,2.38,0.42,0.84
453.0,-9.117,-0.579,-3.85,-9.124,-0.627,-3.872,2.31,0.14,1.05
,-9.11,-0.641,-3.786,-9.17,-0.498,-3.86,2.17,0.28,1.05
,-9.127,-0.586,-3.75,-9.115,-0.727,-3.819,2.38,0.56,1.12
,-9.186,-0.526,-3.699,-9.11,-0.677,-3.824,2.03,0.63,0.98
529.0,-9.11,-0.558,-3.886,-9.115,-0.57,-3.826,1.96,0.98,0.98
,-9.072,-0.526,-3.881,-9.165,-0.593,-3.831,1.82,1.05,0.98
,-9.098,-0.589,-3.9,-9.167,-0.517,-3.788,1.33,1.05,0.91
,-9.122,-0.562,-3.872,-9.131,-0.579,-3.819,1.4,0.98,0.91
605.0,-9.134,-0.644,-3.86,-9.15,-0.541,-3.862,1.68,1.19,0.84
,-9.1,-0.601,-3.853,-9.139,-0.56,-3.865,1.61,1.47,0.91
,-9.115,-0.653,-3.879,-9.064,-0.723,-3.869,1.68,1.4,0.91
,-9.11,-0.596,-3.888,-9.088,-0.727,-3.857,1.82,1.4,1.05
681.0,-9.165,-0.718,-3.843,-9.155,-0.488,-3.975,2.1,1.47,1.19
,-9.112,-0.689,-3.817,-9.143,-0.586,-4.08,1.75,1.4,1.05
,-9.107,-0.656,-4.034,-9.091,-0.378,-4.006,1.19,1.12,0.98
,-9.11,-0.383,-3.958,-9.139,-0.553,-4.018,0.77,1.12,0.63
757.0,-9.081,-0.713,-3.929,-9.095,-0.672,-3.759,0.49,0.42,0.91
,-9.083,-0.727,-3.848,-9.107,-0.692,-3.79,1.47,0.42,1.26
,-9.139,-0.723,-3.8,-9.143,-0.574,-4.046,2.73,0.7,1.61
,-9.131,-0.737,-3.831,-9.088,-0.538,-3.788,3.43,0.91,1.75
832.0,-9.115,-0.648,-3.778,-9.17,-0.416,-3.666,2.31,0.84,1.61
,-9.148,-0.373,-3.841,-9.134,-0.615,-3.699,3.57,0.91,1.61
,-9.17,-0.354,-3.85,-9.117,-0.519,-4.18,3.71,1.05,1.61
,-9.153,-0.376,-3.953,-9.055,-0.534,-4.156,3.57,0.98,1.54
908.0,-9.143,-0.586,-3.496,-9.158,-0.438,-3.826,4.2,0.91,1.47
,-9.16,-0.584,-3.589,-9.112,-0.392,-3.888,4.55,0.91,1.4
,-9.098,-0.536,-3.719,-9.127,-0.244,-3.893,4.55,0.98,1.26
,-9.107,-0.464,-3.845,-9.22,-0.357,-3.546,4.27,1.05,1.12
983.0,-9.21,-0.546,-3.549,-9.11,-0.622,-3.829,3.99,0.98,0.63
,-9.158,-0.505,-3.69,-9.105,-0.471,-3.991,4.55,0.98,0.49
,-9.179,-0.517,-3.695,-9.122,-0.531,-3.881,3.78,0.84,0.14
,-9.107,-0.55,-3.484,-9.136,-0.579,-3.934,3.29,1.05,0.21
1059.0,-9.143,-0.534,-3.814,-9.115,-0.507,-3.85,4.76,1.19,0.0
,-9.177,-0.505,-3.683,-9.136,-0.459,-3.886,4.9,1.19,0.0
,-9.155,-0.529,-3.676,-9.143,-0.462,-3.853,4.62,1.19,-0.07
,-9.112,-0.476,-3.81,-9.134,-0.402,-3.833,4.76,1.19,-0.21
1135.0,-9.146,-0.558,-3.802,-9.206,-0.55,-3.759,3.85,1.19,-0.84
,-9.093,-0.505,-3.812,-9.139,-0.555,-3.836,4.41,1.12,-0.91
,-9.191,-0.491,-3.869,-9.186,-0.581,-3.812,4.69,1.12,-0.98
,-9.17,-0.522,-3.91,-9.107,-0.857,-3.769,4.9,1.26,-1.12
1211.0,-9.026,-1.027,-3.764,-9.064,-0.646,-3.963,5.95,1.54,-0.49
,-9.086,-0.857,-3.836,-9.1,-0.646,-3.826,7.77,1.75,-0.21
,-9.143,-0.684,-3.826,-9.143,-0.512,-3.853,8.12,1.68,-0.35
,-9.117,-0.708,-3.953,-9.189,-0.536,-3.987,7.77,1.47,-0.63
1286.0,-9.1,-0.625,-3.917,-9.117,-0.711,-3.814,6.86,1.4,-0.63
,-9.146,-0.806,-3.953,-9.136,-0.581,-3.855,6.93,1.33,-0.56
,-9.174,-0.699,-3.723,-9.15,-0.548,-3.833,7.84,1.19,-0.63
,-9.184,-0.833,-3.86,-9.107,-0.72,-3.745,7.21,1.54,-0.56
1362.0,-9.11,-0.763,-3.778,-9.115,-0.663,-3.673,5.81,1.4,-1.4
,-9.16,-0.632,-3.831,-9.124,-0.782,-3.606,7.0,1.68,-1.19
,-9.136,-0.567,-3.833,-9.165,-0.79,-3.568,7.0,1.4,-1.4
,-9.15,-0.66,-3.79,-9.174,-0.806,-3.652,6.65,1.68,-1.54
1438.0,-9.15,-0.792,-3.613,-9.141,-0.658,-3.64,7.91,2.73,-1.33
,-9.119,-0.797,-3.656,-9.158,-0.615,-3.733,8.68,3.15,-1.26
,-9.131,-0.778,-3.678,-9.155,-0.665,-3.812,9.52,3.57,-1.19
,-9.146,-0.706,-3.671,-9.091,-0.742,-3.838,10.15,3.78,-1.19
1514.0,-9.076,-0.761,-3.948,-9.095,-0.617,-4.058,10.15,4.34,-1.75
,-9.098,-0.854,-4.018,-9.136,-0.663,-4.056,10.99,4.48,-1.61
,-9.074,-0.766,-4.015,-9.064,-0.689,-4.006,12.18,4.13,-1.68
,-9.098,-0.713,-4.022,-9.072,-0.744,-4.097,12.67,4.13,-1.82
1589.0,-9.095,-0.794,-4.137,-9.131,-0.672,-3.872,12.18,2.59,-2.8
,-9.007,-0.677,-4.116,-9.105,-0.747,-3.766,12.81,2.52,-2.8
,-9.086,-0.766,-4.025,-9.16,-0.809,-3.597,13.16,2.17,-2.94
,-9.079,-0.658,-3.862,-9.162,-0.967,-3.455,13.02,2.03,-3.15
1665.0,-9.177,-0.986,-3.403,-9.253,-1.156,-2.876,11.48,3.22,-3.99
,-9.141,-1.005,-3.369,-9.194,-1.251,-2.673,11.69,3.92,-3.99
,-9.208,-1.077,-3.312,-9.081,-1.359,-2.391,11.97,4.69,-3.85
,-9.213,-1.046,-3.125,-9.119,-1.479,-2.166,12.11,5.67,-3.64
1740.0,-9.136,-1.558,-1.84,-9.399,-1.634,-1.275,14.21,14.49,-1.68
,-9.253,-1.579,-1.601,-9.395,-1.658,-1.347,15.05,17.5,-1.12
,-9.356,-1.541,-1.381,-9.579,-1.766,-1.567,15.61,20.86,-0.7
,-9.423,-1.515,-1.287,-9.782,-1.785,-1.931,15.68,24.08,-0.28
1816.0,-10.007,-1.85,-2.249,-10.012,-0.689,-3.094,12.88,39.83,0.98
,-10.364,-2.101,-2.367,-9.971,-0.773,-3.075,10.15,42.14,-1.4
,-10.156,-1.268,-2.718,-10.002,-1.046,-3.451,9.31,44.31,-3.29
,-10.163,-0.811,-2.883,-10.483,-1.589,-3.24,6.37,45.08,-4.27
1892.0,-10.129,-1.204,-3.312,-9.943,-0.39,-4.75,-1.96,53.69,0.77
,-9.718,-1.034,-3.408,-9.868,-0.68,-5.212,-0.63,55.93,2.45
,-9.718,-0.976,-3.733,-9.837,-1.342,-5.063,3.85,59.01,5.74
,-9.691,-0.328,-4.109,-9.868,-1.74,-4.994,9.31,60.06,11.62
1968.0,-9.873,-1.799,-5.027,-9.938,0.354,-4.795,29.96,52.15,21.42
,-10.258,-1.211,-5.116,-9.576,0.115,-4.941,36.54,48.65,23.1
,-10.692,-0.687,-4.542,-9.502,-0.452,-5.193,37.38,43.61,23.24
,-10.555,0.055,-4.36,-9.548,-1.053,-5.386,32.06,37.87,22.33
2044.0,-9.452,-1.443,-5.181,-8.564,-2.331,-5.073,-2.73,4.76,22.4
,-9.263,-1.687,-5.207,-8.476,-2.029,-5.092,-2.73,-2.73,21.63
,-9.048,-1.89,-5.15,-8.603,-1.752,-5.209,-1.4,-10.78,20.65
,-8.681,-2.132,-5.066,-8.744,-1.558,-4.992,0.63,-18.27,20.09
2119.0,-8.689,-1.527,-4.896,-8.334,-2.075,-4.542,9.38,-54.53,19.32
,-8.445,-1.474,-4.759,-8.327,-2.199,-4.494,8.19,-62.09,18.27
,-8.349,-1.572,-4.661,-8.385,-2.051,-4.587,6.79,-70.07,17.29
,-8.239,-1.771,-4.616,-8.447,-1.773,-4.456,6.23,-77.14,16.87
2195.0,-8.619,-1.405,-4.31,-8.095,-0.639,-4.07,20.51,-107.94,11.55
,-8.715,-1.031,-4.121,-8.217,-0.715,-4.094,20.16,-113.89,7.14
,-8.38,-0.806,-4.152,-8.229,-1.019,-4.281,16.8,-119.35,2.8
,-8.153,-0.665,-4.209,-8.031,-1.115,-4.176,12.88,-124.04,-1.12
2271.0,-8.043,-1.134,-4.013,-8.631,-1.275,-2.639,1.33,-144.06,-21.35
,-8.212,-1.34,-3.74,-8.993,-1.084,-2.352,0.21,-146.3,-24.29
,-8.256,-1.608,-3.166,-8.964,-0.67,-1.709,0.0,-146.65,-25.83
,-8.26,-1.431,-2.692,-8.502,-0.455,-1.091,2.38,-145.32,-26.46
2347.0,-8.636,-0.562,-0.704,-8.248,-1.45,0.019,-10.22,-119.35,-36.75
,-8.813,-1.046,-0.572,-8.234,-1.768,0.897,-14.91,-110.46,-37.73
,-8.662,-1.417,-0.134,-8.294,-1.668,1.027,-18.76,-100.38,-37.03
,-8.394,-1.268,-0.299,-8.478,-1.323,0.893,-19.95,-89.81,-35.98
2422.0,-8.603,-1.515,0.713,-8.6,-1.438,0.12,-16.03,-24.71,-18.76
,-8.485,-1.761,0.775,-8.665,-1.108,-0.337,-15.33,-12.32,-14.91
,-8.622,-1.953,0.526,-8.918,-1.022,-0.663,-14.07,-0.28,-11.2
,-8.662,-1.804,0.366,-9.34,-1.651,-0.95,-11.97,11.34,-6.93
2498.0,-12.209,-4.59,-0.237,-10.761,1.01,0.199,-15.96,58.03,15.89
,-15.709,-6.741,3.23,-11.929,0.976,-1.053,-4.62,61.53,26.88
,-13.553,-2.924,1.498,-11.551,0.584,-1.831,14.7,67.34,27.44
,-10.558,0.254,0.51,-10.809,1.673,-2.74,11.9,70.28,18.97
2573.0,-9.139,1.543,-4.13,-6.746,-1.95,-5.547,-70.07,80.08,14.42
,-8.258,-0.534,-4.791,-7.734,-2.331,-4.853,-80.22,83.02,12.95
,-7.655,-2.039,-5.159,-9.421,-3.513,-4.008,-77.14,82.95,14.14
,-7.334,-1.962,-5.86,-10.438,-3.58,-2.922,-64.33,79.38,16.45
2649.0,-9.301,-2.156,-2.714,-9.232,-0.493,-4.137,4.13,60.9,43.12
,-8.533,-1.204,-3.324,-9.155,-0.546,-4.243,5.04,62.79,40.11
,-8.65,-0.936,-3.647,-8.985,-1.218,-4.329,-1.89,62.79,35.84
,-8.763,-0.945,-3.735,-9.002,-1.096,-4.47,-10.57,61.04,29.89
2725.0,-8.83,-0.022,-4.625,-9.174,1.486,-4.247,-25.83,50.26,20.37
,-8.83,0.579,-4.795,-9.263,1.441,-4.166,-19.04,48.37,24.08
,-8.839,0.869,-4.494,-9.21,0.893,-4.051,-14.28,46.2,26.18
,-8.99,1.18,-4.346,-8.892,-0.447,-3.939,-12.81,44.03,25.13
2801.0,-8.921,-1.864,-3.845,-9.103,1.225,-5.841,-28.91,37.52,18.41
,-9.244,-1.783,-4.039,-8.646,0.998,-5.942,-16.59,38.29,21.21
,-9.442,-0.596,-4.611,-8.545,0.436,-5.695,-3.57,38.43,22.33
,-9.277,0.639,-5.212,-8.739,0.239,-5.497,1.19,37.52,20.09
2877.0,-8.83,0.38,-5.2,-8.969,0.816,-3.908,9.45,28.07,20.79
,-8.938,0.627,-5.19,-9.258,0.95,-3.774,14.56,27.23,21.7
,-8.935,0.739,-4.951,-9.234,1.307,-3.9,16.52,26.32,20.93
,-8.878,0.89,-4.393,-9.062,1.62,-4.247,16.38,25.55,18.97
2952.0,-8.942,1.878,-4.98,-8.569,1.438,-5.674,11.55,21.63,11.55
,-8.631,1.661,-5.568,-8.904,1.309,-5.288,9.66,19.95,11.06
,-8.574,1.35,-5.635,-9.16,1.156,-5.296,8.75,17.99,10.92
,-8.567,1.448,-5.745,-9.045,0.995,-5.233,8.61,16.03,10.01
3028.0,-8.897,0.775,-4.989,-9.16,0.373,-3.707,-13.23,7.84,2.17
,-8.734,0.507,-4.623,-9.32,0.66,-3.843,-15.05,7.28,2.1
,-9.06,0.431,-4.271,-9.124,0.68,-3.934,-15.47,7.0,1.89
,-9.27,0.335,-4.013,-8.983,0.526,-3.769,-15.68,7.42,1.89
3104.0,-8.878,0.426,-3.551,-9.208,-0.041,-3.202,-19.53,10.99,0.7
,-8.966,0.546,-3.625,-9.28,0.242,-3.376,-19.18,11.97,-0.07
,-9.201,0.318,-3.331,-8.715,0.534,-3.41,-19.46,13.16,-0.77
,-9.06,-0.041,-3.101,-8.686,0.34,-3.333,-18.41,14.56,-0.63
3180.0,-8.744,-0.148,-3.542,-8.792,-0.622,-4.116,-18.97,22.12,-0.42
,-8.813,-0.893,-3.197,-8.588,-1.003,-4.448,-19.88,24.29,0.21
,-8.926,-0.694,-3.439,-8.581,-1.098,-4.618,-16.03,26.81,0.91
,-9.115,-0.258,-3.955,-8.715,-1.0,-4.812,-13.58,28.91,1.19
3255.0,-8.89,-0.94,-4.951,-8.729,0.101,-4.96,12.67,37.87,11.76
,-8.964,-0.517,-4.965,-8.698,0.945,-4.996,20.09,39.69,13.93
,-8.794,0.024,-5.032,-8.82,0.943,-4.704,25.13,41.02,15.4
,-8.631,-0.213,-4.913,-9.045,1.247,-4.357,28.14,42.28,16.45
3331.0,-9.174,1.199,-4.2,-9.203,0.928,-4.74,16.8,43.89,9.03
,-9.677,1.472,-3.979,-9.567,0.273,-4.893,15.47,45.57,7.63
,-8.772,1.273,-4.389,-9.318,1.015,-5.702,8.26,46.55,5.95
,-9.67,0.464,-4.381,-9.265,0.213,-5.528,8.12,47.11,5.32
3406.0,-9.134,-0.292,-5.432,-8.997,0.438,-5.004,19.81,54.53,9.73
,-8.973,-0.199,-5.36,-9.761,1.615,-5.059,25.69,56.07,10.57
,-8.997,0.141,-5.458,-11.512,4.116,-5.642,29.12,57.75,10.57
,-8.971,0.4,-5.219,-11.168,0.522,-5.42,29.05,59.43,9.8
3482.0,-9.572,-3.396,-4.322,-9.392,-1.263,-3.599,9.31,67.69,-1.26
,-9.818,-1.223,-3.503,-9.241,-2.249,-3.539,26.67,72.31,4.34
,-10.153,1.072,-3.513,-9.232,-1.56,-3.441,34.37,75.81,5.81
,-10.024,0.598,-3.666,-9.593,-0.479,-3.233,27.16,78.4,3.08
3558.0,-9.78,-0.471,-2.809,-9.708,-1.445,-0.969,32.48,94.29,7.21
,-9.765,-1.409,-2.156,-9.593,-1.106,-1.57,32.69,98.28,9.87
,-9.658,-1.91,-1.201,-9.615,-1.352,-2.778,37.38,102.83,14.84
,-9.734,-1.723,-0.811,-9.234,-1.905,-3.86,47.04,107.52,20.51
3634.0,-8.78,-2.072,-5.305,-9.5,1.266,-10.163,92.82,125.86,37.45
,-8.756,-0.995,-6.525,-9.466,1.369,-10.146,104.93,129.78,36.75
,-8.813,0.29,-8.588,-8.679,1.582,-10.368,111.93,133.28,34.44
,-9.485,0.905,-9.282,-8.411,1.503,-10.431,106.89,134.05,29.54
3709.0,-8.186,1.563,-10.491,-5.032,-0.258,-11.615,53.69,91.77,19.6
,-7.825,1.199,-10.258,-4.805,-0.9,-11.302,38.15,75.39,18.41
,-7.224,1.259,-11.192,-5.671,-1.603,-10.526,23.45,58.59,18.2
,-5.585,0.699,-11.366,-6.451,-1.929,-10.002,6.93,46.34,20.16
3785.0,-6.073,-1.658,-9.84,-4.032,-2.257,-9.179,-0.14,-21.35,30.73
,-5.812,-1.575,-9.531,-3.982,-2.237,-9.244,-1.33,-39.69,28.91
,-5.401,-1.673,-9.421,-4.056,-2.398,-8.983,-6.23,-58.94,27.37
,-4.494,-1.799,-9.15,-3.568,-2.058,-9.234,-8.96,-75.81,30.03
3861.0,-3.348,-2.249,-8.949,-4.212,-1.378,-9.052,-8.61,-137.9,35.35
,-3.642,-2.503,-8.689,-4.171,-0.95,-9.206,-7.21,-147.98,35.98
,-3.704,-2.651,-8.646,-4.001,-0.656,-8.897,-2.66,-158.83,35.7
,-3.762,-2.266,-8.693,-4.116,-0.684,-8.684,4.55,-168.91,35.28
3937.0,-4.336,-0.723,-9.373,-5.274,-1.598,-8.33,-19.88,-210.42,31.01
,-4.125,-1.594,-9.342,-5.384,-1.251,-8.349,-23.1,-216.86,28.35
,-4.386,-1.984,-8.957,-5.353,-1.11,-8.282,-15.54,-220.22,26.95
,-4.695,-1.797,-8.488,-5.599,-0.577,-8.196,-3.99,-222.11,24.78
4013.0,-5.753,0.065,-8.002,-6.518,-0.108,-6.908,-4.2,-231.42,8.19
,-5.973,0.546,-7.918,-6.616,-0.318,-6.332,-9.87,-232.61,2.73
,-6.073,0.531,-7.755,-6.87,-0.486,-5.595,-17.15,-233.38,-3.36
,-6.145,0.122,-7.385,-7.485,-0.84,-4.896,-22.19,-233.45,-8.47
4088.0,-8.301,-0.957,-4.728,-9.337,-2.462,-2.357,-31.5,-225.54,-40.46
,-8.614,-0.715,-4.398,-9.086,-2.563,-1.531,-34.16,-221.13,-45.36
,-8.727,-1.048,-3.709,-9.229,-2.18,-0.849,-41.93,-214.76,-47.74
,-8.954,-1.996,-2.9,-9.215,-1.163,-1.23,-48.65,-206.92,-48.86
4164.0,-8.069,-0.294,0.517,-7.49,-1.914,3.503,-43.47,-144.27,-41.65
,-7.937,-0.794,1.484,-7.509,-1.73,3.539,-44.17,-125.16,-39.2
,-7.978,-1.527,2.726,-7.593,-1.187,2.86,-41.09,-102.27,-35.98
,-7.629,-1.697,3.13,-7.827,-0.759,1.874,-35.7,-77.35,-30.52
4239.0,-8.055,-0.115,0.991,-8.222,0.069,-2.422,-29.68,52.5,5.04
,-8.153,0.383,0.168,-8.789,-0.38,-3.187,-34.09,71.26,9.45
,-8.244,0.644,-0.792,-15.609,-5.736,-3.946,-41.16,86.24,11.9
,-8.215,0.5,-1.677,-23.884,-13.187,6.478,-48.3,98.21,14.0
4315.0,-14.57,-1.563,-0.311,-10.06,-3.489,-3.678,39.13,58.31,31.85
,-8.004,2.584,-2.156,-7.82,-2.484,-4.343,24.36,63.63,15.68
,-8.646,-0.043,-2.118,-7.918,-1.388,-3.276,-14.84,71.12,17.08
,-9.964,-4.264,-1.756,-8.961,-0.79,-3.609,-22.26,85.96,27.37
4391.0,-8.583,-0.409,-4.398,-8.433,0.263,-5.954,3.08,90.44,24.99
,-8.418,0.424,-4.879,-9.45,-1.378,-5.145,-7.0,81.9,17.57
,-7.973,1.161,-5.145,-10.263,-1.163,-4.235,-17.01,76.72,14.0
,-7.959,1.275,-5.635,-9.753,0.546,-4.2,-25.27,75.88,12.81
4467.0,-9.107,0.73,-4.006,-9.27,1.799,-5.008,-16.94,67.55,18.2
,-8.526,-0.933,-3.659,-9.541,3.656,-5.126,-22.12,65.8,17.85
,-8.124,-1.345,-3.771,-9.407,4.097,-4.949,-6.58,64.05,20.93
,-8.569,-0.096,-4.499,-9.371,2.9,-4.597,18.55,62.37,25.69
4542.0,-9.335,1.711,-4.535,-9.617,0.713,-3.8,-23.45,41.93,11.69
,-9.107,0.914,-4.432,-9.481,1.472,-3.881,-26.39,40.39,9.38
,-9.105,0.254,-4.152,-9.557,1.728,-4.128,-24.99,39.06,9.52
,-9.366,0.093,-3.867,-9.557,1.819,-4.503,-19.67,37.66,10.36
4618.0,-9.179,1.314,-4.996,-9.093,-1.761,-5.032,-17.08,29.33,7.56
,-8.847,0.23,-5.066,-9.031,-0.979,-4.968,-18.83,27.93,7.56
,-9.048,-1.218,-4.917,-9.172,0.026,-4.558,-15.96,27.02,7.7
,-9.213,-1.929,-5.126,-9.213,0.402,-4.161,-5.11,27.16,8.33
4693.0,-9.335,0.591,-3.991,-9.076,0.392,-3.515,9.24,22.75,8.96
,-9.304,0.713,-3.865,-9.148,0.553,-3.278,5.32,21.77,7.7
,-9.165,0.555,-3.762,-9.337,1.139,-3.288,2.66,21.28,7.28
,-9.093,0.424,-3.642,-9.213,1.357,-3.329,2.59,21.42,7.49
4769.0,-9.146,1.072,-3.393,-8.949,0.503,-3.522,-13.02,21.91,1.47
,-9.16,0.699,-3.534,-9.222,0.361,-3.343,-17.92,22.26,0.7
,-9.038,0.273,-3.644,-9.287,-0.014,-3.192,-19.46,22.82,0.77
,-8.911,0.273,-3.513,-9.268,0.057,-2.96,-18.27,23.8,1.54
4845.0,-9.088,-0.017,-2.96,-8.787,-0.258,-3.982,-16.73,29.12,4.62
,-9.134,0.074,-3.046,-8.873,-0.108,-4.128,-14.42,30.94,4.9
,-9.012,0.294,-3.494,-8.583,0.196,-4.135,-12.11,32.76,5.11
,-8.902,0.031,-3.86,-8.557,0.141,-3.951,-11.34,34.37,5.39
4921.0,-8.732,0.139,-3.754,-9.167,0.541,-2.869,-2.24,39.41,7.98
,-8.82,0.256,-3.494,-9.304,0.211,-3.106,0.35,40.95,8.96
,-9.024,0.584,-3.235,-9.586,0.072,-3.743,2.31,42.98,9.31
,-9.15,0.751,-2.917,-9.507,-0.024,-4.441,1.82,45.5,9.38
4997.0,-9.471,-0.452,-5.099,-9.667,-0.294,-6.052,5.25,55.65,7.91
,-9.677,-0.431,-5.729,-10.134,0.313,-6.253,7.77,56.84,7.7
,-9.655,-0.239,-6.09,-9.469,1.194,-5.386,10.08,57.47,7.14
,-9.598,-0.278,-6.312,-9.462,1.378,-5.126,10.01,57.82,6.72
5072.0,-9.603,0.132,-4.704,-10.969,2.953,-3.903,14.28,61.25,-0.35
,-9.363,1.161,-4.542,-11.905,2.577,-4.173,15.05,62.65,-0.35
,-9.938,0.488,-4.087,-10.579,-1.881,-3.049,14.63,64.82,-0.35
,-10.024,0.51,-3.951,-10.211,-2.862,-2.326,20.72,67.69,-0.21
5148.0,-10.526,-0.531,-2.084,-10.01,-2.46,-1.768,37.45,86.8,1.19
,-10.809,-0.318,-2.139,-10.677,-1.85,-1.821,37.45,91.42,2.03
,-10.349,-2.079,-1.855,-11.328,-2.467,-0.816,33.04,96.25,2.73
,-9.876,-2.998,-1.725,-11.857,-3.321,0.282,36.47,102.27,6.09
5224.0,-12.087,-2.86,0.577,-10.536,0.201,-3.137,88.83,136.08,35.14
,-12.242,-1.89,0.144,-9.672,1.022,-4.75,99.75,141.47,39.55
,-11.62,-1.354,-0.251,-9.945,1.78,-5.93,107.87,145.32,42.28
,-11.261,-0.483,-1.56,-10.06,3.13,-8.16,114.17,147.56,42.63
5300.0,-10.651,2.469,-9.414,-7.98,0.938,-10.981,64.61,144.83,16.45
,-10.112,2.079,-9.675,-7.394,0.309,-11.089,46.06,138.88,14.49
,-9.351,1.788,-10.491,-6.497,-0.215,-11.486,31.43,128.52,13.23
,-8.775,1.371,-10.809,-5.678,-0.637,-11.826,18.83,114.94,12.18
5375.0,-5.042,-0.689,-12.139,-5.453,-1.223,-10.012,-14.28,39.48,11.27
,-4.475,-1.357,-11.417,-5.461,-0.744,-10.024,-12.46,28.49,12.32
,-4.901,-1.508,-10.885,-4.941,-0.794,-10.033,-7.42,15.05,12.88
,-5.171,-1.653,-10.249,-4.305,-0.9,-9.856,-0.28,-0.28,14.7
5451.0,-3.752,-0.888,-9.686,-2.857,-1.043,-9.469,-1.33,-98.63,24.36
,-3.345,-0.802,-9.847,-2.436,-1.079,-9.574,-2.59,-116.2,27.58
,-3.123,-0.845,-9.66,-2.438,-1.113,-9.344,-4.27,-133.28,27.09
,-2.793,-0.876,-9.581,-2.594,-1.374,-9.373,-7.0,-149.31,25.76
5526.0,-3.08,-1.182,-9.172,-3.479,-0.94,-9.009,-4.83,-214.83,15.96
,-3.551,-0.266,-9.1,-3.843,-1.072,-8.93,-6.02,-225.82,15.05
,-3.369,-0.057,-9.517,-4.149,-1.115,-9.1,-15.19,-236.32,12.81
,-3.144,-0.464,-9.359,-4.267,-0.854,-9.39,-25.27,-244.65,9.31
5602.0,-4.424,-0.481,-9.203,-6.073,0.208,-8.093,-23.17,-276.01,-12.18
,-4.673,-0.187,-8.918,-6.746,-0.239,-7.717,-20.79,-279.44,-17.5
,-5.059,-0.012,-8.696,-7.076,-0.916,-6.999,-20.72,-282.66,-22.19
,-5.772,0.17,-8.966,-6.592,-1.67,-5.946,-24.29,-286.65,-27.65
5678.0,-8.461,-1.804,-4.396,-9.416,-0.9,-0.775,-38.22,-274.05,-36.82
,-8.564,-2.225,-2.199,-8.938,-0.775,-0.168,-30.31,-260.89,-34.93
,-9.581,-2.032,-2.259,-8.471,-0.876,0.031,-19.18,-246.54,-35.84
,-9.464,-1.431,-1.094,-8.174,-1.074,-0.349,-16.31,-230.65,-35.84
5754.0,-7.664,-1.491,1.194,-8.074,-1.859,1.57,-39.34,-121.73,-24.85
,-7.995,-1.845,1.919,-7.813,-1.62,1.0,-34.16,-95.2,-20.3
,-8.174,-2.036,2.178,-8.131,-1.146,0.163,-27.93,-67.48,-15.75
,-8.265,-2.003,2.149,-8.32,-0.586,-0.601,-22.33,-39.62,-11.06
5829.0,-7.944,0.323,-1.462,-21.371,-10.407,6.679,-20.86,79.03,14.14
,-7.892,0.924,-2.213,-15.035,-2.828,0.897,-24.92,95.48,16.1
,-8.232,0.864,-3.34,-9.055,1.402,-1.752,-31.57,109.34,17.43
,-12.685,-3.089,-4.645,-8.722,-0.079,-2.132,-42.28,114.73,19.32
5905.0,-10.625,-3.273,-3.398,-9.162,1.053,-6.135,-53.62,96.74,17.71
,-9.773,-3.412,-3.582,-7.315,1.036,-8.014,-40.04,101.64,16.45
,-8.67,0.424,-3.259,-6.356,2.058,-8.066,-20.16,105.49,19.32
,-8.966,2.032,-3.74,-6.695,2.69,-8.385,-21.56,108.85,21.56
5981.0,-7.952,1.575,-8.191,-9.832,-0.637,-4.417,-48.09,80.85,8.54
,-8.799,0.141,-7.148,-8.99,-0.395,-4.247,-44.1,73.64,9.17
,-9.593,-0.637,-5.922,-8.287,-0.931,-4.238,-37.03,66.15,11.41
,-10.354,-0.766,-4.877,-8.882,-1.084,-4.271,-29.68,61.88,17.29
6057.0,-9.208,-0.067,-4.491,-9.418,0.756,-4.819,6.79,53.9,23.45
,-8.93,0.833,-4.664,-9.45,0.713,-4.448,6.58,52.01,24.5
,-9.028,0.663,-4.764,-9.246,0.519,-4.046,3.99,49.63,23.45
,-9.287,0.723,-4.896,-9.172,0.433,-3.704,3.78,47.18,21.7
6133.0,-9.588,0.5,-3.589,-9.359,1.704,-3.994,21.49,38.64,20.86
,-9.627,1.077,-3.577,-9.225,1.326,-4.092,22.05,37.87,19.67
,-9.397,1.682,-3.723,-9.217,1.106,-4.168,18.2,36.82,17.36
,-9.378,1.91,-3.867,-9.299,1.161,-4.439,10.92,35.07,14.07
6208.0,-9.265,1.055,-4.57,-9.301,1.173,-3.623,-1.61,27.37,7.14
,-9.062,0.924,-4.372,-9.368,0.969,-3.427,-2.94,25.76,6.79
,-9.031,0.936,-4.075,-9.481,0.596,-3.443,-4.27,24.5,6.02
,-9.177,1.094,-3.869,-9.34,0.091,-3.664,-6.72,23.52,4.41
6284.0,-9.186,-0.244,-3.668,-9.232,0.51,-3.869,-17.29,24.36,2.03
,-9.062,-0.122,-3.692,-9.16,0.304,-3.984,-13.72,25.48,2.8
,-9.069,0.199,-3.802,-9.129,0.189,-4.099,-11.48,25.83,3.08
,-9.191,0.617,-3.946,-9.057,-0.112,-4.056,-12.11,25.83,2.87
6359.0,-8.916,0.084,-3.853,-8.801,-0.182,-2.388,-16.17,26.67,2.31
,-8.777,0.51,-3.501,-8.698,-0.593,-2.23,-14.98,27.3,2.66
,-8.923,0.455,-3.077,-8.729,-0.725,-2.137,-15.33,28.07,3.08
,-9.038,0.156,-2.718,-8.938,-0.436,-2.321,-16.31,29.4,3.5
6435.0,-9.225,0.012,-2.589,-9.189,0.335,-4.042,-3.36,42.77,6.16
,-9.172,0.464,-2.733,-8.983,0.414,-4.843,-5.18,44.8,5.95
,-9.184,0.242,-2.893,-9.007,0.421,-5.635,-6.3,47.18,6.44
,-9.179,0.282,-3.396,-9.012,0.148,-5.982,-3.22,49.42,6.72
6511.0,-9.009,-0.041,-6.162,-9.509,0.254,-5.114,14.21,54.11,7.98
,-9.256,0.225,-6.289,-9.351,0.249,-4.69,18.06,53.83,7.98
,-9.495,0.735,-6.073,-9.983,0.701,-4.652,18.69,53.41,7.21
,-9.497,0.44,-5.233,-9.246,0.543,-4.166,17.08,53.2,5.95
6587.0,-9.828,1.283,-4.063,-10.182,0.498,-3.721,26.81,60.69,4.76
,-9.665,-0.024,-3.958,-11.187,3.099,-3.91,27.79,63.63,4.06
,-9.715,0.203,-3.759,-11.708,1.318,-4.257,31.85,66.57,4.62
,-9.978,0.268,-3.606,-10.321,-3.005,-3.331,35.14,69.86,4.55
6662.0,-10.505,-2.659,-2.723,-10.625,-1.749,-2.386,42.0,87.08,-0.7
,-10.692,-0.488,-2.704,-11.05,-1.371,-2.187,52.99,91.84,1.61
,-10.73,-0.871,-2.673,-11.373,-1.898,-1.23,50.19,96.11,1.19
,-10.419,-1.883,-2.414,-11.783,-2.513,-0.311,45.64,100.59,0.98
6738.0,-12.02,-2.568,0.412,-11.194,-1.383,-2.218,59.22,127.61,17.01
,-12.144,-2.647,0.701,-10.165,-0.538,-4.008,65.24,133.42,22.54
,-12.108,-2.508,0.28,-9.014,0.079,-5.212,71.54,138.32,27.23
,-11.653,-2.137,-0.742,-9.088,0.835,-6.875,80.85,141.47,31.99
6814.0,-9.517,1.608,-8.772,-8.37,2.434,-10.955,95.97,147.49,23.94
,-9.55,1.498,-9.493,-7.743,1.56,-11.254,87.08,145.39,22.26
,-9.555,1.441,-9.641,-7.117,0.885,-11.144,74.97,139.58,19.53
,-8.89,2.185,-10.227,-6.377,0.438,-11.311,63.28,129.36,17.22
6890.0,-5.535,0.022,-11.622,-4.118,-1.586,-10.357,2.17,54.53,14.63
,-4.635,-0.67,-11.742,-4.372,-1.735,-9.864,-0.84,42.21,16.24
,-4.128,-1.273,-11.251,-4.489,-1.723,-9.835,-4.2,31.15,17.78
,-3.522,-1.452,-11.062,-4.346,-1.555,-9.576,-2.38,19.95,20.72
6966.0,-4.197,-1.493,-9.485,-2.723,-1.788,-9.375,-2.24,-63.98,22.26
,-3.707,-1.287,-9.55,-1.893,-1.261,-9.526,-2.45,-81.48,22.89
,-3.47,-1.242,-9.213,-1.699,-0.931,-9.517,-2.59,-97.02,24.99
,-3.228,-1.572,-9.56,-2.489,-1.017,-9.292,-5.25,-112.7,26.11
7041.0,-2.962,-1.412,-9.469,-3.116,-1.156,-9.878,-22.75,-171.36,17.85
,-3.084,-1.95,-9.316,-2.984,-1.515,-9.466,-20.02,-182.63,14.21
,-3.068,-1.536,-9.383,-3.396,-1.91,-9.009,-16.87,-191.94,12.11
,-3.254,-0.962,-9.442,-3.972,-1.747,-8.988,-19.46,-199.99,11.55
7117.0,-4.369,-1.378,-8.842,-4.298,-0.811,-8.686,-19.39,-229.18,7.7
,-4.487,-1.05,-9.497,-5.535,-0.579,-7.813,-16.73,-234.64,5.53
,-4.231,-0.718,-9.244,-6.114,-0.249,-7.815,-13.16,-237.37,3.22
,-4.458,-0.713,-9.689,-6.236,-0.17,-7.751,-12.11,-241.01,0.14
7192.0,-6.624,-0.16,-7.406,-7.722,-1.091,-6.126,-12.46,-245.98,-13.23
,-6.877,-0.254,-7.169,-8.093,-1.101,-5.233,-20.51,-244.72,-14.98
,-7.076,-0.445,-6.789,-8.256,-1.393,-3.829,-27.02,-241.99,-17.01
,-7.413,-0.792,-6.406,-8.665,-1.182,-3.269,-30.24,-238.63,-19.53
7268.0,-9.292,-0.385,-3.094,-8.576,-1.663,-1.125,-17.15,-203.77,-31.92
,-9.399,-0.129,-2.381,-8.323,-1.675,0.972,-23.17,-194.11,-34.09
,-9.337,-1.048,-1.342,-8.684,-1.855,1.632,-32.48,-183.68,-35.63
,-9.069,-1.45,-1.263,-8.375,-1.9,2.424,-38.15,-171.29,-35.07
7344.0,-8.011,-1.718,3.233,-7.696,0.199,1.996,-19.46,-71.12,-15.54
,-7.7,-1.419,3.451,-7.856,0.696,0.991,-18.83,-43.68,-8.19
,-7.586,-1.055,3.415,-8.057,0.333,0.522,-19.11,-15.33,-0.7
,-7.645,-0.316,2.828,-8.411,0.074,-0.581,-20.65,11.69,5.32
7420.0,-13.065,-3.329,-4.293,-9.136,-1.146,0.615,-62.72,97.65,14.07
,-24.329,-12.522,7.26,-9.344,-6.241,0.632,-46.13,60.9,27.79
,-14.831,-1.859,1.268,-10.409,-6.695,0.725,-2.17,46.2,19.88
,-6.944,3.199,0.857,-10.191,-2.635,-0.402,-29.82,47.74,-1.4
7495.0,-11.407,0.775,-2.833,-6.777,-0.421,-5.841,-18.83,118.37,24.5
,-10.763,3.766,-4.161,-7.475,-2.91,-5.401,-28.07,111.37,19.46
,-8.495,4.379,-5.099,-7.928,-2.34,-4.671,-53.55,101.64,6.09
,-6.81,3.238,-5.966,-8.337,-0.321,-4.647,-80.29,94.01,-2.45
7571.0,-9.749,0.629,-4.625,-8.906,-0.232,-3.75,0.0,75.32,31.29
,-10.584,0.4,-4.52,-9.545,1.383,-3.977,5.53,72.17,36.96
,-9.342,0.589,-4.156,-9.299,2.28,-4.207,6.16,70.07,38.71
,-8.014,0.4,-4.078,-9.064,0.471,-4.329,6.44,68.11,38.29
7647.0,-8.693,-1.065,-4.779,-9.074,0.223,-4.556,-40.67,55.86,10.36
,-8.646,-1.46,-4.994,-9.162,0.979,-4.52,-30.1,53.69,12.88
,-8.696,-1.206,-4.896,-9.33,1.486,-4.537,-14.49,51.24,17.85
,-9.131,-0.641,-4.676,-9.351,1.517,-4.489,0.77,49.07,21.7
7723.0,-9.34,1.034,-4.499,-9.555,1.06,-3.793,-2.94,37.17,15.68
,-9.284,0.39,-4.192,-9.564,1.682,-3.972,-4.2,35.35,14.63
,-9.091,-0.036,-3.934,-9.383,1.548,-3.927,-1.33,33.95,14.77
,-9.206,0.321,-3.654,-9.476,0.902,-3.841,3.99,33.04,15.12
7798.0,-9.33,0.536,-3.972,-9.17,0.459,-3.944,-10.15,27.23,6.51
,-9.239,0.857,-4.348,-9.395,0.634,-3.53,-6.02,25.97,5.6
,-9.182,1.184,-4.642,-9.363,0.782,-3.226,-5.95,24.57,4.27
,-8.878,0.787,-4.271,-9.387,0.44,-3.159,-10.29,23.03,3.5
7874.0,-9.222,-0.122,-3.039,-9.112,0.371,-4.472,-15.12,21.63,0.91
,-9.478,0.022,-3.702,-9.036,0.68,-4.482,-12.46,21.77,0.49
,-9.136,0.067,-4.089,-8.942,0.61,-4.499,-11.97,21.84,-0.07
,-8.978,0.263,-4.209,-8.854,0.201,-4.353,-13.65,21.49,-0.56
7950.0,-8.72,-0.129,-4.183,-9.17,-0.601,-2.994,-16.66,18.27,-1.75
,-8.744,-0.34,-3.845,-9.323,-0.354,-2.699,-14.0,18.62,-0.21
,-8.847,-0.715,-3.577,-9.301,-0.096,-2.632,-10.36,19.18,2.03
,-9.122,-0.658,-3.329,-9.093,0.215,-2.625,-5.74,20.23,3.99
8025.0,-9.189,0.191,-2.845,-8.411,-0.995,-4.042,0.84,29.4,6.3
,-8.926,0.036,-3.151,-8.765,-0.306,-4.513,-0.07,31.08,6.23
,-8.696,-0.11,-3.424,-8.782,0.263,-4.922,1.33,32.55,6.86
,-8.521,-0.806,-3.723,-8.55,0.38,-5.066,2.66,34.09,8.33
8101.0,-8.679,0.39,-4.905,-8.99,0.95,-6.037,21.21,34.86,13.3
,-8.99,0.388,-5.049,-8.842,0.816,-6.391,23.66,34.23,13.86
,-9.009,0.424,-5.095,-8.751,0.543,-6.312,25.83,33.88,14.0
,-9.005,0.699,-5.583,-8.634,0.51,-6.198,28.14,33.32,13.51
8177.0,-8.847,0.809,-5.736,-9.033,0.371,-5.662,27.79,28.49,8.89
,-9.036,1.259,-5.662,-8.734,0.022,-5.788,27.3,28.0,7.42
,-9.186,1.29,-5.568,-8.753,-0.019,-5.805,25.97,27.23,6.44
,-9.261,0.912,-5.571,-8.665,-0.103,-5.922,26.11,27.16,6.51
8253.0,-8.954,-0.84,-5.877,-8.533,1.177,-4.984,62.3,31.29,14.63
,-8.796,-0.715,-5.822,-7.971,1.029,-4.659,70.14,31.22,16.1
,-9.05,-0.337,-5.406,-7.925,0.675,-4.264,76.09,31.5,16.66
,-8.866,0.519,-5.286,-7.873,1.11,-4.226,78.19,31.29,15.96
8328.0,-8.253,2.149,-4.147,-8.313,-1.917,-5.494,74.55,34.51,9.24
,-9.366,2.9,-4.398,-8.559,-1.828,-6.126,74.9,35.56,6.44
,-8.693,0.876,-4.793,-8.32,-1.984,-6.439,67.13,37.03,4.76
,-7.734,-1.608,-4.783,-8.626,-0.641,-7.265,68.32,39.69,7.07
8404.0,-9.038,0.383,-7.911,-8.976,-1.443,-7.554,91.42,35.91,10.99
,-9.653,-0.139,-8.086,-8.605,-1.448,-7.011,79.8,32.97,7.7
,-9.474,-0.907,-8.136,-8.354,-1.338,-6.494,72.59,30.17,5.95
,-9.198,-1.414,-7.901,-8.095,-1.22,-6.04,72.52,28.35,6.02
8480.0,-7.882,-1.098,-5.8,-7.107,-0.625,-5.575,78.54,22.96,10.22
,-7.708,-0.952,-5.559,-6.877,-0.22,-5.762,77.56,22.33,10.43
,-7.447,-1.062,-5.391,-6.846,-0.443,-5.973,74.97,21.98,10.71
,-7.387,-1.151,-5.497,-6.872,-0.806,-6.143,72.8,21.98,10.57
8556.0,-6.916,-1.053,-6.375,-7.054,-1.261,-6.87,58.24,19.81,10.78
,-7.016,-1.182,-6.703,-6.813,-1.173,-6.703,60.2,19.6,12.46
,-7.018,-1.285,-6.908,-6.793,-1.235,-6.755,63.7,19.95,14.7
,-7.061,-1.354,-6.863,-6.868,-1.335,-7.085,67.55,20.3,17.57
8631.0,-6.777,-1.041,-7.344,-6.456,-1.321,-7.105,84.91,22.4,35.42
,-6.595,-0.428,-7.377,-6.42,-1.204,-7.169,85.96,20.72,37.38
,-6.849,-0.443,-7.21,-6.987,-1.086,-7.011,83.37,19.95,39.69
,-6.655,-1.029,-7.138,-6.939,-0.081,-6.896,80.64,19.53,41.44
8707.0,-6.714,0.29,-6.631,-6.762,-0.967,-6.482,86.59,12.88,61.18
,-6.956,-0.457,-6.296,-6.875,-0.529,-6.6,83.93,13.44,66.78
,-7.052,-1.208,-6.202,-7.081,-0.392,-6.71,87.22,13.86,72.38
,-6.813,-1.244,-6.442,-6.987,-0.227,-6.748,95.2,14.14,77.63
8782.0,-6.607,0.108,-6.619,-7.569,0.785,-6.513,115.92,8.47,91.35
,-6.927,0.014,-6.537,-7.349,-0.359,-6.327,115.5,7.21,94.22
,-7.198,-0.175,-4.369,-7.344,-1.759,-6.114,119.77,6.86,98.77
,-7.722,0.964,-6.274,-7.459,-2.501,-6.076,122.78,3.22,98.49
8858.0,-7.452,-2.699,-5.956,-7.432,-1.575,-5.382,113.75,-8.47,96.88
,-7.499,-2.979,-6.214,-7.731,-0.847,-5.468,122.15,-7.14,99.19
,-7.356,-3.094,-5.839,-7.782,-0.438,-5.288,130.69,-5.46,101.92
,-7.294,-2.52,-5.465,-7.765,-0.369,-5.049,141.47,-3.08,105.63
8934.0,-7.892,-0.737,-4.956,-7.921,-1.653,-5.183,133.98,2.87,109.27
,-8.119,-1.149,-5.035,-8.184,-1.285,-4.791,132.3,3.5,109.55
,-8.215,-1.464,-5.233,-8.519,-1.201,-4.544,133.07,3.71,109.83
,-8.076,-1.785,-5.214,-8.631,-1.316,-4.872,134.89,4.06,110.46
9010.0,-8.839,-1.467,-5.03,-8.938,-1.548,-4.312,143.92,10.29,107.38
,-8.923,-1.529,-4.917,-9.069,-1.352,-4.051,142.24,10.85,106.61
,-9.019,-1.795,-4.657,-9.069,-0.909,-3.953,139.3,11.48,105.42
,-8.928,-1.749,-4.35,-9.112,-0.701,-4.262,138.74,12.53,105.07
9086.0,-8.964,-0.737,-4.178,-9.105,-1.309,-4.247,132.93,19.25,100.1
,-8.947,-1.299,-4.219,-8.949,-0.897,-4.061,127.61,19.53,98.63
,-8.827,-1.785,-4.319,-8.945,-0.715,-4.032,125.72,19.39,97.51
,-8.933,-1.697,-4.377,-9.139,-0.589,-3.972,127.89,18.62,96.95
9161.0,-9.232,-0.507,-4.054,-9.258,-0.957,-3.929,122.99,16.03,88.06
,-9.179,-0.62,-4.128,-9.363,-0.912,-4.214,117.53,14.56,84.28
,-9.162,-0.708,-4.109,-9.316,-1.139,-4.365,112.21,12.74,80.92
,-9.072,-0.902,-4.02,-9.296,-1.287,-4.448,108.36,11.2,78.54
9237.0,-9.308,-1.297,-4.384,-9.304,-0.457,-3.984,105.91,3.99,75.04
,-9.22,-1.027,-4.137,-9.239,-0.321,-3.814,108.99,2.59,75.18
,-9.263,-0.701,-4.14,-9.265,-0.081,-3.817,110.46,1.26,74.69
,-9.313,-0.593,-4.08,-9.225,-0.062,-3.759,110.74,0.0,74.41
9313.0,-9.273,-0.452,-3.697,-9.22,-0.089,-2.972,102.76,-4.48,69.09
,-9.304,-0.761,-3.676,-9.591,0.565,-2.934,100.94,-5.53,68.18
,-9.342,-1.17,-3.441,-9.823,0.969,-3.111,100.03,-6.86,66.29
,-9.165,-0.806,-3.135,-9.725,0.72,-3.108,100.59,-8.05,63.91
9389.0,-9.426,-0.146,-2.874,-8.847,-0.036,-3.099,61.81,-20.16,43.89
,-9.083,-0.658,-2.592,-8.684,-0.122,-3.384,55.51,-21.28,41.16
,-9.021,-0.534,-2.661,-8.368,-0.546,-3.654,53.34,-20.79,38.64
,-8.902,-0.151,-2.864,-8.387,-0.869,-3.96,50.96,-19.25,35.91
9464.0,-8.835,-0.864,-4.319,-10.56,0.328,-3.927,23.31,-1.54,16.59
,-9.177,-0.486,-4.664,-10.792,0.436,-4.032,17.99,-0.84,11.27
,-9.411,0.144,-4.645,-10.409,0.256,-4.279,9.31,-2.1,5.25
,-9.945,0.206,-4.276,-9.706,-0.227,-4.022,-3.92,-3.43,-0.7
9540.0,-9.134,-0.191,-3.872,-9.112,-0.007,-3.867,-34.79,-7.07,-6.37
,-8.715,-0.483,-3.656,-9.203,0.426,-4.051,-31.36,-5.95,-3.78
,-8.437,-0.72,-3.441,-9.263,0.541,-4.343,-24.5,-3.5,-0.14
,-8.737,-0.608,-3.594,-9.184,0.39,-4.3,-13.65,-0.77,3.29
9615.0,-8.959,0.354,-4.226,-8.899,0.019,-4.29,-11.06,0.42,3.15
,-8.959,0.302,-4.336,-8.873,-0.227,-4.274,-14.28,0.21,2.38
,-8.909,-0.177,-4.381,-8.794,-0.447,-3.848,-17.57,0.0,2.45
,-8.875,-0.266,-4.295,-8.923,-0.273,-3.979,-18.2,-0.28,2.94
9691.0,-9.194,0.024,-4.135,-8.751,-1.333,-3.898,-21.49,-0.35,2.8
,-9.064,0.263,-4.099,-9.026,-0.952,-3.886,-24.57,-0.77,1.96
,-8.808,0.019,-3.953,-9.117,-0.285,-4.149,-29.68,-1.05,1.05
,-8.631,-0.94,-3.798,-8.93,0.112,-4.14,-33.46,-0.35,1.68
9767.0,-9.067,0.526,-4.245,-8.782,-0.012,-5.099,-7.56,3.22,10.22
,-9.177,1.015,-4.647,-8.43,-1.381,-4.685,-5.46,2.94,10.85
,-9.074,1.189,-4.774,-8.698,-1.388,-4.917,-5.25,2.24,11.41
,-9.024,1.11,-4.812,-9.162,-0.419,-5.147,-5.04,1.54,11.83
9843.0,-9.105,0.447,-5.334,-8.885,-0.144,-4.58,27.02,0.63,19.67
,-8.887,0.742,-5.2,-8.842,-1.144,-4.07,25.27,-0.42,19.18
,-8.758,0.56,-4.984,-8.914,-0.916,-3.731,22.47,-1.33,18.55
,-8.756,0.337,-4.704,-9.107,-0.043,-3.446,23.03,-1.96,18.13
9918.0,-9.16,0.483,-3.245,-9.265,1.56,-3.049,53.62,3.85,26.18
,-8.995,0.943,-2.915,-9.095,1.395,-3.297,52.43,5.18,25.83
,-9.04,1.309,-2.783,-8.916,1.177,-3.592,47.11,6.3,24.57
,-9.273,1.531,-2.9,-8.892,0.84,-3.991,41.02,6.93,22.96
9994.0,-8.825,0.957,-4.168,-9.079,1.378,-4.834,28.42,9.17,19.32
,-9.117,1.297,-4.298,-8.89,0.967,-5.205,28.77,9.24,18.27
,-9.112,1.625,-4.243,-8.741,-0.184,-5.257,24.5,8.47,16.45
,-8.873,1.515,-4.42,-8.696,-0.38,-4.949,19.95,7.91,15.61
10070.0,-8.689,0.388,-4.611,-9.249,0.357,-2.735,30.59,6.3,14.77
,-8.942,0.759,-4.118,-9.251,0.928,-2.919,32.34,6.58,15.33
,-9.067,0.503,-3.324,-9.083,1.168,-3.324,29.47,7.91,16.03
,-9.074,0.168,-2.79,-8.801,1.29,-3.788,28.56,9.8,16.87
10146.0,-8.832,1.074,-4.147,-8.648,1.263,-4.896,28.28,17.01,15.47
,-8.887,1.053,-4.31,-8.61,1.395,-4.767,26.6,17.15,14.14
,-8.514,1.125,-4.661,-8.701,0.924,-4.743,23.52,16.73,12.6
,-8.399,1.041,-4.685,-8.6,0.538,-4.64,20.58,16.59,11.55
10222.0,-8.631,0.656,-4.702,-9.232,0.601,-4.539,10.92,16.1,7.7
,-8.629,0.196,-4.771,-8.961,1.809,-4.815,10.43,16.31,7.98
,-8.576,-0.333,-4.666,-8.777,2.058,-5.006,12.39,17.01,9.52
,-8.799,-0.175,-4.439,-8.583,1.955,-4.805,18.13,18.2,11.27
10297.0,-8.552,1.826,-4.822,-8.65,0.165,-4.602,7.77,16.45,6.02
,-8.679,1.764,-4.726,-8.689,0.352,-4.649,4.83,16.03,4.69
,-8.442,1.402,-4.683,-8.835,0.67,-4.745,1.05,15.89,3.71
,-8.547,0.603,-4.666,-8.892,0.711,-4.953,-1.68,16.31,3.43
10373.0,-8.737,0.06,-5.039,-8.552,0.158,-5.327,-1.05,20.09,3.22
,-8.591,-0.23,-5.03,-8.705,0.634,-5.343,0.49,20.86,3.78
,-8.485,-0.488,-5.219,-8.617,0.558,-5.382,3.43,21.7,4.69
,-8.382,-0.488,-5.219,-8.5,0.469,-5.26,7.42,22.47,6.09
10448.0,-8.478,0.543,-5.099,-8.641,0.828,-5.382,15.12,24.99,9.17
,-8.435,0.926,-4.982,-8.483,0.603,-5.494,16.38,25.41,9.38
,-8.557,1.039,-4.984,-8.442,0.172,-5.757,15.4,25.83,9.03
,-8.612,0.895,-5.102,-8.567,0.189,-5.564,13.51,26.25,8.4
10524.0,-9.265,1.005,-5.508,-8.72,0.526,-5.339,20.37,27.93,9.66
,-8.416,0.211,-5.501,-8.409,0.313,-5.449,17.43,28.42,8.19
,-8.945,0.651,-5.394,-8.469,0.739,-5.523,17.29,28.77,7.07
,-8.77,1.345,-5.578,-8.452,0.943,-5.525,14.14,29.05,6.51
10600.0,-8.519,0.763,-5.528,-9.615,1.45,-6.025,13.37,32.27,5.74
,-8.653,0.72,-5.497,-9.083,0.022,-5.989,13.79,33.04,5.67
,-9.052,1.165,-5.425,-8.839,-0.278,-5.812,15.82,34.16,5.53
,-9.634,1.95,-5.681,-8.873,0.251,-5.733,16.66,34.79,4.34
10676.0,-8.894,0.282,-5.642,-8.485,-0.031,-5.188,24.57,38.92,5.46
,-8.801,-0.101,-5.564,-8.607,0.184,-5.092,24.99,40.11,5.95
,-8.643,-0.275,-5.477,-8.717,0.254,-5.018,25.9,41.09,6.65
,-8.524,-0.12,-5.386,-8.727,-0.065,-4.831,27.65,42.42,7.49
10751.0,-8.756,-0.39,-4.465,-8.871,-1.345,-3.573,34.58,51.03,14.84
,-8.993,-0.392,-4.192,-8.722,-1.627,-3.565,38.57,53.83,17.99
,-9.177,-0.589,-3.975,-8.607,-1.936,-3.381,41.93,56.91,21.35
,-8.99,-0.96,-3.752,-8.327,-1.912,-3.417,44.8,60.41,24.99
10827.0,-8.311,-1.46,-3.305,-9.33,-0.873,-5.286,76.79,81.2,42.63
,-8.538,-0.914,-3.731,-9.155,-1.007,-5.647,82.39,84.7,42.98
,-8.866,-0.546,-4.094,-9.076,-1.079,-5.298,83.3,87.57,42.77
,-9.045,-0.68,-4.563,-9.404,-0.357,-7.083,81.34,90.37,41.58
10902.0,-9.222,-0.002,-7.27,-8.055,-1.924,-8.674,65.87,106.75,34.02
,-9.033,-0.957,-7.203,-7.564,-1.819,-8.904,57.12,107.59,37.94
,-9.141,-1.665,-7.564,-7.38,-2.118,-9.454,52.22,105.0,40.04
,-8.715,-1.924,-8.169,-6.889,-2.333,-9.856,50.61,98.91,40.25
10978.0,-6.207,-2.29,-9.552,-6.478,-1.776,-8.425,53.97,55.44,55.02
,-5.8,-2.319,-9.636,-6.978,-1.412,-8.375,56.98,44.94,58.8
,-5.487,-2.367,-9.143,-7.045,-0.869,-8.002,59.36,36.05,62.44
,-5.666,-1.89,-8.727,-7.255,0.335,-10.244,66.29,28.14,67.55
11054.0,-6.786,-0.409,-8.44,-5.875,-1.699,-8.2,64.82,-47.74,70.0
,-6.296,-0.069,-8.392,-6.102,-1.546,-8.126,47.88,-61.74,72.59
,-5.709,-1.295,-8.141,-5.855,-1.586,-8.203,32.34,-75.74,74.48
,-5.518,-1.644,-8.198,-5.518,-1.689,-8.138,28.49,-86.87,76.09
11130.0,-5.619,-1.448,-8.258,-5.635,-1.031,-8.385,37.94,-143.57,64.89
,-5.937,-0.983,-8.258,-5.575,-1.206,-8.267,40.04,-153.3,62.51
,-5.997,-0.802,-8.251,-5.681,-1.201,-8.131,38.5,-163.8,60.41
,-5.882,-0.838,-8.334,-5.733,-1.003,-8.184,35.49,-173.25,58.59
11206.0,-5.753,-0.672,-8.224,-6.305,0.134,-7.595,33.6,-206.78,47.67
,-5.903,-0.304,-7.995,-6.126,-0.177,-7.327,34.51,-211.61,43.75
,-6.076,0.175,-7.882,-6.253,-0.495,-6.975,33.74,-215.81,39.13
,-6.346,0.294,-7.808,-6.482,-0.436,-6.736,29.26,-220.5,33.81
11281.0,-6.755,-0.206,-6.475,-8.162,-0.94,-3.542,4.9,-236.95,8.26
,-6.942,-0.211,-5.887,-8.961,-0.89,-2.816,-0.49,-236.6,4.41
,-7.138,-0.546,-5.583,-8.753,-0.419,-2.319,-3.71,-234.08,0.42
,-7.377,-0.873,-4.633,-9.124,0.079,-2.204,-5.46,-230.65,-3.22
11357.0,-9.416,0.285,-2.029,-8.574,-1.862,0.067,-0.63,-194.88,-20.37
,-8.959,-0.474,-1.027,-8.279,-1.594,0.914,-10.5,-183.26,-20.58
,-8.854,-1.067,-0.543,-8.674,-1.888,1.761,-19.25,-170.73,-19.74
,-8.894,-1.711,-0.203,-8.583,-1.575,2.362,-24.57,-157.22,-18.41
11433.0,-8.461,-1.194,2.965,-8.65,-0.79,1.625,-24.78,-67.2,-10.92
,-8.667,-0.864,2.888,-8.586,-0.792,1.0,-25.34,-44.8,-7.42
,-8.842,-0.857,2.551,-8.835,-0.675,0.402,-28.49,-23.17,-5.11
,-8.859,-0.785,2.039,-8.703,-0.392,-0.225,-33.67,-3.08,-3.5
11509.0,-8.509,-0.136,-0.816,-11.127,-2.876,-4.496,-56.84,75.11,3.43
,-8.162,0.17,-1.584,-19.004,-10.603,4.805,-61.32,86.8,3.92
,-7.99,0.275,-2.496,-17.574,-6.303,4.719,-66.15,97.86,4.97
,-8.21,-0.136,-3.367,-10.55,-0.249,-0.495,-70.21,107.1,7.42
11584.0,-8.775,0.536,-1.409,-8.031,-0.921,-2.333,-5.74,76.93,6.65
,-10.61,-1.017,-1.354,-10.345,-1.074,-4.106,-30.8,78.89,14.21
,-10.05,-1.694,-4.535,-10.347,0.653,-6.286,-43.47,81.97,12.88
,-7.339,-2.056,-4.506,-7.552,2.278,-7.846,-39.55,84.98,14.14
11660.0,-6.37,1.318,-7.748,-8.902,-1.271,-5.473,-27.72,84.98,18.27
,-7.344,-0.704,-7.693,-9.689,-0.778,-4.858,-33.88,80.92,16.24
,-8.509,-1.878,-7.205,-10.725,0.026,-4.771,-26.6,76.51,15.26
,-8.887,-1.658,-6.119,-10.105,0.964,-4.759,-12.53,71.33,16.66
11735.0,-9.256,1.474,-4.087,-9.318,2.721,-3.97,5.18,56.42,24.43
,-8.148,0.51,-3.532,-9.328,0.976,-3.451,5.53,52.36,21.84
,-9.184,0.775,-4.015,-9.407,-0.168,-3.242,12.53,47.95,17.36
,-9.971,2.345,-4.29,-9.383,-0.077,-3.025,10.5,44.45,14.42
11811.0,-9.265,0.349,-3.381,-9.325,1.251,-3.838,-4.62,37.17,11.97
,-9.117,0.194,-3.307,-9.395,1.728,-3.903,-2.17,36.47,13.09
,-9.342,0.211,-3.398,-9.526,2.072,-4.35,1.96,36.12,13.51
,-9.459,0.682,-3.74,-9.186,2.326,-4.649,7.14,35.91,13.23
11887.0,-8.978,1.761,-4.905,-9.292,0.325,-3.924,-1.68,28.35,7.28
,-9.024,0.471,-4.745,-9.244,0.648,-3.812,-3.64,26.6,6.93
,-8.892,-0.237,-4.398,-9.225,0.79,-3.953,0.56,25.55,7.77
,-9.081,-0.168,-4.07,-9.361,0.503,-3.936,7.42,25.27,8.61
11963.0,-9.462,0.244,-3.848,-9.435,0.916,-2.953,3.78,21.98,8.68
,-9.136,0.134,-3.357,-9.21,1.113,-3.013,3.08,21.49,8.26
,-9.308,0.409,-2.912,-9.273,0.613,-3.427,3.78,21.49,9.1
,-9.684,0.574,-2.919,-9.139,0.093,-3.453,3.99,21.7,8.61
12039.0,-8.82,0.081,-3.386,-9.048,0.601,-3.005,-1.33,25.27,6.72
,-8.918,-0.038,-3.233,-9.069,0.833,-3.252,0.98,26.53,7.21
,-9.098,0.321,-3.149,-8.995,0.687,-3.374,3.71,28.07,7.14
,-9.129,0.586,-3.13,-8.947,0.763,-3.508,2.94,29.05,6.16
12114.0,-8.94,1.24,-3.915,-8.827,0.055,-3.987,-7.28,33.04,2.59
,-8.835,1.419,-4.015,-9.043,-0.249,-4.008,-9.1,32.83,2.45
,-8.71,1.251,-3.996,-9.155,-0.148,-3.953,-12.04,32.76,2.45
,-8.758,0.79,-4.092,-9.119,0.548,-4.319,-13.51,32.83,2.59
12190.0,-9.024,0.828,-4.654,-8.519,0.134,-5.391,-2.03,36.89,4.41
,-8.849,0.495,-4.92,-8.72,0.629,-5.485,-4.97,37.24,3.92
,-8.789,0.172,-5.171,-8.76,0.524,-5.358,-5.6,37.31,3.71
,-8.48,-0.122,-5.327,-8.796,-0.153,-5.073,-3.36,37.52,4.2
12266.0,-8.777,-0.469,-4.929,-8.811,0.199,-4.783,5.39,37.73,6.86
,-8.691,-0.235,-4.996,-8.758,0.342,-4.733,11.83,38.78,8.19
,-8.614,0.122,-4.879,-8.665,0.546,-4.805,16.8,39.62,9.24
,-8.655,0.318,-4.855,-8.782,0.507,-4.788,18.41,40.18,9.45
12342.0,-8.93,0.914,-4.752,-9.45,1.457,-4.228,18.27,44.38,5.81
,-9.366,1.314,-4.664,-9.304,0.328,-4.145,16.87,45.08,3.64
,-9.44,1.828,-4.793,-9.552,0.828,-4.271,13.44,46.06,2.24
,-9.316,1.634,-4.235,-9.646,0.165,-4.274,11.48,46.62,3.57
12417.0,-9.653,-0.51,-4.262,-10.254,-0.27,-4.156,13.58,59.57,1.26
,-9.631,-0.428,-4.336,-11.708,3.278,-4.506,17.15,62.72,1.05
,-9.873,-0.593,-4.288,-12.089,1.28,-4.716,19.32,66.01,0.7
,-9.88,-0.665,-4.183,-10.258,-3.041,-3.482,21.0,69.09,0.56
12493.0,-10.493,-2.065,-2.675,-9.957,-2.886,-2.45,19.32,86.73,-3.5
,-10.689,0.091,-2.764,-10.139,-2.613,-1.692,27.79,91.21,-0.63
,-10.735,-0.828,-2.934,-10.672,-1.857,-1.235,22.19,95.06,-0.42
,-10.215,-2.391,-2.733,-10.995,-1.299,-0.876,19.11,99.68,1.33
12568.0,-11.223,-1.043,-0.536,-9.682,-0.869,-4.896,63.49,124.32,21.07
,-11.065,-0.73,-1.18,-8.985,-0.699,-6.193,67.13,128.03,24.29
,-10.909,-0.979,-1.948,-8.741,0.282,-6.368,69.65,130.2,27.23
,-10.445,-1.048,-2.91,-9.227,1.036,-8.777,74.34,131.46,29.68
12644.0,-9.512,1.127,-9.062,-7.796,2.02,-10.936,83.93,135.45,15.61
,-9.371,1.098,-9.524,-6.968,1.598,-10.979,80.78,131.25,15.4
,-9.682,1.661,-11.134,-6.102,1.567,-11.419,72.45,120.33,12.88
,-8.868,1.917,-10.888,-4.743,0.79,-11.723,60.06,106.12,10.85
12720.0,-3.951,-0.244,-11.752,-5.451,-1.168,-9.71,2.45,35.7,15.26
,-3.862,-0.699,-11.67,-5.642,-1.151,-8.959,-1.19,25.13,15.54
,-4.046,-1.046,-10.967,-5.552,-1.168,-8.82,-3.99,10.99,15.26
,-5.207,-1.299,-10.065,-4.47,-1.393,-8.942,-3.78,-6.3,16.94
12796.0,-3.716,-1.388,-9.237,-3.812,-0.682,-9.028,-15.96,-103.53,20.72
,-3.687,-1.627,-9.249,-3.774,-1.34,-8.741,-12.25,-115.92,21.98
,-4.037,-1.184,-9.301,-3.963,-1.462,-8.902,-9.1,-129.01,19.18
,-3.771,-0.577,-9.251,-4.223,-1.479,-8.804,-8.33,-142.17,18.13
12871.0,-4.123,-1.385,-8.835,-4.604,-0.857,-8.83,-5.04,-195.3,8.89
,-4.262,-1.314,-8.543,-4.645,-1.091,-8.892,-3.08,-202.09,9.17
,-4.513,-0.766,-8.818,-4.855,-1.058,-8.533,-6.37,-209.93,8.61
,-4.513,-0.644,-8.76,-5.181,-0.799,-8.301,-12.67,-217.35,8.4
12947.0,-5.537,-0.246,-8.478,-6.205,-0.995,-6.868,-5.32,-239.4,1.68
,-5.748,-0.163,-8.447,-6.746,-1.405,-6.265,-7.0,-242.97,-0.7
,-5.808,-0.376,-8.437,-7.028,-1.4,-6.011,-9.24,-245.35,-4.55
,-5.76,-0.739,-7.54,-7.332,-1.225,-5.451,-7.49,-244.09,-6.37
13022.0,-7.698,-0.792,-5.018,-8.445,0.124,-3.027,0.49,-226.59,-5.53
,-7.743,-0.112,-4.98,-8.43,1.208,-3.582,-2.17,-220.71,-6.93
,-7.578,-0.005,-4.128,-8.593,1.153,-3.762,-8.33,-213.57,-7.77
,-7.782,-0.464,-2.814,-8.607,-0.151,-2.723,-9.87,-204.19,-11.2
13098.0,-8.346,-1.213,-2.072,-8.37,-2.414,-0.352,-59.99,-152.46,-35.21
,-8.433,-1.701,-1.821,-8.287,-2.039,0.124,-65.52,-138.18,-35.63
,-8.22,-2.137,-1.34,-8.227,-1.907,0.347,-67.69,-122.08,-33.95
,-8.313,-2.532,-0.493,-8.241,-1.476,0.112,-66.92,-103.88,-30.45
13174.0,-8.212,-1.015,-0.096,-7.901,-0.608,-2.197,-42.14,0.07,-13.51
,-8.009,-0.675,-0.601,-10.514,-2.678,-2.888,-40.46,21.0,-8.82
,-7.985,-0.543,-1.201,-18.571,-9.55,2.654,-39.34,41.16,-3.08
,-7.937,-0.464,-1.788,-16.65,-5.906,2.735,-38.99,60.13,2.45
13250.0,-11.249,-2.625,-0.57,-8.368,0.409,-4.795,17.01,100.24,31.71
,-8.966,-0.919,-2.699,-7.901,1.254,-3.735,14.77,103.6,27.86
,-10.187,-1.67,-3.944,-8.691,0.773,-4.372,6.79,101.78,30.73
,-9.739,-1.208,-4.975,-8.926,0.517,-6.183,7.56,98.14,26.81
13326.0,-7.956,1.474,-7.329,-9.186,0.206,-5.461,-18.13,90.65,17.43
,-7.09,2.123,-7.239,-9.813,1.67,-4.836,-24.15,86.73,15.12
,-7.566,1.45,-6.808,-10.773,2.711,-4.743,-33.67,81.9,12.32
,-8.464,0.096,-5.973,-10.39,1.831,-4.475,-36.12,75.88,9.59
13401.0,-9.043,0.467,-4.489,-8.99,-1.187,-4.791,-45.22,53.34,11.83
,-8.028,-1.541,-4.448,-8.878,-1.22,-4.508,-37.94,51.31,15.82
,-8.346,-2.575,-4.491,-9.344,-0.67,-4.609,-19.74,48.58,17.71
,-9.244,-1.912,-4.862,-9.289,0.754,-4.769,-2.94,46.69,18.83
13477.0,-9.287,1.608,-4.669,-9.146,0.256,-3.709,2.45,39.76,14.77
,-9.38,1.472,-4.527,-9.332,0.574,-3.635,-3.78,37.38,13.44
,-9.442,1.041,-4.271,-9.586,1.23,-3.951,-5.25,35.21,12.6
,-9.356,0.488,-4.022,-9.349,1.314,-4.154,-3.01,33.88,12.88
13553.0,-9.174,1.108,-4.156,-9.146,-0.014,-3.829,-3.5,27.23,9.03
,-9.323,0.581,-4.147,-9.22,0.385,-3.697,-8.47,25.97,7.56
,-9.227,0.074,-4.08,-9.395,0.854,-3.632,-10.01,24.43,6.23
,-9.088,-0.177,-3.975,-9.383,0.768,-3.467,-7.28,23.73,6.09
13629.0,-9.191,0.684,-3.374,-9.064,-0.081,-3.8,-4.48,22.33,6.51
,-9.249,0.732,-3.57,-9.079,-0.124,-3.845,-5.46,22.33,5.74
,-9.177,0.658,-3.731,-9.083,0.28,-3.826,-6.86,22.26,5.46
,-9.086,0.285,-3.783,-9.239,0.869,-3.687,-8.47,22.61,5.39
13704.0,-9.411,1.184,-3.53,-9.294,0.699,-3.604,-12.46,24.08,3.43
,-9.45,0.928,-3.288,-9.15,0.806,-3.711,-19.18,24.5,2.38
,-9.335,0.483,-3.101,-8.775,0.519,-3.783,-23.31,25.41,1.82
,-9.253,0.39,-3.262,-8.753,-0.074,-3.771,-23.52,26.39,1.33
13780.0,-8.72,-0.567,-3.666,-8.744,0.754,-3.769,-22.47,30.38,2.17
,-8.772,-0.735,-3.68,-8.672,0.177,-3.843,-17.5,32.06,3.01
,-8.942,-0.656,-3.599,-8.626,-0.443,-3.752,-13.02,33.6,3.36
,-9.232,0.304,-3.728,-8.686,-0.428,-3.637,-11.34,34.58,1.68
13856.0,-8.713,0.141,-3.551,-9.16,-0.593,-4.542,-0.91,41.72,8.19
,-9.194,0.488,-3.656,-9.328,-0.948,-4.755,3.78,43.75,8.61
,-9.241,0.519,-3.869,-9.507,-0.536,-4.956,4.69,45.71,8.68
,-9.189,0.069,-4.243,-9.732,0.031,-5.016,5.32,47.46,8.89
13932.0,-9.643,0.05,-4.949,-9.691,1.63,-4.465,23.94,55.23,9.66
,-9.502,-0.124,-4.472,-8.811,-0.01,-4.453,22.54,56.35,9.1
,-9.739,0.002,-4.403,-9.234,0.45,-4.654,22.96,58.73,8.54
,-8.875,0.4,-4.348,-9.383,0.625,-4.678,23.03,59.85,9.73
14007.0,-9.428,-0.179,-4.585,-11.665,2.225,-4.379,21.91,68.88,3.36
,-9.545,0.196,-4.64,-10.483,-2.156,-3.441,26.74,71.26,3.08
,-9.907,0.371,-4.477,-10.017,-3.247,-2.726,30.1,73.71,2.94
,-10.84,2.974,-4.166,-10.251,-0.998,-2.67,35.21,76.09,0.98
14083.0,-10.402,-0.725,-2.589,-11.285,-2.02,-1.941,44.59,95.69,4.2
,-10.081,-1.522,-2.706,-11.565,-2.498,-1.359,40.04,100.24,4.06
,-10.144,-1.649,-2.9,-11.484,-2.259,-1.039,40.67,104.58,5.46
,-10.749,-1.484,-2.556,-11.18,-1.835,-1.173,44.52,108.99,7.77
14159.0,-11.151,-1.632,-1.543,-9.04,0.127,-6.482,77.21,129.92,27.3
,-10.876,-1.567,-2.211,-8.902,1.335,-7.112,84.63,131.95,31.15
,-10.098,-1.201,-3.486,-9.067,2.034,-8.811,91.56,133.0,33.18
,-9.624,-0.658,-5.425,-9.241,1.783,-9.256,96.32,133.49,31.15
14234.0,-8.93,1.931,-9.576,-6.573,1.062,-10.68,59.85,126.56,16.38
,-8.366,2.089,-9.859,-5.915,0.835,-10.842,47.81,118.09,15.47
,-7.806,2.099,-10.467,-5.444,0.208,-10.782,33.6,105.91,14.28
,-6.99,1.721,-10.72,-4.369,0.175,-11.965,21.0,91.84,13.51
14310.0,-4.556,-1.45,-10.837,-4.925,-1.015,-9.414,-13.51,24.15,7.07
,-3.783,-1.108,-10.895,-4.743,-0.814,-8.854,-12.88,14.14,7.91
,-4.398,-1.438,-10.148,-4.444,-0.895,-9.246,-12.32,0.91,7.7
,-4.731,-1.347,-9.83,-3.896,-0.665,-9.234,-8.05,-15.33,7.42
14386.0,-3.429,-0.794,-9.045,-3.403,-1.584,-8.631,-1.96,-101.43,14.0
,-3.372,-1.098,-8.926,-3.532,-1.639,-8.782,-5.11,-116.06,14.98
,-3.192,-1.369,-8.952,-3.786,-1.821,-8.933,-9.03,-130.34,14.63
,-3.077,-1.484,-8.923,-3.934,-2.137,-9.067,-10.78,-142.31,15.05
14462.0,-4.032,-1.582,-8.916,-4.929,-1.287,-8.67,-3.5,-197.54,10.15
,-4.3,-0.933,-9.06,-5.202,-1.508,-8.914,-3.43,-204.4,11.34
,-4.451,-0.926,-8.763,-5.006,-1.823,-9.076,-9.17,-210.77,11.55
,-4.712,-0.974,-8.703,-4.963,-1.819,-8.5,-14.7,-217.77,11.34
14537.0,-5.506,-1.393,-8.334,-6.368,-0.397,-7.748,-2.59,-241.29,8.4
,-5.915,-0.952,-8.236,-6.731,-0.383,-7.329,0.84,-243.81,8.26
,-6.061,-0.68,-8.088,-7.169,-0.325,-6.449,2.38,-245.84,8.75
,-6.061,-0.407,-7.99,-7.691,-0.352,-6.274,2.38,-247.38,8.89
14613.0,-7.459,-0.579,-5.709,-9.241,0.524,-2.74,-2.45,-241.36,1.33
,-7.696,-0.885,-4.724,-9.677,0.873,-2.271,-5.74,-236.88,1.12
,-7.875,-1.019,-3.376,-9.368,0.486,-1.656,-7.7,-230.72,-2.87
,-8.291,-0.218,-3.094,-8.993,-0.517,-0.866,-1.26,-222.04,-9.03
14689.0,-8.758,-2.087,0.165,-7.899,-2.381,2.218,-60.83,-158.34,-32.97
,-8.222,-2.773,0.036,-7.964,-1.665,1.881,-63.28,-139.02,-31.92
,-7.755,-2.879,0.869,-8.086,-1.34,1.51,-61.32,-116.48,-28.28
,-7.643,-2.898,2.089,-8.138,-1.189,0.849,-55.58,-91.35,-23.8
14765.0,-8.16,-0.72,0.074,-8.832,-0.479,-3.386,-44.94,35.63,-6.58
,-8.155,-0.266,-0.732,-14.183,-5.31,-3.379,-47.88,56.56,-3.01
,-8.009,0.196,-1.5,-20.045,-9.686,4.302,-50.26,75.18,-0.14
,-8.026,0.297,-2.402,-13.496,-2.747,0.766,-53.62,91.14,1.96
14840.0,-8.533,0.012,-1.699,-7.775,0.584,-4.795,21.91,83.79,18.9
,-9.923,-1.706,-1.859,-7.81,1.933,-3.498,-0.14,91.14,24.71
,-10.658,-3.046,-2.864,-9.165,1.656,-3.716,-4.9,94.71,26.46
,-9.612,-1.811,-4.791,-9.414,1.362,-4.841,7.21,95.2,24.99
14916.0,-7.94,1.866,-5.475,-9.521,-0.251,-4.518,-23.1,82.81,16.31
,-7.519,2.556,-5.882,-9.541,-0.768,-4.202,-30.87,80.43,12.46
,-8.323,2.29,-5.587,-9.634,-0.158,-4.032,-41.09,78.19,7.91
,-9.179,1.149,-5.284,-10.002,0.12,-3.994,-48.65,74.55,4.06
14991.0,-9.514,-0.184,-4.116,-8.983,0.084,-4.953,-32.62,58.8,10.22
,-8.72,-0.711,-4.238,-9.165,1.314,-4.752,-24.85,58.1,13.51
,-8.145,-1.359,-4.592,-9.194,1.558,-4.75,-12.11,56.91,17.08
,-8.507,-1.153,-4.939,-9.198,1.163,-4.472,1.26,54.46,17.99
15067.0,-9.155,0.9,-3.917,-9.43,1.823,-4.149,-29.05,40.67,4.2
,-9.33,0.756,-3.542,-9.277,1.541,-4.255,-32.97,38.85,2.38
,-9.665,0.763,-3.532,-9.361,1.089,-4.391,-31.15,37.31,1.82
,-9.732,1.395,-3.9,-9.344,0.933,-4.738,-26.11,35.84,2.1
15143.0,-9.127,0.708,-5.092,-8.902,-1.182,-4.98,-17.5,26.95,4.13
,-8.952,0.148,-5.279,-8.995,-0.983,-4.525,-18.2,25.06,3.36
,-8.971,-0.414,-5.42,-9.246,-0.297,-4.341,-17.71,23.1,2.52
,-8.882,-0.905,-5.212,-9.332,0.124,-4.271,-15.75,21.63,2.45
15219.0,-9.371,0.445,-4.341,-9.34,0.11,-3.788,-4.83,16.73,3.01
,-9.088,0.491,-4.307,-9.421,0.596,-3.697,-6.3,15.89,3.22
,-8.945,0.129,-3.999,-9.258,0.89,-3.58,-7.14,15.61,4.13
,-9.052,-0.031,-3.845,-9.22,0.991,-3.417,-6.65,15.68,4.62
15295.0,-9.162,0.794,-3.312,-9.057,0.278,-3.575,-14.07,16.66,2.03
,-9.215,0.488,-3.159,-9.038,-0.045,-3.609,-17.15,17.57,1.75
,-9.227,0.44,-3.245,-9.098,-0.414,-3.654,-18.13,18.06,1.68
,-9.206,0.414,-3.436,-9.0,-0.701,-3.436,-17.64,18.9,2.03
15370.0,-8.945,-0.821,-3.319,-9.115,-0.589,-2.503,-11.13,23.45,6.23
,-9.031,-0.828,-3.032,-9.06,-0.462,-2.656,-7.91,25.13,7.14
,-9.148,-0.668,-2.603,-8.981,-0.168,-2.804,-5.53,26.95,8.05
,-9.194,-0.663,-2.503,-9.012,0.39,-3.077,-3.08,29.47,8.89
15446.0,-9.11,0.62,-3.508,-8.904,1.079,-3.845,3.5,39.62,10.57
,-8.904,0.407,-3.652,-8.976,1.256,-4.168,1.19,40.88,10.43
,-8.629,0.385,-3.793,-9.055,1.256,-4.618,0.84,42.07,10.5
,-8.784,0.888,-3.807,-9.052,0.861,-5.006,1.96,43.4,10.5
15522.0,-8.789,0.407,-5.482,-9.38,0.17,-4.812,6.44,47.04,7.49
,-8.835,0.026,-5.43,-9.646,0.388,-4.819,9.45,47.25,8.05
,-9.028,-0.012,-5.219,-9.6,0.278,-5.102,13.65,47.67,8.47
,-9.184,0.065,-4.96,-9.703,-0.105,-5.068,16.38,48.23,8.61
15598.0,-9.825,-0.017,-5.135,-11.003,3.118,-3.484,26.53,54.67,7.77
,-10.538,0.318,-5.255,-11.335,4.054,-4.109,30.24,58.24,7.63
,-9.296,-0.467,-4.59,-10.263,-1.316,-3.295,34.79,58.66,8.4
,-9.842,1.244,-4.121,-9.847,-2.85,-2.484,38.08,61.18,7.98
15673.0,-10.177,0.653,-2.737,-9.816,-1.28,-3.582,34.93,76.3,2.1
,-10.313,0.986,-2.941,-10.29,-0.802,-4.042,31.43,80.29,0.7
,-9.947,-0.79,-3.08,-10.091,-1.062,-4.389,21.56,83.79,-2.24
,-9.61,-1.776,-3.276,-9.887,-1.663,-4.403,19.11,87.78,-2.66
15749.0,-9.78,-1.797,-4.238,-9.978,-2.017,-1.749,28.42,101.85,4.41
,-9.828,-1.89,-3.565,-9.983,-1.981,-1.845,35.63,104.86,9.45
,-9.99,-2.06,-2.788,-10.232,-2.082,-2.204,44.66,108.5,15.12
,-10.007,-2.101,-2.209,-9.837,-1.943,-2.931,55.02,112.35,20.79
15824.0,-9.543,-2.223,-4.386,-8.459,1.943,-9.072,106.26,127.82,47.04
,-9.119,-2.072,-5.867,-8.514,2.123,-9.725,120.05,128.59,48.79
,-8.421,-0.665,-6.724,-8.177,2.051,-9.574,131.74,128.03,47.6
,-8.193,0.938,-7.997,-8.148,1.704,-10.038,136.92,126.91,43.68
15900.0,-7.507,1.321,-10.093,-5.922,-0.981,-9.852,48.44,98.0,27.86
,-6.944,0.572,-10.318,-4.257,0.529,-11.749,37.1,85.75,27.02
,-6.229,0.218,-10.031,-3.34,-0.29,-11.498,28.49,74.06,27.72
,-6.056,0.902,-12.589,-3.855,-1.455,-10.467,34.86,63.42,28.14
15976.0,-4.441,-1.608,-10.007,-4.537,-0.447,-8.906,-10.64,-5.6,25.97
,-4.633,-1.22,-9.581,-3.879,-0.828,-9.141,-7.42,-21.84,25.83
,-4.692,-0.842,-9.088,-3.917,-1.491,-8.945,-6.93,-39.55,24.08
,-4.882,-0.565,-9.045,-3.57,-1.429,-8.99,-10.78,-58.17,21.14
16052.0,-3.221,-1.283,-8.892,-3.333,-2.264,-9.134,-21.7,-132.02,18.69
,-3.381,-1.464,-8.978,-3.719,-2.321,-8.997,-24.36,-144.97,17.29
,-3.281,-1.711,-9.043,-4.135,-2.304,-8.734,-25.62,-157.5,15.12
,-3.147,-1.833,-9.328,-4.539,-1.993,-9.045,-23.87,-168.35,13.23
16127.0,-4.57,-1.855,-9.024,-5.48,-0.986,-8.873,-15.54,-206.64,17.5
,-4.92,-1.819,-8.794,-5.755,-0.742,-9.024,-16.03,-211.61,17.85
,-5.126,-1.596,-8.741,-5.724,-0.593,-8.648,-15.96,-216.16,16.1
,-5.255,-1.283,-8.837,-5.846,-0.421,-8.392,-14.7,-219.59,14.35
16203.0,-6.025,-0.208,-8.248,-7.27,-0.768,-6.621,-21.35,-230.72,-1.96
,-6.047,-0.378,-7.877,-7.286,-0.773,-5.712,-24.5,-231.21,-5.67
,-6.37,-0.558,-7.471,-7.782,-0.919,-5.272,-26.04,-231.0,-8.68
,-6.923,-0.653,-7.09,-8.626,-0.938,-4.941,-27.23,-230.44,-12.81
16279.0,-8.906,-1.165,-4.235,-9.129,-2.103,-1.129,-20.37,-212.59,-28.84
,-9.162,-1.484,-3.486,-9.083,-1.594,-1.675,-21.0,-205.94,-30.94
,-9.337,-1.419,-2.929,-8.598,-0.9,-0.658,-20.79,-198.31,-31.15
,-9.328,-1.582,-2.424,-8.126,-0.782,0.672,-21.77,-188.79,-28.98
16355.0,-8.349,-1.45,1.429,-7.959,-2.134,2.455,-31.92,-119.91,-26.04
,-8.227,-1.63,1.912,-8.081,-1.831,1.749,-32.62,-99.61,-25.06
,-8.193,-1.799,2.419,-8.37,-1.266,1.031,-31.57,-78.19,-22.4
,-8.045,-2.06,2.565,-8.725,-0.842,0.191,-29.33,-55.86,-18.9
16431.0,-8.576,-0.517,-0.34,-10.167,-2.063,-2.922,-24.43,39.83,0.91
,-8.457,-0.299,-0.888,-14.948,-6.707,-2.032,-27.51,53.27,2.66
,-8.497,-0.349,-1.429,-16.403,-6.231,1.479,-31.29,64.82,4.41
,-8.792,-0.861,-1.977,-11.431,-0.517,0.069,-33.46,74.83,6.72
16506.0,-9.052,1.067,-0.806,-9.521,-1.335,-2.142,24.36,55.86,13.86
,-10.44,-2.166,-0.826,-10.469,-1.335,-2.118,-0.35,62.16,19.18
,-10.433,-3.422,-1.122,-10.488,0.321,-3.209,2.17,71.05,24.01
,-9.631,-1.953,-1.438,-9.641,2.563,-3.539,19.53,81.27,25.48
16582.0,-8.531,3.872,-4.034,-8.902,-1.625,-4.491,11.83,70.28,17.64
,-8.217,3.151,-4.566,-9.062,-0.835,-4.494,-13.86,66.36,14.42
,-8.634,1.175,-5.176,-9.1,-0.01,-4.252,-33.39,64.33,14.07
,-8.815,-1.094,-5.08,-9.445,0.227,-3.687,-37.59,62.79,14.49
16657.0,-9.761,0.096,-3.412,-9.282,0.218,-2.898,-15.33,48.72,12.6
,-9.634,-0.206,-2.716,-9.239,0.493,-2.876,-17.78,47.39,12.88
,-9.663,-0.244,-2.594,-9.454,0.443,-3.331,-16.03,47.04,12.88
,-9.55,-0.122,-2.797,-9.469,-0.017,-3.611,-11.48,46.62,12.81
16733.0,-9.301,-0.567,-3.594,-9.328,0.517,-4.039,-19.53,38.36,9.73
,-9.165,-0.931,-3.632,-9.217,0.699,-3.872,-15.68,37.24,10.64
,-9.308,-0.462,-3.829,-9.45,0.804,-3.877,-10.5,35.91,10.36
,-9.462,0.223,-4.164,-9.438,0.928,-3.877,-8.26,34.44,10.08
16809.0,-9.296,0.701,-3.721,-9.284,0.103,-3.087,-9.73,25.97,8.96
,-9.316,0.158,-3.513,-9.383,0.223,-2.915,-11.27,24.5,9.17
,-9.428,-0.038,-3.374,-9.395,0.163,-2.831,-9.73,23.8,9.24
,-9.354,0.024,-3.29,-9.469,-0.06,-2.721,-6.79,23.45,9.45
16885.0,-9.619,-0.005,-3.23,-9.088,0.739,-5.37,10.78,24.99,13.3
,-9.5,0.44,-4.171,-8.954,0.979,-5.307,16.03,24.64,12.88
,-9.155,0.503,-4.872,-9.21,0.94,-4.968,18.13,23.45,12.46
,-9.076,0.337,-5.25,-9.316,0.921,-4.695,18.48,21.21,11.2
16960.0,-9.268,0.988,-4.396,-9.385,0.426,-2.898,13.72,9.1,6.93
,-9.139,0.895,-4.087,-9.351,0.093,-3.058,10.5,7.98,6.02
,-9.194,0.57,-3.594,-9.49,-0.282,-3.18,7.56,7.14,5.6
,-9.363,0.337,-3.065,-9.213,-0.438,-3.199,6.86,6.79,5.6
17036.0,-9.277,-0.225,-3.352,-9.139,0.414,-3.57,8.05,10.22,3.22
,-9.258,0.067,-3.238,-9.258,0.471,-3.498,11.2,10.92,4.55
,-9.373,0.201,-3.508,-9.258,0.495,-3.463,13.86,10.99,5.53
,-9.229,0.402,-3.558,-9.45,0.759,-3.29,15.47,11.48,6.51
17111.0,-9.292,1.184,-3.472,-9.131,0.019,-3.096,14.84,11.9,3.85
,-9.27,0.936,-3.436,-9.198,-0.026,-3.159,10.01,11.62,2.66
,-9.251,0.503,-3.223,-9.445,0.404,-3.419,8.05,11.62,2.59
,-9.208,0.313,-3.331,-9.277,0.34,-3.656,9.1,11.9,2.17
17187.0,-9.072,-0.141,-3.616,-9.256,0.742,-4.338,14.77,14.63,3.5
,-9.012,-0.318,-3.518,-8.938,0.361,-4.281,17.85,14.84,4.2
,-9.217,0.069,-3.609,-8.859,-0.026,-4.314,22.4,15.26,4.06
,-9.292,0.656,-3.912,-9.143,-0.29,-4.355,24.71,15.19,3.57
17263.0,-9.103,-0.225,-4.267,-9.112,0.857,-4.159,24.43,12.6,3.36
,-9.119,-0.01,-4.188,-9.165,0.266,-4.123,25.48,12.39,3.64
,-9.182,0.383,-4.123,-8.973,-0.644,-3.987,25.55,12.39,3.15
,-9.184,0.718,-4.152,-8.847,-0.936,-3.826,23.66,11.62,2.1
17339.0,-9.086,-0.483,-3.905,-8.916,0.603,-4.594,33.95,12.74,4.55
,-9.04,0.022,-3.994,-8.933,0.507,-4.59,36.96,12.74,4.27
,-9.141,0.342,-4.109,-8.945,-0.201,-4.417,36.96,12.74,3.71
,-9.069,0.558,-4.405,-8.966,-0.412,-4.312,35.28,12.81,2.8
17415.0,-9.019,-0.211,-4.566,-8.748,-0.278,-4.47,44.38,12.6,3.78
,-8.995,0.33,-4.793,-8.691,-0.749,-4.231,46.69,11.83,3.29
,-8.875,0.591,-4.776,-8.873,-0.905,-4.101,45.99,11.2,2.59
,-8.909,0.548,-4.745,-8.928,-0.4,-3.97,44.31,11.27,2.03
17490.0,-9.009,0.244,-3.8,-9.689,2.749,-4.793,65.24,15.75,4.62
,-9.268,1.012,-3.865,-9.347,2.221,-4.996,66.29,16.31,3.57
,-9.624,1.804,-4.312,-9.081,1.204,-5.051,63.21,14.84,1.19
,-9.923,2.347,-4.671,-8.985,0.677,-5.042,55.93,11.97,-2.03
17566.0,-9.009,0.476,-5.063,-8.882,-1.63,-4.159,35.28,4.34,-6.93
,-9.086,0.029,-4.977,-8.899,-2.209,-4.039,33.88,2.94,-7.14
,-8.964,-0.591,-4.556,-8.926,-2.431,-3.944,31.78,2.03,-7.21
,-8.897,-1.024,-4.336,-9.026,-2.302,-4.042,30.1,1.75,-7.14
17642.0,-9.112,-1.912,-4.188,-9.136,-1.077,-4.709,42.63,5.04,-1.82
,-9.081,-1.687,-4.396,-9.005,-0.926,-4.707,45.43,5.53,-1.12
,-9.105,-1.445,-4.405,-9.019,-0.876,-4.788,46.69,5.81,-0.21
,-9.15,-1.242,-4.499,-9.079,-1.07,-4.745,47.88,6.3,0.91
17718.0,-8.902,-1.335,-4.776,-9.11,-1.003,-4.853,54.74,3.99,3.5
,-8.971,-1.39,-4.645,-9.182,-1.122,-4.697,57.26,3.57,4.13
,-8.918,-1.323,-4.75,-9.002,-1.785,-5.214,59.78,2.8,4.34
,-8.947,-1.017,-4.905,-8.593,-2.24,-3.869,60.55,1.96,3.78
17793.0,-9.05,0.057,-3.556,-8.78,-1.285,-4.348,67.97,-0.14,19.04
,-9.148,1.589,-3.927,-8.911,0.172,-4.673,70.28,0.98,21.98
,-8.476,-0.361,-4.034,-8.787,0.325,-4.535,66.43,2.38,20.09
,-8.196,-1.929,-4.118,-8.409,-0.519,-4.159,72.52,3.08,21.84
17869.0,-8.483,-1.225,-3.996,-8.636,-2.321,-3.977,58.94,-1.75,21.49
,-8.648,-1.761,-3.951,-8.54,-2.213,-4.097,60.2,-1.12,22.82
,-8.698,-2.295,-3.886,-8.509,-2.19,-4.252,64.33,-0.21,24.08
,-8.617,-2.295,-3.917,-8.583,-2.089,-4.575,71.19,0.56,25.83
17944.0,-8.854,-1.809,-4.829,-8.839,0.273,-4.63,106.75,6.16,46.55
,-9.074,-1.627,-5.047,-8.76,0.553,-4.491,114.66,6.09,50.61
,-8.926,-1.019,-4.91,-8.66,0.581,-4.357,122.78,6.16,54.6
,-8.854,-0.373,-4.326,-8.744,0.287,-4.137,128.52,5.81,57.19
18020.0,-8.571,-0.476,-4.022,-8.536,-2.661,-4.212,104.65,0.42,54.95
,-8.361,-1.529,-3.798,-8.789,-2.503,-4.422,101.71,0.63,54.6
,-8.337,-2.355,-3.802,-8.921,-2.369,-4.477,104.51,1.47,55.37
,-8.378,-2.67,-3.977,-8.815,-1.893,-4.647,112.35,2.8,57.54
18096.0,-8.708,-1.658,-4.527,-8.634,-0.608,-4.073,152.11,8.54,71.82
,-8.811,-1.292,-4.13,-8.784,-0.785,-3.948,155.89,8.47,73.01
,-8.835,-1.005,-4.168,-8.914,-0.818,-3.891,156.73,7.91,72.52
,-8.705,-0.742,-4.056,-9.148,-0.613,-3.676,155.54,7.7,71.54
18172.0,-9.287,-0.282,-3.987,-8.882,-1.323,-3.637,145.46,9.1,65.66
,-9.115,-0.412,-3.951,-9.012,-1.206,-3.506,138.11,8.82,63.28
,-8.909,-0.73,-3.802,-9.038,-0.885,-3.403,131.6,8.26,61.18
,-8.765,-1.034,-3.695,-9.076,-0.665,-3.19,127.61,8.05,59.22
18248.0,-9.095,-0.431,-3.041,-9.098,-1.747,-3.118,116.27,12.6,48.72
,-8.997,-0.603,-2.766,-9.268,-1.85,-3.357,110.74,13.58,46.62
,-8.954,-1.07,-2.773,-9.244,-1.651,-3.501,106.26,14.63,45.5
,-9.005,-1.429,-2.891,-9.194,-1.139,-3.85,104.72,16.1,45.85
18323.0,-9.27,-0.926,-3.934,-9.148,-0.117,-4.245,124.32,21.42,54.74
,-9.387,-0.751,-4.061,-9.256,-0.105,-4.348,127.05,21.49,55.65
,-9.256,-0.503,-4.235,-9.27,-0.424,-4.269,128.94,21.14,56.0
,-9.194,-0.254,-4.274,-9.225,-0.639,-4.142,129.08,20.51,55.93
18399.0,-9.21,-0.725,-3.845,-9.174,-0.029,-3.699,121.17,14.28,55.23
,-9.107,-0.519,-3.857,-9.167,-0.156,-3.625,121.66,13.02,55.44
,-9.033,-0.278,-3.836,-9.088,-0.086,-3.472,121.87,12.11,55.37
,-9.105,-0.069,-3.812,-9.019,0.024,-3.534,121.24,11.06,54.74
18475.0,-9.246,0.005,-3.609,-9.351,0.168,-3.52,110.74,4.9,47.81
,-9.284,0.034,-3.551,-9.306,0.17,-3.465,109.13,3.64,46.9
,-9.296,0.168,-3.417,-9.222,0.244,-3.422,107.45,2.45,45.99
,-9.323,0.263,-3.515,-9.196,0.352,-3.228,105.21,1.4,44.45
18551.0,-9.323,0.493,-3.245,-9.33,-0.325,-2.754,94.22,-3.85,37.1
,-9.294,0.452,-3.005,-9.275,-0.182,-2.733,89.88,-4.27,35.07
,-9.225,0.354,-2.876,-9.356,0.06,-2.668,85.75,-4.13,33.88
,-9.313,-0.072,-2.766,-9.361,0.419,-2.819,82.88,-3.36,33.95
18626.0,-9.359,0.598,-2.989,-9.263,0.218,-3.345,84.91,1.68,36.75
,-9.249,0.469,-3.101,-9.27,0.397,-3.396,83.72,2.31,37.03
,-9.196,0.342,-3.089,-9.22,0.608,-3.357,83.51,2.59,37.31
,-9.16,0.275,-3.295,-9.304,0.589,-3.273,84.0,2.45,37.38
18702.0,-9.17,0.67,-3.199,-9.007,0.735,-2.819,81.76,2.03,36.75
,-9.139,0.672,-3.128,-8.909,0.897,-2.938,80.01,2.52,36.47
,-9.172,0.598,-2.977,-9.064,1.115,-3.065,78.75,3.5,36.61
,-9.158,0.651,-2.855,-9.122,1.275,-3.202,77.14,4.34,36.68
18777.0,-9.232,1.316,-3.338,-9.639,2.374,-3.597,60.76,10.92,35.42
,-9.438,1.742,-3.451,-9.351,1.316,-3.333,55.09,10.22,33.53
,-9.653,2.228,-3.594,-9.253,0.373,-2.881,45.78,7.49,29.96
,-9.88,2.391,-3.472,-9.045,0.144,-2.761,32.62,2.94,24.15
18853.0,-9.026,-0.034,-2.766,-9.366,-0.524,-3.132,-8.54,-4.69,5.67
,-9.16,-0.108,-2.979,-9.71,-0.469,-3.104,-10.78,-0.84,3.5
,-9.158,-0.364,-3.132,-10.223,-0.373,-3.005,-12.88,3.22,2.17
,-9.124,-0.622,-2.907,-10.689,-0.529,-2.682,-13.09,6.79,1.82
18929.0,-10.715,-0.713,-2.474,-9.091,-0.57,-3.096,-17.71,12.11,0.63
,-10.443,-0.775,-2.094,-8.988,-0.505,-3.623,-17.22,13.09,1.47
,-10.007,-0.694,-2.534,-8.861,-0.333,-3.805,-15.61,14.21,1.33
,-9.536,-0.751,-2.998,-8.866,-0.179,-4.085,-14.0,15.4,1.26
19005.0,-8.813,-0.433,-4.381,-9.249,0.751,-4.374,1.4,18.83,5.81
,-8.672,-0.797,-4.279,-9.258,1.431,-4.547,6.16,18.55,8.96
,-8.717,-0.361,-3.989,-9.119,1.864,-4.326,14.42,18.48,11.76
,-9.009,0.299,-4.36,-9.093,1.606,-4.113,19.88,18.2,12.18
19080.0,-9.105,1.18,-3.915,-8.964,-0.926,-2.974,-11.83,12.32,3.85
,-9.05,0.737,-3.585,-9.081,-1.204,-3.202,-16.52,12.46,3.71
,-9.007,0.297,-3.295,-9.067,-1.369,-3.453,-18.69,12.67,4.2
,-9.024,-0.313,-3.132,-9.009,-1.22,-3.831,-19.04,13.3,4.97
19156.0,-9.067,-0.467,-4.604,-8.567,0.933,-6.382,12.11,19.6,16.59
,-8.997,0.318,-5.173,-8.466,0.589,-6.358,17.5,19.46,17.64
,-8.964,0.921,-5.614,-8.638,0.574,-5.999,19.18,18.27,17.99
,-8.875,1.082,-6.181,-8.801,0.928,-5.834,19.04,15.89,18.06
19231.0,-8.801,1.256,-5.197,-9.265,-0.505,-2.726,23.73,5.18,19.74
,-8.878,0.713,-4.738,-9.684,-0.213,-2.242,17.57,3.99,20.09
,-8.837,-0.278,-4.046,-9.95,0.27,-1.95,15.96,3.78,21.98
,-9.129,-0.833,-3.419,-10.342,0.491,-2.192,20.58,4.69,23.38
19307.0,-9.928,1.089,-2.4,-8.428,0.677,-5.863,36.89,14.84,21.56
,-9.557,1.213,-3.029,-7.466,1.567,-7.021,35.28,15.89,20.79
,-9.301,0.23,-3.711,-7.188,1.766,-7.607,35.35,17.43,21.84
,-8.866,0.034,-4.499,-7.363,2.168,-8.086,44.87,18.34,24.22
19383.0,-7.516,2.532,-7.734,-9.019,3.343,-4.614,47.39,5.18,23.73
,-8.016,2.376,-6.872,-9.21,3.269,-4.123,40.39,1.96,20.79
,-8.399,3.175,-6.092,-9.172,3.25,-3.805,34.86,-0.91,16.52
,-8.67,3.594,-5.243,-9.318,3.005,-3.625,26.32,-2.94,11.9
19459.0,-9.541,3.271,-3.726,-8.454,-1.457,-5.099,-2.94,-4.41,-5.88
,-8.528,3.64,-3.812,-7.961,-3.819,-5.104,-16.1,-5.46,-12.74
,-8.246,2.034,-4.018,-8.595,-2.797,-5.147,-33.6,-5.6,-18.41
,-8.502,0.395,-4.542,-8.911,-0.081,-5.02,-43.68,-5.46,-20.51
19535.0,-9.239,1.352,-5.166,-8.576,0.409,-4.386,3.15,-1.82,-2.59
,-9.232,1.441,-5.169,-9.115,1.452,-4.147,-4.76,-3.29,-4.62
,-8.804,0.84,-4.98,-9.421,1.859,-3.996,-10.36,-4.41,-5.04
,-8.591,0.182,-4.829,-8.961,0.617,-3.676,-7.56,-4.83,-3.85
19610.0,-8.717,-0.026,-3.321,-9.072,0.426,-3.388,-3.57,-4.62,-1.68
,-8.902,0.041,-3.386,-9.158,0.531,-3.472,1.75,-3.22,-0.42
,-8.983,0.184,-3.453,-9.026,0.464,-3.393,5.46,-1.96,0.56
,-9.028,0.364,-3.494,-9.04,0.739,-3.62,7.21,-0.7,1.61
19686.0,-9.136,1.311,-4.159,-8.866,0.648,-4.166,5.04,3.15,0.98
,-8.918,1.225,-4.365,-8.83,0.419,-3.683,2.38,3.08,0.7
,-8.725,0.675,-4.477,-8.976,0.383,-3.396,1.33,3.22,1.33
,-8.815,0.562,-4.326,-9.153,0.615,-3.192,3.85,3.85,2.38
19762.0,-9.227,0.68,-3.245,-8.705,0.625,-3.424,3.64,7.77,4.06
,-8.882,0.613,-3.295,-8.966,0.601,-3.264,1.75,9.38,4.2
,-8.916,0.555,-3.451,-9.1,0.404,-3.257,2.24,10.71,4.62
,-8.825,0.591,-3.47,-9.057,0.141,-3.501,1.75,11.76,4.55
19838.0,-8.935,0.237,-3.991,-8.813,0.529,-4.647,-1.61,18.48,4.48
,-8.737,0.541,-4.35,-8.806,0.512,-4.578,0.56,19.39,5.18
,-8.433,0.524,-4.585,-8.827,0.615,-4.547,0.77,20.02,5.88
,-8.576,0.34,-4.616,-8.763,0.826,-4.695,1.82,20.37,6.37
19913.0,-8.464,0.826,-4.702,-8.705,0.261,-4.207,11.13,22.68,9.8
,-8.445,0.536,-4.585,-8.732,0.203,-4.257,11.69,23.24,10.43
,-8.763,0.598,-4.487,-8.729,0.491,-4.506,12.18,23.66,10.92
,-8.837,0.436,-4.319,-8.681,0.589,-4.743,13.44,24.5,11.76
19989.0,-8.16,1.022,-4.891,-8.681,1.031,-5.281,16.87,28.14,13.79
,-8.272,0.948,-5.051,-8.562,1.244,-5.377,14.21,28.42,13.44
,-8.54,0.955,-5.126,-8.528,1.323,-5.575,13.44,28.21,13.02
,-8.626,0.948,-5.126,-8.478,1.168,-5.779,14.56,28.49,13.37
20064.0,-8.351,0.629,-6.018,-8.89,0.78,-5.597,18.69,28.35,15.33
,-8.469,0.134,-5.966,-8.806,0.955,-5.518,21.42,28.56,16.31
,-8.775,0.244,-5.822,-8.643,0.759,-5.42,26.46,29.05,17.43
,-8.94,0.646,-5.702,-8.521,0.347,-5.449,29.68,29.4,17.99
20140.0,-8.318,0.713,-5.066,-8.591,2.103,-5.86,31.36,32.2,21.21
,-9.529,2.522,-5.162,-8.945,0.833,-5.932,37.73,32.97,22.19
,-7.885,0.493,-5.138,-8.897,0.488,-6.09,34.72,34.44,19.81
,-8.636,1.589,-5.449,-9.249,0.771,-6.068,35.42,34.79,17.5
20216.0,-9.746,1.799,-5.896,-9.244,-1.077,-4.771,28.77,37.1,11.27
,-10.323,2.199,-5.705,-9.17,-0.455,-4.893,28.0,38.22,9.73
,-10.069,0.938,-5.487,-9.036,-0.467,-4.745,23.17,39.13,8.26
,-9.44,-0.732,-5.209,-8.794,-0.56,-4.515,22.68,41.02,8.89
20292.0,-8.765,-0.323,-4.556,-9.155,0.479,-4.372,41.09,52.99,15.33
,-8.782,0.041,-4.518,-9.033,-0.239,-4.087,42.21,55.37,15.68
,-8.973,0.596,-4.491,-9.012,-0.699,-3.721,43.4,57.61,15.47
,-9.162,0.83,-4.46,-9.277,-0.912,-3.446,42.63,59.43,14.84
20368.0,-9.531,-1.165,-3.147,-9.622,-1.974,-2.962,47.67,75.25,25.27
,-9.529,-1.424,-2.994,-9.809,-1.785,-3.305,53.97,79.94,29.4
,-9.385,-1.709,-2.922,-9.895,-1.586,-3.865,62.37,84.77,33.6
,-9.545,-2.041,-2.907,-9.72,-0.988,-3.905,73.36,89.74,38.08
20443.0,-9.536,0.043,-4.97,-9.442,0.818,-6.805,124.95,110.67,52.22
,-9.206,0.447,-6.059,-9.88,0.51,-7.698,119.14,113.96,50.61
,-8.875,0.967,-7.119,-9.407,-0.057,-7.985,108.64,117.95,48.58
,-8.954,1.07,-7.243,-9.04,-0.4,-8.48,95.76,122.64,47.04
20519.0,-8.906,-0.684,-8.997,-6.054,-1.658,-10.359,31.78,98.63,40.04
,-8.528,-0.816,-9.598,-5.221,-1.464,-10.531,22.05,85.47,39.41
,-8.222,-0.998,-9.904,-4.223,-2.034,-10.33,14.77,71.4,41.16
,-7.37,-1.491,-10.294,-5.566,-2.333,-9.229,7.84,56.49,42.98
20595.0,-6.638,-1.718,-8.928,-4.659,0.0,-9.158,35.77,6.44,50.61
,-6.224,-1.4,-8.88,-4.312,-0.704,-9.368,45.78,-12.11,50.96
,-5.75,-0.507,-8.741,-3.953,-1.266,-9.208,50.68,-29.61,50.4
,-5.451,0.239,-9.002,-3.977,-1.697,-9.031,46.48,-47.39,52.01
20671.0,-4.228,-2.158,-8.82,-4.7,-2.096,-8.629,4.69,-122.78,56.07
,-4.52,-2.52,-8.536,-4.621,-1.527,-8.655,2.45,-136.43,52.36
,-4.463,-2.788,-8.366,-4.494,-1.211,-8.715,5.95,-149.66,49.84
,-4.604,-2.685,-8.325,-4.58,-0.962,-8.705,16.66,-161.21,48.37
20746.0,-4.453,-0.699,-8.624,-4.769,-0.16,-8.856,25.83,-207.41,44.45
,-4.542,-0.519,-8.638,-5.095,-0.093,-8.454,19.67,-214.9,42.7
,-4.63,-0.416,-8.964,-5.245,-0.208,-8.354,13.44,-223.02,38.92
,-4.52,-0.347,-9.045,-5.339,-0.5,-8.366,10.5,-228.69,34.65
20822.0,-5.8,-0.809,-7.81,-8.193,0.548,-6.004,0.84,-252.98,5.39
,-6.356,-0.586,-7.222,-8.387,0.285,-5.226,5.25,-254.31,-1.05
,-6.961,-0.158,-6.573,-8.442,-0.366,-4.575,7.7,-253.54,-7.21
,-7.253,0.213,-6.356,-8.792,-0.995,-4.094,4.9,-252.14,-13.23
20897.0,-9.435,-1.783,-2.974,-9.361,-1.201,-1.567,-28.35,-224.21,-36.33
,-9.196,-2.273,-2.312,-8.658,-0.885,-1.496,-24.43,-213.85,-37.8
,-9.107,-2.13,-1.957,-8.6,-1.546,-0.653,-20.16,-201.88,-37.31
,-9.282,-1.596,-1.531,-8.536,-1.855,-0.225,-15.05,-188.65,-35.28
20973.0,-8.318,-1.668,0.617,-8.033,-0.225,1.426,-22.05,-110.39,-23.45
,-8.402,-1.041,1.646,-8.131,-0.4,1.029,-17.78,-91.49,-19.95
,-8.387,0.024,1.529,-8.155,-0.459,0.658,-20.72,-71.19,-19.88
,-8.172,0.311,1.393,-8.002,-0.11,0.0,-29.96,-49.21,-19.18
21049.0,-7.827,0.412,-0.715,-8.794,-2.266,-4.558,-53.9,55.44,-5.46
,-7.653,0.57,-1.474,-16.475,-10.156,-2.728,-59.64,71.54,-4.41
,-7.394,0.175,-2.237,-19.761,-10.261,5.939,-63.98,86.17,-2.31
,-7.545,-0.493,-3.135,-13.049,-2.357,-0.397,-65.03,98.63,1.4
21125.0,-9.543,0.629,-1.878,-7.751,-2.134,-2.266,64.19,71.4,24.22
,-9.806,-0.998,0.297,-9.742,-0.488,-2.051,34.79,77.0,31.29
,-11.254,-2.907,-2.529,-10.809,2.525,-3.709,18.34,82.88,29.75
,-8.466,-2.685,-3.357,-9.007,5.001,-5.331,17.78,90.72,28.63
21200.0,-6.832,4.652,-6.291,-8.909,-0.462,-5.951,-9.24,85.82,16.03
,-6.947,2.539,-6.296,-8.792,-0.842,-5.274,-37.66,81.13,10.36
,-8.442,0.455,-6.09,-9.483,-0.608,-4.582,-48.79,76.58,6.86
,-9.383,-0.22,-6.482,-10.273,0.093,-4.243,-46.2,72.31,4.34
21276.0,-9.739,0.543,-3.975,-9.244,-0.306,-3.458,-9.38,54.04,17.57
,-8.954,0.127,-3.896,-9.136,0.235,-3.07,-2.03,52.5,20.09
,-8.768,-0.452,-3.979,-9.38,0.548,-2.931,9.45,51.1,23.38
,-8.945,-0.639,-3.829,-9.746,1.273,-3.573,17.57,49.21,25.69
21352.0,-9.631,1.668,-3.685,-9.095,0.857,-3.826,-12.04,43.19,12.25
,-9.366,1.409,-3.824,-9.411,1.634,-3.96,-16.87,41.86,12.04
,-9.186,0.893,-3.819,-9.428,2.139,-4.135,-14.35,39.97,12.04
,-9.012,0.632,-3.958,-9.203,1.455,-3.953,-5.32,38.71,13.93
21428.0,-9.241,0.213,-3.841,-9.002,0.725,-4.561,-14.42,31.71,7.84
,-9.301,-0.139,-4.08,-9.012,0.718,-4.525,-12.11,31.57,6.37
,-9.249,0.546,-4.336,-9.217,0.907,-4.606,-6.23,31.01,5.67
,-9.124,0.933,-4.547,-9.103,1.055,-4.405,-3.22,29.96,5.6
21504.0,-9.062,0.983,-4.568,-9.155,0.459,-4.314,-0.84,24.01,4.13
,-8.949,0.684,-4.547,-9.072,0.218,-4.118,-4.13,22.89,3.29
,-8.976,0.45,-4.42,-9.021,0.089,-3.869,-6.58,21.91,2.73
,-9.165,0.445,-4.365,-9.091,0.206,-3.728,-8.26,20.79,1.96
21579.0,-9.048,0.282,-3.489,-9.127,-0.498,-3.092,-12.67,19.25,2.59
,-9.189,0.163,-3.374,-9.019,-0.373,-3.061,-13.72,20.09,2.45
,-9.237,-0.144,-3.216,-9.024,0.218,-3.139,-13.72,21.21,2.24
,-9.239,-0.38,-3.116,-9.208,0.605,-3.372,-12.6,22.89,2.59
21655.0,-9.17,0.739,-3.611,-8.813,0.268,-4.145,-7.35,30.03,3.43
,-8.981,0.615,-3.8,-8.794,0.794,-4.25,-10.15,30.73,3.29
,-8.938,0.261,-3.936,-8.636,1.012,-4.274,-10.92,31.36,3.29
,-8.83,0.213,-4.034,-8.813,0.967,-4.082,-8.96,32.13,3.99
21731.0,-8.77,0.718,-4.039,-8.871,-0.022,-4.602,-10.64,33.6,4.48
,-8.815,0.574,-4.183,-9.045,-0.086,-4.75,-11.06,34.16,4.41
,-8.78,0.412,-4.355,-9.095,-0.163,-4.98,-11.83,34.93,4.76
,-8.777,0.122,-4.48,-9.105,-0.227,-5.207,-12.25,35.91,5.25
21807.0,-8.969,-0.383,-5.061,-9.124,1.216,-4.523,3.15,40.6,8.26
,-8.923,0.014,-4.999,-9.16,1.058,-4.487,8.05,41.51,8.96
,-8.964,0.445,-4.779,-9.203,0.838,-4.547,11.76,42.28,8.96
,-9.15,0.95,-4.654,-9.191,0.816,-4.625,13.02,43.33,8.12
21882.0,-9.454,0.785,-4.587,-9.605,0.634,-4.625,16.94,48.58,6.37
,-9.505,0.684,-4.764,-9.521,0.531,-4.688,18.2,50.68,6.37
,-9.631,0.476,-4.434,-9.588,0.311,-4.637,23.31,52.22,6.37
,-9.524,0.718,-4.468,-9.557,0.041,-4.525,26.04,54.25,6.37
21958.0,-9.679,0.069,-4.348,-9.574,-3.065,-3.175,31.22,65.17,3.36
,-10.163,1.321,-4.039,-10.072,-1.5,-2.639,35.07,67.83,1.89
,-11.184,3.077,-4.494,-10.538,0.325,-2.501,32.41,69.72,-2.94
,-10.799,0.129,-4.123,-10.66,-0.357,-2.513,17.99,71.61,-7.0
22033.0,-10.213,-2.044,-2.374,-11.414,-2.228,-0.845,22.82,93.59,-1.26
,-10.203,-2.324,-2.209,-11.572,-2.443,-0.397,26.88,98.98,2.03
,-10.598,-1.625,-2.091,-11.457,-1.89,-0.431,36.47,104.58,5.53
,-11.125,-1.606,-1.426,-11.306,-1.251,-1.015,44.31,110.25,8.82
22109.0,-10.849,-0.732,-1.821,-8.775,0.507,-7.734,82.81,134.96,30.94
,-10.311,-0.522,-3.041,-9.361,1.254,-8.981,89.39,136.99,31.85
,-9.548,-0.335,-5.075,-9.698,1.493,-9.718,90.02,138.32,29.68
,-8.746,-0.084,-6.092,-9.71,1.857,-10.926,88.62,140.21,25.83
22185.0,-9.447,2.28,-10.55,-6.753,0.541,-10.837,62.93,122.22,11.83
,-8.282,2.486,-10.211,-5.741,0.325,-11.51,44.03,109.06,12.04
,-7.703,1.864,-9.864,-4.623,0.05,-11.785,29.33,94.08,12.39
,-7.382,1.036,-10.34,-4.011,-0.775,-11.9,13.02,77.07,10.78
22261.0,-4.07,-0.948,-11.376,-5.494,-0.83,-9.282,-19.39,12.67,8.33
,-4.953,-1.22,-10.584,-5.02,-0.605,-9.395,-16.73,-1.89,9.66
,-5.272,-1.249,-9.995,-4.176,-0.488,-9.167,-12.88,-18.62,11.41
,-5.54,-1.012,-9.6,-3.743,-0.804,-9.098,-9.73,-36.33,10.43
22337.0,-3.448,-0.622,-9.06,-3.178,-1.883,-9.014,-12.25,-123.76,15.4
,-3.125,-0.656,-9.289,-3.209,-2.536,-8.844,-14.98,-137.55,12.67
,-2.996,-0.945,-9.127,-3.558,-2.644,-8.945,-18.55,-149.17,11.83
,-2.888,-1.548,-8.949,-3.774,-2.008,-8.691,-21.63,-159.46,12.18
22412.0,-4.101,-1.354,-9.014,-4.408,-1.089,-8.906,3.15,-209.51,12.95
,-4.156,-0.794,-9.069,-4.733,-1.034,-8.629,-1.05,-218.82,12.67
,-4.039,-0.591,-9.294,-5.047,-0.57,-8.729,-6.86,-226.38,12.95
,-4.094,-0.797,-9.335,-5.147,-0.246,-8.835,-11.62,-231.49,12.67
22488.0,-5.039,-0.29,-8.502,-6.65,0.093,-7.607,-6.02,-251.09,0.77
,-5.221,-0.299,-7.932,-6.815,-0.012,-7.466,-3.36,-251.51,-2.1
,-5.994,-0.156,-7.87,-6.868,-0.108,-6.435,-0.98,-252.84,-5.32
,-6.315,-0.022,-7.959,-6.729,-0.857,-4.901,-2.24,-254.03,-7.77
22564.0,-6.889,-1.46,-3.845,-9.347,0.644,-2.663,-26.04,-236.39,-20.58
,-7.641,-1.706,-2.85,-8.88,0.11,-1.491,-16.87,-225.75,-22.68
,-8.945,-0.802,-2.405,-8.715,-0.404,-1.546,-3.15,-213.99,-24.92
,-8.995,0.313,-2.675,-8.533,-1.065,-1.17,-0.7,-201.88,-27.72
22640.0,-8.564,-2.144,-0.304,-8.279,-1.912,1.261,-59.85,-126.91,-32.76
,-8.631,-2.692,0.244,-8.263,-1.106,0.964,-58.17,-105.77,-27.65
,-8.248,-2.477,0.637,-8.26,-0.567,0.464,-51.38,-83.58,-22.61
,-8.155,-2.611,1.357,-8.181,-0.514,0.105,-44.45,-60.34,-17.78
22715.0,-8.145,-0.469,-0.33,-11.474,-4.125,-4.53,-35.49,55.3,1.33
,-8.066,-0.041,-0.955,-20.658,-12.9,6.265,-38.01,73.15,4.41
,-7.997,-0.019,-1.931,-17.253,-5.843,2.757,-41.72,88.69,6.3
,-8.141,-0.483,-2.905,-10.558,0.304,-1.713,-45.15,101.36,8.75
22791.0,-9.16,-0.637,-0.302,-7.964,-0.598,-3.125,31.43,82.53,25.13
,-10.105,-2.747,-2.075,-10.321,1.309,-3.494,9.8,86.73,27.16
,-8.815,-2.486,-3.932,-10.239,3.795,-4.934,10.08,93.03,22.54
,-7.124,-1.065,-4.087,-8.263,4.642,-6.858,19.18,97.79,24.01
22866.0,-6.927,3.118,-7.174,-9.38,0.062,-4.855,-30.94,86.38,11.48
,-7.724,0.555,-6.588,-10.017,1.103,-4.326,-44.31,84.77,10.01
,-8.985,-1.029,-5.774,-10.024,0.979,-4.006,-40.6,79.52,8.82
,-9.153,-1.122,-5.312,-9.203,0.584,-4.219,-26.11,73.64,8.61
22942.0,-8.423,-0.354,-4.3,-9.136,1.737,-4.003,-3.01,58.31,23.03
,-8.6,-0.873,-4.575,-9.383,1.182,-4.173,10.5,55.72,25.27
,-9.497,0.062,-4.566,-9.256,0.529,-4.078,17.92,52.71,22.89
,-9.064,1.67,-4.314,-9.064,-0.146,-3.91,11.69,49.77,19.67
23018.0,-9.119,-0.715,-3.714,-9.34,1.522,-4.525,-23.24,40.74,9.17
,-9.227,-0.782,-3.74,-9.131,1.704,-4.616,-11.9,40.25,11.76
,-9.407,-0.261,-3.893,-9.117,1.225,-4.688,1.12,39.97,14.0
,-9.485,0.792,-4.214,-9.117,0.483,-4.645,10.92,39.13,15.33
23094.0,-9.005,-0.031,-4.525,-9.136,1.287,-4.044,-0.14,31.22,10.99
,-9.311,0.108,-4.448,-9.11,1.089,-3.948,7.07,30.59,11.27
,-9.435,0.613,-4.317,-9.127,0.871,-3.991,13.02,29.89,10.78
,-9.399,1.225,-4.271,-9.191,0.675,-3.905,14.35,28.77,10.01
23169.0,-9.189,0.739,-3.984,-9.091,1.709,-3.829,3.29,24.29,5.39
,-9.088,0.857,-3.884,-8.99,1.606,-3.798,0.7,23.87,4.48
,-9.048,1.015,-3.786,-9.002,1.022,-3.91,-2.94,23.1,3.64
,-9.072,1.249,-3.817,-8.983,0.342,-3.963,-7.14,22.26,2.17
23245.0,-8.957,0.014,-4.161,-9.028,-0.024,-4.154,-27.86,21.63,-2.52
,-8.868,-0.17,-4.281,-9.079,-0.069,-3.991,-24.43,22.47,-2.03
,-8.839,-0.141,-4.255,-8.976,0.034,-3.905,-21.28,23.17,-1.19
,-8.969,-0.146,-4.228,-9.06,-0.012,-3.783,-19.04,23.73,-0.84
23320.0,-8.964,0.203,-3.589,-8.93,-0.294,-2.838,-20.44,26.53,-1.89
,-8.887,0.486,-3.408,-8.82,-0.172,-2.855,-20.16,27.58,-1.47
,-9.05,0.462,-3.185,-9.148,0.014,-3.068,-20.44,28.49,-1.4
,-9.064,-0.172,-3.072,-9.014,0.273,-3.699,-20.79,29.96,-0.56
23396.0,-8.933,-0.168,-4.042,-8.832,0.914,-5.657,-10.92,40.46,1.61
,-8.789,-0.462,-4.417,-8.866,0.5,-5.571,-7.91,41.79,2.52
,-8.76,-0.175,-4.882,-8.993,0.146,-5.355,-1.96,42.98,3.15
,-8.825,0.524,-5.312,-9.05,0.481,-5.489,2.73,43.68,3.22
23472.0,-9.052,0.646,-5.422,-9.648,0.019,-4.164,9.17,43.33,4.13
,-9.124,0.646,-5.169,-10.024,0.12,-3.845,7.84,43.82,4.13
,-9.244,0.218,-4.826,-9.536,0.447,-3.91,8.47,44.52,3.85
,-9.452,0.053,-4.489,-10.098,0.043,-3.415,12.74,45.92,3.92
23548.0,-9.758,0.656,-3.297,-11.567,3.266,-3.486,24.08,60.41,2.17
,-10.172,0.093,-3.252,-11.907,0.883,-3.34,25.62,64.26,1.61
,-10.06,-0.072,-3.046,-10.522,-3.453,-2.209,28.63,68.6,1.47
,-10.299,0.402,-2.934,-10.462,-2.644,-1.701,32.41,73.01,1.33
23624.0,-10.591,-0.708,-1.732,-10.68,-2.592,-2.276,42.42,98.14,1.68
,-10.526,-1.201,-1.95,-11.113,-2.589,-1.582,37.73,103.32,0.77
,-10.244,-2.273,-2.364,-11.529,-2.304,-1.058,33.11,108.71,0.7
,-10.287,-2.592,-2.642,-11.687,-2.161,-0.802,32.9,113.89,3.22
23699.0,-11.732,-2.022,-1.254,-9.464,-0.586,-6.006,71.96,140.35,25.48
,-11.015,-1.744,-1.61,-9.031,0.012,-7.638,79.31,143.08,31.29
,-10.605,-1.35,-2.35,-8.54,0.66,-7.473,87.92,145.11,35.63
,-10.029,-1.113,-3.977,-9.402,1.754,-10.775,97.51,145.95,37.03
23775.0,-9.753,1.744,-11.223,-6.351,1.642,-10.093,92.61,132.86,17.01
,-9.148,2.424,-11.228,-6.085,1.417,-10.797,79.52,125.37,16.66
,-8.55,2.393,-10.921,-5.662,1.328,-11.204,58.17,114.59,14.84
,-7.743,2.123,-10.847,-4.568,0.919,-11.376,39.55,99.47,13.58
23851.0,-3.743,0.78,-11.637,-5.267,-1.175,-9.555,-11.9,29.19,10.85
,-2.912,-0.067,-11.68,-5.822,-0.79,-9.06,-22.75,19.95,10.78
,-3.632,-0.888,-11.005,-5.056,-0.34,-9.316,-27.44,9.66,10.01
,-4.496,-1.314,-10.457,-4.116,-0.27,-9.241,-25.06,-5.18,9.17
23927.0,-3.369,-1.024,-9.158,-2.783,-1.237,-8.732,-24.78,-92.96,15.26
,-3.108,-1.371,-9.048,-2.922,-1.441,-8.641,-22.54,-105.07,15.96
,-2.96,-1.127,-9.186,-3.235,-1.771,-8.404,-18.62,-117.39,14.98
,-2.824,-1.165,-9.069,-3.637,-1.646,-8.772,-18.06,-129.71,14.42
24002.0,-3.805,-1.268,-8.973,-4.393,-0.601,-9.11,-8.47,-183.05,8.4
,-3.685,-0.885,-8.875,-4.415,-1.122,-8.933,-8.05,-191.03,10.01
,-3.754,-0.632,-9.052,-4.664,-1.263,-9.064,-10.99,-198.03,10.71
,-4.039,-0.383,-8.945,-4.671,-1.462,-8.973,-16.73,-205.31,9.52
24078.0,-4.807,-1.417,-8.777,-6.085,-0.591,-7.818,-22.82,-235.9,4.55
,-4.829,-1.316,-8.959,-6.348,-0.536,-7.609,-18.9,-239.4,2.66
,-5.08,-1.218,-8.323,-6.504,-0.455,-7.262,-10.5,-240.17,1.82
,-5.875,-0.881,-7.854,-6.628,-0.558,-7.1,-3.78,-241.5,0.21
24153.0,-6.927,-0.402,-6.571,-8.016,-0.397,-3.333,-11.48,-244.79,-6.72
,-7.999,-0.258,-6.238,-8.291,-0.524,-2.211,-13.93,-242.97,-9.94
,-7.717,-0.024,-6.224,-8.82,-0.079,-2.489,-20.86,-241.43,-13.3
,-8.265,-0.105,-5.291,-9.378,0.555,-2.178,-27.58,-238.77,-16.66
24229.0,-8.976,-0.275,-0.761,-8.055,-2.802,2.441,-48.02,-188.58,-36.89
,-8.897,-1.204,0.024,-8.267,-2.434,3.01,-55.37,-172.34,-36.05
,-8.818,-2.479,0.464,-8.177,-1.744,3.096,-57.61,-152.81,-32.48
,-8.208,-2.824,1.005,-7.842,-1.055,2.79,-53.62,-131.04,-26.25
24305.0,-7.751,-0.742,2.292,-8.105,0.407,-1.572,-26.74,-0.91,0.35
,-8.019,-0.445,1.381,-7.916,0.634,-2.484,-30.1,24.57,5.46
,-8.258,-0.072,0.328,-7.94,0.333,-3.149,-33.88,46.97,9.24
,-8.177,0.246,-0.737,-9.753,-1.173,-4.085,-39.13,65.66,11.27
24381.0,-20.529,-10.388,2.12,-9.43,-3.242,-1.452,-64.26,83.93,20.37
,-20.244,-8.064,3.154,-11.476,-5.879,-0.797,-11.76,56.98,29.61
,-9.928,-0.593,-2.032,-12.235,-0.414,-1.878,6.09,53.62,6.23
,-6.423,0.409,-1.969,-11.029,2.45,-3.41,-23.45,58.87,0.98
24457.0,-10.321,1.5,-4.475,-7.425,0.27,-5.973,0.98,112.07,34.02
,-8.411,1.206,-6.269,-8.54,0.464,-5.901,-11.55,110.11,27.44
,-5.999,1.563,-6.076,-8.727,1.058,-5.36,-20.58,100.73,17.85
,-5.968,1.163,-6.013,-9.282,0.395,-5.193,-26.18,89.67,12.39
24532.0,-10.041,-0.823,-4.769,-8.849,-0.101,-3.9,-17.85,62.65,13.86
,-10.357,-1.527,-4.381,-8.823,0.093,-3.941,-14.28,61.39,18.55
,-9.639,-0.979,-4.235,-8.894,0.27,-4.08,-7.84,60.62,20.37
,-8.945,-0.455,-3.781,-9.351,0.278,-3.965,-4.2,59.36,17.71
24608.0,-9.464,0.613,-3.831,-9.311,1.467,-3.929,-2.66,47.46,15.26
,-9.244,0.727,-3.561,-9.213,1.326,-4.08,-5.6,45.57,13.79
,-9.351,0.854,-3.637,-9.213,1.146,-4.051,-7.0,43.68,12.11
,-9.562,1.309,-3.877,-9.253,1.043,-3.948,-8.33,41.58,10.57
24684.0,-9.275,0.876,-3.903,-9.325,0.847,-4.185,-3.92,34.3,10.22
,-9.244,0.34,-3.745,-9.024,1.259,-4.451,-5.25,33.67,9.52
,-9.189,0.067,-3.606,-8.89,0.948,-4.69,-5.32,33.53,9.31
,-9.344,0.306,-3.735,-9.091,0.706,-4.697,-2.52,33.11,8.89
24760.0,-9.261,0.572,-4.889,-9.308,0.354,-3.996,1.33,25.41,8.4
,-9.134,0.455,-4.865,-9.253,0.402,-3.754,2.45,23.8,7.77
,-9.072,0.141,-4.496,-9.232,0.258,-3.632,3.22,22.89,7.98
,-9.213,0.227,-4.233,-9.251,0.163,-3.489,4.55,22.26,7.98
24835.0,-9.177,0.433,-3.52,-9.007,0.637,-3.991,5.04,23.8,8.05
,-9.239,0.696,-3.833,-9.201,0.715,-4.235,6.16,23.94,8.19
,-9.127,0.888,-4.032,-9.16,1.048,-4.386,5.32,23.73,8.05
,-8.959,0.826,-4.039,-8.926,0.878,-4.274,3.08,23.66,7.77
24911.0,-8.882,0.522,-3.982,-9.198,1.364,-3.017,-10.15,22.19,4.76
,-9.081,0.457,-3.709,-8.914,0.826,-2.893,-10.36,22.26,4.97
,-9.208,0.785,-3.247,-8.892,0.208,-2.833,-10.5,22.4,5.04
,-9.258,1.259,-3.082,-8.976,0.215,-2.888,-11.97,22.75,4.69
24986.0,-8.964,0.323,-2.996,-8.89,-1.015,-3.692,-19.25,29.19,3.64
,-8.938,0.108,-3.13,-8.859,-0.44,-3.932,-18.9,31.22,3.64
,-8.923,-0.45,-3.331,-8.947,-0.16,-3.984,-17.85,33.81,3.99
,-8.78,-1.12,-3.479,-9.016,-0.17,-3.927,-13.65,36.33,5.25
25062.0,-9.213,0.122,-4.08,-8.713,0.648,-5.066,8.75,46.62,8.33
,-9.292,0.735,-4.424,-8.705,0.407,-5.042,9.73,47.39,6.51
,-8.99,1.175,-4.738,-8.894,0.744,-5.324,6.93,47.6,5.46
,-8.792,0.976,-5.056,-9.062,1.101,-5.446,4.06,47.74,5.46
25138.0,-9.177,0.995,-5.408,-9.158,-0.373,-4.429,12.46,50.61,5.88
,-9.414,0.601,-5.336,-9.569,0.199,-4.302,12.46,52.29,5.81
,-8.964,0.261,-5.054,-9.686,0.517,-4.142,15.05,53.2,8.05
,-9.708,0.919,-4.843,-10.452,1.405,-3.568,21.91,55.16,8.89
25214.0,-11.677,3.149,-4.324,-10.589,-0.467,-2.613,36.12,68.04,2.73
,-11.259,-0.232,-3.932,-10.306,-1.278,-2.702,22.89,70.56,-0.77
,-10.062,-3.233,-3.087,-9.899,-2.242,-2.67,23.87,75.11,2.17
,-10.426,-1.84,-2.508,-10.177,-2.048,-2.86,39.13,80.92,6.93
25289.0,-10.675,-2.041,-2.749,-11.292,-1.584,-1.28,48.51,105.35,9.59
,-10.998,-2.639,-2.242,-11.141,-1.488,-1.582,53.27,111.23,12.46
,-11.199,-2.745,-1.63,-10.799,-1.488,-2.225,59.92,116.97,16.03
,-11.235,-2.111,-1.34,-10.488,-1.529,-3.211,67.48,122.29,19.53
25365.0,-10.031,-1.12,-4.465,-9.031,1.462,-8.835,89.18,136.99,35.63
,-9.639,-0.737,-6.322,-8.485,1.285,-8.777,95.97,137.48,34.23
,-9.1,0.024,-7.511,-9.574,0.902,-10.491,102.27,138.25,31.15
,-8.847,0.938,-8.502,-8.717,1.39,-10.122,105.28,139.65,28.49
25441.0,-7.629,2.166,-11.0,-5.298,-0.567,-11.015,47.95,98.77,13.93
,-6.956,1.598,-10.981,-4.503,-0.203,-11.448,30.1,83.23,11.2
,-6.71,0.665,-10.928,-3.754,-0.237,-11.299,16.52,67.55,8.68
,-6.061,-0.091,-10.852,-4.48,-0.464,-10.565,11.48,52.29,8.33
25517.0,-5.384,-0.163,-9.871,-3.214,-0.847,-9.349,1.82,-19.74,10.08
,-5.262,0.038,-9.746,-2.941,-1.18,-9.335,-2.94,-41.58,9.24
,-4.63,-0.151,-9.198,-2.826,-1.572,-9.048,-9.73,-61.88,10.01
,-3.841,-0.469,-9.028,-2.912,-1.876,-8.581,-17.01,-80.08,12.39
25593.0,-3.094,-1.84,-8.421,-2.843,-1.835,-8.961,-19.67,-149.52,22.89
,-3.099,-1.768,-8.744,-3.161,-1.567,-8.954,-15.68,-162.89,21.98
,-2.769,-1.974,-9.002,-3.893,-1.144,-8.705,-10.15,-174.02,21.63
,-2.833,-2.091,-9.026,-4.305,-0.787,-9.299,0.35,-183.4,21.42
25668.0,-4.166,-0.625,-9.471,-5.248,0.44,-8.983,12.81,-221.2,25.27
,-4.547,-0.349,-9.148,-5.363,0.129,-8.794,9.94,-225.05,24.36
,-4.786,-0.06,-8.801,-5.52,-0.278,-8.626,5.32,-229.18,21.0
,-5.197,0.275,-8.851,-5.554,-0.694,-8.078,-1.89,-233.8,16.31
25744.0,-6.076,-0.811,-7.712,-7.724,-0.905,-4.92,-21.56,-242.06,-5.53
,-6.442,-0.938,-7.028,-8.256,-0.562,-4.008,-15.82,-239.82,-9.17
,-7.205,-1.247,-6.315,-8.909,0.048,-4.027,-10.08,-235.9,-10.78
,-7.593,-1.218,-5.729,-9.655,0.548,-4.286,-5.95,-231.84,-12.39
25819.0,-9.342,0.632,-3.798,-8.89,-1.577,-1.098,-0.21,-188.79,-18.97
,-9.263,0.4,-3.171,-8.902,-1.673,-0.912,-12.18,-179.69,-20.37
,-9.174,-0.428,-2.398,-8.849,-1.534,-0.924,-20.37,-169.33,-19.88
,-8.961,-1.072,-1.575,-8.588,-1.744,0.316,-25.48,-158.34,-19.18
25895.0,-8.21,-1.725,0.646,-8.306,-0.804,0.866,-23.87,-89.11,-13.16
,-7.961,-1.886,1.039,-8.124,-0.065,0.428,-21.49,-70.14,-10.78
,-7.889,-2.134,1.168,-8.011,0.084,0.089,-17.71,-50.68,-6.23
,-8.167,-1.682,1.184,-8.1,-0.163,-0.101,-11.9,-31.78,-1.12
25971.0,-8.177,-0.349,-0.57,-9.098,0.036,-2.785,-27.65,46.2,10.85
,-8.203,-0.103,-1.039,-16.3,-5.922,-3.759,-27.79,58.94,12.39
,-8.232,0.333,-1.78,-22.127,-10.184,5.987,-28.21,70.0,12.6
,-8.11,0.424,-2.094,-13.905,-0.258,0.653,-33.74,79.87,12.32
26047.0,-7.932,2.615,-0.354,-9.751,-4.044,-0.57,-0.28,30.31,-5.46
,-8.055,-0.672,-0.433,-11.426,-1.007,-0.785,-57.75,36.68,-4.34
,-9.457,-4.843,-0.369,-11.661,1.249,-2.661,-75.88,49.98,3.43
,-9.222,-5.602,-0.725,-9.871,2.419,-3.963,-49.28,67.69,7.35
26122.0,-7.708,3.362,-4.776,-8.835,-0.536,-4.226,-36.61,73.01,3.71
,-7.98,1.835,-5.001,-8.82,0.986,-3.987,-54.46,72.38,2.73
,-8.894,-0.275,-4.661,-9.679,1.555,-3.527,-58.1,71.4,4.83
,-9.074,-1.094,-4.525,-10.242,0.67,-3.082,-50.19,68.04,4.27
26198.0,-9.777,-0.196,-2.84,-9.265,0.613,-3.69,-32.62,48.23,12.53
,-9.194,-1.512,-2.812,-9.155,0.711,-3.53,-29.19,48.65,14.49
,-8.863,-2.132,-3.094,-9.134,-0.144,-3.508,-17.22,49.14,15.19
,-9.079,-0.835,-3.422,-9.418,-1.012,-3.319,-7.0,48.16,13.72
26274.0,-9.347,-0.486,-3.214,-9.555,1.333,-3.02,-28.63,38.15,7.14
,-9.131,0.641,-3.197,-9.698,1.417,-3.259,-20.86,36.61,9.73
,-9.474,0.761,-3.034,-9.383,0.708,-3.307,-15.47,35.56,12.46
,-9.722,0.993,-2.903,-9.253,-0.589,-3.087,-12.04,34.58,13.37
26350.0,-9.541,-1.101,-3.262,-9.167,0.79,-4.566,-15.54,31.64,11.27
,-9.368,-0.637,-3.391,-9.098,0.615,-4.874,-3.22,31.78,12.11
,-9.229,0.282,-3.733,-9.028,0.328,-5.004,4.34,31.57,12.39
,-9.146,0.785,-4.164,-9.229,-0.017,-5.03,6.58,30.8,12.74
26425.0,-9.115,0.223,-4.951,-9.509,0.785,-3.891,15.19,20.72,10.71
,-9.06,0.483,-4.738,-9.457,0.869,-3.951,17.15,18.83,10.43
,-9.093,0.354,-4.31,-9.28,0.778,-3.91,16.59,17.43,10.22
,-9.239,0.39,-3.891,-9.308,0.541,-4.039,16.87,16.24,9.8
26501.0,-9.122,0.395,-4.015,-9.251,0.555,-4.255,12.11,12.39,6.09
,-9.282,0.385,-4.063,-9.141,-0.103,-4.24,13.16,11.76,5.95
,-9.373,0.481,-4.089,-8.935,-0.656,-4.068,14.14,10.78,5.67
,-9.241,0.684,-4.073,-9.115,-0.672,-3.802,14.07,10.08,5.32
26577.0,-9.143,-0.361,-3.632,-9.351,0.902,-3.35,24.99,8.82,8.75
,-9.323,0.017,-3.293,-9.148,0.718,-3.419,27.58,9.24,9.03
,-9.545,0.378,-3.374,-9.21,0.27,-3.044,27.58,9.66,8.4
,-9.713,0.27,-3.29,-9.485,0.459,-3.18,25.62,9.87,7.28
26652.0,-9.507,0.854,-3.285,-9.026,-0.237,-3.317,21.56,9.8,3.5
,-9.335,0.981,-3.484,-9.395,-0.105,-3.084,20.3,9.87,2.94
,-9.263,0.653,-3.587,-9.402,0.17,-3.051,18.48,9.94,2.45
,-9.134,0.074,-3.525,-9.34,0.273,-3.195,17.22,9.87,2.03
26728.0,-9.536,0.182,-3.664,-9.213,-0.27,-4.46,24.71,13.51,2.24
,-9.21,0.534,-4.149,-9.416,0.443,-4.537,24.57,12.67,1.4
,-8.658,-0.086,-4.41,-9.237,0.905,-4.688,23.45,12.32,2.73
,-8.801,-0.57,-4.31,-8.93,0.713,-4.659,26.6,12.04,4.13
26804.0,-8.775,0.153,-4.31,-9.22,-0.84,-2.637,29.68,9.03,2.59
,-9.093,-0.275,-4.001,-9.478,-0.287,-2.517,31.78,9.24,2.66
,-8.964,-0.948,-3.628,-9.488,0.237,-2.565,34.79,10.22,4.27
,-8.823,-1.187,-3.017,-9.514,0.689,-2.96,41.51,12.6,7.0
26880.0,-9.552,1.127,-3.532,-8.928,-0.026,-4.963,51.1,18.97,6.51
,-9.282,1.094,-4.018,-8.981,-0.153,-4.86,44.17,18.13,4.83
,-9.031,0.723,-4.444,-9.153,0.031,-4.798,40.25,17.64,3.22
,-9.122,0.459,-4.846,-9.002,0.419,-4.958,40.46,17.15,1.96
26955.0,-8.866,0.268,-4.386,-8.811,-0.424,-3.357,41.44,13.72,1.05
,-9.005,0.297,-4.312,-8.887,-0.694,-3.075,39.62,13.16,-0.84
,-8.985,0.215,-4.042,-9.189,-0.299,-3.19,37.52,13.16,-2.24
,-8.897,-0.034,-3.697,-9.497,0.364,-3.501,35.07,13.72,-2.8
27031.0,-9.509,0.608,-3.922,-8.555,-0.735,-5.128,35.77,17.15,-4.2
,-9.284,0.299,-4.458,-8.717,-0.541,-5.384,30.38,16.66,-5.04
,-9.074,-0.093,-4.898,-8.756,-0.146,-5.573,27.37,16.17,-5.32
,-8.77,-0.483,-5.071,-8.782,-0.34,-5.415,26.18,15.75,-4.97
27106.0,-8.696,-0.768,-5.154,-9.0,-1.33,-4.676,28.56,10.01,-4.76
,-8.734,-1.204,-4.917,-9.048,-1.242,-4.532,29.82,9.17,-4.55
,-8.667,-1.261,-4.819,-9.174,-1.192,-4.539,32.41,8.89,-4.2
,-8.782,-1.381,-4.745,-9.284,-1.359,-4.669,35.07,8.89,-3.85
27182.0,-9.239,-1.405,-4.719,-9.78,-1.161,-5.245,35.7,7.56,-2.73
,-9.215,-1.527,-4.69,-9.366,-0.732,-5.284,36.54,7.14,-1.75
,-9.232,-1.563,-4.855,-9.383,-0.512,-5.171,38.99,6.93,-0.49
,-9.55,-1.527,-5.078,-8.928,-0.742,-5.145,41.72,6.23,0.21
27258.0,-8.765,-1.177,-5.044,-8.536,0.175,-4.748,32.69,0.35,-1.05
,-8.437,-1.534,-5.001,-8.784,0.536,-4.891,33.81,0.7,-0.28
,-8.471,-2.261,-5.662,-7.911,-1.067,-5.023,34.79,0.91,0.98
,-8.299,-2.216,-4.429,-7.83,-1.584,-5.042,45.15,1.61,11.83
27334.0,-7.842,-1.201,-5.205,-7.923,-1.237,-5.908,89.67,6.51,38.22
,-8.064,-0.105,-5.683,-7.897,-1.697,-5.851,94.57,6.86,41.65
,-8.023,0.062,-5.865,-7.916,-1.898,-5.573,89.67,7.0,42.14
,-7.949,-0.615,-5.86,-7.791,-1.819,-5.623,83.51,7.63,42.98
27409.0,-7.81,-1.766,-5.597,-7.708,-0.273,-5.382,124.32,15.54,65.73
,-7.923,-1.45,-5.319,-7.904,-0.172,-5.377,136.57,17.36,71.82
,-7.787,-1.019,-5.374,-8.093,0.601,-5.176,144.9,17.99,76.23
,-7.636,-0.426,-5.415,-8.267,0.873,-5.238,148.33,17.99,79.73
27485.0,-8.189,0.38,-5.245,-8.291,-2.666,-4.932,129.15,10.78,71.61
,-8.263,-0.546,-5.209,-8.404,-2.599,-4.764,121.87,9.1,66.43
,-8.27,-1.445,-5.293,-8.461,-2.508,-4.288,118.51,8.05,62.3
,-8.184,-2.295,-5.176,-8.413,-2.156,-4.233,118.72,7.49,60.13
27561.0,-8.5,-1.723,-4.381,-9.227,-0.625,-4.903,140.84,11.2,63.0
,-8.567,-1.352,-4.695,-9.005,-0.646,-4.642,140.35,11.69,63.0
,-8.916,-1.065,-5.118,-8.873,-0.603,-4.633,138.95,11.83,63.07
,-9.184,-0.787,-5.154,-8.878,-0.558,-4.616,137.69,12.18,63.84
27637.0,-8.861,-0.598,-4.499,-8.674,-0.39,-3.958,127.96,12.95,63.0
,-8.818,-0.584,-4.357,-8.562,-0.421,-3.874,127.61,13.51,62.58
,-8.804,-0.51,-4.326,-8.648,-0.201,-3.893,128.66,14.21,61.81
,-8.705,-0.447,-4.137,-8.914,-0.196,-3.874,128.52,15.19,60.97
27713.0,-8.923,-0.409,-3.932,-9.081,-0.66,-4.31,118.16,18.83,53.27
,-8.914,-0.586,-3.934,-9.153,-0.548,-4.46,116.13,19.88,53.2
,-9.0,-0.711,-3.982,-9.222,-0.333,-4.503,115.22,20.51,53.41
,-8.981,-0.632,-4.14,-9.098,-0.242,-4.535,115.43,20.72,53.69
27788.0,-8.921,-0.084,-4.506,-8.679,-0.12,-4.018,114.24,18.55,55.51
,-8.849,0.029,-4.408,-8.715,-0.189,-3.939,112.77,16.94,55.09
,-8.827,0.062,-4.216,-8.892,-0.507,-4.02,110.6,15.33,54.46
,-8.729,-0.115,-4.118,-9.206,-0.883,-4.209,108.64,14.21,54.04
27864.0,-9.316,-1.161,-4.279,-9.064,-0.431,-4.173,110.53,9.52,60.41
,-9.225,-1.206,-4.29,-9.088,-0.074,-4.051,116.9,8.82,64.47
,-9.081,-1.094,-4.257,-9.012,0.376,-4.08,123.83,8.12,68.39
,-8.961,-0.859,-4.245,-8.906,0.785,-4.07,131.39,7.49,72.1
27939.0,-8.969,0.905,-3.955,-9.249,0.572,-4.137,145.46,2.94,75.81
,-9.026,0.814,-4.013,-9.241,0.526,-4.039,143.29,1.47,73.99
,-9.196,0.495,-4.104,-9.179,0.438,-3.896,140.7,0.14,72.45
,-9.237,0.407,-4.168,-9.17,0.603,-3.714,139.44,-1.05,71.75
28015.0,-9.119,0.797,-3.577,-9.213,0.995,-3.305,125.09,-6.16,64.26
,-9.131,0.883,-3.451,-9.191,1.108,-3.242,120.54,-6.65,62.09
,-9.249,0.718,-3.393,-9.17,1.091,-3.163,115.08,-6.86,60.13
,-9.229,0.725,-3.326,-9.172,0.979,-3.233,110.39,-6.58,58.38
28091.0,-9.148,0.89,-3.209,-9.301,0.622,-3.558,83.51,-5.11,46.9
,-9.225,0.821,-3.178,-9.237,0.316,-3.455,78.68,-4.41,45.08
,-9.203,0.768,-3.307,-9.213,0.201,-3.508,74.34,-3.71,43.33
,-9.268,0.723,-3.532,-9.067,0.244,-3.494,70.21,-3.57,41.51
28167.0,-8.935,0.318,-3.429,-9.165,1.043,-3.18,61.6,-3.85,39.69
,-9.081,0.598,-3.297,-9.129,0.928,-3.228,60.62,-3.64,39.13
,-9.22,1.05,-3.214,-9.002,0.629,-3.254,58.24,-3.85,37.45
,-9.241,1.168,-3.226,-9.007,0.385,-3.19,51.66,-4.2,34.02
28242.0,-9.019,0.354,-3.156,-9.323,0.388,-3.587,26.46,-4.13,18.83
,-9.083,0.491,-3.142,-9.296,0.12,-3.307,23.24,-2.8,16.38
,-9.21,0.629,-3.195,-9.514,-0.067,-3.412,18.55,-0.91,13.58
,-9.28,0.639,-3.388,-9.605,-0.395,-3.597,12.39,1.47,10.36
28318.0,-9.732,-0.402,-3.283,-9.974,0.034,-3.338,-5.46,4.27,1.82
,-9.974,-0.132,-2.919,-9.646,-0.129,-3.525,-6.44,4.76,2.1
,-10.256,-0.038,-2.96,-9.296,-0.445,-3.539,-9.03,5.74,1.26
,-10.17,-0.002,-3.015,-9.021,-0.644,-3.46,-10.99,6.65,0.35
28394.0,-9.021,-0.603,-3.539,-9.002,0.01,-4.245,-9.24,9.8,3.29
,-9.055,-0.562,-3.731,-9.057,-0.12,-4.147,-5.6,10.22,4.41
,-9.021,-0.433,-3.987,-9.086,-0.096,-3.982,-3.22,10.36,5.46
,-8.985,-0.189,-4.173,-9.203,-0.086,-4.343,-1.19,10.22,6.23
28470.0,-9.043,-0.321,-4.417,-9.239,0.096,-3.786,-1.61,8.61,7.35
,-8.902,-0.629,-4.171,-9.232,-0.031,-3.699,-1.26,8.12,8.54
,-8.909,-0.313,-3.891,-8.885,0.134,-3.295,1.19,7.98,8.96
,-9.124,-0.112,-3.838,-8.971,0.385,-3.163,1.82,8.47,8.4
28546.0,-9.416,0.376,-3.295,-9.177,-0.211,-3.477,-5.53,11.2,5.74
,-9.201,0.347,-3.412,-9.349,0.4,-3.905,-5.18,12.18,6.86
,-8.765,-0.471,-3.321,-9.184,0.95,-4.539,-4.69,12.95,9.66
,-8.784,-0.639,-3.135,-8.964,1.194,-4.965,2.66,14.28,13.44
28621.0,-8.763,0.558,-5.434,-8.993,0.881,-5.19,11.76,13.09,15.05
,-8.55,-0.089,-5.178,-9.005,1.211,-5.303,10.64,11.97,15.19
,-8.844,-0.081,-5.276,-8.89,1.094,-5.118,14.98,10.99,14.98
,-9.005,0.294,-5.142,-8.626,0.622,-4.819,18.97,10.15,14.91
28697.0,-8.703,0.139,-4.475,-9.105,1.668,-3.599,14.84,4.55,15.12
,-9.055,0.33,-4.02,-9.162,1.608,-3.57,17.92,4.76,15.61
,-9.237,0.933,-3.953,-9.098,1.359,-3.743,18.97,4.62,14.56
,-9.17,1.393,-3.671,-8.748,1.232,-3.704,15.05,4.62,13.16
28772.0,-9.043,1.062,-3.848,-9.005,1.687,-4.527,4.48,6.93,9.94
,-9.024,0.883,-3.81,-8.789,0.9,-4.697,7.28,7.7,10.01
,-8.961,1.039,-3.896,-8.65,-0.072,-4.561,10.15,8.26,10.29
,-9.167,1.381,-4.3,-8.878,-0.179,-4.692,11.41,8.33,9.38
28848.0,-9.014,0.34,-4.987,-9.031,1.062,-4.771,15.26,7.56,9.03
,-8.775,0.838,-5.03,-8.952,1.251,-4.688,18.83,7.42,9.38
,-8.586,1.094,-5.063,-8.964,1.421,-4.623,18.41,6.79,9.38
,-8.72,1.139,-4.874,-8.985,1.615,-4.724,16.45,6.16,8.68
28924.0,-8.643,1.417,-4.515,-9.107,2.108,-3.891,7.49,1.82,3.01
,-8.574,1.204,-4.109,-8.94,1.754,-3.991,4.48,1.33,2.59
,-8.981,1.314,-3.991,-8.78,0.727,-4.054,2.52,1.05,1.4
,-9.28,1.785,-3.891,-8.83,0.072,-4.046,-0.42,0.49,-0.42
29000.0,-8.741,0.227,-4.283,-8.744,-0.438,-4.74,-9.38,1.54,-0.63
,-8.916,0.459,-4.46,-8.588,-0.227,-4.64,-6.51,2.17,0.0
,-9.04,0.452,-4.618,-8.708,-0.129,-4.475,-6.86,2.38,0.28
,-8.792,0.01,-4.688,-8.796,0.084,-4.207,-6.79,2.73,0.84
29075.0,-9.007,0.177,-4.147,-8.689,0.926,-4.377,13.09,5.95,7.07
,-9.024,0.462,-4.046,-8.693,1.132,-4.465,15.4,6.86,8.12
,-8.916,0.567,-4.202,-8.827,1.134,-4.343,17.36,7.42,8.68
,-8.715,0.605,-4.269,-8.825,1.012,-4.314,18.48,7.98,9.17
29151.0,-8.71,0.869,-4.293,-8.768,0.637,-4.348,10.43,9.03,6.93
,-8.741,0.782,-4.396,-8.827,0.467,-4.276,10.22,9.24,6.86
,-8.734,0.857,-4.446,-9.016,0.488,-4.185,10.01,9.52,6.93
,-8.756,0.73,-4.436,-9.021,0.639,-4.228,9.45,10.15,7.14
29227.0,-8.693,0.775,-4.322,-8.605,1.115,-4.59,7.28,12.95,5.81
,-8.547,0.976,-4.405,-8.643,1.094,-4.472,5.6,12.88,5.46
,-8.581,1.307,-4.556,-8.772,0.854,-4.271,4.34,12.74,5.25
,-8.674,1.249,-4.657,-8.82,0.447,-4.101,3.22,12.74,5.39
29303.0,-8.78,0.163,-3.92,-8.804,0.61,-3.86,7.35,14.98,7.49
,-8.804,0.22,-3.853,-8.923,0.646,-3.91,10.01,16.45,8.12
,-8.935,0.493,-3.865,-8.933,0.854,-4.101,11.13,17.85,8.19
,-8.966,0.366,-3.877,-8.906,0.861,-4.547,11.06,19.32,8.4
29378.0,-8.76,0.759,-5.032,-8.497,0.646,-6.049,11.48,25.27,9.59
,-8.583,0.706,-5.59,-8.603,0.737,-5.877,13.72,25.83,10.01
,-8.571,0.823,-5.939,-8.653,0.481,-5.635,16.24,25.69,10.15
,-8.533,0.644,-6.016,-8.684,0.471,-5.47,17.01,25.13,10.15
29454.0,-8.748,0.713,-5.15,-8.746,0.792,-4.637,21.91,23.38,11.2
,-8.77,0.826,-4.965,-8.796,0.55,-4.654,22.89,23.87,11.83
,-8.543,0.567,-4.862,-9.428,1.551,-4.547,23.73,24.43,12.53
,-8.634,0.754,-4.704,-8.751,0.761,-4.594,25.69,25.76,13.44
29530.0,-9.239,0.823,-5.008,-9.036,-0.936,-5.753,24.5,31.99,13.16
,-9.462,1.776,-5.226,-8.842,-0.455,-5.37,24.29,32.76,11.62
,-9.998,1.749,-5.475,-9.026,0.543,-5.274,21.35,33.6,9.17
,-9.746,0.388,-5.827,-8.871,0.579,-5.116,17.36,34.23,7.42
29606.0,-8.646,0.33,-4.927,-8.825,0.51,-4.594,26.6,40.11,8.19
,-8.732,0.464,-4.819,-8.796,0.225,-4.48,26.81,41.79,7.84
,-8.827,0.754,-4.824,-8.725,-0.086,-4.365,28.21,43.26,7.63
,-8.847,0.67,-4.69,-8.851,-0.266,-4.226,29.68,44.94,8.26
29682.0,-9.019,-0.469,-4.13,-9.083,-1.843,-3.769,48.44,58.59,21.63
,-9.079,-0.828,-3.967,-9.196,-1.742,-3.929,52.29,61.95,24.99
,-9.083,-1.194,-3.891,-9.33,-1.701,-4.092,56.14,65.45,28.28
,-9.067,-1.601,-3.743,-9.533,-2.065,-3.855,60.9,69.44,32.13
29757.0,-9.866,-2.388,-3.812,-9.033,-1.333,-5.221,92.75,91.07,49.63
,-9.95,-2.036,-3.484,-8.993,-1.156,-5.698,104.93,95.97,54.39
,-9.677,-1.673,-3.989,-8.842,-0.79,-5.456,113.4,99.4,54.74
,-9.289,-1.496,-4.487,-8.705,0.014,-5.879,117.46,101.99,55.51
29833.0,-8.404,0.486,-7.432,-7.614,-1.819,-9.397,112.56,106.75,54.88
,-7.839,0.699,-8.368,-7.112,-1.874,-9.232,92.96,105.42,50.96
,-7.916,0.206,-8.758,-6.796,-1.378,-8.887,73.22,103.74,48.02
,-8.031,-1.074,-9.095,-6.502,-0.782,-8.942,58.66,100.03,45.36
29908.0,-6.576,-0.12,-9.328,-5.48,-0.11,-8.942,57.61,55.37,45.29
,-6.356,0.172,-9.667,-5.987,-0.392,-8.311,48.65,40.88,44.31
,-5.86,0.347,-9.469,-6.269,-0.12,-8.488,36.75,26.67,43.54
,-5.319,0.421,-9.227,-5.812,-0.543,-8.54,29.61,14.21,44.73
29984.0,-5.611,-0.809,-8.545,-5.492,-1.57,-7.889,10.08,-51.66,53.13
,-5.303,-1.381,-8.358,-5.386,-1.847,-7.988,6.72,-65.17,56.14
,-5.403,-1.498,-8.057,-5.755,-1.936,-8.107,9.03,-77.42,58.66
,-5.717,-1.316,-7.94,-5.796,-1.799,-8.059,13.09,-90.37,59.22
30060.0,-5.585,-1.646,-8.107,-6.164,-0.357,-8.284,31.01,-145.81,53.9
,-5.882,-1.508,-8.086,-6.176,-0.136,-8.234,34.37,-154.77,53.2
,-6.047,-1.163,-8.253,-6.152,-0.124,-8.126,38.43,-164.22,52.15
,-5.882,-0.818,-8.373,-6.167,-0.163,-8.016,42.91,-171.43,52.08
30136.0,-6.334,-0.213,-8.028,-7.191,-0.335,-6.954,16.17,-197.4,43.19
,-6.643,-0.318,-7.892,-7.205,-0.254,-6.81,9.87,-201.39,39.97
,-6.846,-0.436,-7.234,-7.145,-0.132,-6.65,6.65,-204.26,36.75
,-7.085,-0.383,-7.028,-7.203,-0.249,-6.243,6.02,-206.36,32.97
30211.0,-7.279,-0.175,-5.745,-8.208,-0.318,-4.305,5.04,-210.98,8.96
,-7.669,-0.148,-5.408,-9.043,-0.409,-3.599,3.99,-209.3,3.92
,-7.988,-0.282,-4.951,-8.878,-0.617,-3.18,2.87,-207.48,-0.91
,-8.222,-0.294,-4.752,-8.684,-0.766,-2.69,1.47,-204.89,-5.04
30287.0,-8.88,-0.907,-1.922,-8.693,-1.381,-0.974,-28.28,-178.92,-24.71
,-9.227,-1.127,-1.441,-8.808,-1.304,-0.632,-31.43,-169.26,-27.09
,-9.095,-1.256,-1.615,-8.777,-0.924,-0.62,-33.88,-158.83,-29.05
,-8.772,-1.371,-1.17,-8.38,-0.895,0.469,-34.23,-147.14,-29.54
30362.0,-8.459,-1.385,1.091,-8.239,-1.055,0.854,-41.65,-75.04,-20.37
,-8.457,-1.491,1.206,-8.464,-0.369,0.218,-36.68,-57.19,-17.43
,-8.392,-1.445,1.077,-8.512,0.139,-0.342,-33.18,-38.36,-13.72
,-8.248,-1.491,1.12,-8.256,0.419,-0.773,-30.94,-19.04,-9.59
30438.0,-8.05,0.474,-1.173,-19.091,-6.746,5.403,-40.04,63.28,4.34
,-8.153,0.34,-1.484,-13.96,-0.852,1.857,-44.73,75.95,6.16
,-8.861,-0.172,-2.017,-8.942,0.775,-1.168,-49.91,86.38,8.33
,-14.14,-4.707,-1.094,-8.019,-1.895,-0.955,-53.55,85.12,13.51
30514.0,-9.538,-4.75,-0.285,-9.148,2.185,-3.821,-53.2,75.39,15.12
,-9.564,-4.8,-0.986,-8.741,1.488,-4.432,-31.5,84.91,19.11
,-10.122,-2.67,-2.302,-7.966,0.44,-4.8,-5.32,89.74,21.21
,-9.356,1.117,-3.29,-7.81,0.981,-4.391,7.07,90.72,23.8
30590.0,-8.447,2.793,-5.307,-8.746,-1.036,-5.26,-14.21,84.28,18.27
,-9.282,2.668,-5.552,-9.426,-0.881,-5.152,-19.18,80.64,14.49
,-9.529,0.96,-5.494,-9.902,-0.794,-4.97,-27.65,75.25,11.55
,-9.007,-0.641,-5.64,-9.416,0.172,-4.836,-29.82,70.77,12.18
30666.0,-8.665,0.701,-4.657,-9.189,1.864,-4.133,0.42,55.16,19.53
,-8.346,0.498,-4.42,-9.021,0.309,-3.757,0.84,52.22,15.82
,-8.928,1.299,-4.702,-9.186,-1.223,-3.183,-0.84,48.51,11.48
,-9.399,2.065,-4.53,-9.402,-1.441,-2.802,-12.04,44.66,8.26
30741.0,-9.715,-0.713,-2.788,-9.603,2.197,-3.963,-0.07,40.39,16.03
,-9.739,0.251,-2.867,-9.361,2.319,-4.606,8.82,40.88,17.92
,-9.509,1.103,-3.137,-9.036,2.556,-5.339,11.34,40.53,18.76
,-9.619,1.716,-3.47,-8.909,2.312,-5.666,9.73,39.41,17.78
30817.0,-8.844,1.421,-5.544,-9.031,-0.526,-4.604,-17.99,24.43,4.06
,-8.873,0.534,-5.248,-9.201,-0.634,-4.25,-18.27,21.7,3.01
,-9.196,0.199,-5.166,-9.402,-0.022,-4.264,-14.63,19.88,2.38
,-9.206,-0.014,-5.03,-9.313,0.589,-4.262,-12.95,18.62,2.03
30893.0,-9.167,0.72,-4.099,-8.789,0.129,-3.336,0.98,17.5,3.78
,-9.031,0.656,-4.078,-9.038,0.05,-3.041,1.68,17.29,4.06
,-8.906,0.601,-3.989,-9.387,0.409,-3.092,3.64,17.01,4.69
,-8.82,0.402,-3.659,-9.335,0.658,-3.116,6.02,17.22,5.6
30969.0,-9.371,0.665,-3.185,-9.227,0.091,-2.781,3.64,20.79,6.23
,-9.273,0.481,-3.3,-9.165,0.335,-2.68,0.84,21.07,6.16
,-9.198,0.146,-3.106,-9.112,0.5,-2.517,0.35,21.63,6.37
,-9.182,0.081,-2.917,-9.129,0.486,-2.355,1.54,22.89,7.21
31044.0,-9.316,0.321,-2.46,-8.753,0.352,-3.697,7.63,32.83,8.96
,-9.34,0.364,-2.764,-8.72,0.39,-3.96,7.42,34.86,8.4
,-9.074,0.364,-3.01,-8.579,0.766,-4.013,7.0,36.61,8.12
,-8.854,0.412,-3.362,-8.744,0.983,-4.101,6.58,38.22,7.84
31120.0,-8.88,1.161,-4.3,-8.495,0.345,-5.532,1.47,41.93,6.58
,-8.765,1.211,-4.628,-8.662,-0.043,-5.544,-1.68,41.93,5.88
,-8.655,0.945,-4.886,-8.701,-0.357,-5.475,-5.18,41.79,5.18
,-8.473,0.687,-5.176,-8.784,-0.371,-5.238,-7.7,41.65,4.62
31195.0,-8.873,0.136,-5.118,-9.148,0.294,-4.965,3.01,42.56,8.19
,-9.026,0.68,-5.183,-9.206,0.349,-4.848,4.97,43.19,8.19
,-9.045,0.689,-5.176,-9.241,0.639,-5.02,4.41,43.54,7.91
,-9.184,0.491,-5.083,-9.328,0.778,-5.011,5.67,44.31,8.4
31271.0,-9.136,0.952,-5.272,-9.249,0.474,-5.41,21.77,51.03,10.85
,-9.677,0.96,-5.157,-9.146,0.069,-5.145,25.55,51.45,10.43
,-8.894,0.431,-5.226,-9.129,0.112,-4.898,26.74,52.78,9.45
,-9.304,0.115,-5.504,-9.067,0.742,-4.905,30.94,54.46,9.1
31347.0,-9.062,0.696,-4.795,-9.38,-2.304,-4.353,40.25,63.21,7.7
,-9.225,1.132,-4.779,-9.385,-2.335,-3.441,40.95,65.03,6.09
,-10.426,4.133,-5.106,-9.895,0.608,-3.221,43.82,66.5,1.61
,-10.883,2.106,-5.322,-9.892,0.747,-3.185,28.07,66.92,-4.83
31423.0,-9.531,-0.474,-2.857,-11.029,-2.223,-1.675,26.04,83.37,-3.43
,-9.962,-0.421,-2.807,-11.405,-2.264,-1.295,25.13,87.5,-4.13
,-10.782,-0.342,-2.773,-11.653,-2.01,-0.826,25.27,91.91,-4.48
,-10.878,-1.46,-2.259,-11.68,-1.855,-0.976,24.5,97.09,-3.08
31498.0,-11.579,-1.811,-1.5,-9.399,0.615,-6.415,63.42,125.23,25.34
,-11.304,-1.718,-2.295,-9.756,0.828,-7.648,71.12,129.5,30.52
,-10.569,-1.452,-3.463,-10.103,0.194,-7.846,80.36,133.98,34.09
,-9.998,-0.4,-4.872,-10.371,0.129,-8.22,88.9,138.46,33.53
31574.0,-9.864,0.727,-8.763,-7.545,1.773,-10.565,73.57,131.46,26.67
,-9.028,1.728,-9.203,-5.98,0.768,-10.969,64.68,117.88,23.73
,-8.576,2.297,-9.287,-5.626,-0.799,-10.876,51.17,103.25,22.05
,-8.466,2.247,-10.373,-5.463,-1.108,-10.904,31.15,86.03,19.04
31650.0,-5.82,-1.371,-10.608,-4.956,-0.122,-9.761,1.54,25.55,21.35
,-6.506,-0.785,-9.943,-4.594,-0.936,-9.536,4.62,5.46,20.79
,-5.887,-0.206,-10.043,-4.022,-1.103,-9.557,5.95,-14.42,21.56
,-5.327,-0.005,-10.048,-3.807,-0.725,-9.459,2.73,-31.92,19.53
31726.0,-3.903,-0.412,-9.512,-3.027,-0.948,-9.292,-0.49,-115.64,21.91
,-3.872,-0.311,-9.316,-3.168,-0.976,-9.61,-7.0,-132.58,19.04
,-3.367,-0.361,-9.323,-3.135,-1.086,-9.44,-13.02,-149.24,16.8
,-2.757,-0.713,-9.354,-3.453,-1.091,-9.552,-16.52,-162.54,14.84
31802.0,-3.707,-1.039,-9.493,-4.41,-1.414,-9.77,-11.9,-215.53,7.07
,-3.941,-0.804,-9.493,-4.819,-1.488,-9.196,-14.84,-223.58,6.93
,-4.204,-0.814,-9.495,-5.504,-1.295,-8.947,-20.37,-231.42,5.04
,-4.585,-1.156,-9.631,-5.702,-1.285,-8.746,-25.27,-239.33,1.68
31877.0,-5.693,-1.173,-8.392,-6.497,-0.493,-7.066,-22.05,-251.86,-8.05
,-5.846,-0.976,-8.222,-6.906,-0.524,-6.899,-20.16,-251.58,-9.52
,-5.915,-0.663,-8.265,-7.454,-0.452,-6.537,-19.53,-251.23,-11.83
,-6.08,-0.524,-7.676,-7.736,-0.421,-6.023,-18.48,-249.48,-13.51
31953.0,-7.463,-0.505,-5.465,-8.445,-1.005,-2.367,-24.78,-231.28,-30.87
,-7.535,-0.395,-4.791,-8.418,-0.67,-1.922,-25.69,-222.53,-34.65
,-7.954,-0.514,-3.74,-8.294,-0.641,-1.426,-25.97,-211.61,-36.96
,-8.088,-1.055,-2.891,-8.227,-0.704,-0.821,-29.19,-198.73,-37.17
32028.0,-8.052,-0.811,-0.232,-7.916,-0.665,0.754,-42.21,-115.85,-31.15
,-7.988,-1.007,0.194,-7.758,-0.373,0.455,-44.66,-93.87,-26.95
,-7.815,-0.866,0.479,-7.765,-0.101,-0.077,-44.24,-70.91,-22.61
,-7.899,-0.682,0.56,-7.954,0.108,-0.73,-43.61,-47.6,-18.55
32104.0,-7.892,0.165,-1.443,-20.215,-9.284,4.255,-47.81,59.22,6.44
,-8.052,0.132,-2.125,-14.125,-3.293,1.383,-47.32,75.6,11.83
,-8.873,-0.287,-3.053,-9.526,0.333,-1.642,-45.78,88.62,16.38
,-15.288,-5.695,-2.044,-8.263,-0.184,-1.639,-48.86,88.41,20.93
32180.0,-10.215,-2.355,-2.836,-9.66,0.742,-4.288,-42.49,87.01,19.32
,-9.718,-3.489,-2.974,-8.035,2.096,-7.045,-40.81,89.6,16.31
,-8.782,-1.749,-2.474,-6.265,1.941,-7.172,-26.74,93.31,17.36
,-9.179,-0.23,-2.986,-6.705,1.199,-6.932,-23.38,97.44,19.39
32256.0,-7.803,0.017,-6.358,-9.782,-0.414,-5.035,-55.79,79.8,5.46
,-9.146,-0.002,-6.19,-9.141,-0.634,-4.946,-44.8,73.85,5.04
,-9.83,0.687,-5.762,-8.478,-1.062,-5.185,-35.14,67.62,7.35
,-9.947,0.596,-5.288,-8.904,-0.842,-5.145,-31.15,63.21,14.28
32331.0,-9.244,0.263,-5.102,-9.203,1.127,-4.451,12.11,52.43,23.52
,-8.993,0.792,-4.999,-9.356,0.651,-4.176,4.2,49.7,22.26
,-8.935,0.845,-4.58,-9.354,0.007,-3.829,-4.62,47.18,18.48
,-8.916,1.089,-4.456,-9.28,-0.031,-3.41,-11.27,44.87,14.0
32407.0,-9.368,0.455,-3.23,-9.179,1.316,-4.415,3.15,38.92,15.26
,-9.452,1.05,-3.427,-9.251,0.586,-4.597,7.91,38.22,15.47
,-9.474,1.586,-3.747,-9.148,0.16,-4.769,6.58,36.47,14.35
,-9.246,1.685,-4.106,-8.926,-0.029,-4.75,0.21,34.72,13.3
32482.0,-8.928,0.158,-4.594,-9.179,0.392,-4.037,-1.75,27.72,9.8
,-9.139,0.471,-4.341,-9.194,0.325,-3.924,1.68,26.74,9.87
,-9.311,0.687,-4.346,-9.179,0.586,-3.958,2.87,25.97,9.59
,-9.136,0.596,-4.056,-9.146,0.897,-4.001,1.54,25.62,9.38
32558.0,-9.086,1.074,-4.054,-8.914,0.682,-4.444,-4.76,24.01,6.16
,-9.1,1.204,-4.168,-8.961,0.256,-4.243,-7.56,23.38,5.53
,-9.062,1.06,-4.386,-9.091,0.158,-4.051,-9.73,22.75,4.9
,-9.076,0.943,-4.489,-9.122,0.124,-3.934,-11.9,21.98,4.41
32634.0,-9.136,0.151,-3.838,-8.983,-0.194,-3.412,-16.38,22.12,4.2
,-9.103,0.213,-3.843,-8.978,-0.242,-3.221,-17.36,22.89,3.71
,-8.935,0.323,-3.752,-8.868,-0.141,-3.082,-18.62,23.59,3.57
,-8.854,0.227,-3.597,-9.012,-0.038,-3.192,-19.67,24.64,4.06
32710.0,-8.909,0.124,-3.324,-8.825,-0.029,-3.606,-8.26,32.69,7.35
,-8.923,-0.022,-3.477,-8.902,0.424,-3.967,-6.23,34.3,8.19
,-8.88,-0.304,-3.47,-8.985,0.148,-4.207,-3.85,36.05,9.03
,-8.789,-0.292,-3.489,-9.048,0.069,-4.324,0.77,38.36,10.15
32786.0,-9.107,0.483,-4.664,-9.117,0.378,-5.439,10.71,45.85,11.34
,-9.263,0.617,-4.819,-9.1,0.057,-5.518,10.71,46.34,10.99
,-9.162,0.835,-5.099,-9.083,0.002,-5.468,9.66,46.62,10.43
,-9.127,0.749,-5.353,-9.153,0.213,-5.528,8.33,47.18,10.15
32861.0,-8.72,0.73,-5.118,-9.11,1.06,-4.458,18.9,49.98,13.51
,-9.452,1.701,-4.862,-9.399,0.426,-4.367,22.4,50.96,13.09
,-8.825,0.069,-4.496,-9.22,0.742,-4.587,21.91,52.85,10.78
,-9.088,0.56,-4.487,-9.237,0.517,-4.743,25.55,54.53,9.87
32937.0,-9.198,0.349,-4.858,-11.237,3.486,-5.554,24.57,63.7,6.44
,-9.043,0.017,-4.853,-10.313,-0.536,-5.035,25.41,65.52,6.3
,-9.112,0.055,-5.044,-9.16,-3.159,-4.011,28.84,67.62,6.09
,-9.895,2.754,-4.661,-9.332,-1.263,-3.503,36.33,69.44,4.27
33013.0,-9.629,-0.412,-3.18,-10.555,-0.302,-3.068,38.57,82.11,6.93
,-9.421,-1.211,-2.912,-10.502,-1.151,-3.056,35.42,86.24,7.42
,-9.215,-1.933,-2.4,-10.304,-2.134,-2.915,36.12,91.35,9.38
,-9.866,-0.773,-2.793,-10.206,-2.139,-2.553,45.36,96.39,10.78
33089.0,-10.495,-1.778,-2.462,-9.548,-0.931,-4.96,69.44,115.36,25.62
,-10.83,-1.531,-2.505,-8.997,-0.505,-5.805,79.17,118.51,30.1
,-10.737,-1.486,-2.917,-9.165,0.625,-7.315,86.1,121.31,33.67
,-10.428,-1.086,-3.872,-9.418,1.232,-8.263,92.12,123.97,36.05
33164.0,-9.658,1.108,-8.875,-8.964,0.263,-10.139,88.76,130.76,30.38
,-9.596,1.254,-9.227,-7.48,1.826,-11.024,76.65,124.95,29.47
,-8.787,1.314,-8.99,-6.837,1.95,-11.412,63.63,115.85,26.81
,-7.595,1.335,-10.847,-5.767,1.345,-11.452,63.14,109.2,27.23
33240.0,-4.515,0.457,-11.661,-5.315,-0.814,-9.751,2.73,31.29,19.04
,-4.235,-0.696,-11.122,-5.463,-0.045,-9.615,-6.65,23.17,18.34
,-4.726,-1.352,-10.491,-5.341,0.127,-9.277,-9.59,12.25,17.5
,-5.073,-1.314,-10.179,-5.123,-0.024,-9.131,-8.47,-3.08,16.45
33315.0,-4.702,-0.225,-8.969,-3.53,-0.445,-9.543,-22.33,-88.13,19.04
,-4.429,-0.39,-9.258,-3.338,-1.01,-9.308,-23.8,-103.81,20.65
,-4.326,-0.419,-9.265,-3.549,-1.376,-9.04,-23.73,-117.74,18.62
,-3.958,-0.335,-9.167,-3.685,-1.649,-8.99,-25.48,-130.76,15.96
33391.0,-4.176,-1.689,-8.957,-4.243,-0.517,-9.076,-15.33,-175.14,3.99
,-4.329,-1.529,-8.911,-4.188,-0.596,-9.292,-9.31,-182.63,3.57
,-4.413,-1.244,-8.909,-4.121,-0.759,-9.127,-5.39,-189.63,4.69
,-4.401,-0.794,-8.882,-4.681,-0.704,-8.734,-6.3,-197.4,5.18
33467.0,-5.276,-0.447,-8.497,-5.461,0.065,-8.617,-11.41,-221.97,4.9
,-5.31,0.01,-8.775,-5.564,-0.17,-7.899,-14.77,-226.52,2.66
,-5.329,0.251,-8.65,-6.123,-0.392,-7.638,-19.95,-229.81,0.21
,-5.451,0.172,-8.557,-6.384,-0.572,-7.37,-25.41,-233.03,-2.8
33543.0,-6.624,-0.873,-6.949,-6.954,-1.055,-3.644,-23.94,-236.04,-12.6
,-6.987,-0.648,-6.894,-8.002,-1.395,-3.64,-22.54,-234.99,-13.3
,-7.583,-0.294,-6.291,-8.921,-0.646,-3.125,-23.03,-232.54,-13.93
,-7.332,-0.589,-5.157,-9.495,-0.285,-2.386,-31.85,-228.48,-12.46
33618.0,-9.294,1.003,-2.355,-8.373,-2.73,0.349,-19.25,-181.44,-24.5
,-8.916,1.251,-1.783,-8.265,-2.795,1.146,-37.87,-167.93,-28.42
,-8.49,-0.041,-0.811,-8.138,-2.34,1.388,-58.38,-151.9,-29.89
,-8.536,-1.776,-0.177,-7.913,-1.735,1.515,-70.14,-133.35,-29.05
33694.0,-7.832,-1.247,1.223,-7.913,0.136,-1.512,-40.25,-13.37,-5.95
,-7.83,-1.036,0.847,-8.148,0.156,-2.228,-39.9,12.53,-1.89
,-7.87,-0.821,0.165,-10.323,-1.536,-3.072,-39.97,36.75,2.1
,-8.002,-0.251,-0.735,-19.866,-9.574,1.146,-40.74,58.73,5.32
33770.0,-19.976,-7.038,3.601,-10.68,-5.681,-2.587,1.26,64.96,33.32
,-10.175,0.715,-1.651,-9.428,-3.601,-4.008,19.67,63.49,14.28
,-7.195,0.972,-1.979,-7.657,-0.409,-3.963,-14.77,70.21,6.93
,-9.383,-3.101,-1.46,-8.143,2.328,-3.252,-44.24,77.07,13.65
33846.0,-9.593,2.099,-3.439,-8.102,-0.108,-5.571,4.34,82.18,18.83
,-9.636,1.531,-4.432,-9.007,-0.483,-4.786,-10.64,79.45,13.09
,-8.595,1.589,-5.592,-9.576,0.189,-4.642,-19.11,79.03,10.92
,-7.729,0.995,-5.93,-10.194,0.94,-4.439,-25.13,79.59,11.69
33922.0,-10.194,1.096,-4.054,-8.629,-0.294,-4.413,-8.33,61.39,14.91
,-9.686,0.345,-3.927,-9.048,0.414,-4.094,-13.79,59.29,15.96
,-8.954,-0.574,-4.104,-9.27,0.94,-3.558,-10.5,57.82,17.15
,-8.574,-0.744,-4.262,-9.347,0.598,-3.233,1.54,55.93,17.99
33997.0,-9.67,0.656,-3.412,-9.198,0.677,-3.18,-15.54,45.64,8.33
,-9.545,1.345,-3.685,-9.416,1.431,-3.372,-16.87,44.38,6.37
,-9.162,1.299,-3.754,-9.529,2.132,-3.446,-20.51,43.12,6.79
,-8.976,0.646,-3.29,-9.375,2.087,-3.647,-18.55,41.86,8.68
34073.0,-9.172,1.4,-3.592,-9.072,0.895,-4.446,-15.75,37.31,6.86
,-9.129,0.718,-3.719,-8.99,0.704,-4.499,-18.27,36.75,6.09
,-9.213,0.342,-3.891,-8.978,0.704,-4.475,-14.91,36.26,5.67
,-9.22,0.687,-4.259,-9.146,1.007,-4.594,-9.03,35.84,5.67
34148.0,-9.115,1.22,-4.877,-8.981,-0.73,-4.779,-5.95,27.51,4.41
,-8.973,0.778,-4.915,-9.028,-0.388,-4.692,-10.85,25.69,3.43
,-8.981,0.22,-5.016,-9.045,0.151,-4.537,-13.16,24.29,2.87
,-8.947,-0.629,-4.846,-9.081,0.78,-4.444,-11.9,23.66,3.08
34224.0,-9.15,1.184,-4.188,-9.026,0.419,-3.697,-4.48,21.14,2.1
,-9.198,1.259,-4.13,-9.031,0.491,-3.62,-10.43,20.16,1.05
,-9.143,0.974,-3.982,-9.139,0.814,-3.676,-16.94,19.32,0.35
,-8.99,0.739,-3.821,-9.093,0.526,-3.611,-20.09,18.97,0.35
34300.0,-9.103,-0.218,-3.692,-8.863,0.091,-3.47,-20.37,22.4,1.68
,-8.981,-0.854,-3.733,-8.981,0.258,-3.293,-16.03,23.8,2.66
,-8.966,-0.763,-3.716,-9.067,0.081,-3.089,-9.52,25.27,3.85
,-8.976,-0.364,-3.647,-9.119,0.0,-2.955,-5.46,26.39,3.99
34376.0,-9.332,0.261,-2.977,-8.772,0.342,-3.812,-4.55,33.95,3.92
,-8.871,1.0,-3.23,-8.82,-0.16,-4.08,-4.2,35.07,3.92
,-8.65,1.165,-3.324,-8.83,-0.022,-4.448,-5.04,36.4,4.97
,-8.763,0.974,-3.542,-8.775,0.06,-4.855,-6.93,37.73,5.32
34451.0,-8.701,-0.124,-5.166,-8.77,0.407,-5.918,8.61,45.57,9.52
,-8.643,0.124,-5.489,-8.835,0.342,-5.69,10.85,46.27,9.87
,-8.763,0.304,-5.779,-9.021,0.541,-5.272,12.46,46.55,9.52
,-8.815,0.359,-5.973,-9.167,0.945,-5.035,12.32,46.13,8.82
34527.0,-9.543,1.149,-4.681,-9.706,0.526,-4.015,19.81,48.37,7.49
,-9.895,1.256,-4.69,-9.471,0.294,-4.015,19.04,51.17,6.3
,-9.158,-0.467,-4.168,-9.727,0.792,-3.999,20.51,51.66,6.37
,-9.28,0.983,-4.185,-10.474,2.254,-3.893,25.55,54.04,7.7
34603.0,-11.347,3.285,-4.661,-10.081,-0.136,-4.049,32.13,66.57,1.26
,-10.706,-0.244,-4.549,-9.66,-1.101,-4.319,18.62,68.67,-1.4
,-9.732,-2.929,-3.867,-9.069,-2.149,-4.271,21.98,72.31,1.54
,-9.981,-1.333,-3.649,-9.182,-1.823,-4.13,37.45,76.79,5.53
34679.0,-9.588,-1.034,-4.003,-10.435,-1.543,-2.197,46.76,91.84,6.02
,-9.832,-0.704,-3.817,-10.601,-1.665,-1.771,48.37,94.71,5.95
,-10.005,-0.955,-3.338,-10.735,-1.776,-1.711,48.02,98.14,7.28
,-10.239,-1.378,-2.649,-10.986,-1.912,-1.912,49.14,102.34,10.15
34755.0,-11.0,-1.78,-2.441,-8.847,-0.01,-7.217,80.64,123.9,34.65
,-10.598,-1.646,-3.218,-8.83,1.189,-8.265,88.76,126.21,37.45
,-9.978,-1.132,-4.496,-8.938,2.065,-9.569,96.67,126.84,37.94
,-9.258,-0.646,-5.738,-8.76,2.314,-10.1,103.39,126.49,36.75
34830.0,-8.552,2.027,-10.514,-6.31,-0.108,-10.519,60.41,115.85,20.72
,-7.968,1.625,-10.347,-5.741,0.316,-11.541,44.94,108.08,18.34
,-7.353,1.137,-10.569,-5.587,-0.981,-9.993,32.62,97.72,16.31
,-6.815,0.44,-10.424,-4.288,0.053,-10.268,25.27,85.96,15.19
34906.0,-3.408,-0.199,-10.67,-4.728,-0.467,-9.404,-2.03,20.16,16.1
,-3.18,-0.67,-10.627,-4.788,0.086,-9.103,-9.17,11.48,15.47
,-3.317,-1.086,-10.864,-4.69,0.316,-8.863,-12.18,1.12,15.89
,-3.802,-1.271,-9.789,-4.336,0.227,-8.981,-8.26,-10.57,15.82
34981.0,-3.714,0.031,-9.0,-3.309,-1.259,-8.978,-15.4,-92.61,16.73
,-3.431,-0.486,-9.005,-3.343,-1.673,-8.921,-18.34,-105.63,16.73
,-3.154,-0.737,-8.839,-3.4,-1.898,-9.107,-19.18,-117.67,14.49
,-3.448,-0.986,-8.949,-3.13,-1.895,-9.433,-19.81,-130.06,11.69
35057.0,-3.463,-1.744,-9.155,-4.925,-0.522,-8.861,-13.3,-174.51,6.44
,-4.013,-1.362,-8.856,-5.016,-0.354,-8.93,-10.64,-180.39,7.21
,-4.48,-1.125,-8.681,-4.953,-0.325,-9.052,-10.08,-186.83,7.7
,-4.841,-0.694,-8.863,-4.893,-0.495,-9.476,-11.97,-193.9,8.12
35133.0,-4.748,-0.632,-9.428,-5.925,-0.333,-7.777,-32.13,-216.37,2.73
,-5.061,-0.849,-8.842,-6.193,-0.182,-7.612,-28.63,-217.77,0.28
,-5.444,-0.814,-8.301,-6.322,-0.168,-7.267,-23.45,-218.96,-2.38
,-5.681,-0.447,-8.045,-6.647,-0.337,-6.918,-19.53,-220.29,-4.97
35209.0,-7.095,-0.601,-6.463,-8.689,-0.888,-4.307,-23.31,-212.38,-12.25
,-7.291,-0.823,-5.793,-9.067,-0.486,-4.104,-22.05,-208.67,-14.28
,-7.633,-0.986,-5.075,-9.1,-0.639,-3.34,-17.71,-203.7,-15.4
,-8.256,-1.108,-4.556,-9.44,-0.364,-3.104,-13.44,-197.61,-14.84
35284.0,-9.572,-0.605,-2.352,-9.052,-1.338,-0.369,-17.64,-161.0,-22.61
,-9.177,-0.869,-1.656,-8.402,-0.962,-0.335,-22.47,-151.27,-22.54
,-9.184,-1.079,-1.661,-8.234,-1.139,0.392,-24.15,-140.21,-21.84
,-9.488,-1.515,-0.924,-8.004,-1.173,1.0,-25.55,-128.66,-19.74
35360.0,-7.971,-1.302,1.479,-7.842,-0.05,-0.39,-31.64,-42.0,-10.71
,-8.055,-1.359,1.512,-7.789,0.218,-0.816,-30.73,-19.53,-7.0
,-8.131,-1.084,0.936,-8.626,-0.237,-1.661,-31.85,2.45,-3.29
,-7.964,-0.536,0.148,-13.458,-4.24,-1.558,-35.49,23.45,-0.28
35436.0,-18.669,-7.37,3.135,-10.694,-7.148,0.273,-35.07,61.6,17.57
,-13.451,-1.917,0.651,-10.282,-6.31,-0.239,-3.5,50.4,14.49
,-8.354,0.792,-0.445,-10.68,-1.505,-1.173,-11.27,48.58,-0.21
,-8.844,-2.922,-0.419,-10.459,2.666,-2.864,-39.62,53.2,1.4
35512.0,-9.725,3.384,-3.513,-8.294,0.967,-4.685,19.67,91.84,26.39
,-8.789,2.218,-4.439,-8.653,1.732,-4.424,1.26,90.86,22.47
,-7.681,0.541,-4.252,-8.993,2.058,-4.219,-10.36,87.43,19.32
,-7.839,0.153,-4.063,-9.251,1.646,-4.357,-9.52,82.74,20.72
35587.0,-9.564,0.78,-4.338,-8.717,-1.192,-3.848,-22.33,60.06,11.83
,-9.809,0.057,-3.81,-8.497,-0.646,-4.058,-23.31,56.7,13.72
,-9.959,-0.711,-3.821,-9.05,0.467,-4.537,-24.57,54.39,14.49
,-9.351,-1.12,-3.604,-9.548,1.519,-4.719,-24.5,53.27,13.86
35663.0,-9.402,2.235,-4.594,-9.337,0.455,-3.857,-24.01,42.14,4.06
,-9.103,1.505,-4.489,-9.56,0.771,-3.903,-38.5,38.64,2.17
,-9.261,0.053,-4.133,-9.557,1.06,-3.757,-43.47,35.98,0.98
,-9.478,-0.184,-3.922,-9.325,1.089,-3.826,-37.73,34.3,1.12
35739.0,-9.292,0.56,-3.544,-9.359,-0.189,-3.398,-26.81,26.32,5.04
,-9.284,0.074,-3.484,-9.253,-0.103,-3.384,-26.88,25.62,5.11
,-9.249,-0.242,-3.429,-9.397,-0.108,-3.549,-24.5,25.69,5.32
,-9.328,-0.328,-3.338,-9.292,-0.141,-3.841,-21.21,25.97,5.46
35814.0,-9.222,-0.273,-4.099,-8.851,0.211,-5.008,-5.32,25.76,8.89
,-9.251,-0.156,-4.621,-8.875,0.371,-4.731,-0.42,24.71,9.66
,-8.99,0.179,-4.999,-9.263,0.555,-4.432,4.06,23.1,10.36
,-8.856,0.163,-5.169,-9.366,0.68,-4.305,6.44,21.77,11.2
35890.0,-9.213,0.775,-3.967,-9.284,0.871,-3.685,3.92,16.24,10.08
,-9.273,0.852,-3.75,-9.153,0.668,-3.778,2.52,16.31,10.22
,-9.373,0.797,-3.609,-8.935,0.316,-3.494,2.24,16.1,9.38
,-9.344,0.931,-3.671,-9.016,0.124,-3.58,1.68,15.96,8.19
35966.0,-9.241,0.129,-3.206,-9.148,-0.208,-3.24,-7.0,15.96,3.5
,-9.217,0.335,-3.458,-9.282,0.239,-3.187,-8.61,16.38,2.38
,-9.158,0.428,-3.475,-9.232,1.074,-3.484,-10.85,17.01,2.1
,-9.11,0.144,-3.331,-9.115,1.194,-3.64,-11.76,18.13,2.59
36042.0,-9.04,0.842,-3.821,-8.815,0.187,-3.984,-1.4,20.79,4.83
,-9.043,0.625,-4.058,-8.882,0.294,-3.716,-1.19,20.65,4.34
,-9.081,0.639,-4.243,-9.153,0.625,-3.551,-0.63,20.3,3.64
,-8.961,0.455,-4.276,-9.162,0.869,-3.508,-1.68,19.88,2.87
36117.0,-9.117,0.857,-3.604,-8.684,-0.524,-4.355,-3.57,21.21,1.96
,-8.993,0.498,-3.783,-8.696,-0.718,-4.288,-5.11,22.05,1.82
,-8.837,0.335,-3.979,-9.031,-0.158,-4.525,-4.76,22.26,1.89
,-8.636,0.177,-4.192,-9.17,0.311,-4.697,-3.15,22.68,2.87
36193.0,-9.048,0.68,-5.056,-8.691,0.175,-5.016,14.63,23.17,6.93
,-8.631,1.034,-5.286,-8.796,0.361,-5.051,13.93,22.61,6.51
,-8.397,0.857,-5.284,-8.756,0.512,-5.023,11.55,21.91,5.95
,-8.464,0.203,-5.135,-8.67,0.562,-5.097,11.41,21.35,6.37
36269.0,-8.473,0.512,-5.02,-8.777,1.027,-4.781,28.0,20.3,9.03
,-8.488,0.639,-4.949,-8.713,1.129,-4.838,30.24,20.3,9.38
,-8.806,0.943,-4.879,-8.581,1.096,-4.994,33.18,20.23,9.45
,-8.777,1.019,-4.783,-8.49,0.469,-5.312,35.77,20.58,9.8
36345.0,-8.504,0.148,-5.446,-9.184,1.352,-5.848,42.14,21.56,9.94
,-8.713,0.342,-5.535,-9.287,1.132,-5.858,47.88,21.91,11.13
,-8.947,0.744,-5.647,-9.462,1.074,-5.803,53.48,22.05,11.9
,-9.069,1.122,-5.796,-9.514,1.129,-5.779,57.68,22.05,12.32
36420.0,-9.359,0.266,-5.604,-8.748,-1.484,-4.13,65.8,21.84,11.13
,-8.899,-1.182,-5.255,-8.514,-1.792,-4.152,65.66,22.47,12.81
,-8.806,-1.972,-4.819,-8.701,-0.55,-4.011,72.1,24.01,15.82
,-8.875,-1.807,-4.599,-9.636,1.615,-4.683,81.2,25.55,18.41
36496.0,-8.887,0.519,-5.461,-8.634,-0.713,-6.774,99.12,34.3,25.83
,-8.839,-1.464,-5.793,-8.457,-0.873,-6.796,97.09,34.51,22.82
,-9.143,-0.524,-6.289,-7.806,-0.491,-6.619,99.12,33.25,23.03
,-8.863,-0.299,-6.671,-7.775,-0.077,-6.545,96.18,32.2,22.54
36571.0,-7.791,0.357,-6.296,-8.002,-0.287,-5.439,79.87,23.17,10.78
,-7.746,0.407,-6.006,-8.141,-0.591,-5.296,71.26,21.42,7.91
,-7.77,0.168,-5.736,-8.083,-0.854,-5.284,63.14,20.02,5.25
,-7.834,-0.057,-5.568,-7.976,-1.077,-5.437,57.54,19.04,3.29
36647.0,-7.808,-1.17,-5.592,-7.641,-1.046,-6.25,50.96,18.69,4.2
,-7.767,-1.199,-5.676,-7.731,-1.235,-6.322,52.99,18.97,5.81
,-7.7,-1.165,-5.829,-7.784,-1.278,-6.442,54.88,19.18,7.07
,-7.595,-1.048,-6.011,-7.607,-1.168,-6.439,56.63,19.32,8.12
36723.0,-7.552,-1.01,-6.741,-7.466,-0.945,-7.188,57.26,16.45,12.11
,-7.394,-0.792,-6.877,-7.315,-1.072,-7.088,57.47,15.19,12.81
,-7.404,-0.682,-7.038,-7.375,-1.082,-6.805,57.4,13.79,13.51
,-7.545,-0.794,-7.157,-7.289,-0.94,-6.535,56.77,12.25,14.14
36799.0,-7.306,-0.751,-6.382,-7.251,-1.177,-5.92,61.88,11.76,28.28
,-7.128,-0.83,-6.289,-7.117,-1.409,-5.946,63.77,12.74,32.34
,-7.064,-0.95,-6.116,-7.145,-1.359,-6.198,66.57,13.86,36.61
,-7.114,-1.022,-5.968,-7.157,-1.268,-6.444,70.49,14.84,41.37
36875.0,-7.353,-1.342,-6.6,-7.162,-0.038,-6.279,95.55,17.57,64.75
,-7.198,-1.127,-6.741,-6.868,0.598,-6.566,100.66,17.36,68.53
,-6.985,-0.73,-6.827,-6.882,0.227,-6.542,105.42,17.22,72.38
,-7.215,-0.756,-6.15,-6.99,-0.493,-6.449,108.78,16.66,74.97
36950.0,-6.904,-1.101,-6.525,-7.499,-1.108,-6.399,98.07,5.25,81.97
,-6.877,-1.627,-6.36,-7.521,-0.933,-6.423,103.11,3.57,85.82
,-7.023,-1.685,-6.255,-7.588,-1.235,-6.478,110.88,2.24,90.58
,-7.176,-1.431,-6.36,-7.385,-1.61,-6.21,119.0,0.77,94.15
37026.0,-7.332,-1.802,-5.951,-7.748,-1.338,-4.908,138.18,-6.09,102.2
,-7.425,-2.005,-5.501,-7.87,-0.847,-4.618,144.06,-5.74,103.81
,-7.504,-2.075,-5.205,-8.215,-0.522,-4.535,147.7,-5.32,104.65
,-7.509,-1.699,-5.025,-8.088,-0.395,-4.515,149.66,-5.11,104.44
37102.0,-8.571,-0.493,-4.92,-8.519,-2.57,-4.917,116.76,1.75,82.6
,-8.882,-0.751,-5.02,-8.366,-2.869,-5.063,108.57,2.66,77.63
