Timestamp,AccX,AccY,AccZ,GyroX,GyroY,GyroZ,MagnX,MagnY,MagnZ
0.0,-9.43,-0.321,-3.039,-9.435,-0.211,-3.032,2.73,1.26,0.49
,-9.459,-0.256,-3.034,-9.438,-0.244,-3.089,2.94,1.47,0.49
,-9.43,-0.285,-3.039,-9.402,-0.347,-3.049,3.08,1.61,0.49
,-9.474,-0.285,-3.087,-9.416,-0.263,-3.017,3.22,1.61,0.49
75.0,-9.418,-0.254,-3.08,-9.459,-0.342,-3.039,2.87,1.47,0.42
,-9.416,-0.323,-3.041,-9.428,-0.309,-3.029,3.01,1.61,0.42
,-9.409,-0.347,-3.063,-9.445,-0.278,-3.034,3.22,1.68,0.7
,-9.397,-0.349,-3.046,-9.478,-0.323,-3.025,3.15,1.75,0.7
150.0,-9.452,-0.328,-3.003,-9.359,-0.297,-3.106,2.24,1.75,0.77
,-9.464,-0.285,-3.015,-9.426,-0.28,-3.113,2.17,1.68,0.84
,-9.44,-0.302,-3.099,-9.457,-0.282,-3.075,2.31,1.75,0.84
,-9.478,-0.263,-3.08,-9.395,-0.33,-3.12,2.38,1.89,0.77
226.0,-9.418,-0.306,-3.173,-9.416,-0.316,-3.118,2.31,1.4,0.77
,-9.399,-0.275,-3.139,-9.409,-0.309,-3.096,2.38,1.47,0.84
,-9.385,-0.357,-3.118,-9.416,-0.309,-3.08,2.31,1.54,0.91
,-9.402,-0.316,-3.132,-9.423,-0.306,-3.058,2.38,1.19,0.77
302.0,-9.399,-0.337,-3.063,-9.433,-0.266,-3.039,2.1,0.98,0.84
,-9.421,-0.349,-3.049,-9.464,-0.246,-3.061,2.31,0.98,0.84
,-9.44,-0.328,-3.005,-9.454,-0.302,-3.008,2.52,1.19,1.05
,-9.462,-0.263,-2.991,-9.416,-0.287,-3.025,2.73,1.26,1.05
378.0,-9.423,-0.309,-3.051,-9.418,-0.311,-3.132,2.87,1.54,0.98
,-9.438,-0.256,-3.084,-9.43,-0.297,-3.142,2.87,1.4,0.98
,-9.416,-0.261,-3.123,-9.466,-0.28,-3.18,2.66,1.4,0.98
,-9.447,-0.292,-3.139,-9.447,-0.232,-3.132,2.8,1.47,0.98
453.0,-9.464,-0.251,-3.13,-9.44,-0.201,-3.123,3.15,1.19,0.84
,-9.426,-0.28,-3.147,-9.433,-0.297,-3.082,3.15,0.98,0.84
,-9.395,-0.235,-3.096,-9.428,-0.273,-2.996,3.22,0.77,0.7
,-9.423,-0.203,-3.108,-9.407,-0.325,-3.061,3.29,0.63,0.63
529.0,-9.426,-0.299,-3.013,-9.421,-0.321,-2.962,3.64,0.7,0.56
,-9.416,-0.258,-2.984,-9.445,-0.321,-2.958,3.64,0.91,0.77
,-9.483,-0.261,-2.95,-9.495,-0.306,-2.955,3.29,0.84,0.56
,-9.462,-0.256,-2.986,-9.428,-0.278,-2.922,2.87,1.12,0.49
605.0,-9.457,-0.294,-2.962,-9.445,-0.29,-3.08,2.31,1.61,0.63
,-9.435,-0.325,-3.025,-9.45,-0.323,-3.142,2.31,1.82,0.7
,-9.452,-0.266,-3.049,-9.433,-0.287,-3.161,2.45,2.1,0.7
,-9.452,-0.275,-3.094,-9.411,-0.268,-3.171,2.45,2.03,0.63
681.0,-9.399,-0.273,-3.197,-9.416,-0.287,-3.051,2.59,1.54,0.49
,-9.442,-0.313,-3.161,-9.404,-0.256,-3.07,2.73,1.26,0.56
,-9.395,-0.302,-3.118,-9.438,-0.294,-3.005,2.8,0.84,0.49
,-9.411,-0.29,-3.132,-9.421,-0.304,-3.027,2.94,1.12,0.56
756.0,-9.423,-0.325,-3.02,-9.469,-0.29,-2.974,2.94,1.12,0.56
,-9.414,-0.311,-3.022,-9.497,-0.333,-2.955,2.94,1.05,0.63
,-9.442,-0.302,-2.934,-9.452,-0.323,-3.025,2.87,1.33,0.63
,-9.45,-0.342,-2.929,-9.438,-0.309,-3.041,2.59,1.12,0.56
832.0,-9.414,-0.28,-3.051,-9.411,-0.278,-3.07,2.52,1.89,0.7
,-9.421,-0.278,-3.087,-9.428,-0.263,-3.072,2.45,1.68,0.77
,-9.438,-0.328,-3.094,-9.464,-0.246,-3.063,2.59,1.54,0.63
,-9.462,-0.263,-3.072,-9.402,-0.282,-3.034,2.66,1.54,0.63
908.0,-9.411,-0.294,-3.065,-9.407,-0.297,-3.063,2.73,1.47,0.7
,-9.421,-0.337,-3.051,-9.438,-0.278,-3.017,2.87,1.4,0.77
,-9.45,-0.333,-3.084,-9.454,-0.306,-3.051,3.01,1.33,0.7
,-9.454,-0.297,-3.046,-9.464,-0.333,-3.077,3.15,1.33,0.77
983.0,-9.435,-0.325,-3.058,-9.399,-0.321,-3.106,3.08,1.54,0.63
,-9.438,-0.294,-3.051,-9.428,-0.357,-3.156,3.22,1.26,0.63
,-9.462,-0.273,-3.118,-9.442,-0.285,-3.068,3.01,1.19,0.56
,-9.399,-0.311,-3.12,-9.43,-0.249,-3.046,2.87,1.33,0.63
1059.0,-9.45,-0.282,-3.039,-9.452,-0.29,-2.946,2.94,1.19,0.56
,-9.404,-0.33,-3.017,-9.476,-0.361,-2.938,3.01,1.19,0.56
,-9.44,-0.313,-2.953,-9.466,-0.38,-3.01,3.01,1.05,0.42
,-9.438,-0.309,-2.96,-9.43,-0.34,-3.01,3.15,1.19,0.63
1135.0,-9.466,-0.287,-3.017,-9.471,-0.28,-3.058,2.66,1.54,0.7
,-9.411,-0.352,-3.029,-9.459,-0.345,-3.116,2.38,1.68,0.7
,-9.411,-0.34,-3.082,-9.426,-0.304,-3.116,2.45,1.68,0.63
,-9.459,-0.294,-3.063,-9.433,-0.328,-3.142,2.73,1.68,0.7
1211.0,-9.452,-0.266,-3.12,-9.428,-0.33,-3.025,2.73,1.19,0.7
,-9.44,-0.316,-3.096,-9.423,-0.313,-3.037,2.94,1.05,0.7
,-9.421,-0.306,-3.099,-9.454,-0.337,-2.982,2.94,0.91,0.7
,-9.404,-0.309,-3.082,-9.462,-0.369,-2.953,2.73,0.98,0.7
1286.0,-9.452,-0.299,-2.96,-9.457,-0.321,-3.039,3.08,1.26,0.77
,-9.45,-0.302,-2.953,-9.43,-0.328,-3.039,2.94,1.4,0.91
,-9.435,-0.333,-2.984,-9.433,-0.282,-3.034,2.87,1.4,0.84
,-9.445,-0.352,-2.974,-9.44,-0.29,-3.037,2.87,1.54,0.91
1362.0,-9.44,-0.335,-3.049,-9.447,-0.309,-3.037,2.59,1.4,0.77
,-9.392,-0.337,-3.068,-9.44,-0.318,-3.022,2.59,1.47,0.77
,-9.462,-0.29,-3.046,-9.445,-0.29,-3.108,2.59,1.54,0.84
,-9.44,-0.309,-3.032,-9.45,-0.318,-3.104,2.66,1.54,0.77
1438.0,-9.421,-0.309,-3.046,-9.433,-0.352,-3.013,2.59,1.54,0.7
,-9.428,-0.29,-3.075,-9.454,-0.309,-3.027,2.73,1.54,0.84
,-9.447,-0.278,-3.017,-9.447,-0.297,-3.02,2.73,1.54,0.84
,-9.442,-0.285,-3.005,-9.433,-0.325,-3.046,2.59,1.47,0.77
1514.0,-9.428,-0.337,-3.044,-9.464,-0.313,-3.104,2.73,1.68,0.7
,-9.423,-0.28,-3.111,-9.407,-0.294,-3.128,2.73,1.68,0.7
,-9.414,-0.304,-3.123,-9.411,-0.333,-3.044,2.66,1.61,0.7
,-9.426,-0.349,-3.125,-9.464,-0.282,-3.015,2.73,1.54,0.63
1589.0,-9.454,-0.316,-3.008,-9.418,-0.309,-2.991,2.59,1.33,0.56
,-9.462,-0.321,-2.974,-9.438,-0.309,-2.986,2.66,1.26,0.7
,-9.445,-0.311,-2.989,-9.43,-0.352,-3.01,2.8,1.26,0.77
,-9.438,-0.287,-2.948,-9.421,-0.345,-3.049,2.59,1.19,0.77
1665.0,-9.44,-0.352,-3.065,-9.43,-0.323,-3.077,2.31,1.61,0.77
,-9.43,-0.328,-3.063,-9.399,-0.34,-3.077,2.31,1.61,0.84
,-9.414,-0.311,-3.061,-9.43,-0.323,-3.087,2.45,1.68,0.91
,-9.45,-0.29,-3.116,-9.433,-0.297,-3.089,2.38,1.61,0.91
1740.0,-9.438,-0.292,-3.12,-9.469,-0.316,-3.044,2.73,1.26,0.98
,-9.438,-0.261,-3.056,-9.464,-0.27,-3.041,2.59,1.26,0.91
,-9.445,-0.306,-3.037,-9.442,-0.266,-3.022,2.52,1.19,0.77
,-9.423,-0.318,-3.034,-9.433,-0.278,-3.017,2.59,1.19,0.84
1816.0,-9.457,-0.328,-3.029,-9.435,-0.299,-3.068,2.31,1.26,0.7
,-9.392,-0.311,-3.017,-9.43,-0.311,-3.051,2.38,1.33,0.77
,-9.421,-0.302,-3.027,-9.395,-0.304,-3.07,2.38,1.54,0.77
,-9.45,-0.321,-3.044,-9.397,-0.354,-3.037,2.45,1.4,0.84
1892.0,-9.474,-0.285,-3.099,-9.421,-0.287,-3.13,2.66,1.26,0.84
,-9.471,-0.278,-3.101,-9.426,-0.249,-3.099,2.52,1.26,0.91
,-9.421,-0.306,-3.075,-9.447,-0.282,-3.07,2.52,1.4,0.84
,-9.428,-0.359,-3.087,-9.428,-0.294,-3.051,2.66,1.19,0.84
1968.0,-9.442,-0.297,-3.051,-9.45,-0.311,-2.955,2.94,0.98,0.84
,-9.493,-0.273,-3.013,-9.471,-0.371,-2.984,3.22,0.98,0.84
,-9.464,-0.294,-2.941,-9.435,-0.33,-2.986,3.15,1.05,0.77
,-9.44,-0.268,-2.958,-9.433,-0.309,-3.001,2.87,1.05,0.7
2044.0,-9.433,-0.28,-3.025,-9.407,-0.246,-3.072,3.36,1.47,0.84
,-9.459,-0.249,-3.077,-9.426,-0.263,-3.075,3.43,1.54,0.91
,-9.478,-0.297,-3.039,-9.407,-0.263,-3.065,3.22,1.68,0.77
,-9.414,-0.313,-3.039,-9.445,-0.323,-3.017,3.29,1.54,0.63
2119.0,-9.45,-0.316,-3.08,-9.416,-0.335,-2.986,3.57,1.4,0.7
,-9.474,-0.29,-3.015,-9.44,-0.313,-3.022,3.43,1.26,0.7
,-9.45,-0.33,-2.972,-9.445,-0.313,-3.015,3.15,1.12,0.7
,-9.474,-0.371,-2.998,-9.478,-0.352,-3.022,2.94,1.26,0.49
2195.0,-9.481,-0.359,-3.022,-9.421,-0.273,-3.056,1.89,1.54,0.49
,-9.428,-0.342,-3.039,-9.435,-0.299,-3.07,2.1,1.61,0.63
,-9.409,-0.29,-3.049,-9.43,-0.306,-3.089,2.03,1.54,0.63
,-9.454,-0.273,-2.996,-9.426,-0.304,-3.099,2.17,1.47,0.56
2271.0,-9.428,-0.304,-3.116,-9.395,-0.321,-3.084,2.87,1.05,0.63
,-9.423,-0.302,-3.108,-9.452,-0.316,-3.01,2.87,0.98,0.7
,-9.409,-0.335,-3.07,-9.418,-0.347,-3.068,2.94,1.05,0.7
,-9.454,-0.352,-3.096,-9.505,-0.354,-3.065,3.01,0.98,0.77
2347.0,-9.423,-0.299,-3.034,-9.435,-0.287,-2.996,3.29,0.7,0.84
,-9.433,-0.311,-3.044,-9.462,-0.304,-2.972,3.22,0.84,0.77
,-9.433,-0.282,-3.008,-9.478,-0.313,-3.013,3.22,0.77,0.84
,-9.435,-0.297,-2.989,-9.423,-0.337,-2.979,3.01,0.91,0.7
2422.0,-9.435,-0.342,-2.982,-9.452,-0.316,-2.979,2.94,0.84,0.77
,-9.474,-0.287,-2.965,-9.469,-0.333,-2.982,2.94,0.77,0.77
,-9.445,-0.299,-2.948,-9.474,-0.285,-2.989,2.73,0.84,0.7
,-9.423,-0.321,-2.974,-9.488,-0.321,-3.027,2.52,1.05,0.7
2498.0,-9.464,-0.321,-3.005,-9.416,-0.325,-3.068,2.52,1.4,0.7
,-9.426,-0.309,-2.967,-9.438,-0.28,-3.075,2.59,1.54,0.7
,-9.435,-0.285,-2.998,-9.44,-0.287,-3.075,2.31,1.61,0.7
,-9.483,-0.371,-2.996,-9.454,-0.27,-3.082,2.38,1.61,0.7
2573.0,-9.414,-0.297,-3.063,-9.435,-0.321,-3.027,2.45,1.12,0.7
,-9.399,-0.297,-3.101,-9.43,-0.323,-3.001,2.73,1.05,0.7
,-9.423,-0.208,-3.096,-9.495,-0.313,-3.001,2.73,0.98,0.7
,-9.407,-0.294,-3.094,-9.442,-0.256,-2.938,2.52,0.84,0.42
2649.0,-9.471,-0.311,-2.931,-9.45,-0.34,-2.967,2.52,0.91,0.49
,-9.433,-0.313,-2.948,-9.485,-0.313,-3.025,2.52,1.26,0.63
,-9.43,-0.311,-2.934,-9.411,-0.359,-3.049,2.38,1.33,0.63
,-9.476,-0.309,-2.979,-9.423,-0.349,-3.063,2.59,1.33,0.63
2725.0,-9.416,-0.278,-3.061,-9.392,-0.309,-3.099,2.87,1.4,0.63
,-9.428,-0.299,-3.099,-9.454,-0.33,-3.051,2.94,1.26,0.63
,-9.469,-0.273,-3.087,-9.481,-0.28,-3.032,2.94,1.4,0.7
,-9.466,-0.325,-3.051,-9.483,-0.313,-3.022,2.94,1.4,0.63
2801.0,-9.476,-0.34,-2.941,-9.433,-0.335,-2.934,3.08,1.26,0.7
,-9.478,-0.306,-2.934,-9.452,-0.304,-2.943,3.15,1.19,0.7
,-9.459,-0.311,-2.972,-9.469,-0.316,-2.97,2.94,1.19,0.77
,-9.452,-0.366,-2.927,-9.428,-0.29,-3.003,2.87,1.12,0.7
2876.0,-9.45,-0.29,-3.041,-9.383,-0.297,-3.056,2.94,1.75,0.7
,-9.44,-0.34,-3.034,-9.445,-0.306,-3.063,2.73,1.82,0.7
,-9.474,-0.297,-3.061,-9.438,-0.28,-3.099,2.73,1.75,0.7
,-9.44,-0.297,-3.051,-9.426,-0.302,-3.082,2.59,1.68,0.63
2952.0,-9.454,-0.287,-3.02,-9.409,-0.321,-3.094,2.66,1.33,0.63
,-9.447,-0.311,-3.046,-9.447,-0.342,-3.061,2.8,1.4,0.56
,-9.411,-0.335,-3.061,-9.447,-0.342,-3.034,2.8,1.4,0.49
,-9.421,-0.359,-3.053,-9.474,-0.325,-3.027,2.8,1.19,0.56
3028.0,-9.423,-0.304,-2.986,-9.493,-0.364,-2.998,2.94,1.19,0.56
,-9.416,-0.33,-2.965,-9.421,-0.318,-2.972,3.01,1.33,0.56
,-9.474,-0.33,-2.994,-9.45,-0.263,-3.037,3.01,1.12,0.63
,-9.447,-0.316,-3.029,-9.43,-0.311,-2.994,2.94,1.05,0.56
3104.0,-9.411,-0.371,-3.017,-9.43,-0.371,-2.986,2.45,0.98,0.63
,-9.445,-0.354,-3.025,-9.488,-0.297,-2.974,2.52,1.12,0.7
,-9.452,-0.333,-3.075,-9.462,-0.299,-2.977,2.38,0.98,0.63
,-9.44,-0.383,-3.01,-9.471,-0.335,-2.907,2.38,1.05,0.56
3180.0,-9.457,-0.373,-2.871,-9.462,-0.275,-2.934,1.19,1.19,0.49
,-9.512,-0.457,-3.264,-9.418,-0.34,-2.955,1.68,1.47,0.77
,-9.378,-0.347,-2.912,-9.423,-0.333,-2.943,1.68,1.33,0.7
,-9.45,-0.333,-2.962,-9.445,-0.318,-2.986,1.4,1.47,0.7
3255.0,-9.43,-0.325,-3.01,-9.44,-0.333,-3.104,1.96,1.96,1.05
,-9.423,-0.345,-3.008,-9.464,-0.345,-3.104,2.1,2.24,1.12
,-9.438,-0.366,-3.08,-9.407,-0.294,-3.094,2.24,2.1,1.19
,-9.442,-0.325,-3.113,-9.404,-0.316,-3.125,2.31,1.89,1.12
3331.0,-9.44,-0.294,-3.025,-9.44,-0.254,-3.096,2.59,1.61,1.12
,-9.411,-0.251,-3.039,-9.414,-0.258,-3.003,2.31,1.54,1.12
,-9.454,-0.263,-3.039,-9.457,-0.278,-3.01,2.45,1.47,1.19
,-9.45,-0.292,-3.058,-9.378,-0.297,-3.003,2.87,1.19,0.98
3406.0,-9.397,-0.33,-2.953,-9.464,-0.285,-2.989,3.01,1.33,1.05
,-9.426,-0.321,-2.936,-9.471,-0.306,-2.974,3.08,1.4,1.05
,-9.445,-0.328,-2.955,-9.485,-0.27,-2.972,3.01,1.47,1.05
,-9.409,-0.304,-2.941,-9.447,-0.302,-3.058,2.94,1.54,0.98
3482.0,-9.447,-0.285,-3.017,-9.476,-0.323,-3.065,2.59,1.68,0.91
,-9.435,-0.28,-3.029,-9.474,-0.292,-3.065,2.59,1.61,0.84
,-9.426,-0.278,-3.12,-9.493,-0.254,-2.982,2.73,1.61,0.84
,-9.435,-0.27,-3.077,-9.44,-0.285,-2.96,2.66,1.47,0.77
3558.0,-9.442,-0.268,-2.97,-9.435,-0.335,-3.07,2.66,1.47,0.63
,-9.459,-0.287,-2.989,-9.438,-0.309,-3.046,2.59,1.4,0.63
,-9.392,-0.306,-3.049,-9.452,-0.376,-3.046,2.45,1.54,0.77
,-9.435,-0.302,-3.02,-9.442,-0.321,-3.07,2.45,1.61,0.7
3634.0,-9.397,-0.302,-3.027,-9.49,-0.318,-2.998,3.15,1.54,0.7
,-9.414,-0.316,-3.072,-9.433,-0.316,-2.929,3.01,1.61,0.77
,-9.464,-0.328,-3.044,-9.447,-0.256,-2.929,2.87,1.4,0.7
,-9.404,-0.256,-3.044,-9.442,-0.294,-2.91,2.73,1.47,0.7
3709.0,-9.466,-0.347,-2.883,-9.45,-0.376,-3.013,2.1,1.89,0.77
,-9.44,-0.349,-2.91,-9.433,-0.34,-3.039,2.31,1.96,0.84
,-9.445,-0.347,-2.922,-9.423,-0.27,-3.015,2.24,2.1,0.84
,-9.397,-0.38,-2.936,-9.416,-0.292,-3.118,2.24,2.38,0.91
3785.0,-9.469,-0.299,-3.139,-9.387,-0.249,-3.254,2.66,2.31,0.91
,-9.397,-0.325,-3.192,-9.433,-0.275,-3.195,2.73,2.17,0.98
,-9.373,-0.263,-3.209,-9.414,-0.325,-3.178,2.94,1.75,1.05
,-9.45,-0.244,-3.269,-9.44,-0.275,-3.139,2.87,1.68,0.98
3860.0,-9.426,-0.285,-3.094,-9.469,-0.297,-2.965,3.15,0.77,0.84
,-9.459,-0.251,-3.113,-9.447,-0.309,-2.974,3.01,0.63,0.77
,-9.409,-0.309,-3.058,-9.433,-0.304,-2.948,3.01,0.63,0.84
,-9.45,-0.306,-2.972,-9.438,-0.354,-2.912,3.22,0.63,0.77
3936.0,-9.447,-0.342,-2.905,-9.426,-0.316,-3.025,2.87,1.19,0.84
,-9.402,-0.278,-2.948,-9.44,-0.285,-3.027,2.87,1.26,0.84
,-9.457,-0.275,-2.941,-9.483,-0.292,-3.039,2.59,1.33,0.7
,-9.447,-0.325,-2.986,-9.423,-0.297,-3.005,2.38,1.4,0.7
4012.0,-9.414,-0.316,-3.046,-9.476,-0.278,-3.051,2.52,1.82,0.77
,-9.452,-0.27,-3.082,-9.423,-0.33,-3.001,2.8,1.68,0.77
,-9.363,-0.268,-3.063,-9.435,-0.366,-3.005,2.94,1.75,0.77
,-9.457,-0.249,-3.082,-9.418,-0.28,-3.063,2.87,1.75,0.77
4088.0,-9.404,-0.27,-3.058,-9.447,-0.294,-3.063,2.87,1.4,0.7
,-9.442,-0.309,-3.049,-9.44,-0.287,-3.01,2.94,1.54,0.77
,-9.462,-0.33,-3.017,-9.454,-0.333,-3.008,3.01,1.47,0.7
,-9.459,-0.299,-3.025,-9.485,-0.316,-3.056,3.15,1.4,0.77
4164.0,-9.44,-0.287,-3.017,-9.421,-0.352,-2.994,3.08,1.4,0.63
,-9.447,-0.261,-3.015,-9.469,-0.29,-3.015,2.73,1.4,0.63
,-9.409,-0.342,-3.02,-9.478,-0.29,-3.022,2.45,1.4,0.63
,-9.452,-0.333,-3.015,-9.428,-0.287,-3.025,2.59,1.4,0.7
4239.0,-9.428,-0.287,-3.039,-9.447,-0.347,-3.008,2.8,1.4,0.77
,-9.43,-0.297,-3.022,-9.423,-0.278,-3.058,2.73,1.33,0.7
,-9.435,-0.27,-3.025,-9.442,-0.227,-3.025,2.52,1.26,0.7
,-9.411,-0.311,-3.034,-9.476,-0.275,-3.005,2.66,1.4,0.63
4315.0,-9.442,-0.376,-2.998,-9.397,-0.297,-3.034,1.89,1.12,0.35
,-9.428,-0.373,-3.034,-9.426,-0.309,-3.061,2.24,1.33,0.56
,-9.457,-0.299,-3.07,-9.418,-0.294,-3.063,2.8,1.33,0.63
,-9.397,-0.258,-3.063,-9.418,-0.318,-3.072,2.8,1.33,0.63
4391.0,-9.428,-0.304,-3.022,-9.416,-0.306,-3.008,3.01,1.26,0.63
,-9.469,-0.321,-2.996,-9.433,-0.309,-3.025,2.87,1.33,0.63
,-9.433,-0.306,-2.972,-9.466,-0.302,-3.056,2.94,1.26,0.63
,-9.414,-0.328,-3.015,-9.435,-0.325,-3.025,3.01,1.26,0.63
4467.0,-9.416,-0.333,-2.979,-9.469,-0.273,-3.015,2.94,1.26,0.56
,-9.476,-0.306,-3.017,-9.414,-0.254,-3.017,2.94,1.47,0.63
,-9.464,-0.285,-2.996,-9.452,-0.325,-3.01,2.94,1.26,0.49
,-9.43,-0.325,-3.058,-9.435,-0.325,-2.979,3.08,1.12,0.56
4542.0,-9.454,-0.354,-2.965,-9.414,-0.318,-3.001,2.8,1.47,0.56
,-9.471,-0.349,-2.984,-9.485,-0.278,-2.984,2.59,1.61,0.7
,-9.445,-0.378,-2.955,-9.418,-0.337,-3.001,2.52,1.68,0.7
,-9.421,-0.357,-2.979,-9.407,-0.27,-3.051,2.52,1.82,0.7
4618.0,-9.459,-0.299,-3.068,-9.418,-0.27,-3.12,1.96,1.96,0.7
,-9.445,-0.299,-3.056,-9.426,-0.299,-3.087,2.38,1.96,0.77
,-9.395,-0.29,-3.104,-9.452,-0.325,-3.106,2.66,1.89,0.77
,-9.399,-0.223,-3.101,-9.414,-0.366,-3.065,2.8,1.75,0.77
4693.0,-9.476,-0.304,-3.046,-9.407,-0.321,-2.998,3.29,1.33,0.77
,-9.521,-0.352,-3.049,-9.445,-0.318,-3.015,3.22,1.12,0.7
,-9.447,-0.325,-3.049,-9.454,-0.313,-2.97,3.22,1.12,0.7
,-9.459,-0.323,-3.07,-9.478,-0.333,-3.027,3.29,1.19,0.84
4769.0,-9.438,-0.318,-2.977,-9.404,-0.335,-3.061,3.15,1.4,0.91
,-9.452,-0.318,-3.01,-9.392,-0.342,-3.053,3.08,1.4,0.77
,-9.44,-0.27,-3.003,-9.454,-0.27,-3.08,2.8,1.33,0.84
,-9.435,-0.313,-3.029,-9.392,-0.266,-3.077,2.73,1.54,0.84
4845.0,-9.457,-0.306,-3.051,-9.421,-0.292,-3.049,2.52,1.26,0.7
,-9.433,-0.33,-3.058,-9.445,-0.325,-3.013,2.59,1.26,0.63
,-9.488,-0.316,-2.991,-9.418,-0.371,-3.056,2.73,1.05,0.63
,-9.45,-0.328,-3.037,-9.483,-0.29,-3.022,2.8,1.33,0.7
4921.0,-9.454,-0.304,-3.022,-9.44,-0.333,-3.037,3.08,1.19,0.7
,-9.45,-0.318,-3.02,-9.485,-0.359,-3.063,2.94,1.4,0.84
,-9.459,-0.359,-2.97,-9.414,-0.333,-3.049,2.94,1.4,0.7
,-9.421,-0.318,-3.015,-9.387,-0.337,-2.996,2.94,1.4,0.77
4996.0,-9.414,-0.304,-3.058,-9.452,-0.337,-3.034,3.01,1.19,0.7
,-9.469,-0.294,-3.022,-9.447,-0.337,-3.029,3.01,1.26,0.77
,-9.464,-0.311,-3.07,-9.462,-0.335,-3.029,2.94,1.26,0.77
,-9.387,-0.304,-3.022,-9.416,-0.33,-3.025,2.8,1.33,0.7
5072.0,-9.452,-0.345,-3.041,-9.493,-0.349,-3.003,3.15,1.19,0.77
,-9.442,-0.38,-3.01,-9.462,-0.359,-3.013,3.5,1.33,0.84
,-9.485,-0.273,-2.967,-9.445,-0.313,-3.053,3.43,1.4,0.91
,-9.462,-0.316,-2.974,-9.447,-0.297,-3.015,3.36,1.33,0.77
5148.0,-9.464,-0.323,-3.027,-9.488,-0.325,-3.058,2.73,1.47,0.77
,-9.426,-0.364,-3.005,-9.44,-0.357,-3.032,2.87,1.26,0.7
,-9.435,-0.278,-3.087,-9.421,-0.349,-2.982,3.08,1.4,0.77
,-9.428,-0.268,-3.034,-9.399,-0.273,-2.989,2.73,1.26,0.63
5224.0,-9.459,-0.297,-2.934,-9.445,-0.347,-2.974,2.24,1.54,0.56
,-9.457,-0.364,-2.955,-9.418,-0.347,-3.025,1.96,1.61,0.49
,-9.488,-0.361,-2.958,-9.44,-0.357,-3.022,1.96,1.61,0.56
,-9.435,-0.292,-2.934,-9.428,-0.378,-3.034,1.96,1.75,0.49
5300.0,-9.416,-0.34,-3.001,-9.423,-0.335,-3.084,2.17,1.89,0.7
,-9.459,-0.342,-3.049,-9.426,-0.292,-3.113,2.24,1.82,0.77
,-9.438,-0.323,-3.039,-9.428,-0.333,-3.106,2.38,1.82,0.84
,-9.416,-0.323,-3.101,-9.466,-0.316,-3.104,2.38,1.75,0.77
5375.0,-9.435,-0.352,-3.116,-9.45,-0.349,-3.07,2.87,1.54,0.84
,-9.392,-0.318,-3.132,-9.438,-0.328,-3.039,2.87,1.26,0.63
,-9.433,-0.369,-3.128,-9.457,-0.302,-3.039,2.73,1.12,0.7
,-9.43,-0.347,-3.096,-9.464,-0.357,-2.994,2.8,1.05,0.7
5451.0,-9.44,-0.352,-3.02,-9.433,-0.335,-3.053,2.87,1.19,0.77
,-9.466,-0.297,-2.982,-9.478,-0.33,-3.077,2.94,1.19,0.84
,-9.428,-0.313,-3.008,-9.438,-0.34,-3.049,2.87,1.26,0.77
,-9.466,-0.325,-2.994,-9.447,-0.302,-3.075,2.94,1.19,0.77
5526.0,-9.409,-0.294,-3.108,-9.445,-0.328,-3.077,2.24,1.05,0.49
,-9.44,-0.349,-3.149,-9.421,-0.333,-3.068,2.03,0.98,0.49
,-9.428,-0.311,-3.072,-9.481,-0.316,-3.07,2.17,0.84,0.49
,-9.44,-0.318,-3.101,-9.469,-0.412,-3.01,2.59,0.77,0.63
5602.0,-9.397,-0.33,-2.989,-9.474,-0.404,-2.871,3.29,0.7,0.91
,-9.423,-0.306,-2.96,-9.409,-0.318,-2.955,3.36,0.84,0.91
,-9.485,-0.347,-2.922,-9.471,-0.29,-2.989,3.01,0.84,0.7
,-9.433,-0.402,-2.888,-9.466,-0.294,-2.977,2.94,1.12,0.91
5678.0,-9.428,-0.285,-3.037,-9.438,-0.242,-3.025,3.08,1.4,0.84
,-9.457,-0.357,-3.056,-9.474,-0.266,-2.998,3.01,1.33,0.77
,-9.435,-0.313,-3.022,-9.44,-0.342,-3.008,3.08,1.47,0.77
,-9.421,-0.263,-3.049,-9.464,-0.34,-3.005,3.01,1.33,0.84
5754.0,-9.414,-0.335,-2.974,-9.428,-0.385,-3.049,2.59,1.47,0.7
,-9.44,-0.354,-3.017,-9.452,-0.359,-3.025,2.52,1.54,0.77
,-9.476,-0.352,-2.996,-9.454,-0.335,-3.072,2.38,1.47,0.84
,-9.44,-0.385,-3.041,-9.495,-0.376,-3.02,2.24,1.61,0.91
5829.0,-9.44,-0.309,-3.075,-9.452,-0.299,-2.998,2.38,1.33,0.91
,-9.457,-0.282,-3.072,-9.426,-0.28,-3.029,2.52,1.19,0.84
,-9.476,-0.28,-3.053,-9.423,-0.335,-3.02,2.45,1.33,0.84
,-9.433,-0.345,-3.041,-9.426,-0.345,-2.994,2.52,1.19,0.77
5905.0,-9.433,-0.294,-2.998,-9.445,-0.316,-3.046,2.94,1.33,0.84
,-9.418,-0.318,-2.994,-9.474,-0.263,-3.025,2.8,1.54,0.91
,-9.435,-0.325,-2.967,-9.438,-0.278,-3.001,2.66,1.47,0.84
,-9.462,-0.364,-3.022,-9.442,-0.282,-3.034,2.73,1.47,0.91
5981.0,-9.414,-0.333,-3.032,-9.43,-0.29,-3.01,2.66,1.33,0.84
,-9.481,-0.323,-3.056,-9.423,-0.333,-3.061,2.66,1.61,0.98
,-9.447,-0.352,-3.01,-9.404,-0.342,-3.041,2.73,1.47,0.98
,-9.421,-0.333,-3.025,-9.466,-0.311,-3.113,2.8,1.33,0.91
6057.0,-9.485,-0.306,-3.003,-9.45,-0.354,-3.051,2.73,1.26,0.84
,-9.452,-0.337,-3.072,-9.471,-0.306,-3.005,2.66,0.91,0.7
,-9.428,-0.292,-3.025,-9.392,-0.349,-3.013,2.73,1.12,0.84
,-9.43,-0.28,-3.041,-9.423,-0.304,-3.025,2.59,1.19,0.77
6132.0,-9.466,-0.28,-3.051,-9.423,-0.337,-3.02,3.43,1.12,0.91
,-9.464,-0.302,-2.965,-9.45,-0.33,-2.979,3.36,0.98,0.77
,-9.466,-0.33,-3.034,-9.452,-0.325,-3.015,3.15,0.91,0.77
,-9.435,-0.335,-3.02,-9.44,-0.321,-2.996,3.22,1.05,0.84
6208.0,-9.414,-0.302,-3.015,-9.442,-0.359,-3.003,2.52,1.26,0.7
,-9.478,-0.292,-3.015,-9.459,-0.323,-3.022,2.66,1.33,0.7
,-9.409,-0.285,-3.01,-9.445,-0.292,-2.979,2.45,1.26,0.63
,-9.428,-0.287,-2.994,-9.469,-0.313,-2.986,2.31,1.19,0.56
6284.0,-9.476,-0.361,-2.95,-9.435,-0.311,-3.027,2.8,1.4,0.63
,-9.459,-0.357,-2.974,-9.438,-0.369,-3.039,2.94,1.33,0.7
,-9.438,-0.299,-2.986,-9.471,-0.33,-3.084,2.94,1.4,0.77
,-9.447,-0.34,-2.974,-9.44,-0.342,-3.061,2.8,1.47,0.7
6359.0,-9.421,-0.285,-3.039,-9.462,-0.359,-3.025,2.73,1.33,0.7
,-9.435,-0.316,-3.032,-9.457,-0.359,-3.034,2.73,1.4,0.77
,-9.392,-0.297,-2.986,-9.445,-0.335,-3.008,2.59,1.4,0.7
,-9.459,-0.316,-2.998,-9.485,-0.297,-3.034,2.59,1.47,0.7
6435.0,-9.483,-0.357,-3.008,-9.423,-0.29,-2.965,2.38,1.33,0.56
,-9.426,-0.371,-3.027,-9.445,-0.302,-2.984,2.59,1.26,0.7
,-9.435,-0.328,-2.996,-9.464,-0.345,-2.965,2.87,1.26,0.77
,-9.469,-0.313,-3.041,-9.466,-0.321,-3.003,2.87,1.19,0.77
6511.0,-9.447,-0.318,-2.982,-9.457,-0.328,-3.015,2.94,1.33,0.77
,-9.442,-0.313,-2.996,-9.483,-0.297,-3.041,2.73,1.19,0.56
,-9.428,-0.323,-3.005,-9.421,-0.325,-3.022,2.59,1.19,0.49
,-9.447,-0.352,-3.003,-9.414,-0.318,-3.003,2.66,1.26,0.63
6587.0,-9.45,-0.357,-3.029,-9.445,-0.323,-3.068,2.8,1.12,0.56
,-9.421,-0.311,-2.991,-9.418,-0.352,-3.061,2.73,1.26,0.7
,-9.464,-0.347,-3.013,-9.495,-0.328,-3.068,2.52,1.33,0.56
,-9.438,-0.323,-3.01,-9.502,-0.325,-3.034,2.52,1.33,0.56
6662.0,-9.478,-0.33,-2.991,-9.416,-0.376,-3.039,2.52,1.05,0.63
,-9.426,-0.306,-3.015,-9.464,-0.321,-3.025,2.66,0.98,0.56
,-9.452,-0.349,-3.032,-9.414,-0.275,-3.015,2.66,1.05,0.63
,-9.447,-0.345,-2.972,-9.428,-0.337,-2.989,2.73,1.05,0.63
6738.0,-9.445,-0.349,-3.008,-9.454,-0.318,-2.941,2.94,1.05,0.77
,-9.38,-0.359,-3.025,-9.452,-0.311,-2.934,3.01,1.05,0.7
,-9.445,-0.328,-2.927,-9.459,-0.328,-2.934,2.94,1.05,0.7
,-9.435,-0.347,-2.977,-9.471,-0.306,-2.934,2.87,1.12,0.77
6814.0,-9.495,-0.282,-2.919,-9.43,-0.335,-3.046,2.17,1.26,0.7
,-9.442,-0.309,-2.967,-9.423,-0.354,-2.994,2.24,1.33,0.7
,-9.447,-0.318,-2.927,-9.45,-0.342,-3.022,2.31,1.4,0.7
,-9.481,-0.357,-3.01,-9.438,-0.318,-3.061,2.24,1.61,0.77
6890.0,-9.426,-0.313,-3.065,-9.462,-0.306,-3.053,2.45,1.4,0.84
,-9.433,-0.383,-3.065,-9.399,-0.369,-3.051,2.59,1.26,0.77
,-9.438,-0.385,-3.049,-9.447,-0.366,-3.034,2.59,1.26,0.84
,-9.459,-0.294,-3.053,-9.445,-0.349,-2.974,2.38,1.12,0.77
6965.0,-9.433,-0.325,-2.991,-9.471,-0.321,-2.95,2.52,0.98,0.77
,-9.44,-0.352,-2.972,-9.45,-0.337,-2.922,2.66,0.84,0.77
,-9.44,-0.33,-2.948,-9.457,-0.34,-2.927,2.52,1.05,0.77
,-9.442,-0.335,-2.938,-9.471,-0.318,-3.001,2.66,0.98,0.91
7041.0,-9.464,-0.385,-2.955,-9.428,-0.309,-3.025,2.52,1.4,0.98
,-9.418,-0.323,-3.027,-9.409,-0.304,-3.027,2.52,1.4,1.05
,-9.478,-0.306,-3.051,-9.454,-0.256,-3.061,2.73,1.54,1.12
,-9.414,-0.29,-3.003,-9.474,-0.309,-2.982,2.66,1.4,1.05
7116.0,-9.469,-0.302,-2.953,-9.454,-0.359,-2.979,2.38,1.19,0.91
,-9.416,-0.333,-2.936,-9.457,-0.354,-2.989,2.45,1.19,0.91
,-9.416,-0.347,-2.974,-9.481,-0.311,-2.977,2.59,1.4,0.98
,-9.478,-0.325,-2.986,-9.462,-0.266,-2.972,2.73,1.4,0.98
7192.0,-9.459,-0.285,-2.934,-9.421,-0.335,-3.061,2.24,1.61,0.77
,-9.428,-0.342,-2.974,-9.462,-0.27,-3.087,2.1,1.75,0.91
,-9.457,-0.316,-3.015,-9.411,-0.278,-3.113,2.24,1.68,0.91
,-9.418,-0.29,-3.08,-9.45,-0.261,-3.022,2.31,1.4,0.84
7268.0,-9.454,-0.29,-3.049,-9.469,-0.323,-2.907,2.59,1.26,0.63
,-9.45,-0.297,-3.022,-9.488,-0.325,-2.927,2.52,1.12,0.63
,-9.459,-0.292,-2.965,-9.481,-0.352,-2.924,2.52,0.84,0.63
,-9.442,-0.273,-2.927,-9.476,-0.364,-2.927,2.73,0.91,0.7
7344.0,-9.471,-0.366,-2.948,-9.457,-0.28,-3.034,2.52,1.26,0.63
,-9.459,-0.306,-3.017,-9.423,-0.321,-3.039,2.59,1.54,0.7
,-9.409,-0.325,-2.977,-9.447,-0.385,-3.041,2.45,1.47,0.7
,-9.433,-0.28,-2.991,-9.452,-0.27,-3.032,2.52,1.54,0.7
7420.0,-9.466,-0.28,-3.041,-9.462,-0.323,-2.96,2.94,1.12,0.7
,-9.442,-0.316,-3.02,-9.478,-0.306,-2.948,2.87,1.12,0.56
,-9.474,-0.321,-3.015,-9.5,-0.321,-2.941,2.66,1.12,0.63
,-9.476,-0.342,-2.977,-9.474,-0.364,-2.922,2.66,1.12,0.56
7495.0,-9.49,-0.29,-2.929,-9.445,-0.299,-2.938,2.66,1.4,0.63
,-9.457,-0.354,-2.893,-9.454,-0.354,-2.991,2.52,1.54,0.7
,-9.414,-0.347,-2.977,-9.476,-0.292,-2.974,2.73,1.68,0.77
,-9.466,-0.347,-2.962,-9.469,-0.321,-2.974,2.94,1.89,0.7
7571.0,-9.438,-0.337,-3.017,-9.442,-0.337,-3.037,2.52,1.96,0.77
,-9.421,-0.325,-3.013,-9.447,-0.282,-3.034,2.66,1.75,0.56
,-9.426,-0.325,-3.032,-9.442,-0.366,-3.056,2.73,1.75,0.63
,-9.433,-0.29,-2.998,-9.462,-0.371,-3.027,2.73,1.61,0.63
7647.0,-9.445,-0.302,-2.998,-9.462,-0.371,-2.982,3.08,1.47,0.77
,-9.442,-0.313,-2.998,-9.471,-0.278,-2.967,3.08,1.47,0.84
,-9.493,-0.297,-2.996,-9.478,-0.249,-2.967,2.94,1.4,0.7
,-9.454,-0.335,-3.046,-9.447,-0.297,-2.934,2.66,1.47,0.7
7723.0,-9.464,-0.33,-2.972,-9.459,-0.299,-3.051,2.73,1.54,0.56
,-9.43,-0.302,-3.015,-9.44,-0.328,-3.058,3.01,1.54,0.63
,-9.493,-0.266,-3.034,-9.411,-0.321,-2.994,3.22,1.4,0.63
,-9.457,-0.258,-3.068,-9.433,-0.275,-2.996,3.22,1.26,0.56
7798.0,-9.45,-0.325,-3.005,-9.505,-0.352,-2.936,3.08,1.26,0.49
,-9.45,-0.357,-2.996,-9.454,-0.313,-2.893,3.08,1.26,0.49
,-9.474,-0.321,-2.974,-9.493,-0.34,-2.895,2.94,1.19,0.56
,-9.471,-0.328,-2.989,-9.497,-0.354,-2.934,2.8,1.26,0.42
7874.0,-9.43,-0.39,-2.994,-9.426,-0.33,-3.025,2.24,1.82,0.63
,-9.454,-0.323,-3.02,-9.466,-0.333,-3.041,2.38,1.68,0.63
,-9.476,-0.364,-3.044,-9.395,-0.333,-3.001,2.31,1.75,0.63
,-9.44,-0.409,-3.046,-9.397,-0.345,-3.056,2.59,1.89,0.7
7949.0,-9.433,-0.342,-3.049,-9.459,-0.309,-3.022,2.94,1.33,0.7
,-9.481,-0.342,-3.075,-9.485,-0.366,-3.029,3.01,1.26,0.7
,-9.423,-0.342,-3.051,-9.452,-0.352,-2.972,2.94,1.47,0.77
,-9.447,-0.333,-3.015,-9.426,-0.311,-3.005,2.8,1.33,0.63
8025.0,-9.44,-0.357,-2.996,-9.466,-0.388,-2.943,2.73,1.33,0.77
,-9.418,-0.34,-2.967,-9.459,-0.347,-2.941,2.73,1.33,0.77
,-9.459,-0.359,-2.905,-9.469,-0.306,-2.955,2.73,1.4,0.84
,-9.462,-0.378,-2.958,-9.462,-0.354,-2.972,2.8,1.54,0.91
8101.0,-9.428,-0.309,-3.037,-9.414,-0.273,-3.046,2.66,1.75,0.84
,-9.471,-0.357,-3.017,-9.469,-0.294,-3.013,2.45,1.61,0.84
,-9.428,-0.352,-3.013,-9.43,-0.316,-3.061,2.59,1.89,0.98
,-9.464,-0.323,-3.003,-9.445,-0.302,-3.041,2.66,1.82,0.98
8177.0,-9.426,-0.309,-3.041,-9.474,-0.359,-2.962,2.66,1.33,0.77
,-9.43,-0.337,-3.065,-9.478,-0.354,-2.946,2.66,1.47,0.91
,-9.421,-0.304,-3.049,-9.514,-0.359,-2.972,2.59,1.47,0.84
,-9.452,-0.352,-2.989,-9.45,-0.385,-3.003,2.38,1.54,0.7
8252.0,-9.459,-0.347,-3.017,-9.421,-0.337,-3.029,2.38,1.47,0.77
,-9.483,-0.369,-3.017,-9.423,-0.292,-3.051,2.52,1.47,0.91
,-9.469,-0.33,-3.01,-9.44,-0.349,-3.01,2.52,1.61,0.84
,-9.397,-0.316,-3.061,-9.464,-0.323,-3.025,2.66,1.4,0.91
8328.0,-9.435,-0.359,-2.991,-9.428,-0.378,-2.986,2.73,1.33,0.77
,-9.445,-0.306,-2.982,-9.466,-0.347,-3.001,2.59,1.26,0.77
,-9.43,-0.359,-3.003,-9.469,-0.311,-2.998,2.38,1.12,0.7
,-9.442,-0.34,-2.955,-9.438,-0.376,-3.003,2.52,1.19,0.84
8404.0,-9.462,-0.369,-3.017,-9.485,-0.309,-3.015,2.38,1.26,0.91
,-9.447,-0.366,-2.977,-9.426,-0.321,-3.053,2.59,1.47,0.98
,-9.483,-0.278,-2.982,-9.452,-0.309,-3.068,2.52,1.4,0.84
,-9.452,-0.263,-3.027,-9.414,-0.311,-3.056,2.24,1.33,0.84
8480.0,-9.497,-0.345,-3.013,-9.433,-0.38,-2.953,2.73,1.05,0.63
,-9.438,-0.364,-3.022,-9.45,-0.364,-2.95,2.73,1.05,0.84
,-9.435,-0.352,-3.015,-9.447,-0.359,-2.893,2.8,1.12,0.91
,-9.462,-0.38,-3.015,-9.476,-0.345,-2.943,2.94,1.05,0.91
8556.0,-9.442,-0.347,-2.891,-9.462,-0.337,-2.967,2.59,1.54,0.98
,-9.442,-0.354,-2.929,-9.447,-0.333,-3.015,2.59,1.54,0.91
,-9.445,-0.352,-2.919,-9.466,-0.318,-3.017,2.52,1.68,0.91
,-9.478,-0.328,-2.967,-9.442,-0.304,-3.075,2.38,1.47,0.91
8631.0,-9.418,-0.323,-3.094,-9.428,-0.337,-3.07,2.59,1.68,0.91
,-9.442,-0.285,-3.096,-9.452,-0.325,-3.07,2.66,1.47,0.91
,-9.428,-0.297,-3.084,-9.466,-0.313,-3.013,3.01,1.4,0.91
,-9.469,-0.292,-3.07,-9.418,-0.297,-3.015,2.8,1.19,0.84
8707.0,-9.457,-0.263,-2.955,-9.509,-0.325,-2.955,2.73,1.12,0.77
,-9.469,-0.342,-2.934,-9.445,-0.309,-2.991,2.52,1.26,0.77
,-9.471,-0.392,-2.986,-9.471,-0.352,-2.982,2.66,1.19,0.7
,-9.454,-0.364,-3.003,-9.452,-0.337,-2.996,2.94,1.33,0.91
8782.0,-9.464,-0.349,-3.01,-9.462,-0.316,-3.046,2.52,1.26,0.77
,-9.44,-0.285,-3.063,-9.454,-0.294,-2.998,2.66,1.33,0.84
,-9.426,-0.285,-3.02,-9.397,-0.333,-2.953,2.52,1.26,0.77
,-9.44,-0.321,-3.025,-9.438,-0.325,-2.965,2.45,1.26,0.84
8858.0,-9.459,-0.347,-2.977,-9.462,-0.29,-2.962,2.52,1.19,0.77
,-9.409,-0.318,-2.962,-9.457,-0.316,-2.998,2.52,1.19,0.77
,-9.466,-0.345,-2.948,-9.512,-0.369,-2.989,2.45,1.26,0.7
,-9.426,-0.287,-2.95,-9.428,-0.354,-3.017,2.38,1.26,0.77
8934.0,-9.447,-0.294,-3.046,-9.462,-0.302,-3.037,2.73,1.12,0.91
,-9.438,-0.316,-3.063,-9.457,-0.306,-2.998,2.66,1.19,0.77
,-9.445,-0.325,-3.022,-9.452,-0.333,-2.972,2.59,1.19,0.7
,-9.435,-0.337,-3.017,-9.454,-0.311,-2.948,2.8,1.26,0.91
9010.0,-9.428,-0.323,-2.955,-9.469,-0.309,-2.941,2.8,0.98,0.77
,-9.452,-0.302,-2.95,-9.459,-0.361,-2.905,2.8,1.05,0.77
,-9.421,-0.294,-2.953,-9.464,-0.292,-2.95,2.66,1.19,0.84
,-9.483,-0.321,-2.95,-9.478,-0.318,-2.953,2.52,1.19,0.84
9085.0,-9.442,-0.34,-2.955,-9.433,-0.321,-3.039,2.52,1.19,0.84
,-9.447,-0.316,-2.989,-9.462,-0.285,-3.022,2.52,1.54,0.91
,-9.452,-0.294,-3.001,-9.445,-0.266,-3.022,2.38,1.54,0.84
,-9.435,-0.328,-3.013,-9.457,-0.354,-2.996,2.45,1.47,0.84
9161.0,-9.43,-0.318,-2.986,-9.497,-0.246,-2.91,2.52,0.98,0.7
,-9.462,-0.318,-3.003,-9.418,-0.311,-2.895,2.73,0.98,0.77
,-9.474,-0.325,-3.001,-9.478,-0.325,-2.917,2.87,1.12,0.84
,-9.45,-0.306,-2.996,-9.462,-0.306,-2.979,2.87,1.05,0.77
9236.0,-9.481,-0.323,-2.943,-9.462,-0.364,-2.855,2.73,1.19,0.77
,-9.471,-0.371,-2.948,-9.476,-0.311,-2.927,2.8,1.33,0.84
,-9.49,-0.325,-2.907,-9.478,-0.273,-2.979,3.01,1.26,0.77
,-9.435,-0.244,-2.924,-9.466,-0.275,-2.986,2.73,1.33,0.77
9312.0,-9.459,-0.333,-3.02,-9.397,-0.285,-3.017,1.96,1.54,0.77
,-9.454,-0.313,-3.001,-9.433,-0.306,-3.01,2.17,1.68,0.91
,-9.442,-0.275,-3.087,-9.459,-0.34,-3.025,2.24,1.54,0.84
,-9.49,-0.282,-3.068,-9.474,-0.352,-2.955,2.17,1.26,0.63
9388.0,-9.469,-0.352,-2.946,-9.462,-0.333,-2.891,2.59,1.19,0.77
,-9.459,-0.316,-2.948,-9.457,-0.364,-2.895,2.45,1.26,0.7
,-9.442,-0.321,-2.915,-9.452,-0.361,-2.955,2.45,1.19,0.77
,-9.454,-0.342,-2.883,-9.483,-0.335,-3.008,2.73,1.54,0.91
9464.0,-9.497,-0.33,-3.003,-9.433,-0.266,-3.084,2.45,1.61,0.77
,-9.459,-0.29,-3.049,-9.423,-0.309,-3.08,2.45,1.75,0.91
,-9.44,-0.261,-3.061,-9.428,-0.325,-3.049,2.52,1.47,0.77
,-9.442,-0.235,-3.12,-9.442,-0.34,-3.025,2.38,1.33,0.7
9540.0,-9.435,-0.369,-3.005,-9.517,-0.306,-2.948,3.08,0.63,0.77
,-9.435,-0.321,-2.97,-9.44,-0.342,-2.955,3.08,0.77,0.77
,-9.43,-0.333,-2.953,-9.485,-0.352,-2.905,3.15,1.05,0.84
,-9.474,-0.337,-2.929,-9.469,-0.304,-2.895,3.01,0.91,0.84
9615.0,-9.462,-0.235,-2.927,-9.485,-0.261,-2.95,3.08,0.98,0.84
,-9.426,-0.299,-2.917,-9.488,-0.311,-2.96,2.94,1.19,0.91
,-9.44,-0.335,-2.912,-9.469,-0.347,-2.962,3.01,1.4,0.98
,-9.457,-0.268,-2.943,-9.44,-0.323,-3.003,2.87,1.12,0.77
9691.0,-9.45,-0.268,-2.991,-9.464,-0.299,-2.917,2.73,1.33,0.84
,-9.423,-0.309,-2.979,-9.421,-0.309,-2.97,2.66,1.4,0.7
,-9.438,-0.302,-3.003,-9.476,-0.278,-2.986,2.59,1.33,0.7
,-9.497,-0.321,-2.984,-9.44,-0.304,-2.929,2.59,1.26,0.7
9767.0,-9.474,-0.347,-2.946,-9.452,-0.306,-2.934,2.87,1.26,0.56
,-9.452,-0.335,-2.982,-9.464,-0.34,-2.941,3.01,1.47,0.7
,-9.452,-0.285,-2.97,-9.469,-0.359,-2.965,2.87,1.4,0.7
,-9.442,-0.256,-2.929,-9.481,-0.325,-2.989,2.73,1.54,0.7
