Timestamp,AccX,AccY,AccZ,GyroX,GyroY,GyroZ,MagnX,MagnY,MagnZ
0.0,-9.316,1.33,-3.173,-9.261,1.402,-3.297,2.73,1.26,0.7
,-9.275,1.374,-3.245,-9.234,1.366,-3.221,3.08,1.33,0.77
,-9.246,1.426,-3.252,-9.253,1.371,-3.264,3.22,1.54,0.84
,-9.261,1.417,-3.271,-9.268,1.366,-3.163,3.01,1.54,0.84
76.0,-9.301,1.393,-3.175,-9.258,1.407,-3.23,2.59,1.54,0.77
,-9.263,1.383,-3.19,-9.284,1.378,-3.209,2.52,1.33,0.63
,-9.296,1.359,-3.116,-9.277,1.395,-3.228,2.94,1.47,0.77
,-9.301,1.402,-3.168,-9.246,1.395,-3.218,3.29,1.54,0.91
152.0,-9.244,1.436,-3.254,-9.213,1.469,-3.312,3.85,1.68,0.91
,-9.261,1.407,-3.285,-9.294,1.452,-3.262,3.57,1.82,0.91
,-9.273,1.424,-3.257,-9.287,1.472,-3.271,3.29,1.82,0.84
,-9.275,1.46,-3.259,-9.282,1.414,-3.271,3.08,1.75,0.77
228.0,-9.256,1.381,-3.271,-9.265,1.424,-3.281,2.52,1.4,0.56
,-9.229,1.405,-3.264,-9.229,1.405,-3.257,2.59,1.33,0.63
,-9.292,1.421,-3.302,-9.251,1.376,-3.195,2.31,1.26,0.56
,-9.28,1.412,-3.302,-9.28,1.354,-3.216,2.03,1.26,0.56
304.0,-9.268,1.381,-3.163,-9.261,1.347,-3.245,2.31,1.19,0.56
,-9.234,1.385,-3.173,-9.28,1.414,-3.209,2.45,1.33,0.63
,-9.28,1.388,-3.199,-9.32,1.429,-3.223,2.31,1.26,0.7
,-9.282,1.309,-3.214,-9.265,1.445,-3.221,2.45,1.19,0.77
380.0,-9.265,1.414,-3.209,-9.289,1.393,-3.266,2.17,1.54,0.77
,-9.296,1.338,-3.195,-9.273,1.481,-3.245,2.31,1.54,0.77
,-9.337,1.326,-3.211,-9.277,1.491,-3.333,2.59,1.33,0.77
,-9.249,1.39,-3.216,-9.256,1.366,-3.233,3.01,1.4,0.91
456.0,-9.287,1.376,-3.211,-9.253,1.388,-3.202,1.82,1.26,0.63
,-9.289,1.362,-3.233,-9.239,1.4,-3.206,2.24,1.33,0.7
,-9.32,1.35,-3.206,-9.265,1.414,-3.23,2.45,1.33,0.84
,-9.234,1.388,-3.216,-9.284,1.393,-3.137,2.8,1.26,0.84
532.0,-9.318,1.397,-3.159,-9.299,1.378,-3.163,3.01,1.33,0.77
,-9.273,1.397,-3.178,-9.306,1.345,-3.216,3.36,1.4,0.91
,-9.27,1.426,-3.18,-9.304,1.397,-3.247,3.43,1.26,0.84
,-9.299,1.424,-3.228,-9.249,1.383,-3.309,3.29,1.4,0.84
608.0,-9.265,1.383,-3.312,-9.294,1.39,-3.25,1.96,1.26,0.63
,-9.229,1.376,-3.314,-9.273,1.374,-3.197,2.03,1.4,0.84
,-9.239,1.352,-3.352,-9.244,1.347,-3.132,1.89,1.12,0.77
,-9.237,1.407,-3.317,-9.239,1.407,-3.118,1.61,1.33,0.77
684.0,-9.289,1.393,-3.12,-9.253,1.407,-3.173,2.31,1.54,0.77
,-9.261,1.402,-3.137,-9.277,1.405,-3.166,2.52,1.33,0.91
,-9.232,1.433,-3.19,-9.335,1.326,-3.144,2.8,1.33,0.77
,-9.284,1.39,-3.171,-9.32,1.33,-3.18,2.87,1.68,0.91
760.0,-9.308,1.378,-3.221,-9.215,1.395,-3.276,2.94,1.47,0.98
,-9.258,1.397,-3.271,-9.284,1.352,-3.235,2.94,1.4,0.98
,-9.213,1.429,-3.319,-9.265,1.342,-3.202,2.8,1.54,0.98
,-9.239,1.414,-3.283,-9.256,1.402,-3.168,2.52,1.61,0.98
836.0,-9.308,1.39,-3.228,-9.273,1.45,-3.257,3.43,1.4,0.91
,-9.273,1.402,-3.202,-9.237,1.469,-3.252,3.71,1.4,0.98
,-9.258,1.45,-3.245,-9.299,1.412,-3.175,3.78,1.33,0.98
,-9.241,1.441,-3.216,-9.292,1.342,-3.206,3.71,1.47,1.05
912.0,-9.265,1.369,-3.192,-9.275,1.443,-3.254,2.59,1.47,0.7
,-9.311,1.381,-3.185,-9.27,1.402,-3.242,2.66,1.54,0.77
,-9.239,1.407,-3.242,-9.268,1.383,-3.252,2.73,1.54,0.84
,-9.289,1.443,-3.29,-9.263,1.374,-3.247,2.38,1.47,0.77
988.0,-9.268,1.374,-3.185,-9.277,1.381,-3.235,2.38,1.47,0.77
,-9.253,1.378,-3.245,-9.253,1.426,-3.262,2.52,1.4,0.7
,-9.268,1.388,-3.204,-9.316,1.405,-3.211,2.59,1.4,0.7
,-9.261,1.378,-3.206,-9.296,1.397,-3.197,2.59,1.47,0.77
1064.0,-9.253,1.421,-3.209,-9.244,1.412,-3.211,2.52,1.33,0.77
,-9.28,1.374,-3.209,-9.261,1.417,-3.228,2.52,1.54,0.77
,-9.275,1.335,-3.25,-9.251,1.441,-3.185,2.52,1.26,0.77
,-9.258,1.34,-3.252,-9.258,1.383,-3.204,2.66,1.26,0.84
1140.0,-9.261,1.347,-3.183,-9.239,1.46,-3.348,2.8,1.47,0.84
,-9.265,1.33,-3.195,-9.22,1.481,-3.374,2.87,1.54,0.77
,-9.294,1.376,-3.204,-9.225,1.431,-3.415,3.22,1.54,0.77
,-9.308,1.417,-3.278,-9.241,1.412,-3.357,3.5,1.54,0.84
1216.0,-9.268,1.438,-3.324,-9.282,1.338,-3.111,1.54,1.12,0.7
,-9.249,1.424,-3.247,-9.292,1.342,-3.087,1.61,0.98,0.7
,-9.244,1.433,-3.228,-9.294,1.285,-3.116,1.54,0.84,0.49
,-9.311,1.395,-3.137,-9.268,1.354,-3.173,1.47,1.05,0.49
1292.0,-9.253,1.39,-3.204,-9.306,1.407,-3.214,3.15,1.26,0.91
,-9.22,1.4,-3.254,-9.275,1.414,-3.197,3.01,1.26,0.91
,-9.289,1.388,-3.285,-9.265,1.409,-3.199,2.8,1.26,0.84
,-9.265,1.374,-3.233,-9.265,1.4,-3.175,2.73,1.33,0.91
1368.0,-9.253,1.452,-3.216,-9.28,1.39,-3.264,3.01,1.26,0.91
,-9.284,1.417,-3.285,-9.246,1.345,-3.242,2.94,1.05,0.77
,-9.249,1.433,-3.288,-9.206,1.35,-3.238,2.66,1.12,0.7
,-9.253,1.421,-3.281,-9.229,1.417,-3.173,2.52,1.12,0.77
1444.0,-9.287,1.421,-3.19,-9.275,1.369,-3.094,2.8,1.19,0.7
,-9.304,1.419,-3.137,-9.292,1.388,-3.159,2.59,1.05,0.7
,-9.261,1.383,-3.101,-9.256,1.39,-3.195,2.45,1.33,0.77
,-9.311,1.354,-3.092,-9.241,1.381,-3.238,2.66,1.33,0.7
1520.0,-9.241,1.369,-3.281,-9.277,1.417,-3.262,3.36,1.68,0.98
,-9.263,1.412,-3.271,-9.251,1.381,-3.216,3.36,1.82,0.84
,-9.287,1.419,-3.252,-9.227,1.402,-3.297,3.36,1.89,0.91
,-9.28,1.412,-3.238,-9.244,1.448,-3.302,3.01,1.75,0.77
1596.0,-9.275,1.426,-3.355,-9.277,1.414,-3.228,2.8,1.4,0.56
,-9.273,1.481,-3.352,-9.284,1.407,-3.197,2.31,1.47,0.56
,-9.258,1.438,-3.295,-9.282,1.393,-3.139,2.1,1.54,0.56
,-9.258,1.409,-3.216,-9.227,1.39,-3.159,2.17,1.26,0.49
1672.0,-9.249,1.424,-3.18,-9.313,1.383,-3.223,2.45,1.47,0.42
,-9.277,1.366,-3.151,-9.268,1.393,-3.295,2.31,1.47,0.56
,-9.251,1.366,-3.195,-9.213,1.362,-3.271,2.45,1.47,0.49
,-9.306,1.342,-3.197,-9.249,1.366,-3.319,2.59,1.47,0.56
1748.0,-9.232,1.405,-3.309,-9.275,1.335,-3.077,3.08,1.12,0.63
,-9.225,1.464,-3.331,-9.287,1.33,-3.075,2.8,1.05,0.49
,-9.261,1.467,-3.281,-9.313,1.359,-3.096,2.1,1.05,0.35
,-9.284,1.397,-3.204,-9.263,1.424,-3.132,1.82,1.26,0.42
1824.0,-9.289,1.378,-3.139,-9.246,1.426,-3.264,3.29,1.75,0.63
,-9.301,1.393,-3.175,-9.277,1.39,-3.262,3.29,1.61,0.77
,-9.294,1.338,-3.216,-9.284,1.347,-3.3,3.22,1.61,0.7
,-9.299,1.371,-3.25,-9.251,1.311,-3.3,3.22,1.47,0.63
1900.0,-9.234,1.374,-3.314,-9.273,1.333,-3.159,2.45,1.26,0.49
,-9.227,1.414,-3.283,-9.239,1.369,-3.199,2.24,1.54,0.56
,-9.27,1.417,-3.264,-9.28,1.429,-3.218,1.82,1.54,0.49
,-9.282,1.342,-3.238,-9.28,1.424,-3.223,1.82,1.4,0.56
1976.0,-9.244,1.414,-3.19,-9.265,1.419,-3.202,2.73,1.19,0.49
,-9.251,1.359,-3.24,-9.299,1.371,-3.19,2.73,1.19,0.56
,-9.308,1.385,-3.202,-9.306,1.359,-3.209,2.87,1.4,0.77
,-9.296,1.374,-3.24,-9.299,1.359,-3.259,2.87,1.26,0.63
2052.0,-9.277,1.441,-3.25,-9.313,1.405,-3.288,2.66,1.33,0.84
,-9.273,1.347,-3.269,-9.292,1.376,-3.25,2.66,1.47,0.91
,-9.273,1.414,-3.333,-9.273,1.371,-3.238,2.52,1.4,0.77
,-9.28,1.395,-3.242,-9.239,1.357,-3.209,2.73,1.26,0.77
2128.0,-9.277,1.388,-3.187,-9.32,1.314,-3.218,2.73,1.26,0.7
,-9.249,1.376,-3.192,-9.261,1.333,-3.25,2.66,1.19,0.63
,-9.27,1.409,-3.204,-9.227,1.374,-3.273,2.66,1.12,0.63
,-9.27,1.374,-3.216,-9.263,1.383,-3.271,2.52,1.05,0.56
2204.0,-9.273,1.292,-3.183,-9.32,1.333,-3.118,2.24,1.26,0.77
,-9.318,1.273,-3.151,-9.284,1.369,-3.12,2.45,1.4,0.91
,-9.277,1.309,-3.104,-9.251,1.371,-3.185,2.73,1.61,0.98
,-9.289,1.321,-3.113,-9.234,1.364,-3.264,2.94,1.75,0.98
2280.0,-9.256,1.395,-3.223,-9.222,1.491,-3.403,3.57,1.89,1.12
,-9.256,1.383,-3.302,-9.289,1.407,-3.333,3.43,1.75,1.19
,-9.289,1.424,-3.376,-9.256,1.359,-3.305,3.57,1.61,1.19
,-9.172,1.491,-3.396,-9.263,1.357,-3.257,3.36,1.47,1.05
2356.0,-9.256,1.426,-3.221,-9.273,1.342,-3.183,2.52,1.47,0.91
,-9.294,1.393,-3.206,-9.292,1.374,-3.171,2.52,1.54,0.84
,-9.28,1.359,-3.233,-9.239,1.412,-3.197,2.38,1.4,0.91
,-9.251,1.316,-3.185,-9.225,1.417,-3.199,2.59,1.26,0.84
2432.0,-9.308,1.364,-3.23,-9.239,1.493,-3.278,2.38,1.47,0.84
,-9.22,1.345,-3.238,-9.251,1.419,-3.295,2.66,1.4,0.91
,-9.256,1.388,-3.223,-9.251,1.366,-3.273,2.8,1.33,0.91
,-9.239,1.409,-3.283,-9.239,1.342,-3.264,2.87,1.4,0.77
2508.0,-9.27,1.359,-3.273,-9.232,1.354,-3.271,1.89,1.33,0.7
,-9.289,1.405,-3.254,-9.265,1.335,-3.247,1.96,1.26,0.7
,-9.249,1.421,-3.235,-9.263,1.376,-3.204,1.96,1.19,0.63
,-9.263,1.374,-3.312,-9.273,1.421,-3.228,1.82,1.19,0.7
2584.0,-9.275,1.374,-3.183,-9.306,1.393,-3.221,2.45,1.12,0.77
,-9.261,1.39,-3.19,-9.275,1.371,-3.199,2.52,1.12,0.84
,-9.256,1.429,-3.271,-9.325,1.345,-3.173,2.59,1.19,0.7
,-9.246,1.429,-3.247,-9.296,1.29,-3.19,2.45,1.26,0.63
2660.0,-9.311,1.362,-3.252,-9.258,1.354,-3.211,2.59,1.26,0.84
,-9.244,1.362,-3.233,-9.318,1.347,-3.209,2.38,1.26,0.7
,-9.277,1.376,-3.235,-9.265,1.328,-3.226,2.31,1.33,0.77
,-9.294,1.342,-3.245,-9.258,1.381,-3.254,2.1,1.26,0.77
2736.0,-9.241,1.412,-3.25,-9.229,1.429,-3.195,2.8,1.26,0.84
,-9.294,1.364,-3.214,-9.349,1.412,-3.204,2.59,1.4,0.84
,-9.282,1.378,-3.197,-9.299,1.328,-3.211,2.52,1.47,0.77
,-9.28,1.45,-3.195,-9.258,1.35,-3.259,2.66,1.54,0.77
2812.0,-9.265,1.369,-3.3,-9.261,1.383,-3.273,2.87,1.33,0.91
,-9.237,1.424,-3.278,-9.234,1.35,-3.295,2.66,1.4,0.98
,-9.253,1.409,-3.3,-9.273,1.409,-3.257,2.38,1.33,0.77
,-9.301,1.383,-3.295,-9.296,1.45,-3.221,2.03,1.33,0.84
2888.0,-9.239,1.407,-3.247,-9.275,1.335,-3.144,2.66,0.91,0.84
,-9.222,1.414,-3.204,-9.263,1.385,-3.156,2.73,1.12,0.84
,-9.239,1.402,-3.211,-9.273,1.4,-3.147,2.38,1.12,0.77
,-9.292,1.409,-3.178,-9.289,1.35,-3.19,2.52,1.12,0.77
2964.0,-9.301,1.316,-3.204,-9.268,1.371,-3.195,2.45,1.26,0.77
,-9.28,1.314,-3.19,-9.273,1.33,-3.195,2.73,1.26,0.84
,-9.263,1.39,-3.218,-9.229,1.347,-3.242,2.8,1.12,0.7
,-9.308,1.419,-3.228,-9.268,1.359,-3.23,2.45,1.54,0.77
3040.0,-9.251,1.436,-3.273,-9.273,1.397,-3.226,2.87,1.4,0.84
,-9.258,1.424,-3.266,-9.275,1.397,-3.297,2.73,1.33,0.77
,-9.258,1.441,-3.278,-9.246,1.393,-3.293,2.66,1.33,0.7
,-9.287,1.436,-3.29,-9.225,1.412,-3.273,2.73,1.26,0.7
3116.0,-9.287,1.4,-3.295,-9.277,1.381,-3.173,2.45,1.19,0.77
,-9.258,1.34,-3.23,-9.263,1.385,-3.156,2.45,1.26,0.91
,-9.273,1.345,-3.175,-9.249,1.395,-3.187,2.31,1.12,0.77
,-9.275,1.345,-3.187,-9.253,1.4,-3.178,2.45,1.19,0.84
3192.0,-9.249,1.417,-3.252,-9.282,1.371,-3.247,2.8,1.47,0.84
,-9.268,1.436,-3.214,-9.256,1.419,-3.235,2.52,1.4,0.63
,-9.258,1.4,-3.235,-9.261,1.383,-3.247,2.24,1.19,0.63
,-9.27,1.374,-3.238,-9.27,1.354,-3.218,2.1,1.26,0.7
3268.0,-9.258,1.378,-3.235,-9.318,1.345,-3.202,1.89,1.12,0.7
,-9.265,1.342,-3.209,-9.273,1.374,-3.18,1.96,1.19,0.7
,-9.258,1.369,-3.19,-9.268,1.366,-3.233,2.17,1.19,0.7
,-9.318,1.347,-3.159,-9.213,1.405,-3.254,2.31,1.33,0.77
3344.0,-9.256,1.424,-3.18,-9.28,1.395,-3.185,2.66,1.12,0.7
,-9.268,1.397,-3.206,-9.301,1.4,-3.252,2.66,1.19,0.77
,-9.308,1.364,-3.171,-9.263,1.405,-3.293,2.59,1.33,0.77
,-9.244,1.371,-3.116,-9.289,1.421,-3.331,2.87,1.61,0.77
3420.0,-9.241,1.445,-3.34,-9.268,1.345,-3.144,2.59,1.19,0.84
,-9.22,1.4,-3.293,-9.296,1.342,-3.08,2.38,1.4,0.84
,-9.246,1.419,-3.266,-9.263,1.338,-3.087,2.03,1.33,0.77
,-9.239,1.369,-3.192,-9.296,1.371,-3.106,1.89,1.19,0.63
3496.0,-9.265,1.395,-3.175,-9.287,1.366,-3.247,3.15,1.54,0.77
,-9.249,1.39,-3.211,-9.287,1.4,-3.25,3.15,1.54,0.77
,-9.256,1.357,-3.245,-9.328,1.385,-3.247,3.15,1.75,0.84
,-9.256,1.369,-3.233,-9.234,1.405,-3.233,3.08,1.54,0.77
3572.0,-9.239,1.385,-3.276,-9.179,1.376,-3.18,2.59,1.33,0.7
,-9.222,1.424,-3.297,-9.32,1.345,-3.099,2.45,1.61,0.77
,-9.177,1.381,-3.183,-9.284,1.364,-3.104,1.96,1.4,0.77
,-9.251,1.421,-3.262,-9.292,1.34,-3.178,2.45,1.4,0.77
3648.0,-9.273,1.393,-3.209,-9.258,1.405,-3.314,2.87,1.26,0.56
,-9.323,1.378,-3.276,-9.304,1.412,-3.264,2.94,1.47,0.77
,-9.263,1.424,-3.29,-9.33,1.357,-3.221,2.8,1.26,0.7
,-9.256,1.441,-3.324,-9.308,1.366,-3.209,2.66,1.26,0.63
3724.0,-9.292,1.383,-3.202,-9.296,1.345,-3.166,2.17,1.05,0.56
,-9.249,1.345,-3.185,-9.27,1.34,-3.185,2.1,1.19,0.7
,-9.244,1.352,-3.156,-9.301,1.357,-3.223,2.03,1.12,0.56
,-9.251,1.333,-3.151,-9.292,1.4,-3.326,2.38,1.19,0.63
3800.0,-9.201,1.378,-3.288,-9.251,1.328,-3.149,3.01,1.19,0.84
,-9.287,1.393,-3.307,-9.308,1.374,-3.178,3.01,1.26,0.77
,-9.258,1.39,-3.288,-9.258,1.381,-3.209,2.73,1.12,0.7
,-9.263,1.35,-3.226,-9.232,1.407,-3.195,2.52,1.33,0.77
3876.0,-9.289,1.362,-3.19,-9.306,1.362,-3.156,2.52,1.4,0.77
,-9.27,1.374,-3.156,-9.28,1.397,-3.209,2.31,1.33,0.7
,-9.301,1.352,-3.168,-9.301,1.395,-3.338,2.31,1.4,0.84
,-9.258,1.347,-3.151,-9.263,1.407,-3.374,2.73,1.33,0.77
3952.0,-9.296,1.409,-3.278,-9.287,1.383,-3.221,2.1,1.12,0.77
,-9.28,1.385,-3.288,-9.239,1.378,-3.214,2.03,1.05,0.77
,-9.261,1.374,-3.211,-9.225,1.359,-3.209,2.24,1.19,0.77
,-9.28,1.347,-3.209,-9.27,1.393,-3.151,2.52,1.12,0.84
4028.0,-9.306,1.345,-3.171,-9.258,1.4,-3.257,2.45,1.26,0.7
,-9.277,1.385,-3.195,-9.273,1.419,-3.214,2.59,1.12,0.77
,-9.222,1.402,-3.24,-9.253,1.445,-3.195,2.73,1.19,0.91
,-9.222,1.419,-3.247,-9.294,1.381,-3.168,2.59,1.12,0.91
4104.0,-9.294,1.323,-3.161,-9.28,1.474,-3.24,1.82,1.4,0.77
,-9.33,1.278,-3.132,-9.284,1.397,-3.259,2.24,1.54,0.7
,-9.258,1.311,-3.197,-9.256,1.342,-3.254,2.87,1.33,0.7
,-9.237,1.4,-3.257,-9.299,1.28,-3.199,3.08,1.47,0.84
4180.0,-9.325,1.311,-3.264,-9.27,1.402,-3.285,2.59,1.26,0.84
,-9.289,1.383,-3.252,-9.232,1.376,-3.259,2.87,1.54,0.98
,-9.258,1.431,-3.262,-9.27,1.347,-3.187,2.73,1.4,0.91
,-9.325,1.405,-3.264,-9.32,1.371,-3.247,2.38,1.26,0.77
4256.0,-9.292,1.359,-3.161,-9.265,1.385,-3.163,2.66,1.19,0.77
,-9.258,1.369,-3.12,-9.289,1.364,-3.104,2.8,1.12,0.84
,-9.277,1.462,-3.175,-9.265,1.333,-3.168,2.73,1.19,0.84
,-9.27,1.429,-3.175,-9.258,1.338,-3.185,2.59,1.33,0.7
4332.0,-9.273,1.366,-3.216,-9.198,1.414,-3.23,3.22,1.47,0.91
,-9.28,1.366,-3.259,-9.28,1.374,-3.242,3.01,1.4,0.77
,-9.292,1.385,-3.257,-9.316,1.338,-3.254,2.66,1.47,0.77
,-9.232,1.417,-3.271,-9.308,1.374,-3.226,2.52,1.4,0.7
4408.0,-9.275,1.412,-3.214,-9.292,1.357,-3.204,3.08,1.4,0.84
,-9.261,1.412,-3.276,-9.268,1.352,-3.142,2.8,1.05,0.77
,-9.239,1.402,-3.276,-9.289,1.335,-3.147,2.45,1.19,0.84
,-9.253,1.421,-3.235,-9.296,1.354,-3.199,2.1,1.19,0.77
4484.0,-9.27,1.438,-3.24,-9.34,1.366,-3.187,3.15,1.19,0.84
,-9.261,1.409,-3.305,-9.289,1.366,-3.144,2.8,1.4,0.77
,-9.22,1.4,-3.276,-9.294,1.424,-3.183,2.1,1.26,0.63
,-9.282,1.39,-3.202,-9.261,1.441,-3.192,1.82,1.47,0.7
4560.0,-9.273,1.417,-3.171,-9.227,1.441,-3.226,2.38,1.33,0.77
,-9.296,1.354,-3.242,-9.275,1.402,-3.254,2.24,1.26,0.77
,-9.306,1.357,-3.278,-9.292,1.438,-3.278,2.38,1.12,0.77
,-9.263,1.342,-3.262,-9.256,1.345,-3.247,2.17,1.19,0.77
4636.0,-9.294,1.374,-3.223,-9.296,1.369,-3.084,1.82,0.98,0.56
,-9.246,1.426,-3.173,-9.249,1.35,-3.072,1.89,1.12,0.77
,-9.277,1.378,-3.106,-9.296,1.285,-3.101,1.96,0.98,0.7
,-9.284,1.374,-3.075,-9.246,1.357,-3.077,2.03,0.84,0.56
4712.0,-9.261,1.457,-3.101,-9.311,1.395,-3.185,3.29,1.61,0.56
,-9.292,1.476,-3.099,-9.282,1.376,-3.218,3.01,1.68,0.49
,-9.313,1.357,-3.149,-9.215,1.409,-3.278,2.66,1.61,0.49
,-9.282,1.321,-3.151,-9.277,1.424,-3.305,2.87,1.82,0.49
4788.0,-9.282,1.407,-3.266,-9.306,1.35,-3.242,3.01,1.61,0.49
,-9.275,1.383,-3.3,-9.328,1.321,-3.199,2.94,1.61,0.42
,-9.241,1.426,-3.283,-9.304,1.299,-3.202,3.08,1.54,0.42
,-9.284,1.424,-3.233,-9.294,1.347,-3.214,2.94,1.68,0.49
4864.0,-9.294,1.433,-3.221,-9.292,1.309,-3.195,3.85,1.26,0.35
,-9.273,1.421,-3.25,-9.256,1.383,-3.171,3.57,1.4,0.35
,-9.251,1.407,-3.238,-9.273,1.371,-3.144,3.22,1.4,0.35
,-9.332,1.328,-3.204,-9.323,1.383,-3.149,3.08,1.4,0.42
4940.0,-9.28,1.335,-3.18,-9.268,1.395,-3.216,2.94,1.33,0.28
,-9.282,1.321,-3.195,-9.263,1.35,-3.204,3.22,1.4,0.42
,-9.27,1.326,-3.25,-9.289,1.311,-3.175,3.64,1.4,0.49
,-9.292,1.362,-3.214,-9.316,1.345,-3.199,3.85,1.54,0.49
5016.0,-9.296,1.374,-3.202,-9.28,1.283,-3.221,3.99,1.54,0.42
,-9.282,1.457,-3.252,-9.273,1.299,-3.226,3.92,1.47,0.35
,-9.27,1.409,-3.257,-9.301,1.366,-3.197,3.36,1.4,0.28
,-9.275,1.354,-3.192,-9.32,1.39,-3.197,3.08,1.33,0.35
5092.0,-9.275,1.309,-3.23,-9.294,1.338,-3.252,2.59,1.61,0.42
,-9.277,1.34,-3.206,-9.318,1.347,-3.288,2.59,1.54,0.42
,-9.32,1.292,-3.288,-9.241,1.374,-3.269,2.87,1.47,0.42
,-9.335,1.304,-3.326,-9.273,1.328,-3.19,3.22,1.47,0.63
5168.0,-9.296,1.285,-3.218,-9.275,1.307,-3.099,3.43,1.4,0.7
,-9.292,1.314,-3.173,-9.33,1.295,-3.18,3.99,1.33,0.7
,-9.261,1.307,-3.202,-9.287,1.295,-3.197,4.2,1.4,0.7
,-9.263,1.328,-3.173,-9.275,1.29,-3.228,4.27,1.61,0.7
5244.0,-9.249,1.357,-3.283,-9.292,1.321,-3.247,3.78,1.47,0.91
,-9.251,1.395,-3.257,-9.308,1.328,-3.245,3.43,1.54,0.77
,-9.244,1.412,-3.331,-9.275,1.316,-3.221,2.8,1.54,0.63
,-9.27,1.383,-3.228,-9.27,1.29,-3.216,2.1,1.47,0.49
5320.0,-9.304,1.299,-3.254,-9.284,1.302,-3.168,2.66,1.54,0.77
,-9.289,1.316,-3.254,-9.323,1.302,-3.183,2.66,1.33,0.7
,-9.265,1.278,-3.238,-9.265,1.354,-3.233,2.52,1.47,0.7
,-9.251,1.29,-3.206,-9.229,1.345,-3.247,2.52,1.33,0.63
5396.0,-9.284,1.366,-3.247,-9.273,1.335,-3.214,3.43,1.4,0.98
,-9.261,1.318,-3.218,-9.304,1.309,-3.271,3.29,1.33,0.84
,-9.282,1.321,-3.211,-9.21,1.323,-3.223,3.29,1.4,0.98
,-9.265,1.335,-3.202,-9.261,1.376,-3.247,3.43,1.4,1.05
5472.0,-9.289,1.417,-3.247,-9.301,1.285,-3.156,3.15,1.4,0.98
,-9.265,1.371,-3.24,-9.296,1.287,-3.168,2.73,1.47,0.91
,-9.256,1.263,-3.235,-9.347,1.283,-3.209,2.38,1.47,0.84
,-9.263,1.23,-3.151,-9.229,1.33,-3.271,2.8,1.61,0.91
5548.0,-9.265,1.407,-3.329,-9.27,1.311,-3.147,3.22,1.47,0.91
,-9.208,1.438,-3.331,-9.308,1.249,-3.144,2.8,1.61,0.91
,-9.251,1.385,-3.305,-9.263,1.24,-3.171,2.24,1.68,0.77
,-9.277,1.369,-3.211,-9.258,1.33,-3.223,1.89,1.68,0.7
5624.0,-9.241,1.383,-3.254,-9.311,1.326,-3.257,3.29,1.61,0.91
,-9.27,1.385,-3.247,-9.304,1.342,-3.259,2.73,1.82,0.91
,-9.237,1.371,-3.307,-9.28,1.378,-3.276,2.45,1.68,0.84
,-9.265,1.314,-3.228,-9.289,1.388,-3.333,2.31,1.82,0.98
5700.0,-9.258,1.395,-3.319,-9.275,1.321,-3.264,2.8,1.4,0.84
,-9.258,1.33,-3.283,-9.277,1.316,-3.211,2.66,1.19,0.84
,-9.258,1.352,-3.348,-9.229,1.347,-3.192,2.73,1.33,0.98
,-9.258,1.335,-3.285,-9.225,1.33,-3.302,2.59,1.12,0.91
5776.0,-9.22,1.335,-3.276,-9.308,1.338,-3.199,2.66,1.26,0.63
,-9.275,1.35,-3.252,-9.296,1.275,-3.19,2.45,1.61,0.7
,-9.246,1.321,-3.302,-9.246,1.383,-3.221,2.59,1.33,0.84
,-9.251,1.374,-3.302,-9.311,1.364,-3.25,2.52,1.4,0.7
5852.0,-9.265,1.362,-3.195,-9.32,1.383,-3.195,1.96,1.54,0.7
,-9.258,1.338,-3.273,-9.316,1.309,-3.154,1.96,1.33,0.63
,-9.215,1.34,-3.245,-9.304,1.271,-3.195,1.82,1.47,0.56
,-9.27,1.354,-3.18,-9.294,1.302,-3.214,2.1,1.47,0.63
5928.0,-9.263,1.362,-3.223,-9.306,1.263,-3.233,3.01,1.4,0.77
,-9.246,1.371,-3.259,-9.323,1.232,-3.273,2.73,1.54,0.7
,-9.304,1.335,-3.247,-9.287,1.304,-3.305,2.59,1.75,0.7
,-9.284,1.299,-3.245,-9.213,1.35,-3.321,2.45,1.33,0.7
6004.0,-9.261,1.371,-3.324,-9.256,1.304,-3.247,2.38,1.54,0.84
,-9.294,1.335,-3.295,-9.304,1.299,-3.262,2.03,1.33,0.77
,-9.296,1.34,-3.269,-9.249,1.362,-3.264,1.96,1.47,0.77
,-9.265,1.299,-3.245,-9.206,1.395,-3.309,2.1,1.47,0.84
6080.0,-9.196,1.366,-3.283,-9.311,1.304,-3.252,1.96,1.26,0.84
,-9.354,1.309,-3.254,-9.282,1.333,-3.197,1.82,1.26,0.98
,-9.282,1.22,-3.197,-9.265,1.318,-3.216,2.1,1.05,1.05
,-9.249,1.266,-3.175,-9.294,1.321,-3.252,2.8,1.19,1.05
6156.0,-9.213,1.28,-3.238,-9.301,1.292,-3.183,2.17,1.26,0.98
,-9.275,1.278,-3.264,-9.244,1.345,-3.171,2.31,1.4,1.05
,-9.265,1.311,-3.209,-9.268,1.321,-3.206,2.45,1.19,1.05
,-9.246,1.318,-3.209,-9.28,1.33,-3.238,2.52,1.4,1.05
6232.0,-9.253,1.366,-3.228,-9.294,1.304,-3.305,2.17,1.54,1.05
,-9.28,1.393,-3.269,-9.213,1.388,-3.331,2.17,1.4,1.05
,-9.277,1.362,-3.235,-9.301,1.414,-3.329,2.17,1.26,1.05
,-9.316,1.287,-3.288,-9.299,1.352,-3.309,2.31,1.26,1.19
6308.0,-9.265,1.354,-3.257,-9.265,1.275,-3.19,1.96,1.05,0.98
,-9.27,1.333,-3.226,-9.258,1.316,-3.192,2.17,1.19,1.05
,-9.311,1.338,-3.271,-9.265,1.388,-3.206,2.17,1.4,1.05
,-9.287,1.347,-3.206,-9.261,1.409,-3.233,2.1,1.19,0.91
6384.0,-9.249,1.395,-3.278,-9.234,1.441,-3.302,2.52,1.19,0.91
,-9.258,1.342,-3.278,-9.239,1.455,-3.257,2.52,1.19,0.91
,-9.256,1.335,-3.273,-9.217,1.366,-3.18,2.38,1.47,0.98
,-9.277,1.328,-3.238,-9.373,1.307,-3.185,2.59,0.91,1.05
6460.0,-9.21,1.316,-3.178,-9.263,1.302,-3.252,2.24,1.19,0.91
,-9.28,1.295,-3.168,-9.273,1.366,-3.288,2.87,1.19,0.77
,-9.328,1.309,-3.202,-9.229,1.402,-3.276,3.08,1.05,0.91
,-9.292,1.297,-3.154,-9.249,1.347,-3.269,3.43,1.26,1.05
6536.0,-9.296,1.311,-3.233,-9.325,1.362,-3.24,2.24,1.33,0.84
,-9.268,1.385,-3.202,-9.287,1.299,-3.285,2.38,1.4,0.77
,-9.237,1.397,-3.209,-9.275,1.328,-3.285,2.31,1.54,0.77
,-9.273,1.405,-3.199,-9.287,1.345,-3.262,2.17,1.47,0.77
6612.0,-9.275,1.385,-3.25,-9.273,1.304,-3.154,2.17,1.33,0.84
,-9.251,1.362,-3.183,-9.246,1.316,-3.156,1.96,1.26,0.84
,-9.289,1.316,-3.206,-9.289,1.357,-3.223,1.89,1.26,0.84
,-9.282,1.318,-3.199,-9.296,1.354,-3.211,2.31,1.4,0.84
6688.0,-9.261,1.374,-3.242,-9.301,1.381,-3.288,2.45,1.47,0.77
,-9.296,1.333,-3.223,-9.275,1.4,-3.29,2.45,1.68,0.77
,-9.308,1.366,-3.23,-9.225,1.397,-3.312,2.52,1.47,0.7
,-9.282,1.362,-3.278,-9.215,1.402,-3.262,2.59,1.4,0.84
6764.0,-9.282,1.419,-3.235,-9.241,1.33,-3.19,2.24,1.61,0.7
,-9.328,1.354,-3.171,-9.289,1.323,-3.254,2.1,1.61,0.7
,-9.277,1.321,-3.204,-9.227,1.385,-3.262,2.24,1.47,0.7
,-9.328,1.295,-3.211,-9.275,1.39,-3.24,2.45,1.26,0.63
6840.0,-9.239,1.366,-3.285,-9.275,1.285,-3.302,2.59,1.47,0.56
,-9.256,1.374,-3.283,-9.282,1.383,-3.324,2.59,1.4,0.63
,-9.287,1.333,-3.283,-9.232,1.393,-3.333,2.52,1.4,0.63
,-9.265,1.323,-3.259,-9.239,1.39,-3.276,2.66,1.54,0.7
6916.0,-9.27,1.338,-3.25,-9.273,1.311,-3.18,2.38,1.19,0.56
,-9.287,1.342,-3.218,-9.318,1.307,-3.228,2.45,1.19,0.56
,-9.287,1.345,-3.206,-9.249,1.357,-3.245,2.38,0.98,0.56
,-9.287,1.314,-3.183,-9.268,1.352,-3.247,2.8,1.12,0.7
6992.0,-9.275,1.328,-3.245,-9.323,1.232,-3.166,2.52,1.05,0.63
,-9.294,1.314,-3.228,-9.241,1.256,-3.178,2.59,1.05,0.63
,-9.237,1.321,-3.185,-9.263,1.333,-3.235,2.66,1.33,0.7
,-9.282,1.318,-3.159,-9.273,1.364,-3.252,2.73,1.33,0.84
7068.0,-9.311,1.376,-3.228,-9.28,1.342,-3.257,3.01,1.54,0.98
,-9.261,1.304,-3.242,-9.253,1.383,-3.25,2.73,1.61,0.98
,-9.27,1.326,-3.238,-9.268,1.326,-3.283,2.8,1.68,0.91
,-9.296,1.273,-3.247,-9.268,1.431,-3.266,2.94,1.47,0.84
7144.0,-9.239,1.419,-3.257,-9.232,1.397,-3.242,2.8,1.47,0.77
,-9.275,1.335,-3.278,-9.284,1.4,-3.23,2.52,1.33,0.77
,-9.261,1.342,-3.245,-9.27,1.35,-3.204,2.59,1.47,0.98
,-9.244,1.338,-3.238,-9.294,1.302,-3.209,3.01,1.47,0.91
7220.0,-9.294,1.292,-3.209,-9.244,1.328,-3.262,2.87,1.47,0.7
,-9.287,1.378,-3.262,-9.273,1.328,-3.228,3.15,1.47,0.77
,-9.256,1.39,-3.257,-9.287,1.323,-3.206,3.08,1.4,0.77
,-9.251,1.323,-3.314,-9.229,1.321,-3.257,2.87,1.54,0.77
7296.0,-9.256,1.318,-3.25,-9.225,1.34,-3.309,2.94,1.26,0.84
,-9.277,1.33,-3.257,-9.263,1.352,-3.238,2.8,1.4,0.84
,-9.318,1.35,-3.295,-9.225,1.4,-3.23,2.87,1.33,0.84
,-9.273,1.364,-3.297,-9.263,1.342,-3.187,2.94,1.19,0.84
7372.0,-9.265,1.347,-3.149,-9.237,1.34,-3.254,2.59,1.4,0.77
,-9.313,1.354,-3.185,-9.22,1.321,-3.259,2.59,1.61,0.77
,-9.313,1.275,-3.221,-9.246,1.342,-3.314,2.52,1.54,0.77
,-9.275,1.285,-3.223,-9.287,1.321,-3.312,2.8,1.54,0.77
7448.0,-9.256,1.283,-3.309,-9.261,1.417,-3.309,2.24,1.4,0.77
,-9.22,1.33,-3.29,-9.261,1.388,-3.228,2.38,1.33,0.77
,-9.27,1.366,-3.273,-9.27,1.388,-3.245,2.52,1.26,0.77
,-9.261,1.376,-3.269,-9.318,1.333,-3.262,2.24,1.33,0.63
7524.0,-9.299,1.309,-3.266,-9.292,1.371,-3.285,2.31,1.19,0.84
,-9.306,1.307,-3.297,-9.265,1.295,-3.297,2.59,1.12,0.91
,-9.275,1.283,-3.283,-9.282,1.318,-3.297,2.66,1.12,0.98
,-9.275,1.362,-3.305,-9.287,1.309,-3.218,2.8,1.05,0.98
7600.0,-9.296,1.309,-3.168,-9.253,1.366,-3.247,2.31,0.98,0.98
,-9.308,1.311,-3.221,-9.234,1.433,-3.281,2.59,1.05,1.05
,-9.328,1.311,-3.245,-9.244,1.397,-3.211,3.01,0.91,1.05
,-9.246,1.357,-3.262,-9.294,1.378,-3.195,3.08,0.91,1.12
7676.0,-9.328,1.321,-3.175,-9.246,1.419,-3.259,2.38,0.91,0.84
,-9.261,1.338,-3.185,-9.304,1.347,-3.24,2.66,0.98,0.84
,-9.34,1.381,-3.254,-9.244,1.323,-3.228,2.73,0.91,0.77
,-9.239,1.383,-3.228,-9.28,1.307,-3.252,2.45,1.26,0.91
7752.0,-9.268,1.338,-3.19,-9.234,1.393,-3.202,2.1,1.05,0.77
,-9.268,1.371,-3.178,-9.258,1.381,-3.276,2.38,0.98,0.63
,-9.28,1.39,-3.214,-9.261,1.385,-3.214,2.45,1.05,0.77
,-9.256,1.405,-3.211,-9.261,1.307,-3.166,2.24,1.12,0.84
7828.0,-9.294,1.254,-3.178,-9.275,1.352,-3.218,2.45,1.33,0.77
,-9.287,1.28,-3.175,-9.273,1.345,-3.23,3.01,1.33,0.84
,-9.28,1.39,-3.195,-9.265,1.369,-3.23,3.01,1.26,0.7
,-9.253,1.354,-3.195,-9.225,1.388,-3.185,2.8,1.47,0.77
7904.0,-9.249,1.388,-3.216,-9.28,1.318,-3.214,3.08,1.82,0.91
,-9.292,1.302,-3.228,-9.246,1.335,-3.24,2.87,1.82,0.84
,-9.304,1.321,-3.216,-9.265,1.364,-3.309,2.73,1.61,0.77
,-9.282,1.342,-3.245,-9.28,1.338,-3.297,2.94,1.54,0.84
7980.0,-9.275,1.362,-3.391,-9.316,1.354,-3.192,2.87,1.33,0.77
,-9.217,1.347,-3.34,-9.241,1.376,-3.154,2.52,1.19,0.7
,-9.232,1.359,-3.35,-9.292,1.362,-3.159,2.24,1.47,0.77
,-9.268,1.345,-3.245,-9.308,1.369,-3.168,2.1,1.26,0.84
8056.0,-9.273,1.328,-3.132,-9.287,1.354,-3.214,2.66,1.33,0.7
,-9.263,1.318,-3.149,-9.284,1.321,-3.18,2.94,1.4,0.77
,-9.284,1.369,-3.156,-9.273,1.323,-3.218,3.01,1.54,0.77
,-9.306,1.318,-3.156,-9.256,1.364,-3.297,2.94,1.61,0.77
8132.0,-9.275,1.352,-3.309,-9.239,1.354,-3.281,2.59,1.4,0.77
,-9.251,1.352,-3.317,-9.234,1.354,-3.278,2.45,1.47,0.77
,-9.265,1.352,-3.35,-9.246,1.362,-3.278,2.38,1.4,0.77
,-9.263,1.323,-3.288,-9.273,1.362,-3.266,2.31,1.26,0.63
8208.0,-9.253,1.381,-3.264,-9.241,1.352,-3.23,2.38,1.19,0.56
,-9.241,1.362,-3.245,-9.249,1.39,-3.324,2.24,1.12,0.56
,-9.265,1.345,-3.233,-9.251,1.414,-3.288,2.38,1.12,0.56
,-9.258,1.292,-3.183,-9.265,1.366,-3.233,2.52,1.19,0.7
8284.0,-9.277,1.297,-3.202,-9.253,1.364,-3.247,2.17,1.26,0.77
,-9.292,1.295,-3.211,-9.258,1.383,-3.206,2.52,1.26,0.77
,-9.261,1.299,-3.173,-9.28,1.297,-3.159,2.73,1.12,0.77
,-9.311,1.354,-3.202,-9.28,1.249,-3.204,3.08,1.19,0.84
8360.0,-9.287,1.28,-3.199,-9.306,1.328,-3.211,3.08,1.33,0.91
,-9.275,1.366,-3.163,-9.249,1.321,-3.254,3.43,1.47,0.91
,-9.284,1.385,-3.211,-9.261,1.366,-3.216,3.29,1.47,0.98
,-9.296,1.342,-3.24,-9.277,1.352,-3.254,3.01,1.4,0.91
8436.0,-9.277,1.374,-3.269,-9.304,1.335,-3.218,2.59,1.4,0.84
,-9.289,1.364,-3.23,-9.241,1.34,-3.199,2.59,1.4,0.91
,-9.275,1.357,-3.228,-9.203,1.347,-3.242,2.52,1.33,0.91
,-9.296,1.304,-3.254,-9.277,1.34,-3.204,2.52,1.54,0.77
8512.0,-9.268,1.345,-3.266,-9.27,1.378,-3.281,2.31,1.54,0.84
,-9.273,1.316,-3.266,-9.275,1.385,-3.25,2.38,1.4,0.84
,-9.246,1.338,-3.271,-9.22,1.359,-3.269,2.52,1.47,0.91
,-9.241,1.405,-3.295,-9.268,1.366,-3.281,2.59,1.26,0.77
8588.0,-9.284,1.383,-3.25,-9.258,1.297,-3.159,2.1,1.19,0.7
,-9.296,1.338,-3.235,-9.294,1.321,-3.238,2.17,1.12,0.77
,-9.299,1.323,-3.226,-9.273,1.345,-3.293,2.1,1.33,0.7
,-9.256,1.314,-3.23,-9.299,1.314,-3.357,2.1,1.26,0.63
8664.0,-9.258,1.371,-3.343,-9.277,1.304,-3.166,2.31,0.98,0.63
,-9.268,1.376,-3.283,-9.311,1.29,-3.116,2.17,0.91,0.7
,-9.234,1.407,-3.283,-9.337,1.292,-3.108,2.03,0.7,0.56
,-9.277,1.39,-3.199,-9.261,1.345,-3.099,1.75,0.91,0.63
8740.0,-9.301,1.273,-3.068,-9.304,1.328,-3.276,2.94,1.19,0.7
,-9.292,1.278,-3.123,-9.292,1.33,-3.309,2.87,1.26,0.63
,-9.282,1.295,-3.096,-9.263,1.347,-3.343,3.01,1.47,0.63
,-9.28,1.297,-3.204,-9.277,1.297,-3.326,3.22,1.61,0.77
8816.0,-9.306,1.342,-3.369,-9.299,1.321,-3.173,2.73,1.26,0.98
,-9.246,1.318,-3.259,-9.289,1.28,-3.151,2.66,1.33,0.98
,-9.239,1.333,-3.257,-9.241,1.318,-3.168,2.45,1.33,0.91
,-9.27,1.314,-3.185,-9.277,1.369,-3.259,2.38,1.33,0.91
8892.0,-9.241,1.395,-3.235,-9.263,1.378,-3.228,2.94,1.54,1.12
,-9.21,1.397,-3.209,-9.287,1.342,-3.245,2.73,1.61,1.05
,-9.277,1.347,-3.214,-9.287,1.323,-3.214,2.87,1.61,0.91
,-9.263,1.342,-3.233,-9.294,1.347,-3.266,3.01,1.75,0.98
8968.0,-9.289,1.354,-3.288,-9.301,1.366,-3.372,2.38,1.61,0.98
,-9.215,1.335,-3.238,-9.251,1.328,-3.326,2.24,1.47,0.98
,-9.251,1.366,-3.307,-9.27,1.359,-3.271,2.31,1.33,0.98
,-9.304,1.333,-3.326,-9.289,1.318,-3.233,2.31,1.4,0.98
9044.0,-9.273,1.342,-3.185,-9.277,1.347,-3.154,2.24,1.12,0.91
,-9.241,1.383,-3.175,-9.265,1.335,-3.19,2.17,1.26,0.84
,-9.299,1.311,-3.135,-9.232,1.357,-3.199,2.17,1.19,0.77
,-9.311,1.33,-3.104,-9.239,1.354,-3.226,2.45,1.4,0.84
9120.0,-9.263,1.388,-3.247,-9.249,1.357,-3.285,2.24,1.47,0.84
,-9.304,1.405,-3.221,-9.234,1.338,-3.297,2.17,1.54,0.91
,-9.273,1.383,-3.266,-9.249,1.352,-3.269,2.31,1.47,0.91
,-9.251,1.369,-3.264,-9.249,1.35,-3.262,2.31,1.33,0.77
9196.0,-9.28,1.354,-3.254,-9.249,1.338,-3.166,2.03,1.4,0.63
,-9.244,1.328,-3.204,-9.284,1.316,-3.204,2.1,1.26,0.63
,-9.27,1.366,-3.23,-9.304,1.35,-3.269,2.31,1.33,0.56
,-9.249,1.405,-3.161,-9.249,1.338,-3.24,2.52,1.33,0.63
9272.0,-9.22,1.335,-3.269,-9.277,1.347,-3.271,2.73,1.47,0.77
,-9.265,1.335,-3.228,-9.289,1.364,-3.216,2.52,1.4,0.7
,-9.268,1.323,-3.285,-9.227,1.414,-3.242,2.52,1.19,0.7
,-9.344,1.314,-3.228,-9.273,1.366,-3.281,2.45,1.26,0.7
9348.0,-9.299,1.338,-3.221,-9.232,1.381,-3.297,2.38,1.47,0.98
,-9.229,1.278,-3.259,-9.265,1.39,-3.228,2.73,1.12,0.98
,-9.265,1.309,-3.242,-9.253,1.304,-3.226,3.01,1.12,0.91
,-9.28,1.354,-3.211,-9.275,1.297,-3.23,3.01,1.12,0.98
9424.0,-9.292,1.347,-3.254,-9.301,1.287,-3.13,2.59,1.26,0.77
,-9.232,1.364,-3.19,-9.241,1.311,-3.156,2.66,1.33,0.91
,-9.261,1.328,-3.204,-9.282,1.345,-3.211,2.52,1.33,0.84
,-9.316,1.354,-3.137,-9.282,1.326,-3.199,2.31,1.4,0.77
9500.0,-9.342,1.304,-3.214,-9.22,1.366,-3.295,2.8,1.54,1.12
,-9.253,1.318,-3.293,-9.265,1.333,-3.242,3.15,1.54,1.12
,-9.22,1.371,-3.29,-9.258,1.297,-3.211,2.94,1.68,1.05
,-9.244,1.419,-3.278,-9.275,1.333,-3.226,2.38,1.54,0.98
9576.0,-9.284,1.338,-3.223,-9.299,1.354,-3.269,3.08,1.61,1.05
,-9.251,1.374,-3.24,-9.263,1.381,-3.283,3.01,1.61,1.12
,-9.241,1.385,-3.271,-9.273,1.388,-3.259,2.66,1.47,0.98
,-9.261,1.414,-3.293,-9.246,1.385,-3.252,2.59,1.54,0.91
9652.0,-9.244,1.366,-3.247,-9.294,1.299,-3.149,2.24,1.4,0.7
,-9.256,1.364,-3.214,-9.311,1.385,-3.209,2.03,1.54,0.77
,-9.256,1.402,-3.163,-9.237,1.371,-3.171,1.75,1.82,0.77
,-9.275,1.273,-3.135,-9.263,1.376,-3.216,1.75,1.61,0.63
9728.0,-9.249,1.347,-3.214,-9.239,1.357,-3.3,2.52,1.75,0.77
,-9.294,1.366,-3.245,-9.273,1.383,-3.348,2.73,1.68,0.84
,-9.294,1.34,-3.257,-9.275,1.395,-3.362,2.8,1.82,0.84
,-9.265,1.338,-3.309,-9.258,1.412,-3.336,3.01,1.68,0.91
9804.0,-9.253,1.364,-3.271,-9.263,1.364,-3.314,2.66,1.26,0.77
,-9.28,1.381,-3.343,-9.201,1.383,-3.319,2.59,1.33,0.7
,-9.28,1.366,-3.317,-9.261,1.388,-3.269,2.73,1.12,0.77
,-9.27,1.354,-3.288,-9.299,1.335,-3.197,2.73,0.98,0.77
