Timestamp,AccX,AccY,AccZ,GyroX,GyroY,GyroZ,MagnX,MagnY,MagnZ
0.0,-9.5,0.268,-2.699,-9.543,0.285,-2.749,2.45,1.68,0.77
,-9.464,0.359,-2.639,-9.596,0.213,-2.752,2.52,1.68,0.77
,-9.517,0.318,-2.709,-9.524,0.22,-2.721,2.52,1.75,0.84
,-9.543,0.258,-2.694,-9.507,0.275,-2.783,2.66,1.96,0.77
76.0,-9.495,0.287,-2.795,-9.505,0.208,-2.733,3.01,1.54,0.7
,-9.514,0.263,-2.747,-9.533,0.316,-2.745,2.94,1.47,0.63
,-9.55,0.249,-2.764,-9.588,0.299,-2.716,2.73,1.47,0.63
,-9.505,0.237,-2.764,-9.552,0.263,-2.721,2.94,1.4,0.77
152.0,-9.536,0.246,-2.733,-9.519,0.256,-2.692,3.57,1.12,0.63
,-9.55,0.275,-2.735,-9.519,0.261,-2.742,3.57,1.19,0.7
,-9.529,0.246,-2.752,-9.545,0.285,-2.733,3.5,1.4,0.7
,-9.514,0.275,-2.709,-9.562,0.275,-2.726,3.5,1.19,0.7
227.0,-9.531,0.256,-2.716,-9.591,0.282,-2.608,3.01,1.33,0.56
,-9.533,0.263,-2.62,-9.55,0.208,-2.639,2.87,1.47,0.7
,-9.56,0.223,-2.627,-9.533,0.206,-2.599,2.73,1.54,0.7
,-9.572,0.239,-2.596,-9.538,0.175,-2.651,2.45,1.68,0.63
302.0,-9.552,0.268,-2.663,-9.526,0.213,-2.759,2.1,2.38,0.7
,-9.555,0.282,-2.69,-9.519,0.33,-2.788,1.75,2.38,0.63
,-9.512,0.223,-2.692,-9.505,0.275,-2.759,1.75,2.38,0.7
,-9.536,0.237,-2.781,-9.524,0.316,-2.759,1.96,2.38,0.56
378.0,-9.555,0.223,-2.764,-9.495,0.244,-2.797,1.96,2.31,0.56
,-9.524,0.172,-2.752,-9.531,0.215,-2.812,1.96,2.03,0.49
,-9.481,0.244,-2.771,-9.519,0.254,-2.771,2.17,1.96,0.56
,-9.5,0.235,-2.754,-9.555,0.268,-2.804,2.17,1.89,0.63
454.0,-9.555,0.23,-2.795,-9.538,0.177,-2.726,2.59,1.75,0.49
,-9.474,0.263,-2.776,-9.483,0.194,-2.699,2.66,1.82,0.63
,-9.519,0.232,-2.761,-9.5,0.168,-2.788,2.66,1.68,0.63
,-9.524,0.225,-2.723,-9.493,0.218,-2.747,2.66,1.61,0.63
530.0,-9.478,0.251,-2.795,-9.557,0.292,-2.797,2.1,1.61,0.63
,-9.493,0.306,-2.826,-9.538,0.311,-2.783,1.82,1.47,0.56
,-9.529,0.28,-2.807,-9.557,0.292,-2.821,1.68,1.47,0.56
,-9.521,0.292,-2.809,-9.507,0.28,-2.788,1.96,1.54,0.63
605.0,-9.474,0.235,-2.769,-9.552,0.232,-2.752,2.45,0.91,0.56
,-9.493,0.213,-2.831,-9.569,0.199,-2.735,2.94,1.12,0.77
,-9.485,0.175,-2.754,-9.521,0.213,-2.778,3.22,0.98,0.77
,-9.502,0.251,-2.773,-9.49,0.237,-2.716,3.43,0.98,0.7
681.0,-9.481,0.292,-2.764,-9.574,0.182,-2.718,3.22,0.84,0.77
,-9.541,0.299,-2.761,-9.543,0.239,-2.721,3.08,0.98,0.77
,-9.567,0.287,-2.726,-9.545,0.256,-2.754,2.87,0.91,0.7
,-9.557,0.256,-2.716,-9.521,0.201,-2.728,2.73,0.84,0.77
757.0,-9.519,0.223,-2.69,-9.502,0.203,-2.714,3.43,1.12,0.91
,-9.541,0.239,-2.699,-9.505,0.258,-2.726,3.29,1.12,0.91
,-9.531,0.148,-2.67,-9.493,0.246,-2.721,3.08,0.98,0.91
,-9.49,0.165,-2.663,-9.526,0.237,-2.737,3.08,1.26,0.98
833.0,-9.514,0.278,-2.764,-9.514,0.299,-2.761,2.1,1.19,0.91
,-9.512,0.273,-2.809,-9.557,0.223,-2.802,2.31,1.19,1.05
,-9.564,0.278,-2.793,-9.509,0.266,-2.773,2.45,1.19,0.91
,-9.521,0.244,-2.771,-9.529,0.232,-2.781,2.52,1.12,0.84
909.0,-9.507,0.22,-2.761,-9.529,0.249,-2.69,3.08,0.49,0.77
,-9.552,0.196,-2.759,-9.543,0.237,-2.687,3.29,0.63,0.91
,-9.545,0.235,-2.74,-9.505,0.223,-2.661,3.29,0.7,0.91
,-9.517,0.251,-2.726,-9.524,0.249,-2.659,3.29,0.7,0.91
984.0,-9.564,0.309,-2.649,-9.536,0.249,-2.723,2.87,0.84,0.63
,-9.512,0.275,-2.666,-9.526,0.203,-2.697,2.8,0.98,0.7
,-9.569,0.282,-2.678,-9.562,0.235,-2.702,2.45,1.05,0.7
,-9.555,0.203,-2.685,-9.557,0.225,-2.647,2.17,1.05,0.7
1060.0,-9.497,0.206,-2.618,-9.555,0.27,-2.735,2.45,1.4,0.77
,-9.481,0.23,-2.623,-9.524,0.258,-2.766,2.45,1.54,0.84
,-9.505,0.242,-2.663,-9.526,0.23,-2.702,2.38,1.54,0.84
,-9.545,0.299,-2.697,-9.519,0.294,-2.737,2.45,1.61,0.84
1135.0,-9.593,0.287,-2.728,-9.576,0.273,-2.749,2.17,1.61,0.77
,-9.548,0.199,-2.706,-9.529,0.256,-2.709,1.96,1.68,0.77
,-9.485,0.189,-2.687,-9.552,0.273,-2.716,2.17,1.75,0.77
,-9.517,0.201,-2.74,-9.545,0.225,-2.759,2.45,1.75,0.77
1211.0,-9.512,0.261,-2.709,-9.55,0.227,-2.68,3.22,1.4,0.84
,-9.538,0.246,-2.687,-9.548,0.223,-2.74,3.5,1.61,0.91
,-9.538,0.268,-2.733,-9.512,0.244,-2.771,3.64,1.68,0.98
,-9.529,0.246,-2.68,-9.521,0.254,-2.766,3.57,1.68,0.91
1287.0,-9.485,0.223,-2.752,-9.536,0.213,-2.69,3.15,1.75,0.98
,-9.548,0.27,-2.721,-9.562,0.251,-2.647,3.15,1.75,0.91
,-9.538,0.325,-2.766,-9.493,0.273,-2.711,2.87,1.61,0.84
,-9.55,0.29,-2.694,-9.567,0.275,-2.687,2.24,1.54,0.77
1363.0,-9.517,0.22,-2.666,-9.538,0.302,-2.797,1.96,1.75,0.7
,-9.505,0.256,-2.663,-9.541,0.313,-2.85,2.24,1.82,0.7
,-9.495,0.223,-2.711,-9.493,0.285,-2.84,2.31,2.03,0.77
,-9.507,0.261,-2.757,-9.529,0.244,-2.816,2.52,1.96,0.84
1438.0,-9.524,0.294,-2.795,-9.555,0.232,-2.764,2.8,1.61,0.63
,-9.533,0.282,-2.838,-9.5,0.232,-2.788,2.94,1.61,0.49
,-9.497,0.22,-2.764,-9.509,0.227,-2.769,2.73,1.61,0.63
,-9.488,0.237,-2.761,-9.476,0.218,-2.73,2.8,1.4,0.56
1514.0,-9.538,0.261,-2.747,-9.569,0.29,-2.745,2.59,1.26,0.49
,-9.543,0.321,-2.702,-9.593,0.258,-2.718,2.31,1.26,0.35
,-9.514,0.309,-2.678,-9.564,0.177,-2.752,2.17,1.47,0.35
,-9.552,0.268,-2.709,-9.464,0.194,-2.74,2.17,1.47,0.21
1589.0,-9.483,0.239,-2.771,-9.507,0.153,-2.8,2.87,1.4,0.42
,-9.485,0.278,-2.795,-9.512,0.203,-2.766,2.59,1.47,0.42
,-9.538,0.251,-2.783,-9.495,0.311,-2.745,2.24,1.54,0.42
,-9.555,0.223,-2.821,-9.529,0.345,-2.692,2.1,1.26,0.35
1665.0,-9.502,0.313,-2.694,-9.555,0.194,-2.79,1.96,1.12,0.35
,-9.548,0.215,-2.761,-9.572,0.246,-2.742,1.89,1.12,0.35
,-9.512,0.177,-2.728,-9.538,0.158,-2.706,2.24,0.98,0.35
,-9.552,0.223,-2.754,-9.505,0.196,-2.694,2.8,0.91,0.42
1741.0,-9.531,0.254,-2.682,-9.485,0.16,-2.706,3.22,1.12,0.63
,-9.524,0.261,-2.73,-9.502,0.218,-2.778,3.08,1.05,0.56
,-9.572,0.237,-2.706,-9.497,0.309,-2.749,2.66,0.98,0.56
,-9.529,0.194,-2.726,-9.509,0.282,-2.778,2.52,0.91,0.56
1817.0,-9.538,0.237,-2.764,-9.507,0.268,-2.718,2.52,0.98,0.56
,-9.541,0.184,-2.733,-9.505,0.201,-2.69,2.59,1.05,0.49
,-9.545,0.179,-2.718,-9.543,0.17,-2.666,2.8,1.12,0.7
,-9.533,0.232,-2.752,-9.536,0.246,-2.647,2.94,0.98,0.56
1893.0,-9.6,0.251,-2.69,-9.497,0.246,-2.759,2.45,1.47,0.7
,-9.562,0.256,-2.68,-9.55,0.201,-2.783,2.17,1.47,0.7
,-9.531,0.225,-2.718,-9.552,0.206,-2.797,2.1,1.61,0.7
,-9.493,0.203,-2.795,-9.497,0.179,-2.74,2.17,1.61,0.77
1968.0,-9.459,0.206,-2.781,-9.507,0.206,-2.745,2.52,1.54,0.84
,-9.509,0.218,-2.802,-9.533,0.191,-2.745,2.8,1.54,0.91
,-9.538,0.249,-2.79,-9.574,0.223,-2.735,2.8,1.33,0.91
,-9.502,0.23,-2.809,-9.596,0.251,-2.692,2.73,1.12,0.84
2044.0,-9.579,0.246,-2.675,-9.56,0.282,-2.735,2.59,1.19,0.98
,-9.514,0.23,-2.709,-9.591,0.223,-2.759,2.66,1.12,0.98
,-9.485,0.227,-2.728,-9.526,0.172,-2.769,2.87,1.4,0.98
,-9.497,0.244,-2.749,-9.502,0.223,-2.804,3.01,1.68,1.05
2120.0,-9.512,0.225,-2.833,-9.569,0.213,-2.69,2.87,1.19,1.05
,-9.529,0.282,-2.757,-9.579,0.258,-2.747,2.94,1.26,0.98
,-9.526,0.208,-2.711,-9.529,0.268,-2.73,2.73,1.05,0.91
,-9.555,0.156,-2.721,-9.521,0.199,-2.759,2.8,1.05,0.98
2196.0,-9.56,0.191,-2.733,-9.509,0.251,-2.692,2.52,1.12,1.05
,-9.519,0.258,-2.766,-9.517,0.256,-2.678,2.59,1.05,1.12
,-9.562,0.251,-2.721,-9.507,0.23,-2.685,2.31,0.98,1.05
,-9.545,0.189,-2.702,-9.517,0.235,-2.73,2.24,1.19,1.12
2271.0,-9.536,0.273,-2.716,-9.526,0.261,-2.697,2.45,1.4,1.19
,-9.533,0.22,-2.721,-9.483,0.256,-2.761,2.24,1.26,1.19
,-9.536,0.17,-2.742,-9.488,0.208,-2.788,2.38,1.47,1.26
,-9.526,0.261,-2.704,-9.509,0.239,-2.812,2.52,1.61,1.26
2347.0,-9.526,0.251,-2.867,-9.533,0.345,-2.761,1.96,1.26,1.05
,-9.502,0.237,-2.814,-9.545,0.313,-2.742,2.17,1.19,1.05
,-9.485,0.292,-2.778,-9.536,0.302,-2.675,2.59,1.12,1.12
,-9.497,0.306,-2.785,-9.521,0.235,-2.74,2.73,0.98,1.05
2422.0,-9.562,0.191,-2.661,-9.536,0.225,-2.654,2.66,0.98,0.98
,-9.531,0.278,-2.656,-9.521,0.215,-2.654,2.87,1.05,0.98
,-9.533,0.266,-2.697,-9.562,0.237,-2.718,2.8,1.05,0.98
,-9.529,0.218,-2.63,-9.548,0.278,-2.711,2.45,1.19,0.84
2498.0,-9.538,0.328,-2.699,-9.526,0.299,-2.754,1.54,1.82,0.98
,-9.497,0.27,-2.735,-9.581,0.294,-2.73,1.26,1.82,0.91
,-9.557,0.251,-2.737,-9.507,0.263,-2.761,1.19,1.61,0.91
,-9.493,0.292,-2.745,-9.488,0.244,-2.735,1.05,1.61,0.84
2574.0,-9.536,0.299,-2.723,-9.543,0.242,-2.733,1.61,1.68,0.91
,-9.564,0.304,-2.742,-9.502,0.22,-2.757,1.82,1.75,0.98
,-9.533,0.261,-2.694,-9.545,0.251,-2.757,1.75,1.82,0.84
,-9.567,0.242,-2.723,-9.507,0.237,-2.79,1.61,1.68,0.77
2650.0,-9.529,0.254,-2.757,-9.526,0.263,-2.721,1.82,1.61,0.77
,-9.543,0.292,-2.742,-9.509,0.199,-2.793,1.96,1.68,0.77
,-9.548,0.263,-2.737,-9.471,0.249,-2.797,2.03,1.54,0.77
,-9.569,0.268,-2.742,-9.507,0.273,-2.781,2.03,1.47,0.84
2725.0,-9.569,0.223,-2.809,-9.512,0.275,-2.726,2.17,1.61,0.77
,-9.49,0.273,-2.766,-9.526,0.278,-2.733,2.24,1.26,0.7
,-9.536,0.254,-2.793,-9.488,0.227,-2.692,2.24,1.19,0.7
,-9.517,0.292,-2.819,-9.507,0.287,-2.757,2.17,1.19,0.77
2801.0,-9.512,0.261,-2.742,-9.56,0.244,-2.62,2.59,1.19,0.98
,-9.526,0.256,-2.721,-9.572,0.292,-2.718,2.59,1.26,0.91
,-9.5,0.199,-2.67,-9.545,0.249,-2.706,2.38,1.33,0.84
,-9.545,0.258,-2.637,-9.569,0.282,-2.694,2.45,1.26,0.91
2877.0,-9.567,0.325,-2.749,-9.514,0.254,-2.795,2.87,1.75,1.05
,-9.536,0.28,-2.709,-9.512,0.254,-2.836,2.8,1.75,1.05
,-9.548,0.294,-2.716,-9.488,0.268,-2.852,2.73,1.75,1.12
,-9.552,0.275,-2.788,-9.533,0.304,-2.826,2.73,1.75,0.98
2953.0,-9.5,0.275,-2.804,-9.545,0.278,-2.702,2.94,1.47,0.91
,-9.505,0.28,-2.737,-9.552,0.261,-2.697,2.8,1.19,0.77
,-9.526,0.282,-2.757,-9.55,0.285,-2.709,2.94,1.33,0.91
,-9.526,0.28,-2.733,-9.536,0.275,-2.697,2.94,1.4,1.05
3029.0,-9.541,0.28,-2.702,-9.529,0.258,-2.742,3.08,1.61,1.12
,-9.538,0.27,-2.69,-9.548,0.256,-2.769,3.01,1.61,1.19
,-9.512,0.256,-2.692,-9.521,0.266,-2.816,2.8,1.54,1.19
,-9.524,0.258,-2.69,-9.481,0.275,-2.812,2.59,1.61,1.12
3104.0,-9.471,0.232,-2.771,-9.543,0.302,-2.757,2.1,1.26,1.05
,-9.507,0.294,-2.781,-9.548,0.275,-2.714,2.31,1.33,1.12
,-9.517,0.285,-2.79,-9.55,0.316,-2.728,2.52,1.4,1.12
,-9.531,0.333,-2.783,-9.533,0.302,-2.733,2.38,1.26,1.05
3180.0,-9.524,0.294,-2.816,-9.521,0.333,-2.783,2.31,1.33,0.91
,-9.529,0.223,-2.795,-9.517,0.302,-2.723,2.38,1.19,0.84
,-9.493,0.256,-2.785,-9.509,0.256,-2.716,2.66,1.19,0.91
,-9.493,0.297,-2.747,-9.509,0.29,-2.673,3.01,1.12,0.91
3255.0,-9.519,0.299,-2.678,-9.512,0.237,-2.714,2.87,1.19,1.05
,-9.55,0.294,-2.678,-9.49,0.275,-2.742,2.66,1.26,0.91
,-9.524,0.318,-2.714,-9.524,0.266,-2.737,2.45,1.12,0.77
,-9.497,0.266,-2.745,-9.509,0.299,-2.735,2.31,1.33,0.77
3331.0,-9.536,0.244,-2.692,-9.5,0.203,-2.785,2.24,1.47,0.98
,-9.478,0.263,-2.716,-9.485,0.294,-2.783,2.24,1.4,0.91
,-9.576,0.311,-2.74,-9.519,0.306,-2.769,2.31,1.61,1.05
,-9.555,0.28,-2.716,-9.543,0.278,-2.793,2.17,1.54,1.05
3407.0,-9.536,0.263,-2.757,-9.521,0.318,-2.788,1.96,1.47,1.19
,-9.545,0.29,-2.737,-9.497,0.287,-2.845,2.03,1.33,1.05
,-9.548,0.285,-2.718,-9.502,0.309,-2.852,1.96,1.26,0.84
,-9.562,0.304,-2.759,-9.462,0.345,-2.836,1.89,1.4,0.91
3483.0,-9.485,0.306,-2.771,-9.5,0.323,-2.711,2.73,0.98,1.05
,-9.507,0.306,-2.735,-9.541,0.254,-2.687,2.94,0.98,1.19
,-9.517,0.309,-2.714,-9.543,0.242,-2.67,2.87,0.98,1.05
,-9.497,0.318,-2.709,-9.507,0.23,-2.608,3.01,1.05,1.12
3558.0,-9.543,0.278,-2.673,-9.541,0.321,-2.699,2.45,1.47,0.98
,-9.541,0.313,-2.601,-9.56,0.318,-2.73,2.24,1.61,1.05
,-9.541,0.266,-2.527,-9.481,0.328,-2.845,1.96,1.68,0.98
,-9.555,0.321,-2.673,-9.541,0.354,-2.915,1.82,1.75,0.91
3634.0,-9.533,0.33,-2.886,-9.495,0.337,-2.843,1.68,1.89,0.91
,-9.474,0.29,-2.886,-9.541,0.345,-2.788,1.68,1.75,0.91
,-9.555,0.278,-2.838,-9.555,0.361,-2.737,1.54,1.4,0.77
,-9.49,0.325,-2.821,-9.545,0.285,-2.723,1.75,1.05,0.7
3710.0,-9.543,0.309,-2.735,-9.507,0.335,-2.678,2.73,0.98,0.77
,-9.521,0.321,-2.726,-9.581,0.294,-2.682,2.87,0.91,0.84
,-9.495,0.311,-2.692,-9.567,0.249,-2.687,2.87,1.05,0.91
,-9.464,0.278,-2.699,-9.512,0.347,-2.635,2.94,1.12,1.05
3786.0,-9.562,0.371,-2.692,-9.562,0.251,-2.723,2.31,1.26,0.7
,-9.502,0.333,-2.685,-9.488,0.287,-2.694,2.31,1.54,0.7
,-9.545,0.378,-2.694,-9.519,0.349,-2.742,2.24,1.19,0.49
,-9.543,0.321,-2.742,-9.545,0.294,-2.714,2.24,1.54,0.56
3862.0,-9.507,0.268,-2.757,-9.478,0.328,-2.704,2.45,1.61,0.77
,-9.529,0.23,-2.776,-9.505,0.333,-2.718,2.59,1.4,0.77
,-9.507,0.316,-2.759,-9.495,0.287,-2.73,2.66,1.4,0.91
,-9.524,0.337,-2.781,-9.541,0.275,-2.754,2.87,1.68,0.98
3937.0,-9.49,0.282,-2.754,-9.514,0.249,-2.769,2.8,1.47,0.91
,-9.548,0.321,-2.759,-9.464,0.266,-2.761,2.94,1.54,0.98
,-9.533,0.304,-2.773,-9.509,0.333,-2.766,2.73,1.26,0.77
,-9.512,0.323,-2.783,-9.481,0.323,-2.759,2.52,1.33,0.84
4013.0,-9.564,0.354,-2.8,-9.519,0.309,-2.745,2.73,1.19,0.91
,-9.55,0.311,-2.802,-9.512,0.325,-2.749,2.8,1.05,0.84
,-9.545,0.325,-2.8,-9.517,0.321,-2.726,3.08,1.05,0.84
,-9.507,0.304,-2.778,-9.545,0.266,-2.714,3.08,1.19,0.98
4088.0,-9.464,0.268,-2.699,-9.538,0.311,-2.639,2.73,1.12,0.98
,-9.505,0.266,-2.666,-9.543,0.313,-2.647,2.73,1.19,1.05
,-9.526,0.282,-2.69,-9.497,0.354,-2.678,2.59,1.4,1.05
,-9.55,0.304,-2.673,-9.533,0.337,-2.692,2.66,1.54,1.05
4164.0,-9.543,0.345,-2.733,-9.454,0.278,-2.879,1.96,1.96,0.98
,-9.545,0.302,-2.781,-9.485,0.328,-2.891,1.75,2.03,0.98
,-9.514,0.311,-2.828,-9.493,0.361,-2.862,1.54,1.96,1.05
,-9.536,0.311,-2.879,-9.495,0.369,-2.838,1.82,1.82,0.91
4240.0,-9.505,0.359,-2.788,-9.552,0.328,-2.718,2.1,1.12,0.91
,-9.519,0.323,-2.771,-9.579,0.335,-2.714,2.24,1.26,0.98
,-9.514,0.321,-2.726,-9.543,0.29,-2.766,2.45,1.26,0.98
,-9.548,0.287,-2.728,-9.529,0.309,-2.709,2.59,1.12,0.91
4316.0,-9.541,0.328,-2.726,-9.548,0.316,-2.668,2.59,1.4,0.98
,-9.474,0.316,-2.718,-9.529,0.302,-2.656,2.66,1.4,0.91
,-9.512,0.34,-2.728,-9.519,0.388,-2.697,2.52,1.33,0.84
,-9.552,0.302,-2.721,-9.502,0.311,-2.704,2.52,1.61,1.05
4391.0,-9.502,0.347,-2.757,-9.555,0.325,-2.816,2.59,1.75,0.98
,-9.505,0.316,-2.769,-9.514,0.345,-2.769,2.45,1.82,0.91
,-9.483,0.345,-2.761,-9.517,0.309,-2.802,2.31,1.82,0.98
,-9.476,0.333,-2.809,-9.521,0.321,-2.781,2.31,1.89,0.91
4467.0,-9.512,0.306,-2.771,-9.541,0.29,-2.795,2.17,1.61,0.98
,-9.529,0.299,-2.778,-9.507,0.34,-2.8,2.03,1.54,0.91
,-9.505,0.287,-2.783,-9.481,0.309,-2.745,2.03,1.4,0.84
,-9.507,0.337,-2.867,-9.524,0.316,-2.742,2.24,1.4,0.98
4543.0,-9.502,0.335,-2.781,-9.497,0.373,-2.809,2.45,1.4,0.77
,-9.497,0.299,-2.795,-9.495,0.371,-2.778,2.31,1.47,0.84
,-9.543,0.304,-2.764,-9.548,0.337,-2.764,2.24,1.47,0.91
,-9.5,0.316,-2.749,-9.521,0.297,-2.757,2.52,1.33,0.84
4619.0,-9.509,0.304,-2.804,-9.469,0.359,-2.776,2.52,1.47,0.77
,-9.548,0.302,-2.771,-9.471,0.342,-2.783,2.59,1.47,0.7
,-9.5,0.352,-2.788,-9.519,0.369,-2.721,2.59,1.47,0.7
,-9.517,0.361,-2.802,-9.564,0.4,-2.754,2.52,1.54,0.84
4694.0,-9.543,0.366,-2.766,-9.538,0.275,-2.745,2.1,1.47,0.56
,-9.519,0.388,-2.726,-9.507,0.261,-2.802,2.38,1.54,0.63
,-9.529,0.333,-2.673,-9.478,0.275,-2.852,2.03,1.54,0.63
,-9.478,0.328,-2.74,-9.509,0.263,-2.783,2.1,1.68,0.7
4770.0,-9.5,0.285,-2.771,-9.49,0.342,-2.8,1.47,1.68,0.56
,-9.56,0.361,-2.812,-9.507,0.321,-2.807,1.4,1.68,0.7
,-9.529,0.335,-2.836,-9.531,0.292,-2.838,1.54,1.54,0.56
,-9.481,0.304,-2.833,-9.517,0.287,-2.752,1.68,1.54,0.63
4846.0,-9.485,0.302,-2.771,-9.533,0.306,-2.74,2.59,1.4,0.77
,-9.493,0.287,-2.781,-9.533,0.328,-2.761,2.73,1.47,0.84
,-9.533,0.297,-2.793,-9.502,0.337,-2.742,2.73,1.4,0.91
,-9.466,0.299,-2.764,-9.555,0.347,-2.752,2.59,1.4,0.84
4921.0,-9.541,0.304,-2.728,-9.488,0.342,-2.797,2.38,1.47,0.91
,-9.49,0.306,-2.809,-9.517,0.299,-2.804,2.73,1.61,1.05
,-9.505,0.361,-2.797,-9.495,0.294,-2.821,2.87,1.54,0.98
,-9.5,0.392,-2.812,-9.483,0.306,-2.836,2.73,1.61,0.91
4997.0,-9.502,0.275,-2.824,-9.521,0.347,-2.735,3.01,1.19,1.12
,-9.509,0.328,-2.802,-9.478,0.347,-2.757,3.08,1.26,1.12
,-9.519,0.321,-2.754,-9.555,0.376,-2.766,3.08,1.12,1.05
,-9.519,0.364,-2.764,-9.545,0.371,-2.747,3.08,0.98,0.98
5073.0,-9.5,0.373,-2.754,-9.478,0.287,-2.771,2.8,1.33,0.98
,-9.497,0.364,-2.769,-9.509,0.342,-2.771,2.8,1.19,0.91
,-9.509,0.371,-2.781,-9.497,0.38,-2.766,2.73,1.26,1.05
,-9.485,0.316,-2.749,-9.548,0.33,-2.761,2.52,1.47,1.05
5149.0,-9.545,0.359,-2.778,-9.517,0.409,-2.886,2.03,1.19,0.77
,-9.49,0.34,-2.788,-9.533,0.407,-2.831,2.17,1.26,0.77
,-9.533,0.352,-2.769,-9.435,0.364,-2.855,2.66,1.26,0.84
,-9.488,0.392,-2.826,-9.517,0.378,-2.893,2.87,1.19,0.84
5224.0,-9.474,0.292,-2.797,-9.507,0.235,-2.702,3.08,1.05,0.77
,-9.505,0.349,-2.855,-9.5,0.352,-2.692,3.29,0.84,0.77
,-9.488,0.34,-2.766,-9.524,0.361,-2.68,3.22,0.77,0.77
,-9.531,0.302,-2.745,-9.512,0.335,-2.69,3.22,0.98,0.84
5300.0,-9.519,0.333,-2.709,-9.541,0.349,-2.761,2.24,1.12,0.91
,-9.517,0.304,-2.694,-9.536,0.383,-2.778,2.38,1.26,0.84
,-9.481,0.357,-2.718,-9.485,0.325,-2.833,2.45,1.4,0.98
,-9.521,0.354,-2.721,-9.485,0.306,-2.816,2.45,1.61,0.91
5376.0,-9.519,0.306,-2.809,-9.555,0.33,-2.706,2.8,1.33,0.91
,-9.481,0.34,-2.85,-9.552,0.285,-2.692,2.8,1.4,0.98
,-9.519,0.311,-2.793,-9.586,0.278,-2.704,2.73,1.26,0.84
,-9.505,0.335,-2.73,-9.536,0.342,-2.737,2.45,1.26,0.77
5452.0,-9.521,0.371,-2.73,-9.512,0.373,-2.783,1.82,1.33,0.77
,-9.469,0.352,-2.761,-9.505,0.352,-2.807,1.82,1.4,0.77
,-9.5,0.369,-2.781,-9.49,0.335,-2.757,1.89,1.4,0.84
,-9.543,0.316,-2.761,-9.517,0.342,-2.797,1.96,1.33,0.77
5527.0,-9.533,0.333,-2.773,-9.548,0.354,-2.778,2.45,1.33,0.77
,-9.512,0.318,-2.814,-9.488,0.335,-2.769,2.31,1.4,0.91
,-9.531,0.328,-2.771,-9.497,0.357,-2.807,2.24,1.33,0.77
,-9.552,0.354,-2.781,-9.5,0.383,-2.836,2.17,1.4,0.77
5603.0,-9.485,0.373,-2.838,-9.526,0.39,-2.747,2.52,1.26,0.77
,-9.519,0.404,-2.804,-9.531,0.373,-2.728,2.45,1.26,0.77
,-9.474,0.347,-2.781,-9.512,0.345,-2.757,2.45,1.33,0.7
,-9.55,0.361,-2.766,-9.555,0.304,-2.718,2.38,1.12,0.7
5678.0,-9.481,0.325,-2.737,-9.488,0.376,-2.776,3.08,1.4,0.91
,-9.545,0.373,-2.74,-9.462,0.285,-2.807,3.01,1.4,0.84
,-9.485,0.337,-2.702,-9.49,0.306,-2.754,2.8,1.33,0.77
,-9.462,0.347,-2.757,-9.497,0.313,-2.821,2.73,1.4,0.84
5754.0,-9.512,0.342,-2.833,-9.485,0.33,-2.84,3.43,1.61,0.98
,-9.49,0.402,-2.848,-9.478,0.323,-2.812,3.15,1.33,0.84
,-9.497,0.383,-2.812,-9.514,0.352,-2.745,2.94,1.33,0.7
,-9.509,0.395,-2.79,-9.529,0.347,-2.745,2.73,1.26,0.7
5830.0,-9.531,0.323,-2.737,-9.478,0.328,-2.694,2.59,0.77,0.56
,-9.517,0.313,-2.718,-9.536,0.316,-2.735,2.59,0.98,0.56
,-9.545,0.29,-2.754,-9.576,0.318,-2.754,2.73,1.19,0.77
,-9.488,0.287,-2.702,-9.543,0.302,-2.742,2.73,1.19,0.63
5906.0,-9.481,0.282,-2.8,-9.519,0.392,-2.838,2.45,1.4,0.7
,-9.505,0.275,-2.788,-9.509,0.383,-2.814,2.59,1.54,0.77
,-9.476,0.311,-2.845,-9.5,0.371,-2.809,2.45,1.4,0.77
,-9.485,0.359,-2.852,-9.5,0.364,-2.776,2.31,1.19,0.77
5982.0,-9.545,0.337,-2.771,-9.564,0.414,-2.735,3.22,1.12,0.84
,-9.521,0.239,-2.706,-9.524,0.366,-2.709,3.57,1.26,0.98
,-9.502,0.292,-2.742,-9.526,0.366,-2.706,3.92,1.19,0.91
,-9.579,0.347,-2.697,-9.519,0.364,-2.704,4.2,1.4,0.98
6057.0,-9.512,0.383,-2.793,-9.497,0.38,-2.836,3.29,1.54,0.91
,-9.493,0.378,-2.742,-9.488,0.373,-2.79,3.22,1.61,0.84
,-9.502,0.376,-2.831,-9.502,0.395,-2.814,2.94,1.4,0.77
,-9.567,0.4,-2.79,-9.514,0.402,-2.812,3.01,1.47,0.77
6133.0,-9.524,0.357,-2.826,-9.517,0.369,-2.828,2.73,1.26,0.42
,-9.543,0.333,-2.845,-9.541,0.347,-2.804,3.01,1.26,0.35
,-9.509,0.325,-2.852,-9.541,0.357,-2.788,3.08,1.12,0.28
,-9.471,0.364,-2.848,-9.497,0.345,-2.766,3.29,0.91,0.35
6209.0,-9.507,0.287,-2.773,-9.581,0.333,-2.747,3.43,1.05,0.28
,-9.517,0.34,-2.74,-9.588,0.258,-2.659,3.29,0.91,0.21
,-9.485,0.345,-2.726,-9.521,0.258,-2.723,3.36,0.98,0.14
,-9.552,0.376,-2.754,-9.495,0.325,-2.68,3.22,0.98,0.07
6285.0,-9.469,0.33,-2.661,-9.485,0.328,-2.735,3.57,1.4,0.28
,-9.483,0.357,-2.723,-9.521,0.302,-2.826,3.43,1.54,0.28
,-9.493,0.345,-2.761,-9.541,0.378,-2.819,3.08,1.68,0.07
,-9.49,0.261,-2.771,-9.519,0.323,-2.812,3.01,1.61,0.07
6360.0,-9.483,0.266,-2.845,-9.481,0.246,-2.953,3.22,1.33,0.0
,-9.521,0.225,-2.855,-9.502,0.27,-2.769,3.15,1.26,0.14
,-9.483,0.251,-2.862,-9.481,0.282,-2.759,3.29,1.19,0.14
,-9.512,0.266,-2.862,-9.519,0.287,-2.797,3.57,1.05,0.28
6436.0,-9.545,0.287,-2.668,-9.536,0.282,-2.699,3.36,0.84,0.35
,-9.55,0.306,-2.737,-9.519,0.201,-2.709,3.64,0.91,0.35
,-9.526,0.273,-2.642,-9.519,0.235,-2.749,3.36,1.26,0.42
,-9.564,0.335,-2.728,-9.471,0.28,-2.754,3.36,1.26,0.35
6511.0,-9.514,0.347,-2.754,-9.485,0.256,-2.804,2.94,1.47,0.42
,-9.564,0.275,-2.752,-9.476,0.297,-2.821,2.59,1.75,0.42
,-9.56,0.23,-2.766,-9.464,0.361,-2.867,2.59,1.54,0.49
,-9.471,0.266,-2.754,-9.502,0.333,-2.819,2.94,1.82,0.56
6587.0,-9.497,0.292,-2.828,-9.5,0.321,-2.714,2.66,1.4,0.35
,-9.493,0.325,-2.802,-9.452,0.23,-2.721,2.87,1.4,0.42
,-9.548,0.349,-2.73,-9.512,0.246,-2.699,2.94,1.33,0.42
,-9.521,0.342,-2.742,-9.521,0.273,-2.716,2.94,1.19,0.42
6663.0,-9.557,0.335,-2.668,-9.529,0.299,-2.838,2.87,1.89,0.49
,-9.538,0.316,-2.68,-9.483,0.239,-2.855,2.38,1.96,0.21
,-9.502,0.316,-2.742,-9.471,0.282,-2.864,2.24,2.03,0.28
,-9.612,0.297,-2.776,-9.495,0.345,-2.891,2.45,1.89,0.28
6739.0,-9.541,0.366,-2.867,-9.462,0.321,-2.85,2.59,1.75,0.14
,-9.464,0.294,-2.852,-9.538,0.302,-2.874,2.45,1.47,0.0
,-9.548,0.28,-2.869,-9.545,0.263,-2.857,2.66,1.47,0.07
,-9.509,0.29,-2.848,-9.485,0.206,-2.781,3.08,1.33,0.21
6814.0,-9.478,0.177,-2.74,-9.514,0.239,-2.769,3.01,1.12,0.14
,-9.464,0.237,-2.699,-9.483,0.251,-2.836,3.36,1.33,0.21
,-9.524,0.302,-2.764,-9.541,0.318,-2.795,3.43,1.47,0.28
,-9.564,0.306,-2.764,-9.55,0.218,-2.852,2.94,1.33,0.21
6890.0,-9.55,0.261,-2.793,-9.519,0.22,-2.778,3.64,1.47,0.35
,-9.543,0.235,-2.795,-9.524,0.227,-2.797,3.43,1.19,0.35
,-9.476,0.282,-2.773,-9.548,0.146,-2.809,3.43,1.26,0.35
,-9.49,0.246,-2.747,-9.483,0.129,-2.812,3.22,1.12,0.14
6966.0,-9.469,0.146,-2.821,-9.517,0.29,-2.778,4.69,1.26,0.49
,-9.488,0.258,-2.833,-9.543,0.249,-2.754,4.55,1.19,0.49
,-9.478,0.239,-2.816,-9.524,0.242,-2.754,3.78,0.98,0.35
,-9.488,0.287,-2.764,-9.545,0.251,-2.747,3.01,0.98,0.35
7042.0,-9.512,0.316,-2.745,-9.531,0.172,-2.714,3.29,1.12,0.49
,-9.562,0.323,-2.785,-9.485,0.158,-2.726,3.08,1.19,0.35
,-9.495,0.201,-2.737,-9.476,0.218,-2.709,2.73,1.05,0.21
,-9.519,0.199,-2.69,-9.509,0.225,-2.788,2.8,1.33,0.35
7118.0,-9.529,0.213,-2.754,-9.495,0.299,-2.783,2.1,1.61,0.49
,-9.418,0.294,-2.776,-9.555,0.256,-2.807,2.17,1.54,0.49
,-9.502,0.263,-2.797,-9.529,0.258,-2.816,1.96,1.61,0.35
,-9.5,0.275,-2.812,-9.509,0.201,-2.769,2.03,1.61,0.42
7193.0,-9.495,0.246,-2.783,-9.497,0.132,-2.812,3.08,1.54,0.63
,-9.514,0.285,-2.769,-9.483,0.12,-2.819,3.15,1.75,0.56
,-9.519,0.263,-2.804,-9.524,0.256,-2.783,3.01,1.54,0.49
,-9.505,0.208,-2.781,-9.519,0.268,-2.795,3.08,1.61,0.49
7269.0,-9.538,0.278,-2.773,-9.471,0.239,-2.807,2.94,1.54,0.56
,-9.485,0.203,-2.802,-9.466,0.292,-2.804,2.31,1.61,0.49
,-9.466,0.211,-2.864,-9.5,0.282,-2.812,2.31,1.68,0.49
,-9.521,0.194,-2.869,-9.507,0.278,-2.766,2.52,1.54,0.49
7344.0,-9.584,0.201,-2.778,-9.514,0.177,-2.836,3.36,1.26,0.63
,-9.521,0.172,-2.783,-9.464,0.158,-2.793,3.5,1.26,0.56
,-9.485,0.187,-2.807,-9.536,0.215,-2.752,3.57,1.12,0.56
,-9.454,0.203,-2.771,-9.464,0.239,-2.709,3.57,1.12,0.7
7420.0,-9.529,0.273,-2.702,-9.505,0.144,-2.793,2.59,1.33,0.7
,-9.548,0.215,-2.745,-9.505,0.249,-2.84,2.17,1.19,0.63
,-9.552,0.177,-2.757,-9.536,0.309,-2.797,1.96,1.19,0.63
,-9.507,0.134,-2.824,-9.541,0.225,-2.745,2.03,1.33,0.77
7496.0,-9.514,0.199,-2.716,-9.485,0.251,-2.809,1.75,1.4,0.77
,-9.495,0.239,-2.761,-9.466,0.211,-2.788,1.96,1.4,0.77
,-9.452,0.256,-2.807,-9.481,0.17,-2.785,2.1,1.47,0.84
,-9.478,0.263,-2.876,-9.466,0.203,-2.781,2.03,1.54,0.91
7572.0,-9.478,0.199,-2.852,-9.476,0.261,-2.836,2.03,1.26,0.77
,-9.471,0.163,-2.876,-9.541,0.313,-2.871,1.89,1.12,0.7
,-9.512,0.22,-2.812,-9.538,0.225,-2.838,1.89,1.4,0.7
,-9.466,0.23,-2.843,-9.497,0.213,-2.819,2.24,1.33,0.91
7647.0,-9.562,0.29,-2.814,-9.526,0.268,-2.675,2.73,1.19,0.84
,-9.49,0.28,-2.759,-9.545,0.201,-2.728,2.94,1.26,0.91
,-9.5,0.285,-2.706,-9.529,0.163,-2.749,2.87,1.19,0.91
,-9.543,0.292,-2.754,-9.529,0.156,-2.781,2.66,1.26,0.84
7723.0,-9.502,0.17,-2.824,-9.514,0.258,-2.771,2.52,1.47,0.91
,-9.488,0.194,-2.8,-9.485,0.256,-2.778,2.45,1.54,0.77
,-9.462,0.196,-2.843,-9.471,0.28,-2.795,2.31,1.54,0.84
,-9.514,0.232,-2.852,-9.466,0.261,-2.824,2.24,1.54,0.91
7798.0,-9.49,0.206,-2.793,-9.512,0.287,-2.776,2.24,1.33,0.77
,-9.521,0.256,-2.869,-9.509,0.263,-2.771,2.1,1.47,0.77
,-9.483,0.22,-2.826,-9.481,0.239,-2.816,2.03,1.47,0.77
,-9.485,0.237,-2.802,-9.519,0.23,-2.773,2.24,1.4,0.77
7874.0,-9.505,0.23,-2.804,-9.545,0.239,-2.795,2.8,1.26,0.63
,-9.49,0.218,-2.845,-9.555,0.22,-2.773,3.01,1.12,0.7
,-9.497,0.225,-2.795,-9.557,0.213,-2.804,2.94,1.19,0.84
,-9.529,0.254,-2.824,-9.536,0.196,-2.793,2.94,1.05,0.77
7950.0,-9.481,0.258,-2.807,-9.469,0.182,-2.766,2.87,1.05,0.77
,-9.507,0.191,-2.816,-9.588,0.227,-2.764,3.01,0.98,0.84
,-9.495,0.254,-2.766,-9.541,0.227,-2.752,2.87,1.12,0.77
,-9.519,0.163,-2.821,-9.471,0.232,-2.728,2.66,1.19,0.7
8026.0,-9.478,0.275,-2.752,-9.543,0.141,-2.802,2.31,1.4,0.7
,-9.485,0.251,-2.747,-9.488,0.194,-2.793,2.31,1.26,0.77
,-9.533,0.239,-2.769,-9.509,0.239,-2.8,2.31,1.61,0.84
,-9.557,0.225,-2.814,-9.514,0.249,-2.862,2.45,1.47,0.91
8102.0,-9.445,0.203,-2.898,-9.464,0.235,-2.769,2.52,1.33,0.84
,-9.481,0.244,-2.852,-9.514,0.278,-2.742,2.52,1.26,0.84
,-9.541,0.158,-2.838,-9.476,0.287,-2.754,2.8,1.05,0.98
,-9.529,0.213,-2.802,-9.483,0.239,-2.764,3.29,1.19,1.05
8177.0,-9.478,0.218,-2.773,-9.464,0.302,-2.766,2.87,1.26,0.77
,-9.519,0.232,-2.773,-9.531,0.232,-2.74,2.87,1.4,0.84
,-9.512,0.313,-2.749,-9.531,0.244,-2.733,3.01,1.4,0.84
,-9.502,0.321,-2.79,-9.541,0.235,-2.747,2.87,1.47,0.98
8253.0,-9.536,0.235,-2.74,-9.526,0.244,-2.804,2.45,1.61,0.77
,-9.474,0.225,-2.745,-9.552,0.299,-2.824,2.66,1.68,0.77
,-9.49,0.23,-2.754,-9.5,0.258,-2.812,2.45,1.75,0.77
,-9.514,0.196,-2.754,-9.485,0.297,-2.783,2.31,1.68,0.63
8329.0,-9.488,0.263,-2.838,-9.555,0.254,-2.848,2.45,1.68,0.63
,-9.488,0.256,-2.848,-9.5,0.177,-2.843,2.59,1.82,0.7
,-9.474,0.244,-2.876,-9.447,0.201,-2.759,2.66,1.75,0.7
,-9.555,0.249,-2.838,-9.481,0.237,-2.797,2.73,1.47,0.63
8405.0,-9.538,0.206,-2.814,-9.5,0.261,-2.747,2.94,1.33,0.56
,-9.462,0.235,-2.764,-9.55,0.309,-2.771,2.73,1.4,0.63
,-9.541,0.239,-2.788,-9.507,0.244,-2.819,2.59,1.19,0.49
,-9.536,0.254,-2.761,-9.5,0.22,-2.838,2.59,1.47,0.63
8480.0,-9.517,0.232,-2.9,-9.49,0.196,-2.824,2.38,1.54,0.56
,-9.488,0.196,-2.833,-9.507,0.201,-2.843,2.38,1.47,0.49
,-9.478,0.22,-2.876,-9.476,0.206,-2.773,2.59,1.33,0.49
,-9.478,0.23,-2.886,-9.497,0.232,-2.766,2.87,1.33,0.49
8556.0,-9.505,0.218,-2.761,-9.536,0.22,-2.795,3.15,1.47,0.7
,-9.514,0.23,-2.773,-9.485,0.261,-2.816,3.01,1.4,0.63
,-9.502,0.239,-2.761,-9.517,0.278,-2.816,2.8,1.33,0.56
,-9.466,0.227,-2.788,-9.548,0.249,-2.824,2.66,1.26,0.42
8631.0,-9.469,0.17,-2.785,-9.533,0.223,-2.812,3.01,1.33,0.49
,-9.526,0.203,-2.788,-9.497,0.22,-2.843,3.08,1.26,0.42
,-9.521,0.203,-2.845,-9.497,0.22,-2.836,3.15,1.12,0.42
,-9.514,0.206,-2.852,-9.488,0.246,-2.804,2.87,1.26,0.42
8707.0,-9.552,0.237,-2.836,-9.567,0.187,-2.893,2.38,1.19,0.35
,-9.471,0.304,-2.819,-9.507,0.177,-2.816,2.24,0.98,0.28
,-9.545,0.309,-2.824,-9.55,0.179,-2.85,2.1,1.12,0.21
,-9.56,0.249,-2.836,-9.485,0.213,-2.845,2.17,1.26,0.14
8783.0,-9.469,0.156,-2.891,-9.514,0.244,-2.795,3.43,1.05,0.28
,-9.457,0.165,-2.857,-9.483,0.196,-2.778,3.29,1.26,0.35
,-9.447,0.249,-2.831,-9.502,0.227,-2.759,3.08,1.12,0.21
,-9.483,0.172,-2.836,-9.481,0.251,-2.74,3.01,1.05,0.35
8859.0,-9.514,0.208,-2.785,-9.49,0.194,-2.804,2.73,1.12,0.49
,-9.471,0.206,-2.769,-9.562,0.172,-2.79,2.52,1.19,0.56
,-9.517,0.246,-2.783,-9.509,0.151,-2.855,2.38,1.19,0.42
,-9.545,0.22,-2.804,-9.505,0.187,-2.836,2.38,1.26,0.42
8934.0,-9.531,0.22,-2.816,-9.462,0.206,-2.821,2.73,1.26,0.56
,-9.476,0.184,-2.852,-9.505,0.225,-2.797,2.66,1.19,0.49
,-9.474,0.213,-2.824,-9.557,0.203,-2.804,2.66,1.05,0.42
,-9.459,0.278,-2.785,-9.507,0.151,-2.785,2.66,0.98,0.35
9010.0,-9.474,0.215,-2.771,-9.572,0.175,-2.79,2.59,1.19,0.42
,-9.517,0.213,-2.826,-9.514,0.151,-2.759,2.52,1.12,0.42
,-9.485,0.175,-2.769,-9.545,0.136,-2.728,2.1,1.12,0.35
,-9.521,0.196,-2.804,-9.543,0.17,-2.788,1.89,1.12,0.28
9086.0,-9.5,0.187,-2.797,-9.493,0.158,-2.86,2.66,1.4,0.63
,-9.509,0.146,-2.831,-9.469,0.223,-2.879,2.66,1.68,0.7
,-9.517,0.136,-2.831,-9.471,0.208,-2.931,2.73,1.61,0.56
,-9.469,0.127,-2.804,-9.447,0.177,-2.826,2.59,1.4,0.63
9162.0,-9.457,0.146,-2.795,-9.567,0.208,-2.864,2.03,1.12,0.7
,-9.464,0.141,-2.742,-9.462,0.139,-2.809,2.17,1.26,0.84
,-9.5,0.184,-2.848,-9.452,0.136,-2.711,2.59,1.33,1.05
,-9.493,0.23,-2.802,-9.488,0.201,-2.857,2.66,1.26,0.91
9238.0,-9.552,0.208,-2.84,-9.517,0.23,-2.723,2.87,1.19,1.12
,-9.471,0.227,-2.819,-9.574,0.203,-2.716,2.73,0.98,0.98
,-9.469,0.163,-2.769,-9.524,0.211,-2.73,2.52,1.12,1.05
,-9.507,0.151,-2.759,-9.526,0.158,-2.73,2.8,1.12,1.12
9313.0,-9.488,0.108,-2.778,-9.507,0.189,-2.874,2.66,1.75,1.19
,-9.497,0.163,-2.816,-9.476,0.187,-2.898,2.87,1.82,1.19
,-9.505,0.239,-2.864,-9.469,0.177,-2.891,2.66,1.68,1.12
,-9.545,0.232,-2.9,-9.438,0.196,-2.881,2.31,1.47,0.84
9389.0,-9.557,0.27,-2.788,-9.552,0.187,-2.797,3.08,1.05,0.98
,-9.507,0.29,-2.766,-9.517,0.17,-2.778,3.08,1.12,0.91
,-9.541,0.239,-2.754,-9.459,0.189,-2.79,2.66,1.12,0.84
,-9.552,0.187,-2.759,-9.5,0.239,-2.761,2.73,1.26,0.77
9464.0,-9.55,0.165,-2.745,-9.476,0.213,-2.819,2.38,1.33,0.91
,-9.574,0.235,-2.728,-9.483,0.254,-2.867,2.17,1.33,0.84
,-9.526,0.258,-2.757,-9.495,0.184,-2.857,2.03,1.33,0.77
,-9.485,0.225,-2.776,-9.5,0.196,-2.893,1.89,1.54,0.84
9540.0,-9.497,0.23,-2.869,-9.488,0.172,-2.816,2.1,1.26,0.7
,-9.49,0.244,-2.883,-9.55,0.177,-2.836,2.38,1.47,0.84
,-9.497,0.201,-2.871,-9.524,0.139,-2.783,2.52,1.19,0.77
,-9.485,0.208,-2.831,-9.445,0.177,-2.781,2.8,1.19,0.77
9616.0,-9.524,0.223,-2.761,-9.514,0.268,-2.776,2.87,1.26,0.91
,-9.488,0.218,-2.757,-9.514,0.256,-2.836,2.45,1.4,0.91
,-9.509,0.199,-2.812,-9.5,0.251,-2.809,2.24,1.26,0.91
,-9.445,0.175,-2.828,-9.548,0.141,-2.807,2.45,1.26,0.91
9692.0,-9.495,0.129,-2.826,-9.483,0.187,-2.824,2.73,1.19,0.84
,-9.507,0.156,-2.795,-9.485,0.165,-2.802,2.73,1.33,0.98
,-9.493,0.187,-2.824,-9.507,0.201,-2.764,2.66,1.4,1.05
,-9.476,0.179,-2.84,-9.576,0.215,-2.797,2.31,1.54,1.05
9767.0,-9.509,0.215,-2.783,-9.6,0.208,-2.74,2.31,1.4,1.12
,-9.447,0.249,-2.802,-9.543,0.206,-2.852,2.17,1.4,0.98
,-9.466,0.239,-2.828,-9.495,0.17,-2.795,2.03,1.4,1.12
,-9.407,0.23,-2.903,-9.552,0.191,-2.886,2.31,1.4,1.12
