Timestamp,AccX,AccY,AccZ,GyroX,GyroY,GyroZ,MagnX,MagnY,MagnZ
0.0,-9.016,-0.835,-4.011,-9.119,-0.474,-3.874,1.89,0.49,0.7
,-9.014,-0.814,-4.015,-9.191,-0.483,-3.853,2.8,0.63,0.98
,-9.031,-0.787,-4.003,-9.136,-0.443,-3.9,3.43,0.84,1.19
,-9.086,-0.672,-3.934,-9.11,-0.541,-4.022,3.85,0.98,1.4
75.0,-9.057,-0.433,-4.025,-9.088,-0.759,-3.831,1.89,0.91,0.84
,-9.067,-0.536,-4.034,-9.045,-0.814,-3.759,1.96,0.7,0.7
,-9.067,-0.639,-4.006,-9.158,-0.756,-3.812,2.1,0.84,0.77
,-9.086,-0.627,-3.948,-9.115,-0.629,-3.867,2.1,0.98,0.77
151.0,-9.069,-0.565,-3.908,-9.045,-0.505,-4.068,3.08,1.75,0.98
,-9.064,-0.524,-3.953,-9.04,-0.589,-4.03,2.59,1.89,0.98
,-9.079,-0.538,-4.049,-9.043,-0.615,-4.003,2.31,1.61,0.84
,-9.064,-0.519,-4.054,-9.115,-0.644,-3.979,2.24,1.47,0.84
227.0,-9.076,-0.622,-3.924,-9.146,-0.641,-3.912,1.75,0.91,0.42
,-9.067,-0.644,-3.879,-9.112,-0.591,-3.994,1.4,0.84,0.28
,-9.122,-0.648,-3.874,-9.033,-0.579,-4.089,1.47,0.98,0.35
,-9.129,-0.692,-3.905,-8.995,-0.663,-4.111,1.4,1.12,0.42
302.0,-8.981,-0.773,-4.037,-9.055,-0.534,-3.915,2.52,1.19,0.7
,-9.05,-0.687,-4.03,-9.079,-0.601,-3.939,3.43,0.98,0.84
,-9.095,-0.55,-3.917,-9.04,-0.648,-3.999,3.99,0.91,0.84
,-9.139,-0.488,-3.965,-9.06,-0.639,-3.975,3.5,0.84,0.63
378.0,-9.002,-0.708,-3.91,-9.086,-0.601,-3.941,2.94,1.12,0.84
,-9.083,-0.689,-3.888,-9.119,-0.672,-3.944,3.36,1.19,0.98
,-9.139,-0.634,-3.884,-9.055,-0.639,-4.037,3.15,1.12,0.7
,-9.122,-0.682,-3.888,-9.048,-0.637,-3.953,2.73,1.33,0.77
453.0,-8.995,-0.739,-3.946,-9.179,-0.534,-3.905,2.03,1.12,0.77
,-9.031,-0.771,-4.03,-9.1,-0.55,-3.879,2.8,1.33,1.12
,-9.091,-0.591,-3.979,-9.074,-0.637,-3.924,3.85,1.19,1.33
,-9.095,-0.361,-4.003,-9.069,-0.737,-3.96,3.85,1.12,0.98
529.0,-9.045,-0.735,-3.946,-9.122,-0.601,-4.015,1.89,1.05,0.42
,-9.067,-0.701,-3.891,-9.045,-0.706,-4.042,2.59,1.26,0.7
,-9.115,-0.584,-3.888,-9.0,-0.727,-4.073,3.08,1.4,0.7
,-9.15,-0.548,-3.953,-9.026,-0.62,-4.063,2.87,1.47,0.63
605.0,-9.081,-0.598,-3.984,-9.088,-0.715,-3.908,2.8,0.91,0.77
,-9.122,-0.605,-3.898,-9.107,-0.773,-3.896,2.52,0.91,0.77
,-9.107,-0.603,-3.865,-9.093,-0.701,-3.92,2.24,0.84,0.77
,-9.103,-0.589,-3.862,-9.062,-0.651,-3.946,2.03,0.98,0.63
681.0,-9.05,-0.625,-3.912,-9.139,-0.589,-4.034,2.59,1.4,0.91
,-9.079,-0.617,-3.936,-9.026,-0.634,-4.025,2.45,1.61,0.98
,-9.069,-0.672,-3.927,-9.033,-0.598,-4.001,2.17,1.75,0.98
,-9.062,-0.644,-3.908,-9.083,-0.637,-4.056,2.1,1.68,0.98
757.0,-9.079,-0.658,-4.058,-9.04,-0.658,-3.874,1.75,1.12,0.77
,-9.081,-0.708,-3.948,-9.143,-0.632,-3.893,2.03,1.12,0.84
,-9.105,-0.641,-3.922,-9.139,-0.62,-3.939,2.52,1.19,0.84
,-9.124,-0.663,-3.903,-9.079,-0.589,-3.941,2.8,1.4,0.98
832.0,-9.012,-0.565,-3.982,-9.124,-0.675,-3.766,2.59,1.33,0.91
,-9.016,-0.677,-3.967,-9.098,-0.625,-3.795,2.38,1.33,0.91
,-9.019,-0.845,-3.898,-9.136,-0.481,-3.845,2.52,1.33,0.98
,-9.093,-0.775,-3.867,-9.143,-0.469,-3.924,3.29,1.47,1.12
908.0,-9.083,-0.591,-4.025,-9.083,-0.596,-4.078,0.7,1.75,0.49
,-9.057,-0.581,-4.054,-9.079,-0.534,-4.068,0.91,1.61,0.42
,-9.009,-0.684,-4.109,-9.043,-0.581,-3.951,1.47,1.75,0.63
,-9.05,-0.648,-4.073,-9.048,-0.574,-3.92,2.1,1.96,0.84
984.0,-9.115,-0.639,-3.991,-9.086,-0.522,-4.013,2.17,1.26,0.49
,-9.107,-0.66,-3.948,-9.088,-0.555,-4.027,2.24,1.4,0.56
,-9.107,-0.672,-3.927,-9.095,-0.601,-4.063,2.24,1.4,0.63
,-9.069,-0.605,-3.989,-9.038,-0.625,-3.991,2.31,1.47,0.56
1060.0,-9.091,-0.66,-4.013,-9.15,-0.625,-3.884,2.31,1.12,0.7
,-9.05,-0.677,-3.994,-9.15,-0.534,-3.922,2.87,1.26,0.84
,-9.038,-0.792,-3.845,-9.076,-0.455,-3.812,3.01,1.4,0.98
,-9.057,-0.804,-3.819,-9.026,-0.682,-3.85,3.92,1.54,1.12
1135.0,-8.993,-0.495,-4.123,-9.148,-0.483,-3.932,3.29,1.26,0.7
,-9.083,-0.536,-4.073,-9.141,-0.55,-3.915,2.8,1.12,0.56
,-9.045,-0.548,-3.979,-9.064,-0.625,-3.929,2.59,1.05,0.49
,-9.074,-0.481,-3.941,-9.055,-0.641,-3.91,2.87,1.05,0.42
1211.0,-9.06,-0.687,-3.927,-9.105,-0.605,-3.769,0.84,1.12,0.0
,-9.05,-0.747,-3.848,-9.095,-0.651,-3.628,0.84,1.05,0.0
,-9.052,-0.751,-3.857,-9.139,-0.605,-3.778,1.19,1.33,0.21
,-9.107,-0.694,-3.841,-9.127,-0.467,-3.979,1.54,1.61,0.28
1286.0,-9.079,-0.589,-4.133,-8.988,-0.775,-4.362,-0.35,2.1,0.42
,-9.028,-0.663,-4.207,-9.031,-0.78,-4.207,-0.49,1.82,0.42
,-9.043,-0.579,-4.25,-8.957,-0.727,-4.018,-0.07,1.54,0.28
,-8.993,-0.558,-4.317,-9.093,-0.699,-3.946,0.28,1.4,0.28
1362.0,-9.093,-0.625,-3.912,-9.072,-0.615,-3.91,3.08,0.63,0.63
,-9.11,-0.708,-3.795,-9.055,-0.605,-3.924,2.66,0.7,0.56
,-9.119,-0.727,-3.798,-9.1,-0.581,-3.963,2.52,0.84,0.63
,-9.088,-0.704,-3.855,-9.05,-0.589,-4.195,2.87,0.91,0.63
1438.0,-9.072,-0.689,-4.032,-9.048,-0.672,-3.81,2.66,1.05,0.91
,-9.107,-0.747,-4.063,-9.079,-0.739,-3.702,2.52,1.05,0.84
,-9.057,-0.696,-4.015,-9.06,-0.708,-3.764,3.01,1.05,0.98
,-9.052,-0.625,-4.082,-9.067,-0.603,-3.91,3.43,1.05,1.19
1514.0,-9.146,-0.51,-4.008,-9.016,-0.601,-4.056,3.64,1.12,1.05
,-9.095,-0.507,-4.099,-9.036,-0.644,-4.022,3.08,1.12,0.91
,-9.098,-0.526,-4.032,-9.134,-0.637,-4.042,2.52,0.98,1.05
,-9.072,-0.51,-4.135,-9.076,-0.593,-4.049,2.24,0.91,0.77
1589.0,-9.076,-0.634,-3.955,-9.127,-0.692,-3.709,2.73,0.77,0.91
,-9.093,-0.603,-3.944,-9.112,-0.725,-3.805,2.73,0.63,0.91
,-9.076,-0.526,-3.932,-9.069,-0.565,-3.881,2.8,0.63,0.84
,-9.067,-0.687,-3.855,-9.103,-0.584,-3.996,2.38,0.98,0.84
1665.0,-9.107,-0.581,-3.982,-9.036,-0.584,-4.089,2.59,1.47,0.91
,-9.093,-0.503,-3.984,-9.05,-0.622,-4.133,3.01,1.54,0.77
,-9.11,-0.514,-3.999,-9.057,-0.617,-4.089,2.45,1.54,0.7
,-9.115,-0.56,-4.008,-9.062,-0.605,-4.089,2.45,1.4,0.77
1741.0,-9.021,-0.637,-4.034,-9.105,-0.675,-3.788,2.73,0.49,0.49
,-9.069,-0.584,-3.944,-9.115,-0.644,-3.872,2.66,0.49,0.42
,-9.148,-0.572,-3.932,-9.119,-0.584,-3.879,2.31,0.56,0.42
,-9.083,-0.656,-3.86,-9.091,-0.572,-3.917,2.24,0.49,0.42
1817.0,-9.124,-0.682,-3.915,-9.136,-0.72,-3.951,1.75,0.84,0.42
,-9.076,-0.687,-3.891,-9.072,-0.536,-3.972,1.75,0.98,0.42
,-9.031,-0.692,-3.922,-9.091,-0.517,-4.037,1.75,0.98,0.28
,-9.06,-0.739,-3.893,-9.105,-0.479,-4.087,2.1,1.33,0.63
1893.0,-9.012,-0.536,-4.123,-9.103,-0.526,-4.011,2.87,0.91,0.56
,-9.072,-0.622,-4.044,-9.091,-0.608,-3.905,2.8,0.77,0.7
,-9.067,-0.627,-4.03,-9.098,-0.672,-3.893,3.01,0.77,0.56
,-9.052,-0.581,-4.03,-9.081,-0.699,-3.898,3.22,0.7,0.56
1968.0,-9.117,-0.67,-3.877,-9.115,-0.632,-3.838,2.73,0.42,0.49
,-9.079,-0.715,-3.836,-9.067,-0.613,-3.853,2.8,0.63,0.49
,-9.124,-0.687,-3.829,-9.11,-0.591,-3.932,2.87,0.77,0.56
,-9.136,-0.646,-3.86,-9.081,-0.62,-3.91,3.08,0.84,0.56
2044.0,-9.093,-0.634,-3.934,-9.028,-0.646,-4.025,2.59,1.54,0.7
,-9.146,-0.622,-3.932,-9.062,-0.684,-4.025,2.45,1.61,0.7
,-9.119,-0.565,-3.994,-9.081,-0.581,-4.075,2.24,1.4,0.7
,-9.103,-0.593,-3.994,-9.091,-0.646,-3.953,2.03,1.12,0.56
2119.0,-9.098,-0.761,-3.893,-9.05,-0.747,-3.946,1.75,0.84,0.7
,-9.052,-0.759,-3.917,-9.091,-0.696,-3.886,2.31,0.84,0.84
,-9.115,-0.689,-3.9,-9.119,-0.558,-3.946,2.87,0.84,0.84
,-9.069,-0.737,-3.922,-9.088,-0.488,-3.896,3.22,0.84,0.84
2195.0,-9.086,-0.493,-3.948,-9.069,-0.658,-3.896,3.85,1.19,1.19
,-9.091,-0.56,-3.941,-9.107,-0.646,-3.932,3.22,1.05,0.98
,-9.091,-0.591,-3.951,-9.048,-0.68,-3.903,3.08,0.91,0.84
,-9.088,-0.644,-3.941,-9.026,-0.689,-3.905,3.01,0.91,0.91
2271.0,-9.033,-0.66,-3.915,-9.148,-0.491,-3.829,2.66,0.98,0.63
,-9.036,-0.718,-3.939,-9.136,-0.44,-3.884,2.59,0.98,0.63
,-9.076,-0.648,-3.912,-9.143,-0.462,-3.922,2.94,1.12,0.84
,-9.1,-0.579,-3.905,-9.048,-0.581,-3.92,3.22,1.26,0.84
2347.0,-9.021,-0.713,-4.022,-9.17,-0.605,-3.838,1.54,0.98,0.42
,-9.005,-0.799,-3.994,-9.162,-0.56,-3.879,2.17,1.12,0.56
,-9.036,-0.718,-3.92,-9.105,-0.627,-3.932,2.8,1.26,0.84
,-9.115,-0.682,-3.879,-9.021,-0.637,-3.975,3.22,1.19,1.05
2422.0,-9.024,-0.684,-4.003,-9.105,-0.648,-3.891,1.75,1.19,0.56
,-9.076,-0.78,-3.991,-9.095,-0.62,-3.91,2.1,1.26,0.77
,-9.057,-0.701,-3.951,-9.124,-0.627,-3.867,2.66,1.19,0.91
,-9.112,-0.692,-3.929,-9.107,-0.562,-3.886,2.87,1.33,0.98
2498.0,-9.117,-0.61,-3.944,-9.081,-0.605,-4.025,2.31,1.33,0.77
,-9.076,-0.586,-3.905,-9.088,-0.658,-4.008,2.38,1.26,0.7
,-9.103,-0.577,-3.994,-9.043,-0.622,-4.032,2.1,1.26,0.7
,-9.048,-0.615,-3.999,-9.088,-0.694,-3.958,2.03,1.19,0.77
2573.0,-9.069,-0.706,-3.905,-9.083,-0.656,-3.807,2.17,0.7,0.77
,-9.079,-0.658,-3.874,-9.076,-0.677,-3.86,2.52,0.91,0.77
,-9.088,-0.632,-3.838,-9.122,-0.663,-3.884,2.59,0.77,0.7
,-9.122,-0.701,-3.86,-9.103,-0.639,-3.903,2.52,0.77,0.77
2649.0,-9.093,-0.581,-3.972,-9.098,-0.57,-3.912,3.57,1.54,1.05
,-9.069,-0.562,-3.922,-9.069,-0.579,-3.929,3.57,1.47,1.05
,-9.072,-0.5,-3.975,-9.129,-0.627,-3.922,3.29,1.4,0.91
,-9.143,-0.514,-3.939,-9.081,-0.608,-3.975,2.8,1.26,0.84
2725.0,-9.038,-0.713,-3.987,-9.124,-0.672,-3.8,1.96,1.26,0.63
,-9.04,-0.775,-3.932,-9.167,-0.526,-3.798,2.1,1.12,0.84
,-9.038,-0.835,-3.877,-9.143,-0.438,-3.807,2.73,1.19,0.91
,-9.083,-0.782,-3.867,-9.086,-0.505,-3.848,3.36,1.68,1.19
2801.0,-9.069,-0.574,-3.886,-9.064,-0.637,-3.984,1.96,2.1,0.84
,-9.083,-0.696,-3.888,-9.119,-0.586,-4.066,2.17,1.96,0.84
,-9.127,-0.615,-3.987,-9.072,-0.548,-4.145,2.52,1.89,0.84
,-9.095,-0.546,-3.996,-9.062,-0.665,-4.075,2.59,1.75,0.7
2877.0,-9.033,-0.723,-3.999,-9.134,-0.565,-3.874,1.89,0.84,0.49
,-9.081,-0.629,-4.022,-9.086,-0.608,-3.786,2.52,0.84,0.49
,-9.086,-0.596,-3.982,-9.069,-0.684,-3.85,2.24,0.63,0.49
,-9.136,-0.608,-3.853,-9.107,-0.699,-3.857,2.03,0.98,0.56
2952.0,-9.103,-0.641,-3.888,-9.067,-0.708,-3.951,2.52,1.19,0.7
,-9.1,-0.62,-3.939,-9.112,-0.641,-3.922,2.73,1.33,0.7
,-9.093,-0.639,-4.003,-9.067,-0.632,-3.905,2.38,1.26,0.63
,-9.038,-0.737,-3.96,-9.093,-0.644,-3.85,2.17,1.19,0.7
3028.0,-9.115,-0.677,-3.836,-9.069,-0.677,-3.862,2.66,1.75,1.05
,-9.098,-0.601,-3.826,-9.112,-0.603,-3.958,2.66,1.96,1.12
,-9.115,-0.629,-3.833,-9.191,-0.591,-3.991,2.38,1.89,0.98
,-9.093,-0.66,-3.668,-9.136,-0.555,-4.118,1.82,2.1,1.12
3104.0,-9.062,-0.505,-4.145,-9.103,-0.682,-4.133,0.7,1.89,0.7
,-9.038,-0.629,-4.176,-9.076,-0.605,-4.07,0.42,1.61,0.49
,-9.019,-0.675,-4.207,-9.081,-0.684,-3.939,1.05,1.4,0.49
,-9.007,-0.701,-4.125,-9.06,-0.696,-3.9,1.75,1.26,0.84
3180.0,-9.103,-0.663,-3.884,-9.095,-0.601,-3.86,3.57,1.05,1.12
,-9.107,-0.653,-3.838,-9.095,-0.641,-3.857,3.64,1.05,1.12
,-9.064,-0.622,-3.81,-9.076,-0.61,-3.958,3.71,1.12,1.26
,-9.079,-0.577,-3.877,-9.036,-0.663,-3.927,3.5,1.19,1.19
3255.0,-9.06,-0.656,-3.987,-9.081,-0.534,-4.006,2.87,1.4,1.26
,-9.088,-0.577,-3.977,-9.076,-0.637,-3.972,3.01,1.4,1.05
,-9.076,-0.522,-3.975,-9.038,-0.797,-3.915,2.8,1.4,0.98
,-9.081,-0.526,-4.015,-9.081,-0.68,-3.929,2.38,1.26,0.84
3331.0,-9.141,-0.596,-3.85,-9.05,-0.677,-4.066,2.87,1.26,0.91
,-9.186,-0.579,-3.8,-9.038,-0.574,-4.037,2.38,1.33,0.77
,-9.119,-0.531,-3.833,-9.033,-0.706,-3.958,1.75,1.4,0.49
,-9.11,-0.632,-3.888,-9.074,-0.579,-4.089,1.33,1.33,0.49
3406.0,-9.088,-0.543,-4.008,-9.076,-0.608,-3.886,3.5,0.98,0.98
,-9.055,-0.529,-4.03,-9.122,-0.579,-3.821,3.43,1.05,0.98
,-9.052,-0.57,-3.984,-9.158,-0.644,-3.747,3.01,0.77,0.77
,-9.076,-0.615,-3.932,-9.105,-0.598,-3.788,2.94,0.77,0.84
3482.0,-9.129,-0.651,-3.759,-9.072,-0.567,-3.989,2.17,1.54,0.7
,-9.117,-0.689,-3.75,-9.057,-0.61,-4.049,2.1,1.68,0.7
,-9.081,-0.615,-3.829,-9.014,-0.567,-4.125,2.17,1.75,0.77
,-9.062,-0.598,-3.927,-9.028,-0.519,-4.125,2.31,1.89,0.56
3558.0,-9.088,-0.567,-4.111,-9.076,-0.696,-3.884,2.24,0.98,0.49
,-9.057,-0.596,-4.022,-9.091,-0.632,-3.85,2.45,0.98,0.63
,-9.062,-0.608,-3.975,-9.112,-0.67,-3.769,2.59,0.91,0.7
,-9.074,-0.696,-3.924,-9.158,-0.677,-3.817,2.73,1.05,0.7
3634.0,-9.11,-0.596,-3.862,-9.014,-0.62,-3.987,2.24,1.54,0.42
,-9.079,-0.62,-3.85,-9.086,-0.696,-3.982,1.89,1.54,0.49
,-9.079,-0.589,-3.929,-9.091,-0.601,-3.946,1.89,1.47,0.35
,-9.091,-0.565,-3.975,-9.127,-0.538,-3.912,2.03,1.54,0.49
3710.0,-9.134,-0.596,-3.97,-9.069,-0.644,-4.034,2.31,1.47,0.49
,-9.093,-0.617,-4.025,-9.069,-0.67,-3.944,1.82,1.4,0.42
,-9.021,-0.579,-4.089,-9.083,-0.567,-3.915,1.68,1.33,0.42
,-9.033,-0.706,-4.097,-9.11,-0.574,-3.862,2.03,1.19,0.42
3785.0,-9.11,-0.648,-3.855,-9.098,-0.658,-3.898,2.52,1.26,0.63
,-9.069,-0.727,-3.829,-9.1,-0.593,-3.869,2.45,1.33,0.77
,-9.115,-0.701,-3.881,-9.069,-0.617,-3.939,2.8,1.33,0.84
,-9.072,-0.675,-3.833,-9.031,-0.663,-3.991,2.94,1.61,0.98
3861.0,-9.002,-0.72,-3.958,-9.055,-0.546,-3.979,2.59,1.96,1.12
,-9.091,-0.684,-4.011,-9.064,-0.648,-3.924,2.94,1.82,1.05
,-9.1,-0.596,-3.996,-9.038,-0.718,-3.915,3.08,1.89,1.05
,-9.105,-0.558,-3.994,-9.062,-0.66,-3.888,2.8,1.82,0.91
3937.0,-9.112,-0.672,-3.922,-9.036,-0.589,-3.984,2.87,1.89,1.12
,-9.093,-0.555,-3.893,-9.019,-0.744,-4.07,3.01,1.96,1.19
,-9.115,-0.488,-3.915,-9.009,-0.72,-4.137,2.52,1.89,0.84
,-9.134,-0.471,-4.068,-9.064,-0.608,-3.994,1.68,1.75,0.63
4013.0,-9.088,-0.529,-4.085,-9.198,-0.641,-3.764,3.5,1.4,0.84
,-9.021,-0.591,-3.991,-9.141,-0.565,-3.838,3.08,1.12,0.7
,-9.04,-0.646,-3.865,-9.107,-0.555,-3.838,2.38,1.12,0.63
,-9.076,-0.689,-3.793,-9.088,-0.694,-3.841,2.31,1.19,0.56
4088.0,-9.052,-0.665,-3.893,-9.019,-0.593,-4.176,1.75,1.89,0.7
,-9.06,-0.687,-3.955,-9.072,-0.656,-4.125,1.89,1.96,0.77
,-9.074,-0.622,-4.034,-9.021,-0.584,-4.056,2.31,1.89,0.84
,-9.067,-0.68,-4.209,-9.048,-0.555,-4.032,2.59,1.82,0.77
4164.0,-9.048,-0.519,-4.013,-9.045,-0.598,-3.953,3.36,1.4,1.05
,-9.095,-0.593,-3.994,-9.043,-0.613,-3.96,2.94,1.26,0.91
,-9.091,-0.615,-4.011,-9.062,-0.675,-3.893,2.66,1.12,0.84
,-9.122,-0.531,-4.027,-9.05,-0.735,-3.845,2.73,1.05,0.77
4239.0,-9.131,-0.632,-3.836,-9.052,-0.625,-4.027,2.38,1.47,0.42
,-9.11,-0.565,-3.917,-9.074,-0.61,-4.03,2.45,1.47,0.56
,-9.095,-0.574,-3.96,-9.04,-0.605,-4.044,2.17,1.54,0.49
,-9.1,-0.596,-3.996,-9.052,-0.653,-3.929,2.24,1.68,0.56
4315.0,-9.086,-0.634,-3.963,-9.021,-0.646,-3.982,2.38,1.26,0.56
,-9.131,-0.625,-4.015,-9.076,-0.699,-3.955,2.45,1.33,0.56
,-9.014,-0.625,-4.066,-9.129,-0.591,-3.891,2.31,1.19,0.56
,-9.012,-0.622,-4.078,-9.122,-0.605,-3.893,2.45,1.19,0.63
4391.0,-9.086,-0.579,-3.845,-9.115,-0.663,-3.982,2.1,1.26,0.63
,-9.103,-0.62,-3.855,-9.033,-0.622,-3.96,1.82,1.4,0.7
,-9.076,-0.668,-3.91,-9.093,-0.543,-4.03,1.89,1.54,0.63
,-9.062,-0.692,-3.932,-9.081,-0.589,-4.082,2.31,1.68,0.91
4467.0,-9.069,-0.632,-4.068,-9.074,-0.526,-4.082,2.17,1.33,0.84
,-9.033,-0.601,-4.128,-9.021,-0.665,-3.991,2.59,1.33,0.98
,-9.045,-0.627,-4.089,-9.048,-0.699,-3.989,2.87,1.19,0.98
,-9.05,-0.562,-4.049,-9.086,-0.625,-3.915,3.01,1.05,0.84
4542.0,-9.072,-0.622,-3.874,-9.045,-0.704,-3.891,2.94,1.05,0.91
,-9.119,-0.579,-3.855,-9.107,-0.68,-3.9,2.66,0.98,0.91
,-9.091,-0.581,-3.86,-9.139,-0.625,-3.96,2.38,1.12,0.84
,-9.091,-0.653,-3.896,-9.115,-0.55,-4.013,2.1,1.19,0.7
4618.0,-9.048,-0.526,-4.032,-9.105,-0.675,-3.946,2.45,1.4,0.77
,-9.021,-0.584,-4.056,-9.146,-0.634,-3.951,2.24,1.26,0.7
,-9.009,-0.639,-4.078,-9.064,-0.653,-3.855,2.17,1.12,0.7
,-9.033,-0.629,-3.984,-9.098,-0.627,-3.917,2.31,1.26,0.84
4694.0,-9.088,-0.637,-3.977,-9.083,-0.639,-3.982,2.03,1.33,0.77
,-9.05,-0.641,-4.001,-9.079,-0.627,-3.975,2.1,1.47,0.91
,-9.081,-0.62,-4.011,-9.074,-0.632,-3.92,2.59,1.4,0.98
,-9.062,-0.627,-3.965,-9.112,-0.596,-3.982,2.8,1.33,1.05
4770.0,-9.107,-0.562,-3.941,-9.026,-0.596,-4.066,2.73,1.4,0.84
,-9.072,-0.627,-3.999,-9.033,-0.581,-4.061,2.45,1.26,0.7
,-9.06,-0.632,-4.068,-9.033,-0.61,-3.996,2.52,1.26,0.84
,-9.033,-0.579,-4.034,-9.074,-0.632,-3.953,2.8,1.26,0.84
4846.0,-9.115,-0.62,-3.936,-9.036,-0.656,-3.905,2.66,0.91,0.7
,-9.103,-0.648,-3.948,-9.1,-0.61,-3.927,2.52,0.98,0.7
,-9.093,-0.617,-3.948,-9.064,-0.526,-3.929,2.52,0.91,0.63
,-9.057,-0.61,-3.951,-9.05,-0.591,-3.982,2.52,1.12,0.77
4921.0,-9.055,-0.589,-3.989,-9.052,-0.656,-3.903,2.45,1.05,0.63
,-9.05,-0.617,-3.996,-9.081,-0.646,-3.893,2.31,1.19,0.63
,-9.079,-0.646,-3.982,-9.129,-0.572,-3.936,2.38,1.33,0.7
,-9.033,-0.699,-3.96,-9.105,-0.56,-3.924,2.59,1.19,0.77
4997.0,-9.045,-0.593,-3.999,-9.019,-0.672,-4.063,2.52,1.47,0.7
,-9.06,-0.629,-4.02,-9.048,-0.639,-3.996,2.52,1.54,0.77
,-9.1,-0.567,-4.135,-9.062,-0.555,-3.944,2.66,1.33,0.7
,-9.045,-0.584,-4.099,-9.052,-0.687,-3.886,2.59,1.12,0.7
5072.0,-9.033,-0.706,-3.912,-9.119,-0.593,-3.879,2.94,0.91,0.7
,-9.11,-0.637,-3.903,-9.093,-0.584,-3.932,3.29,1.19,0.84
,-9.103,-0.651,-3.836,-9.064,-0.596,-3.941,3.15,1.47,1.05
,-9.093,-0.658,-3.838,-9.062,-0.581,-3.982,2.94,1.4,0.91
5148.0,-9.043,-0.598,-4.034,-9.06,-0.572,-3.857,2.38,1.68,0.77
,-9.045,-0.646,-4.003,-9.11,-0.57,-3.898,2.24,1.54,0.77
,-9.04,-0.627,-3.948,-9.1,-0.553,-3.941,2.38,1.61,0.7
,-9.105,-0.593,-3.905,-9.038,-0.632,-4.051,2.38,1.61,0.7
5224.0,-9.04,-0.656,-4.066,-9.072,-0.567,-4.003,1.47,1.47,0.42
,-9.002,-0.625,-4.156,-9.031,-0.68,-3.941,2.24,1.61,0.63
,-9.026,-0.62,-4.101,-9.098,-0.605,-3.927,2.38,1.54,0.77
,-9.033,-0.622,-4.063,-9.048,-0.639,-3.989,2.59,1.47,0.77
5300.0,-9.055,-0.658,-3.975,-9.088,-0.601,-3.927,2.66,1.47,0.84
,-9.105,-0.591,-4.018,-9.076,-0.625,-3.905,3.01,1.54,0.77
,-9.057,-0.589,-3.987,-9.038,-0.617,-3.888,2.8,1.47,0.7
,-9.076,-0.589,-3.898,-9.076,-0.653,-3.967,2.31,1.61,0.7
5375.0,-9.083,-0.637,-4.013,-9.002,-0.579,-3.977,2.17,1.61,0.56
,-9.072,-0.601,-4.066,-9.055,-0.577,-4.113,2.03,1.61,0.56
,-9.024,-0.601,-4.111,-9.04,-0.739,-4.054,1.75,1.75,0.63
,-9.036,-0.584,-4.07,-9.019,-0.718,-3.996,1.75,1.54,0.56
5451.0,-9.064,-0.704,-4.011,-9.072,-0.651,-3.932,3.29,1.33,1.12
,-9.088,-0.572,-4.037,-9.062,-0.577,-3.994,3.5,1.19,1.12
,-9.091,-0.596,-3.946,-9.062,-0.553,-4.02,3.08,0.98,1.05
,-9.062,-0.648,-3.958,-9.038,-0.567,-4.039,2.66,1.12,0.91
5527.0,-9.057,-0.581,-4.085,-9.048,-0.648,-3.941,1.89,1.12,0.77
,-9.048,-0.656,-4.006,-9.091,-0.629,-3.965,2.1,1.12,0.91
,-9.033,-0.677,-4.037,-9.117,-0.625,-3.922,2.24,0.98,0.84
,-9.012,-0.692,-3.967,-9.11,-0.637,-4.02,2.31,1.26,0.98
5603.0,-9.062,-0.596,-4.02,-9.06,-0.584,-4.082,2.31,1.05,0.91
,-9.028,-0.574,-4.094,-9.076,-0.584,-4.003,2.38,0.91,0.91
,-9.014,-0.613,-4.087,-9.072,-0.622,-3.946,2.31,0.84,0.91
,-9.0,-0.574,-4.056,-9.074,-0.67,-4.078,2.66,0.7,0.98
5679.0,-9.038,-0.668,-3.934,-9.079,-0.615,-3.776,2.66,0.84,1.19
,-9.052,-0.732,-3.948,-9.062,-0.596,-3.805,3.01,0.98,1.33
,-9.067,-0.66,-3.884,-9.088,-0.507,-3.888,3.29,1.05,1.4
,-9.105,-0.641,-3.845,-9.086,-0.505,-3.941,3.22,1.19,1.4
5754.0,-9.043,-0.493,-4.08,-9.033,-0.646,-4.042,1.89,1.68,0.98
,-9.103,-0.534,-4.121,-9.055,-0.735,-4.011,1.68,1.4,0.98
,-9.072,-0.543,-4.121,-9.117,-0.644,-4.011,1.75,1.47,0.98
,-9.043,-0.615,-4.092,-9.1,-0.577,-4.02,1.89,1.33,0.98
5830.0,-9.019,-0.57,-4.051,-9.038,-0.505,-3.944,2.73,1.33,1.05
,-9.031,-0.668,-4.051,-9.098,-0.558,-3.86,2.73,1.26,1.12
,-9.036,-0.62,-3.984,-9.131,-0.51,-3.967,3.29,1.33,1.12
,-9.095,-0.522,-3.982,-9.067,-0.543,-3.879,3.57,1.33,1.19
5905.0,-9.038,-0.558,-3.845,-9.088,-0.634,-4.022,2.31,1.54,0.77
,-9.057,-0.577,-3.977,-9.06,-0.546,-4.192,2.17,1.61,0.84
,-9.069,-0.62,-4.003,-9.064,-0.531,-4.135,1.82,1.61,0.84
,-9.052,-0.706,-3.984,-9.028,-0.67,-4.058,1.96,1.68,0.84
5981.0,-9.026,-0.653,-4.046,-9.093,-0.522,-3.936,2.8,1.4,0.91
,-9.067,-0.57,-3.975,-9.069,-0.632,-3.948,3.43,1.4,1.12
,-9.131,-0.462,-3.963,-9.009,-0.672,-3.948,3.64,1.47,1.19
,-9.115,-0.447,-3.912,-9.052,-0.651,-3.929,3.15,1.4,0.98
6057.0,-9.028,-0.684,-3.955,-9.052,-0.558,-4.07,2.52,1.82,0.84
,-9.067,-0.61,-3.936,-9.014,-0.615,-4.159,2.59,1.89,0.84
,-9.1,-0.541,-3.932,-8.973,-0.687,-4.128,2.38,1.96,0.77
,-9.074,-0.536,-4.013,-9.021,-0.625,-4.078,2.03,1.82,0.63
6133.0,-9.05,-0.629,-3.886,-9.103,-0.486,-4.042,3.22,1.61,0.98
,-9.107,-0.543,-3.967,-9.055,-0.541,-3.917,3.29,1.61,0.98
,-9.105,-0.541,-3.817,-9.067,-0.519,-4.037,3.29,1.61,1.05
,-9.093,-0.503,-4.044,-9.072,-0.581,-4.051,3.08,1.75,0.77
6208.0,-9.062,-0.598,-4.018,-9.057,-0.529,-4.02,1.61,1.4,0.14
,-9.045,-0.608,-3.987,-9.06,-0.646,-3.967,1.4,1.33,-0.07
,-9.045,-0.608,-3.977,-9.052,-0.706,-4.02,1.26,1.33,-0.14
,-9.093,-0.538,-3.982,-9.038,-0.598,-4.039,1.4,1.47,0.0
6284.0,-9.069,-0.562,-4.011,-9.045,-0.596,-4.13,2.66,2.03,0.49
,-9.079,-0.57,-3.97,-9.012,-0.68,-4.168,1.89,1.96,0.21
,-9.074,-0.579,-4.051,-8.995,-0.708,-4.14,1.82,1.89,0.21
,-9.045,-0.567,-4.078,-9.031,-0.574,-4.161,1.61,1.75,0.14
6360.0,-9.055,-0.601,-4.063,-9.052,-0.548,-4.018,2.8,1.4,0.7
,-9.04,-0.601,-3.982,-9.086,-0.605,-4.051,2.52,1.26,0.56
,-9.074,-0.62,-3.908,-8.997,-0.658,-4.015,2.38,1.26,0.56
,-9.119,-0.625,-3.922,-9.021,-0.637,-3.989,2.31,1.33,0.49
6436.0,-9.026,-0.675,-4.037,-9.019,-0.548,-4.104,2.94,1.47,0.77
,-9.021,-0.625,-4.011,-8.973,-0.605,-4.075,2.8,1.47,0.77
,-9.074,-0.572,-3.999,-8.985,-0.603,-4.142,2.66,1.33,0.63
,-9.095,-0.567,-4.032,-9.038,-0.625,-4.123,2.66,1.33,0.56
6511.0,-9.007,-0.684,-4.094,-9.069,-0.601,-3.91,2.59,0.77,0.7
,-8.995,-0.637,-4.018,-9.057,-0.651,-3.845,2.94,0.84,0.84
,-9.048,-0.62,-3.967,-9.088,-0.648,-3.944,3.01,0.98,0.91
,-9.098,-0.622,-3.987,-9.043,-0.593,-3.958,2.66,0.98,0.7
6587.0,-9.033,-0.644,-4.03,-9.005,-0.591,-4.099,2.38,1.54,0.91
,-9.057,-0.603,-4.125,-9.06,-0.538,-4.008,2.73,1.54,0.98
,-9.005,-0.558,-4.14,-9.074,-0.562,-3.987,2.8,1.47,1.05
,-9.06,-0.608,-4.152,-9.074,-0.608,-3.996,2.87,1.26,1.12
6662.0,-9.04,-0.615,-4.042,-9.055,-0.672,-4.001,2.66,1.19,0.84
,-9.043,-0.615,-4.082,-9.012,-0.687,-3.948,2.45,1.05,0.7
,-9.033,-0.653,-4.046,-9.146,-0.584,-3.912,2.38,0.91,0.7
,-9.031,-0.682,-4.037,-9.098,-0.632,-3.951,2.45,0.98,0.84
6738.0,-9.072,-0.608,-3.972,-9.021,-0.584,-4.099,2.45,1.47,1.05
,-9.005,-0.577,-4.063,-9.05,-0.519,-4.054,2.45,1.47,0.98
,-8.997,-0.617,-4.07,-9.052,-0.524,-4.068,2.73,1.4,0.91
,-9.014,-0.584,-4.101,-9.026,-0.531,-4.054,3.22,1.33,1.12
6814.0,-9.028,-0.574,-4.008,-9.036,-0.711,-4.008,2.38,0.91,0.7
,-9.031,-0.543,-4.042,-9.036,-0.672,-3.984,2.24,0.91,0.63
,-9.06,-0.629,-4.061,-9.057,-0.658,-3.948,1.96,0.84,0.56
,-9.024,-0.632,-3.994,-9.127,-0.601,-3.955,1.96,0.98,0.7
6890.0,-9.06,-0.538,-3.869,-9.045,-0.546,-4.082,2.66,1.47,0.91
,-9.05,-0.565,-3.915,-9.002,-0.572,-4.051,2.31,1.4,0.84
,-9.055,-0.57,-3.932,-9.024,-0.625,-4.089,2.1,1.61,0.77
,-9.074,-0.586,-4.006,-9.076,-0.653,-4.063,2.03,1.61,0.7
6966.0,-9.062,-0.625,-4.137,-9.076,-0.56,-4.003,2.24,1.33,0.63
,-9.002,-0.715,-4.13,-9.069,-0.488,-3.972,2.1,1.33,0.7
,-9.012,-0.696,-4.08,-9.067,-0.481,-3.903,2.52,1.12,0.84
,-9.062,-0.591,-4.056,-9.141,-0.44,-3.934,2.66,1.26,0.77
7041.0,-9.098,-0.455,-3.97,-8.933,-0.56,-4.161,1.47,1.4,0.42
,-9.033,-0.524,-4.034,-9.005,-0.617,-4.08,1.54,1.26,0.42
,-9.045,-0.562,-4.145,-9.024,-0.581,-4.046,1.75,1.19,0.35
,-8.988,-0.56,-4.185,-9.064,-0.586,-3.939,2.17,1.19,0.42
7117.0,-9.141,-0.558,-3.944,-9.0,-0.644,-4.082,2.45,0.98,0.35
,-9.098,-0.584,-4.001,-9.016,-0.639,-4.085,2.38,1.12,0.35
,-9.067,-0.61,-4.025,-9.036,-0.641,-4.03,2.1,0.84,0.35
,-9.012,-0.694,-4.044,-9.076,-0.62,-3.991,2.24,0.91,0.28
7193.0,-9.024,-0.665,-3.908,-9.093,-0.553,-4.018,2.66,1.12,0.77
,-9.04,-0.651,-4.018,-9.072,-0.603,-4.056,2.8,1.4,0.91
,-9.06,-0.605,-3.999,-9.036,-0.603,-4.034,3.22,1.47,0.84
,-9.072,-0.565,-4.003,-9.026,-0.605,-4.066,3.43,1.26,0.84
7269.0,-9.043,-0.567,-4.104,-9.045,-0.608,-4.02,3.01,1.19,0.77
,-8.981,-0.639,-4.044,-9.026,-0.646,-3.991,3.08,1.12,0.77
,-9.045,-0.62,-4.07,-9.062,-0.656,-4.07,3.15,1.19,0.91
,-9.095,-0.546,-4.068,-9.06,-0.615,-4.02,3.08,0.98,0.77
7344.0,-9.074,-0.613,-4.073,-9.064,-0.601,-3.924,3.64,0.91,0.98
,-9.045,-0.605,-4.015,-9.086,-0.565,-3.941,3.64,1.12,0.91
,-9.014,-0.574,-3.984,-9.048,-0.546,-3.982,3.43,0.98,0.91
,-9.028,-0.57,-3.924,-9.05,-0.608,-4.015,3.01,0.84,0.77
7420.0,-9.055,-0.749,-4.039,-9.083,-0.541,-3.96,1.82,0.98,0.56
,-8.985,-0.749,-3.996,-9.055,-0.543,-3.982,2.45,1.05,0.7
,-9.021,-0.658,-3.97,-9.074,-0.586,-3.953,2.94,1.12,0.84
,-9.098,-0.581,-3.982,-9.05,-0.622,-3.977,2.94,1.4,0.91
7495.0,-9.028,-0.562,-4.032,-9.055,-0.593,-4.058,2.66,1.68,0.84
,-9.04,-0.503,-4.082,-8.978,-0.639,-3.958,2.59,1.47,0.77
,-9.002,-0.565,-4.061,-9.107,-0.651,-3.967,2.24,1.4,0.63
,-9.036,-0.596,-4.075,-9.076,-0.62,-3.955,2.24,1.4,0.63
7571.0,-9.009,-0.637,-3.965,-9.012,-0.637,-4.037,1.89,1.54,0.49
,-9.062,-0.665,-4.006,-9.064,-0.653,-4.051,1.82,1.47,0.56
,-9.014,-0.646,-4.027,-9.016,-0.577,-4.07,1.82,1.61,0.56
,-8.995,-0.613,-4.058,-9.031,-0.663,-4.051,1.82,1.68,0.56
7647.0,-9.045,-0.656,-4.042,-9.062,-0.517,-4.006,2.59,1.61,0.84
,-9.052,-0.61,-4.008,-9.062,-0.581,-3.987,2.8,1.54,0.91
,-9.033,-0.61,-4.015,-9.05,-0.622,-3.994,3.01,1.47,0.98
,-9.088,-0.55,-3.984,-9.021,-0.543,-4.032,3.22,1.61,0.98
7723.0,-9.031,-0.543,-4.08,-8.983,-0.646,-4.099,2.31,1.54,0.63
,-9.031,-0.579,-4.106,-9.031,-0.581,-4.07,2.17,1.47,0.63
,-9.028,-0.584,-4.149,-9.05,-0.591,-4.03,2.31,1.47,0.63
,-8.981,-0.586,-4.18,-9.055,-0.574,-3.96,2.52,1.54,0.77
7799.0,-9.024,-0.617,-3.936,-9.064,-0.613,-3.958,2.24,1.12,0.56
,-9.079,-0.639,-3.936,-9.088,-0.503,-4.011,2.03,1.26,0.63
,-8.993,-0.761,-3.982,-9.033,-0.541,-4.075,2.17,1.47,0.84
,-9.014,-0.706,-3.951,-9.06,-0.577,-4.058,3.01,1.89,0.98
7874.0,-9.048,-0.591,-4.123,-9.069,-0.574,-4.082,2.24,1.68,0.7
,-9.009,-0.555,-4.161,-9.057,-0.627,-4.066,2.52,1.54,0.63
,-9.016,-0.529,-4.123,-9.057,-0.634,-4.066,2.59,1.54,0.7
,-9.048,-0.538,-4.089,-9.04,-0.646,-4.094,2.66,1.4,0.77
7950.0,-8.978,-0.692,-4.044,-9.088,-0.574,-3.948,2.87,0.98,0.7
,-9.069,-0.598,-4.08,-9.127,-0.567,-3.975,3.15,0.77,0.56
,-9.033,-0.538,-4.07,-9.038,-0.625,-4.015,3.01,1.05,0.63
,-9.048,-0.584,-3.96,-8.997,-0.747,-3.936,2.73,1.19,0.7
8026.0,-9.064,-0.653,-4.032,-9.057,-0.562,-4.056,2.8,1.4,0.7
,-9.107,-0.601,-4.034,-9.074,-0.57,-4.101,2.87,1.68,0.84
,-9.067,-0.629,-3.965,-8.997,-0.704,-4.085,2.59,1.4,0.7
,-9.048,-0.598,-4.008,-9.012,-0.644,-4.118,2.59,1.33,0.7
8102.0,-9.014,-0.591,-4.066,-9.031,-0.632,-3.955,3.29,1.33,0.84
,-9.045,-0.558,-4.085,-9.026,-0.608,-3.953,3.15,1.19,0.84
,-9.028,-0.562,-4.049,-9.031,-0.581,-4.003,2.8,1.05,0.77
,-9.048,-0.584,-4.015,-9.026,-0.622,-3.951,2.52,0.98,0.7
8177.0,-9.052,-0.637,-3.984,-8.993,-0.632,-4.054,2.31,1.26,0.7
,-9.079,-0.617,-4.046,-9.086,-0.591,-4.032,2.38,1.4,0.77
,-9.014,-0.651,-4.08,-9.093,-0.617,-4.015,2.38,1.26,0.77
,-9.0,-0.704,-4.075,-9.06,-0.598,-4.056,2.52,1.33,0.91
8253.0,-9.06,-0.601,-4.061,-9.019,-0.584,-3.999,2.24,1.33,0.77
,-9.012,-0.629,-4.037,-9.098,-0.601,-3.982,2.24,1.33,0.77
,-9.052,-0.558,-4.025,-9.0,-0.627,-4.006,2.52,1.33,0.7
,-9.076,-0.577,-4.022,-9.028,-0.593,-4.025,2.31,1.4,0.7
8328.0,-9.036,-0.639,-4.044,-9.093,-0.553,-4.032,2.24,1.26,0.63
,-9.0,-0.622,-4.073,-9.007,-0.61,-4.049,2.38,1.33,0.63
,-9.048,-0.61,-4.006,-8.988,-0.706,-4.044,2.38,1.4,0.7
,-9.028,-0.584,-3.963,-9.012,-0.675,-4.111,2.45,1.4,0.7
8404.0,-9.033,-0.598,-4.116,-9.076,-0.565,-3.955,2.66,1.12,0.63
,-9.033,-0.562,-4.101,-9.067,-0.529,-4.001,2.45,1.19,0.56
,-9.045,-0.541,-4.034,-9.024,-0.622,-3.975,2.31,1.05,0.56
,-9.019,-0.586,-4.015,-9.062,-0.608,-3.979,2.31,0.98,0.56
8480.0,-9.06,-0.646,-4.032,-8.983,-0.699,-4.092,2.1,1.33,0.56
,-9.033,-0.608,-4.051,-8.993,-0.694,-4.075,1.96,1.4,0.56
,-9.021,-0.613,-4.111,-9.043,-0.593,-4.015,1.89,1.4,0.56
,-9.012,-0.639,-4.135,-9.05,-0.565,-4.001,1.89,1.12,0.49
8556.0,-9.064,-0.581,-4.003,-9.005,-0.66,-4.116,2.94,1.33,0.77
,-9.067,-0.558,-4.025,-9.026,-0.601,-4.082,2.8,1.33,0.7
,-9.033,-0.579,-4.116,-9.083,-0.555,-4.073,2.52,1.19,0.56
,-8.981,-0.589,-4.123,-9.083,-0.598,-3.979,2.45,1.19,0.63
8631.0,-9.074,-0.593,-3.979,-9.021,-0.711,-3.963,2.52,0.98,0.77
,-9.11,-0.603,-4.034,-9.057,-0.687,-3.953,2.59,0.98,0.77
,-9.062,-0.598,-4.027,-9.057,-0.62,-3.989,2.52,0.98,0.7
,-9.009,-0.608,-4.049,-9.069,-0.591,-4.011,2.17,1.19,0.84
8707.0,-9.021,-0.641,-4.013,-8.988,-0.538,-4.111,1.89,1.54,0.77
,-9.067,-0.627,-4.073,-9.007,-0.565,-4.097,2.31,1.54,0.91
,-9.072,-0.613,-4.133,-9.052,-0.548,-4.104,2.73,1.54,0.98
,-9.012,-0.603,-4.094,-9.014,-0.581,-4.099,3.01,1.61,1.12
8783.0,-9.026,-0.543,-4.104,-9.028,-0.644,-4.046,2.31,0.98,0.63
,-9.012,-0.579,-4.123,-9.016,-0.718,-3.987,2.17,0.84,0.63
,-9.019,-0.572,-4.099,-9.048,-0.629,-3.967,2.03,0.7,0.56
,-9.043,-0.617,-4.068,-9.06,-0.696,-3.991,2.17,0.91,0.7
8859.0,-9.052,-0.584,-3.972,-9.088,-0.577,-3.97,2.73,1.4,0.91
,-9.048,-0.646,-3.932,-9.074,-0.586,-3.989,2.31,1.47,0.84
,-9.007,-0.637,-3.929,-9.019,-0.579,-4.106,2.45,1.47,0.77
,-9.06,-0.55,-3.932,-9.016,-0.622,-4.159,2.45,1.61,0.84
8935.0,-8.981,-0.651,-4.171,-9.016,-0.586,-4.025,2.73,1.61,0.91
,-8.966,-0.598,-4.197,-9.048,-0.593,-3.977,3.01,1.47,0.91
,-9.024,-0.57,-4.18,-9.081,-0.627,-3.987,3.01,1.26,0.91
,-9.012,-0.548,-4.125,-9.093,-0.622,-3.92,2.66,1.05,0.84
9010.0,-9.04,-0.617,-3.958,-9.04,-0.665,-4.006,2.45,1.26,0.63
,-9.028,-0.629,-3.996,-9.04,-0.553,-4.066,2.31,1.33,0.7
,-9.036,-0.675,-4.011,-9.069,-0.503,-4.068,2.45,1.47,0.77
,-8.995,-0.682,-4.049,-9.012,-0.529,-4.082,2.73,1.54,0.84
9086.0,-9.057,-0.56,-4.116,-8.981,-0.589,-4.085,2.1,1.61,0.63
,-8.978,-0.591,-4.176,-9.021,-0.62,-4.085,2.31,1.47,0.84
,-9.033,-0.536,-4.159,-9.016,-0.601,-4.13,2.73,1.33,0.7
,-9.043,-0.538,-4.171,-8.993,-0.625,-4.058,2.87,1.05,0.63
9161.0,-9.079,-0.644,-4.037,-9.06,-0.644,-3.893,2.52,0.7,0.42
,-9.028,-0.589,-4.011,-9.057,-0.615,-3.888,2.59,0.84,0.56
,-9.016,-0.639,-3.994,-9.055,-0.617,-3.922,2.52,0.84,0.63
,-9.021,-0.622,-3.92,-9.098,-0.581,-3.932,2.59,0.91,0.63
9237.0,-9.05,-0.639,-3.984,-9.06,-0.572,-4.14,2.38,1.68,0.56
,-8.957,-0.617,-4.039,-9.055,-0.546,-4.152,2.24,1.54,0.42
,-9.016,-0.617,-4.147,-9.04,-0.591,-4.097,2.45,1.54,0.56
,-8.978,-0.562,-4.173,-9.005,-0.672,-4.111,2.52,1.47,0.63
9313.0,-9.002,-0.658,-4.099,-9.052,-0.675,-3.999,2.87,1.26,0.77
,-9.045,-0.689,-4.008,-9.014,-0.656,-4.039,3.08,1.19,0.98
,-9.036,-0.663,-3.984,-9.033,-0.56,-4.046,3.15,1.33,0.91
,-9.064,-0.651,-3.994,-9.012,-0.593,-4.068,3.08,1.33,0.84
9389.0,-9.009,-0.617,-4.011,-9.04,-0.627,-4.082,2.59,1.26,0.77
,-9.024,-0.567,-3.97,-9.048,-0.665,-4.137,2.66,1.54,0.98
,-9.062,-0.536,-4.013,-9.024,-0.593,-4.18,2.52,1.26,0.84
,-9.057,-0.596,-4.025,-9.026,-0.615,-4.164,2.38,1.26,0.7
9464.0,-9.031,-0.613,-4.13,-9.048,-0.687,-4.011,2.73,1.05,0.84
,-9.028,-0.572,-4.101,-9.019,-0.658,-4.006,2.59,0.91,0.77
,-9.04,-0.615,-4.039,-9.016,-0.692,-4.032,2.38,0.84,0.7
,-9.028,-0.648,-4.02,-9.074,-0.653,-3.991,2.45,0.84,0.77
9540.0,-9.04,-0.61,-3.979,-9.038,-0.543,-4.061,2.73,1.33,1.05
,-9.064,-0.601,-4.018,-9.038,-0.55,-4.13,2.87,1.33,1.05
,-9.06,-0.598,-4.037,-9.062,-0.546,-4.094,2.66,1.26,0.98
,-8.993,-0.634,-4.027,-9.052,-0.543,-4.113,2.8,1.33,1.05
9615.0,-8.981,-0.486,-4.128,-9.021,-0.641,-4.034,2.38,1.05,0.77
,-9.04,-0.543,-4.128,-9.04,-0.696,-4.003,2.24,0.98,0.7
,-9.016,-0.601,-4.106,-9.06,-0.677,-3.955,2.17,0.91,0.7
,-9.012,-0.617,-4.066,-9.014,-0.617,-4.011,2.38,0.84,0.77
9691.0,-9.014,-0.62,-4.051,-9.074,-0.538,-3.996,3.29,0.98,0.91
,-8.983,-0.632,-4.013,-8.981,-0.565,-3.989,3.43,1.33,1.12
,-9.002,-0.608,-4.034,-9.009,-0.634,-4.063,3.43,1.33,1.12
,-9.05,-0.567,-3.999,-9.038,-0.66,-4.085,3.15,1.05,0.98
9767.0,-9.026,-0.644,-4.039,-9.05,-0.579,-3.97,2.1,1.19,0.63
,-9.007,-0.646,-4.063,-9.024,-0.562,-4.02,2.38,1.12,0.77
,-9.055,-0.603,-4.08,-9.052,-0.66,-3.991,2.45,1.12,0.84
,-9.021,-0.634,-4.054,-9.074,-0.637,-3.97,2.31,1.19,0.77
