Timestamp,AccX,AccY,AccZ,GyroX,GyroY,GyroZ,MagnX,MagnY,MagnZ
0.0,-9.21,-1.283,-3.537,-9.22,-1.158,-3.546,2.31,1.54,0.63
,-9.251,-1.235,-3.53,-9.134,-1.254,-3.506,2.66,1.33,0.7
,-9.249,-1.184,-3.542,-9.198,-1.184,-3.501,2.66,1.33,0.84
,-9.253,-1.165,-3.613,-9.227,-1.089,-3.36,2.66,1.26,0.98
76.0,-9.174,-1.256,-3.142,-9.177,-1.304,-3.439,1.12,1.12,0.91
,-9.249,-1.139,-3.484,-9.124,-1.213,-3.515,2.73,0.98,0.98
,-9.225,-1.046,-3.496,-9.261,-1.182,-3.443,1.89,0.77,0.84
,-9.225,-1.074,-3.814,-9.275,-1.096,-3.302,0.98,0.28,0.7
152.0,-9.304,-1.082,-3.25,-9.016,-1.077,-2.845,1.47,1.12,0.91
,-9.273,-1.144,-2.958,-9.17,-0.986,-2.917,0.42,1.26,0.98
,-9.136,-1.184,-3.01,-9.287,-0.948,-2.881,-0.77,1.4,0.56
,-9.134,-1.182,-2.824,-9.34,-0.916,-2.938,-0.56,2.1,0.77
228.0,-9.313,-0.83,-3.175,-9.167,-1.285,-3.747,-3.43,3.64,-0.63
,-9.421,-0.78,-3.419,-9.318,-1.244,-3.599,-4.41,3.57,-0.84
,-9.349,-0.869,-3.738,-9.557,-1.094,-3.575,-6.02,3.43,-0.84
,-9.22,-1.144,-3.845,-9.581,-0.9,-3.513,-6.65,3.78,-0.49
304.0,-9.366,-0.931,-3.671,-8.894,-1.675,-4.099,-11.34,0.42,-1.12
,-9.028,-1.225,-3.498,-8.894,-1.622,-4.247,-14.7,-0.14,-0.49
,-8.985,-1.467,-3.721,-8.964,-1.522,-4.216,-14.98,-0.63,0.07
,-8.954,-1.594,-3.936,-9.031,-1.429,-4.058,-13.16,-0.63,0.35
380.0,-9.215,-1.249,-3.989,-9.411,-1.144,-3.443,0.49,-0.84,3.43
,-9.244,-1.158,-3.838,-9.261,-0.986,-3.573,0.91,-1.05,3.5
,-9.172,-1.194,-3.563,-9.44,-0.725,-3.996,0.77,-1.33,4.06
,-9.277,-1.266,-3.245,-9.268,-0.476,-4.484,0.7,-1.33,4.41
456.0,-9.009,-0.641,-4.468,-9.411,-0.653,-3.867,0.21,-3.85,3.85
,-9.0,-0.94,-4.216,-9.282,-0.553,-3.879,1.12,-3.57,4.34
,-9.1,-1.251,-3.831,-9.127,-0.771,-3.659,3.08,-3.36,4.62
,-9.258,-1.141,-3.482,-9.105,-1.137,-3.4,6.37,-3.57,4.62
532.0,-9.28,-1.347,-3.032,-9.466,-0.972,-2.907,0.98,-7.98,3.22
,-9.246,-1.019,-2.989,-9.155,-1.661,-2.754,2.24,-8.82,1.96
,-9.287,-0.847,-2.575,-9.251,-1.766,-2.599,1.19,-8.96,1.54
,-9.541,-0.747,-2.8,-9.189,-1.503,-2.759,-2.52,-9.03,1.61
608.0,-9.371,-0.926,-3.032,-9.251,-1.4,-2.79,3.92,-5.39,5.11
,-9.344,-0.383,-3.743,-9.543,-1.149,-2.532,3.5,-6.58,4.69
,-9.069,-0.613,-3.946,-9.648,-0.644,-2.558,-0.21,-6.86,4.9
,-9.141,-1.089,-3.592,-9.694,-0.519,-2.831,-1.12,-5.32,5.67
684.0,-9.474,-0.538,-2.867,-9.416,-0.282,-3.616,-2.8,-4.55,5.11
,-9.306,-0.905,-2.108,-9.15,-0.577,-4.092,-3.85,-2.24,5.74
,-9.323,-0.699,-2.613,-9.162,-1.254,-4.219,-3.5,-2.1,4.27
,-9.462,-0.486,-2.51,-9.062,-1.682,-4.142,-2.38,-1.75,2.66
760.0,-9.196,-1.931,-3.283,-9.28,-0.926,-2.489,-6.23,-3.36,5.18
,-9.497,-1.469,-3.061,-9.375,-0.684,-1.23,-0.21,-2.87,4.62
,-9.493,-0.842,-3.044,-9.837,0.148,-2.565,2.17,-3.92,4.48
,-9.524,-0.828,-2.709,-9.124,0.519,-2.723,1.05,-3.85,5.18
836.0,-9.718,0.261,-3.12,-9.428,-1.05,-2.489,-8.82,-3.57,3.08
,-9.368,0.227,-3.123,-9.213,-1.33,-2.242,-14.49,-3.71,2.66
,-9.251,-0.23,-2.752,-9.103,-1.287,-1.869,-16.17,-1.75,0.98
,-9.665,-0.737,-2.625,-9.146,-1.163,-1.436,-14.28,-0.14,0.0
912.0,-9.5,-0.665,-1.206,-9.277,0.759,-3.273,10.5,13.09,1.75
,-9.689,0.335,-1.929,-8.942,-0.426,-3.161,13.37,12.18,0.91
,-9.876,0.962,-2.362,-8.813,-1.412,-2.984,10.29,9.59,-0.49
,-10.029,1.275,-3.056,-8.926,-1.883,-2.663,1.89,7.28,-2.1
988.0,-9.246,-1.9,-2.441,-9.397,-0.385,-2.685,-3.64,16.45,-3.36
,-9.294,-1.855,-2.276,-9.33,0.05,-3.364,1.61,18.62,-2.17
,-9.411,-1.601,-2.213,-9.342,0.266,-3.687,5.18,19.88,-0.7
,-9.258,-1.12,-2.032,-8.851,0.038,-3.393,9.59,21.35,0.0
1064.0,-8.799,-0.629,-3.104,-9.062,-0.943,-3.881,-1.19,20.44,0.42
,-9.119,-1.108,-3.498,-8.99,-0.546,-3.728,-0.77,20.37,-0.07
,-9.43,-1.247,-3.819,-9.306,-0.11,-3.826,2.17,18.62,-0.42
,-9.361,-1.146,-3.955,-9.208,0.213,-4.369,4.62,18.97,-0.21
1140.0,-9.105,-0.175,-4.334,-9.081,-2.307,-3.549,3.15,17.57,-1.54
,-8.923,-1.022,-4.058,-9.1,-1.606,-3.683,-2.45,18.13,-0.28
,-9.007,-1.821,-3.726,-9.308,-1.175,-3.142,-4.34,18.69,0.21
,-8.966,-2.443,-3.549,-9.139,-0.476,-3.774,0.0,19.18,0.49
1216.0,-8.751,-0.483,-4.104,-8.959,-1.845,-3.92,3.5,13.44,5.25
,-8.698,-0.988,-4.111,-9.036,-1.706,-4.154,-0.63,14.35,6.44
,-8.827,-1.508,-3.884,-9.469,-1.316,-4.068,-2.03,15.61,7.49
,-8.832,-1.716,-3.972,-8.911,-0.306,-4.781,-0.07,16.94,8.54
1292.0,-8.299,0.431,-4.934,-9.675,-0.146,-3.75,15.12,13.65,10.99
,-8.402,0.696,-4.709,-9.713,-0.627,-3.85,11.13,15.19,9.38
,-9.024,0.596,-4.185,-9.215,-1.177,-4.101,6.58,15.96,7.14
,-9.399,0.302,-4.039,-8.703,-1.402,-4.188,2.31,16.31,5.32
1368.0,-8.67,-1.249,-4.403,-9.251,0.687,-4.197,6.02,13.72,7.21
,-8.614,-0.995,-4.523,-8.959,0.842,-4.444,12.32,13.72,6.79
,-8.823,-0.318,-4.53,-8.863,0.359,-4.575,17.57,13.37,5.46
,-9.079,0.225,-4.42,-8.763,-0.132,-4.657,17.29,12.6,4.06
1444.0,-8.701,-0.809,-4.685,-9.067,-1.235,-4.69,-6.72,9.94,1.47
,-8.708,-2.146,-3.915,-9.026,-0.653,-4.657,-4.41,11.06,1.26
,-8.863,-2.393,-4.176,-9.172,0.06,-5.006,3.43,11.83,1.89
,-8.837,-2.166,-4.305,-9.067,0.522,-4.996,12.74,12.46,2.66
1520.0,-9.182,0.603,-4.829,-8.914,-0.404,-4.661,14.98,7.7,2.1
,-8.638,0.203,-4.879,-8.938,-0.342,-4.697,9.66,7.14,1.68
,-8.758,-0.17,-4.764,-9.189,-0.156,-4.64,7.49,7.07,1.54
,-8.949,-0.383,-4.645,-9.584,0.148,-4.767,7.56,6.93,1.19
1596.0,-9.237,0.165,-5.023,-8.78,-1.027,-4.764,12.11,3.43,-8.82
,-8.629,-0.28,-5.3,-9.074,-1.05,-4.506,8.26,3.64,-8.19
,-8.334,-0.828,-5.104,-8.854,-1.127,-4.355,7.63,5.39,-7.7
,-8.217,-1.318,-5.054,-9.158,-0.816,-4.355,9.52,6.72,-7.35
1672.0,-8.942,-0.567,-4.664,-8.772,-0.615,-5.453,2.87,1.05,-2.31
,-8.894,-0.345,-4.994,-8.459,-1.237,-5.176,0.91,-0.42,-2.73
,-8.77,-0.84,-4.932,-8.799,-1.103,-5.075,0.14,-0.77,-2.8
,-8.882,-0.768,-5.142,-8.564,-1.072,-4.697,1.26,-1.05,-3.08
1748.0,-8.83,-1.125,-4.542,-8.717,-1.498,-4.984,7.07,-1.82,-3.78
,-9.002,-1.18,-4.46,-8.808,-1.811,-4.697,5.95,-2.66,-2.87
,-8.839,-1.486,-4.41,-8.67,-2.314,-4.156,6.79,-3.36,-2.73
,-8.748,-1.278,-4.874,-8.459,-1.823,-4.219,9.24,-3.57,-2.31
1824.0,-8.717,-1.462,-4.092,-9.115,-1.278,-4.446,9.94,-5.6,5.04
,-9.021,-1.441,-4.281,-8.753,-2.118,-3.975,9.87,-6.37,3.85
,-9.16,-1.029,-4.3,-8.705,-1.354,-4.245,10.57,-6.44,2.38
,-9.241,-0.948,-4.267,-8.868,-1.0,-4.566,10.71,-5.95,1.61
1900.0,-9.036,-1.261,-4.176,-8.607,-1.529,-3.807,23.94,3.5,-1.82
,-8.909,-0.981,-4.238,-8.801,-1.232,-4.171,23.45,2.59,-1.05
,-8.598,-1.223,-4.329,-9.17,0.347,-4.456,20.86,2.45,0.84
,-8.586,-1.823,-4.075,-8.689,-0.785,-4.939,18.34,3.78,2.17
1976.0,-8.641,-0.383,-4.281,-9.28,-0.72,-4.362,11.41,-0.14,4.41
,-8.832,0.213,-4.58,-9.055,-0.749,-4.219,10.92,-0.42,4.76
,-9.0,-0.215,-4.168,-8.562,-1.12,-4.25,5.74,-0.42,5.04
,-9.27,-0.309,-4.185,-8.488,-1.206,-3.896,4.41,-1.4,4.76
2052.0,-8.784,-0.933,-3.967,-9.064,-0.294,-4.487,9.1,-1.4,2.31
,-8.88,-0.828,-4.034,-9.275,-0.469,-4.661,7.84,-1.4,2.03
,-8.698,-0.658,-4.228,-9.232,-0.866,-4.542,7.35,-0.7,1.89
,-8.777,-0.443,-4.156,-9.06,-0.866,-4.544,7.42,0.07,0.84
2128.0,-8.983,-1.23,-4.611,-8.768,-2.056,-4.362,8.96,-0.14,-3.36
,-9.139,-1.295,-4.523,-8.871,-2.012,-4.279,8.54,-0.42,-3.22
,-8.909,-1.68,-4.463,-8.679,-2.369,-4.252,8.12,-1.12,-2.38
,-8.727,-1.895,-4.439,-8.323,-2.18,-4.338,8.12,-0.98,-1.05
2204.0,-8.531,-1.321,-4.36,-8.938,-0.514,-4.405,8.47,-2.59,4.55
,-8.971,-0.854,-4.424,-8.969,-0.491,-3.97,6.93,-3.01,3.99
,-9.201,-0.665,-4.585,-9.005,-0.818,-3.659,6.02,-3.15,3.78
,-9.136,-0.627,-4.448,-8.99,-1.031,-3.872,5.46,-3.22,3.92
2280.0,-9.134,-1.316,-3.831,-8.593,-1.067,-4.262,4.34,-1.12,2.66
,-9.028,-1.57,-3.979,-8.727,-1.237,-4.355,5.11,-0.77,2.94
,-8.796,-1.673,-4.063,-9.072,-1.187,-4.068,5.53,-0.56,3.78
,-8.758,-1.321,-4.032,-8.997,-0.924,-4.219,6.23,-0.56,4.97
2356.0,-8.775,-0.756,-4.159,-8.904,-0.854,-3.704,3.08,-0.63,6.44
,-8.794,-0.665,-4.07,-8.66,-0.55,-3.802,1.4,-0.28,6.37
,-8.839,-0.773,-3.896,-8.997,-0.237,-3.649,-0.35,-0.91,6.58
,-8.859,-1.007,-3.96,-8.346,-1.129,-3.245,-1.33,-1.47,6.79
2432.0,-9.091,-0.146,-4.472,-8.605,-1.22,-3.757,0.91,2.59,5.11
,-9.105,-0.979,-3.776,-8.44,-1.433,-3.812,-0.63,5.18,4.83
,-8.909,-1.101,-3.606,-8.524,-1.457,-4.109,-3.5,6.86,4.83
,-8.758,-1.417,-3.214,-8.77,-1.024,-3.987,-3.64,8.47,5.25
2508.0,-8.792,-0.522,-4.367,-8.959,-0.995,-4.013,-6.44,15.61,9.1
,-8.911,-0.73,-4.649,-8.679,-0.916,-4.02,-8.82,15.89,8.68
,-9.155,-0.826,-4.642,-8.37,-0.835,-4.24,-9.8,16.17,8.75
,-9.095,-1.094,-4.389,-8.524,-0.419,-4.657,-9.8,16.38,9.03
2584.0,-8.923,-0.503,-4.872,-8.684,-0.629,-4.367,-11.55,15.54,9.24
,-9.083,-0.479,-4.322,-8.643,-0.972,-4.312,-11.27,15.54,8.33
,-8.823,-0.244,-4.231,-8.873,-0.756,-4.587,-9.52,14.98,6.72
,-8.581,0.146,-4.958,-9.232,-0.483,-4.63,-8.89,15.82,4.55
2660.0,-9.232,-0.206,-4.815,-9.086,0.471,-5.64,0.56,20.02,0.7
,-9.189,-0.007,-5.324,-9.024,0.034,-5.547,0.98,19.88,0.14
,-8.961,0.175,-5.245,-9.04,-0.337,-5.568,-0.14,19.88,-0.49
,-8.952,0.668,-5.757,-8.959,-0.871,-5.042,-3.22,18.69,-1.75
2736.0,-8.61,-1.321,-5.307,-9.191,-1.519,-5.154,-17.71,12.53,1.54
,-8.461,-1.744,-5.291,-9.366,-1.297,-4.992,-20.23,12.32,4.97
,-8.428,-1.618,-5.233,-9.072,-0.893,-5.236,-17.29,12.25,6.16
,-8.71,-1.673,-5.671,-8.32,-0.577,-5.631,-14.7,11.41,6.86
2812.0,-8.093,-0.254,-6.08,-8.82,0.278,-5.745,-11.55,5.11,12.6
,-8.366,-0.73,-5.559,-8.744,0.476,-5.726,-12.46,4.55,12.32
,-8.689,-0.459,-5.631,-9.019,0.486,-5.688,-9.73,2.87,11.34
,-8.897,-0.199,-5.738,-8.954,0.318,-5.855,-6.93,1.68,10.57
2888.0,-8.847,0.218,-5.647,-8.823,-0.342,-5.209,-2.31,-1.75,1.68
,-8.823,0.33,-5.93,-8.447,-0.098,-5.82,-1.33,-2.73,0.98
,-8.531,0.335,-6.15,-8.402,-0.079,-5.274,0.84,-4.06,0.28
,-8.729,-0.177,-5.245,-8.294,0.101,-5.401,1.12,-5.32,-1.33
2964.0,-8.397,0.086,-5.24,-8.854,-0.304,-5.245,6.3,-12.95,-5.25
,-8.753,-0.029,-5.214,-8.827,-0.175,-5.269,5.11,-13.09,-6.65
,-9.048,-0.23,-5.197,-8.964,-0.28,-4.585,3.85,-12.81,-6.93
,-9.021,-0.321,-5.2,-9.483,-0.462,-4.066,5.18,-11.69,-6.09
3040.0,-8.528,-0.06,-4.647,-8.77,-0.313,-4.384,8.12,-15.4,-8.75
,-7.947,-0.309,-4.348,-8.717,-0.191,-4.398,4.27,-14.77,-7.98
,-8.062,-0.349,-4.346,-8.806,-0.562,-4.429,2.03,-14.98,-7.28
,-8.538,-0.467,-4.245,-8.83,-1.012,-4.525,1.89,-15.26,-6.37
3116.0,-8.729,-1.469,-4.164,-8.713,-0.412,-4.424,1.26,-8.05,-3.36
,-8.729,-1.464,-4.279,-8.67,-0.323,-4.496,6.51,-7.98,-3.22
,-8.641,-1.0,-4.427,-8.617,-0.579,-4.441,11.41,-9.73,-2.87
,-8.636,-1.237,-3.927,-8.784,-0.866,-4.207,12.32,-11.69,-1.96
3192.0,-9.119,-0.806,-4.185,-8.76,-0.117,-4.326,7.28,-13.02,1.75
,-9.1,-0.656,-4.058,-8.856,-0.235,-4.314,8.68,-12.6,1.33
,-8.973,-0.354,-4.214,-9.17,-0.505,-4.367,9.94,-11.13,1.12
,-8.768,-0.079,-4.348,-9.139,-0.302,-4.606,10.5,-9.31,0.77
3268.0,-8.83,-0.28,-4.386,-8.806,-0.33,-3.853,8.19,-10.01,0.0
,-9.107,-0.156,-4.097,-8.789,-0.127,-4.216,9.52,-8.75,-0.21
,-8.938,-0.263,-4.135,-8.622,-0.541,-3.79,9.45,-9.03,-0.98
,-8.976,-0.249,-4.389,-9.021,-1.01,-3.678,9.17,-9.31,-1.4
3344.0,-9.306,-1.098,-3.726,-8.878,-0.342,-3.766,10.5,-8.68,0.98
,-9.538,4.252,-9.196,-8.722,-0.282,-3.982,59.22,-4.69,0.84
,-9.079,1.713,-7.105,-9.028,-0.622,-3.185,27.79,-11.97,0.91
,-8.796,-0.426,-3.563,-9.485,-0.567,-3.501,1.68,-12.18,0.28
3420.0,-9.6,-0.313,-3.917,-9.088,-0.89,-2.9,2.59,-14.35,-3.85
,-9.306,-0.136,-3.896,-9.373,-0.826,-3.276,0.42,-14.7,-4.06
,-9.014,-0.235,-3.534,-9.124,-0.421,-3.743,-2.38,-13.3,-3.64
,-8.916,-0.62,-3.352,-9.007,-0.701,-3.872,-3.92,-12.04,-4.69
3496.0,-9.033,-0.914,-3.817,-9.208,-0.73,-3.283,-5.25,-13.02,-3.85
,-8.897,-0.912,-3.903,-9.172,-0.744,-2.972,-3.64,-12.11,-3.92
,-8.902,-0.89,-3.582,-9.562,-0.749,-2.994,-0.35,-11.2,-5.53
,-8.899,-0.895,-3.343,-9.407,-0.708,-3.561,1.68,-10.29,-6.09
3572.0,-9.112,-0.73,-3.297,-9.031,-0.61,-3.329,0.07,-10.01,-5.67
,-9.007,-0.759,-3.29,-9.107,-0.804,-2.781,1.19,-8.96,-5.04
,-9.196,-0.701,-3.862,-9.33,-0.782,-2.79,1.96,-9.8,-5.46
,-8.928,-0.651,-3.637,-9.421,-0.369,-2.96,2.59,-9.31,-5.88
3648.0,-9.332,-0.136,-2.891,-9.119,-1.586,-2.362,4.48,-7.91,-7.14
,-9.356,-0.175,-3.431,-9.368,-1.615,-2.087,-0.35,-8.61,-7.42
,-9.134,-0.651,-3.336,-9.591,-1.376,-1.998,-4.62,-8.12,-7.28
,-8.938,-1.22,-2.761,-9.49,-1.005,-2.225,-4.69,-5.95,-6.58
3724.0,-9.402,-1.017,-2.249,-9.153,-0.639,-4.403,-1.54,0.0,-3.85
,-9.435,-0.732,-3.297,-9.064,-0.969,-4.156,-3.08,-0.49,-4.06
,-9.134,-0.534,-3.795,-9.249,-1.053,-3.917,-5.04,-1.4,-4.69
,-9.119,-0.558,-4.197,-9.265,-0.96,-3.711,-5.39,-1.54,-4.83
3800.0,-9.17,-0.926,-3.168,-9.452,-1.058,-2.723,5.6,-2.17,-3.99
,-9.294,-0.919,-2.907,-9.337,-1.184,-2.623,5.46,-1.54,-3.43
,-9.385,-1.12,-2.802,-9.316,-1.082,-2.869,4.27,-1.05,-3.43
,-9.414,-1.122,-2.721,-9.103,-1.019,-2.934,2.66,-0.98,-3.43
3876.0,-9.079,-1.058,-2.656,-9.299,-0.814,-3.142,0.28,2.31,-2.24
,-9.201,-1.082,-2.613,-9.16,-0.826,-3.479,0.77,3.5,-1.75
,-9.363,-1.117,-2.548,-9.005,-1.153,-3.685,0.63,3.99,-1.68
,-9.469,-1.065,-2.871,-9.143,-1.496,-3.501,0.35,3.57,-1.82
3952.0,-9.433,-1.486,-3.24,-8.873,-0.957,-4.398,1.12,4.62,-0.07
,-9.596,-1.05,-3.479,-8.792,-1.362,-4.439,2.31,3.85,-0.07
,-9.5,-0.68,-3.754,-8.921,-1.637,-4.123,0.56,3.01,-0.14
,-9.347,-0.665,-4.159,-9.232,-1.486,-3.783,-2.24,1.82,-0.49
4028.0,-9.385,-1.098,-3.589,-9.072,-1.244,-3.216,10.85,0.28,1.4
,-9.332,-0.713,-3.537,-9.174,-1.309,-2.919,9.8,-0.91,1.33
,-9.251,-0.763,-3.539,-9.462,-1.285,-3.008,6.3,-1.68,1.12
,-9.115,-0.979,-3.374,-9.378,-1.039,-2.769,3.43,-1.82,1.12
4104.0,-9.411,-0.838,-2.793,-9.363,-0.943,-3.314,5.95,-0.14,2.24
,-9.383,-0.694,-3.003,-9.222,-1.041,-3.147,3.85,-0.21,1.61
,-9.246,-0.72,-2.824,-9.215,-0.89,-3.233,1.75,-0.07,0.84
,-9.421,-0.699,-3.013,-9.215,-0.912,-3.271,-0.14,0.0,0.42
4180.0,-9.349,-0.814,-3.309,-9.356,-0.986,-3.001,-1.26,1.26,0.14
,-9.368,-1.003,-3.281,-9.354,-0.742,-2.958,-2.03,1.68,0.21
,-9.311,-1.094,-3.19,-9.411,-0.601,-2.996,-2.03,2.38,0.49
,-9.215,-1.141,-3.056,-9.411,-0.883,-3.072,-1.33,3.15,0.56
4256.0,-9.184,-1.201,-3.206,-9.146,-0.637,-3.783,-2.87,5.95,0.56
,-9.172,-1.218,-3.496,-9.373,-0.847,-3.637,-0.14,6.02,0.91
,-9.263,-1.077,-3.699,-9.459,-0.991,-3.64,3.29,6.09,0.98
,-9.191,-0.735,-3.862,-9.44,-1.05,-3.659,5.39,5.6,0.7
4332.0,-9.198,-0.928,-3.671,-9.217,-1.177,-3.594,3.43,3.57,0.07
,-9.16,-0.854,-3.735,-9.232,-1.34,-3.333,3.36,3.08,0.07
,-9.177,-0.943,-3.685,-9.194,-1.366,-3.439,2.87,3.08,0.21
,-9.103,-1.012,-3.568,-9.217,-1.251,-3.398,2.24,2.8,0.07
4408.0,-9.299,-1.101,-3.434,-9.232,-1.055,-3.228,5.04,2.24,1.4
,-9.179,-0.857,-3.563,-9.311,-1.034,-3.123,4.69,1.89,1.4
,-9.167,-0.847,-3.467,-9.306,-0.916,-3.209,3.43,1.96,1.47
,-9.232,-0.914,-3.412,-9.251,-0.943,-3.034,2.45,2.31,1.4
4484.0,-9.234,-0.962,-3.099,-9.304,-1.275,-3.065,1.54,3.15,1.47
,-9.251,-1.048,-3.046,-9.208,-1.184,-3.113,0.91,3.57,1.61
,-9.208,-1.055,-3.19,-9.206,-1.189,-3.123,0.49,3.64,1.61
,-9.165,-1.196,-3.008,-9.294,-0.945,-3.472,0.21,4.55,1.96
4560.0,-9.217,-0.902,-3.623,-9.512,-0.692,-3.372,-0.63,5.11,2.94
,-9.067,-0.912,-3.532,-9.447,-0.431,-3.575,-1.96,5.39,2.87
,-9.038,-0.936,-3.343,-9.217,-0.538,-3.841,-2.94,5.81,2.87
,-9.179,-0.952,-3.013,-8.997,-0.993,-3.886,-2.94,6.23,2.52
4636.0,-8.882,-1.45,-3.769,-9.21,-0.328,-3.96,-8.26,4.97,2.73
,-9.04,-1.563,-3.944,-9.165,-0.024,-4.082,-3.57,4.83,3.15
,-9.007,-1.316,-3.865,-9.05,-0.067,-4.142,0.91,4.41,3.5
,-9.057,-0.919,-3.788,-9.088,-0.313,-3.922,5.81,3.85,3.99
4712.0,-9.316,-0.885,-3.728,-9.289,-1.225,-2.481,4.48,0.0,1.75
,-9.411,-1.184,-3.403,-9.378,-1.39,-1.85,4.06,-0.7,0.98
,-9.237,-1.187,-3.388,-9.643,-1.285,-2.596,3.29,-1.4,0.21
,-9.232,-1.079,-2.912,-9.414,-0.739,-3.041,2.03,-0.91,0.49
4788.0,-9.323,-0.498,-4.128,-9.227,-2.161,-3.951,-3.78,2.17,2.66
,-8.72,-0.601,-4.843,-9.397,-1.706,-3.336,-7.49,1.4,3.15
,-8.516,-1.287,-4.848,-9.38,-0.952,-2.697,-6.93,3.01,5.25
,-8.827,-1.938,-4.161,-9.536,-0.151,-2.371,-0.49,5.39,7.14
4864.0,-9.509,0.144,-3.02,-8.981,-0.988,-3.233,14.98,3.71,6.37
,-9.541,0.132,-3.214,-8.973,-1.216,-3.355,5.81,2.66,5.53
,-9.703,-0.053,-3.771,-8.949,-1.316,-3.192,-1.68,2.59,5.39
,-9.028,-0.474,-3.764,-9.227,-0.938,-3.656,-9.17,4.34,5.04
4940.0,-9.036,-0.67,-3.628,-9.146,-0.048,-2.826,5.46,5.04,6.65
,-9.402,-0.546,-3.008,-9.363,0.304,-3.422,8.19,6.16,7.21
,-9.505,-0.409,-2.8,-9.124,0.577,-3.479,11.27,6.86,6.02
,-8.938,-0.299,-3.039,-8.964,0.45,-3.676,11.9,6.72,3.85
5016.0,-8.765,0.172,-3.494,-8.959,-1.369,-3.786,-15.33,10.15,-4.41
,-8.945,-0.002,-3.537,-9.048,-1.821,-3.539,-18.13,10.01,-4.97
,-8.99,-0.44,-3.723,-9.483,-1.57,-3.707,-20.93,9.94,-4.13
,-9.16,-1.048,-3.412,-9.299,-1.18,-3.597,-21.0,10.64,-2.17
5092.0,-9.007,-0.897,-3.431,-8.806,0.744,-2.565,9.94,13.02,-1.61
,-8.686,-0.404,-3.357,-8.973,0.605,-3.195,8.82,14.14,-2.03
,-8.638,-0.048,-2.97,-9.182,-0.309,-3.455,4.27,16.17,-2.8
,-8.77,0.316,-2.742,-9.371,-1.527,-3.728,-2.8,16.17,-4.13
5168.0,-9.296,-2.797,-3.74,-8.93,-2.915,-3.771,-25.34,15.75,2.31
,-8.935,-4.032,-3.568,-8.794,-1.658,-4.195,-17.5,18.34,4.9
,-8.641,-4.487,-3.374,-8.512,-0.596,-4.791,-3.71,21.56,6.58
,-8.701,-3.924,-3.47,-8.636,0.388,-4.714,14.0,24.36,8.47
5244.0,-8.471,1.208,-5.085,-9.481,0.342,-4.302,16.03,19.39,15.4
,-8.301,1.737,-4.97,-9.383,-0.28,-4.3,6.65,21.28,14.0
,-8.638,1.553,-4.726,-9.162,-0.486,-4.046,-2.03,22.75,11.55
,-9.057,0.952,-4.415,-8.653,-0.713,-4.037,-9.03,22.82,9.03
5320.0,-8.614,-0.893,-4.618,-8.837,0.388,-5.298,5.53,23.52,4.48
,-8.875,-1.017,-4.867,-8.634,0.715,-5.511,10.08,21.21,4.34
,-9.055,-0.806,-5.315,-8.49,0.617,-5.552,11.2,18.76,4.97
,-8.916,-0.268,-5.166,-8.729,0.395,-5.078,12.32,17.64,4.97
5396.0,-8.713,-0.024,-4.846,-8.765,-1.086,-5.071,-9.87,16.1,1.05
,-8.748,-0.727,-4.336,-8.638,-0.486,-5.319,-12.88,16.17,2.59
,-8.662,-1.33,-4.482,-8.77,0.483,-5.477,-12.04,16.38,3.29
,-8.856,-1.4,-4.585,-8.854,1.323,-5.671,-7.56,16.45,3.71
5472.0,-8.787,1.78,-5.683,-8.557,-1.366,-4.925,12.39,12.88,-4.97
,-9.038,1.529,-5.24,-8.174,-2.819,-4.963,6.16,12.32,-7.84
,-9.04,1.043,-5.162,-8.16,-3.24,-5.071,1.26,12.25,-10.5
,-8.976,-0.045,-4.767,-8.411,-3.295,-5.305,-2.59,11.83,-12.67
5548.0,-8.325,-2.824,-5.334,-8.969,-0.352,-5.573,13.44,10.64,1.26
,-8.449,-1.586,-5.832,-8.777,-0.388,-5.781,17.99,8.54,1.26
,-8.425,-0.79,-5.86,-8.5,-0.29,-5.784,17.22,6.79,1.4
,-8.631,-0.354,-5.906,-8.153,-0.287,-5.925,12.67,5.74,2.17
5624.0,-8.26,-0.668,-5.372,-8.528,-1.089,-5.365,0.28,3.22,1.75
,-8.447,-0.574,-5.542,-8.863,-1.103,-5.353,0.0,2.38,2.66
,-8.646,-1.122,-5.52,-8.775,-0.5,-5.221,0.49,1.54,4.34
,-8.603,-1.17,-5.451,-8.631,-0.048,-5.382,3.22,1.68,5.46
5700.0,-8.55,-0.002,-5.616,-8.564,-0.593,-5.152,10.08,-0.49,3.92
,-8.569,-0.146,-5.664,-8.098,-0.648,-5.556,9.59,-1.05,3.92
,-8.346,-0.596,-5.446,-8.246,-0.826,-5.65,7.42,-1.33,3.43
,-8.655,-0.524,-5.319,-8.638,-1.488,-5.363,7.49,-1.82,2.87
5776.0,-8.727,-1.823,-5.236,-8.488,0.249,-5.8,8.68,-3.85,4.83
,-8.847,-1.653,-5.128,-8.512,0.426,-5.178,15.47,-3.36,4.2
,-8.586,-1.096,-5.286,-8.612,0.022,-4.958,19.81,-3.71,3.92
,-8.737,-0.383,-5.516,-8.555,-0.349,-4.441,20.3,-3.71,3.5
5852.0,-9.629,0.608,-5.307,-8.497,-1.194,-4.862,-1.19,-2.31,-3.01
,-8.928,-1.323,-4.161,-8.327,-1.072,-5.078,3.57,-4.55,0.0
,-8.914,-1.515,-4.145,-8.284,-1.127,-4.812,10.57,-5.67,0.56
,-8.918,-1.223,-4.508,-8.447,-0.83,-4.905,14.0,-6.65,0.07
5928.0,-8.39,-0.962,-5.15,-9.11,-0.72,-4.7,17.15,-7.14,5.95
,-8.636,-1.017,-4.896,-8.725,-0.991,-4.685,18.62,-6.58,5.6
,-8.954,-0.278,-5.284,-8.356,-0.967,-4.834,19.67,-7.0,4.62
,-9.222,-0.385,-4.929,-8.588,-1.388,-4.642,16.45,-7.56,3.99
6004.0,-8.949,-1.352,-4.381,-8.811,-0.658,-4.939,15.61,-9.03,4.76
,-10.541,-0.05,-2.867,-8.693,-0.495,-4.941,16.94,-9.59,4.62
,-8.753,-0.615,-5.078,-8.784,-0.304,-5.169,20.93,-9.1,3.5
,-8.775,-0.345,-5.48,-8.734,-0.816,-4.685,19.11,-9.03,2.59
6080.0,-8.368,-0.988,-4.585,-9.009,-0.206,-4.221,9.17,-10.71,5.88
,-8.38,-0.974,-4.527,-9.005,0.041,-3.946,8.96,-10.15,5.95
,-8.574,-0.727,-4.74,-8.696,-0.101,-3.826,10.22,-9.45,5.53
,-8.83,-0.452,-4.487,-8.593,-0.313,-3.872,9.17,-8.19,4.62
6156.0,-8.48,-0.407,-3.783,-8.411,-0.378,-3.917,1.75,-3.29,2.66
,-8.667,-0.086,-4.25,-8.452,-0.591,-3.853,2.17,-1.05,1.54
,-8.909,-0.361,-4.042,-8.789,-0.785,-4.19,1.33,0.7,0.98
,-8.825,-0.644,-3.776,-8.947,-1.328,-4.058,0.7,2.1,1.33
6232.0,-8.983,-1.374,-3.575,-8.543,-0.962,-4.178,-1.4,9.1,2.66
,-8.727,-1.098,-3.676,-8.638,-0.658,-4.558,-2.87,9.59,4.06
,-8.433,-1.378,-3.668,-8.811,-0.479,-4.549,-6.3,10.57,5.04
,-8.512,-1.462,-3.721,-8.882,-0.261,-4.491,-7.91,11.69,6.09
6308.0,-8.82,-0.354,-4.556,-8.67,-1.299,-4.247,-1.33,14.7,2.94
,-8.942,-0.333,-4.896,-8.71,-0.565,-4.97,0.91,15.33,0.63
,-8.806,-0.806,-4.422,-9.119,-0.421,-4.953,1.82,16.45,0.0
,-8.574,-1.448,-3.987,-9.217,-0.711,-4.946,3.5,17.85,0.98
6384.0,-9.328,-0.629,-5.078,-8.449,-1.034,-5.016,1.75,18.48,-0.07
,-8.918,-0.73,-5.138,-8.598,-0.39,-5.209,-0.98,17.78,-0.14
,-8.569,-0.885,-5.054,-8.739,0.359,-5.456,-3.22,18.2,0.56
,-8.354,-1.022,-4.815,-8.605,0.797,-5.87,-4.76,18.62,1.26
6460.0,-8.595,0.995,-5.836,-8.492,-1.488,-5.829,-11.76,14.28,-1.4
,-8.885,0.187,-5.296,-8.586,-1.761,-5.726,-21.63,13.86,-0.14
,-8.99,-0.084,-5.324,-8.509,-1.996,-5.867,-25.83,12.95,0.91
,-8.806,-1.103,-5.398,-8.44,-2.233,-5.875,-28.77,11.83,2.24
6536.0,-8.435,-1.797,-5.836,-8.823,0.129,-5.611,-6.44,7.49,5.88
,-8.662,-1.005,-5.839,-9.05,0.313,-5.583,0.14,6.51,6.02
,-8.593,-0.38,-5.762,-8.777,0.455,-5.887,1.82,5.6,5.46
,-8.576,0.115,-6.131,-8.122,0.022,-5.427,0.7,4.83,4.34
6612.0,-7.846,-0.318,-5.456,-8.933,-0.701,-5.475,-13.86,-4.06,4.62
,-8.112,-0.586,-5.276,-9.014,-0.378,-5.755,-12.53,-4.69,3.85
,-8.318,-0.634,-5.511,-8.689,-0.235,-5.678,-8.61,-5.04,2.73
,-8.772,-1.034,-5.016,-8.725,-0.266,-5.116,-6.65,-5.18,1.61
6688.0,-8.813,0.031,-5.116,-8.39,-0.486,-5.142,11.9,-5.11,-3.5
,-8.725,-0.074,-5.25,-8.464,-0.28,-5.255,9.38,-7.0,-2.73
,-8.26,-0.182,-5.207,-8.397,-0.153,-5.403,7.28,-7.14,-2.73
,-8.411,-0.376,-4.884,-8.574,-0.457,-4.791,5.53,-8.19,-2.45
6764.0,-8.576,-0.309,-5.001,-8.662,-0.507,-5.095,4.06,-9.03,-3.85
,-8.605,-0.108,-5.147,-8.492,-0.627,-5.217,4.13,-8.54,-3.5
,-8.689,-0.151,-5.027,-8.356,-0.826,-4.968,3.57,-7.77,-3.43
,-8.703,-0.266,-5.095,-8.653,-1.161,-4.463,3.08,-7.07,-3.64
6840.0,-8.942,-0.771,-4.92,-8.605,-0.524,-4.848,12.46,-8.96,-1.61
,-8.748,-0.96,-4.472,-8.756,-0.888,-4.805,10.57,-11.34,-1.61
,-8.619,-0.263,-4.968,-8.837,-0.675,-4.97,11.9,-11.9,-1.4
,-8.382,-0.246,-5.114,-8.705,-0.507,-4.977,8.33,-11.2,-0.49
6916.0,-8.598,-0.704,-4.539,-8.514,-0.531,-5.066,9.24,-9.03,-0.35
,-8.612,-0.55,-5.224,-8.349,-0.352,-5.02,10.01,-8.26,1.12
,-8.617,-0.739,-4.719,-8.815,-0.352,-4.975,9.1,-8.61,1.61
,-8.725,-0.692,-4.903,-8.902,-0.297,-5.104,10.08,-9.31,1.82
6992.0,-8.969,-5.142,-7.006,-8.902,-0.302,-4.42,19.32,-14.84,0.84
,-9.667,-0.182,-3.484,-8.727,-0.57,-4.322,14.84,-16.17,3.08
,-8.691,0.792,-6.205,-8.758,-0.928,-4.243,5.25,-17.78,0.98
,-8.894,-0.129,-4.558,-8.715,-1.106,-4.042,-5.95,-18.41,-1.47
7068.0,-8.926,-1.084,-3.716,-8.89,-0.596,-3.965,-0.28,-18.27,-3.99
,-9.072,-0.931,-3.769,-8.971,-0.522,-3.898,2.31,-18.48,-3.43
,-8.933,-0.823,-3.637,-8.741,-0.369,-3.905,2.31,-18.55,-3.71
,-8.993,-0.67,-3.819,-8.756,-0.424,-3.958,1.75,-18.13,-3.36
7144.0,-8.665,-0.421,-3.908,-9.261,-0.615,-3.558,-0.42,-16.87,-3.78
,-8.638,-0.218,-3.86,-9.366,-0.763,-3.47,0.84,-16.45,-4.06
,-8.885,-0.225,-3.987,-9.447,-0.543,-3.381,0.42,-17.36,-5.11
,-8.969,-0.359,-4.07,-9.38,-0.175,-3.963,-1.54,-17.92,-6.16
7220.0,-9.014,-0.275,-4.202,-8.997,-1.218,-3.821,-12.39,-20.09,-9.1
,-8.739,-0.732,-4.441,-8.94,-0.687,-3.776,-16.1,-19.81,-8.68
,-8.567,-1.376,-4.056,-9.067,-0.507,-4.494,-15.68,-17.64,-7.84
,-9.04,-1.732,-3.9,-8.825,-0.998,-3.979,-9.52,-16.52,-7.77
7296.0,-9.17,-1.596,-3.092,-9.337,0.156,-3.247,-4.13,-14.63,-5.39
,-9.375,-1.644,-3.3,-8.863,0.081,-3.151,0.0,-14.77,-5.67
,-9.292,-1.211,-2.742,-8.878,-0.249,-2.855,6.65,-13.79,-6.09
,-9.287,-0.483,-2.525,-8.921,-0.806,-2.958,11.34,-13.23,-5.39
7372.0,-9.069,-1.089,-2.247,-9.184,-0.768,-2.46,10.71,-8.47,-5.46
,-9.325,-0.936,-2.513,-9.229,-0.921,-2.666,13.23,-8.4,-5.46
,-9.251,-0.718,-2.233,-9.277,-1.089,-3.108,13.3,-7.35,-5.39
,-9.395,-0.802,-2.393,-8.985,-1.144,-3.001,10.92,-6.16,-5.18
7448.0,-9.088,-1.307,-2.96,-9.361,-0.486,-3.053,-0.63,-2.24,-4.2
,-9.246,-1.462,-2.659,-9.182,-0.55,-3.276,1.19,-1.12,-3.5
,-9.383,-1.299,-2.347,-9.15,-0.933,-3.317,4.55,0.21,-2.52
,-9.593,-0.806,-2.673,-9.162,-1.271,-3.233,5.88,-0.21,-2.31
7524.0,-9.253,-1.333,-2.984,-9.418,-1.01,-2.793,4.76,1.61,-1.47
,-9.392,-1.244,-2.498,-9.318,-0.991,-3.061,6.93,2.66,-1.05
,-9.485,-1.074,-2.525,-9.153,-1.244,-3.139,6.86,3.15,-0.91
,-9.447,-1.024,-2.501,-9.146,-1.378,-2.979,4.9,3.36,-0.98
7600.0,-9.356,-1.424,-3.025,-8.894,-0.72,-4.582,1.54,6.16,-0.28
,-9.564,-1.137,-3.4,-8.734,-1.187,-4.413,3.71,5.6,-0.14
,-9.631,-0.658,-3.982,-8.93,-1.529,-3.941,3.36,3.99,-0.56
,-9.27,-0.416,-4.386,-9.27,-1.448,-3.599,1.05,2.73,-1.05
7676.0,-9.469,-1.113,-3.539,-9.105,-1.06,-3.156,8.4,0.49,-0.07
,-9.361,-0.909,-3.565,-9.22,-1.228,-2.955,7.35,-0.42,0.14
,-9.146,-0.94,-3.431,-9.311,-1.173,-2.922,5.53,-0.35,0.21
,-9.141,-0.991,-3.412,-9.342,-1.034,-2.895,4.34,-0.14,0.35
7752.0,-9.38,-1.003,-3.197,-9.332,-1.278,-3.453,3.36,0.49,0.63
,-9.213,-1.053,-3.333,-9.337,-0.998,-3.467,2.03,0.49,0.63
,-9.1,-1.187,-3.405,-9.194,-0.96,-3.396,1.47,1.05,0.84
,-9.134,-1.393,-3.417,-9.153,-1.072,-3.309,1.89,1.33,1.05
7828.0,-9.17,-1.201,-3.171,-9.375,-0.658,-3.4,4.62,1.96,2.1
,-9.263,-1.278,-3.003,-9.28,-0.689,-3.589,5.95,2.31,2.59
,-9.45,-0.981,-3.058,-9.148,-0.981,-3.652,7.07,2.45,2.59
,-9.502,-0.823,-3.161,-9.15,-1.173,-3.594,6.3,2.17,2.24
7904.0,-9.261,-1.153,-3.628,-9.273,-0.754,-3.565,2.8,1.82,1.54
,-9.287,-0.986,-3.565,-9.256,-0.871,-3.446,4.83,1.47,1.47
,-9.284,-0.682,-3.587,-9.251,-1.012,-3.355,5.32,1.05,1.47
,-9.299,-0.653,-3.558,-9.241,-1.163,-3.218,4.13,0.91,1.12
7980.0,-9.32,-1.184,-3.149,-9.177,-1.079,-3.3,3.99,1.05,0.49
,-9.354,-1.053,-3.113,-9.186,-1.307,-3.163,4.69,1.19,0.35
,-9.385,-0.943,-3.252,-9.234,-1.316,-3.171,3.92,1.05,0.21
,-9.328,-0.866,-3.314,-9.404,-1.113,-3.108,2.8,1.19,0.07
8056.0,-9.474,-0.854,-3.077,-9.127,-1.251,-3.704,4.62,2.8,1.12
,-9.464,-0.749,-3.362,-9.103,-1.278,-3.525,2.45,2.45,0.7
,-9.237,-0.797,-3.386,-9.201,-1.144,-3.57,-0.14,2.45,0.56
,-9.208,-0.993,-3.587,-9.261,-1.046,-3.551,-1.4,2.38,0.42
8132.0,-9.32,-0.897,-3.702,-9.134,-1.115,-3.479,3.78,1.75,0.91
,-9.273,-0.838,-3.747,-9.208,-1.127,-3.269,2.73,1.12,0.7
,-9.241,-0.888,-3.687,-9.359,-1.048,-3.099,1.89,0.77,0.7
,-9.208,-0.976,-3.659,-9.438,-1.043,-3.046,1.54,0.56,0.49
8208.0,-9.421,-0.967,-2.931,-9.253,-1.115,-3.281,1.54,1.12,0.84
,-9.38,-1.0,-3.132,-9.215,-1.031,-3.19,0.14,1.26,0.77
,-9.229,-1.091,-3.137,-9.304,-0.943,-3.221,-0.98,1.54,0.77
,-9.265,-1.067,-3.336,-9.258,-0.814,-3.379,-0.77,1.89,0.77
8284.0,-9.172,-0.876,-3.472,-9.323,-1.314,-3.192,0.0,2.38,1.12
,-9.1,-1.029,-3.53,-9.306,-0.933,-3.187,-0.84,2.38,1.19
,-9.146,-1.462,-3.319,-9.21,-0.641,-3.352,-0.49,3.22,1.4
,-9.292,-1.479,-3.218,-9.184,-0.589,-3.47,2.38,3.78,1.82
8360.0,-9.179,-0.806,-3.618,-9.206,-0.902,-3.503,-0.56,2.8,1.47
,-9.21,-0.95,-3.551,-9.146,-0.72,-3.905,-0.77,3.22,1.75
,-9.277,-1.065,-3.446,-9.026,-0.66,-4.013,0.35,3.78,1.89
,-9.189,-1.039,-3.388,-9.007,-0.835,-4.061,1.68,3.78,1.89
8436.0,-9.055,-1.101,-3.824,-9.273,-0.601,-2.615,-3.64,0.14,1.05
,-9.215,-1.235,-3.427,-9.184,-0.73,-2.666,-4.41,-0.35,0.49
,-9.483,-1.242,-2.991,-9.261,-1.132,-2.489,-5.67,-1.68,-0.28
,-9.414,-0.881,-2.788,-9.545,-1.481,-2.091,-7.28,-3.22,-0.21
8512.0,-9.392,-1.175,-2.28,-9.095,-0.912,-2.915,-16.59,-4.27,0.7
,-9.014,-1.043,-2.185,-9.134,-1.254,-2.8,-16.66,-3.57,1.12
,-9.275,-0.916,-2.123,-9.112,-1.33,-3.015,-16.45,-1.89,2.03
,-9.256,-0.708,-2.888,-9.445,-1.031,-2.864,-16.52,-1.26,2.1
8588.0,-9.469,-0.584,-3.147,-8.705,-1.582,-3.008,-5.18,9.66,3.29
,-9.237,-0.416,-3.333,-9.375,-1.596,-3.075,-4.9,10.22,3.15
,-9.165,-0.589,-3.573,-9.263,-1.005,-3.25,-6.65,10.64,3.71
,-8.782,-1.036,-3.637,-9.457,-0.297,-3.628,-7.77,12.81,5.32
8664.0,-9.198,0.256,-3.996,-8.976,-1.381,-3.175,8.96,13.09,5.6
,-8.897,-0.093,-3.951,-9.344,-1.146,-3.398,1.4,13.02,5.39
,-9.026,-0.637,-3.403,-9.074,-1.031,-3.687,-1.96,14.84,6.02
,-9.213,-1.249,-3.649,-9.103,-0.914,-3.29,-0.91,15.89,5.46
8740.0,-9.019,-0.706,-3.508,-9.189,-0.641,-4.681,7.07,19.18,6.3
,-9.284,-0.299,-3.295,-8.971,-0.883,-4.247,9.45,19.95,6.51
,-9.141,-0.273,-4.085,-9.256,-1.034,-3.8,8.89,17.99,5.46
,-9.375,-0.309,-4.089,-8.579,-1.28,-4.247,6.93,16.73,5.04
8816.0,-8.32,-1.249,-4.243,-9.5,0.522,-4.544,4.34,15.61,2.8
,-8.667,-0.888,-3.865,-9.036,0.412,-4.98,6.93,16.31,3.57
,-9.244,-0.268,-3.671,-8.569,-0.263,-5.142,9.03,16.45,4.41
,-9.399,0.261,-3.745,-8.423,-1.161,-4.893,9.1,15.61,3.85
8892.0,-8.387,-2.046,-3.845,-9.332,-0.658,-3.795,-5.04,15.54,2.17
,-8.78,-2.221,-3.833,-9.418,0.057,-3.743,1.47,15.19,2.31
,-8.768,-1.9,-3.709,-9.526,0.617,-3.836,6.72,15.05,2.94
,-9.198,-1.33,-3.556,-9.328,1.024,-4.331,11.13,15.47,4.83
8968.0,-8.727,0.775,-4.855,-9.069,-1.256,-3.807,-5.32,15.26,2.24
,-8.588,-0.024,-4.683,-9.036,-1.316,-3.977,-10.08,17.08,2.45
,-8.555,-0.955,-3.932,-8.77,-1.295,-4.209,-8.68,18.62,2.03
,-8.564,-1.232,-3.879,-8.394,-1.4,-3.896,-2.24,18.41,0.14
9044.0,-8.605,-1.151,-3.831,-8.538,0.062,-4.712,7.42,19.95,5.25
,-8.466,-0.809,-4.259,-8.849,0.048,-4.41,6.79,19.39,5.11
,-8.569,-0.285,-4.594,-8.48,-0.074,-4.453,4.62,18.48,5.32
,-8.397,-0.103,-4.917,-8.375,-0.124,-4.346,0.21,18.2,6.37
9120.0,-8.753,-0.249,-3.92,-8.361,0.206,-4.468,1.05,24.08,3.92
,-9.225,-0.045,-3.661,-8.313,0.067,-4.441,3.78,24.22,3.15
,-9.167,0.038,-3.908,-8.512,-0.282,-4.647,4.13,23.66,1.89
,-8.727,0.227,-4.259,-8.882,-0.433,-4.752,3.85,24.29,0.77
9196.0,-8.926,-0.467,-4.965,-8.263,-1.153,-5.729,0.98,25.69,-2.03
,-8.509,-0.517,-5.351,-8.425,-1.189,-6.076,0.63,25.9,-1.61
,-8.43,-0.723,-5.178,-8.622,-1.33,-6.155,-1.33,25.55,-0.42
,-8.184,-0.514,-5.913,-8.658,-1.359,-6.353,-2.03,25.06,0.63
9272.0,-8.691,-1.333,-6.281,-8.287,-0.522,-6.092,0.77,17.29,5.11
,-8.313,-1.278,-6.406,-8.507,-0.17,-5.97,1.33,16.1,5.46
,-7.976,-1.06,-6.155,-8.626,0.302,-6.272,3.08,15.75,6.3
,-7.98,-0.823,-6.09,-8.533,0.309,-6.427,4.48,16.03,6.58
9348.0,-8.607,0.218,-6.102,-8.107,-0.27,-6.104,2.87,9.45,0.7
,-8.428,-0.438,-5.944,-8.15,-0.56,-6.097,0.77,8.05,0.0
,-8.232,-0.656,-5.843,-8.478,-0.914,-5.949,0.84,6.72,0.07
,-8.215,-0.486,-6.085,-9.182,-0.957,-5.659,3.36,5.46,1.26
9424.0,-8.839,-1.297,-5.607,-8.392,-0.084,-6.202,4.2,1.4,2.66
,-8.447,-1.393,-5.377,-8.44,0.802,-6.303,3.15,0.14,4.69
,-7.746,-1.357,-5.59,-8.686,1.718,-6.279,3.78,-1.75,5.88
,-7.664,-0.794,-5.973,-7.87,1.993,-6.619,6.51,-2.45,6.23
9500.0,-7.873,1.804,-6.588,-8.768,-2.666,-5.233,1.54,-6.65,-2.87
,-8.165,0.924,-6.188,-8.954,-2.709,-5.183,-3.92,-6.79,-3.5
,-8.442,-0.412,-5.518,-8.567,-2.563,-5.475,-7.84,-6.72,-2.94
,-8.598,-1.618,-5.422,-8.378,-1.814,-5.504,-7.07,-6.23,-2.52
9576.0,-8.447,-0.763,-5.865,-8.433,-0.972,-5.039,17.36,-8.96,2.66
,-8.138,-0.601,-5.937,-8.648,-0.579,-5.25,14.49,-10.15,3.01
,-7.94,-0.591,-5.951,-8.823,-0.189,-5.367,12.18,-10.36,4.2
,-7.787,-1.005,-5.657,-8.961,0.225,-5.138,11.69,-9.94,5.6
9652.0,-8.732,0.385,-5.559,-8.485,-0.373,-5.477,11.27,-11.83,1.05
,-8.521,0.325,-5.585,-10.38,1.275,-6.784,9.59,-13.02,0.56
,-8.224,-0.376,-5.449,-9.033,-1.362,-3.235,8.54,-13.44,0.56
,-8.014,-0.692,-5.286,-8.6,-0.711,-4.015,10.29,-12.53,-0.28
9728.0,-8.894,-0.005,-4.219,-8.655,-1.594,-4.279,14.91,-11.06,-4.41
,-8.698,-0.256,-4.432,-8.435,-2.23,-4.726,11.34,-9.8,-3.36
,-8.641,-0.739,-4.346,-8.136,-1.898,-4.831,8.05,-9.1,-1.61
,-8.583,-1.187,-4.441,-8.409,-1.723,-4.736,8.12,-8.82,0.14
9804.0,-8.643,-1.199,-4.85,-9.052,0.172,-4.223,23.94,-4.69,2.24
,-8.562,-0.503,-4.815,-8.784,-0.153,-4.324,27.09,-3.85,1.96
,-8.631,-0.024,-4.714,-8.476,-0.333,-4.487,25.83,-3.08,1.82
,-8.806,-0.017,-4.31,-8.514,-0.313,-4.994,20.37,-2.03,0.7
9880.0,-8.703,-0.909,-5.3,-8.641,-1.445,-4.121,7.98,-3.29,-0.98
,-8.717,-1.768,-4.862,-8.526,-1.187,-4.235,9.45,-3.15,-0.63
,-8.571,-1.685,-4.482,-8.665,-1.18,-4.398,13.16,-3.01,-0.28
,-8.399,-1.491,-4.415,-9.122,-1.096,-4.657,15.4,-3.22,0.35
9956.0,-8.851,-1.01,-4.669,-8.648,-1.094,-5.377,12.88,-1.75,0.84
,-8.655,-0.866,-4.642,-8.784,-1.675,-4.793,11.55,-2.31,1.26
,-8.469,-1.106,-4.867,-8.662,-1.244,-4.53,10.43,-1.61,1.82
,-9.208,-0.962,-4.736,-8.406,-0.409,-4.795,10.99,1.82,3.78
10032.0,-4.511,4.922,-2.726,-8.696,0.184,-4.57,3.08,2.94,-4.9
,-8.904,5.504,-12.792,-8.299,-0.101,-4.999,30.66,-1.4,-1.82
,-8.617,-0.471,-5.535,-8.897,-0.943,-4.312,2.31,-2.17,0.91
,-8.571,-1.764,-2.379,-8.717,-0.572,-4.822,-1.96,-0.84,2.45
10108.0,-8.696,-0.73,-4.628,-8.662,-0.268,-4.85,4.34,1.33,4.69
,-8.933,-0.675,-4.606,-8.655,-0.191,-5.173,1.61,2.03,5.11
,-8.504,-0.78,-4.463,-8.782,-0.55,-4.975,1.26,3.71,4.76
,-8.531,-0.503,-4.427,-8.768,-0.407,-4.932,2.17,5.32,4.06
10184.0,-8.653,-0.445,-4.982,-8.277,-1.07,-4.585,-3.29,9.24,4.76
,-8.469,-0.802,-4.958,-8.361,-1.048,-4.535,-5.32,9.73,5.25
,-8.442,-1.017,-4.436,-8.567,-0.797,-4.597,-6.65,10.71,6.02
,-8.411,-1.01,-4.439,-8.725,-0.704,-4.786,-7.28,10.99,7.0
10260.0,-8.909,-0.467,-5.147,-8.662,-0.828,-4.982,-8.26,11.41,6.51
,-8.744,-0.983,-5.004,-8.842,-1.127,-5.15,-8.26,11.13,6.09
,-8.598,-0.718,-5.013,-8.945,-1.498,-5.123,-6.58,11.48,5.53
,-8.559,-0.483,-5.09,-8.583,-1.783,-4.386,-6.86,11.27,4.69
10336.0,-8.392,-1.496,-4.487,-9.002,-0.153,-5.791,6.16,12.32,1.19
,-8.327,-1.089,-5.482,-9.0,0.146,-5.956,11.41,13.37,0.7
,-8.39,-0.794,-5.508,-9.119,0.258,-6.133,10.92,14.14,0.56
,-8.684,-0.491,-5.772,-8.804,0.005,-5.753,8.61,13.93,1.54
10412.0,-8.677,0.007,-5.276,-8.504,-1.127,-5.159,-1.54,9.1,-0.84
,-8.425,-0.084,-5.602,-8.531,-0.967,-5.494,-5.53,7.7,-0.14
,-8.346,-0.718,-5.145,-8.54,-1.084,-5.382,-8.68,7.84,-0.42
,-8.399,-0.244,-5.508,-8.727,-1.378,-5.262,-7.56,7.35,-1.82
10488.0,-8.849,-1.134,-5.721,-8.184,-1.498,-5.236,-11.06,2.8,6.09
,-8.952,-1.024,-5.767,-8.162,-1.318,-5.075,-9.1,1.54,6.51
,-9.196,-1.598,-5.492,-8.279,-0.682,-6.088,-6.16,-1.4,8.82
,-7.949,2.635,-7.99,-8.445,-0.443,-5.865,-12.04,6.86,10.99
10564.0,-8.746,-0.191,-6.028,-8.124,-0.517,-5.492,1.96,-3.43,3.99
,-8.775,-0.105,-5.843,-7.909,-0.416,-5.573,2.73,-4.27,2.8
,-8.662,-0.132,-5.272,-8.057,-0.627,-4.98,1.61,-5.04,1.89
,-8.569,-0.433,-4.884,-8.61,-0.179,-5.348,-1.82,-7.35,1.89
10640.0,-8.863,-0.156,-5.121,-8.67,-0.141,-4.946,0.7,-10.64,0.63
,-8.839,0.093,-5.434,-8.545,0.117,-4.939,2.87,-10.15,-1.33
,-9.024,0.079,-5.195,-8.126,-0.091,-5.257,1.89,-9.31,-3.01
,-8.897,-0.093,-5.085,-8.191,-0.048,-5.166,0.28,-9.38,-3.64
10716.0,-8.349,-0.342,-4.908,-9.064,-0.371,-4.757,1.75,-13.09,-4.2
,-8.569,-0.223,-5.061,-8.722,-0.311,-4.941,4.41,-12.32,-4.48
,-8.579,-0.443,-4.994,-8.32,-0.426,-4.97,4.13,-11.2,-4.06
,-8.768,-0.713,-4.386,-8.323,-0.861,-4.642,5.32,-10.22,-4.06
10792.0,-8.679,-1.141,-4.42,-8.323,-0.072,-5.214,4.69,-8.26,-0.35
,-8.928,-1.079,-4.405,-8.358,-0.309,-5.09,5.67,-9.38,0.7
,-9.019,-0.708,-4.42,-8.538,-0.909,-4.537,5.46,-12.32,1.61
,-8.6,-0.771,-4.657,-8.777,-0.936,-4.783,1.54,-16.1,1.19
10868.0,-8.851,-0.84,-4.759,-8.78,-0.179,-4.472,-3.36,-12.81,2.31
,-8.914,-0.759,-4.762,-8.818,0.029,-4.685,-0.14,-12.6,2.52
,-9.103,-0.62,-4.623,-8.871,-0.335,-4.518,3.22,-12.53,1.68
,-8.983,-0.258,-4.795,-8.844,-0.038,-5.114,5.95,-11.9,0.42
10944.0,-8.634,-0.232,-5.044,-8.806,-1.206,-4.195,2.17,-13.09,-0.7
,-8.382,-0.4,-4.815,-8.82,-1.307,-4.326,-0.42,-12.67,-0.98
,-8.397,-0.577,-4.69,-8.856,-0.928,-4.532,0.21,-11.34,-0.84
,-8.758,-0.945,-4.319,-9.115,-0.644,-4.439,1.4,-11.34,-0.7
11020.0,-9.194,-0.287,-4.113,-8.849,-0.634,-2.29,11.41,-11.97,1.54
,-9.206,-0.074,-3.922,-8.626,-0.976,-3.719,10.5,-11.27,1.05
,-8.938,0.019,-3.714,-8.526,-0.227,-4.575,8.82,-10.57,1.4
,-8.763,-0.627,-4.051,-8.717,-0.404,-3.987,9.8,-11.62,2.03
11096.0,-9.158,-0.215,-3.288,-9.129,0.081,-3.728,10.08,-10.29,-1.61
,-9.555,0.239,-3.185,-9.038,-0.503,-3.525,13.02,-10.78,-3.36
,-9.512,0.873,-3.836,-9.005,-1.177,-3.508,9.38,-13.93,-4.97
,-9.27,0.881,-3.836,-9.048,-1.307,-3.47,1.75,-14.98,-5.39
11172.0,-8.887,-1.11,-3.285,-8.849,-0.797,-3.63,0.21,-10.5,-7.14
,-9.007,-0.567,-3.764,-8.99,-1.139,-3.245,2.73,-12.11,-7.0
,-8.949,-0.318,-3.774,-9.103,-1.192,-3.034,1.61,-12.11,-6.79
,-8.952,-0.474,-3.821,-9.378,-0.838,-3.142,-1.68,-11.97,-6.23
11248.0,-9.402,-0.507,-3.128,-8.741,-0.928,-4.286,4.55,-7.84,-5.25
,-9.213,-0.572,-2.888,-8.643,-0.809,-4.049,2.45,-7.07,-4.55
,-9.021,-0.677,-3.386,-8.909,-0.718,-3.597,0.42,-7.14,-4.34
,-9.091,-0.787,-4.073,-9.474,-0.369,-3.754,0.0,-8.19,-4.9
11324.0,-9.299,0.086,-3.802,-9.414,-0.706,-3.561,12.18,-8.12,-5.67
,-9.074,0.06,-3.628,-9.505,-0.378,-3.917,7.77,-8.33,-5.53
,-9.055,-0.617,-3.321,-9.301,-0.072,-4.018,4.2,-8.54,-5.95
,-9.064,-0.651,-3.553,-9.036,-0.201,-3.86,4.2,-7.56,-6.93
11400.0,-9.048,-0.885,-3.781,-9.072,-0.928,-3.434,-2.31,-8.19,-8.05
,-9.122,-1.383,-3.321,-9.048,-1.043,-3.104,-0.35,-7.49,-8.26
,-9.351,-1.402,-3.434,-9.139,-1.235,-3.032,3.78,-7.77,-8.47
,-9.22,-1.132,-3.587,-9.088,-1.259,-2.922,5.81,-8.4,-8.26
11476.0,-9.174,-1.187,-2.79,-9.318,-0.976,-3.056,8.82,-5.25,-5.04
,-9.22,-1.122,-2.95,-9.234,-0.931,-3.13,8.75,-5.04,-4.76
,-9.208,-1.031,-2.697,-9.009,-0.938,-2.891,8.68,-3.78,-4.34
,-9.301,-0.943,-2.862,-9.086,-1.283,-2.582,8.33,-3.57,-4.41
11552.0,-9.316,-1.62,-2.063,-9.148,-0.696,-3.211,1.61,0.42,-3.43
,-9.476,-1.644,-1.85,-9.067,-0.888,-3.544,2.59,1.61,-2.8
,-9.562,-1.134,-2.355,-8.844,-1.405,-3.429,3.36,1.89,-2.52
,-9.562,-0.761,-2.795,-8.995,-1.783,-3.183,0.84,1.26,-2.66
11628.0,-9.383,-1.591,-3.242,-9.292,-0.986,-3.63,0.28,4.2,-0.91
,-9.5,-1.235,-3.218,-9.273,-1.003,-3.85,3.57,3.92,-0.56
,-9.493,-0.885,-3.305,-9.354,-0.957,-4.168,3.43,3.92,-0.28
,-9.478,-0.857,-3.549,-9.21,-0.902,-4.29,1.26,3.57,-0.14
11704.0,-9.036,-0.96,-4.101,-9.34,-1.098,-3.542,0.77,1.12,-0.84
,-8.981,-1.184,-3.857,-9.21,-0.94,-3.558,1.82,1.05,-0.49
,-9.038,-1.33,-3.573,-9.06,-0.988,-3.23,3.99,1.4,-0.21
,-9.268,-1.24,-3.477,-9.124,-1.158,-3.099,6.58,0.98,0.07
11780.0,-9.287,-1.249,-3.039,-9.165,-1.141,-3.23,5.74,1.4,0.49
,-9.397,-1.034,-3.037,-9.067,-1.259,-3.25,5.74,1.12,0.35
,-9.323,-0.938,-3.022,-9.177,-1.206,-3.355,3.99,1.12,0.49
,-9.239,-1.034,-3.125,-9.275,-1.127,-3.534,2.59,1.61,0.63
11856.0,-9.313,-1.053,-3.666,-9.098,-1.029,-3.781,4.62,1.68,0.91
,-9.38,-0.936,-3.896,-9.162,-1.194,-3.448,5.04,1.26,0.91
,-9.294,-0.936,-4.078,-9.28,-1.232,-3.345,4.06,0.35,0.42
,-9.069,-0.919,-3.955,-9.273,-1.184,-3.101,3.57,-0.07,0.35
11932.0,-9.229,-1.216,-3.075,-9.335,-0.854,-3.355,5.39,0.56,1.12
,-9.217,-1.151,-2.912,-9.194,-0.869,-3.321,5.39,1.12,1.4
,-9.239,-1.156,-2.812,-9.16,-1.043,-3.206,5.11,1.75,1.47
,-9.423,-1.046,-3.12,-9.127,-1.244,-3.223,4.83,1.75,1.26
12008.0,-9.217,-1.29,-3.317,-9.179,-0.838,-3.872,2.59,3.08,1.19
,-9.407,-1.129,-3.384,-8.978,-1.048,-3.819,3.5,3.01,1.4
,-9.433,-0.988,-3.415,-9.136,-1.29,-3.778,3.36,2.87,1.4
,-9.383,-0.878,-3.625,-9.203,-1.34,-3.439,1.82,2.38,1.05
12084.0,-9.363,-1.18,-3.307,-9.117,-1.024,-3.714,5.25,2.45,1.26
,-9.395,-0.967,-3.4,-9.074,-1.237,-3.642,5.32,1.96,1.19
,-9.366,-0.768,-3.475,-9.072,-1.35,-3.553,3.57,1.33,1.12
,-9.253,-0.732,-3.659,-9.153,-1.314,-3.247,1.05,0.91,0.84
12160.0,-9.287,-1.122,-3.376,-9.239,-1.113,-2.982,3.5,0.77,1.12
,-9.265,-0.983,-3.144,-9.268,-1.149,-3.163,2.38,0.7,1.33
,-9.263,-0.988,-2.924,-9.234,-1.007,-3.245,0.49,1.4,1.54
,-9.265,-1.034,-2.941,-9.127,-1.117,-3.273,-0.98,1.89,1.61
12236.0,-9.105,-1.302,-3.161,-9.253,-1.005,-3.171,-2.38,3.36,1.82
,-9.189,-1.33,-3.173,-9.296,-0.94,-3.199,-0.98,4.06,2.17
,-9.273,-1.263,-3.233,-9.241,-1.01,-3.08,0.35,4.06,2.24
,-9.246,-1.041,-3.175,-9.141,-1.017,-2.876,1.12,4.34,2.59
12312.0,-9.174,-1.115,-2.814,-9.184,-1.149,-3.305,-3.57,6.44,3.5
,-9.148,-1.266,-2.788,-9.196,-1.019,-3.412,-3.15,7.7,3.92
,-9.282,-1.256,-3.065,-9.239,-0.928,-3.288,-2.03,8.19,4.2
,-9.22,-1.302,-3.144,-9.409,-0.888,-3.479,-2.94,8.61,4.48
12388.0,-9.526,-0.9,-3.939,-8.717,-1.484,-4.491,4.83,10.99,5.74
,-9.397,-1.01,-4.759,-9.04,-1.338,-4.094,4.9,8.19,4.76
,-8.753,-1.278,-4.953,-9.28,-1.003,-3.704,5.25,5.53,4.76
,-8.504,-1.424,-4.831,-9.292,-0.491,-3.427,9.8,4.97,6.09
12464.0,-9.464,-0.215,-3.283,-9.17,-0.766,-2.958,17.43,6.72,6.58
,-9.447,-0.194,-3.455,-9.363,-0.739,-3.092,10.64,5.39,5.67
,-9.237,-0.395,-3.259,-9.545,-0.723,-3.128,5.67,5.39,4.62
,-9.119,-0.656,-3.051,-9.521,-0.483,-3.692,2.1,6.09,4.06
12540.0,-9.186,-0.514,-3.668,-9.301,0.077,-3.034,-10.71,2.31,0.56
,-9.182,-0.51,-3.441,-9.416,0.213,-3.625,-13.65,0.77,1.26
,-8.981,-0.369,-3.19,-9.261,0.029,-3.551,-15.4,-0.07,1.82
,-8.887,-0.177,-2.989,-8.866,-0.546,-3.434,-14.56,2.38,1.12
12616.0,-8.938,-1.144,-3.163,-8.823,-0.701,-4.743,-29.26,7.28,-1.12
,-8.942,-1.728,-3.135,-8.684,-1.065,-4.408,-26.39,8.96,-1.12
,-9.557,-1.577,-3.64,-8.741,-1.35,-4.369,-20.93,8.05,-1.4
,-9.079,-1.175,-4.223,-9.007,-1.527,-4.089,-17.78,6.09,-1.47
12692.0,-9.117,-1.393,-4.432,-9.363,-0.687,-2.953,-2.45,9.17,2.94
,-8.926,-1.251,-4.283,-9.416,-0.443,-2.285,3.22,9.31,4.27
,-8.945,-1.05,-4.025,-9.392,-0.067,-2.333,7.7,9.52,5.39
,-9.129,-0.782,-3.226,-9.725,0.404,-2.67,11.2,10.22,5.6
12768.0,-9.301,0.555,-3.979,-8.308,-1.744,-4.448,-2.38,6.51,0.98
,-8.847,0.153,-5.135,-8.961,-1.73,-4.379,-12.67,4.9,0.7
,-8.476,-0.514,-5.552,-9.277,-1.29,-4.29,-19.53,6.37,1.75
,-7.978,-1.39,-5.035,-9.251,-0.9,-4.039,-21.35,10.15,2.38
12844.0,-9.139,-0.756,-3.451,-9.598,0.122,-4.922,1.19,11.27,5.53
,-8.89,-0.596,-2.187,-8.334,-0.711,-5.023,3.99,14.35,6.58
,-9.423,-0.251,-3.022,-7.77,-1.888,-4.123,7.0,11.97,3.43
,-9.347,0.172,-4.094,-7.947,-2.685,-3.9,5.25,7.91,-0.21
12920.0,-8.744,-2.359,-3.546,-9.21,1.067,-3.309,8.05,12.39,3.36
,-9.512,-1.101,-3.551,-8.902,1.137,-3.726,19.32,12.04,2.73
,-9.481,0.146,-3.821,-8.993,1.06,-4.154,21.35,12.6,3.85
,-9.04,0.804,-3.384,-8.708,0.481,-4.817,16.17,15.89,5.74
12996.0,-8.667,-0.304,-4.348,-9.062,-2.3,-3.032,-13.65,15.47,-2.38
,-8.61,-1.342,-4.185,-8.66,-1.369,-3.18,-13.44,17.57,-1.75
,-8.796,-2.144,-3.735,-8.562,-0.014,-3.64,-8.05,19.6,-0.98
,-9.019,-2.46,-3.386,-8.758,0.998,-4.434,2.38,21.21,0.14
13072.0,-9.265,1.309,-4.884,-8.32,-2.132,-4.341,11.2,18.62,0.42
,-9.191,1.163,-5.659,-8.37,-2.871,-4.247,0.35,16.87,-0.21
,-8.725,0.447,-5.638,-8.521,-2.888,-4.609,-10.15,17.99,-0.21
,-8.354,-0.838,-5.142,-8.569,-2.443,-4.905,-17.22,20.86,-0.14
13148.0,-8.399,-1.795,-5.257,-8.83,0.914,-5.899,12.32,18.55,5.04
,-8.397,-1.048,-5.221,-8.648,0.512,-5.671,14.84,19.53,5.95
,-8.662,-0.302,-5.315,-8.617,-0.101,-5.169,15.05,17.92,6.09
,-8.823,0.397,-5.863,-8.471,-0.878,-4.865,10.85,15.82,5.67
13224.0,-8.765,-1.263,-4.714,-8.605,0.108,-5.118,-16.38,13.93,8.33
,-8.772,-1.29,-4.819,-8.66,0.794,-5.008,-10.01,12.95,7.98
,-8.559,-0.938,-5.083,-8.552,1.445,-5.542,-2.66,12.81,6.86
,-8.521,-0.452,-5.106,-8.5,1.622,-5.796,2.94,12.74,5.81
13300.0,-8.583,1.278,-5.841,-8.392,-1.323,-4.288,-3.57,8.33,-0.98
,-8.868,0.943,-5.724,-8.055,-1.768,-4.338,-6.58,7.98,-3.71
,-8.897,0.498,-5.408,-8.311,-2.438,-4.231,-5.6,8.4,-6.93
,-8.911,-0.237,-4.865,-8.588,-2.711,-4.48,-4.27,8.47,-9.38
13376.0,-8.507,-2.374,-5.087,-8.064,-0.885,-5.977,14.28,10.57,0.77
,-8.442,-1.424,-5.657,-8.66,-1.412,-5.54,20.09,8.68,1.4
,-8.021,-0.778,-6.114,-8.799,-1.642,-5.178,21.07,7.98,2.94
,-7.873,-0.55,-6.152,-8.988,-1.441,-5.396,18.48,8.61,5.04
13452.0,-8.691,-1.165,-5.451,-7.447,-0.287,-5.903,17.71,6.51,6.93
,-7.942,-0.062,-6.088,-8.662,-0.68,-5.556,22.12,5.11,5.74
,-8.256,0.921,-6.736,-8.827,-1.074,-5.492,23.03,3.01,5.39
,-7.897,0.388,-6.047,-8.897,-0.814,-5.456,16.38,2.52,7.07
13528.0,-9.631,-0.66,-5.296,-8.294,0.371,-6.549,18.69,-0.56,5.04
,-8.818,-0.055,-5.87,-8.064,-0.481,-6.435,19.6,-1.26,4.55
,-8.894,0.646,-5.865,-7.954,-1.094,-5.714,15.26,-1.96,4.62
,-8.346,0.483,-6.128,-8.37,-1.61,-5.485,10.5,-3.15,3.5
13604.0,-8.662,-1.326,-5.329,-8.765,-0.156,-4.468,9.52,-4.55,-0.28
,-8.653,-0.866,-4.987,-8.82,0.136,-5.097,10.43,-4.9,-2.17
,-8.782,-0.668,-4.793,-9.043,0.057,-5.006,10.57,-4.55,-4.34
,-8.94,-1.419,-3.699,-8.512,-0.895,-5.207,-0.21,-7.42,-4.13
13680.0,-7.956,-1.153,-5.324,-8.059,-1.687,-5.803,7.63,-7.35,-1.89
,-8.038,-1.268,-5.219,-8.469,-1.596,-5.334,11.83,-6.37,-1.54
,-8.492,-1.457,-5.542,-8.495,-1.62,-5.02,14.49,-7.07,-0.42
,-8.373,-2.029,-5.19,-8.705,-1.139,-5.116,17.15,-6.86,1.12
13756.0,-8.76,-0.883,-5.068,-8.689,-1.127,-5.58,25.06,-7.42,6.58
,-8.603,-0.854,-5.133,-8.851,-1.201,-5.08,19.25,-8.82,7.63
,-8.607,-0.771,-5.274,-8.593,-1.283,-4.8,15.96,-9.59,7.77
,-8.454,-0.943,-5.561,-8.385,-1.005,-4.247,13.79,-10.29,8.4
13832.0,-8.301,-0.83,-4.295,-8.765,-0.12,-4.59,15.54,-7.7,9.87
,-8.344,-0.677,-3.955,-8.526,0.337,-4.707,13.65,-7.42,8.4
,-8.732,-0.503,-4.515,-8.796,0.132,-4.558,12.88,-7.14,6.86
,-8.957,-0.479,-4.681,-8.875,-0.445,-4.458,12.81,-6.51,6.16
13908.0,-8.581,-0.574,-4.101,-8.607,-0.603,-3.357,2.94,-3.57,7.42
,-8.306,-0.349,-4.142,-7.715,3.245,-3.783,3.29,-2.1,7.14
,-8.22,-0.175,-4.357,-8.813,3.333,-8.404,1.47,-0.77,6.3
,-8.634,-0.462,-3.946,-8.411,-0.754,-3.955,-0.35,1.33,5.32
13984.0,-8.509,-0.924,-3.51,-8.947,-0.237,-4.805,-13.09,8.33,3.43
,-8.653,0.395,-5.315,-9.072,-0.266,-5.243,-4.48,10.01,2.73
,-8.497,0.309,-5.286,-8.799,-0.79,-5.322,-7.28,11.34,2.8
,-8.691,0.034,-4.831,-8.373,-1.091,-5.556,-10.64,11.9,2.94
14060.0,-8.402,-1.261,-5.604,-8.72,-1.261,-4.819,-15.19,9.45,-0.14
,-8.507,-1.426,-5.745,-8.397,-0.89,-4.673,-13.93,9.66,0.7
,-8.748,-1.582,-5.477,-8.318,-0.445,-5.023,-11.76,9.38,1.4
,-9.033,-1.491,-4.769,-8.552,-0.701,-4.786,-9.73,9.31,2.38
14136.0,-8.82,-1.034,-4.635,-8.634,0.242,-5.351,-6.51,8.68,4.69
,-8.861,-1.077,-4.757,-8.938,0.349,-5.315,-3.5,9.38,5.18
,-8.512,-0.751,-4.865,-8.844,0.321,-5.42,2.17,10.5,4.69
,-8.485,-0.237,-5.133,-8.842,0.208,-5.621,6.09,11.2,3.99
14212.0,-8.579,-0.144,-5.554,-8.413,-0.424,-5.264,-1.4,8.05,0.07
,-8.77,-0.069,-5.733,-8.361,-0.701,-5.542,-0.91,7.56,-0.63
,-8.753,-0.225,-5.712,-8.741,-1.469,-5.425,-0.07,6.44,-0.77
,-8.583,-0.768,-5.02,-9.452,-0.469,-4.963,-2.31,4.55,1.05
14288.0,-8.727,-1.677,-3.939,-8.662,-0.388,-5.573,-21.7,3.71,2.24
,-8.588,-0.431,-5.097,-8.636,-0.589,-5.358,-9.45,1.96,2.52
,-8.378,0.06,-5.772,-8.679,-0.28,-5.724,-9.38,2.45,4.06
,-8.681,-0.16,-5.623,-8.181,-0.481,-5.738,-13.58,2.52,5.67
14364.0,-8.184,-0.56,-5.69,-8.787,0.302,-5.559,-5.53,-2.03,4.2
,-8.366,-0.632,-5.324,-8.789,0.309,-5.427,-3.29,-2.94,3.78
,-8.579,-0.383,-5.607,-8.445,0.139,-5.499,0.07,-3.92,3.29
,-8.689,-0.268,-5.564,-8.27,0.034,-5.76,1.96,-4.34,2.31
14440.0,-8.299,-0.337,-5.652,-8.777,0.266,-5.403,-2.94,-7.21,-0.35
,-8.469,-0.682,-5.226,-8.591,0.608,-5.767,-0.35,-6.93,-1.19
,-8.796,-0.833,-4.709,-8.751,0.433,-5.19,2.31,-7.77,-2.38
,-8.842,-0.175,-5.317,-8.725,0.239,-5.128,10.01,-9.03,-4.34
14516.0,-8.459,-0.022,-5.135,-8.887,-0.342,-4.659,7.14,-11.62,-5.95
,-8.418,-0.213,-5.027,-8.861,-0.328,-4.774,7.0,-11.06,-6.37
,-8.586,-0.014,-5.099,-8.576,-0.455,-4.91,9.31,-10.78,-7.28
,-8.713,-0.232,-4.982,-8.375,-0.627,-4.769,9.8,-11.2,-8.05
14592.0,-8.373,-0.546,-4.903,-8.593,-0.632,-4.829,11.83,-5.46,-4.2
,-8.483,-0.833,-4.647,-8.528,-0.584,-4.965,11.06,-6.23,-3.85
,-8.662,-0.526,-4.915,-8.404,-1.003,-4.925,11.69,-7.56,-2.87
,-8.708,-0.493,-4.829,-8.835,-0.787,-4.728,10.99,-8.4,-0.98
14668.0,-8.847,-0.459,-4.944,-8.619,-0.699,-4.52,10.15,-12.46,-1.47
,-8.868,-0.311,-5.023,-8.741,-0.651,-4.721,12.53,-14.35,0.35
,-8.667,0.194,-4.886,-8.827,-0.543,-4.484,5.25,-14.63,3.01
,-8.634,-0.471,-4.721,-9.0,-0.424,-4.386,-0.56,-14.7,3.29
14744.0,-9.088,-0.311,-4.279,-8.689,-0.706,-4.58,2.1,-17.78,-1.47
,-9.002,-0.354,-4.281,-8.648,-0.574,-4.558,-0.7,-18.34,-0.42
,-8.758,-0.443,-4.41,-9.337,-0.584,-5.961,-3.15,-18.48,0.63
,-8.674,-0.617,-4.24,-8.653,-0.282,-4.3,-3.22,-17.92,0.7
14820.0,-9.244,-0.598,-3.893,-8.626,-0.811,-4.168,1.82,-17.57,-1.68
,-8.971,-0.718,-3.939,-8.787,-0.653,-3.951,1.4,-18.27,-1.61
,-8.911,-0.617,-4.128,-9.016,-0.486,-3.379,2.03,-18.83,-1.19
,-8.631,-0.747,-4.13,-9.476,-0.311,-3.305,0.91,-18.9,-0.49
14896.0,-9.442,-0.151,-3.455,-8.969,-0.775,-3.537,4.2,-17.92,-3.43
,-9.203,-0.077,-3.955,-9.141,-0.558,-4.011,0.7,-19.67,-3.99
,-8.875,-0.077,-4.101,-9.316,-0.136,-3.824,-1.19,-19.39,-3.01
,-8.842,-0.34,-4.214,-9.203,-0.144,-3.917,-2.8,-18.48,-2.17
14972.0,-8.909,-0.175,-3.843,-9.057,-0.725,-3.92,-2.66,-19.32,-6.58
,-9.009,-0.313,-3.754,-8.832,-0.861,-3.635,-3.78,-18.2,-6.16
,-9.306,-0.61,-3.606,-8.827,-1.216,-3.171,-4.69,-18.55,-6.86
,-9.373,-0.68,-3.527,-9.048,-1.448,-2.362,-4.55,-18.76,-6.93
15048.0,-9.457,-1.409,-2.168,-8.981,-0.115,-2.613,9.38,-12.39,-4.48
,-9.526,-1.098,-2.237,-8.945,-0.629,-2.388,12.53,-12.6,-4.83
,-9.45,-0.433,-2.41,-9.007,-0.969,-1.613,12.67,-13.09,-4.83
,-9.301,0.022,-3.214,-9.196,-1.0,-1.33,8.89,-14.28,-5.04
15124.0,-9.45,-0.838,-1.309,-9.529,-0.349,-2.692,9.66,-2.24,-4.41
,-9.727,-0.285,-1.67,-9.141,-0.57,-2.953,9.8,-1.82,-4.48
,-9.727,-0.041,-1.84,-9.079,-0.641,-2.967,5.25,-1.75,-5.11
,-9.56,-0.062,-2.113,-9.258,-0.663,-3.393,0.77,-0.21,-4.97
15200.0,-9.38,-0.782,-3.743,-9.048,-1.541,-4.032,0.28,2.94,-6.3
,-9.378,-0.778,-4.264,-9.127,-1.637,-3.494,-0.21,1.68,-6.93
,-9.234,-0.955,-4.413,-9.332,-1.452,-3.283,-1.05,1.05,-6.58
,-9.098,-1.297,-4.19,-9.323,-1.304,-2.915,-0.35,1.12,-5.81
15276.0,-9.22,-1.479,-2.146,-9.038,-0.665,-3.302,7.84,2.17,-2.17
,-9.354,-0.969,-3.013,-9.182,-0.885,-3.118,7.84,2.03,-1.89
,-9.217,-0.933,-3.293,-9.227,-1.062,-2.886,5.46,1.12,-2.52
,-8.966,-0.763,-3.283,-9.519,-0.931,-2.881,4.76,1.54,-2.17
15352.0,-9.698,-0.639,-3.812,-9.115,-1.637,-3.123,1.12,1.54,-2.31
,-9.215,-0.433,-4.178,-9.418,-1.606,-2.706,-1.75,0.42,-2.8
,-8.959,-0.658,-4.109,-9.617,-1.235,-2.62,-3.64,0.63,-2.17
,-8.993,-1.182,-3.762,-9.653,-0.842,-2.757,-3.78,1.47,-1.89
15428.0,-9.488,-0.639,-3.075,-9.256,-0.991,-3.379,0.21,2.31,-0.84
,-9.179,-0.866,-3.034,-9.289,-0.909,-3.415,-2.66,3.01,-0.56
,-9.196,-1.144,-3.307,-9.27,-0.924,-3.35,-2.87,3.57,-0.56
,-9.203,-1.151,-3.4,-9.332,-0.962,-3.295,-1.05,3.78,-0.77
15504.0,-9.428,-1.0,-3.644,-9.091,-1.17,-3.731,2.17,4.13,0.0
,-9.253,-0.79,-4.011,-9.273,-1.067,-3.695,1.75,2.8,-0.21
,-9.021,-0.735,-4.051,-9.306,-1.039,-3.597,0.84,2.31,-0.28
,-8.983,-0.902,-3.898,-9.342,-0.888,-3.372,-0.21,2.17,-0.42
15580.0,-9.39,-0.905,-3.319,-9.186,-1.173,-3.484,0.77,1.12,0.28
,-9.34,-1.005,-3.515,-9.198,-1.079,-3.417,-0.35,0.42,-0.35
,-9.198,-1.07,-3.494,-9.287,-0.833,-3.393,-0.28,0.42,-0.14
,-9.174,-1.113,-3.52,-9.368,-0.651,-3.604,-0.07,0.42,0.14
15656.0,-9.275,-0.644,-3.711,-9.182,-1.127,-3.726,2.59,-0.42,0.56
,-9.165,-0.84,-3.869,-9.249,-1.067,-3.376,1.75,-0.98,0.35
,-9.143,-1.012,-4.037,-9.249,-0.991,-3.017,2.17,-1.61,0.0
,-9.1,-1.165,-3.738,-9.442,-1.022,-2.843,4.34,-1.47,0.28
15732.0,-9.395,-0.907,-2.747,-9.131,-0.988,-3.561,6.72,-0.14,1.12
,-9.519,-0.692,-2.994,-9.143,-1.103,-3.697,5.46,-0.35,0.84
,-9.349,-0.744,-3.214,-9.136,-0.948,-3.618,2.59,-0.7,0.28
,-9.122,-0.771,-3.441,-9.33,-0.821,-3.628,0.7,-0.49,0.28
15808.0,-9.311,-1.015,-3.475,-9.284,-1.189,-2.867,1.96,-1.19,-0.21
,-9.32,-1.027,-3.374,-9.447,-1.125,-2.785,1.54,-1.54,-0.21
,-9.222,-1.196,-3.185,-9.409,-0.964,-2.848,1.47,-1.47,0.14
,-9.22,-1.213,-2.977,-9.28,-0.806,-2.852,2.31,-1.05,0.42
15884.0,-9.289,-0.859,-2.977,-9.363,-0.84,-3.525,4.76,1.82,0.91
,-9.34,-0.893,-3.116,-9.215,-0.924,-3.726,3.78,2.03,0.56
,-9.426,-0.936,-3.034,-9.06,-1.058,-3.757,2.94,2.45,0.56
,-9.44,-0.802,-3.345,-9.04,-1.17,-3.508,2.03,2.03,0.42
15960.0,-9.239,-1.247,-3.364,-9.282,-0.842,-2.929,2.94,2.1,0.77
,-9.332,-1.106,-3.161,-9.21,-0.897,-2.86,4.34,1.82,0.98
,-9.392,-0.993,-2.879,-9.292,-0.991,-2.912,3.99,2.03,1.4
,-9.39,-0.852,-2.874,-9.184,-1.115,-2.754,2.38,2.17,1.4
16036.0,-9.244,-1.079,-2.749,-9.423,-0.637,-3.393,-2.38,5.32,1.54
,-9.387,-0.998,-2.84,-9.244,-0.546,-3.233,-2.1,5.46,1.4
,-9.433,-0.912,-3.161,-9.16,-0.625,-3.326,-2.73,4.48,0.63
,-9.442,-0.72,-3.364,-9.246,-1.053,-2.996,-4.13,3.5,0.28
16112.0,-9.344,-1.259,-3.156,-9.079,-1.144,-2.998,-12.67,3.08,0.35
,-9.433,-1.462,-3.151,-9.086,-0.873,-3.553,-11.9,2.8,0.77
,-9.292,-1.469,-2.812,-8.904,-0.916,-3.74,-11.13,2.73,1.68
,-9.139,-1.201,-3.044,-9.009,-0.964,-3.862,-8.96,2.66,2.45
16188.0,-8.995,-1.283,-3.915,-9.66,-0.244,-3.104,-6.16,6.37,4.55
,-8.983,-1.795,-3.206,-9.569,0.431,-3.757,-2.87,8.54,5.32
,-9.299,-1.85,-2.632,-9.112,0.452,-3.881,4.41,10.36,6.16
,-9.809,-1.043,-2.692,-8.978,-0.074,-3.771,12.18,9.8,6.44
16264.0,-8.921,-0.754,-3.757,-9.031,-1.132,-3.513,-12.74,3.43,3.01
,-9.095,-0.972,-3.848,-9.081,-1.823,-2.802,-11.34,2.38,1.89
,-9.11,-0.78,-3.893,-9.402,-2.06,-2.883,-8.68,1.05,0.84
,-8.969,-0.668,-3.769,-9.313,-1.9,-3.029,-7.98,1.12,1.26
16340.0,-9.564,-1.125,-3.36,-8.995,-1.091,-4.47,10.57,6.79,6.44
,-9.179,-0.534,-4.815,-8.971,-1.175,-3.673,11.27,4.9,6.23
,-8.756,-0.507,-4.996,-9.481,-0.706,-2.962,7.98,5.88,7.07
,-8.902,-0.759,-4.726,-9.428,-0.211,-3.448,6.09,8.12,8.75
16416.0,-8.99,-0.39,-3.065,-9.651,-0.897,-2.761,8.05,6.79,4.97
,-9.031,-0.873,-2.379,-9.928,-0.328,-4.149,3.92,10.57,6.93
,-9.253,-1.043,-1.419,-9.206,0.256,-4.92,5.74,14.7,8.47
,-9.457,-1.029,-2.218,-8.739,0.302,-4.774,9.03,13.86,7.21
16492.0,-8.452,-0.045,-3.97,-9.026,-1.512,-3.137,-3.5,10.43,6.65
,-8.741,-0.404,-3.659,-8.94,-1.486,-2.032,-3.43,10.99,4.48
,-8.99,-0.967,-3.678,-9.311,-1.275,-2.359,-2.31,11.06,3.29
,-9.112,-1.318,-3.522,-9.237,-0.782,-3.094,-0.91,12.32,4.2
16568.0,-9.548,-0.189,-3.941,-8.978,-0.313,-4.367,21.77,14.7,3.57
,-9.284,0.256,-4.417,-9.483,-0.438,-4.448,19.53,14.56,4.48
,-8.739,0.433,-4.592,-9.701,-0.392,-4.212,13.58,15.33,6.16
,-8.49,-0.057,-4.302,-8.88,-0.278,-4.233,7.49,16.17,6.51
16644.0,-8.32,-0.524,-3.403,-9.313,-0.771,-4.384,-4.97,15.05,3.78
,-8.78,-1.027,-3.211,-8.76,0.005,-4.456,-7.21,16.38,4.41
,-9.136,-1.618,-3.714,-8.567,0.366,-4.02,-6.51,15.05,3.71
,-9.548,-1.433,-4.001,-8.741,0.141,-3.764,0.28,14.0,3.29
16720.0,-8.94,-0.325,-3.707,-8.911,-0.713,-3.786,0.91,19.25,2.73
,-9.048,-0.878,-3.496,-8.748,-0.316,-4.357,-1.47,19.25,3.29
,-9.009,-1.149,-3.326,-8.882,0.23,-4.707,-2.38,18.83,4.41
,-9.052,-0.962,-3.13,-8.71,0.895,-4.896,-0.35,17.85,5.81
16796.0,-8.763,1.041,-4.537,-8.887,-1.184,-4.307,2.17,14.98,1.47
,-8.933,0.577,-4.482,-8.801,-1.546,-4.446,-5.32,15.96,-0.14
,-9.05,-0.117,-4.322,-8.507,-1.797,-4.657,-11.69,17.64,-0.56
,-9.155,-0.725,-4.149,-8.346,-1.536,-4.877,-15.12,17.85,0.49
16872.0,-8.624,-1.067,-4.448,-8.751,0.993,-4.891,3.36,15.89,4.76
,-8.847,-0.328,-4.523,-8.734,1.158,-4.511,7.07,14.91,4.69
,-8.985,0.299,-4.738,-8.507,1.34,-5.059,6.86,14.98,3.85
,-9.026,0.744,-4.848,-8.622,1.029,-4.764,3.64,14.98,2.66
16948.0,-8.866,1.129,-4.865,-8.839,-1.275,-4.52,-15.26,13.51,-1.96
,-8.811,1.232,-5.142,-8.547,-2.436,-4.398,-12.67,12.39,-4.48
,-8.792,0.869,-5.14,-8.636,-3.326,-4.645,-11.69,12.67,-7.0
,-8.863,0.105,-4.535,-8.684,-3.355,-4.759,-11.76,13.51,-9.1
17024.0,-8.449,-2.85,-5.276,-8.459,0.357,-5.848,18.27,16.17,1.05
,-8.2,-1.773,-5.54,-8.847,0.069,-5.499,27.3,15.75,0.98
,-7.765,-0.593,-5.922,-9.217,-0.507,-5.425,31.36,15.33,0.35
,-8.069,0.225,-6.052,-9.519,-1.022,-5.621,27.65,14.7,0.35
17100.0,-9.43,-1.701,-5.363,-7.329,-1.577,-5.647,4.55,7.84,-0.77
,-8.966,-1.673,-5.456,-8.071,-1.127,-5.681,7.56,6.37,1.68
,-8.093,-1.838,-5.712,-8.933,-0.464,-5.781,10.78,5.04,3.29
,-7.267,-1.586,-6.03,-9.385,0.057,-5.619,15.82,5.88,5.04
17176.0,-9.452,0.821,-5.441,-8.634,-0.041,-5.796,22.05,2.24,8.75
,-8.26,1.876,-6.033,-8.552,-1.235,-5.511,19.53,1.75,7.63
,-8.437,1.809,-5.803,-8.323,-1.417,-5.508,9.31,1.33,5.32
,-8.983,1.043,-5.453,-8.141,-2.041,-5.075,0.28,-0.35,2.73
17252.0,-8.442,-2.419,-4.7,-8.437,1.144,-5.81,8.33,1.26,0.98
,-8.926,-1.323,-4.714,-8.48,0.471,-5.846,16.03,1.61,-2.38
,-8.78,0.117,-4.829,-8.823,-0.998,-5.561,20.51,0.56,-4.2
,-8.969,1.065,-5.209,-9.131,-2.328,-5.145,18.9,-1.89,-2.8
17328.0,-8.334,-2.407,-5.506,-8.339,-1.333,-5.657,0.35,-8.4,-0.7
,-7.806,-3.008,-6.1,-8.78,-0.421,-5.36,14.49,-10.78,2.59
,-8.047,-2.395,-5.92,-9.186,-0.17,-4.824,18.62,-13.65,5.39
,-7.863,-2.57,-5.358,-9.124,0.878,-5.312,20.23,-13.65,7.35
17404.0,-8.954,0.627,-4.771,-8.332,-1.426,-4.051,16.8,-12.95,8.4
,-8.619,0.723,-4.733,-8.698,-1.84,-4.386,12.81,-13.09,8.4
,-8.49,0.345,-4.826,-8.729,-1.338,-3.752,8.26,-13.23,8.89
,-8.437,-0.778,-4.338,-8.543,-1.01,-3.934,3.92,-13.09,9.38
17480.0,-8.473,-0.433,-4.212,-8.72,-0.144,-4.403,20.3,-6.51,7.0
,-8.909,-0.002,-3.979,-8.727,-0.065,-4.302,17.85,-5.25,5.81
,-8.964,0.194,-4.346,-8.66,-0.467,-3.979,14.84,-4.06,5.53
,-8.945,-0.213,-4.314,-8.469,-0.553,-4.109,12.18,-2.45,5.46
17556.0,-8.507,-0.392,-4.357,-8.571,-0.345,-4.621,3.5,3.99,4.9
,-8.83,-0.574,-4.286,-8.507,-0.278,-4.537,2.87,5.39,4.83
,-8.763,-0.727,-4.381,-8.466,-0.354,-4.602,3.01,6.51,4.69
,-8.576,-0.605,-4.58,-8.586,-0.105,-5.138,4.34,7.98,4.41
17632.0,-8.969,-0.282,-5.095,-8.452,-0.51,-4.654,-1.68,11.62,1.12
,-8.875,-0.739,-4.884,-8.763,-0.132,-4.393,-3.5,11.41,1.47
,-8.39,-1.247,-4.882,-8.72,-0.01,-4.642,-2.66,12.11,1.75
,-8.251,-1.096,-4.74,-8.753,-0.187,-4.738,1.61,13.72,1.19
17708.0,-8.902,-0.321,-4.745,-8.957,-0.744,-5.025,0.91,14.14,0.42
,-8.758,-0.694,-4.637,-9.076,-0.414,-5.607,2.31,15.26,-0.49
,-8.555,-0.66,-4.889,-8.914,-0.27,-5.642,3.78,15.82,-0.91
,-8.808,-0.541,-5.181,-8.662,-0.101,-5.597,3.85,16.17,-1.19
17784.0,-8.44,0.038,-5.772,-8.93,-0.268,-5.896,-0.63,12.53,-3.78
,-8.38,0.091,-5.973,-8.847,-0.83,-5.578,-3.29,12.18,-5.11
,-8.634,-0.17,-5.863,-8.528,-0.95,-5.757,-6.65,11.62,-5.95
,-8.863,-0.203,-5.827,-8.543,-1.498,-5.406,-8.68,9.94,-6.58
17860.0,-8.533,-1.711,-5.918,-8.351,-1.467,-5.784,-13.37,2.03,-3.5
,-8.567,-2.278,-5.657,-8.397,-1.211,-6.138,-13.44,1.05,-1.82
,-8.48,-2.335,-5.671,-8.55,-1.065,-5.91,-9.52,0.35,0.0
,-8.334,-1.847,-5.989,-8.686,-0.96,-5.709,-5.67,-1.33,2.03
17936.0,-8.772,-0.62,-5.501,-8.409,0.357,-5.638,-9.38,-5.25,8.05
,-8.679,-0.385,-5.599,-8.605,0.27,-5.827,-6.65,-6.51,6.44
,-8.71,-0.005,-5.645,-8.717,0.194,-5.848,-5.25,-6.86,6.58
,-8.442,0.218,-5.506,-8.753,-0.189,-5.499,-2.94,-7.21,5.81
18012.0,-8.617,-0.349,-5.377,-8.665,-0.117,-5.351,10.15,-9.52,-4.2
,-8.588,-0.168,-5.43,-8.44,-0.397,-4.884,14.28,-10.08,-5.88
,-8.61,-0.199,-5.355,-8.334,-0.306,-5.142,15.82,-11.2,-6.93
,-8.782,0.01,-5.473,-8.437,-0.603,-4.829,15.89,-13.23,-6.51
18088.0,-8.404,-0.787,-4.982,-8.437,-0.699,-4.609,5.11,-14.98,-3.5
,-8.72,-0.991,-4.803,-8.89,-0.632,-4.176,5.74,-14.7,-2.59
,-8.648,-1.027,-4.738,-8.947,-0.565,-4.238,6.86,-13.93,-1.68
,-8.626,-0.955,-4.659,-9.196,-0.005,-4.082,9.59,-12.95,-0.91
18164.0,-8.66,0.048,-4.537,-9.055,-0.366,-4.393,5.39,-15.33,1.89
,-8.454,0.007,-4.475,-9.0,-0.701,-4.051,1.12,-14.84,1.82
,-8.358,-0.12,-4.515,-8.588,-0.56,-4.274,-2.94,-14.84,1.4
,-8.691,-0.136,-4.527,-8.521,-0.754,-4.259,-5.95,-15.47,0.63
18240.0,-8.545,-0.926,-4.161,-8.887,-0.639,-4.566,-0.91,-14.63,-1.82
,-8.942,-0.94,-4.092,-8.612,-0.816,-4.477,1.82,-14.14,-1.82
,-9.086,-0.857,-4.106,-8.801,-0.859,-4.46,3.99,-15.19,-1.89
,-9.229,-0.696,-4.245,-9.012,-0.945,-4.104,3.78,-17.01,-1.47
18316.0,-8.909,-0.732,-4.011,-8.873,-0.613,-4.173,-0.91,-17.29,-0.49
,-8.973,-0.318,-4.164,-8.839,-0.883,-4.046,0.42,-17.36,-0.21
,-8.957,-0.194,-4.441,-8.744,-1.125,-3.958,-1.12,-18.48,0.0
,-8.856,-0.337,-4.523,-8.938,-0.986,-3.905,-3.71,-18.9,-0.28
18392.0,-9.016,-0.73,-3.874,-9.265,-0.495,-3.611,6.02,-17.92,-0.07
,-9.072,-0.579,-3.905,-9.397,-0.402,-3.501,6.65,-17.71,0.42
,-9.256,-0.414,-3.917,-9.141,-0.081,-3.69,5.95,-17.36,0.98
,-9.182,-0.416,-3.833,-9.072,-0.093,-3.69,5.04,-17.64,-0.35
18468.0,-9.069,-0.285,-3.903,-9.012,-1.003,-3.245,-0.77,-18.2,-2.87
,-8.993,-0.469,-4.006,-9.17,-0.962,-2.692,-1.47,-18.34,-3.85
,-8.844,-0.885,-3.814,-9.557,-0.778,-3.049,-1.12,-17.99,-4.97
,-8.94,-0.883,-3.52,-9.421,-0.617,-3.12,2.52,-16.66,-5.46
18544.0,-9.296,-0.701,-3.18,-9.371,-0.756,-2.812,-0.35,-17.01,-3.78
,-8.997,-1.036,-2.936,-9.574,-0.211,-3.068,-1.33,-14.63,-2.66
,-9.012,-1.366,-2.625,-9.428,-0.022,-3.211,1.26,-12.04,-2.38
,-9.141,-1.285,-2.697,-9.249,-0.273,-3.441,5.95,-11.41,-3.22
18620.0,-9.131,-0.67,-2.745,-9.119,-0.488,-2.876,2.66,-11.41,-3.92
,-9.328,-0.771,-3.123,-9.27,-0.919,-2.893,4.13,-10.99,-5.32
,-9.184,-0.658,-2.984,-9.371,-1.247,-2.496,3.92,-11.55,-7.0
,-9.17,-0.505,-2.984,-9.533,-1.132,-2.477,3.43,-11.83,-7.28
18696.0,-9.38,-1.015,-2.213,-9.402,-0.637,-2.493,2.59,-7.77,-6.16
,-9.296,-0.936,-2.051,-9.263,-0.723,-2.441,1.75,-6.3,-5.81
,-9.373,-0.871,-2.486,-9.275,-0.861,-2.137,1.4,-5.39,-5.46
,-9.347,-0.792,-2.575,-9.505,-0.835,-2.393,-0.35,-5.39,-5.6
18772.0,-9.622,-0.663,-2.544,-9.275,-1.187,-2.96,3.08,-0.63,-5.32
,-9.49,-0.586,-2.704,-9.445,-0.907,-2.91,2.17,-0.49,-5.04
,-9.318,-0.864,-2.912,-9.421,-0.708,-2.931,0.84,0.07,-4.9
,-9.225,-1.11,-2.785,-9.447,-0.593,-3.046,2.59,1.68,-4.34
18848.0,-9.261,-0.778,-3.223,-9.146,-0.864,-3.458,0.63,1.75,-4.41
,-9.174,-0.919,-3.149,-9.222,-1.074,-3.386,0.35,2.03,-4.2
,-9.258,-0.897,-3.281,-9.251,-1.357,-3.206,1.75,1.89,-4.06
,-9.28,-0.864,-3.405,-9.397,-1.352,-2.74,2.73,1.33,-4.41
18924.0,-9.533,-1.17,-2.91,-9.196,-1.445,-2.953,4.83,1.75,-3.57
,-9.483,-0.931,-2.761,-9.308,-1.567,-2.785,2.8,1.75,-3.43
,-9.356,-0.89,-2.778,-9.387,-1.414,-2.95,0.0,1.82,-3.08
,-9.318,-1.058,-3.01,-9.383,-1.18,-3.056,-3.01,1.75,-3.08
19000.0,-9.385,-0.907,-3.025,-9.203,-1.29,-3.642,4.13,3.08,-1.05
,-9.342,-0.902,-2.962,-9.174,-1.421,-3.826,2.94,3.22,-0.91
,-9.426,-0.995,-3.19,-8.997,-1.433,-3.465,1.47,2.94,-1.4
,-9.34,-1.146,-3.513,-9.174,-1.261,-3.326,0.0,2.03,-1.89
19076.0,-9.45,-1.082,-3.218,-9.411,-1.287,-2.845,5.53,1.12,-0.07
,-9.529,-0.828,-3.039,-9.368,-1.316,-3.061,3.99,0.7,-0.28
,-9.457,-0.759,-2.869,-9.356,-1.251,-3.324,0.98,0.28,-0.42
,-9.392,-1.024,-2.85,-9.153,-1.117,-3.273,-1.68,0.42,-0.49
19152.0,-9.268,-1.094,-3.357,-9.119,-1.175,-3.475,0.98,0.35,0.14
,-9.318,-1.134,-3.439,-9.208,-1.338,-3.329,0.98,-0.14,-0.07
,-9.404,-1.05,-3.501,-9.335,-1.381,-3.412,1.61,-0.63,-0.07
,-9.294,-0.974,-3.599,-9.371,-1.22,-3.161,0.84,-1.4,-0.28
19228.0,-9.521,-1.022,-3.199,-9.32,-1.278,-2.589,9.31,-1.75,1.12
,-9.414,-0.983,-3.168,-9.452,-1.235,-2.417,8.26,-2.24,0.63
,-9.237,-1.053,-3.022,-9.562,-1.022,-2.357,6.93,-1.82,0.91
,-9.244,-1.149,-2.836,-9.725,-0.766,-2.541,6.02,-1.47,1.12
19304.0,-9.653,-0.617,-2.723,-9.287,-1.146,-3.434,0.56,-0.49,0.56
,-9.505,-0.761,-3.029,-9.39,-1.003,-3.58,-2.52,-0.35,0.42
,-9.296,-1.058,-3.252,-9.263,-0.972,-3.486,-3.78,-0.35,0.07
,-9.232,-1.292,-3.25,-9.337,-1.173,-3.36,-2.17,0.0,0.14
19380.0,-9.284,-1.393,-3.221,-9.342,-1.003,-2.874,4.06,-1.05,0.49
,-9.34,-1.376,-2.996,-9.34,-1.072,-2.802,6.37,-0.91,0.84
,-9.478,-1.177,-3.046,-9.308,-1.206,-2.673,7.7,-0.91,0.84
,-9.478,-1.017,-2.917,-9.375,-1.194,-2.587,7.07,-1.05,0.98
19456.0,-9.519,-1.031,-2.594,-9.196,-1.218,-2.977,5.74,0.7,0.98
,-9.533,-0.893,-2.745,-9.249,-1.314,-3.053,5.18,0.98,0.77
,-9.457,-0.806,-2.955,-9.356,-1.314,-2.857,3.22,0.84,0.49
,-9.347,-1.029,-3.022,-9.423,-1.247,-2.881,0.84,0.84,0.14
19532.0,-9.572,-0.969,-2.924,-9.241,-1.223,-3.297,4.48,1.96,0.91
,-9.619,-1.017,-2.917,-9.225,-1.436,-3.044,2.87,1.54,0.56
,-9.418,-0.957,-3.214,-9.409,-1.366,-2.929,1.26,1.12,0.07
,-9.21,-1.106,-3.209,-9.526,-0.969,-3.029,0.14,1.19,0.21
19608.0,-9.505,-0.938,-2.828,-9.423,-1.326,-2.979,4.34,1.68,0.84
,-9.368,-0.89,-2.895,-9.476,-1.211,-3.116,2.1,1.47,0.56
,-9.308,-1.005,-2.948,-9.387,-1.228,-2.905,0.28,1.47,0.49
,-9.301,-1.225,-2.883,-9.45,-1.129,-3.195,-0.42,1.82,0.42
19684.0,-9.399,-0.914,-3.295,-9.368,-1.201,-2.958,1.68,1.26,0.63
,-9.366,-1.005,-3.118,-9.395,-1.211,-2.912,0.56,1.12,0.56
,-9.407,-1.024,-3.149,-9.392,-1.132,-3.029,0.21,0.98,0.63
,-9.426,-1.07,-3.199,-9.328,-1.12,-3.094,-0.14,0.7,0.42
19760.0,-9.265,-1.055,-3.003,-9.464,-1.163,-2.649,1.61,1.75,0.84
,-9.387,-1.108,-2.8,-9.39,-1.074,-2.812,0.98,2.17,0.98
,-9.397,-1.292,-2.781,-9.39,-0.943,-2.955,1.19,2.45,0.98
,-9.416,-1.28,-2.74,-9.38,-1.017,-2.857,2.38,2.73,1.05
19836.0,-9.38,-1.067,-2.843,-9.301,-1.149,-2.9,-0.7,3.71,1.05
,-9.344,-1.096,-2.761,-9.397,-1.125,-3.075,-0.49,4.06,0.98
,-9.428,-1.129,-2.929,-9.308,-1.223,-2.862,-0.91,3.85,0.84
,-9.385,-1.165,-3.008,-9.234,-1.235,-2.759,-1.4,3.57,0.63
19912.0,-9.313,-1.314,-2.718,-9.411,-1.266,-2.91,-2.38,4.55,1.54
,-9.459,-1.163,-2.883,-9.33,-1.232,-2.927,-1.54,4.48,1.82
,-9.433,-1.007,-3.108,-9.409,-1.041,-2.807,-2.24,4.2,1.61
,-9.378,-0.967,-3.159,-9.349,-0.912,-2.888,-3.85,3.99,1.47
19988.0,-9.265,-0.948,-3.142,-9.387,-1.027,-2.462,-8.05,2.38,1.61
,-9.179,-1.141,-3.08,-9.368,-0.804,-2.728,-8.47,3.22,1.96
,-9.284,-1.182,-2.972,-9.423,-0.732,-2.647,-6.02,4.27,2.31
,-9.44,-1.204,-2.848,-9.572,-0.967,-2.819,-3.92,4.06,2.03
20064.0,-9.529,-1.103,-2.477,-9.124,-0.031,-3.826,-4.41,6.58,2.73
,-9.694,-1.005,-2.345,-8.701,-0.436,-3.967,-3.01,7.35,2.94
,-9.962,-0.67,-2.895,-8.461,-1.472,-3.632,-3.92,4.83,1.33
,-9.751,-0.182,-3.518,-9.095,-2.218,-3.092,-8.82,-0.77,-0.77
20140.0,-8.976,-2.314,-2.505,-9.229,-1.244,-1.9,-8.68,5.95,2.24
,-9.256,-1.524,-2.709,-9.464,-1.23,-1.182,1.75,5.88,2.87
,-9.251,-0.936,-2.793,-9.373,-0.828,-2.158,3.43,5.53,3.5
,-9.007,-0.957,-2.599,-9.064,-0.73,-2.479,-0.49,7.63,5.39
20216.0,-9.349,-0.715,-3.12,-8.794,-2.103,-3.836,-4.48,11.13,5.88
,-8.796,-1.125,-4.063,-8.686,-1.807,-3.446,-5.32,12.04,7.77
,-9.033,-1.799,-3.723,-9.306,-1.287,-2.613,-2.03,14.91,9.87
,-9.153,-2.249,-4.125,-9.141,-0.457,-1.407,3.64,16.03,10.36
20292.0,-10.062,0.696,-1.907,-8.634,-0.017,-4.963,36.54,24.36,11.83
,-9.866,1.378,-3.209,-8.801,-0.794,-4.161,26.88,16.59,7.56
,-9.531,1.455,-4.719,-9.014,-1.307,-4.176,11.83,11.41,4.62
,-8.887,0.869,-5.403,-9.349,-1.421,-3.989,-4.27,11.27,4.69
20368.0,-9.426,-1.531,-3.683,-9.038,-2.402,-2.828,-5.53,14.56,0.63
,-9.194,-1.89,-3.396,-9.328,-1.795,-4.307,-6.79,15.4,3.15
,-8.725,-2.51,-2.213,-9.093,-1.024,-4.738,-5.6,19.53,5.81
,-8.82,-2.63,-2.381,-8.981,-0.096,-4.874,1.68,20.58,7.07
20444.0,-8.906,0.613,-4.578,-8.83,0.17,-4.085,17.78,16.17,11.76
,-9.117,0.615,-4.733,-8.681,-0.603,-3.434,12.67,14.98,8.61
,-9.402,0.304,-4.537,-8.861,-1.208,-3.293,7.98,13.37,5.11
,-9.512,0.529,-4.372,-9.112,-1.491,-3.544,4.83,11.69,3.64
20520.0,-9.263,-1.455,-3.922,-8.614,0.579,-3.97,6.37,14.07,4.2
,-9.433,-1.309,-3.977,-9.184,1.053,-4.281,11.62,14.0,4.27
,-8.961,-0.782,-3.783,-9.445,1.357,-4.539,14.42,15.54,5.32
,-8.55,-0.038,-3.766,-9.56,1.082,-4.314,15.89,17.71,5.53
20596.0,-9.124,0.251,-4.346,-8.55,-2.012,-3.762,-10.99,13.86,0.77
,-8.789,-0.928,-4.015,-8.569,-1.747,-4.025,-15.75,15.4,1.47
,-8.88,-2.012,-3.831,-8.691,-1.366,-4.092,-13.44,14.21,1.89
,-9.028,-2.235,-3.652,-8.847,-0.993,-4.475,-6.79,11.48,1.68
20672.0,-9.074,-0.467,-4.269,-9.206,0.9,-4.831,9.8,18.27,5.95
,-9.028,0.081,-4.623,-9.0,0.864,-5.092,9.38,17.5,5.32
,-9.005,0.593,-4.625,-8.792,0.218,-4.822,6.86,16.52,3.5
,-9.342,0.912,-4.575,-8.808,-0.242,-4.573,1.96,14.77,2.31
20748.0,-8.337,-1.043,-4.238,-8.614,-1.436,-4.719,-9.8,11.48,-1.05
,-8.461,-1.397,-3.565,-8.705,-1.106,-4.999,-6.02,12.46,-1.26
,-8.653,-1.426,-3.589,-8.655,-0.632,-5.329,-2.52,12.39,0.28
,-8.861,-1.735,-3.824,-8.758,-0.55,-5.26,0.21,12.88,2.87
20824.0,-8.923,-0.361,-5.016,-8.701,-1.732,-4.922,8.75,12.53,2.1
,-8.882,-0.464,-5.185,-8.844,-1.938,-4.745,3.5,9.59,4.06
,-8.294,-0.706,-5.3,-8.928,-1.383,-4.867,-2.38,10.57,6.37
,-8.27,-1.098,-5.26,-8.708,-0.376,-5.001,-5.18,12.81,7.7
20900.0,-8.909,0.311,-5.221,-8.437,-0.246,-4.745,14.63,12.11,4.69
,-8.926,0.742,-5.327,-8.641,-0.713,-4.441,14.21,11.06,2.52
,-9.002,0.66,-5.24,-8.732,-0.699,-4.788,12.32,9.03,1.19
,-8.469,0.297,-5.087,-8.464,-0.617,-5.016,9.03,8.61,0.56
20976.0,-8.902,-0.39,-4.867,-8.452,-0.505,-5.147,13.86,6.86,-2.24
,-8.5,-0.33,-4.752,-8.614,-0.708,-5.111,13.93,7.28,-3.15
,-8.839,-0.053,-4.97,-8.346,-0.62,-5.645,12.53,7.98,-3.08
,-8.698,-0.33,-4.848,-8.354,-1.017,-5.054,8.68,8.75,-1.4
21052.0,-8.392,-1.094,-5.073,-8.387,-0.723,-5.171,6.37,6.09,1.96
,-8.732,-0.84,-5.291,-8.555,-0.897,-4.975,8.61,6.02,0.42
,-8.89,-0.718,-4.956,-9.076,-0.342,-5.229,8.61,4.9,0.14
,-8.804,-0.634,-5.126,-8.875,0.079,-5.58,7.07,4.48,0.98
21128.0,-8.811,-0.146,-5.516,-8.153,-1.374,-4.81,-1.47,2.17,3.29
,-8.866,-0.66,-5.418,-8.466,-1.263,-5.027,-5.04,0.91,5.67
,-8.471,-1.381,-4.949,-8.684,-0.629,-5.14,-6.09,0.77,7.28
,-8.088,-1.263,-5.236,-8.772,0.256,-5.724,-1.61,0.49,7.35
21204.0,-8.938,0.646,-5.836,-8.469,-1.809,-5.473,6.93,0.28,-1.89
,-8.99,0.357,-5.745,-8.043,-2.194,-5.233,2.94,0.14,-3.5
,-8.739,0.44,-5.999,-8.071,-2.13,-5.059,-4.34,0.98,-4.69
,-8.976,-0.715,-5.676,-8.559,-1.936,-5.2,-4.83,-2.17,-1.54
21280.0,-8.646,-1.527,-5.104,-8.76,-0.072,-5.319,7.91,-5.74,4.41
,-8.76,-1.103,-5.358,-8.557,0.237,-5.556,8.75,-6.09,4.97
,-9.033,-0.823,-5.142,-8.416,-0.668,-4.841,6.79,-6.51,5.74
,-8.856,-0.208,-5.269,-8.457,-0.842,-4.724,7.49,-7.7,6.09
21356.0,-8.6,-0.869,-4.917,-8.66,0.124,-4.714,8.4,-7.28,8.61
,-8.658,-0.768,-4.8,-8.591,0.665,-4.81,13.02,-7.42,8.05
,-8.76,-0.615,-4.738,-8.536,0.771,-4.477,14.98,-8.12,7.14
,-8.67,0.062,-4.618,-8.911,0.967,-4.417,18.13,-8.54,6.58
21432.0,-9.198,0.261,-4.659,-8.172,-1.338,-4.022,8.96,-7.63,1.68
,-9.055,-0.309,-4.566,-8.411,-1.271,-4.097,7.35,-7.63,1.47
,-8.93,-0.742,-4.331,-8.622,-1.115,-4.429,7.35,-7.42,1.33
,-8.524,-1.065,-4.298,-8.772,-0.4,-4.81,8.26,-7.0,1.68
21508.0,-8.703,-0.148,-4.736,-8.471,-0.412,-4.022,9.31,-3.43,3.57
,-8.772,-0.029,-4.786,-8.856,-0.105,-3.726,6.79,-3.5,3.43
,-8.923,-0.361,-4.625,-9.043,0.034,-3.967,4.69,-3.43,3.43
,-8.638,-0.529,-4.183,-8.691,0.122,-4.231,6.02,-2.52,3.5
21584.0,-8.54,-0.093,-4.429,-8.693,-0.524,-4.898,-0.7,3.71,-0.35
,-8.612,-0.211,-4.46,-8.871,-0.51,-4.965,-1.82,4.48,-0.14
,-8.648,-0.081,-4.578,-8.978,-0.818,-4.915,-3.57,4.76,0.63
,-8.504,-0.263,-4.896,-8.677,-0.995,-4.551,-5.6,5.32,0.84
21660.0,-8.571,-0.584,-4.781,-8.763,-0.541,-4.401,-0.98,8.33,-1.4
,-8.988,-0.526,-4.582,-8.653,-0.34,-4.544,-0.56,9.31,-0.84
,-9.1,-0.577,-4.525,-8.61,-0.211,-4.841,-0.49,10.15,-0.14
,-9.009,-0.672,-4.243,-8.878,-0.081,-5.078,-0.98,10.36,0.14
21736.0,-8.909,-0.263,-5.154,-8.82,-1.022,-5.068,-1.05,9.52,-4.2
,-8.928,-0.68,-5.013,-8.99,-0.964,-5.176,-0.63,9.8,-3.99
,-8.882,-0.823,-5.3,-9.009,-0.663,-5.518,0.84,9.73,-3.64
,-8.739,-1.024,-4.949,-9.048,-0.835,-5.408,1.68,10.08,-4.06
21812.0,-9.064,-0.407,-5.552,-8.849,-0.311,-5.19,3.43,4.83,-6.02
,-8.911,-0.201,-5.693,-8.576,-0.242,-4.645,3.36,3.43,-6.44
,-8.801,-0.127,-5.724,-8.234,-0.065,-4.934,0.63,2.45,-6.86
,-9.007,-0.51,-5.039,-8.081,-0.297,-5.016,-3.01,1.05,-7.0
21888.0,-8.318,-0.526,-4.625,-8.763,-0.876,-4.578,-9.31,-4.34,-5.53
,-8.71,-0.357,-4.661,-8.727,-0.869,-5.319,-8.47,-4.62,-5.67
,-8.844,-0.282,-4.494,-8.698,-1.584,-4.86,-9.8,-5.11,-5.46
,-8.808,-0.34,-4.733,-8.914,-1.919,-5.008,-12.6,-4.9,-4.76
21964.0,-9.033,-1.878,-4.657,-8.734,-0.601,-5.25,-10.01,-6.09,-2.38
,-8.835,-1.443,-4.908,-8.978,-0.79,-5.176,-3.08,-6.72,-2.87
,-8.576,-0.668,-5.322,-9.129,-1.027,-4.834,1.54,-6.72,-3.78
,-8.605,-0.598,-5.219,-8.964,-0.94,-4.963,1.19,-7.28,-3.71
22040.0,-8.636,-0.78,-5.226,-8.854,-0.127,-4.628,-1.75,-9.66,-2.1
,-8.378,-0.593,-5.386,-8.973,-0.136,-4.681,0.56,-9.38,-3.71
,-8.576,-0.361,-4.953,-8.777,-0.287,-5.071,4.13,-9.66,-4.41
,-8.658,-0.043,-5.264,-8.835,-0.73,-4.642,6.51,-9.66,-4.34
22116.0,-8.988,-1.07,-4.389,-8.916,-1.005,-4.508,3.22,-11.62,-6.58
,-8.959,-1.053,-4.628,-8.741,-1.187,-4.482,5.88,-12.11,-6.09
,-8.677,-0.962,-4.738,-9.06,-1.041,-4.037,8.4,-11.48,-5.74
,-8.638,-0.957,-4.853,-8.789,-0.964,-4.575,10.01,-10.5,-5.88
22192.0,-8.557,-0.94,-4.58,-8.995,-1.012,-4.2,4.83,-15.61,0.84
,-8.605,-1.072,-4.446,-9.294,-1.077,-4.073,4.48,-14.7,1.47
,-8.744,-1.139,-4.326,-9.11,-0.79,-4.133,4.83,-14.49,1.47
,-8.961,-1.149,-4.257,-8.507,-0.73,-4.384,4.13,-14.07,1.54
22268.0,-8.399,-0.646,-4.18,-9.139,-0.246,-4.202,1.19,-13.51,5.11
,-8.569,-1.036,-4.037,-8.906,-0.371,-4.245,2.94,-12.46,3.99
,-9.423,-0.859,-3.91,-8.981,-3.183,-4.63,4.9,-12.18,3.64
,-9.445,-0.591,-4.082,-9.421,-0.938,-2.221,8.47,-12.04,3.64
22344.0,-8.729,0.282,-4.429,-9.04,-0.469,-4.137,8.61,-16.87,3.92
,-8.887,-0.105,-3.673,-8.887,-0.72,-4.18,4.13,-17.01,1.61
,-9.139,-0.194,-3.879,-8.93,-0.993,-4.097,1.26,-17.36,0.98
,-9.179,-0.23,-4.006,-9.021,-1.019,-3.965,-0.63,-16.59,1.19
22420.0,-9.191,-0.916,-3.929,-9.014,-0.986,-3.472,6.44,-8.61,1.61
,-9.299,-0.912,-3.654,-9.15,-1.137,-3.293,6.58,-8.33,2.17
,-9.22,-0.849,-3.683,-9.287,-1.062,-3.192,5.67,-9.24,2.45
,-8.961,-0.89,-3.594,-9.088,-0.782,-3.324,4.48,-9.94,3.01
22496.0,-9.103,-0.598,-3.498,-9.012,-0.4,-2.967,3.71,-12.81,4.34
,-9.179,-0.486,-3.534,-9.476,-0.385,-2.994,4.06,-11.48,4.69
,-9.062,-0.345,-3.216,-9.576,-0.218,-3.005,5.11,-9.03,4.69
,-9.033,-0.495,-2.886,-9.538,0.029,-3.281,5.88,-7.0,3.99
22572.0,-9.155,-0.321,-3.46,-9.301,-0.838,-3.106,3.29,-4.55,0.63
,-8.945,-0.727,-3.214,-9.387,-0.861,-3.415,1.75,-3.78,0.63
,-9.052,-0.931,-3.108,-9.229,-0.993,-3.489,2.59,-3.85,0.49
,-8.973,-0.976,-3.037,-9.332,-0.995,-3.496,3.99,-4.76,0.28
22648.0,-9.308,-0.771,-3.362,-9.036,-0.019,-3.716,4.9,-6.23,0.77
,-9.464,-0.467,-3.065,-9.134,-0.615,-3.465,8.4,-5.25,0.49
,-9.481,0.038,-3.309,-9.251,-1.084,-3.786,7.91,-6.65,-0.84
,-9.184,0.354,-3.687,-9.194,-1.498,-3.25,4.06,-8.4,-2.1
22724.0,-9.495,-1.484,-3.228,-9.409,-0.371,-2.816,3.64,-8.19,-3.78
,-9.304,-0.995,-2.967,-9.229,-0.639,-2.766,5.6,-8.82,-3.29
,-9.354,-0.581,-2.625,-9.201,-0.842,-2.936,6.02,-8.4,-2.94
,-9.466,-0.414,-2.86,-9.191,-1.043,-3.333,2.59,-8.75,-3.78
22800.0,-9.165,-1.027,-2.809,-9.557,-0.244,-2.594,0.28,-6.09,-3.22
,-9.421,-0.864,-2.666,-9.32,-0.56,-2.436,5.67,-5.11,-2.24
,-9.569,-0.5,-2.548,-9.244,-1.062,-2.429,8.12,-5.25,-2.66
,-9.679,-0.256,-2.718,-9.217,-1.388,-2.173,6.86,-5.81,-4.27
22876.0,-9.366,-1.196,-2.563,-9.416,-1.034,-2.996,1.4,-1.89,-3.99
,-9.347,-1.132,-2.742,-9.521,-0.704,-3.089,0.84,-2.17,-3.36
,-9.213,-1.084,-2.498,-9.433,-0.373,-2.919,1.89,-0.49,-1.68
,-9.318,-1.153,-2.903,-9.495,-0.342,-3.156,3.29,0.21,-1.05
22952.0,-9.409,-0.366,-3.187,-9.215,-0.706,-3.187,6.16,1.26,-2.17
,-9.383,-0.385,-2.927,-9.167,-0.845,-3.101,5.46,1.19,-3.15
,-9.459,-0.471,-3.427,-9.335,-0.931,-2.886,3.15,0.0,-4.27
,-9.304,-0.627,-3.35,-9.306,-0.936,-2.661,0.42,-0.14,-4.69
23028.0,-9.359,-1.027,-2.467,-9.598,-0.622,-2.79,-1.05,1.4,-3.29
,-9.304,-1.177,-2.422,-9.548,-0.526,-3.197,-1.19,2.1,-2.8
,-9.289,-1.151,-2.161,-9.359,-0.682,-3.494,-0.56,3.01,-2.66
,-9.39,-0.96,-2.352,-9.148,-1.103,-3.74,-0.07,3.43,-2.87
23104.0,-9.076,-1.421,-3.654,-9.691,-0.419,-3.278,-6.65,2.45,-3.01
,-9.117,-1.429,-3.197,-9.536,-0.584,-3.793,-0.98,3.15,-2.66
,-9.407,-1.113,-3.056,-9.131,-0.964,-3.972,3.15,3.36,-2.31
,-9.55,-0.785,-2.912,-8.954,-1.455,-3.984,3.64,2.8,-2.94
23180.0,-9.16,-1.776,-3.865,-9.701,-0.804,-3.022,-1.33,-0.28,-2.1
,-9.253,-1.546,-3.711,-9.727,-1.007,-3.154,7.0,-0.07,-1.12
,-9.385,-1.022,-3.307,-9.404,-0.974,-3.209,11.55,-0.28,-0.35
,-9.55,-0.857,-2.84,-9.105,-0.936,-3.305,11.41,-0.42,0.14
23256.0,-8.813,-1.144,-2.953,-9.567,-0.928,-2.429,1.54,-4.06,-0.77
,-9.139,-1.244,-2.824,-9.497,-1.019,-2.601,3.78,-2.59,-0.49
,-9.552,-1.34,-2.544,-9.287,-1.015,-2.984,4.83,-1.75,-0.35
,-9.598,-1.046,-2.558,-9.191,-0.921,-3.183,5.46,-1.96,0.07
23332.0,-9.158,-0.864,-3.238,-9.588,-0.933,-3.101,6.16,0.63,0.7
,-9.316,-0.883,-3.096,-9.454,-0.931,-3.183,6.51,1.19,0.84
,-9.447,-0.983,-3.044,-9.292,-1.062,-3.178,6.37,1.19,0.7
,-9.505,-0.979,-3.027,-9.241,-1.266,-3.159,6.3,1.05,0.42
23408.0,-9.299,-1.352,-3.094,-9.215,-0.902,-3.068,5.04,1.19,0.84
,-9.536,-1.278,-3.147,-9.196,-1.106,-2.915,6.86,0.98,0.98
,-9.564,-1.048,-3.204,-9.407,-1.256,-2.771,7.0,-0.35,0.77
,-9.383,-0.89,-3.166,-9.529,-1.117,-2.666,6.09,-1.12,0.84
23484.0,-9.567,-0.909,-2.697,-9.273,-1.015,-2.967,8.26,1.54,1.61
,-9.471,-0.696,-2.697,-9.287,-1.027,-3.089,6.86,1.4,1.4
,-9.395,-0.787,-2.821,-9.335,-1.046,-3.068,4.97,1.61,0.91
,-9.361,-0.914,-2.874,-9.335,-1.065,-2.881,3.71,1.89,0.63
23560.0,-9.445,-0.974,-2.934,-9.399,-1.12,-3.192,4.97,3.01,0.77
,-9.49,-1.07,-2.862,-9.306,-1.175,-3.242,3.92,3.15,0.7
,-9.433,-1.089,-2.881,-9.359,-1.242,-3.305,3.43,2.94,0.84
,-9.418,-1.098,-3.113,-9.354,-1.153,-3.221,2.87,2.52,0.77
23636.0,-9.464,-1.046,-3.044,-9.409,-1.022,-3.094,5.18,1.75,1.33
,-9.471,-0.955,-2.991,-9.351,-1.0,-3.192,4.97,1.82,1.33
,-9.433,-0.955,-2.857,-9.344,-1.01,-3.151,3.92,1.68,1.05
,-9.452,-1.012,-2.984,-9.363,-1.0,-3.192,2.87,1.61,0.98
23712.0,-9.304,-1.0,-2.831,-9.45,-1.015,-2.994,1.33,1.12,0.98
,-9.349,-1.072,-2.527,-9.452,-1.041,-2.816,1.33,1.68,1.05
,-9.462,-1.132,-2.565,-9.481,-1.134,-3.005,1.26,1.75,0.91
,-9.538,-1.117,-2.534,-9.619,-1.098,-2.986,0.42,1.75,0.98
23788.0,-9.509,-0.79,-3.19,-9.407,-1.003,-3.037,-4.55,-1.68,-0.98
,-9.229,-0.608,-3.123,-9.517,-0.916,-3.183,-6.58,-2.59,-1.26
,-9.22,-0.756,-3.252,-9.411,-0.775,-3.262,-8.4,-2.17,-1.26
,-9.39,-0.943,-3.037,-9.323,-0.754,-3.269,-7.98,-1.33,-1.26
23864.0,-9.306,-0.814,-3.197,-9.34,-0.988,-2.8,-4.9,0.49,-1.05
,-9.435,-1.077,-2.898,-9.325,-1.01,-2.989,-4.27,1.19,-0.91
,-9.548,-1.163,-3.039,-9.383,-1.383,-2.828,-4.2,0.35,-1.33
,-9.404,-1.082,-2.862,-9.299,-1.397,-2.778,-4.69,-0.42,-1.26
23940.0,-9.308,-1.204,-3.288,-9.124,-0.641,-3.128,0.56,2.31,0.35
,-9.466,-1.194,-3.137,-9.16,-0.73,-3.376,2.1,2.8,0.56
,-9.732,-1.247,-3.068,-9.308,-1.173,-3.271,2.17,1.68,0.28
,-9.6,-0.794,-3.348,-9.318,-1.153,-2.972,0.28,-1.33,-0.07
24016.0,-9.378,-1.058,-3.001,-9.383,-1.055,-2.888,0.7,0.21,0.49
,-9.409,-0.909,-2.991,-9.469,-1.194,-3.022,1.75,0.49,0.21
,-9.39,-0.835,-2.974,-9.5,-1.082,-2.95,1.19,1.26,0.28
,-9.409,-0.962,-2.893,-9.375,-1.041,-3.12,0.35,1.96,0.56
24092.0,-9.258,-1.134,-3.113,-9.423,-1.024,-3.003,0.56,1.82,0.77
,-9.323,-1.273,-2.991,-9.39,-1.062,-2.938,1.19,1.75,1.19
,-9.368,-1.28,-2.953,-9.33,-1.161,-3.113,2.38,1.33,1.33
,-9.442,-1.11,-2.905,-9.483,-1.192,-2.912,3.15,1.19,1.54
24168.0,-9.447,-0.986,-2.84,-9.426,-1.129,-2.575,1.33,0.7,1.61
,-9.541,-0.838,-2.666,-9.366,-1.433,-2.654,0.63,0.0,1.47
,-9.416,-0.696,-2.855,-9.421,-1.385,-2.828,-1.4,-0.91,1.47
,-9.304,-0.802,-2.601,-9.385,-1.151,-2.977,-3.29,0.21,1.96
24244.0,-9.342,-0.878,-3.154,-9.392,-1.103,-2.862,4.41,2.94,3.29
,-9.177,-0.744,-3.333,-9.543,-1.062,-3.084,3.92,3.5,3.57
,-9.189,-0.871,-3.072,-9.653,-0.938,-3.113,3.22,4.69,4.06
,-9.356,-1.017,-2.962,-9.407,-0.814,-3.149,2.87,4.76,4.2
24320.0,-9.15,-0.907,-3.106,-9.074,-0.838,-3.376,0.56,3.5,4.41
,-9.146,-1.101,-2.134,-9.237,-1.237,-2.819,2.03,6.02,5.67
,-9.77,-0.897,-2.795,-9.418,-1.675,-2.357,4.06,3.43,5.11
,-9.261,-0.641,-3.424,-9.464,-1.816,-2.194,1.75,0.14,3.01
24396.0,-9.617,-1.316,-2.446,-8.772,-1.012,-3.039,7.63,4.69,4.41
,-9.763,-0.637,-2.972,-9.155,-1.019,-2.726,8.75,3.15,4.55
,-9.385,-0.337,-3.463,-9.421,-0.639,-3.355,4.48,2.38,5.18
,-8.882,-0.644,-3.25,-9.562,-0.132,-3.716,2.59,5.04,6.79
24472.0,-9.488,0.108,-3.419,-9.586,-1.103,-1.184,16.1,4.62,5.11
,-9.256,-0.249,-2.752,-9.847,-0.924,-1.342,10.29,6.3,4.9
,-8.942,-0.952,-1.551,-9.706,-0.833,-1.469,8.33,10.64,4.2
,-9.471,-1.149,-1.397,-9.318,-0.708,-1.393,9.73,12.46,2.38
24548.0,-8.918,-0.749,-2.572,-8.37,-1.79,-3.671,-8.05,12.95,2.52
,-9.04,-1.194,-2.833,-8.457,-2.13,-2.769,-9.59,14.14,2.66
,-9.392,-1.192,-3.75,-9.06,-2.065,-2.666,-8.4,13.23,3.64
,-8.859,-1.268,-3.769,-9.359,-1.634,-2.745,-4.2,15.19,5.25
24624.0,-9.663,-0.986,-2.769,-9.945,0.701,-3.587,26.81,24.36,5.95
,-9.325,-0.493,-2.919,-9.6,0.665,-4.652,26.46,26.18,6.51
,-9.318,-0.069,-2.412,-9.016,0.376,-4.518,23.45,28.49,6.79
,-9.454,0.275,-2.335,-8.126,-0.172,-4.063,18.55,26.67,5.39
24700.0,-8.074,-0.983,-3.333,-9.342,-0.773,-4.322,-18.13,23.45,3.99
,-8.851,-1.665,-2.871,-8.902,0.297,-4.305,-14.49,25.69,3.29
,-9.557,-1.788,-3.412,-8.863,1.146,-4.379,-6.02,24.92,3.01
,-9.646,-1.486,-3.999,-9.076,1.318,-5.078,2.52,24.08,3.29
24776.0,-9.292,1.12,-5.441,-8.681,-2.309,-4.022,8.68,19.11,-5.95
,-9.28,0.579,-5.401,-8.938,-3.032,-4.07,0.91,18.69,-7.28
,-8.842,-0.402,-4.853,-9.21,-3.137,-4.147,-7.21,22.05,-7.0
,-8.658,-1.431,-4.14,-9.497,-2.711,-4.094,-12.25,25.48,-6.02
24852.0,-9.399,-1.78,-4.355,-8.586,-1.39,-4.621,15.26,17.85,1.12
,-8.748,-0.983,-4.972,-8.82,-1.575,-4.458,11.62,13.72,3.85
,-8.21,-0.725,-5.202,-9.021,-1.692,-4.116,6.44,13.44,5.39
,-8.437,-1.039,-5.023,-8.985,-1.402,-4.379,1.05,14.07,6.02
24928.0,-8.899,-1.251,-4.58,-8.926,0.608,-4.745,3.08,15.47,12.18
,-8.866,-1.012,-4.647,-8.698,1.096,-5.104,7.28,15.19,11.55
,-8.976,-0.4,-4.855,-9.17,1.053,-4.757,11.48,14.49,10.15
,-9.043,0.4,-5.372,-9.268,1.07,-4.695,13.16,13.3,8.33
25004.0,-8.971,0.988,-4.666,-8.952,-2.118,-4.058,-3.22,5.95,0.35
,-8.796,0.591,-4.073,-9.105,-2.644,-3.903,-6.3,7.63,-1.68
,-8.564,-0.017,-4.334,-8.78,-2.149,-4.556,-8.05,7.7,-2.45
,-8.784,-1.077,-3.999,-8.325,-1.718,-4.889,-10.5,8.19,-1.61
25080.0,-8.38,-0.756,-4.925,-8.813,0.261,-5.157,13.23,6.02,6.02
,-8.49,0.246,-5.286,-8.792,-0.495,-4.752,16.31,5.11,3.85
,-8.964,0.536,-4.798,-8.323,-0.893,-4.748,12.04,4.27,2.52
,-8.983,0.79,-5.272,-8.229,-1.06,-4.678,4.06,2.24,2.45
25156.0,-8.65,-0.945,-4.587,-9.064,-0.682,-5.023,-1.19,7.98,-0.77
,-9.103,-0.416,-4.92,-8.997,-0.83,-5.154,5.32,6.51,-2.87
,-9.179,0.089,-5.255,-8.772,-1.295,-4.714,9.59,5.67,-3.22
,-8.985,-0.203,-5.358,-8.737,-1.395,-4.267,8.68,5.18,-2.8
25232.0,-8.358,-1.335,-4.491,-8.763,-0.086,-5.051,16.17,4.34,-1.96
,-8.509,-0.909,-4.937,-8.428,-0.215,-5.207,17.64,5.25,-2.73
,-8.737,-0.627,-4.994,-8.555,-0.352,-4.879,17.57,5.39,-2.66
,-8.911,-0.184,-5.126,-9.196,-0.663,-4.958,16.1,5.46,-2.24
25308.0,-9.225,-1.216,-5.078,-8.014,-1.058,-5.767,5.46,3.01,0.49
,-8.969,-1.845,-4.898,-8.275,-1.163,-5.547,4.76,2.45,1.47
,-8.626,-1.771,-4.915,-8.679,-1.744,-4.896,7.35,1.75,2.59
,-8.143,-1.184,-5.836,-9.206,-1.352,-5.205,13.37,1.12,2.45
25384.0,-9.162,-1.462,-4.726,-9.347,-0.888,-4.726,9.1,0.07,9.94
,-8.665,-1.383,-4.604,-9.028,-0.598,-5.152,10.43,-0.35,10.71
,-8.536,-0.471,-5.25,-8.646,-0.529,-5.173,13.23,-1.05,7.98
,-8.792,-1.024,-4.666,-8.447,-0.567,-4.795,11.06,-0.98,5.88
25460.0,-8.344,-0.787,-4.733,-8.926,-0.814,-4.523,10.5,-3.78,3.64
,-8.502,-1.022,-4.963,-8.772,-0.742,-5.018,9.45,-3.99,2.52
,-9.112,0.383,-5.408,-8.787,-0.976,-4.781,5.25,-0.84,-1.54
,-9.1,-0.567,-4.992,-8.758,-0.421,-4.834,8.33,-3.08,1.26
25536.0,-8.698,-0.723,-4.92,-8.969,-1.096,-4.276,7.49,-7.28,2.8
,-8.514,-1.027,-4.647,-8.83,-0.73,-4.597,7.14,-6.44,3.29
,-8.784,-1.053,-4.336,-8.835,-0.948,-4.336,9.17,-5.6,3.36
,-8.882,-0.895,-4.501,-8.689,-0.857,-4.535,10.08,-6.09,3.57
25612.0,-8.894,-0.668,-4.379,-8.859,-0.117,-4.666,9.66,-5.04,4.41
,-8.727,-0.608,-4.403,-8.875,-0.534,-4.283,9.24,-5.74,4.13
,-8.708,-0.67,-4.223,-8.662,-0.424,-4.602,7.63,-5.6,3.57
,-8.653,-0.29,-4.712,-8.796,-0.976,-4.24,8.47,-5.32,2.66
25688.0,-8.88,-0.742,-4.288,-8.744,-0.68,-4.365,5.6,-2.03,2.17
,-8.887,-0.467,-4.444,-8.842,-0.866,-4.123,6.09,-1.68,1.75
,-8.725,-0.412,-4.379,-8.971,-0.993,-4.054,4.9,-1.47,1.26
,-8.67,-0.428,-4.408,-8.923,-0.881,-4.14,4.13,-1.4,0.84
25764.0,-8.985,-0.73,-4.252,-8.796,-1.043,-4.3,4.41,2.24,0.35
,-9.043,-0.771,-4.204,-8.768,-1.048,-4.267,3.43,1.54,0.14
,-8.758,-0.902,-4.386,-8.646,-1.11,-4.346,3.15,1.19,0.63
,-8.626,-0.94,-4.456,-8.732,-1.043,-4.243,2.87,1.61,1.54
25840.0,-8.638,-0.835,-4.02,-9.031,-0.227,-3.769,5.25,4.62,3.85
,-8.677,-0.354,-3.783,-8.952,-0.136,-3.807,5.81,4.83,3.08
,-8.739,-0.034,-3.996,-8.863,0.079,-3.941,5.39,5.04,1.75
,-8.933,-0.017,-3.922,-8.705,-0.187,-4.02,3.64,5.95,0.56
25916.0,-8.6,-0.316,-3.963,-8.622,-0.759,-4.283,-1.19,8.89,-0.84
,-8.631,-0.397,-4.209,-8.667,-0.548,-4.709,-2.1,9.38,-1.05
,-8.818,-0.591,-4.219,-8.914,-0.359,-4.74,-2.73,10.5,-1.33
,-8.758,-0.586,-4.288,-9.016,-0.211,-4.836,-2.45,11.13,-1.68
25992.0,-8.952,-0.452,-4.956,-8.361,-1.445,-5.037,-1.68,13.3,-3.64
,-8.926,-0.617,-4.934,-8.289,-1.711,-4.953,-3.36,13.65,-3.71
,-8.775,-1.034,-4.791,-8.533,-1.711,-4.999,-5.88,14.21,-2.87
,-8.466,-1.383,-4.817,-8.765,-1.656,-5.142,-6.93,13.79,-2.66
26068.0,-8.782,-1.292,-5.205,-8.794,-1.206,-5.145,-3.08,13.3,-3.92
,-8.856,-0.902,-5.281,-8.466,-1.476,-5.152,-3.01,13.09,-4.97
,-8.72,-1.249,-5.408,-8.531,-1.728,-5.229,-5.6,12.32,-5.18
,-8.933,-1.213,-5.315,-8.806,-2.084,-5.121,-6.86,11.27,-4.9
26144.0,-8.873,-1.704,-5.059,-8.926,-0.302,-5.408,-2.03,9.31,2.24
,-8.832,-1.027,-5.358,-9.153,-0.416,-5.403,1.05,7.98,2.03
,-8.863,-0.785,-5.48,-9.005,-0.632,-5.365,1.96,6.86,1.61
,-8.875,-0.505,-5.489,-8.545,-0.916,-5.293,1.75,6.23,1.68
26220.0,-8.409,-0.998,-5.217,-8.756,-0.572,-5.274,-2.66,1.12,2.1
,-8.399,-0.675,-5.08,-8.681,-0.459,-5.226,-0.63,0.35,3.22
,-8.533,-0.486,-5.293,-8.614,-0.302,-5.477,0.21,-0.56,3.78
,-8.571,-0.464,-5.36,-8.49,-0.538,-5.463,-1.19,-0.98,3.36
26296.0,-8.449,-1.034,-5.262,-8.622,-0.725,-5.396,-16.03,-2.31,6.58
,-8.385,-1.204,-5.224,-8.708,-0.589,-5.099,-13.58,-2.87,5.6
,-8.358,-1.598,-5.027,-8.942,-0.462,-5.004,-9.03,-3.5,5.6
,-8.667,-0.912,-5.133,-8.897,-0.28,-5.109,-3.08,-5.18,6.37
26372.0,-8.725,-0.246,-5.185,-8.746,-0.727,-5.449,0.56,-8.33,3.43
,-8.583,-0.376,-5.427,-8.598,-0.596,-5.348,-1.75,-8.47,3.29
,-8.677,-0.715,-5.25,-8.416,0.069,-5.52,-2.38,-9.38,3.22
,-8.909,-0.849,-5.178,-8.504,0.122,-5.159,0.35,-10.78,2.8
26448.0,-8.65,0.299,-4.867,-8.658,0.012,-4.862,7.0,-9.66,-3.43
,-9.057,0.546,-4.525,-8.734,-0.694,-4.606,5.95,-10.78,-4.48
,-8.978,0.452,-4.712,-8.741,-1.307,-4.611,1.82,-12.74,-4.69
,-8.823,0.359,-4.709,-8.739,-1.527,-4.726,-1.54,-12.46,-4.76
26524.0,-8.77,-1.866,-4.484,-8.559,-1.103,-4.508,7.49,-7.28,-5.67
,-9.0,-1.917,-4.513,-8.588,-0.493,-4.807,10.78,-8.82,-2.8
,-8.631,-1.519,-4.704,-8.638,-0.299,-4.949,14.07,-9.24,0.07
,-8.402,-1.311,-4.987,-8.653,-0.246,-4.855,14.28,-9.38,1.19
26600.0,-8.758,-0.651,-4.688,-8.885,-0.514,-4.212,11.2,-7.28,5.32
,-8.772,-0.199,-4.013,-8.861,-0.708,-4.393,-0.14,-6.09,6.3
,-8.949,-0.546,-4.147,-8.789,-0.919,-4.441,-0.56,-7.28,4.69
,-8.978,-0.342,-4.432,-8.909,-1.201,-4.429,2.52,-8.61,3.43
26676.0,-8.882,-1.254,-4.369,-8.732,-0.414,-4.147,7.35,-11.2,2.94
,-9.045,-1.094,-4.185,-8.571,-0.567,-4.13,9.94,-11.27,3.01
,-9.076,-0.684,-4.159,-8.631,-0.632,-3.881,10.71,-11.83,3.36
,-8.926,-0.517,-4.094,-8.827,-0.737,-3.465,7.21,-12.53,4.06
26752.0,-9.234,-0.625,-3.458,-8.985,0.091,-3.453,-0.63,-11.97,3.92
,-9.488,-0.235,-3.197,-8.875,-0.124,-3.309,0.84,-12.95,3.08
,-9.407,0.165,-3.352,-9.06,-0.158,-3.197,0.84,-13.44,3.15
,-9.244,0.211,-3.345,-9.083,-0.136,-3.386,-1.4,-12.81,3.08
26828.0,-9.074,-0.163,-3.415,-8.88,-0.928,-3.948,-3.64,-9.03,-2.94
,-9.033,-0.201,-3.683,-9.086,-1.017,-3.778,-5.39,-9.52,-3.01
,-8.804,-0.455,-3.948,-9.227,-1.11,-3.623,-7.84,-9.17,-2.66
,-8.818,-0.814,-3.963,-9.055,-1.24,-3.697,-9.03,-8.12,-2.94
26904.0,-8.988,-1.577,-3.819,-9.378,-0.337,-4.367,-6.72,-6.93,0.42
,-9.016,-1.61,-4.015,-9.158,0.11,-4.508,-4.48,-7.14,1.68
,-9.158,-1.323,-4.039,-8.921,-0.117,-4.245,-0.35,-7.14,2.52
,-9.378,-0.794,-4.204,-8.94,-0.349,-4.252,3.15,-7.35,2.52
26980.0,-8.894,-0.476,-4.288,-9.287,-0.093,-3.484,-3.15,-9.52,1.54
,-8.995,-0.526,-4.063,-9.308,-0.29,-3.589,-0.77,-10.15,0.21
,-9.354,-0.321,-4.073,-9.019,-0.553,-3.396,1.68,-10.92,-0.84
,-9.366,-0.146,-3.917,-9.124,-0.479,-3.652,1.33,-11.76,-1.4
27056.0,-8.993,-0.33,-4.207,-9.433,-0.416,-3.424,-5.53,-13.65,-2.38
,-8.964,-0.333,-4.066,-9.296,-0.632,-3.199,-5.32,-13.44,-2.31
,-9.246,-0.103,-3.96,-9.184,-1.161,-2.797,-4.13,-13.02,-2.73
,-9.268,-0.177,-3.678,-9.284,-1.673,-2.302,-5.11,-12.81,-4.76
27132.0,-9.342,-1.744,-1.866,-8.897,0.093,-3.855,-2.59,-7.7,-2.24
,-9.464,-1.247,-1.713,-8.689,-0.711,-4.073,3.99,-6.16,-1.75
,-9.493,-0.373,-2.216,-9.083,-1.196,-3.735,7.21,-6.58,-2.17
,-9.091,0.309,-3.171,-9.256,-1.251,-3.544,3.85,-8.05,-2.31
27208.0,-9.536,-0.486,-3.113,-9.627,-0.194,-3.197,14.07,-4.13,-1.26
,-9.524,0.244,-2.948,-9.162,-0.747,-3.465,12.67,-4.83,-1.4
,-9.622,0.534,-2.666,-9.112,-1.101,-3.384,6.79,-4.97,-1.61
,-9.61,0.27,-2.898,-9.067,-1.153,-3.381,-1.33,-5.39,-2.87
27284.0,-9.359,-0.912,-3.8,-9.304,-0.735,-2.948,3.71,-5.46,-4.48
,-9.313,-0.488,-3.527,-9.284,-0.893,-2.584,6.09,-5.18,-3.85
,-9.225,-0.378,-3.475,-9.232,-0.96,-2.084,4.55,-5.32,-3.29
,-9.213,-0.44,-3.204,-9.557,-0.773,-2.163,3.43,-5.25,-3.43
27360.0,-9.667,-0.436,-2.29,-9.15,-1.07,-2.747,7.7,-2.24,-3.57
,-9.658,-0.079,-2.632,-9.435,-1.204,-2.548,6.51,-2.17,-3.64
,-9.347,-0.129,-3.209,-9.459,-0.83,-2.462,1.82,-2.38,-4.06
,-9.117,-0.701,-2.938,-9.569,-0.292,-2.747,-0.56,-0.91,-3.78
27436.0,-9.368,-0.239,-2.814,-9.548,-0.883,-3.4,6.3,2.17,-3.29
,-9.117,-0.514,-2.761,-9.313,-0.926,-3.393,4.41,3.36,-3.15
,-9.184,-0.778,-2.726,-9.308,-1.024,-3.735,4.83,4.34,-2.66
,-9.428,-0.976,-2.905,-9.265,-1.091,-3.838,6.16,4.55,-2.87
27512.0,-9.289,-0.916,-3.659,-9.416,-0.802,-3.726,7.7,3.36,-2.31
,-9.373,-0.802,-3.726,-9.277,-0.775,-3.75,7.63,2.66,-1.96
,-9.273,-0.759,-3.685,-9.136,-0.943,-3.436,6.51,2.31,-1.89
,-9.387,-0.842,-3.491,-9.174,-1.015,-3.039,6.51,1.96,-1.82
27588.0,-9.289,-1.041,-2.991,-9.361,-1.189,-2.924,10.99,0.98,-1.26
,-9.383,-0.907,-2.9,-9.45,-1.244,-3.262,10.85,0.84,-1.68
,-9.356,-0.711,-2.697,-9.395,-1.187,-3.295,8.54,0.84,-1.47
,-9.395,-0.861,-2.769,-9.251,-0.873,-3.618,4.62,0.84,-1.61
27664.0,-9.141,-0.794,-3.441,-9.588,-0.878,-2.962,7.0,1.05,-0.49
,-9.16,-0.797,-3.063,-9.49,-0.833,-3.185,7.07,1.82,-0.14
,-9.344,-0.952,-2.836,-9.196,-1.07,-3.396,6.23,2.24,-0.07
,-9.545,-1.012,-2.814,-9.079,-1.251,-3.599,5.46,2.1,-0.35
27740.0,-9.1,-1.261,-3.542,-9.265,-0.771,-3.051,4.34,1.05,-0.07
,-9.229,-1.11,-3.489,-9.344,-0.842,-3.137,6.72,1.26,0.21
,-9.433,-0.799,-3.388,-9.323,-1.079,-3.266,7.56,0.91,0.28
,-9.43,-0.641,-3.515,-9.287,-0.933,-3.417,5.67,0.07,-0.07
27816.0,-9.323,-0.964,-3.312,-9.392,-0.945,-2.979,4.62,-0.42,-0.21
,-9.373,-0.986,-3.393,-9.5,-0.979,-2.948,4.76,-0.42,-0.21
,-9.237,-1.01,-3.271,-9.507,-0.909,-3.235,4.97,-0.35,0.0
,-9.313,-1.015,-3.015,-9.273,-0.905,-3.338,5.53,-0.21,0.21
27892.0,-9.158,-1.024,-3.36,-9.588,-1.029,-2.759,1.75,-0.56,-0.49
,-9.131,-1.199,-2.974,-9.531,-0.926,-2.922,2.45,0.0,0.14
,-9.282,-1.29,-2.857,-9.454,-0.821,-3.068,4.83,0.84,0.49
,-9.495,-1.206,-2.953,-9.402,-0.816,-3.25,7.14,1.19,0.77
27968.0,-9.385,-0.9,-3.372,-9.435,-1.036,-2.967,2.59,0.84,0.28
,-9.34,-0.986,-3.281,-9.495,-0.792,-3.269,2.31,1.19,0.42
,-9.359,-1.039,-3.266,-9.38,-0.713,-3.195,2.66,1.47,0.56
,-9.347,-1.144,-3.013,-9.311,-0.816,-3.293,2.87,1.82,0.7
28044.0,-9.227,-1.007,-3.391,-9.392,-0.909,-3.233,0.49,0.56,-0.07
,-9.21,-1.084,-3.376,-9.385,-0.888,-3.19,1.75,0.77,0.14
,-9.306,-1.022,-3.333,-9.34,-0.991,-3.116,3.01,0.91,0.21
,-9.407,-1.01,-3.221,-9.261,-1.146,-2.962,3.22,0.63,0.35
28120.0,-9.292,-1.254,-2.886,-9.337,-0.83,-3.206,2.66,1.05,0.42
,-9.387,-1.182,-2.718,-9.251,-0.991,-3.309,3.92,1.54,0.7
,-9.474,-0.955,-2.97,-9.222,-1.113,-3.283,4.48,1.47,0.7
,-9.538,-0.828,-3.216,-9.359,-1.192,-3.25,3.08,0.91,0.35
28196.0,-9.407,-1.039,-3.082,-9.311,-1.015,-3.147,3.36,1.26,0.7
,-9.378,-0.756,-3.23,-9.354,-1.031,-3.087,3.57,0.7,0.63
,-9.354,-0.797,-3.128,-9.363,-1.015,-3.123,1.75,0.7,0.42
,-9.325,-0.964,-3.209,-9.344,-0.964,-2.893,1.19,0.84,0.35
28272.0,-9.378,-1.022,-2.982,-9.253,-1.034,-3.209,1.05,1.26,0.42
,-9.385,-1.019,-2.819,-9.191,-0.986,-3.386,0.7,1.54,0.56
,-9.459,-1.11,-3.01,-9.241,-1.027,-3.41,0.91,1.47,0.56
,-9.402,-1.065,-3.202,-9.335,-1.108,-3.13,1.19,1.4,0.56
28348.0,-9.45,-1.031,-3.175,-9.32,-1.06,-3.049,4.55,1.61,1.33
,-9.418,-0.852,-3.338,-9.354,-1.192,-3.003,4.13,1.05,1.05
,-9.332,-0.782,-3.269,-9.474,-1.098,-2.97,3.08,0.91,0.91
,-9.301,-0.845,-3.161,-9.49,-0.986,-2.845,1.61,0.98,0.77
28424.0,-9.524,-0.79,-3.07,-9.277,-1.039,-3.888,4.76,1.96,1.12
,-9.447,-0.586,-3.501,-9.273,-1.101,-3.826,3.5,1.26,0.63
,-9.308,-0.742,-3.518,-9.299,-0.972,-3.568,1.26,0.7,0.35
,-9.246,-0.866,-3.704,-9.45,-0.864,-3.64,0.77,0.49,0.21
28500.0,-9.476,-0.73,-3.41,-9.363,-1.175,-2.797,4.27,-1.82,-0.28
,-9.337,-0.816,-3.391,-9.43,-1.017,-2.958,3.15,-2.24,-0.63
,-9.277,-0.95,-3.262,-9.55,-0.921,-2.812,2.03,-2.45,-0.63
,-9.282,-1.168,-3.046,-9.469,-0.854,-2.757,2.31,-2.31,-0.56
28576.0,-9.383,-0.931,-2.714,-9.385,-1.017,-2.977,3.01,-1.12,-0.84
,-9.332,-0.993,-2.692,-9.318,-1.079,-2.85,2.73,-0.63,-0.91
,-9.407,-0.943,-2.907,-9.359,-1.137,-2.974,2.73,-0.63,-0.91
,-9.397,-1.029,-2.965,-9.32,-0.967,-2.749,2.03,-0.63,-0.84
28652.0,-9.318,-1.108,-2.123,-9.33,-1.046,-2.587,1.05,1.33,-0.56
,-9.567,-1.122,-2.663,-9.158,-0.926,-2.647,-0.49,0.56,-1.12
,-9.596,-0.964,-2.809,-9.32,-0.995,-2.706,-2.1,0.07,-1.33
,-9.622,-1.067,-2.855,-9.452,-1.062,-2.845,-5.11,-0.98,-1.82
28728.0,-9.378,-1.115,-2.726,-9.191,-0.972,-3.204,-9.1,0.0,-0.84
,-9.335,-0.981,-2.97,-9.206,-1.158,-3.058,-7.91,0.42,-0.7
,-9.237,-1.11,-3.065,-9.306,-1.12,-3.008,-7.7,0.98,-0.56
,-9.256,-1.106,-3.082,-9.483,-1.158,-3.092,-5.53,2.24,-0.28
28804.0,-9.488,-1.278,-2.979,-9.591,-0.871,-1.823,-3.15,4.06,0.63
,-9.325,-1.342,-2.556,-9.438,-0.603,-1.931,-4.27,3.43,0.84
,-9.227,-1.211,-2.314,-9.469,-0.352,-2.424,-4.97,3.36,1.19
,-9.385,-1.137,-1.895,-9.361,-0.455,-2.888,-5.67,3.99,1.68
28880.0,-9.15,-0.811,-3.003,-10.067,-0.682,-2.245,-13.86,6.93,1.75
,-9.196,-1.062,-2.726,-9.325,-0.522,-3.216,-13.58,9.45,2.45
,-9.131,-1.165,-2.697,-8.875,-0.921,-3.68,-12.53,11.34,2.45
,-9.127,-1.039,-1.819,-8.643,-1.689,-3.881,-10.71,14.42,2.52
28956.0,-8.861,-2.297,-3.07,-9.036,-0.304,-4.013,-13.44,15.12,7.07
,-9.201,-2.201,-2.881,-9.083,-0.601,-3.666,-1.68,17.08,7.49
,-9.368,-1.46,-3.089,-9.17,-1.089,-2.094,10.85,16.03,5.53
,-9.34,-0.701,-3.69,-9.691,-1.074,-2.864,16.24,13.51,3.29
29032.0,-9.459,-0.771,-2.737,-9.167,-0.924,-4.429,0.28,14.7,2.8
,-9.679,-0.541,-3.589,-9.299,-0.993,-4.477,-3.22,10.78,2.1
,-8.717,-0.579,-3.783,-9.043,-0.924,-4.838,-8.82,10.78,3.36
,-9.119,-0.737,-3.877,-8.792,-0.849,-3.991,-10.92,12.04,5.81
29108.0,-8.873,-0.84,-4.113,-9.383,-1.335,-3.8,4.76,13.16,5.04
,-9.045,-1.271,-3.676,-9.167,-1.07,-3.41,5.88,12.18,4.13
,-9.318,-1.579,-3.888,-8.985,-0.732,-2.802,8.75,11.41,4.41
,-9.476,-1.517,-3.869,-9.32,-0.285,-3.4,11.97,11.2,5.32
29184.0,-9.294,0.129,-3.967,-9.031,-0.112,-4.585,8.05,8.26,4.27
,-9.474,0.694,-4.264,-9.007,-0.938,-4.381,4.48,6.72,5.25
,-9.012,0.572,-4.724,-8.887,-1.548,-3.738,-2.03,6.79,5.88
,-9.009,0.325,-4.444,-8.854,-1.833,-2.907,-6.23,7.84,4.83
29260.0,-9.021,-1.589,-2.501,-9.404,0.639,-3.893,16.31,17.57,0.56
,-9.318,-1.225,-2.654,-8.899,0.5,-4.109,24.43,17.08,0.77
,-9.634,-0.514,-2.984,-8.516,0.036,-4.18,27.93,14.7,1.05
,-9.758,0.211,-3.673,-8.588,-0.486,-4.568,24.64,12.53,1.33
29336.0,-8.885,-1.029,-4.767,-8.933,-1.685,-3.817,-4.69,8.47,-0.35
,-9.155,-1.369,-4.535,-8.995,-1.704,-4.197,-3.57,9.45,-0.63
,-9.15,-1.586,-4.073,-9.06,-1.618,-4.353,-0.98,11.76,-0.35
,-8.921,-1.668,-3.805,-8.851,-1.295,-4.18,3.36,14.0,0.63
29412.0,-8.741,-0.646,-3.661,-9.093,0.237,-4.453,15.4,15.89,4.48
,-8.856,0.084,-3.699,-8.99,-0.567,-4.066,16.87,15.96,3.22
,-8.993,0.651,-4.161,-8.832,-1.352,-3.616,14.63,14.0,1.4
,-9.184,0.742,-4.434,-8.832,-1.747,-3.379,8.96,12.6,1.26
29488.0,-8.997,-1.443,-3.314,-9.366,0.184,-4.324,9.24,17.92,-0.77
,-9.043,-0.775,-3.625,-9.014,0.084,-4.482,16.38,17.15,-2.31
,-9.079,-0.347,-3.821,-8.626,0.074,-4.611,17.08,16.87,-2.1
,-9.351,0.127,-4.066,-8.502,0.091,-4.515,14.0,16.52,-0.7
29564.0,-8.581,0.043,-4.585,-8.782,-2.075,-4.054,-3.43,14.98,-4.55
,-8.88,-0.371,-4.48,-8.614,-2.201,-4.171,-6.23,15.05,-5.11
,-8.997,-0.916,-4.369,-8.531,-1.972,-4.252,-7.98,15.47,-4.55
,-8.93,-1.45,-4.415,-8.492,-1.505,-4.527,-8.47,15.54,-3.85
29640.0,-8.667,-0.976,-4.654,-8.619,-0.555,-5.039,9.24,14.07,1.61
,-8.614,-0.507,-4.905,-8.856,-1.199,-4.556,7.63,12.81,3.01
,-8.452,-0.258,-5.044,-8.787,-1.51,-4.745,3.5,13.02,4.27
,-8.583,-0.354,-5.032,-8.782,-2.123,-4.417,-1.4,13.65,4.83
29716.0,-8.502,-2.242,-4.841,-8.863,-0.61,-4.556,-7.84,11.9,9.52
,-8.5,-2.608,-4.764,-8.854,0.503,-4.726,-2.52,13.65,10.78
,-8.66,-2.118,-4.87,-8.581,1.201,-5.023,6.02,14.35,10.92
,-8.842,-1.359,-4.867,-8.267,1.409,-4.874,13.3,13.93,10.08
29791.0,-8.232,1.086,-5.138,-9.052,-0.933,-5.41,0.07,13.93,4.55
,-8.457,0.514,-5.229,-8.703,-1.376,-5.286,-3.85,14.21,2.31
,-8.935,0.096,-5.272,-9.055,-1.421,-5.415,-2.73,13.72,0.07
,-9.361,-0.325,-5.221,-8.789,-1.464,-5.487,0.91,12.81,-1.82
29866.0,-8.744,-1.448,-5.205,-7.674,-1.505,-5.346,17.15,9.59,-4.97
,-8.27,-1.352,-5.377,-8.562,-1.11,-5.274,15.05,7.49,-3.22
,-7.504,-1.388,-5.686,-9.191,-0.663,-5.367,11.62,7.49,-0.42
,-7.487,-1.642,-5.331,-9.105,-0.084,-5.702,8.68,8.54,2.52
29941.0,-8.894,-0.124,-5.568,-7.99,-1.232,-5.173,1.12,8.75,2.03
,-8.777,-0.519,-5.573,-7.882,-1.103,-5.138,-0.91,10.78,0.0
,-8.954,-0.976,-5.504,-7.849,-1.421,-5.001,-0.07,11.62,-1.19
,-8.758,-1.151,-5.53,-8.04,-1.204,-5.176,3.78,12.53,-0.07
30016.0,-8.5,-0.974,-5.212,-8.423,-1.725,-5.286,3.99,1.4,7.35
,-9.048,-0.644,-5.391,-8.351,-1.689,-5.288,1.33,-2.38,7.63
,-9.067,-0.715,-5.497,-8.425,-1.594,-5.267,-3.92,-4.41,8.26
,-8.631,-0.926,-5.657,-8.421,-0.852,-5.049,-8.19,-3.22,9.1
30091.0,-8.399,-0.342,-5.645,-8.464,-0.124,-5.803,8.26,-2.1,7.77
,-8.624,-0.196,-5.566,-8.598,-0.349,-5.54,8.82,-3.08,7.84
,-8.787,-0.536,-5.31,-8.399,-0.902,-4.843,7.42,-3.92,8.05
,-8.495,-0.323,-5.729,-8.5,-0.486,-4.649,8.89,-4.76,7.63
30166.0,-8.737,-0.421,-5.114,-8.366,-0.026,-5.456,11.41,-4.62,4.69
,-8.507,0.347,-5.214,-8.83,-0.227,-4.932,8.61,-3.92,0.42
,-8.562,0.057,-5.53,-8.945,-0.378,-4.647,11.76,-5.04,1.19
,-8.244,-0.261,-5.027,-8.737,-0.818,-4.482,11.41,-5.6,2.31
30241.0,-8.595,-0.907,-4.886,-8.516,-0.455,-5.085,12.39,-5.18,2.87
,-8.626,-0.785,-4.901,-8.516,-0.773,-4.939,13.72,-4.62,1.68
,-8.787,-0.706,-4.637,-8.413,-0.491,-5.205,14.98,-3.92,0.56
,-8.72,-0.529,-4.905,-8.466,-0.378,-4.956,14.56,-2.94,1.61
30316.0,-8.555,-0.352,-4.987,-8.686,-0.414,-5.315,7.07,-1.96,4.41
,-8.684,-0.625,-4.891,-8.942,-0.804,-4.807,5.88,-1.75,2.59
,-8.684,-0.546,-4.963,-8.531,-1.043,-5.004,6.86,-1.19,1.33
,-8.72,-0.641,-5.083,-8.346,-0.785,-4.975,7.56,-0.35,0.63
30391.0,-8.332,-0.718,-5.025,-8.323,-0.933,-4.695,5.25,0.91,1.61
,-8.641,-0.912,-4.953,-8.239,-0.876,-4.903,4.55,1.54,1.47
,-8.775,-1.074,-4.862,-8.294,-0.682,-4.862,4.48,1.19,1.68
,-8.569,-0.976,-4.669,-8.306,-0.244,-4.891,4.2,1.12,2.1
30466.0,-8.677,0.237,-5.121,-8.588,-0.457,-4.506,2.87,2.38,-0.35
,-9.06,0.249,-5.207,-8.327,-0.546,-4.176,1.75,2.66,-1.75
,-9.127,0.096,-5.145,-8.21,-0.309,-4.566,1.19,3.22,-2.87
,-8.988,-0.089,-4.87,-8.366,-0.56,-4.556,0.49,3.99,-3.5
30541.0,-8.512,-0.402,-4.575,-8.928,-0.519,-5.229,-5.74,4.2,-3.01
,-8.435,-0.376,-4.949,-8.904,-1.113,-5.252,-6.09,3.85,-3.64
,-8.617,-0.318,-5.408,-8.612,-1.546,-4.654,-5.25,4.62,-4.69
,-8.801,-0.464,-5.329,-8.437,-1.823,-4.331,-3.85,6.02,-6.02
30616.0,-8.394,-1.517,-4.374,-8.784,-1.022,-5.398,-2.31,8.68,-4.48
,-8.334,-1.108,-5.099,-8.801,-1.383,-5.092,-2.38,7.84,-3.92
,-8.33,-0.625,-5.444,-8.76,-1.634,-5.083,-3.22,7.21,-4.34
,-8.526,-0.773,-5.446,-8.701,-1.61,-4.975,-5.25,6.86,-4.62
30691.0,-8.37,-1.445,-5.461,-8.409,-1.474,-5.365,-4.48,5.04,-1.33
,-8.445,-1.249,-5.719,-8.358,-1.4,-5.09,0.21,4.13,-1.61
,-8.765,-1.149,-6.121,-8.72,-1.201,-4.982,3.99,3.08,-1.54
,-8.71,-1.299,-5.867,-8.787,-0.988,-5.19,3.36,2.31,-1.33
30766.0,-8.945,-0.9,-5.422,-8.093,-0.878,-5.446,5.95,1.26,1.26
,-8.772,-1.01,-5.183,-8.564,-1.048,-5.303,3.85,0.56,1.68
,-8.397,-0.909,-5.102,-9.012,-1.055,-5.709,0.63,-0.35,2.45
,-8.078,-0.725,-5.207,-9.038,-1.003,-5.724,-1.4,-0.14,3.92
30841.0,-8.643,-0.957,-5.575,-8.447,-0.821,-5.02,-0.56,-2.66,4.41
,-8.342,-0.782,-5.554,-8.792,-0.668,-5.044,0.91,-2.59,4.34
,-8.15,-0.725,-5.458,-8.729,-0.385,-5.255,1.96,-2.24,3.85
,-8.174,-0.567,-5.604,-8.614,-0.148,-5.595,3.78,-2.03,2.8
30916.0,-8.406,-0.203,-5.477,-8.653,-0.756,-5.468,-3.01,-7.63,3.01
,-8.504,-0.168,-5.678,-8.591,-0.991,-5.202,-2.31,-7.91,2.03
,-8.569,-0.227,-6.013,-8.701,-1.01,-5.135,-2.03,-8.26,0.49
,-8.698,-0.622,-5.477,-8.751,-0.933,-4.898,-0.56,-8.26,-0.84
30991.0,-8.763,-0.507,-4.958,-8.375,-0.881,-5.197,14.14,-7.98,-3.85
,-8.595,-0.452,-5.126,-8.399,-1.223,-4.951,13.23,-10.08,-2.87
,-8.727,-0.72,-4.793,-8.392,-1.39,-4.817,8.19,-13.3,-1.82
,-8.658,-0.512,-5.272,-8.655,-1.45,-4.678,4.13,-16.94,-0.42
31066.0,-8.854,-1.476,-4.853,-8.705,-0.859,-4.427,9.03,-15.19,3.57
,-8.811,-0.651,-4.889,-8.827,-0.749,-4.444,10.29,-15.19,4.83
,-8.583,-0.677,-5.195,-8.825,-0.225,-4.793,9.17,-14.49,4.69
,-8.476,-0.723,-4.762,-8.665,-0.378,-4.716,8.54,-12.25,5.11
31141.0,-8.89,-0.538,-4.669,-8.82,-0.747,-4.384,6.44,-14.42,6.16
,-8.741,-0.684,-4.494,-8.911,-0.84,-4.171,5.04,-14.07,5.46
,-8.818,-0.78,-4.35,-8.899,-0.723,-4.314,5.46,-13.51,5.04
,-8.784,-0.799,-4.343,-8.746,-0.629,-4.271,6.3,-13.3,4.97
31216.0,-8.952,-0.548,-4.058,-8.787,-0.447,-4.094,4.83,-15.68,3.92
,-8.82,-0.464,-4.118,-8.894,-0.766,-3.963,2.94,-16.17,3.43
,-8.978,-0.323,-4.128,-8.964,-0.771,-3.714,1.19,-16.87,3.78
,-8.973,-0.311,-4.257,-9.196,-0.488,-3.685,-1.19,-17.78,4.27
31291.0,-9.234,-0.211,-3.898,-8.646,-0.213,-3.979,1.26,-18.13,1.12
,-9.363,-0.122,-4.101,-8.72,-0.148,-3.903,-0.91,-18.55,1.33
,-9.122,-0.175,-4.156,-9.136,0.029,-3.795,-3.92,-17.36,2.1
,-8.698,-0.196,-4.212,-9.246,-0.06,-3.922,-5.04,-16.1,1.4
31366.0,-9.136,-0.357,-4.094,-8.921,-0.565,-4.039,-9.66,-17.71,-2.52
,-9.103,-0.885,-4.101,-8.897,-0.242,-3.891,-10.29,-16.66,-2.17
,-8.921,-1.156,-4.087,-9.062,-0.412,-3.762,-7.28,-15.75,-2.8
,-8.851,-1.036,-3.867,-8.993,-1.034,-3.46,-2.45,-15.4,-3.78
31441.0,-9.064,-1.484,-3.429,-9.265,-0.579,-3.173,-5.46,-13.58,-1.4
,-9.06,-1.653,-3.331,-9.16,-0.579,-3.034,-1.4,-13.79,-0.7
,-9.189,-1.383,-3.147,-8.942,-0.735,-2.843,3.78,-13.79,-0.42
,-9.404,-0.9,-3.099,-9.052,-0.632,-2.606,6.93,-13.58,-0.14
31516.0,-9.263,-0.383,-2.855,-8.985,-0.498,-3.458,3.78,-9.94,0.21
,-9.335,0.108,-3.36,-9.098,-0.617,-3.221,3.99,-10.85,-1.26
,-9.227,0.144,-3.479,-9.22,-0.553,-2.704,1.61,-10.85,-2.03
,-9.083,-0.01,-3.934,-9.596,-0.357,-2.599,-0.98,-10.64,-2.38
31591.0,-9.756,-0.333,-2.678,-9.067,-1.369,-3.139,-3.64,-8.89,-6.65
,-9.39,-0.694,-2.831,-9.215,-0.766,-3.544,-9.24,-7.98,-5.88
,-9.184,-1.082,-3.372,-9.11,-0.407,-3.309,-11.97,-7.42,-5.39
,-8.93,-1.529,-3.13,-9.337,-0.572,-3.297,-9.52,-5.67,-4.97
31666.0,-9.141,-1.007,-3.075,-9.665,-0.45,-2.197,1.05,-3.92,-2.45
,-9.217,-1.242,-2.57,-9.61,-0.495,-2.19,3.92,-2.45,-2.31
,-9.438,-1.029,-2.381,-9.505,-0.809,-2.374,6.79,-2.03,-2.03
,-9.584,-0.67,-2.383,-9.347,-0.89,-2.659,7.56,-1.68,-1.89
31741.0,-9.174,-0.797,-3.132,-9.182,-0.778,-3.171,-0.49,1.4,-2.45
,-9.105,-0.838,-3.283,-9.186,-0.787,-2.967,1.05,2.24,-2.1
,-9.206,-0.816,-3.482,-9.318,-0.811,-2.917,2.17,2.45,-1.89
,-9.17,-0.763,-3.508,-9.306,-0.713,-3.051,2.8,2.38,-1.96
31816.0,-9.289,-0.725,-3.02,-9.387,-0.885,-2.927,1.75,3.29,-2.73
,-9.407,-0.933,-3.254,-9.33,-0.785,-2.996,0.7,3.36,-2.52
,-9.347,-1.024,-3.044,-9.39,-0.57,-3.166,1.05,3.85,-2.17
,-9.495,-1.015,-3.128,-9.457,-0.256,-4.092,2.1,4.06,-1.82
31891.0,-9.158,-0.105,-4.834,-9.191,-1.579,-4.116,-3.01,0.14,-3.85
,-8.839,-0.369,-5.025,-9.368,-1.333,-3.702,-4.97,-0.7,-3.57
,-8.89,-1.046,-5.047,-9.488,-1.079,-3.695,-4.13,-1.33,-3.5
,-9.038,-1.582,-4.616,-9.325,-1.058,-3.687,0.7,-1.82,-3.78
31966.0,-9.131,-1.113,-3.577,-9.366,-0.668,-2.84,6.02,-5.67,-1.68
,-9.019,-1.158,-3.465,-9.404,-0.512,-2.864,6.3,-5.25,-0.98
,-9.119,-1.137,-3.113,-9.342,-0.627,-2.718,8.05,-4.97,-0.63
,-9.323,-0.933,-3.111,-9.234,-0.814,-2.489,9.52,-5.18,-0.63
32041.0,-9.335,-0.797,-2.627,-9.44,-1.457,-1.761,3.15,-3.29,-1.05
,-9.445,-0.802,-2.747,-9.677,-1.378,-2.139,2.52,-3.15,-1.26
,-9.325,-0.972,-2.422,-9.572,-1.139,-2.209,2.38,-2.1,-0.77
,-9.414,-1.218,-2.245,-9.462,-0.933,-2.402,2.24,-0.63,-0.35
32116.0,-9.38,-0.845,-2.922,-9.471,-0.785,-3.707,2.03,4.06,0.7
,-9.225,-1.012,-3.01,-9.263,-0.692,-3.845,1.4,4.62,0.7
,-9.304,-1.11,-3.058,-9.103,-0.84,-3.936,2.59,5.32,1.12
,-9.471,-0.962,-3.4,-9.148,-0.955,-4.116,3.99,4.9,0.91
32191.0,-9.208,-1.0,-3.896,-9.409,-1.144,-3.362,3.43,1.96,0.56
,-9.375,-0.914,-4.008,-9.507,-1.017,-3.556,3.43,0.91,0.42
,-9.289,-1.022,-3.781,-9.313,-0.79,-3.62,1.89,0.14,0.49
,-9.323,-1.113,-3.534,-9.229,-0.943,-3.388,1.89,0.0,0.77
32266.0,-9.17,-1.141,-3.142,-9.545,-0.775,-2.685,3.99,-1.19,1.26
,-9.299,-1.208,-2.828,-9.411,-0.94,-2.69,5.95,-0.56,1.33
,-9.433,-1.036,-2.697,-9.344,-1.0,-2.828,7.28,-0.42,1.47
,-9.502,-0.845,-2.558,-9.39,-0.909,-2.9,6.23,-0.28,1.47
32341.0,-9.366,-0.785,-3.08,-9.234,-0.89,-3.496,2.66,1.33,0.77
,-9.399,-0.849,-3.178,-9.244,-0.725,-3.606,2.52,1.47,0.56
,-9.328,-0.991,-3.273,-9.313,-0.744,-3.563,2.8,1.75,0.49
,-9.308,-0.974,-3.515,-9.318,-0.828,-3.41,3.5,1.4,0.28
32416.0,-9.404,-0.955,-3.348,-9.354,-0.962,-2.785,1.75,0.14,-0.35
,-9.363,-1.07,-3.111,-9.421,-0.873,-2.821,1.19,0.0,-0.42
,-9.313,-1.129,-2.95,-9.407,-0.945,-2.761,1.47,0.21,-0.28
,-9.323,-1.11,-2.848,-9.464,-1.003,-2.855,1.89,0.56,-0.07
32491.0,-9.43,-1.072,-3.08,-9.318,-0.885,-3.575,0.28,2.1,-0.07
,-9.344,-1.046,-3.192,-9.328,-0.823,-3.518,0.63,2.03,-0.14
,-9.241,-0.933,-3.293,-9.292,-0.883,-3.494,1.33,2.1,0.07
,-9.296,-0.905,-3.484,-9.313,-1.041,-3.36,1.96,1.96,-0.07
32566.0,-9.351,-1.137,-3.159,-9.263,-0.986,-2.912,2.45,0.84,-0.07
,-9.395,-1.072,-3.075,-9.28,-1.055,-2.919,3.01,0.7,0.0
,-9.385,-0.976,-2.915,-9.277,-1.168,-2.845,3.22,1.12,0.0
,-9.411,-0.878,-2.948,-9.371,-1.18,-2.895,2.1,0.98,-0.14
32641.0,-9.373,-1.05,-2.989,-9.404,-0.957,-3.24,0.63,2.17,0.21
,-9.344,-0.921,-3.01,-9.442,-0.854,-3.369,0.0,2.38,0.14
,-9.337,-0.787,-3.106,-9.383,-0.84,-3.491,-0.7,2.66,0.07
,-9.34,-0.811,-3.453,-9.316,-0.821,-3.486,-1.68,2.31,-0.07
32716.0,-9.273,-0.838,-3.451,-9.287,-1.134,-3.211,-3.15,1.12,-0.98
,-9.34,-0.948,-3.46,-9.328,-1.017,-3.259,-4.2,0.91,-1.26
,-9.311,-1.108,-3.317,-9.407,-0.782,-3.4,-5.11,0.84,-1.19
,-9.28,-1.165,-3.099,-9.356,-0.72,-3.577,-5.74,0.63,-1.12
32791.0,-9.227,-0.833,-3.664,-9.404,-0.976,-3.037,-7.84,-1.05,-1.19
,-9.232,-1.012,-3.491,-9.246,-1.065,-3.037,-7.56,-0.91,-0.98
,-9.289,-1.077,-3.283,-9.22,-1.232,-2.974,-5.95,-0.7,-0.91
,-9.34,-1.05,-3.161,-9.186,-1.354,-2.967,-4.13,-0.49,-0.77
32866.0,-9.203,-1.357,-2.871,-9.462,-1.086,-2.479,1.68,1.19,1.68
,-9.337,-1.249,-2.752,-9.409,-1.318,-2.343,5.11,2.03,2.31
,-9.428,-1.077,-2.852,-9.39,-1.235,-2.067,7.21,2.66,2.73
,-9.454,-0.979,-2.67,-9.524,-0.866,-2.379,8.19,3.15,3.08
32941.0,-9.476,-0.452,-2.742,-9.308,-0.912,-3.072,9.17,6.65,2.17
,-9.371,-0.165,-3.12,-9.349,-0.794,-3.065,5.46,6.3,1.82
,-9.191,-0.244,-3.262,-9.373,-0.773,-3.254,0.42,6.72,2.52
,-9.174,-0.629,-3.108,-9.347,-0.885,-3.264,-1.05,7.49,2.8
33016.0,-9.287,-1.275,-3.604,-9.296,-1.491,-3.424,-6.65,6.37,1.05
,-9.036,-1.61,-3.821,-9.316,-0.909,-3.07,-6.02,6.72,2.03
,-8.995,-1.933,-3.814,-9.622,-0.452,-3.434,-1.61,7.56,3.71
,-9.263,-1.823,-3.618,-9.442,-0.208,-3.714,5.11,7.84,5.11
33091.0,-9.363,-0.347,-3.903,-9.229,-1.292,-3.778,-0.49,1.96,2.1
,-9.292,-0.601,-4.212,-9.237,-0.96,-3.893,-4.97,0.91,2.38
,-8.842,-1.129,-3.781,-9.521,-0.51,-3.793,-5.6,2.45,3.64
,-9.105,-1.474,-3.544,-9.287,-0.275,-3.807,0.28,4.69,5.04
33166.0,-8.985,-0.584,-3.226,-9.32,-0.593,-2.438,8.89,0.28,4.76
,-9.265,-0.852,-2.812,-9.351,-0.811,-2.094,11.97,2.52,4.2
,-9.335,-0.629,-2.29,-9.509,-0.967,-2.582,14.56,3.5,2.45
,-9.433,-0.514,-2.486,-9.246,-1.283,-3.195,10.99,3.01,0.7
33241.0,-9.311,-1.455,-3.711,-9.031,-0.349,-3.451,-6.72,2.66,2.03
,-9.005,-1.287,-4.243,-9.105,-0.316,-2.639,-3.15,3.22,3.64
,-8.961,-1.062,-4.042,-9.667,-0.235,-2.632,1.47,4.48,4.27
,-9.112,-0.818,-3.814,-9.447,-0.778,-3.187,5.88,4.34,3.85
33316.0,-9.411,-1.515,-2.895,-9.115,-0.979,-3.977,-0.63,6.3,0.49
,-9.55,-1.809,-3.08,-8.768,-0.684,-3.752,-1.75,6.02,0.84
,-9.222,-1.632,-3.668,-8.897,-0.567,-3.616,0.63,5.39,1.33
,-9.134,-1.438,-3.69,-9.086,-0.991,-2.917,4.27,5.81,2.24
33391.0,-9.586,-1.23,-2.833,-9.036,-0.94,-2.534,-1.26,6.16,3.36
,-9.485,-1.395,-2.781,-8.916,-0.881,-2.838,1.26,5.25,4.13
,-9.493,-1.364,-2.584,-9.342,-0.591,-3.388,5.95,6.58,4.9
,-9.234,-1.12,-2.477,-9.33,-0.223,-3.855,10.36,9.03,5.39
33466.0,-9.378,-0.23,-3.872,-9.033,-0.369,-3.821,6.58,8.05,2.94
,-9.016,-0.225,-3.92,-9.21,-0.479,-3.661,1.05,9.17,3.78
,-8.914,-0.268,-3.893,-9.131,-0.893,-3.235,-1.19,10.57,3.43
,-8.938,-0.328,-3.879,-9.442,-1.01,-3.046,-1.61,10.43,1.82
33541.0,-9.608,-1.019,-3.494,-8.579,-1.158,-3.173,3.08,9.87,-0.84
,-9.6,-1.015,-3.798,-9.064,-1.127,-3.199,4.9,8.33,-0.63
,-9.222,-1.117,-3.874,-9.555,-0.823,-3.649,4.55,8.54,0.35
,-8.536,-1.132,-3.711,-9.617,-0.457,-4.216,2.94,11.06,1.26
33616.0,-9.167,-0.294,-4.408,-9.083,-1.649,-3.819,-0.77,10.57,1.89
,-8.528,-0.366,-4.267,-9.251,-1.941,-3.671,-4.9,13.3,2.94
,-8.495,-0.895,-3.793,-9.191,-2.044,-3.711,-6.23,15.89,3.29
,-8.827,-1.326,-3.731,-8.909,-2.419,-3.525,-3.99,15.47,2.87
33691.0,-8.916,-2.355,-3.221,-8.842,1.089,-4.549,10.5,19.46,9.73
,-8.949,-1.651,-3.331,-8.959,1.106,-4.24,16.45,18.55,9.87
,-9.0,-0.491,-3.786,-9.167,1.077,-3.999,19.81,16.17,9.52
,-8.868,0.665,-4.334,-9.289,0.83,-3.872,18.34,14.56,9.1
33766.0,-9.308,0.637,-3.697,-9.036,-0.464,-3.508,-8.54,16.87,0.98
,-9.129,0.12,-3.41,-9.445,-0.153,-3.477,-8.4,17.78,-1.68
,-9.0,-0.187,-3.254,-8.952,0.869,-4.436,-7.35,18.97,-2.59
,-9.124,-0.455,-3.072,-8.21,1.223,-4.561,-5.74,19.74,-2.59
33841.0,-8.157,1.046,-4.556,-8.617,-3.372,-3.869,-2.52,18.2,-7.49
,-8.787,0.062,-4.269,-8.363,-3.53,-4.274,-10.71,19.39,-7.77
,-9.294,-1.242,-3.934,-8.418,-2.97,-4.695,-17.43,19.39,-6.72
,-9.119,-2.326,-4.398,-8.397,-2.154,-4.836,-19.18,19.25,-4.48
33916.0,-8.617,-0.866,-4.953,-8.531,-0.912,-5.049,22.47,19.18,2.66
,-8.667,-0.311,-5.181,-8.815,-1.347,-4.908,22.33,17.99,3.01
,-8.502,-0.156,-5.111,-8.914,-1.342,-4.867,15.96,18.2,4.62
,-8.497,-0.397,-5.121,-8.796,-1.046,-5.202,8.12,19.04,6.79
33991.0,-8.928,-0.474,-5.494,-8.375,-0.804,-5.564,23.87,16.31,5.25
,-8.815,-0.414,-5.54,-8.65,-0.538,-5.063,25.97,14.91,5.6
,-8.157,-0.299,-5.669,-8.909,-0.084,-5.173,25.34,14.91,6.93
,-8.1,-0.794,-5.714,-8.796,0.101,-5.336,25.55,15.05,7.49
34066.0,-8.894,0.211,-5.152,-8.071,-0.893,-5.619,21.21,10.5,-1.12
,-8.442,-0.426,-5.104,-8.399,-1.374,-5.654,13.79,10.15,-0.84
,-9.072,-0.601,-5.296,-8.488,-1.419,-5.719,9.73,9.94,-0.49
,-8.241,-0.605,-5.595,-8.713,-1.443,-5.786,9.1,9.1,0.21
34141.0,-8.638,-1.314,-5.805,-8.993,-1.074,-5.798,11.48,3.78,-1.68
,-8.839,-1.271,-5.604,-8.882,-1.656,-5.374,11.76,3.08,-0.14
,-8.495,-0.914,-5.513,-8.985,-1.61,-5.205,11.13,3.43,-0.35
,-8.662,-1.079,-5.238,-8.492,-1.338,-5.635,7.49,3.08,-0.84
34216.0,-8.287,-1.244,-5.772,-9.107,0.976,-5.973,11.34,-0.07,0.07
,-8.196,-0.849,-5.451,-9.134,-1.041,-5.154,13.72,-0.91,-0.28
,-8.066,-0.536,-5.434,-9.119,-1.307,-4.597,15.96,-1.68,-1.61
,-8.342,-0.208,-5.389,-8.497,-1.644,-4.779,14.77,-1.4,-3.64
34291.0,-8.296,-1.594,-4.958,-8.811,-0.751,-4.937,11.69,-4.55,-2.24
,-8.428,-1.543,-4.733,-8.691,-0.921,-4.805,10.99,-4.69,-0.35
,-8.55,-1.797,-5.15,-8.65,-1.007,-4.721,10.71,-5.25,-0.56
,-8.6,-1.278,-4.81,-8.725,-1.225,-4.819,11.2,-5.04,-0.28
34366.0,-8.756,-1.627,-4.719,-8.626,-1.582,-4.996,4.83,-5.6,0.56
,-8.509,-1.565,-5.066,-8.433,-0.976,-4.932,7.35,-6.37,1.82
,-8.308,-1.855,-5.039,-8.567,-0.404,-5.293,7.77,-5.74,2.94
,-8.497,-2.063,-5.044,-8.868,-0.383,-5.138,8.33,-4.62,4.06
34441.0,-8.947,-0.385,-5.006,-8.409,-1.311,-4.908,11.34,-5.53,0.07
,-8.832,-0.522,-4.853,-8.591,-1.551,-4.824,9.73,-5.39,-0.35
,-8.732,-0.613,-4.774,-8.693,-1.864,-4.654,7.49,-5.46,-0.42
,-8.507,-0.964,-4.786,-8.679,-2.065,-4.702,4.9,-5.53,-0.14
34516.0,-8.524,-2.374,-4.697,-8.739,-0.964,-4.669,3.43,-8.19,3.15
,-8.311,-1.941,-4.585,-8.863,-1.027,-4.503,6.37,-7.56,3.78
,-8.399,-1.493,-4.57,-8.928,-1.031,-4.535,6.65,-7.0,4.06
,-8.748,-1.106,-4.688,-8.784,-1.189,-4.348,4.48,-7.0,4.2
34591.0,-8.605,-1.177,-4.171,-8.851,-0.584,-4.427,2.73,-3.99,5.32
,-8.449,-1.0,-4.152,-8.871,-0.349,-4.477,3.01,-3.57,5.53
,-8.344,-0.742,-4.405,-8.93,-0.436,-4.518,2.8,-3.29,5.04
,-8.698,-0.653,-4.566,-8.945,-0.467,-4.353,2.31,-2.73,4.41
34666.0,-8.82,-0.67,-4.365,-8.65,-1.027,-4.092,-0.63,-0.77,1.19
,-8.54,-0.895,-4.173,-8.641,-0.943,-4.24,-1.12,0.14,0.91
,-8.545,-1.235,-4.085,-8.722,-0.885,-4.178,-1.19,0.84,0.91
,-8.703,-1.175,-4.056,-8.684,-0.715,-4.46,0.42,1.75,0.91
34741.0,-8.631,-0.931,-4.434,-8.346,-1.716,-4.389,-2.94,4.34,0.0
,-8.906,-1.302,-4.353,-8.409,-1.292,-4.374,-3.85,4.62,0.84
,-8.897,-1.615,-4.436,-8.837,-0.723,-4.719,-3.64,3.99,1.96
,-8.478,-1.788,-4.427,-9.229,-0.708,-4.846,-2.66,4.06,2.45
34816.0,-9.069,-0.998,-4.843,-8.622,-1.266,-4.886,-0.42,7.56,0.63
,-8.813,-1.158,-4.913,-8.789,-1.204,-4.673,0.35,8.4,0.98
,-8.593,-1.182,-4.913,-8.844,-0.919,-4.841,1.47,8.96,1.4
,-8.485,-1.192,-4.872,-8.885,-0.945,-4.692,1.82,9.52,2.17
34891.0,-8.935,-0.78,-5.03,-8.48,-0.928,-4.831,1.19,9.1,2.24
,-8.782,-1.304,-4.724,-8.801,-0.861,-5.293,0.07,9.31,0.91
,-8.739,-1.192,-4.436,-8.957,-0.909,-5.374,0.77,10.01,0.0
,-8.547,-1.036,-4.513,-8.954,-1.369,-5.039,0.07,10.01,0.35
34966.0,-8.861,-1.653,-4.798,-8.775,-1.0,-5.133,-5.95,7.35,-0.98
,-8.863,-1.601,-4.843,-8.737,-0.838,-5.097,-3.92,7.49,-1.68
,-8.923,-0.84,-5.121,-8.516,-1.122,-5.142,-2.8,6.51,-1.68
,-8.784,-1.132,-5.274,-8.351,-1.409,-5.056,-5.11,4.83,-1.05
35041.0,-8.289,-1.436,-5.229,-9.165,-0.553,-5.403,-17.01,1.61,4.06
,-8.54,-1.287,-5.226,-9.091,-0.048,-5.494,-14.28,1.61,3.71
,-8.787,-1.266,-5.016,-8.626,-0.342,-5.071,-12.74,1.19,3.29
,-8.89,-0.988,-5.142,-8.294,-0.297,-5.133,-10.57,0.56,2.87
35116.0,-8.344,-0.036,-5.401,-8.897,-0.983,-5.02,-14.91,-4.06,1.68
,-8.701,-0.373,-4.987,-8.703,-1.139,-4.702,-15.12,-4.62,0.63
,-8.969,-0.66,-4.673,-8.425,-1.106,-4.585,-13.58,-5.18,-0.7
,-9.117,-0.826,-4.915,-8.112,-0.962,-4.925,-11.13,-5.18,-1.89
35191.0,-8.145,-0.665,-5.296,-8.983,-0.881,-4.657,0.91,-6.79,-2.17
,-8.586,-0.986,-4.657,-8.866,-0.976,-4.819,0.98,-7.49,-3.01
,-8.981,-0.897,-4.604,-8.77,-1.094,-4.355,1.26,-8.4,-3.43
,-8.904,-0.711,-4.982,-8.739,-0.771,-4.645,1.75,-8.12,-3.36
35266.0,-8.435,-0.792,-4.824,-9.196,-1.677,-4.068,-2.87,-8.61,1.33
,-8.267,-0.921,-5.097,-8.775,-0.713,-4.92,-3.36,-8.4,2.31
,-8.334,-1.156,-4.987,-8.593,-0.342,-4.697,-2.03,-7.49,2.73
,-8.926,-1.381,-4.743,-8.744,-0.196,-4.757,-0.63,-7.14,2.38
35341.0,-8.674,-0.337,-4.824,-8.842,-1.11,-4.463,-0.91,-9.24,1.19
,-8.758,-0.641,-4.59,-8.725,-1.307,-4.353,-3.08,-8.12,1.54
,-8.832,-1.027,-4.52,-8.746,-0.637,-4.779,-3.5,-7.0,1.82
,-8.842,-1.218,-4.436,-8.703,-0.493,-4.815,-1.4,-6.44,2.31
35416.0,-8.753,-0.302,-4.676,-8.722,-0.548,-4.133,7.42,-7.42,2.73
,-8.906,-0.469,-4.558,-8.839,-0.9,-4.331,6.16,-6.72,1.82
,-9.057,-0.517,-4.164,-8.796,-1.675,-3.936,4.9,-6.09,1.33
,-8.916,-0.457,-4.161,-9.167,-0.278,-5.138,3.99,-5.88,1.75
35491.0,-8.679,-0.622,-4.317,-8.744,-0.62,-4.599,5.39,-5.74,3.78
,-8.945,-0.591,-4.106,-8.734,-0.771,-4.405,4.2,-6.23,3.01
,-9.146,-0.366,-4.654,-8.77,-0.771,-4.116,3.57,-8.96,3.5
,-8.89,-0.424,-4.752,-8.993,-0.51,-3.807,1.19,-10.71,3.64
35566.0,-9.184,-0.292,-3.812,-8.849,-0.861,-3.92,0.98,-9.24,-1.61
,-9.124,-0.024,-4.066,-8.959,-0.579,-3.877,-0.63,-9.03,-0.7
,-8.796,-0.266,-4.293,-9.055,-0.163,-4.001,-3.92,-7.7,0.84
,-8.693,-0.706,-3.984,-8.882,-0.239,-3.927,-5.25,-5.46,1.75
35641.0,-8.835,-0.677,-3.829,-9.627,-1.352,-3.965,-2.1,-4.69,-1.05
,-8.725,-1.141,-3.831,-9.005,-0.715,-4.274,-4.34,-4.27,-0.49
,-8.868,-1.464,-3.951,-8.631,-0.522,-4.381,-3.15,-5.18,-1.26
,-9.186,-1.529,-3.903,-8.696,-0.639,-4.238,0.14,-5.88,-1.61
35716.0,-8.921,-0.763,-4.159,-9.153,-0.663,-4.283,-1.19,-8.47,0.49
,-9.162,-0.747,-3.948,-8.873,-0.653,-4.257,-0.21,-8.54,-0.98
,-9.265,-0.613,-4.013,-8.698,-0.708,-4.101,1.33,-8.26,-1.26
,-9.378,-0.603,-4.08,-8.899,-0.828,-3.984,1.54,-8.4,-1.26
35791.0,-9.024,-0.651,-4.24,-9.265,-0.132,-4.348,7.84,-5.11,-0.28
,-8.921,-0.493,-4.085,-9.057,-0.067,-4.085,8.19,-5.32,-0.21
,-9.072,-0.397,-4.288,-9.036,-0.223,-4.013,7.21,-6.44,-0.07
,-9.15,-0.28,-4.298,-8.978,-0.68,-3.743,6.09,-7.49,-0.91
35866.0,-9.131,-0.986,-3.302,-9.081,-0.864,-3.692,-3.36,-7.0,-3.78
,-9.249,-1.173,-3.405,-9.043,-1.137,-3.46,-1.12,-7.0,-3.64
,-9.275,-1.062,-3.69,-9.146,-1.216,-3.518,-0.42,-8.75,-4.2
,-9.129,-0.873,-3.573,-9.189,-0.957,-3.604,0.21,-9.17,-3.64
35941.0,-9.012,-0.756,-3.46,-9.299,-1.149,-2.967,-0.49,-8.68,-3.85
,-9.007,-0.756,-3.599,-9.273,-1.05,-2.824,-2.1,-9.24,-3.5
,-9.091,-0.799,-3.53,-9.134,-0.981,-2.824,-3.08,-8.89,-3.5
,-9.239,-1.079,-3.096,-9.265,-0.818,-3.084,-1.68,-7.84,-3.71
36016.0,-9.095,-0.83,-3.333,-9.282,-0.859,-2.831,-1.54,-5.6,-2.45
,-9.162,-0.972,-3.463,-9.442,-0.584,-2.919,-0.84,-4.41,-1.68
,-9.052,-1.062,-3.439,-9.509,-0.333,-3.003,1.75,-2.87,-1.33
,-9.162,-1.11,-3.092,-9.55,-0.096,-3.719,5.53,-1.26,-1.4
36091.0,-9.177,-0.323,-3.915,-9.49,-1.235,-3.228,0.28,-2.31,-3.99
,-8.906,-0.701,-3.707,-9.476,-0.828,-3.305,-1.33,-0.91,-3.92
,-8.94,-1.302,-3.379,-9.387,-0.581,-3.427,-0.7,0.42,-3.43
,-9.038,-1.582,-3.017,-9.203,-0.591,-3.518,3.29,1.33,-3.43
36166.0,-9.002,-0.881,-3.398,-9.361,-0.637,-3.396,1.82,1.05,-2.24
,-8.921,-1.089,-3.029,-9.299,-0.546,-3.948,2.8,2.52,-1.75
,-9.194,-1.058,-3.139,-8.923,-0.68,-3.912,4.62,2.45,-1.68
,-9.335,-0.84,-3.288,-8.981,-0.976,-3.967,5.32,1.82,-2.1
36241.0,-9.038,-1.256,-3.778,-9.44,-0.986,-3.75,1.89,0.77,-2.17
,-9.103,-1.393,-3.666,-9.153,-0.981,-3.778,3.57,0.7,-2.03
,-9.158,-1.414,-3.391,-8.959,-1.295,-3.534,5.46,1.05,-1.4
,-9.407,-1.218,-3.496,-8.969,-1.625,-3.116,7.35,0.49,-1.26
36316.0,-9.344,-1.479,-3.022,-8.916,-1.149,-3.257,9.24,2.03,0.91
,-9.407,-0.895,-3.238,-9.184,-1.498,-2.888,11.55,1.33,0.56
,-9.299,-0.467,-3.403,-9.378,-1.383,-2.979,9.66,0.84,0.35
,-9.048,-0.538,-3.412,-9.478,-0.89,-3.216,6.09,1.47,0.49
36391.0,-9.426,-0.493,-3.642,-9.057,-1.318,-3.783,7.77,2.38,0.56
,-9.203,-0.553,-3.762,-9.088,-1.027,-3.609,4.06,2.24,0.21
,-9.05,-0.993,-3.886,-9.225,-0.672,-3.798,2.03,2.45,0.14
,-9.033,-1.328,-3.891,-9.179,-0.677,-3.762,3.08,2.94,0.49
36466.0,-9.117,-1.168,-3.458,-9.265,-0.976,-3.479,2.24,1.68,0.0
,-9.232,-1.522,-3.422,-9.241,-0.838,-3.362,2.52,2.17,0.49
,-9.265,-1.565,-3.475,-9.306,-0.809,-3.824,5.18,2.17,0.84
,-9.282,-1.309,-3.424,-9.165,-0.838,-3.52,7.84,2.24,1.12
36541.0,-9.153,-0.991,-3.695,-9.1,-0.902,-3.96,1.4,2.03,0.49
,-9.141,-1.39,-3.589,-9.062,-0.895,-3.929,0.84,1.96,0.56
,-9.208,-1.35,-3.759,-9.107,-1.055,-3.81,2.87,1.61,0.77
,-9.237,-1.072,-3.884,-9.184,-1.211,-3.635,4.83,1.12,1.05
36616.0,-9.253,-1.232,-3.475,-9.222,-0.871,-3.75,4.27,0.49,0.98
,-9.289,-1.192,-3.238,-9.091,-1.031,-3.881,4.48,0.49,1.12
,-9.311,-1.055,-3.297,-9.0,-1.196,-3.821,4.2,0.56,1.12
,-9.28,-0.909,-3.374,-9.11,-1.371,-3.695,3.15,0.28,0.98
36691.0,-9.186,-1.263,-3.525,-9.131,-1.01,-3.726,5.53,0.35,1.54
,-9.263,-1.079,-3.391,-8.973,-1.165,-3.57,5.95,0.07,1.61
,-9.359,-0.916,-3.463,-9.024,-1.251,-3.527,4.55,-0.21,1.54
,-9.261,-0.845,-3.565,-9.225,-1.268,-3.278,2.31,-0.77,1.26
36766.0,-9.38,-1.065,-3.18,-9.127,-1.139,-3.711,6.09,0.49,1.68
,-9.351,-0.749,-3.233,-9.182,-1.323,-3.644,5.74,0.07,1.47
,-9.32,-0.689,-3.573,-9.222,-1.17,-3.534,3.22,-0.35,1.05
,-9.203,-0.864,-3.783,-9.33,-0.95,-3.355,1.05,-0.35,0.77
36841.0,-9.273,-0.835,-3.369,-9.165,-1.117,-3.558,4.41,0.0,0.84
,-9.258,-0.847,-3.393,-9.117,-1.127,-3.434,2.66,0.07,0.63
,-9.167,-1.01,-3.472,-9.239,-1.096,-3.238,0.77,-0.21,0.35
,-9.162,-1.058,-3.568,-9.347,-1.11,-3.142,1.26,0.0,0.35
36916.0,-9.469,-0.907,-3.18,-9.038,-1.266,-3.793,2.59,0.84,0.56
,-9.404,-0.826,-3.408,-9.062,-1.254,-3.778,0.77,0.63,0.21
,-9.198,-0.842,-3.659,-9.239,-1.153,-3.601,-1.47,0.28,-0.07
,-9.031,-1.022,-3.884,-9.316,-0.988,-3.477,-3.36,-0.14,-0.21
36991.0,-9.304,-0.857,-3.408,-9.186,-1.251,-3.333,3.22,0.14,0.56
,-9.237,-1.029,-3.295,-9.246,-1.125,-3.3,1.47,0.14,0.42
,-9.172,-1.163,-3.278,-9.277,-1.007,-3.36,0.63,0.35,0.49
,-9.186,-1.251,-3.288,-9.28,-1.048,-3.202,0.7,0.42,0.56
37066.0,-9.258,-0.986,-3.288,-9.093,-1.242,-3.867,-0.35,1.61,0.77
,-9.246,-0.957,-3.525,-9.17,-1.292,-3.561,-0.35,1.12,0.63
,-9.265,-0.943,-3.781,-9.287,-1.189,-3.563,-1.26,0.84,0.49
,-9.143,-1.096,-3.807,-9.301,-1.031,-3.525,-1.19,0.84,0.77
37141.0,-9.232,-0.871,-3.611,-9.165,-1.304,-3.453,1.75,0.0,1.12
,-9.234,-0.881,-3.81,-9.189,-1.106,-3.326,-0.07,-0.49,1.05
,-9.134,-1.012,-3.766,-9.294,-0.914,-3.206,-0.42,-0.42,1.12
,-9.15,-1.285,-3.415,-9.335,-0.905,-3.195,-0.21,-0.21,1.33
37216.0,-9.311,-0.826,-3.178,-9.127,-1.156,-3.606,2.59,0.21,1.82
,-9.268,-0.928,-3.515,-9.139,-1.048,-3.534,0.84,-0.49,1.47
,-9.249,-0.936,-3.685,-9.311,-1.003,-3.448,0.35,-0.63,1.54
,-9.119,-1.077,-3.606,-9.354,-0.833,-3.269,0.35,-0.42,1.47
37291.0,-9.337,-0.847,-3.173,-9.268,-1.345,-3.02,1.19,-0.56,1.54
,-9.229,-0.943,-2.989,-9.349,-1.256,-3.24,-0.91,-0.28,1.33
,-9.191,-1.094,-2.931,-9.383,-0.991,-3.515,-2.24,-0.14,1.12
,-9.308,-1.201,-3.24,-9.265,-0.842,-3.611,-1.96,-0.07,1.33
37366.0,-9.184,-0.84,-3.69,-9.316,-1.036,-2.836,-6.37,-2.03,0.98
,-9.105,-0.78,-3.491,-9.378,-1.003,-2.915,-8.05,-2.87,0.77
,-9.143,-0.811,-3.29,-9.325,-0.804,-3.082,-8.4,-2.73,0.77
,-9.213,-0.859,-3.139,-9.261,-0.713,-3.379,-8.19,-1.82,0.98
37441.0,-9.15,-0.72,-3.431,-9.337,-0.581,-3.144,-9.31,1.26,0.7
,-9.136,-1.034,-3.276,-9.172,-0.5,-3.3,-10.92,1.82,1.05
,-9.497,-1.117,-3.156,-9.148,-0.962,-3.123,-11.55,0.56,0.56
,-9.586,-0.988,-3.07,-9.048,-1.345,-3.285,-13.3,-1.75,-0.14
37516.0,-9.079,-1.438,-3.216,-8.981,-1.22,-3.257,-15.82,-0.28,2.1
,-9.194,-1.362,-3.281,-9.141,-1.292,-3.171,-11.48,0.91,2.52
,-9.213,-1.106,-3.441,-9.421,-1.295,-3.142,-7.49,1.82,2.94
,-9.045,-1.046,-3.635,-9.608,-0.782,-3.589,-5.81,2.38,3.36
37591.0,-9.342,-0.352,-4.3,-9.177,-1.536,-2.764,5.67,0.7,4.27
,-9.129,-0.218,-4.161,-9.335,-1.132,-2.245,3.22,2.03,4.83
,-9.0,-0.67,-3.781,-9.586,-0.354,-2.886,-0.35,3.57,5.6
,-9.043,-1.268,-2.883,-9.55,0.299,-2.898,0.0,4.9,5.88
37666.0,-9.289,0.251,-3.319,-9.502,-1.505,-2.828,0.35,2.8,4.76
,-8.744,-0.421,-3.166,-9.43,-0.536,-3.075,-8.54,5.32,5.39
,-8.811,-1.395,-2.79,-9.435,0.436,-3.391,-9.94,8.89,6.44
,-9.115,-1.917,-2.429,-9.383,0.792,-3.47,-4.41,10.71,7.14
37741.0,-9.287,0.718,-2.888,-9.481,-0.397,-3.85,4.2,12.32,4.62
,-9.16,0.763,-2.838,-9.349,-1.362,-4.121,1.33,13.37,3.08
