Timestamp,AccX,AccY,AccZ,GyroX,GyroY,GyroZ,MagnX,MagnY,MagnZ
0.0,-9.335,0.933,-3.331,-9.306,0.897,-3.273,2.03,1.4,0.49
,-9.354,0.902,-3.288,-9.265,0.914,-3.319,2.31,1.61,0.63
,-9.306,0.833,-3.3,-9.253,0.952,-3.247,2.52,1.47,0.7
,-9.265,0.883,-3.295,-9.294,0.95,-3.288,3.01,1.61,0.91
75.0,-9.337,0.931,-3.324,-9.265,0.912,-3.475,2.87,1.89,0.84
,-9.335,0.909,-3.336,-9.261,0.936,-3.345,3.01,1.75,0.77
,-9.301,0.981,-3.408,-9.313,1.015,-3.369,3.5,1.68,0.77
,-9.263,0.976,-3.419,-9.277,0.974,-3.443,3.29,1.89,0.84
151.0,-9.294,0.943,-3.357,-9.256,0.84,-3.379,2.24,1.33,0.77
,-9.256,0.902,-3.424,-9.296,0.897,-3.326,2.1,1.26,0.77
,-9.268,0.907,-3.427,-9.308,0.907,-3.355,2.03,1.33,0.63
,-9.263,0.869,-3.372,-9.301,0.9,-3.384,1.89,1.4,0.56
227.0,-9.253,1.017,-3.376,-9.363,0.845,-3.312,2.66,1.12,0.77
,-9.251,0.993,-3.348,-9.301,0.905,-3.242,2.03,1.05,0.77
,-9.296,0.945,-3.276,-9.28,0.967,-3.329,1.68,1.05,0.84
,-9.287,0.873,-3.228,-9.249,1.019,-3.312,1.89,1.26,0.91
302.0,-9.292,1.0,-3.319,-9.284,0.912,-3.391,2.38,1.19,0.84
,-9.33,0.924,-3.333,-9.299,0.967,-3.393,2.03,1.26,0.84
,-9.306,0.83,-3.321,-9.277,1.027,-3.405,2.17,1.19,0.98
,-9.296,0.852,-3.338,-9.284,1.005,-3.355,2.8,1.05,0.98
378.0,-9.344,0.94,-3.278,-9.294,0.955,-3.312,1.54,1.19,0.84
,-9.308,0.888,-3.269,-9.225,0.967,-3.321,1.75,1.19,0.84
,-9.287,0.895,-3.254,-9.323,0.943,-3.273,2.31,1.19,0.84
,-9.265,0.945,-3.288,-9.328,0.926,-3.235,2.87,1.19,0.91
453.0,-9.325,0.909,-3.24,-9.306,0.957,-3.278,2.52,1.47,0.84
,-9.284,0.9,-3.297,-9.328,0.9,-3.278,2.73,1.54,0.91
,-9.277,0.931,-3.314,-9.265,0.955,-3.278,2.94,1.61,0.98
,-9.308,0.95,-3.257,-9.337,1.113,-3.29,2.94,1.82,0.98
529.0,-9.263,1.113,-3.293,-9.335,0.909,-3.111,2.87,1.89,0.91
,-9.294,1.07,-3.171,-9.306,0.952,-3.211,2.17,2.24,0.91
,-9.21,1.053,-3.132,-9.28,1.012,-3.343,2.52,2.31,0.98
,-9.273,1.019,-3.197,-9.249,0.995,-3.422,3.01,2.45,0.91
605.0,-9.299,1.086,-3.396,-9.337,0.706,-3.338,2.73,3.15,0.42
,-9.282,1.019,-3.309,-9.306,0.854,-3.415,1.75,3.22,0.42
,-9.328,0.826,-3.372,-9.356,1.05,-3.264,1.61,2.59,0.42
,-9.328,0.84,-3.35,-9.335,1.096,-3.24,2.24,2.38,0.63
681.0,-9.328,1.031,-3.142,-9.43,0.842,-2.907,6.37,2.87,1.05
,-9.268,0.9,-2.879,-9.225,1.043,-3.228,5.74,3.43,1.19
,-9.512,0.637,-2.771,-9.146,1.003,-3.283,6.86,3.29,1.33
,-9.421,0.622,-2.723,-9.172,0.838,-3.544,10.36,3.36,1.68
757.0,-9.129,0.794,-3.537,-9.241,0.84,-3.843,12.04,4.06,2.45
,-9.323,0.663,-3.309,-9.124,0.938,-4.094,12.88,4.48,2.38
,-9.452,0.687,-3.539,-8.993,1.055,-4.099,14.77,3.85,2.31
,-9.162,0.749,-3.616,-9.019,1.108,-3.967,15.54,3.64,2.52
832.0,-9.179,1.041,-3.687,-9.1,1.031,-3.719,10.22,2.38,1.68
,-9.33,0.967,-3.52,-9.064,1.11,-3.778,9.52,2.17,1.54
,-9.383,0.759,-3.575,-9.103,1.062,-3.594,9.8,1.19,1.33
,-9.222,0.828,-3.678,-9.17,1.022,-3.408,10.78,0.84,1.26
908.0,-9.22,0.919,-3.281,-9.005,1.05,-3.037,3.64,1.19,-1.19
,-9.172,0.905,-3.24,-9.081,0.905,-3.01,3.36,1.47,-1.68
,-9.127,0.912,-3.161,-9.04,0.938,-3.044,3.43,1.4,-2.17
,-8.954,1.031,-3.163,-9.184,1.106,-3.13,3.22,2.38,-2.66
984.0,-9.268,1.168,-3.171,-9.49,0.397,-2.91,0.0,4.34,-5.18
,-9.363,1.369,-3.07,-9.265,-0.096,-3.125,-1.19,5.11,-5.67
,-9.509,1.261,-2.943,-9.124,-0.129,-3.477,-3.08,5.88,-6.02
,-9.619,0.928,-2.831,-9.057,0.242,-3.606,-4.2,6.51,-5.88
1060.0,-9.093,0.684,-3.58,-9.253,0.486,-3.47,10.92,6.72,-2.24
,-9.083,0.94,-3.52,-9.206,0.392,-3.506,8.47,7.21,-2.87
,-9.294,0.878,-3.51,-9.237,0.428,-3.685,4.48,6.44,-3.15
,-9.241,0.692,-3.477,-8.906,0.596,-3.843,2.45,5.74,-3.08
1135.0,-8.746,0.711,-3.613,-9.249,0.524,-3.214,6.44,7.14,-1.61
,-9.139,0.794,-3.403,-9.16,0.598,-3.295,4.41,7.84,-1.96
,-9.153,0.751,-3.384,-9.15,0.759,-3.23,2.8,8.12,-1.96
,-9.184,0.546,-3.065,-9.316,0.998,-3.3,0.7,8.68,-1.89
1211.0,-9.485,1.101,-3.386,-9.048,0.026,-3.812,-0.7,11.69,-3.36
,-9.49,0.995,-4.042,-9.153,0.105,-3.544,-1.54,10.15,-3.15
,-9.182,0.486,-4.188,-9.172,0.397,-3.532,-3.15,8.33,-2.45
,-8.892,0.084,-4.123,-9.162,0.634,-3.637,-3.99,9.1,-1.61
1286.0,-9.191,0.828,-3.467,-9.038,1.084,-3.35,8.4,9.45,0.56
,-9.294,1.385,-3.506,-9.194,0.538,-3.472,10.08,10.08,0.35
,-9.057,1.819,-3.343,-9.191,0.361,-3.379,7.0,12.18,-0.56
,-9.112,1.658,-3.192,-9.301,0.086,-3.398,0.49,12.74,-1.82
1362.0,-9.232,-0.038,-3.561,-8.949,0.096,-3.551,-0.14,13.51,-1.82
,-8.995,0.105,-3.644,-9.103,-0.184,-3.553,3.08,13.16,-1.05
,-9.263,0.325,-3.36,-9.466,-0.663,-3.037,5.74,13.51,-0.28
,-8.935,0.378,-3.649,-9.866,-0.945,-3.195,7.35,13.23,0.35
1438.0,-9.225,-0.914,-4.044,-8.894,1.084,-4.487,15.96,7.35,4.83
,-9.079,-0.646,-4.24,-9.095,1.232,-4.262,21.28,8.47,6.09
,-8.753,0.182,-4.542,-8.856,1.268,-4.336,25.27,10.08,6.65
,-8.65,0.816,-4.63,-8.559,1.108,-4.3,24.08,11.55,6.72
1514.0,-9.261,1.17,-3.771,-8.878,0.615,-4.745,11.41,12.11,3.85
,-8.928,1.376,-3.86,-8.842,0.443,-5.104,12.67,8.68,2.24
,-8.373,1.433,-4.204,-8.806,0.972,-5.061,13.86,6.93,0.91
,-8.674,1.115,-4.214,-8.763,1.835,-4.769,12.88,7.35,0.21
1590.0,-8.914,2.481,-4.733,-8.748,1.141,-3.979,14.49,12.11,-4.06
,-8.722,2.747,-4.518,-8.93,0.436,-4.463,6.72,12.81,-5.32
,-8.638,2.362,-4.247,-9.098,-0.127,-4.697,-1.75,13.51,-6.79
,-8.607,1.895,-4.099,-9.069,-0.491,-4.92,-6.93,13.79,-8.12
1665.0,-8.875,-0.325,-4.755,-9.009,0.503,-4.755,1.75,9.38,-7.84
,-8.842,0.043,-4.836,-9.043,0.483,-4.348,5.11,9.1,-7.91
,-8.734,0.34,-5.001,-9.119,0.069,-4.111,5.46,8.96,-8.47
,-8.83,0.498,-4.999,-8.892,-0.529,-4.212,2.94,8.96,-8.61
1741.0,-8.744,-0.771,-4.329,-9.246,-0.103,-5.059,1.33,6.93,-6.37
,-8.672,-0.768,-4.757,-9.033,-0.287,-5.123,6.79,6.23,-5.67
,-8.88,-0.538,-4.989,-8.765,-0.239,-4.889,11.13,5.95,-4.9
,-9.129,-0.215,-5.018,-8.744,-0.089,-4.48,12.25,6.16,-3.57
1817.0,-9.179,0.079,-3.853,-8.849,-0.912,-4.334,4.76,6.86,3.15
,-8.985,0.251,-3.836,-8.954,-1.041,-4.503,6.58,5.04,1.61
,-8.533,0.144,-4.235,-9.026,-0.799,-4.525,6.93,5.11,0.77
,-8.756,-0.416,-4.02,-9.103,-0.491,-4.8,5.74,4.97,0.98
1893.0,-9.105,-0.242,-4.393,-8.473,0.876,-4.994,15.4,2.1,5.81
,-8.758,0.077,-4.573,-8.485,1.29,-5.09,16.73,-0.28,4.97
,-8.658,0.436,-4.628,-8.827,1.531,-4.958,17.78,-1.61,4.27
,-8.576,0.593,-4.893,-8.909,1.515,-4.903,18.2,-3.08,2.8
1968.0,-8.921,1.161,-4.901,-8.614,1.309,-4.805,6.44,0.28,1.05
,-8.5,1.058,-5.116,-8.758,1.249,-4.977,5.88,0.35,0.42
,-8.842,1.036,-4.597,-8.65,0.993,-5.095,6.37,0.14,-0.7
,-8.634,1.237,-4.927,-8.904,0.639,-5.02,7.14,-1.12,-2.17
2044.0,-9.17,0.053,-5.15,-8.957,-0.072,-4.807,-10.22,0.14,-1.68
,-9.155,-0.294,-5.013,-9.201,0.151,-4.817,-10.99,-0.42,-0.14
,-9.038,-0.328,-4.736,-9.215,0.426,-4.539,-10.36,-0.77,1.19
,-8.882,-0.235,-4.791,-8.949,0.522,-4.767,-9.24,-1.82,1.75
2119.0,-8.78,0.524,-4.965,-8.729,0.11,-4.829,-13.65,-4.34,4.48
,-8.698,0.481,-4.635,-8.863,0.354,-4.824,-15.26,-3.71,4.48
,-8.926,0.249,-4.456,-8.942,0.443,-4.757,-14.98,-3.99,4.13
,-8.789,0.098,-4.91,-8.882,0.57,-4.654,-13.3,-4.76,4.13
2195.0,-8.77,0.598,-4.264,-8.863,0.378,-3.551,-11.41,-5.53,4.27
,-8.72,0.191,-4.087,-8.701,0.4,-3.656,-12.67,-6.58,3.15
,-8.583,0.172,-4.027,-8.902,0.201,-3.561,-12.25,-7.14,2.66
,-8.789,0.33,-3.699,-8.569,0.402,-3.884,-10.92,-6.58,2.38
2271.0,-8.681,0.873,-3.989,-8.78,1.077,-3.9,-4.41,-0.91,1.12
,-8.796,1.137,-3.951,-9.179,0.605,-3.869,-3.22,0.07,-0.28
,-8.626,1.359,-3.888,-9.16,0.208,-4.097,-3.15,1.47,-1.89
,-8.72,1.259,-4.015,-9.22,-0.086,-3.891,-4.27,2.8,-2.94
2347.0,-9.002,-0.112,-4.068,-9.28,-0.943,-4.511,0.7,6.86,-3.15
,-8.763,-0.034,-4.123,-9.098,-1.015,-4.563,1.05,7.7,-2.73
,-9.076,-0.416,-4.221,-8.997,-1.134,-4.513,0.07,8.54,-1.75
,-9.426,-0.861,-4.453,-9.368,-1.046,-4.547,0.56,8.54,-0.7
2423.0,-9.182,-0.699,-4.609,-8.909,0.857,-4.838,13.37,8.54,5.88
,-8.871,-0.06,-4.874,-8.784,0.603,-5.116,16.8,8.82,6.58
,-8.887,0.349,-4.925,-8.667,0.495,-5.03,17.71,9.45,6.79
,-8.914,0.821,-4.874,-8.789,0.237,-5.066,18.06,9.73,6.51
2498.0,-8.897,0.134,-5.006,-9.117,0.68,-5.133,18.9,7.91,4.83
,-9.086,0.11,-4.932,-8.629,1.187,-4.968,20.58,7.35,5.67
,-9.186,0.182,-5.016,-8.476,1.405,-4.81,22.47,6.79,6.37
,-9.112,0.369,-5.023,-8.533,1.347,-5.138,24.22,6.44,6.72
2574.0,-8.734,1.158,-5.006,-8.827,1.017,-5.169,10.78,4.13,6.3
,-8.921,0.967,-5.154,-8.722,1.302,-4.987,10.5,2.24,6.3
,-8.801,0.9,-5.152,-8.624,1.352,-5.018,11.69,0.98,5.88
,-8.942,0.876,-4.994,-8.545,1.393,-5.24,12.88,-0.14,5.39
2650.0,-8.636,1.493,-5.219,-9.117,0.526,-4.664,13.93,-4.2,1.05
,-8.854,1.225,-5.133,-9.105,0.364,-4.623,9.66,-4.69,1.47
,-8.933,0.754,-5.238,-8.722,0.402,-4.908,5.25,-5.81,1.82
,-9.261,0.476,-4.893,-8.478,0.67,-5.037,3.01,-6.58,1.61
2726.0,-8.581,0.479,-4.917,-8.818,0.553,-4.779,-0.35,-8.26,2.31
,-8.593,0.256,-4.841,-8.875,0.625,-4.75,-1.89,-8.82,1.68
,-8.665,0.187,-4.815,-9.174,0.459,-4.401,-2.03,-8.89,1.05
,-8.772,0.203,-4.707,-8.82,0.196,-4.692,-2.03,-8.12,0.84
2801.0,-8.801,-0.084,-4.621,-9.009,0.112,-4.635,-7.63,-12.53,0.56
,-8.823,-0.16,-4.597,-8.882,0.38,-4.46,-5.53,-12.46,1.26
,-8.99,-0.17,-4.523,-8.701,0.522,-4.468,-2.94,-12.11,1.61
,-9.074,-0.132,-4.575,-8.765,0.522,-4.247,-0.35,-11.9,2.1
2877.0,-8.928,0.419,-4.259,-9.182,0.876,-3.994,-6.3,-8.12,5.32
,-9.05,0.428,-4.247,-9.122,0.802,-4.125,-6.72,-8.96,4.9
,-8.863,0.531,-4.195,-8.981,0.73,-4.221,-7.07,-9.24,4.34
,-9.064,0.768,-3.886,-8.832,0.878,-4.147,-6.44,-9.87,3.5
2952.0,-8.732,1.206,-4.252,-9.016,0.778,-4.054,2.8,-12.6,0.7
,-8.701,1.417,-4.334,-9.091,0.361,-3.69,1.96,-12.46,-0.42
,-8.859,1.632,-4.226,-9.201,0.211,-3.781,-1.05,-11.97,-1.19
,-9.012,1.316,-4.166,-9.021,0.129,-3.762,-6.09,-11.9,-1.4
3028.0,-9.0,0.258,-3.726,-9.378,0.505,-3.336,-4.69,-13.09,-2.03
,-9.002,0.311,-3.709,-9.237,0.369,-3.472,-3.78,-13.16,-1.4
,-8.928,0.464,-3.778,-9.162,0.22,-3.446,-3.99,-13.3,-0.91
,-9.086,0.51,-3.271,-9.146,0.189,-3.53,-5.11,-12.25,-0.91
3104.0,-9.036,-0.055,-3.386,-9.139,0.464,-3.209,-4.69,-12.74,1.26
,-9.182,-0.163,-3.185,-9.351,0.625,-3.23,-2.94,-12.11,2.03
,-9.119,-0.057,-3.302,-9.354,0.601,-3.3,0.84,-12.32,2.59
,-9.265,0.189,-3.293,-9.189,0.313,-3.491,2.94,-12.18,2.73
3180.0,-9.028,0.105,-3.496,-9.079,1.366,-3.307,2.59,-11.06,5.04
,-9.083,0.084,-3.496,-9.241,1.359,-3.321,5.81,-10.99,5.32
,-9.019,0.529,-3.422,-9.411,1.067,-3.13,8.4,-10.01,5.81
,-9.048,1.055,-3.41,-9.588,0.684,-2.927,8.96,-9.03,5.88
3256.0,-9.428,0.364,-2.965,-9.284,0.732,-3.037,0.63,-8.33,5.25
,-9.127,0.359,-2.974,-9.234,0.976,-2.733,3.29,-7.7,5.46
,-9.134,0.433,-3.01,-9.34,1.096,-2.917,5.25,-7.14,5.39
,-9.11,0.641,-3.061,-9.165,1.158,-3.022,5.95,-6.72,5.32
3331.0,-9.313,1.194,-2.845,-9.435,0.213,-3.053,0.35,-4.69,4.06
,-9.651,0.979,-2.828,-9.253,0.235,-3.393,-1.19,-4.62,3.78
,-9.349,0.706,-2.862,-9.256,0.605,-3.384,-0.84,-4.41,4.27
,-9.225,0.457,-2.742,-9.332,0.845,-3.281,-0.35,-3.36,4.55
3407.0,-9.28,0.95,-2.994,-9.39,0.364,-2.718,1.26,-1.68,5.88
,-9.387,0.861,-2.515,-9.198,0.656,-2.912,-1.68,-0.42,5.95
,-9.526,0.646,-2.402,-8.985,1.161,-3.116,-1.89,-0.91,6.02
,-9.373,0.414,-2.565,-8.964,1.527,-3.02,1.12,-1.4,6.58
3483.0,-9.186,1.625,-2.711,-9.387,0.747,-3.463,1.19,3.92,4.9
,-9.72,1.187,-2.974,-9.119,1.151,-3.592,-3.01,2.1,4.2
,-9.359,0.715,-3.25,-9.351,1.323,-3.484,-3.36,0.63,4.34
,-9.342,0.577,-3.216,-9.435,1.158,-3.57,-1.89,0.98,4.48
3559.0,-9.27,1.146,-3.357,-9.615,1.144,-3.101,-3.92,1.19,3.5
,-9.34,1.194,-3.056,-9.548,0.842,-3.321,-5.46,1.96,3.01
,-9.428,1.228,-2.986,-9.244,0.79,-3.486,-7.0,2.03,2.38
,-9.442,1.33,-3.044,-9.115,0.983,-3.446,-8.4,1.68,2.03
3634.0,-8.985,1.354,-3.266,-9.354,0.826,-2.405,-4.97,1.26,2.31
,-9.052,1.606,-2.943,-9.179,0.684,-2.369,-6.72,2.24,1.68
,-9.28,1.589,-2.632,-9.234,0.768,-2.52,-9.59,2.8,0.91
,-9.466,1.201,-2.426,-9.179,0.993,-2.737,-11.2,2.38,0.35
3710.0,-9.16,1.149,-2.814,-9.452,0.665,-3.714,2.1,5.46,0.07
,-9.28,1.089,-3.022,-9.299,0.835,-3.896,0.7,5.67,-0.49
,-9.323,0.861,-3.254,-9.476,0.907,-4.042,-0.56,5.39,-0.63
,-9.304,0.785,-3.415,-9.416,0.883,-4.109,-0.7,5.25,-0.56
3785.0,-9.258,0.928,-3.865,-9.318,0.948,-3.577,0.35,2.1,0.84
,-9.34,0.83,-3.707,-9.246,1.046,-3.489,0.63,1.75,1.12
,-9.399,0.821,-3.726,-9.373,1.11,-3.422,1.68,0.91,1.26
,-9.323,0.883,-3.508,-9.304,1.086,-3.417,2.73,0.49,1.33
3861.0,-9.292,1.007,-3.209,-9.399,0.72,-2.682,3.5,-1.05,1.19
,-9.237,1.012,-3.003,-9.32,0.675,-2.704,3.29,-0.84,1.05
,-9.16,1.005,-2.9,-9.261,0.751,-2.623,2.94,-0.35,0.91
,-9.316,0.849,-2.771,-9.268,0.957,-2.661,2.52,-0.49,0.84
3937.0,-9.21,1.106,-2.726,-9.435,0.625,-2.948,9.17,2.59,1.61
,-9.225,1.151,-2.611,-9.296,0.677,-3.206,7.84,3.43,1.26
,-9.423,0.955,-2.692,-9.079,1.015,-3.35,6.44,3.08,1.05
,-9.402,0.708,-2.73,-9.103,1.364,-3.357,6.51,3.08,1.19
4013.0,-9.253,1.362,-3.34,-9.397,0.945,-3.051,4.55,4.69,1.68
,-9.337,1.18,-3.206,-9.385,0.936,-3.151,1.19,4.55,1.4
,-9.366,0.936,-3.128,-9.349,0.878,-3.226,-0.21,4.34,1.19
,-9.299,0.943,-2.96,-9.411,0.9,-3.362,0.49,4.83,1.19
4088.0,-9.38,0.912,-3.561,-9.244,1.273,-3.812,5.11,4.55,1.33
,-9.258,0.957,-3.728,-9.416,1.182,-3.623,4.97,4.27,1.33
,-9.196,1.017,-3.759,-9.366,1.096,-3.518,4.83,4.13,1.26
,-9.148,1.07,-3.867,-9.308,1.031,-3.496,4.69,3.78,1.19
4164.0,-9.229,0.986,-3.51,-9.282,1.173,-3.321,3.08,1.26,0.14
,-9.117,1.012,-3.537,-9.263,1.074,-3.247,3.64,0.84,0.0
,-9.162,1.098,-3.482,-9.232,0.976,-3.137,3.43,0.98,-0.07
,-9.206,1.199,-3.388,-9.277,0.979,-3.008,2.52,1.12,-0.35
4240.0,-9.287,0.952,-3.072,-9.172,0.9,-3.594,-0.07,1.61,-1.19
,-9.313,0.878,-3.137,-9.105,0.998,-3.563,0.49,1.61,-1.26
,-9.311,0.809,-3.35,-9.179,1.137,-3.374,1.82,1.33,-1.19
,-9.153,0.816,-3.498,-9.32,1.242,-3.209,2.94,1.12,-1.19
4316.0,-9.359,1.151,-3.068,-9.103,1.015,-3.329,2.03,1.61,-1.82
,-9.445,1.046,-3.149,-9.182,1.144,-3.106,2.31,1.05,-1.96
,-9.385,0.873,-3.372,-9.349,1.273,-2.814,4.13,-0.07,-2.03
,-9.129,0.902,-3.429,-9.459,1.189,-2.62,5.74,-0.14,-1.82
4392.0,-9.421,0.928,-2.56,-9.447,0.957,-1.838,0.21,3.92,-3.71
,-9.196,0.792,-2.462,-9.598,0.648,-2.273,0.84,4.48,-3.5
,-9.098,0.883,-2.17,-9.541,0.11,-3.001,2.1,6.58,-3.57
,-9.179,1.029,-1.826,-9.198,-0.184,-3.422,3.15,9.03,-3.99
4467.0,-9.155,0.002,-3.836,-9.526,0.878,-3.668,14.21,8.89,-1.33
,-9.038,0.581,-3.872,-9.263,0.751,-3.577,15.89,9.87,-1.33
,-9.131,1.067,-3.63,-9.397,0.751,-3.58,13.51,11.06,-1.68
,-9.485,1.07,-3.477,-9.119,0.768,-3.769,9.94,10.57,-1.61
4543.0,-9.081,1.034,-3.642,-8.911,1.204,-4.561,11.83,9.03,-0.91
,-9.349,0.957,-3.865,-8.885,1.586,-4.209,11.55,8.05,-1.19
,-9.093,0.969,-4.154,-9.217,1.649,-3.939,12.39,6.44,-1.26
,-9.143,0.95,-4.362,-9.16,1.539,-3.609,12.88,5.53,-1.68
4618.0,-9.134,1.161,-3.022,-9.112,0.706,-3.525,-3.57,7.77,-4.9
,-9.414,0.644,-3.087,-9.347,0.905,-3.032,-3.78,6.65,-5.18
,-9.103,0.273,-3.522,-9.567,0.782,-2.828,-0.21,4.55,-4.83
,-8.964,0.352,-3.604,-9.361,0.72,-2.783,3.15,5.32,-4.48
4694.0,-9.296,0.577,-3.037,-9.289,0.304,-3.262,-1.12,9.73,-4.34
,-9.186,0.146,-3.482,-9.292,0.696,-3.319,-0.84,8.4,-3.92
,-9.076,-0.072,-3.874,-9.1,0.751,-3.498,-0.14,7.84,-3.5
,-8.959,-0.132,-3.759,-9.251,0.993,-3.372,-0.07,9.24,-2.94
4770.0,-8.99,1.23,-3.463,-9.095,0.117,-3.609,5.95,8.75,-2.24
,-8.677,1.302,-3.099,-8.741,-0.11,-3.656,2.94,12.25,-3.29
,-9.141,1.101,-3.472,-8.863,-0.089,-3.685,0.49,12.88,-3.92
,-9.055,0.689,-3.687,-8.909,-0.189,-3.563,-1.4,12.81,-3.57
4846.0,-9.153,-0.318,-3.503,-9.356,-0.141,-2.989,5.18,17.08,0.07
,-9.184,-0.593,-3.345,-9.684,-0.701,-3.281,4.69,16.8,1.4
,-8.971,-0.273,-3.168,-9.521,-0.895,-3.695,6.51,18.13,2.52
,-8.959,-0.069,-2.95,-8.957,-0.998,-3.96,6.86,19.81,3.57
4921.0,-8.815,-0.723,-4.113,-9.225,0.809,-4.92,15.61,19.04,10.5
,-9.155,-0.211,-3.996,-9.217,1.125,-4.956,17.36,19.39,11.41
,-9.253,0.371,-4.204,-8.906,1.122,-4.96,17.36,17.92,12.11
,-9.117,0.555,-4.709,-8.6,1.027,-5.068,17.43,15.68,11.83
4997.0,-8.571,1.072,-5.36,-8.6,1.419,-4.8,11.06,9.38,9.8
,-8.593,1.218,-5.279,-8.696,1.28,-4.702,11.06,10.5,9.17
,-8.559,1.572,-4.992,-8.789,1.204,-4.642,10.08,12.74,8.26
,-8.557,1.61,-4.949,-8.806,1.141,-4.681,7.14,13.37,7.28
5073.0,-8.854,1.321,-4.901,-9.119,1.756,-4.573,-1.68,10.85,4.27
,-8.729,1.436,-5.104,-8.823,1.804,-4.647,-2.31,10.22,2.87
,-9.048,1.481,-4.984,-8.48,1.907,-4.86,-3.64,8.68,1.54
,-8.823,1.582,-4.944,-8.382,2.046,-4.628,-3.99,7.49,0.49
5149.0,-8.459,2.213,-4.491,-8.725,-0.378,-4.731,0.21,4.13,-8.19
,-8.842,1.831,-4.367,-8.545,-0.55,-4.85,-2.38,5.32,-8.89
,-9.268,1.161,-4.374,-8.748,-0.517,-4.939,-4.76,4.41,-9.38
,-8.995,0.223,-4.683,-9.007,-0.605,-4.781,-5.81,2.31,-9.31
5225.0,-9.22,-0.838,-4.616,-8.552,0.168,-4.111,-0.42,4.55,-2.45
,-9.356,-1.017,-3.979,-8.641,0.672,-4.212,-0.56,3.71,0.07
,-9.275,-0.962,-3.927,-8.679,0.928,-4.334,4.41,-0.42,0.77
,-8.643,-0.486,-4.013,-8.677,0.976,-4.403,11.41,-1.4,0.49
5300.0,-8.825,0.653,-4.496,-8.748,0.141,-4.637,7.35,4.34,2.66
,-9.036,0.299,-4.774,-8.208,0.584,-4.415,6.37,4.2,3.22
,-9.167,0.038,-4.891,-8.363,1.175,-4.247,6.86,3.78,3.99
,-9.158,0.098,-4.59,-8.751,1.661,-4.298,9.1,3.78,5.04
5376.0,-9.265,1.661,-4.168,-8.538,0.701,-5.027,10.5,3.85,-0.14
,-9.057,1.369,-4.748,-8.921,0.507,-4.568,7.56,1.89,-2.03
,-8.593,1.079,-5.173,-9.182,0.589,-4.903,4.76,1.54,-2.52
,-8.413,0.895,-5.255,-9.268,0.534,-4.884,2.17,2.73,-2.1
5451.0,-8.99,0.548,-5.109,-8.952,0.699,-4.494,-2.38,3.99,1.89
,-8.746,0.421,-5.025,-8.859,0.546,-4.664,-6.16,4.41,3.64
,-8.842,0.397,-4.573,-8.552,0.433,-4.972,-10.01,4.13,5.04
,-8.99,0.553,-4.563,-8.445,0.302,-4.946,-11.62,2.87,4.9
5527.0,-8.641,0.395,-4.968,-8.574,1.302,-4.905,-9.38,0.35,4.97
,-8.916,0.61,-4.822,-8.732,1.888,-4.848,-7.42,0.28,5.11
,-9.055,0.641,-4.57,-8.873,2.422,-4.951,-6.23,-0.42,4.76
,-8.741,0.814,-4.791,-8.99,2.615,-4.884,-4.27,-1.19,4.13
5603.0,-8.878,2.661,-4.982,-8.614,0.637,-4.625,-12.95,-2.94,-1.33
,-8.662,2.493,-4.841,-8.796,0.28,-4.635,-16.24,-2.94,-2.52
,-8.528,1.993,-4.637,-8.973,-0.031,-4.664,-19.74,-3.85,-4.55
,-8.552,1.321,-4.355,-9.057,-0.402,-4.736,-20.16,-4.97,-6.02
5679.0,-9.016,-0.696,-4.386,-9.129,0.108,-4.212,-8.26,-6.23,-4.69
,-8.713,-0.675,-4.439,-9.079,0.246,-4.054,-4.48,-5.67,-3.5
,-8.741,-0.443,-4.324,-8.866,0.292,-3.783,-1.89,-4.9,-2.66
,-9.024,-0.172,-4.415,-8.763,0.469,-3.929,-1.68,-4.48,-1.89
5754.0,-8.756,0.646,-4.195,-8.997,0.57,-4.147,-2.73,-2.17,1.19
,-8.851,0.593,-4.226,-8.866,0.727,-4.279,-3.22,-0.91,1.75
,-8.995,0.328,-4.334,-9.036,0.739,-4.087,-3.01,-0.49,2.38
,-9.038,0.366,-4.204,-8.863,1.101,-4.279,-0.98,0.21,3.08
5830.0,-8.756,1.318,-4.195,-9.04,1.4,-4.503,7.07,2.45,0.14
,-8.753,1.139,-4.149,-8.839,1.553,-4.733,7.63,2.52,-1.19
,-8.765,1.144,-4.554,-8.916,1.381,-5.008,9.24,2.73,-2.73
,-9.012,1.323,-4.563,-9.052,1.194,-4.597,10.64,3.43,-3.57
5905.0,-9.083,0.881,-4.831,-8.679,-0.546,-4.69,8.19,5.18,-5.67
,-9.091,0.739,-4.417,-8.55,-0.404,-4.609,9.24,5.6,-4.69
,-9.241,0.735,-4.477,-8.878,-0.424,-4.319,10.22,4.34,-4.41
,-9.308,0.029,-4.503,-9.215,-0.507,-4.367,9.52,2.87,-4.97
5981.0,-9.198,-0.562,-4.271,-8.859,0.278,-4.288,14.28,3.01,3.22
,-8.868,-0.438,-4.501,-8.952,0.467,-4.487,14.35,3.08,4.83
,-8.784,-0.055,-4.3,-8.906,0.84,-4.477,13.86,3.78,6.02
,-8.825,0.227,-4.154,-8.882,1.043,-4.377,12.6,4.41,6.93
6057.0,-8.746,1.089,-4.549,-9.122,0.981,-4.745,14.84,2.73,7.35
,-8.631,1.256,-4.767,-9.033,0.871,-4.831,16.17,2.17,6.16
,-8.734,1.4,-4.87,-8.686,0.979,-4.776,15.47,1.89,5.46
,-8.906,1.242,-4.972,-8.595,1.397,-4.755,13.72,1.19,5.04
6133.0,-8.595,1.771,-5.063,-8.854,1.342,-4.714,13.02,-0.56,1.75
,-8.674,2.01,-5.293,-8.909,0.883,-4.779,8.96,-0.49,0.35
,-8.777,1.957,-5.145,-8.732,0.469,-4.846,2.73,0.07,0.21
,-8.768,1.694,-5.025,-8.961,0.577,-4.853,-2.94,0.28,0.21
6209.0,-9.407,0.498,-4.623,-8.43,0.663,-4.695,-0.91,-5.39,-3.85
,-9.222,0.579,-4.7,-8.54,0.524,-4.652,-0.63,-6.37,-3.5
,-9.002,0.584,-4.582,-9.012,0.203,-4.477,-0.07,-7.7,-2.87
,-8.552,0.517,-4.803,-9.229,-0.031,-4.391,-0.7,-8.82,-2.87
6284.0,-9.107,-0.091,-4.336,-8.866,0.359,-4.415,-6.51,-8.89,-0.28
,-8.954,-0.144,-4.283,-9.206,0.526,-4.353,-4.41,-8.89,0.21
,-8.89,-0.062,-4.338,-9.198,0.459,-4.401,-1.54,-10.22,0.14
,-8.667,0.091,-4.52,-9.186,0.189,-4.346,0.49,-11.2,0.35
6360.0,-8.808,0.077,-4.456,-9.409,1.287,-4.109,0.0,-12.25,3.08
,-8.775,0.383,-4.582,-8.985,1.309,-4.13,1.54,-11.69,3.78
,-8.77,0.634,-4.429,-8.77,1.189,-4.283,1.68,-10.85,4.13
,-9.093,0.955,-4.121,-8.837,1.017,-4.401,1.4,-10.29,3.78
6436.0,-8.947,0.928,-4.147,-8.875,0.838,-4.078,-3.71,-13.86,1.33
,-9.074,0.854,-3.946,-8.942,0.713,-3.946,-2.31,-12.74,1.05
,-8.971,1.019,-4.075,-8.976,0.756,-3.788,-0.49,-12.04,0.91
,-8.93,1.005,-4.142,-9.083,0.565,-3.575,-0.98,-10.78,0.98
6512.0,-8.981,0.759,-3.747,-9.313,0.184,-3.46,-3.36,-9.66,-0.35
,-9.019,0.814,-3.721,-9.497,0.0,-3.525,-4.27,-10.01,-0.35
,-9.143,0.653,-3.635,-9.194,0.007,-3.707,-4.9,-11.9,-0.14
,-9.117,0.546,-3.697,-9.024,-0.026,-3.592,-5.18,-12.81,-0.07
6587.0,-9.002,0.254,-3.405,-9.416,0.742,-3.106,5.67,-13.23,3.57
,-8.983,0.838,-3.585,-9.39,0.392,-3.386,7.14,-11.97,4.2
,-9.086,0.931,-3.369,-9.076,0.206,-3.582,4.55,-10.57,4.13
,-9.268,0.859,-3.123,-9.06,0.275,-3.281,1.61,-10.15,3.92
6663.0,-9.289,0.708,-3.29,-9.201,1.127,-3.3,10.15,-10.57,5.11
,-9.265,1.084,-3.168,-8.935,1.39,-3.369,9.1,-9.03,5.67
,-9.526,1.108,-2.903,-8.909,1.665,-3.209,6.79,-8.96,5.88
,-9.478,1.122,-3.08,-8.928,1.675,-2.967,7.21,-11.48,5.6
6738.0,-9.16,1.431,-3.034,-9.387,1.292,-3.017,-1.4,-8.61,2.1
,-9.284,1.039,-3.391,-9.301,1.359,-2.635,-1.4,-10.71,2.03
,-9.196,0.945,-3.403,-9.471,0.972,-2.536,0.7,-11.27,1.19
,-9.34,1.007,-3.195,-9.363,0.337,-3.003,2.1,-9.94,0.21
6814.0,-9.05,0.103,-3.077,-9.418,0.639,-2.603,-1.05,-10.22,1.19
,-9.282,0.201,-3.269,-9.275,0.593,-2.455,2.87,-9.8,0.7
,-9.182,0.505,-2.824,-9.363,0.78,-2.68,3.92,-8.12,1.19
,-9.536,0.689,-2.714,-9.112,1.278,-2.601,1.89,-7.84,2.03
6890.0,-9.43,1.359,-2.709,-9.263,0.392,-2.958,5.6,-5.81,1.75
,-9.299,1.213,-2.661,-9.768,0.613,-2.618,3.15,-5.18,1.82
,-9.56,0.754,-2.757,-9.349,0.842,-2.699,0.42,-5.04,1.89
,-9.452,0.268,-3.106,-9.265,0.873,-2.513,1.96,-6.65,2.24
6966.0,-9.689,0.866,-2.836,-9.273,0.715,-3.764,6.65,-7.14,2.38
,-9.244,0.852,-3.151,-9.237,1.206,-3.417,6.3,-7.77,2.31
,-9.497,0.639,-3.415,-9.397,1.639,-3.192,5.6,-7.84,2.45
,-9.469,0.385,-3.723,-9.43,1.74,-3.008,6.37,-8.47,2.87
7042.0,-9.521,1.457,-2.934,-9.409,1.134,-3.08,-3.99,-1.26,2.8
,-9.593,0.907,-3.044,-9.227,1.347,-3.197,-5.81,-2.59,2.8
,-9.383,0.766,-3.132,-9.392,1.474,-3.065,-3.99,-2.59,2.73
,-9.349,0.964,-3.053,-9.773,1.23,-3.056,-1.82,-1.68,2.45
7117.0,-9.036,1.0,-3.216,-9.478,0.792,-1.857,-3.78,-9.03,0.21
,-9.026,0.95,-2.764,-9.517,0.534,-1.826,-3.36,-7.63,0.35
,-9.354,0.931,-2.448,-9.67,0.278,-1.742,-3.57,-6.37,-0.35
,-9.325,1.084,-2.218,-9.533,0.191,-1.694,-4.76,-4.2,-0.49
7193.0,-9.591,0.184,-1.637,-9.407,1.23,-2.501,-0.14,3.29,0.63
,-9.538,0.251,-1.969,-9.474,1.433,-2.718,2.87,4.06,1.19
,-9.399,0.457,-2.201,-9.316,1.256,-2.764,5.6,4.76,1.75
,-9.344,0.814,-2.46,-9.474,0.881,-2.984,8.4,5.6,2.24
7269.0,-9.371,0.905,-3.223,-9.359,1.376,-2.264,4.76,4.2,1.26
,-9.22,1.065,-3.252,-9.828,0.768,-2.417,5.39,4.27,1.12
,-9.234,1.395,-2.97,-9.753,0.388,-2.953,4.27,4.9,0.7
,-9.177,1.603,-2.668,-9.517,0.304,-3.128,1.05,6.02,0.14
7345.0,-9.411,0.529,-3.288,-9.445,1.194,-2.465,6.51,3.29,0.63
,-9.306,1.12,-3.381,-9.541,0.785,-2.398,7.28,3.92,0.84
,-9.246,1.388,-3.242,-9.581,0.464,-2.503,4.62,4.48,0.63
,-9.261,1.409,-2.869,-9.519,0.38,-2.673,0.98,5.39,0.14
7420.0,-9.347,0.672,-2.886,-9.337,1.153,-2.958,7.21,4.2,-0.07
,-9.368,1.022,-3.12,-9.423,1.031,-2.888,8.05,4.41,0.21
,-9.323,1.153,-3.132,-9.543,0.883,-2.848,6.16,4.48,0.21
,-9.313,1.163,-3.087,-9.524,0.692,-3.046,3.64,4.9,0.07
7496.0,-9.454,0.732,-3.195,-9.366,0.979,-3.314,0.14,3.22,-0.21
,-9.39,0.696,-3.24,-9.38,1.012,-3.257,1.54,3.01,0.21
,-9.426,0.878,-3.307,-9.342,1.024,-3.075,2.52,2.87,0.7
,-9.359,0.919,-3.388,-9.442,0.823,-2.97,3.01,2.45,0.63
7571.0,-9.488,0.677,-2.943,-9.332,1.108,-2.9,2.1,1.68,0.07
,-9.529,0.751,-3.02,-9.481,0.976,-2.864,3.78,1.26,0.21
,-9.378,0.916,-2.965,-9.469,0.761,-2.929,5.25,1.61,0.28
,-9.349,1.106,-2.962,-9.421,0.663,-2.84,4.9,1.68,0.14
7647.0,-9.433,0.665,-2.931,-9.316,0.998,-3.216,3.64,1.75,0.14
,-9.361,0.804,-3.106,-9.411,0.861,-3.149,4.2,1.54,0.35
,-9.423,0.849,-3.209,-9.423,0.794,-3.02,3.78,1.61,0.49
,-9.505,0.897,-3.199,-9.366,0.873,-2.91,3.29,1.19,0.63
7723.0,-9.38,1.0,-2.943,-9.469,0.751,-2.95,3.5,1.05,0.42
,-9.292,1.106,-2.74,-9.373,0.835,-3.077,2.73,1.68,0.35
,-9.557,0.902,-2.74,-9.335,1.0,-3.187,1.89,1.68,0.28
,-9.423,0.704,-2.766,-9.306,1.005,-3.156,2.87,1.47,0.42
7799.0,-9.581,0.912,-3.111,-9.253,0.603,-3.123,1.05,1.33,-0.21
,-9.823,0.766,-3.082,-9.148,1.256,-3.254,1.89,-0.98,0.14
,-9.519,0.524,-3.195,-9.289,1.668,-3.12,3.29,-3.36,0.42
,-9.517,0.333,-3.025,-9.478,1.307,-3.044,5.88,-4.97,0.42
7875.0,-9.469,0.869,-3.118,-9.531,1.022,-2.941,-1.75,-1.26,-0.21
,-9.462,0.529,-3.044,-9.478,0.969,-2.943,-0.98,-1.19,-0.28
,-9.33,0.536,-3.084,-9.368,0.814,-2.783,1.47,-0.91,0.07
,-9.349,0.754,-3.068,-9.311,0.826,-2.711,3.29,-0.35,0.42
7950.0,-9.476,0.737,-2.551,-9.5,0.581,-2.745,3.29,0.0,0.28
,-9.356,0.771,-2.477,-9.349,0.723,-3.013,3.64,-0.28,0.14
,-9.421,0.711,-2.465,-9.28,0.916,-3.034,4.06,0.42,0.21
,-9.653,0.562,-2.501,-9.313,1.12,-2.948,5.74,-0.14,0.49
8026.0,-9.354,1.17,-2.797,-9.356,0.957,-2.615,5.46,0.98,0.14
,-9.287,1.127,-2.764,-9.457,0.916,-2.481,4.2,1.54,-0.14
,-9.474,1.096,-2.644,-9.505,0.785,-2.572,3.15,2.31,-0.35
,-9.445,1.007,-2.608,-9.407,0.823,-2.714,2.87,2.52,-0.63
8102.0,-9.363,0.89,-2.812,-9.33,0.737,-2.429,4.69,3.99,-1.96
,-9.368,0.998,-2.838,-9.569,0.615,-2.381,4.55,4.41,-2.1
,-9.502,1.065,-2.687,-9.502,0.447,-2.472,3.43,4.2,-2.1
,-9.392,0.881,-2.584,-9.344,0.421,-2.551,2.73,3.85,-2.1
8178.0,-9.268,0.572,-2.642,-9.397,0.718,-2.893,10.57,4.13,-2.03
,-9.273,0.89,-2.828,-9.5,0.443,-2.965,11.83,5.25,-2.17
,-9.392,1.043,-2.903,-9.349,0.493,-2.917,10.29,5.95,-2.1
,-9.445,0.986,-2.982,-9.299,0.704,-2.8,7.42,5.81,-1.96
8253.0,-9.454,0.799,-2.508,-9.088,0.936,-3.714,6.09,9.1,-1.68
,-9.641,0.878,-2.788,-8.832,1.402,-3.592,6.37,8.12,-1.61
,-9.581,0.696,-3.159,-9.021,1.706,-3.199,6.93,5.95,-1.26
,-9.27,0.713,-3.565,-9.555,1.529,-3.139,8.47,4.48,-1.19
8329.0,-9.708,1.139,-3.302,-9.153,0.404,-2.412,-14.21,9.87,-3.5
,-9.61,0.483,-3.307,-9.584,0.378,-2.094,-17.92,9.31,-3.22
,-9.469,0.038,-3.051,-9.935,-0.11,-2.113,-17.64,8.61,-3.15
,-9.296,0.067,-2.723,-9.375,-0.249,-2.501,-14.63,8.61,-3.29
8404.0,-9.091,0.184,-2.273,-9.665,0.526,-2.57,5.6,5.95,-0.07
,-9.033,0.833,-2.264,-9.031,0.005,-3.178,9.38,8.89,-1.12
,-8.923,1.347,-1.981,-8.921,-0.208,-3.192,7.21,14.0,-1.33
,-9.507,1.122,-2.041,-8.961,0.038,-3.326,1.54,15.47,-0.63
8480.0,-9.06,0.66,-3.254,-9.143,1.295,-3.266,6.37,18.62,-0.7
,-9.39,1.031,-3.084,-9.086,1.412,-3.111,4.55,19.81,0.0
,-9.304,1.01,-3.307,-9.17,1.208,-3.257,3.22,18.83,0.63
,-9.062,1.07,-3.34,-9.069,0.897,-3.451,1.96,19.74,1.19
8556.0,-9.421,0.519,-3.908,-8.772,0.608,-4.963,-2.52,18.41,-3.36
,-9.55,0.316,-4.257,-9.194,0.445,-4.384,2.03,15.82,-3.78
,-9.201,0.345,-4.707,-9.567,-0.002,-4.058,7.7,12.88,-4.27
,-8.847,0.414,-4.965,-9.495,-0.366,-3.661,9.31,12.11,-4.41
8632.0,-9.189,0.019,-3.235,-9.103,0.912,-3.977,3.29,13.3,0.0
,-9.016,0.926,-3.18,-8.856,0.268,-4.075,9.31,14.63,-0.7
,-9.316,1.515,-3.408,-9.15,-0.447,-3.903,11.13,13.37,-2.31
,-9.227,1.567,-3.833,-9.706,-0.931,-4.111,7.14,11.62,-3.57
8708.0,-9.631,-1.213,-4.52,-9.452,0.392,-2.943,14.0,4.06,1.19
,-9.134,-1.168,-4.803,-9.488,0.39,-2.994,23.52,2.66,1.75
,-8.559,-0.687,-4.554,-8.832,0.699,-3.264,28.84,5.6,3.71
,-8.765,0.05,-3.893,-8.581,1.024,-3.439,28.14,9.1,5.95
8783.0,-8.906,1.4,-3.51,-8.863,-0.187,-4.31,17.29,11.34,3.22
,-9.179,1.295,-3.652,-8.804,-0.275,-4.192,12.88,12.04,2.59
,-9.148,0.9,-3.857,-8.842,0.139,-4.343,8.82,12.04,3.01
,-9.136,0.242,-4.008,-9.225,0.596,-4.283,8.05,11.34,3.92
8859.0,-9.34,0.902,-4.245,-8.871,1.831,-4.312,14.77,14.91,6.23
,-9.103,1.5,-4.104,-9.495,1.397,-4.092,11.48,14.84,5.67
,-8.894,2.182,-3.884,-9.502,0.747,-4.709,6.93,16.03,4.13
,-8.6,2.101,-4.106,-8.961,0.275,-5.166,0.7,17.01,2.31
8935.0,-8.667,-0.007,-5.317,-9.021,0.73,-4.475,1.33,7.28,-2.1
,-8.457,0.175,-5.769,-9.179,1.424,-3.874,6.93,7.42,-2.1
,-8.502,0.201,-5.707,-9.332,1.692,-3.838,8.47,8.12,-1.26
,-8.758,0.194,-5.267,-9.392,1.393,-4.106,6.93,8.68,0.07
9011.0,-8.875,0.78,-4.649,-9.232,-0.792,-4.75,-4.69,3.78,-3.57
,-8.509,0.318,-4.724,-9.694,-0.924,-4.396,-6.23,3.85,-3.08
,-8.617,-0.117,-4.793,-9.758,-0.699,-4.329,-5.88,4.41,-2.1
,-9.007,-0.62,-4.647,-8.952,-0.361,-4.226,-4.48,4.97,-0.98
9086.0,-8.488,0.098,-4.056,-9.196,0.397,-3.982,10.29,0.0,3.92
,-8.44,0.608,-4.13,-9.196,-0.136,-4.061,9.66,0.49,3.01
,-8.906,0.799,-4.032,-8.856,-0.084,-4.145,6.3,0.7,2.45
,-9.237,0.668,-4.104,-8.555,0.227,-4.654,2.8,-0.7,2.24
9162.0,-8.504,0.833,-4.657,-8.519,2.486,-4.544,19.67,-6.58,-0.91
,-8.684,1.304,-4.621,-8.55,2.115,-4.381,20.93,-6.72,-2.66
,-8.775,1.713,-4.542,-9.014,1.584,-3.728,19.6,-5.32,-3.22
,-8.643,2.312,-4.558,-9.201,0.998,-4.011,16.03,-3.15,-2.73
9237.0,-9.191,0.282,-3.996,-9.533,-0.16,-4.398,-5.53,-0.35,-6.37
,-8.856,-0.187,-4.503,-9.512,-0.467,-4.434,-2.94,0.21,-5.25
,-8.856,-0.237,-4.549,-9.172,-0.538,-4.188,-0.98,1.19,-3.64
,-9.06,-0.103,-4.41,-9.019,-0.615,-4.374,-1.12,1.47,-2.31
9313.0,-9.048,-0.591,-4.283,-8.94,1.17,-4.116,-11.48,0.0,7.14
,-9.11,-0.311,-4.049,-8.942,1.776,-4.326,-11.69,0.42,8.96
,-9.129,0.256,-4.032,-8.887,2.35,-4.372,-10.85,-0.49,9.52
,-9.158,0.562,-4.08,-8.768,2.67,-4.573,-10.57,-1.75,8.96
9389.0,-8.44,2.797,-4.487,-8.933,0.715,-4.111,-9.8,-2.17,-2.24
,-8.425,2.623,-4.216,-9.057,0.122,-4.054,-11.97,-1.54,-4.9
,-8.696,2.134,-4.436,-9.141,-0.447,-4.137,-13.44,-2.52,-7.14
,-8.763,1.452,-4.537,-9.074,-0.933,-4.128,-13.93,-2.03,-7.56
9465.0,-9.165,-1.333,-3.817,-9.198,-1.091,-4.145,-5.81,-0.91,-5.74
,-9.294,-1.615,-4.154,-9.402,-1.053,-3.999,-3.22,-1.4,-4.34
,-9.146,-1.491,-4.226,-9.371,-0.78,-4.032,-1.82,-0.7,-2.24
,-9.292,-1.247,-4.051,-9.148,-0.187,-3.781,-1.68,-0.28,-0.14
9541.0,-9.134,0.127,-3.678,-8.851,1.125,-4.068,2.17,1.54,7.07
,-8.969,0.366,-3.829,-8.952,1.295,-4.365,3.85,2.03,7.35
,-8.844,0.625,-3.707,-9.005,1.196,-4.276,6.3,3.15,7.07
,-8.839,0.773,-4.039,-9.155,1.048,-4.544,8.05,3.22,6.3
9616.0,-9.148,1.12,-4.592,-8.875,1.371,-4.197,5.39,5.11,3.36
,-9.299,0.969,-4.331,-8.981,1.292,-4.379,5.67,5.25,2.59
,-9.16,1.003,-4.293,-9.131,1.015,-4.501,7.28,4.9,1.54
,-8.89,1.216,-4.154,-9.136,0.682,-4.8,8.12,4.76,0.21
9692.0,-9.045,0.538,-4.362,-9.1,0.203,-4.556,7.07,5.04,-2.17
,-8.918,0.428,-4.262,-9.007,-0.117,-4.599,8.82,4.76,-2.59
,-8.921,0.371,-4.123,-9.009,-0.495,-4.439,10.43,4.83,-3.15
,-9.167,0.321,-4.393,-8.947,-0.761,-4.221,12.25,3.64,-4.06
9768.0,-8.911,-0.78,-4.149,-8.861,0.864,-4.322,9.73,3.99,4.76
,-9.005,-0.562,-4.101,-8.993,1.039,-4.391,13.79,3.99,4.69
,-9.215,-0.232,-4.389,-9.007,0.847,-4.496,16.8,3.08,4.69
,-8.902,0.33,-4.53,-8.976,0.699,-4.432,17.99,2.87,5.74
9844.0,-8.997,0.694,-4.515,-8.746,1.369,-4.726,11.41,0.28,6.44
,-9.103,0.735,-4.59,-8.681,1.706,-4.669,11.69,-0.14,7.0
,-9.356,0.845,-4.468,-8.732,1.967,-4.58,12.6,-0.77,7.21
,-9.182,1.012,-4.647,-8.942,1.907,-4.786,13.44,-1.75,7.0
9919.0,-8.863,1.766,-4.767,-9.057,0.558,-4.29,-3.08,-3.5,2.38
,-8.804,1.579,-4.726,-8.83,0.519,-4.465,-5.88,-3.78,1.4
,-8.835,1.292,-4.274,-8.825,0.586,-4.417,-6.86,-4.06,-0.56
,-8.897,0.964,-4.396,-8.976,0.804,-4.475,-6.02,-5.53,-2.59
9995.0,-9.107,0.988,-4.439,-9.04,-0.483,-3.85,2.73,-8.33,-6.02
,-9.021,0.682,-4.42,-9.189,-0.637,-3.917,-1.26,-8.26,-4.9
,-8.906,0.175,-4.089,-9.265,-0.464,-3.994,-5.39,-8.19,-3.57
,-8.983,-0.215,-3.903,-9.241,-0.175,-3.896,-6.58,-8.33,-2.52
10071.0,-9.222,0.148,-4.087,-9.229,0.172,-3.707,0.14,-7.14,1.89
,-9.103,0.239,-4.054,-8.727,0.278,-3.922,-2.17,-5.88,3.5
,-9.045,0.304,-3.924,-8.789,0.735,-3.977,-3.85,-4.41,4.34
,-9.481,0.194,-3.491,-8.906,1.07,-3.932,-4.83,-5.46,4.06
10147.0,-9.079,1.096,-3.905,-9.311,1.041,-3.934,1.68,-6.58,2.66
,-9.055,0.998,-3.781,-8.964,1.125,-4.264,0.0,-5.88,2.17
,-9.028,0.952,-3.793,-8.799,1.132,-4.295,-0.98,-5.11,1.61
,-9.158,1.072,-3.865,-8.799,1.127,-4.113,-1.75,-4.2,0.91
10222.0,-8.921,1.235,-4.183,-9.335,0.407,-4.097,-11.27,-2.24,-1.75
,-9.234,1.163,-4.087,-8.885,0.144,-4.123,-12.25,-3.08,-2.73
,-9.225,1.041,-4.039,-8.904,0.208,-3.965,-13.79,-4.06,-3.92
,-9.284,0.84,-4.046,-9.112,0.452,-3.869,-13.72,-4.97,-4.13
10298.0,-9.292,0.581,-3.805,-9.062,-0.007,-3.501,-4.48,-8.19,-3.99
,-9.148,0.62,-3.793,-9.347,0.026,-3.867,-4.69,-7.56,-3.71
,-9.057,0.627,-3.745,-9.658,-0.433,-3.331,-6.58,-6.44,-3.22
,-8.964,0.483,-3.735,-9.395,-0.304,-3.29,-8.82,-5.04,-2.31
10373.0,-9.196,-0.065,-3.374,-9.428,0.144,-3.149,-1.75,-7.07,0.35
,-8.985,0.184,-3.173,-9.418,-0.136,-3.218,0.14,-7.0,0.91
,-8.976,0.323,-3.264,-9.033,-0.093,-3.465,0.98,-7.21,1.26
,-9.196,0.378,-3.218,-9.184,0.156,-3.266,0.7,-7.63,1.47
10449.0,-9.457,0.409,-3.238,-9.201,0.656,-3.417,8.68,-7.14,4.97
,-9.347,0.668,-3.183,-9.069,0.629,-3.139,10.01,-6.23,5.46
,-9.253,0.727,-3.223,-9.32,0.73,-3.192,9.94,-5.53,5.67
,-9.057,0.735,-3.302,-9.103,0.943,-3.455,8.54,-4.69,5.6
10525.0,-9.11,1.017,-3.53,-9.342,0.732,-3.561,7.63,-3.99,4.41
,-9.213,0.986,-3.429,-9.134,1.01,-3.625,4.9,-3.43,4.2
,-9.478,0.821,-3.302,-9.225,1.199,-3.372,2.87,-3.85,4.27
,-9.524,0.581,-3.233,-9.603,1.211,-3.273,2.94,-4.55,4.41
10601.0,-9.541,1.012,-3.223,-9.383,1.397,-3.223,3.64,-6.44,2.94
,-9.234,0.983,-3.329,-9.509,0.945,-3.247,4.69,-7.0,2.73
,-8.923,1.11,-3.331,-9.493,0.22,-3.233,5.6,-6.3,1.82
,-9.026,1.388,-3.199,-9.423,-0.117,-3.216,4.13,-5.25,0.98
10677.0,-9.39,0.065,-3.022,-9.284,0.593,-2.649,1.54,-6.79,1.68
,-9.351,0.524,-2.922,-9.411,0.436,-2.536,3.92,-5.53,2.1
,-9.366,0.84,-2.761,-9.457,0.117,-2.927,3.36,-4.55,2.45
,-9.564,0.797,-2.778,-9.215,0.12,-3.396,1.19,-4.76,2.73
10752.0,-9.103,0.328,-3.592,-9.442,1.182,-3.008,5.11,-5.39,5.11
,-9.234,0.591,-3.57,-9.261,1.275,-2.95,5.04,-4.62,5.11
,-9.316,0.883,-3.477,-9.337,1.139,-2.804,3.36,-3.78,5.11
,-9.363,1.053,-3.283,-9.497,1.012,-2.85,1.26,-3.08,4.83
10828.0,-9.445,0.905,-3.017,-9.342,0.962,-2.965,-0.63,-4.27,3.22
,-9.227,0.79,-3.005,-9.445,0.699,-3.039,0.98,-3.43,3.64
,-9.311,0.821,-2.891,-9.306,0.505,-3.252,1.82,-2.17,3.43
,-9.395,0.943,-2.955,-9.22,0.613,-3.144,2.24,-2.1,3.08
10904.0,-9.392,0.581,-3.087,-9.239,1.139,-2.675,-2.52,-1.89,3.43
,-9.351,0.471,-3.096,-9.282,1.431,-2.57,-2.8,-2.31,3.64
,-9.325,0.629,-2.907,-9.294,1.144,-2.654,-2.52,-1.96,3.99
,-9.361,0.699,-2.812,-9.371,0.687,-2.651,-1.05,-1.96,3.92
10980.0,-9.533,0.316,-2.9,-9.399,1.333,-2.441,-2.8,-1.12,3.15
,-9.433,0.165,-3.132,-9.442,1.163,-2.075,1.33,-1.4,3.57
,-9.251,0.61,-3.075,-9.675,0.546,-2.024,4.83,-0.14,3.64
,-9.184,1.082,-2.759,-9.811,-0.022,-2.431,5.11,1.61,3.43
11055.0,-9.651,-0.079,-2.742,-9.588,1.338,-3.431,9.59,0.7,4.41
,-9.253,0.498,-3.199,-9.457,0.751,-3.467,16.38,1.61,5.04
,-9.162,1.316,-3.24,-9.304,0.708,-3.47,17.08,3.5,4.76
,-9.531,1.651,-3.283,-9.17,1.278,-3.465,12.32,3.5,4.27
11131.0,-9.344,1.606,-3.367,-9.289,0.981,-2.84,4.41,2.24,2.59
,-9.325,1.491,-3.163,-9.294,1.046,-2.702,0.42,1.61,2.1
,-9.378,1.177,-2.982,-9.361,1.067,-2.515,-2.45,1.19,1.54
,-9.328,0.998,-2.912,-9.43,0.969,-2.469,-2.59,1.12,1.26
11206.0,-9.476,0.905,-2.69,-9.246,1.048,-3.242,-0.84,2.66,0.63
,-9.385,0.809,-2.826,-9.447,1.074,-3.139,0.56,2.31,0.7
,-9.304,0.742,-3.13,-9.454,0.979,-3.065,2.8,1.96,1.12
,-9.105,0.926,-3.333,-9.466,0.692,-3.039,4.83,2.24,1.33
11282.0,-9.481,0.428,-3.218,-9.385,1.106,-3.29,3.99,1.47,0.91
,-9.347,0.481,-3.439,-9.392,1.048,-3.075,6.44,1.12,1.33
,-9.306,0.835,-3.436,-9.397,1.015,-3.003,7.84,1.54,1.54
,-9.378,1.048,-3.479,-9.363,1.158,-2.826,7.35,1.47,1.61
11358.0,-9.438,1.129,-2.651,-9.246,0.885,-3.321,1.75,2.1,0.77
,-9.526,1.0,-2.697,-9.213,1.122,-3.479,1.12,1.82,0.84
,-9.55,0.694,-2.962,-9.241,1.204,-3.419,2.24,0.84,1.33
,-9.342,0.725,-3.185,-9.33,1.079,-3.175,4.97,0.56,1.89
11434.0,-9.423,0.909,-3.044,-9.361,0.967,-2.955,0.77,1.12,1.19
,-9.44,0.873,-2.931,-9.385,1.036,-2.907,1.26,1.05,0.98
,-9.43,0.811,-2.96,-9.421,0.924,-2.938,2.45,0.7,0.91
,-9.306,0.902,-2.9,-9.373,0.89,-2.96,3.92,0.91,0.98
11510.0,-9.409,0.9,-3.116,-9.351,1.141,-3.252,5.81,0.91,0.7
,-9.328,0.926,-3.163,-9.34,1.228,-3.123,5.6,1.26,0.77
,-9.351,0.974,-3.281,-9.416,1.053,-3.077,5.39,1.05,0.63
,-9.349,1.084,-3.283,-9.392,0.938,-2.998,4.55,1.05,0.56
11585.0,-9.407,0.778,-3.142,-9.234,1.232,-3.285,0.63,0.56,0.0
,-9.483,0.749,-3.204,-9.21,1.168,-3.118,1.89,0.21,0.21
,-9.375,0.871,-3.281,-9.313,0.998,-2.905,2.38,0.35,0.35
,-9.261,1.103,-3.319,-9.363,0.866,-2.699,2.31,0.28,0.21
11661.0,-9.564,0.663,-2.642,-9.337,0.969,-3.151,-1.19,1.4,-0.49
,-9.584,0.646,-2.668,-9.351,1.022,-3.297,1.19,1.12,0.0
,-9.686,0.601,-2.702,-9.308,1.077,-3.324,4.34,0.49,0.35
,-9.49,0.66,-2.955,-9.354,1.062,-3.161,7.42,-0.14,0.84
11737.0,-9.392,1.086,-3.049,-9.349,0.725,-2.867,3.08,0.98,0.63
,-9.445,1.034,-2.828,-9.301,0.986,-2.881,1.19,1.05,0.35
,-9.567,0.888,-2.797,-9.383,1.07,-2.857,0.49,0.91,0.35
,-9.399,0.708,-2.797,-9.373,1.017,-2.788,1.26,0.7,0.63
11813.0,-9.459,0.995,-2.941,-9.325,0.938,-3.312,1.61,1.89,0.56
,-9.478,0.785,-3.017,-9.301,1.077,-3.319,1.89,1.75,0.56
,-9.351,0.744,-3.166,-9.375,1.096,-3.192,3.64,1.33,0.7
,-9.332,0.794,-3.266,-9.452,1.029,-3.065,4.62,1.19,0.91
11888.0,-9.45,0.969,-2.915,-9.368,0.998,-2.67,1.61,1.68,0.14
,-9.351,0.974,-2.745,-9.397,1.005,-2.615,2.24,1.82,-0.07
,-9.447,0.926,-2.761,-9.421,1.003,-2.675,3.36,1.75,0.0
,-9.34,0.991,-2.766,-9.409,0.866,-2.735,4.13,1.82,0.0
11964.0,-9.366,0.857,-2.915,-9.304,1.024,-3.216,4.13,3.36,-0.07
,-9.399,0.785,-3.046,-9.344,1.086,-3.171,4.27,3.29,-0.14
,-9.337,0.814,-3.139,-9.397,0.995,-3.101,4.97,3.22,-0.14
,-9.268,0.921,-3.216,-9.38,0.876,-3.01,5.39,3.43,-0.14
12039.0,-9.373,0.792,-2.948,-9.39,0.828,-3.408,2.59,3.64,-0.7
,-9.426,0.723,-2.953,-9.328,0.924,-3.503,3.36,3.85,-0.49
,-9.507,0.701,-2.998,-9.256,1.079,-3.585,4.13,3.64,-0.35
,-9.423,0.756,-3.218,-9.383,1.108,-3.606,5.04,3.22,-0.14
12115.0,-9.433,0.955,-3.687,-9.33,1.117,-3.393,-0.07,1.26,-0.84
,-9.38,0.945,-3.711,-9.332,1.12,-3.214,-0.91,0.84,-0.84
,-9.289,0.96,-3.609,-9.442,0.873,-3.068,-1.61,0.56,-0.91
,-9.28,1.036,-3.482,-9.418,0.787,-3.022,-2.17,0.35,-1.05
12191.0,-9.45,0.696,-2.905,-9.366,0.725,-2.783,-2.45,-1.26,-1.4
,-9.397,0.641,-2.802,-9.375,0.756,-2.654,-0.91,-0.84,-1.26
,-9.471,0.608,-2.795,-9.375,0.811,-2.611,0.28,-0.91,-1.26
,-9.418,0.653,-2.809,-9.423,0.658,-2.525,1.4,-0.77,-1.05
12267.0,-9.335,0.625,-2.379,-9.373,0.668,-2.771,3.43,2.03,-0.7
,-9.466,0.572,-2.395,-9.177,0.998,-2.804,4.83,2.66,-0.77
,-9.49,0.56,-2.501,-9.143,1.263,-2.635,6.86,3.36,-0.56
,-9.469,0.543,-2.675,-9.409,1.141,-2.419,8.75,4.06,-0.42
12343.0,-9.569,0.579,-2.587,-9.028,0.713,-3.53,6.3,6.93,-0.98
,-9.404,0.112,-2.912,-9.203,0.948,-3.331,9.87,5.74,-0.21
,-9.273,-0.081,-3.314,-9.414,0.933,-3.379,17.01,5.32,0.14
,-9.134,0.258,-3.573,-9.263,0.704,-3.546,23.59,6.16,-0.21
12418.0,-9.122,0.914,-3.283,-9.816,1.589,-2.816,26.11,5.81,0.77
,-9.206,1.304,-3.142,-9.43,1.309,-3.065,27.37,6.37,0.0
,-9.318,1.565,-2.9,-9.179,1.149,-3.161,24.92,7.14,-0.98
,-9.586,1.687,-2.704,-8.949,1.328,-3.159,19.81,7.77,-1.82
12494.0,-9.143,1.457,-2.852,-9.227,-0.806,-2.271,5.18,8.82,-5.53
,-9.622,0.931,-2.278,-8.873,-0.414,-2.481,-0.84,9.17,-5.53
,-10.062,0.196,-2.163,-8.696,0.708,-2.594,-1.54,6.93,-4.76
,-9.667,-0.481,-2.338,-9.069,1.464,-2.52,3.99,4.62,-3.85
12570.0,-9.069,1.656,-2.513,-9.316,0.931,-3.419,7.91,15.47,-3.71
,-8.837,1.39,-2.804,-9.244,0.519,-3.695,0.14,14.91,-5.18
,-8.684,1.094,-2.955,-9.117,0.041,-3.599,-4.76,15.26,-7.0
,-9.04,1.115,-2.953,-9.368,-0.06,-3.958,-9.03,16.87,-8.68
12646.0,-9.256,-0.012,-4.389,-9.05,1.007,-4.142,-5.6,13.44,-6.72
,-9.301,0.337,-4.293,-9.136,0.692,-3.881,-2.03,11.9,-7.14
,-9.347,0.57,-4.377,-9.363,-0.112,-3.924,0.0,10.29,-8.33
,-9.088,0.821,-4.365,-9.373,-0.574,-4.109,-0.42,10.64,-8.82
12721.0,-9.091,-0.725,-4.037,-9.361,-0.763,-4.133,-8.19,13.16,-4.76
,-8.878,-0.421,-4.08,-9.368,-0.653,-3.917,-2.31,15.12,-3.92
,-9.002,-0.177,-3.788,-9.112,0.258,-3.838,-1.89,16.66,-2.45
,-9.368,-0.402,-3.915,-9.146,1.108,-3.439,-4.41,13.93,-0.56
12797.0,-9.201,1.338,-3.754,-8.947,-1.103,-4.049,-0.21,13.51,-0.49
,-9.146,0.828,-3.75,-9.088,-0.916,-3.702,-8.12,13.37,0.35
,-9.347,-0.129,-4.037,-9.32,-0.38,-3.534,-11.76,11.48,1.05
,-8.949,-0.845,-4.159,-9.215,0.443,-3.798,-9.59,11.34,2.17
12872.0,-9.32,0.629,-3.759,-9.16,0.866,-3.352,9.59,15.68,7.35
,-9.115,0.668,-3.987,-9.076,0.869,-3.623,7.35,15.54,7.7
,-8.947,0.491,-3.585,-9.265,0.538,-3.927,4.69,17.78,8.4
,-9.249,0.742,-3.116,-8.789,0.369,-4.369,5.25,18.97,8.4
12948.0,-8.818,0.34,-4.453,-9.005,0.443,-5.236,10.64,10.64,4.13
,-8.827,0.275,-4.539,-8.882,0.555,-4.91,10.22,11.06,4.41
,-8.897,0.237,-4.848,-8.99,0.591,-4.365,10.08,10.5,4.41
,-9.103,0.304,-5.126,-8.469,1.103,-4.269,10.36,9.24,4.76
13024.0,-8.514,1.61,-4.329,-8.909,0.45,-4.92,7.07,9.1,2.17
,-8.832,1.436,-4.484,-8.923,0.455,-4.867,3.43,9.31,0.91
,-9.057,1.012,-4.692,-8.916,0.488,-4.752,-1.05,9.1,0.84
,-8.959,0.596,-4.853,-8.837,0.627,-4.755,-2.59,9.03,2.03
13100.0,-8.624,0.818,-4.731,-9.244,0.38,-4.195,0.28,8.75,2.52
,-8.495,1.254,-4.676,-8.658,-0.108,-4.243,-0.49,8.89,1.54
,-9.072,1.383,-4.223,-8.5,-0.421,-4.386,-2.03,7.98,0.07
,-9.49,1.027,-3.967,-8.497,-0.426,-4.513,-4.41,4.76,-1.19
13176.0,-8.849,-0.227,-4.611,-8.906,-0.029,-4.307,10.15,5.74,1.12
,-9.246,-0.273,-4.544,-8.751,0.586,-4.173,9.59,6.16,3.01
,-9.375,-0.28,-4.398,-8.734,0.916,-4.295,6.93,5.74,4.97
,-9.229,-0.196,-4.446,-8.904,1.058,-4.25,5.39,5.39,6.93
13251.0,-9.055,0.964,-4.195,-8.631,1.251,-4.891,-1.82,3.78,5.74
,-8.641,0.847,-4.803,-8.89,1.414,-4.724,0.07,1.05,4.2
,-8.569,0.83,-4.736,-8.988,1.208,-4.774,3.64,0.63,2.52
,-8.509,1.122,-4.879,-8.99,1.003,-4.759,6.93,0.84,1.12
13327.0,-9.04,0.902,-4.743,-8.935,0.522,-4.75,-0.35,-2.45,0.14
,-8.808,0.861,-4.929,-9.005,0.23,-4.915,-0.84,-2.94,-0.35
,-8.701,0.983,-4.858,-8.856,0.084,-5.116,-2.66,-1.89,-0.21
,-8.88,0.847,-4.554,-8.839,0.105,-4.913,-5.18,-1.33,0.07
13403.0,-8.748,0.486,-4.678,-8.911,0.95,-4.116,1.12,-3.78,2.03
,-8.882,0.861,-4.262,-8.818,0.943,-4.288,1.47,-3.43,2.45
,-8.971,1.065,-4.044,-8.839,0.916,-4.276,0.77,-3.08,1.82
,-9.16,1.091,-3.984,-8.655,1.115,-4.563,0.0,-3.08,1.26
13479.0,-8.564,1.189,-4.513,-9.287,0.938,-3.939,-0.28,-4.06,-1.05
,-8.741,1.347,-4.389,-8.871,0.572,-4.274,-1.75,-3.71,-2.03
,-9.119,1.39,-4.238,-8.72,0.5,-4.386,-4.41,-3.57,-2.45
,-9.261,1.287,-4.054,-8.885,0.112,-4.611,-6.72,-3.64,-2.45
13554.0,-8.945,-0.285,-4.616,-8.775,0.179,-4.228,-11.06,-2.73,-0.14
,-9.253,-0.723,-4.506,-8.739,0.964,-4.027,-10.64,-2.73,0.84
,-8.993,-0.948,-4.695,-9.124,1.261,-3.898,-8.47,-3.78,2.17
,-8.926,-0.751,-4.36,-9.306,1.263,-3.817,-4.13,-4.48,2.87
13630.0,-9.064,1.266,-4.042,-8.887,0.132,-4.286,-2.03,-0.63,1.12
,-8.868,1.225,-4.018,-9.026,-0.06,-4.092,-2.17,0.49,0.84
,-8.684,0.792,-3.946,-9.208,-0.184,-4.073,-2.59,1.33,0.14
,-8.904,0.282,-4.044,-9.251,-0.084,-3.903,-0.49,2.45,-0.14
13705.0,-8.995,0.357,-4.25,-9.06,0.701,-4.688,9.45,5.25,1.61
,-8.997,0.457,-4.25,-9.009,0.809,-4.669,8.89,5.74,1.82
,-8.988,0.467,-4.413,-8.978,0.902,-4.424,8.47,6.51,1.82
,-9.079,0.56,-4.508,-8.935,1.244,-4.563,9.03,7.07,1.47
13781.0,-8.902,1.484,-4.712,-8.973,1.4,-4.582,14.28,8.05,-1.12
,-9.009,1.539,-4.295,-8.976,0.648,-4.219,14.35,8.05,-2.59
,-8.952,1.508,-4.386,-8.921,0.189,-4.202,14.14,6.86,-4.13
,-8.804,1.558,-4.446,-8.964,-0.182,-4.451,13.16,6.72,-5.04
13857.0,-9.033,-0.522,-4.513,-8.799,-0.469,-4.202,9.87,6.02,-3.22
,-9.184,-0.928,-4.24,-9.052,-0.239,-3.932,10.08,6.37,-0.91
,-9.079,-0.995,-4.197,-9.024,0.22,-4.35,10.22,6.44,1.82
,-8.859,-0.735,-4.281,-8.866,0.854,-4.681,10.99,6.58,4.2
13933.0,-9.153,1.06,-4.75,-8.634,1.12,-4.915,14.07,5.53,6.93
,-9.031,0.948,-4.87,-8.528,1.244,-4.927,11.41,4.34,7.42
,-8.947,0.969,-4.834,-8.643,1.563,-4.946,10.78,3.85,7.56
,-8.978,1.149,-4.929,-8.787,1.596,-4.86,10.5,2.66,7.28
14009.0,-8.815,1.424,-4.872,-8.88,1.0,-4.944,4.41,2.52,3.5
,-8.938,1.228,-4.848,-8.935,0.976,-4.996,2.87,1.47,2.59
,-8.725,1.041,-4.92,-8.878,0.849,-4.884,2.03,-0.07,1.47
,-8.643,0.988,-4.994,-8.885,0.677,-4.798,1.96,-0.77,0.21
14084.0,-8.82,0.512,-4.692,-8.863,0.476,-4.628,-0.56,-4.55,-1.19
,-8.789,0.445,-4.748,-8.995,0.392,-4.468,0.42,-5.18,-2.1
,-8.748,0.498,-4.795,-8.993,0.495,-4.403,0.49,-5.46,-2.24
,-8.801,0.517,-4.764,-9.215,0.371,-4.36,-0.63,-5.53,-1.96
14160.0,-9.15,0.199,-4.436,-8.899,0.704,-4.25,-3.85,-7.91,-1.05
,-8.995,0.06,-4.508,-8.983,0.692,-4.468,-3.36,-8.82,-0.49
,-8.784,0.156,-4.506,-9.0,0.66,-4.518,-2.38,-8.75,0.35
,-8.77,0.507,-4.42,-8.94,0.641,-4.513,-0.91,-8.12,0.7
14236.0,-8.847,0.558,-4.463,-8.926,1.115,-4.336,-1.75,-9.66,-0.21
,-8.612,0.782,-4.508,-9.016,1.027,-4.312,0.14,-9.94,-1.12
,-8.574,1.046,-4.444,-9.079,0.826,-4.233,0.77,-9.38,-1.75
,-8.768,1.139,-4.413,-8.899,0.706,-4.243,-0.49,-9.1,-2.31
14312.0,-8.866,0.663,-4.235,-9.127,0.325,-3.917,-7.98,-7.35,-2.94
,-8.863,0.457,-4.152,-9.299,0.275,-3.994,-8.82,-6.86,-3.08
,-8.957,0.318,-4.042,-9.143,0.278,-4.18,-9.24,-6.37,-2.87
,-9.117,0.266,-3.881,-8.902,0.275,-4.209,-7.28,-6.58,-2.73
14387.0,-8.689,0.424,-4.216,-9.232,0.433,-3.817,-2.59,-8.61,-2.45
,-8.65,0.459,-4.07,-9.49,0.593,-3.829,-4.55,-7.42,-1.96
,-8.949,0.34,-3.927,-9.603,0.567,-4.003,-5.04,-7.91,-1.75
,-9.033,0.302,-3.865,-9.194,0.376,-3.991,-4.69,-8.33,-1.96
14463.0,-8.976,0.215,-3.991,-9.246,1.074,-3.51,-1.82,-11.2,-0.14
,-8.677,0.273,-3.939,-9.375,0.629,-3.64,0.63,-10.92,0.07
,-8.796,0.548,-3.64,-9.256,0.208,-4.082,2.31,-9.66,-0.21
,-9.155,0.943,-3.496,-9.04,-0.191,-3.855,2.8,-9.94,-0.49
14538.0,-8.976,-0.072,-3.692,-9.548,0.771,-3.35,-0.42,-11.62,0.91
,-9.093,0.275,-3.295,-9.488,0.653,-3.465,2.1,-9.94,1.26
,-9.093,0.763,-3.23,-9.366,0.56,-3.324,3.71,-10.15,1.05
,-9.385,0.888,-3.044,-9.0,0.584,-3.144,2.73,-11.41,0.63
14614.0,-8.882,0.62,-3.075,-9.615,0.538,-3.778,2.94,-9.66,0.21
,-9.117,0.586,-3.293,-9.481,0.555,-3.642,2.66,-10.78,0.35
,-9.179,0.232,-3.62,-9.459,0.263,-3.137,4.06,-13.3,0.49
,-9.256,0.359,-3.848,-9.404,0.019,-3.039,5.67,-13.3,0.21
14690.0,-9.213,0.05,-2.95,-9.086,1.005,-3.288,4.27,-11.41,3.64
,-9.143,0.424,-2.867,-9.421,0.66,-3.295,7.77,-10.57,3.57
,-9.139,0.873,-3.221,-9.306,0.419,-2.876,9.38,-10.01,2.94
,-8.935,1.101,-3.412,-9.608,0.235,-2.606,6.65,-9.03,2.66
14766.0,-9.469,0.311,-2.661,-9.366,0.926,-2.637,0.91,-7.84,2.73
,-9.418,0.428,-2.632,-9.189,0.933,-2.632,2.94,-7.21,2.8
,-9.395,0.61,-2.728,-9.356,0.84,-2.405,5.04,-7.21,2.87
,-9.263,0.849,-2.57,-9.395,0.476,-2.735,5.39,-6.23,2.94
14841.0,-9.296,0.115,-3.312,-9.44,0.893,-3.659,2.87,-5.95,2.8
,-9.158,0.273,-3.848,-9.464,0.471,-3.293,6.09,-6.72,3.22
,-9.005,0.637,-4.156,-9.418,0.141,-2.694,6.86,-5.25,2.52
,-9.198,0.988,-4.025,-9.648,0.352,-2.268,2.66,-3.85,1.4
14917.0,-9.797,0.503,-2.371,-8.952,0.952,-2.979,3.99,-4.97,3.22
,-9.665,0.61,-2.376,-9.251,1.232,-2.809,6.86,-5.39,3.85
,-9.667,0.522,-2.704,-9.203,1.254,-2.804,8.68,-6.51,4.2
,-9.258,0.467,-3.216,-9.378,1.194,-2.338,11.2,-6.93,4.48
14993.0,-9.538,0.873,-2.156,-9.189,0.562,-2.237,-2.52,-1.54,2.31
,-9.476,0.531,-2.132,-9.39,0.651,-2.529,-3.22,-1.75,2.24
,-9.442,0.28,-2.187,-9.311,0.632,-2.472,-1.4,-1.26,2.45
,-9.289,0.256,-2.257,-9.399,0.476,-2.412,2.24,-0.63,2.8
15069.0,-9.507,0.359,-2.702,-9.395,0.436,-3.379,5.39,2.94,2.59
,-9.371,0.426,-2.819,-9.418,0.651,-3.293,6.93,3.08,2.73
,-9.495,0.462,-2.958,-9.371,0.797,-3.072,8.12,3.15,2.59
,-9.579,0.462,-3.417,-9.526,0.814,-2.936,8.47,2.59,2.73
15145.0,-9.552,0.725,-2.905,-9.469,0.735,-3.326,3.22,4.06,3.08
,-9.495,0.55,-2.769,-9.428,0.773,-3.369,3.78,3.85,3.08
,-9.342,0.613,-2.919,-9.44,0.816,-3.396,5.32,3.71,3.01
,-9.418,0.603,-3.084,-9.39,0.981,-3.245,6.51,3.22,3.01
15220.0,-9.469,0.924,-3.242,-9.375,1.108,-2.335,4.62,2.73,3.29
,-9.351,0.838,-3.247,-9.469,0.938,-1.969,3.78,2.24,3.22
,-9.251,0.907,-2.989,-9.682,0.503,-1.914,3.08,2.73,2.87
,-9.256,1.034,-2.733,-9.648,0.105,-2.266,1.61,3.71,2.45
15296.0,-9.462,0.079,-2.761,-9.282,1.402,-3.601,3.99,3.99,2.24
,-9.347,0.433,-3.259,-9.402,0.905,-3.254,7.98,4.2,2.87
,-9.249,0.981,-3.53,-9.526,0.376,-3.252,8.68,4.9,3.15
,-9.217,1.405,-3.774,-9.469,0.158,-3.333,6.23,5.32,2.73
15371.0,-9.411,0.275,-3.314,-9.399,1.005,-3.017,5.18,3.15,2.94
,-9.421,0.615,-3.532,-9.38,0.838,-2.745,7.7,2.94,3.08
,-9.332,1.151,-3.64,-9.488,0.646,-2.625,6.86,3.15,2.94
,-9.253,1.225,-3.338,-9.457,0.543,-2.656,3.08,3.36,2.59
15447.0,-9.469,0.519,-2.843,-9.328,0.955,-3.12,4.76,3.08,2.45
,-9.289,0.682,-3.08,-9.387,0.838,-3.149,6.44,3.43,2.8
,-9.251,0.861,-3.209,-9.378,0.625,-3.309,6.58,3.64,2.73
,-9.234,0.924,-3.214,-9.284,0.653,-3.352,5.11,4.06,2.59
15523.0,-9.316,0.893,-3.333,-9.421,0.701,-3.254,4.27,3.36,2.59
,-9.318,1.094,-3.429,-9.318,0.723,-3.195,3.85,3.15,2.31
,-9.33,1.115,-3.376,-9.354,0.78,-3.19,1.68,3.01,1.96
,-9.474,0.878,-3.24,-9.325,0.9,-3.149,0.0,2.94,1.68
15599.0,-9.306,0.926,-3.104,-9.208,0.909,-3.434,2.45,2.8,1.75
,-9.459,0.732,-3.135,-9.241,1.058,-3.281,2.59,2.17,1.61
,-9.363,0.641,-3.218,-9.32,1.067,-3.206,3.92,1.89,1.96
,-9.304,0.677,-3.388,-9.43,0.9,-2.972,5.95,1.68,2.03
15674.0,-9.485,0.773,-2.893,-9.344,0.854,-3.056,2.17,2.52,1.19
,-9.296,0.727,-2.917,-9.356,0.78,-3.075,3.57,2.31,1.19
,-9.306,0.833,-2.955,-9.308,0.708,-3.108,4.76,2.52,1.26
,-9.332,0.84,-2.943,-9.292,0.89,-3.149,4.55,2.87,1.33
15750.0,-9.356,0.873,-3.147,-9.361,0.742,-3.465,4.06,3.43,1.33
,-9.292,0.864,-3.168,-9.229,0.857,-3.599,3.5,3.36,1.19
,-9.361,0.809,-3.226,-9.332,0.945,-3.671,2.94,3.29,1.12
,-9.32,0.682,-3.278,-9.34,1.012,-3.704,3.22,3.43,1.26
15826.0,-9.301,0.969,-3.616,-9.38,0.715,-3.431,0.91,2.03,0.7
,-9.356,0.835,-3.494,-9.268,0.835,-3.429,-0.14,2.1,0.63
,-9.378,0.787,-3.436,-9.232,0.964,-3.357,-0.42,1.54,0.42
,-9.395,0.694,-3.364,-9.229,1.046,-3.25,-0.07,1.19,0.42
15902.0,-9.368,0.981,-3.111,-9.387,0.835,-3.065,-1.82,1.05,0.07
,-9.404,0.861,-2.972,-9.328,0.739,-3.187,-2.03,0.98,-0.07
,-9.385,0.742,-2.907,-9.373,0.727,-3.329,-1.47,1.33,0.0
,-9.38,0.833,-2.965,-9.311,0.782,-3.343,-0.35,1.47,-0.14
15978.0,-9.311,0.847,-3.331,-9.354,0.861,-3.075,0.7,1.33,0.28
,-9.356,0.883,-3.338,-9.404,0.737,-3.149,0.7,1.12,0.28
,-9.335,0.876,-3.273,-9.342,0.672,-3.044,0.42,1.12,0.21
,-9.323,0.916,-3.151,-9.328,0.68,-3.049,0.07,1.4,0.07
16053.0,-9.289,0.833,-3.061,-9.38,0.893,-2.922,1.82,1.4,0.28
,-9.294,0.912,-3.077,-9.383,0.79,-2.979,1.47,1.89,0.14
,-9.304,0.976,-2.948,-9.416,0.797,-3.08,0.35,2.24,0.0
,-9.344,0.967,-2.938,-9.395,0.847,-3.178,-0.42,2.31,-0.21
16129.0,-9.32,0.926,-3.333,-9.351,0.804,-3.12,2.17,2.52,-0.28
,-9.246,1.043,-3.372,-9.39,0.591,-3.108,1.47,2.59,-0.35
,-9.284,0.962,-3.29,-9.292,0.574,-3.118,0.14,3.01,-0.56
,-9.38,0.9,-3.257,-9.263,0.759,-3.106,-1.05,2.73,-0.84
16204.0,-9.363,0.859,-3.19,-9.287,0.749,-3.575,2.52,2.73,-0.7
,-9.363,0.852,-3.281,-9.251,0.773,-3.642,2.38,2.1,-0.7
,-9.349,0.797,-3.381,-9.277,0.83,-3.723,2.66,1.82,-0.63
,-9.311,0.73,-3.47,-9.28,0.9,-3.676,3.29,1.68,-0.77
16280.0,-9.292,0.938,-3.589,-9.335,0.464,-3.374,2.59,0.49,-1.05
,-9.361,0.876,-3.443,-9.282,0.641,-3.345,1.47,0.42,-1.19
,-9.45,0.668,-3.532,-9.347,0.835,-3.187,1.26,-0.7,-1.33
,-9.332,0.526,-3.479,-9.371,0.873,-3.056,2.03,-1.19,-0.91
16356.0,-9.404,0.866,-3.051,-9.239,0.622,-3.089,5.04,-0.98,-0.7
,-9.301,0.885,-3.015,-9.177,0.895,-2.977,4.48,-1.05,-0.91
,-9.351,0.756,-3.015,-9.225,1.134,-2.802,3.64,-0.98,-0.98
,-9.332,0.577,-3.089,-9.287,1.213,-2.383,4.06,-1.4,-0.91
16432.0,-9.56,0.96,-2.369,-9.182,0.459,-2.874,0.56,3.29,-2.38
,-9.349,0.505,-2.603,-9.39,0.737,-2.85,0.91,2.94,-2.24
,-9.32,0.266,-2.759,-9.5,0.78,-2.903,2.73,3.01,-1.96
,-9.213,0.227,-2.843,-9.411,0.816,-2.934,6.09,3.78,-1.68
16507.0,-9.351,0.754,-3.046,-9.189,0.567,-3.075,9.52,5.32,-1.54
,-9.206,0.811,-3.044,-9.505,0.318,-3.077,9.66,5.46,-1.54
,-9.299,0.818,-3.005,-9.311,0.249,-3.216,9.1,6.3,-1.4
,-9.244,0.67,-3.111,-9.555,0.105,-3.41,9.17,6.51,-1.54
16583.0,-9.227,0.182,-4.011,-9.438,1.055,-3.35,14.56,5.11,-0.49
,-8.954,0.768,-4.078,-9.332,0.735,-3.163,15.75,5.88,-0.56
,-9.143,1.096,-3.886,-9.208,0.747,-2.996,12.81,6.79,-1.47
,-9.282,1.29,-3.628,-9.158,0.916,-2.996,7.35,7.7,-1.82
16659.0,-9.105,0.974,-2.656,-9.426,0.613,-3.104,2.45,8.96,-2.8
,-9.332,0.854,-2.778,-9.34,0.723,-3.216,1.89,8.54,-2.52
,-9.182,0.756,-3.075,-9.323,0.603,-3.118,3.22,7.77,-2.73
,-9.284,0.648,-3.037,-9.34,0.39,-3.068,3.15,8.33,-3.29
16735.0,-9.1,0.266,-2.9,-9.548,0.675,-3.147,4.55,5.74,-3.01
,-8.949,0.742,-2.86,-9.342,0.086,-3.238,6.79,7.28,-3.57
,-8.997,1.079,-2.862,-9.153,-0.613,-3.587,5.6,9.17,-4.55
,-9.282,1.137,-2.962,-8.938,-0.799,-3.908,1.61,9.73,-5.39
16811.0,-9.249,-0.797,-3.999,-9.445,-0.057,-3.139,6.44,6.09,-1.54
,-9.38,-0.849,-3.781,-9.349,0.615,-3.735,6.86,8.33,0.14
,-9.464,-0.902,-3.408,-9.304,0.924,-3.979,7.35,10.01,2.24
,-9.172,-0.61,-3.084,-8.976,1.161,-3.953,8.33,12.18,3.85
16886.0,-8.93,1.216,-3.704,-9.165,0.438,-3.853,7.21,13.65,2.31
,-8.859,1.086,-3.97,-8.88,0.761,-3.838,4.27,13.37,2.8
,-9.273,0.761,-3.91,-8.938,1.177,-3.544,3.99,10.08,2.24
,-9.414,0.412,-3.752,-9.313,1.192,-3.467,5.53,6.65,0.63
16962.0,-9.416,1.158,-3.527,-8.887,0.026,-3.845,-0.77,11.06,-0.49
,-9.33,1.01,-3.788,-9.019,-0.28,-3.752,-3.78,10.64,-0.98
,-9.174,0.711,-3.917,-8.921,-0.187,-4.011,-5.81,10.85,-1.33
,-9.036,0.316,-4.011,-9.105,0.311,-3.776,-7.91,11.83,-1.12
17037.0,-9.292,0.905,-3.568,-9.117,-0.488,-3.733,2.45,17.01,1.12
,-8.782,1.235,-3.781,-8.964,-0.68,-4.001,1.05,17.22,0.84
,-8.835,1.082,-3.616,-9.026,-0.397,-3.994,-4.06,17.5,0.49
,-9.43,0.318,-3.506,-9.009,0.074,-4.31,-8.05,12.95,-0.21
17113.0,-9.165,0.349,-4.192,-8.902,0.369,-3.783,11.9,12.11,-0.84
,-9.098,0.522,-4.14,-8.875,0.902,-4.118,10.29,11.9,0.49
,-8.983,0.467,-3.948,-8.772,1.283,-4.542,8.19,12.39,1.26
,-8.918,0.144,-3.821,-8.851,1.12,-4.417,7.7,12.6,1.05
17189.0,-8.957,0.471,-4.295,-9.083,0.249,-4.348,-1.61,14.42,0.21
,-8.591,-0.11,-4.322,-9.208,0.579,-4.424,-2.66,13.51,0.07
,-8.617,-0.335,-4.324,-9.146,0.38,-4.573,0.35,14.0,0.49
,-8.892,-0.187,-4.228,-8.799,0.235,-4.707,4.69,14.28,0.21
17265.0,-8.696,0.031,-4.604,-9.201,0.048,-4.597,5.18,12.6,1.75
,-8.844,-0.084,-4.52,-9.289,0.103,-4.377,4.83,12.32,2.24
,-8.93,-0.12,-4.623,-8.916,0.038,-4.489,5.46,11.62,2.24
,-8.928,-0.017,-4.728,-8.703,0.038,-4.346,5.95,11.41,2.59
17340.0,-8.631,0.036,-4.518,-9.026,-0.45,-4.949,6.72,9.52,5.6
,-8.691,0.101,-4.64,-9.086,-0.488,-4.838,7.7,9.73,5.25
,-8.971,-0.012,-4.511,-9.026,-0.112,-5.054,7.91,9.17,4.83
,-9.194,-0.254,-4.683,-9.39,0.416,-4.695,7.7,7.35,5.18
17416.0,-9.083,0.866,-5.008,-8.727,2.077,-5.52,11.48,1.05,9.52
,-8.416,1.527,-5.049,-9.261,1.039,-5.164,11.48,0.63,7.84
,-8.205,2.149,-5.219,-8.457,0.254,-5.09,8.47,0.28,5.53
,-8.363,2.419,-5.453,-8.44,-0.462,-4.719,3.5,0.91,3.78
17491.0,-8.435,-0.593,-5.111,-9.308,0.969,-4.532,3.22,-3.64,3.71
,-8.768,0.086,-4.726,-8.921,0.821,-4.838,8.96,-0.84,5.6
,-9.072,0.792,-4.044,-8.459,0.933,-5.217,10.08,0.7,6.51
,-9.512,1.041,-4.252,-8.375,1.192,-5.188,6.58,0.7,6.37
17567.0,-8.777,1.553,-4.652,-8.806,1.17,-4.501,-10.08,-1.61,5.04
,-9.083,1.931,-4.14,-8.466,1.228,-4.611,-12.39,-2.03,4.34
,-9.368,1.804,-3.896,-8.744,0.969,-4.563,-14.21,-3.64,2.94
,-9.191,1.457,-4.214,-8.873,0.306,-4.812,-14.21,-4.76,1.75
17643.0,-8.966,-0.225,-4.736,-9.198,-0.017,-4.611,-12.39,-4.13,0.91
,-8.906,-0.378,-4.247,-9.117,0.077,-4.783,-8.19,-3.92,0.42
,-8.729,-0.258,-4.542,-9.505,0.041,-4.487,-3.08,-3.64,0.07
,-8.66,0.05,-4.628,-9.356,0.292,-4.604,-0.91,-2.66,0.42
17719.0,-9.256,0.313,-3.888,-8.938,0.062,-4.319,-3.85,-6.02,3.78
,-8.885,0.694,-4.427,-9.186,-0.091,-3.97,-2.38,-6.58,3.64
,-8.569,0.881,-4.362,-9.229,0.345,-4.128,-2.66,-5.25,4.34
,-8.729,0.467,-4.293,-8.964,0.809,-4.001,-4.76,-3.5,5.04
17795.0,-8.839,1.345,-3.944,-8.689,0.921,-4.092,5.04,-3.08,4.13
,-8.65,1.529,-3.924,-8.935,0.852,-4.061,2.52,-2.1,3.64
,-8.727,1.158,-3.795,-9.105,0.701,-4.001,0.7,-0.56,3.01
,-8.641,1.017,-4.128,-9.117,0.603,-4.245,1.54,0.14,1.96
17870.0,-8.954,0.581,-4.073,-9.117,0.761,-4.379,7.63,4.48,0.7
,-8.725,0.704,-4.097,-9.33,0.718,-4.614,9.03,4.48,0.21
,-8.806,1.041,-4.022,-9.32,0.94,-4.609,10.36,5.25,-0.84
,-8.909,1.084,-4.168,-9.263,1.307,-4.319,10.29,5.88,-1.54
17946.0,-9.141,1.486,-4.396,-8.88,1.098,-4.999,12.6,5.74,-3.5
,-8.737,1.354,-4.458,-8.983,0.924,-4.635,11.62,5.88,-3.78
,-8.705,1.158,-4.073,-9.05,0.548,-4.456,10.92,6.23,-4.83
,-8.67,1.165,-4.688,-9.093,0.081,-4.752,11.97,5.32,-6.51
18022.0,-9.088,-0.591,-4.633,-9.024,-0.302,-4.145,7.56,4.13,-3.85
,-9.201,-1.084,-4.247,-8.502,0.237,-4.558,8.68,4.2,-1.26
,-9.237,-1.034,-4.482,-8.416,0.634,-4.736,12.67,4.2,1.4
,-9.1,-0.684,-4.338,-8.847,1.046,-4.815,15.89,4.27,3.36
18098.0,-9.234,1.141,-4.637,-8.504,2.328,-5.075,11.76,1.26,2.94
,-9.428,1.146,-4.889,-8.629,2.357,-4.999,10.01,-0.35,3.22
,-9.115,1.414,-4.917,-8.866,2.084,-5.02,11.2,-1.4,3.08
,-8.768,1.933,-4.944,-8.985,1.749,-4.582,13.37,-1.82,1.82
18173.0,-8.813,1.491,-4.637,-8.921,0.354,-4.884,3.08,-5.32,-5.11
,-8.727,1.24,-4.805,-9.268,0.093,-4.511,2.87,-5.6,-6.37
,-8.741,0.969,-4.728,-9.416,0.002,-4.475,1.89,-5.67,-7.0
,-8.789,0.514,-4.676,-9.115,0.069,-4.647,0.35,-5.88,-7.0
18249.0,-9.028,0.038,-4.422,-9.036,-0.55,-4.221,-6.23,-8.68,-4.48
,-8.641,-0.072,-4.645,-9.146,-0.584,-4.173,-6.93,-9.52,-5.04
,-8.593,-0.419,-4.57,-9.323,-0.538,-4.082,-7.56,-9.66,-4.34
,-8.794,-0.486,-4.48,-9.086,0.077,-4.118,-6.16,-9.24,-3.15
18324.0,-8.837,0.613,-4.066,-9.014,0.524,-3.939,6.3,-9.66,-0.07
,-8.76,0.773,-4.247,-9.107,0.316,-3.774,3.29,-8.47,0.28
,-8.854,0.811,-4.152,-9.167,0.467,-3.802,-1.26,-7.56,0.49
,-9.012,0.732,-4.003,-9.019,0.617,-3.996,-4.62,-7.07,0.63
18400.0,-8.983,0.826,-3.874,-9.124,0.517,-4.046,-0.07,-9.73,-1.75
,-8.763,0.931,-3.888,-9.031,0.38,-4.022,-0.56,-9.59,-2.31
,-8.825,0.751,-3.936,-9.0,0.488,-4.044,-2.17,-8.96,-2.73
,-8.904,0.66,-4.087,-9.32,0.474,-3.81,-4.55,-8.68,-2.8
18476.0,-8.945,0.213,-3.826,-9.354,-0.163,-4.008,-7.56,-7.28,-3.71
,-8.906,0.031,-3.948,-9.244,0.17,-4.207,-6.72,-7.91,-3.71
,-9.048,-0.158,-3.908,-9.0,0.517,-4.322,-5.95,-8.26,-3.15
,-9.241,-0.175,-4.046,-8.923,0.639,-4.223,-3.92,-8.68,-2.38
18552.0,-8.985,0.553,-3.977,-9.184,-0.273,-3.41,-4.76,-5.11,0.42
,-9.239,0.12,-3.544,-9.234,0.287,-3.463,-8.26,-5.74,0.98
,-9.227,-0.388,-3.623,-8.957,0.802,-3.63,-7.84,-7.28,1.4
,-9.124,-0.617,-3.551,-9.067,1.127,-3.568,-4.2,-7.7,1.68
18628.0,-9.466,1.108,-3.345,-9.184,0.361,-3.281,-0.84,-8.61,0.28
,-9.457,0.773,-3.422,-9.261,0.548,-3.116,-3.78,-10.99,0.21
,-9.155,0.249,-3.312,-9.586,0.634,-3.185,-3.64,-11.76,0.56
,-8.966,0.129,-3.202,-9.316,0.51,-3.613,-0.42,-10.99,0.63
18703.0,-9.016,0.297,-3.405,-9.43,-0.254,-3.111,1.75,-6.86,1.26
,-9.127,0.175,-3.139,-9.313,-0.215,-3.453,-0.21,-5.11,1.68
,-9.17,-0.026,-3.041,-9.134,0.249,-3.429,-1.26,-4.69,2.24
,-9.351,-0.127,-2.891,-9.196,0.952,-3.199,-0.84,-4.76,2.87
18779.0,-9.11,1.333,-3.001,-9.134,0.371,-3.678,7.21,-1.75,3.29
,-9.206,1.362,-2.582,-9.043,0.818,-3.518,1.75,-0.63,2.94
,-9.517,0.849,-2.513,-9.007,1.438,-3.273,-1.89,-1.96,2.31
,-9.548,0.476,-3.264,-9.385,1.424,-3.034,0.84,-5.67,2.1
18855.0,-9.591,0.402,-2.678,-9.275,0.67,-3.656,-6.72,-2.31,1.05
,-9.988,-0.986,-3.123,-9.347,1.385,-3.293,-4.27,-6.3,2.24
,-9.335,-1.316,-3.683,-9.555,1.515,-2.714,5.74,-9.1,3.78
,-9.076,-0.383,-3.733,-9.66,1.086,-2.563,14.98,-6.93,4.41
18931.0,-9.373,0.546,-3.027,-9.27,0.297,-3.087,-1.68,-4.62,2.94
,-9.076,0.136,-3.3,-9.414,0.325,-2.711,-0.28,-4.27,3.22
,-9.002,0.093,-3.637,-9.521,0.294,-2.627,2.03,-3.36,3.5
,-9.014,0.251,-3.546,-9.428,0.244,-2.678,2.59,-1.33,4.06
19006.0,-9.5,0.127,-2.723,-9.237,0.644,-2.757,1.12,-0.77,5.18
,-9.359,0.089,-2.998,-9.306,0.806,-2.572,2.87,-0.56,6.02
,-9.153,0.218,-3.135,-9.608,0.873,-2.434,4.2,0.21,6.79
,-9.069,0.457,-3.003,-9.653,0.541,-2.625,4.55,2.03,7.0
19082.0,-9.531,0.134,-3.056,-9.201,1.271,-4.085,-0.42,3.57,5.39
,-9.253,0.069,-3.491,-9.368,1.086,-3.991,3.29,3.15,6.02
,-8.899,0.653,-3.709,-9.112,1.137,-3.922,7.35,3.99,6.23
,-9.093,1.079,-3.975,-9.273,1.24,-3.637,7.42,4.34,5.88
19157.0,-9.344,1.235,-3.561,-9.311,0.548,-3.089,-1.75,2.59,3.71
,-9.373,0.998,-3.489,-9.368,0.526,-3.151,-3.57,1.89,3.43
,-9.277,0.601,-3.364,-9.282,0.447,-3.111,-4.13,1.47,3.36
,-9.263,0.601,-3.223,-9.33,0.522,-3.037,-3.36,1.54,3.29
19233.0,-9.15,0.632,-2.991,-9.249,0.462,-3.137,-1.82,2.45,3.43
,-9.153,0.893,-2.852,-9.28,0.392,-3.262,-1.75,3.22,3.29
,-9.292,0.938,-2.86,-9.16,0.567,-3.522,-2.17,3.22,2.8
,-9.32,0.711,-3.118,-9.141,0.897,-3.503,-2.87,2.8,2.45
19309.0,-9.289,0.933,-3.628,-9.349,0.596,-3.276,1.26,3.29,3.15
,-9.318,0.739,-3.69,-9.349,0.775,-3.209,-0.98,3.15,3.01
,-9.325,0.598,-3.496,-9.273,1.034,-3.245,-1.96,3.08,3.08
,-9.311,0.577,-3.362,-9.421,0.981,-3.218,-1.75,2.8,3.29
19385.0,-9.351,0.854,-3.326,-9.179,1.017,-3.345,1.61,1.96,3.57
,-9.206,0.842,-3.317,-9.258,0.907,-3.345,2.87,2.03,3.43
,-9.237,0.835,-3.331,-9.244,0.871,-3.252,3.92,2.38,2.94
,-9.217,0.974,-3.424,-9.5,0.754,-3.305,3.99,2.1,2.66
19461.0,-9.361,0.67,-3.628,-9.332,0.986,-3.917,4.06,1.12,2.38
,-9.359,0.763,-3.819,-9.318,0.998,-3.805,4.76,0.91,2.66
,-9.351,0.921,-3.922,-9.177,1.022,-3.53,5.04,0.21,3.01
,-9.282,0.998,-3.965,-9.162,1.261,-3.254,3.85,0.35,2.94
19536.0,-9.227,1.35,-3.051,-9.292,0.665,-2.893,-3.78,0.35,0.84
,-9.261,1.146,-2.927,-9.304,0.861,-2.936,-5.53,0.21,0.35
,-9.328,0.928,-2.946,-9.273,0.902,-3.029,-5.67,-0.14,0.21
,-9.39,0.768,-2.876,-9.206,0.933,-3.068,-4.55,0.07,0.21
19612.0,-9.328,0.859,-3.027,-9.265,0.723,-3.357,-0.07,1.61,0.77
,-9.366,0.68,-2.982,-9.225,0.835,-3.372,-0.21,1.89,0.77
,-9.368,0.593,-2.962,-9.292,0.833,-3.498,0.77,2.03,0.7
,-9.512,0.534,-3.077,-9.282,0.715,-3.482,2.52,1.75,0.98
19688.0,-9.234,0.838,-3.434,-9.261,0.931,-3.527,3.5,2.17,1.47
,-9.198,0.945,-3.376,-9.22,0.952,-3.616,3.29,2.45,1.33
,-9.378,0.998,-3.424,-9.296,0.974,-3.482,2.94,1.89,1.26
,-9.232,1.029,-3.585,-9.399,0.811,-3.542,2.52,1.54,1.33
19764.0,-9.258,0.806,-3.53,-9.375,0.849,-3.295,2.24,0.7,1.12
,-9.217,0.871,-3.496,-9.249,0.811,-3.336,2.31,1.05,1.05
,-9.275,0.955,-3.503,-9.301,0.878,-3.381,1.82,0.98,0.77
,-9.203,0.993,-3.329,-9.194,0.955,-3.396,1.26,1.26,0.7
19839.0,-9.313,0.993,-3.312,-9.399,0.754,-3.147,1.89,0.77,0.56
,-9.33,0.924,-3.242,-9.342,0.771,-3.108,0.7,0.84,0.63
,-9.33,0.768,-3.128,-9.296,0.84,-3.144,0.63,0.77,0.77
,-9.359,0.794,-3.099,-9.294,0.869,-3.228,1.4,0.84,0.77
19915.0,-9.215,0.972,-3.271,-9.27,0.936,-3.609,3.71,1.4,1.12
,-9.407,0.94,-3.35,-9.354,0.94,-3.577,2.8,1.26,1.05
,-9.256,0.852,-3.503,-9.277,0.919,-3.58,2.52,0.77,1.19
,-9.306,0.847,-3.565,-9.332,0.888,-3.448,2.66,0.77,1.33
19990.0,-9.206,0.964,-3.388,-9.292,0.835,-3.099,1.33,0.56,0.77
,-9.313,0.983,-3.209,-9.318,0.859,-3.178,0.77,0.7,0.56
,-9.246,0.888,-3.204,-9.241,0.9,-3.195,1.05,0.49,0.42
,-9.275,0.826,-3.142,-9.328,0.955,-3.187,1.19,0.49,0.56
20066.0,-9.268,0.924,-3.218,-9.366,0.818,-3.269,2.45,0.98,0.7
,-9.38,0.893,-3.139,-9.27,0.861,-3.4,2.31,1.19,0.63
,-9.244,0.818,-3.118,-9.249,0.905,-3.491,2.38,1.4,0.7
,-9.313,0.885,-3.199,-9.261,0.94,-3.465,2.73,1.54,0.56
20142.0,-9.213,0.938,-3.372,-9.342,0.818,-3.087,3.36,1.33,0.77
,-9.282,0.962,-3.221,-9.328,0.83,-3.187,2.87,1.54,0.7
,-9.296,0.881,-3.245,-9.316,0.816,-3.206,2.24,1.61,0.49
,-9.323,0.857,-3.178,-9.253,0.926,-3.245,2.31,1.82,0.49
20218.0,-9.304,1.017,-3.293,-9.11,0.854,-3.613,3.71,1.89,-0.07
,-9.354,1.022,-3.262,-9.232,0.869,-3.623,2.59,2.1,-0.42
,-9.275,0.981,-3.453,-9.349,0.895,-3.592,2.31,1.33,-0.7
,-9.095,0.869,-3.597,-9.268,0.955,-3.558,2.24,0.7,-0.7
20294.0,-9.292,1.003,-3.518,-9.263,0.754,-3.348,2.52,0.35,-1.19
,-9.256,0.981,-3.472,-9.282,0.838,-3.4,1.96,-0.07,-1.61
,-9.256,0.955,-3.357,-9.16,0.878,-3.345,1.05,-0.07,-1.68
,-9.354,0.809,-3.374,-9.244,0.83,-3.149,1.19,-0.28,-1.61
20369.0,-9.418,0.634,-3.022,-9.289,0.696,-3.084,3.36,0.14,-1.12
,-9.387,0.426,-3.02,-9.347,0.725,-3.204,4.34,0.14,-0.84
,-9.454,0.402,-3.087,-9.15,0.928,-3.273,6.58,-0.07,-0.91
,-9.232,0.574,-3.175,-9.203,1.096,-3.199,8.33,0.14,-0.63
20445.0,-9.251,1.101,-3.405,-9.143,0.749,-3.57,7.56,0.21,-1.33
,-9.308,0.964,-3.269,-9.112,1.089,-3.475,5.67,0.42,-1.12
,-9.366,0.794,-3.211,-9.268,1.275,-3.283,4.55,0.63,-0.84
,-9.361,0.67,-3.467,-9.404,1.249,-3.132,5.04,0.21,-0.91
20521.0,-9.481,0.897,-3.139,-9.167,1.452,-2.733,-1.12,1.33,-3.22
,-9.368,0.763,-3.168,-9.33,1.409,-2.546,0.28,0.56,-3.15
,-9.083,0.876,-3.226,-9.459,0.972,-2.312,3.15,0.91,-3.22
,-9.021,1.204,-3.034,-9.462,0.577,-2.864,4.13,2.59,-3.85
20597.0,-9.045,0.357,-2.919,-9.529,1.034,-2.417,-1.05,4.55,-5.95
,-9.229,0.479,-3.003,-9.581,0.766,-2.472,1.19,5.81,-6.16
,-9.194,0.794,-3.108,-9.366,0.581,-2.649,2.52,6.72,-6.3
,-9.1,1.161,-2.733,-9.239,0.404,-2.52,-0.21,9.59,-6.58
20672.0,-9.083,0.534,-2.635,-9.397,-0.357,-3.58,1.4,11.69,-6.09
,-9.019,0.742,-2.752,-9.368,-0.715,-3.817,1.54,13.79,-6.44
,-9.122,0.739,-2.737,-9.675,-0.888,-3.467,-1.26,14.84,-6.3
,-9.397,0.225,-3.013,-9.124,-0.232,-3.403,-4.06,14.21,-5.53
20748.0,-8.792,0.852,-2.656,-9.234,0.402,-2.532,12.67,16.52,-0.56
,-9.548,1.175,-2.563,-8.938,-0.139,-2.807,12.88,14.7,-0.49
,-9.608,1.175,-2.675,-8.67,-0.304,-3.666,13.23,11.9,-0.07
,-9.641,0.797,-2.678,-8.916,-0.249,-3.946,13.65,9.45,-0.28
20823.0,-9.268,-0.416,-4.037,-9.165,0.668,-3.094,14.63,13.79,2.03
,-9.139,-0.591,-4.255,-9.435,1.144,-2.682,14.49,14.21,3.29
,-8.861,-0.591,-4.082,-9.241,1.433,-3.032,14.14,15.68,4.48
,-9.012,-0.074,-3.498,-8.837,1.161,-3.482,14.21,17.64,5.11
20899.0,-8.811,1.036,-4.161,-9.019,-0.495,-5.245,13.02,11.62,0.21
,-8.964,0.821,-4.458,-8.67,0.043,-5.217,10.57,12.39,0.28
,-9.28,0.268,-4.975,-8.885,0.723,-5.02,7.77,11.83,1.26
,-9.452,-0.345,-5.173,-9.363,1.395,-4.575,7.7,9.24,2.38
20975.0,-9.543,1.551,-4.231,-8.804,0.811,-4.118,7.21,8.47,0.35
,-8.811,1.443,-4.161,-9.179,0.498,-4.147,2.1,8.4,0.07
,-8.591,1.137,-4.049,-9.28,-0.108,-4.164,-1.33,10.01,-0.14
,-8.732,0.964,-4.078,-9.012,-0.208,-4.293,-2.17,11.2,-0.77
21051.0,-9.079,0.034,-4.063,-9.304,0.816,-4.188,6.09,9.31,-1.61
,-8.928,0.447,-4.295,-9.217,0.237,-4.113,8.61,7.56,-2.87
,-8.82,1.005,-4.336,-9.179,-0.517,-4.221,8.26,8.33,-3.71
,-9.064,1.204,-4.29,-9.146,-0.986,-4.386,4.13,9.87,-3.57
21127.0,-8.997,-0.95,-4.417,-8.89,0.55,-4.434,2.94,7.49,1.33
,-8.897,-0.55,-4.511,-9.079,0.447,-4.226,8.75,7.98,2.31
,-8.746,-0.031,-4.549,-9.421,0.483,-3.841,11.83,8.75,3.01
,-8.765,0.452,-4.408,-9.442,0.493,-3.939,10.85,10.36,3.71
21202.0,-9.15,0.617,-4.042,-8.813,0.842,-4.154,2.38,6.3,3.5
,-8.88,0.486,-4.281,-8.583,0.57,-4.283,3.36,5.46,2.38
,-8.619,0.498,-4.348,-8.801,-0.093,-4.357,3.22,6.02,2.66
,-8.665,0.806,-4.279,-9.244,-0.629,-4.334,3.92,6.44,2.94
21278.0,-9.584,-1.242,-4.08,-9.124,-0.029,-4.42,4.9,4.55,5.53
,-9.1,-1.457,-4.369,-9.435,0.744,-4.011,8.26,2.94,7.14
,-8.976,-1.577,-4.319,-9.093,1.108,-4.575,13.16,2.52,8.75
,-8.99,-1.017,-4.413,-8.244,1.259,-4.929,18.48,2.73,9.38
21354.0,-8.145,1.421,-4.702,-9.502,0.641,-4.422,4.55,1.96,7.49
,-8.33,1.304,-4.602,-9.397,0.928,-4.611,-0.35,3.5,7.84
,-8.792,1.003,-4.537,-9.237,1.137,-4.573,-3.92,5.18,8.4
,-9.335,0.672,-4.226,-8.997,1.173,-4.515,-5.25,5.46,9.1
21430.0,-8.533,1.333,-4.537,-8.67,1.34,-4.963,-6.02,2.73,9.66
,-8.6,1.228,-4.681,-9.038,1.268,-4.803,-8.19,2.38,8.12
,-8.49,1.34,-4.944,-8.911,1.318,-4.788,-9.1,1.75,6.51
,-8.437,1.39,-5.051,-8.811,1.551,-4.618,-10.22,1.89,5.95
21505.0,-8.823,1.888,-4.609,-9.057,1.579,-4.757,-6.58,-0.49,0.63
,-8.981,2.103,-4.671,-8.631,1.309,-4.604,-6.02,-1.68,-1.4
,-9.088,1.981,-4.752,-8.404,1.024,-4.46,-7.63,-2.59,-2.8
,-8.978,1.845,-4.922,-8.617,0.845,-4.544,-9.94,-3.22,-3.92
21581.0,-9.186,0.337,-4.566,-9.131,-0.129,-4.238,-9.1,-3.92,-7.7
,-9.294,0.151,-4.594,-9.249,-0.175,-4.379,-8.26,-4.55,-7.07
,-9.06,0.034,-4.386,-9.21,-0.139,-4.18,-8.26,-4.76,-5.6
,-9.098,-0.177,-4.147,-9.095,-0.139,-4.183,-7.98,-4.62,-4.41
21656.0,-8.856,0.129,-4.247,-8.71,0.357,-3.85,-5.18,-3.99,-0.63
,-8.77,0.421,-3.869,-8.871,-0.007,-4.018,-4.48,-3.22,-0.21
,-9.06,0.443,-3.728,-9.249,-0.213,-3.659,-3.5,-2.94,-0.07
,-8.906,0.38,-3.867,-9.201,-0.11,-3.908,-2.94,-3.15,0.14
21732.0,-8.952,0.196,-4.003,-8.897,0.861,-4.097,3.64,-2.8,3.08
,-9.038,0.347,-3.867,-8.885,0.816,-4.051,5.04,-1.89,3.29
,-8.942,0.735,-4.226,-8.983,0.809,-4.243,6.16,-1.05,2.73
,-8.978,0.84,-4.085,-9.131,0.756,-4.2,5.11,0.28,2.73
21808.0,-8.957,0.641,-4.499,-9.103,1.295,-4.329,6.23,2.17,2.03
,-8.957,0.821,-4.578,-8.947,1.522,-4.279,8.47,2.73,1.75
,-9.148,1.084,-4.472,-8.751,1.673,-4.281,10.36,2.8,1.33
,-9.15,1.153,-4.465,-8.746,1.452,-4.427,10.22,2.1,0.98
21884.0,-9.052,1.003,-4.317,-8.928,0.357,-4.145,9.1,3.92,-5.18
,-9.268,0.591,-4.362,-8.947,0.388,-3.917,8.82,3.5,-5.18
,-9.268,0.397,-4.156,-8.959,0.282,-4.054,10.22,3.57,-4.34
,-9.33,0.239,-4.025,-9.005,-0.112,-4.022,13.02,3.22,-4.06
21959.0,-9.395,-0.809,-4.13,-8.784,-0.888,-4.484,8.68,4.97,0.14
,-9.584,-1.273,-3.769,-9.148,-0.23,-4.247,8.19,4.34,2.94
,-9.198,-1.481,-3.927,-9.287,0.593,-4.398,10.5,3.22,5.46
,-8.787,-1.352,-4.341,-9.16,1.125,-4.444,14.63,3.5,7.14
22035.0,-8.892,1.378,-4.692,-8.971,2.091,-4.824,18.41,2.59,10.01
,-8.631,1.634,-4.915,-9.225,2.027,-4.52,16.31,1.96,9.38
,-8.746,1.744,-5.078,-9.014,1.936,-4.795,14.35,0.49,8.4
,-8.909,1.768,-4.977,-8.693,1.938,-4.513,12.95,-0.7,7.21
22111.0,-8.878,1.761,-4.499,-9.074,0.646,-4.53,8.12,-3.22,1.96
,-8.811,1.524,-4.592,-8.949,0.292,-4.377,5.81,-4.13,-0.14
,-8.784,1.283,-4.657,-9.076,0.081,-4.233,2.94,-4.06,-0.98
,-8.921,1.022,-4.726,-9.141,0.098,-4.168,0.21,-4.2,-0.77
22187.0,-8.885,0.203,-4.197,-8.873,0.127,-3.944,0.28,-5.53,-0.07
,-8.825,0.29,-4.066,-8.93,0.227,-4.049,-0.42,-4.62,0.42
,-8.935,0.215,-4.121,-9.172,0.254,-4.073,-1.82,-4.27,0.56
,-9.033,0.132,-4.013,-9.141,0.337,-4.149,-2.59,-4.13,0.77
22263.0,-9.04,0.579,-4.044,-8.78,0.761,-3.855,-2.73,-1.89,3.78
,-9.174,0.718,-3.735,-8.859,0.794,-3.975,-2.87,-1.89,3.92
,-9.024,0.888,-3.786,-9.127,0.818,-3.79,-2.52,-2.8,3.36
,-8.945,0.804,-3.702,-9.206,1.079,-3.965,-2.38,-4.48,2.31
22338.0,-9.136,1.108,-4.078,-9.007,0.888,-4.109,2.59,-5.74,-0.98
,-8.837,1.213,-4.312,-9.026,0.735,-4.118,0.91,-5.04,-1.4
,-8.658,1.318,-4.235,-9.005,0.866,-4.054,-2.66,-3.5,-1.47
,-8.78,1.122,-4.082,-9.222,0.859,-3.879,-6.93,-2.31,-1.4
22414.0,-9.146,0.687,-4.101,-9.107,0.433,-4.3,-5.95,-5.25,-3.57
,-9.026,0.469,-4.123,-9.105,0.526,-4.393,-5.95,-5.81,-3.71
,-9.012,0.373,-4.145,-9.067,0.546,-4.319,-4.9,-6.02,-3.36
,-9.093,0.218,-4.111,-9.146,0.443,-4.171,-3.01,-7.42,-3.43
22489.0,-9.079,0.282,-3.97,-9.098,0.792,-3.836,-4.55,-5.67,-1.47
,-9.026,0.23,-3.92,-9.184,0.955,-3.848,-4.06,-4.69,-0.84
,-8.961,0.261,-3.886,-9.103,1.027,-3.778,-3.01,-4.13,-0.28
,-8.904,0.574,-3.877,-9.186,0.847,-3.695,-1.75,-3.22,-0.21
22565.0,-9.081,0.66,-3.704,-9.179,0.838,-3.735,-9.52,-2.38,-1.89
,-8.942,0.586,-3.463,-9.021,0.644,-3.989,-8.61,-2.03,-1.82
,-9.143,0.648,-3.398,-8.933,0.488,-3.762,-7.0,-2.52,-2.31
,-9.234,0.787,-3.534,-9.143,0.507,-3.496,-4.97,-3.57,-2.52
22641.0,-9.136,0.601,-3.364,-9.428,0.06,-3.017,-4.69,-3.78,-2.24
,-9.115,0.682,-3.077,-9.325,-0.12,-3.345,-4.69,-3.15,-1.96
,-9.598,0.73,-2.69,-9.048,-0.002,-3.475,-5.74,-2.52,-2.03
,-9.761,0.459,-2.714,-9.072,0.11,-3.594,-5.74,-4.48,-1.96
22717.0,-8.892,0.062,-3.384,-9.586,0.876,-2.886,5.46,-3.5,2.38
,-8.954,0.177,-3.278,-9.509,0.708,-2.91,6.23,-3.22,2.73
,-8.942,0.61,-3.204,-9.263,0.512,-2.819,8.19,-3.5,2.73
,-9.28,0.969,-2.974,-9.127,0.421,-2.924,7.14,-2.73,2.52
22792.0,-8.93,0.337,-3.235,-9.423,0.431,-3.625,8.19,0.56,4.27
,-8.758,0.29,-3.29,-9.548,0.613,-3.367,8.47,1.54,4.41
,-9.119,0.258,-3.829,-9.481,0.675,-3.338,8.89,-0.07,4.41
,-8.959,0.285,-3.869,-9.328,0.407,-3.486,8.05,0.0,4.9
22868.0,-9.251,0.203,-3.903,-9.39,1.354,-4.154,6.16,-0.77,5.32
,-9.052,0.476,-4.18,-9.469,0.804,-4.269,10.36,-0.91,5.67
,-8.971,1.077,-4.243,-9.119,0.486,-4.262,11.9,0.42,5.25
,-9.229,1.481,-4.302,-9.239,0.658,-4.173,8.82,0.84,4.55
22944.0,-9.292,0.723,-4.149,-9.275,0.668,-3.719,-1.33,-2.8,4.48
,-9.316,0.78,-4.104,-9.16,0.881,-3.532,-2.31,-3.57,5.04
,-9.251,0.692,-3.898,-9.359,0.804,-3.563,-3.08,-3.92,5.32
,-9.356,0.536,-3.841,-9.256,0.732,-3.577,-2.94,-4.76,5.6
23020.0,-9.088,0.916,-3.542,-9.282,0.809,-3.077,-1.82,-6.02,5.74
,-9.098,0.974,-3.443,-9.124,0.735,-2.927,-1.33,-5.53,5.53
,-9.189,1.129,-3.338,-9.311,0.809,-2.867,-2.24,-5.18,5.25
,-9.28,1.096,-3.092,-9.131,1.024,-2.929,-4.34,-4.69,5.04
23096.0,-9.222,1.017,-2.984,-9.117,0.897,-3.707,-5.46,-2.94,4.06
,-9.287,0.869,-3.19,-9.009,1.376,-3.57,-5.46,-3.43,4.13
,-9.313,0.715,-3.321,-9.002,1.742,-3.149,-4.69,-3.5,4.34
,-9.313,0.579,-3.582,-9.308,1.653,-2.63,-1.89,-3.85,4.55
23171.0,-9.442,1.285,-2.343,-9.356,0.208,-3.02,-8.61,-0.56,2.03
,-9.548,0.818,-2.211,-9.162,0.648,-3.343,-8.47,-0.35,1.82
,-9.509,0.402,-2.359,-9.186,1.077,-3.506,-4.9,-0.56,2.1
,-9.351,0.201,-2.568,-9.244,1.354,-3.551,-0.49,0.07,2.66
23247.0,-9.325,1.23,-3.542,-9.227,0.888,-3.506,-0.21,1.61,3.08
,-9.217,0.962,-3.503,-9.287,0.988,-3.484,-2.52,1.12,3.15
,-9.1,0.847,-3.329,-9.256,1.043,-3.477,-2.45,1.33,3.29
,-9.265,0.763,-3.477,-9.148,1.321,-3.233,-0.63,0.84,3.43
23322.0,-9.222,1.412,-2.948,-9.136,0.713,-3.726,0.21,2.24,2.73
,-9.299,1.278,-2.85,-9.131,1.0,-3.896,-1.54,2.52,2.03
,-9.462,0.926,-3.106,-9.012,1.4,-3.743,-2.24,1.54,1.75
,-9.373,0.546,-3.482,-9.15,1.517,-3.41,-0.21,0.42,2.24
23398.0,-9.335,1.395,-3.216,-9.083,1.058,-3.159,-2.03,1.75,1.54
,-9.43,1.177,-3.132,-9.014,1.402,-3.082,-2.94,1.54,1.19
,-9.318,0.95,-3.128,-9.124,1.524,-2.802,-1.68,0.98,0.98
,-9.172,0.983,-3.175,-9.206,1.374,-2.63,0.98,1.26,1.26
23474.0,-9.186,1.242,-2.589,-9.232,0.771,-3.408,-0.77,4.48,-0.49
,-9.368,0.905,-2.647,-9.246,0.995,-3.678,-0.7,4.48,-0.77
,-9.402,0.749,-2.826,-9.265,1.084,-3.898,1.05,4.13,-0.42
,-9.373,0.689,-3.056,-9.184,1.034,-3.939,3.85,4.27,0.07
23550.0,-9.222,1.077,-3.929,-9.34,0.972,-3.563,2.8,3.5,0.63
,-9.237,1.086,-3.936,-9.375,1.019,-3.51,2.31,2.52,0.42
,-9.194,1.05,-3.79,-9.342,1.079,-3.515,1.68,1.96,0.49
,-9.351,0.976,-3.618,-9.249,1.139,-3.542,2.17,1.75,0.91
23625.0,-9.213,1.196,-3.496,-9.32,0.759,-3.376,3.5,0.63,0.91
,-9.184,1.175,-3.455,-9.277,0.78,-3.47,1.54,0.49,0.49
,-9.251,1.048,-3.381,-9.177,0.873,-3.467,0.28,0.49,0.14
,-9.301,0.854,-3.312,-9.194,1.074,-3.546,0.42,0.49,0.21
23701.0,-9.15,1.132,-3.479,-9.32,1.046,-3.187,5.74,0.0,1.33
,-9.141,1.139,-3.458,-9.39,1.017,-3.175,4.76,-0.07,1.19
,-9.284,1.043,-3.424,-9.418,0.988,-3.046,3.85,-0.56,0.91
,-9.222,1.153,-3.386,-9.375,0.962,-3.017,3.5,-0.28,0.91
23777.0,-9.342,0.883,-3.209,-9.17,1.385,-3.309,6.02,-0.49,1.26
,-9.258,0.972,-3.273,-9.299,1.144,-3.23,6.79,-0.28,1.4
,-9.203,1.125,-3.391,-9.395,0.94,-3.185,7.07,-0.14,1.47
,-9.127,1.326,-3.412,-9.363,0.838,-3.283,6.09,0.14,1.19
23853.0,-9.239,0.986,-3.348,-9.316,0.972,-3.151,4.97,0.35,0.7
,-9.227,1.07,-3.384,-9.342,0.967,-3.266,5.32,0.49,0.7
,-9.28,1.149,-3.252,-9.32,0.979,-3.41,4.55,0.7,0.77
,-9.268,1.07,-3.185,-9.246,0.938,-3.549,3.92,0.84,0.63
23929.0,-9.155,1.034,-3.613,-9.287,1.003,-3.183,3.08,0.56,0.91
,-9.232,1.098,-3.656,-9.294,0.95,-3.151,2.38,0.77,0.77
,-9.294,1.151,-3.463,-9.213,0.952,-3.058,1.26,0.91,0.56
,-9.277,1.077,-3.309,-9.277,1.015,-3.001,0.49,0.84,0.35
24004.0,-9.335,1.022,-3.144,-9.186,1.031,-3.458,2.8,1.05,0.21
,-9.33,0.974,-3.223,-9.186,0.974,-3.604,3.15,0.98,0.21
,-9.359,1.007,-3.307,-9.134,0.895,-3.546,3.85,1.05,0.21
,-9.292,1.022,-3.376,-9.232,0.931,-3.553,3.99,1.33,0.21
24080.0,-9.328,0.948,-3.522,-9.318,1.041,-3.329,4.76,0.49,0.49
,-9.383,1.036,-3.465,-9.268,0.883,-3.338,4.62,0.49,0.28
,-9.313,1.096,-3.396,-9.239,0.981,-3.29,3.71,0.56,0.14
,-9.366,1.094,-3.415,-9.268,1.129,-3.199,2.52,0.49,0.07
24155.0,-9.256,1.189,-3.154,-9.39,0.89,-3.13,3.71,0.49,-0.21
,-9.287,1.161,-3.156,-9.244,0.89,-3.247,3.08,0.35,-0.42
,-9.289,1.024,-3.118,-9.179,0.938,-3.331,2.59,0.49,-0.56
,-9.213,0.983,-3.099,-9.22,0.969,-3.336,2.66,0.56,-0.84
24231.0,-9.253,1.072,-3.269,-9.115,0.895,-2.977,3.5,0.98,-0.98
,-9.194,1.113,-3.269,-9.318,0.785,-2.924,2.94,0.98,-1.19
,-9.148,1.065,-3.175,-9.466,0.804,-3.063,2.17,1.33,-1.4
,-9.229,1.031,-3.075,-9.682,0.9,-2.915,1.75,1.61,-1.68
24307.0,-9.476,0.95,-2.888,-9.256,1.192,-3.285,9.94,1.89,-1.33
,-9.263,1.086,-2.982,-9.366,1.084,-3.408,12.11,2.45,-1.33
,-9.134,1.247,-3.132,-9.201,1.096,-3.553,12.11,3.43,-1.54
,-9.268,1.249,-3.252,-9.122,1.228,-3.419,10.64,3.78,-1.96
24383.0,-9.093,1.318,-3.283,-9.289,1.366,-2.62,5.6,4.06,-4.2
,-9.076,1.33,-3.266,-9.371,1.141,-2.35,4.41,4.41,-4.55
,-9.012,1.464,-3.068,-9.316,0.725,-2.326,2.87,5.32,-5.11
,-9.191,1.498,-2.874,-9.194,0.278,-2.534,0.77,5.81,-6.23
24458.0,-8.847,0.158,-2.556,-9.024,0.333,-3.754,0.63,10.85,-6.51
,-8.856,0.273,-2.611,-9.249,0.629,-3.781,3.5,13.09,-6.51
,-9.16,0.325,-2.84,-9.328,0.957,-3.522,4.69,14.21,-6.51
,-9.112,0.232,-3.441,-9.421,1.168,-3.142,6.02,13.51,-5.88
24534.0,-9.785,1.094,-3.199,-8.583,0.115,-3.015,0.56,18.27,-5.04
,-9.44,0.948,-3.228,-9.143,0.306,-2.637,-3.99,20.16,-4.9
,-8.971,0.639,-3.171,-9.284,0.565,-2.625,-6.44,21.77,-4.83
,-8.713,0.165,-3.295,-9.282,0.675,-2.757,-5.18,20.51,-4.76
24610.0,-9.167,0.682,-2.994,-9.234,-0.227,-3.388,0.84,23.66,-3.15
,-9.134,0.62,-3.058,-8.993,-0.33,-3.654,0.56,24.71,-3.01
,-9.055,0.349,-3.125,-8.921,-0.297,-3.518,-0.35,25.34,-2.59
,-9.237,0.007,-2.994,-8.71,0.182,-3.764,0.21,24.78,-1.33
24686.0,-8.586,0.928,-3.884,-9.569,1.426,-4.482,28.49,21.77,1.05
,-8.969,1.508,-3.85,-9.308,1.079,-4.745,27.65,23.03,0.63
,-9.115,1.828,-4.164,-8.959,0.864,-5.236,23.73,22.12,0.07
,-9.387,1.929,-4.456,-8.598,0.246,-5.638,18.34,21.42,-0.63
24762.0,-8.189,-0.593,-5.963,-9.636,0.256,-4.508,3.36,17.01,-3.01
,-8.011,-0.986,-5.602,-9.033,0.861,-4.635,4.9,17.08,-0.56
,-8.404,-0.756,-5.02,-8.552,1.309,-4.688,9.8,17.71,1.05
,-9.261,-0.182,-4.496,-9.024,1.287,-4.439,13.93,17.78,1.19
24837.0,-9.009,1.141,-4.745,-8.634,-0.95,-5.992,7.28,8.26,-1.47
,-8.756,0.479,-4.915,-8.681,-1.043,-5.977,5.25,6.44,-2.8
,-8.457,-0.043,-5.628,-9.009,-0.531,-5.384,5.04,5.88,-3.15
,-8.418,-0.474,-5.884,-9.198,0.258,-5.011,4.48,7.42,-2.31
24913.0,-9.079,1.101,-5.044,-8.851,1.273,-4.647,9.03,8.47,3.85
,-8.88,1.548,-5.128,-9.206,0.704,-4.953,4.41,7.56,3.57
,-8.65,1.685,-4.934,-9.05,0.134,-5.169,-1.4,7.21,3.85
,-8.567,1.744,-4.587,-9.177,-0.012,-5.109,-5.67,8.54,3.78
24988.0,-8.619,-0.211,-4.803,-9.064,1.017,-4.671,8.26,-4.55,-2.45
,-8.263,0.189,-4.908,-9.206,0.871,-4.547,13.72,-4.69,-3.15
,-8.26,0.632,-4.882,-9.05,0.692,-4.7,16.52,-3.5,-3.29
,-8.823,0.952,-4.681,-8.619,0.364,-4.709,13.93,-2.94,-3.78
25064.0,-8.533,0.163,-4.85,-8.366,-0.112,-4.46,1.61,-1.82,-2.1
,-8.839,0.055,-4.365,-8.476,0.022,-4.274,2.73,-1.33,-1.96
,-9.045,-0.148,-4.073,-8.789,-0.117,-4.235,5.25,-3.85,-2.52
,-8.524,-0.172,-4.621,-9.124,-0.282,-3.903,9.66,-4.76,-2.38
25140.0,-9.299,-0.278,-3.857,-8.78,0.443,-4.776,4.9,2.94,3.85
,-9.062,-0.165,-4.145,-8.899,0.438,-4.468,5.11,3.22,4.69
,-9.007,0.072,-4.149,-8.727,0.156,-4.716,5.04,3.85,4.97
,-8.985,0.354,-4.489,-8.521,-0.067,-4.472,4.13,3.92,5.25
25216.0,-8.459,0.002,-4.346,-9.179,0.945,-5.102,6.79,-1.96,3.5
,-8.454,0.45,-4.599,-9.11,0.445,-5.063,14.42,-2.31,0.91
,-8.715,0.931,-5.02,-9.162,0.105,-4.743,17.99,-2.45,-0.91
,-8.957,1.175,-5.224,-9.0,-0.029,-4.783,15.82,-2.45,-1.4
25291.0,-8.806,0.211,-4.678,-8.942,0.842,-4.886,1.33,-2.73,5.74
,-8.737,0.34,-4.118,-9.095,0.964,-4.769,1.82,-1.47,5.95
,-8.591,0.625,-4.484,-8.985,1.132,-4.874,1.61,-1.68,5.6
,-8.698,0.792,-4.745,-8.914,1.187,-4.807,0.0,-1.19,5.67
25367.0,-8.677,1.323,-4.771,-9.139,0.924,-4.736,-8.12,-2.94,3.01
,-8.43,1.347,-4.563,-9.196,0.237,-4.75,-8.82,-3.64,1.47
,-8.54,1.409,-4.336,-8.904,-0.237,-4.949,-9.31,-3.43,-0.42
,-8.808,1.378,-4.436,-8.607,-0.407,-5.138,-10.64,-3.29,-1.47
25443.0,-8.825,-0.364,-4.877,-8.997,1.376,-4.109,-10.36,-4.83,1.75
,-8.811,0.139,-4.704,-9.107,1.479,-4.106,-6.58,-5.32,0.84
,-8.77,0.715,-4.511,-9.083,1.519,-4.013,-4.27,-5.46,0.07
,-8.938,1.12,-4.3,-9.052,1.275,-3.891,-5.32,-5.25,-0.21
25519.0,-8.928,0.627,-4.034,-9.232,-0.747,-3.982,-12.18,-5.67,-4.2
,-8.454,-0.093,-4.087,-9.507,-0.656,-3.855,-10.36,-4.83,-4.06
,-8.423,-0.553,-4.322,-9.416,-0.409,-3.915,-6.86,-3.85,-3.08
,-8.78,-0.696,-4.214,-9.088,0.069,-3.704,-3.71,-2.38,-1.47
25595.0,-8.763,0.395,-3.915,-9.359,0.002,-4.389,3.57,-0.91,1.4
,-8.521,0.718,-4.068,-9.306,0.306,-4.408,0.84,0.07,1.54
,-8.82,0.505,-4.145,-9.055,0.651,-4.535,-3.08,0.98,1.61
,-9.239,0.141,-4.367,-8.875,1.05,-4.475,-3.99,1.33,2.1
25670.0,-8.674,1.589,-4.477,-8.978,0.562,-4.669,8.4,2.94,3.43
,-8.789,1.783,-4.092,-9.127,0.115,-4.678,8.12,4.55,1.75
,-9.005,1.642,-4.348,-9.074,-0.172,-4.681,6.51,4.41,-0.49
,-8.892,1.251,-4.52,-9.055,-0.01,-4.374,3.22,4.41,-1.33
25746.0,-9.22,0.086,-4.166,-8.837,0.184,-4.168,9.73,4.41,1.12
,-9.256,0.12,-4.231,-8.928,0.239,-4.214,10.5,3.15,1.05
,-8.976,0.175,-4.341,-9.038,0.153,-4.439,10.15,2.87,1.75
,-8.811,0.148,-4.24,-9.021,-0.043,-4.405,9.03,3.43,3.08
25821.0,-9.033,-0.11,-4.389,-9.155,1.653,-4.212,8.47,3.99,7.49
,-8.871,0.189,-4.441,-8.837,1.826,-4.702,10.5,4.27,8.61
,-8.966,0.665,-4.314,-8.641,1.797,-4.815,12.74,4.06,8.54
,-8.952,1.328,-4.424,-8.746,1.718,-4.81,14.0,3.99,7.7
25897.0,-8.851,1.632,-5.025,-8.725,1.364,-5.123,6.65,-0.35,2.03
,-8.875,1.62,-5.073,-8.873,1.096,-5.099,6.86,-0.77,1.33
,-8.82,1.62,-5.083,-9.024,0.857,-5.006,6.79,-0.7,0.56
,-8.76,1.46,-5.085,-9.296,0.601,-4.992,5.46,-0.56,0.0
25973.0,-9.21,0.44,-4.688,-8.543,-0.055,-4.257,-8.96,0.98,1.61
,-9.239,0.536,-4.259,-8.988,0.045,-4.212,-9.8,-0.42,1.54
,-8.902,0.026,-3.946,-9.153,0.165,-4.267,-9.45,-3.78,0.56
,-8.387,-0.079,-4.298,-9.146,0.333,-4.281,-6.02,-6.23,-0.63
26049.0,-8.93,0.644,-4.212,-9.007,0.263,-3.905,6.51,-8.47,-0.49
,-8.777,0.718,-4.111,-8.892,0.311,-3.893,4.69,-7.14,0.42
,-8.942,0.56,-3.826,-8.942,0.244,-3.838,2.66,-7.35,0.49
,-9.182,0.371,-3.798,-9.005,0.091,-4.034,2.66,-8.96,-0.14
26124.0,-9.002,0.034,-4.101,-9.206,0.615,-3.929,1.75,-8.47,2.38
,-9.095,0.179,-3.975,-8.954,0.854,-4.133,2.24,-7.56,3.01
,-9.131,0.337,-3.932,-8.885,1.091,-4.216,2.52,-6.23,3.71
,-9.162,0.479,-4.032,-8.861,1.266,-4.113,2.45,-5.53,4.2
26200.0,-9.031,1.536,-3.946,-8.89,1.158,-4.156,-1.75,-2.45,3.43
,-9.014,1.431,-3.912,-9.031,1.216,-4.324,-4.55,-3.57,1.54
,-8.983,1.383,-4.08,-9.031,1.086,-4.41,-4.76,-5.67,-0.21
,-8.811,1.275,-4.255,-8.794,1.017,-4.551,-4.2,-5.88,-0.91
26276.0,-9.002,0.948,-4.259,-9.081,-0.031,-3.905,-3.78,-5.74,-3.36
,-9.093,0.67,-4.19,-9.134,-0.232,-3.987,-5.81,-6.37,-3.36
,-9.05,0.488,-4.039,-9.294,-0.443,-4.063,-6.72,-6.58,-2.94
,-9.072,0.237,-3.972,-9.313,-0.493,-3.807,-6.86,-6.16,-2.31
26352.0,-9.478,-0.112,-3.695,-8.794,0.617,-3.613,0.84,-5.53,2.73
,-9.306,0.237,-3.786,-8.832,0.751,-3.592,2.94,-5.6,3.29
,-9.069,0.333,-3.623,-9.036,0.816,-3.453,2.87,-4.83,3.64
,-8.923,0.486,-3.609,-9.294,0.828,-3.317,2.52,-4.83,4.06
26427.0,-9.33,1.273,-3.63,-8.926,1.586,-3.386,3.71,-6.44,2.59
,-9.251,1.543,-3.599,-9.083,1.228,-3.204,3.92,-6.37,2.52
,-8.949,1.709,-3.687,-9.194,0.802,-3.245,2.8,-6.58,1.96
,-8.847,1.783,-3.544,-9.208,0.349,-3.257,0.56,-5.25,0.98
26503.0,-9.112,0.261,-3.35,-9.088,1.307,-3.065,0.0,-6.79,-0.63
,-9.206,0.44,-3.372,-9.328,0.909,-3.226,2.73,-6.79,-0.7
,-9.129,0.871,-3.235,-9.208,0.404,-3.408,3.85,-5.11,-0.7
,-9.232,1.151,-3.075,-9.234,0.163,-3.656,2.73,-3.78,-1.26
26579.0,-9.349,0.337,-3.793,-9.471,0.311,-3.254,1.12,-5.6,-0.98
,-9.323,0.876,-4.061,-9.418,-0.529,-3.329,4.27,-4.55,-1.33
,-9.148,1.232,-4.027,-9.016,-0.639,-3.455,2.1,-2.59,-1.33
,-9.036,0.995,-3.556,-8.837,0.072,-3.491,-4.83,-0.63,-0.98
26654.0,-9.079,1.251,-3.139,-9.538,-0.282,-3.084,7.49,-1.26,2.03
,-9.493,1.878,-2.998,-9.206,-0.388,-3.171,3.85,0.0,1.54
,-9.536,1.369,-2.958,-9.153,0.002,-3.455,-2.73,-1.05,1.68
,-9.438,0.325,-2.946,-9.206,0.342,-3.869,-6.09,-1.96,2.24
26730.0,-9.115,0.759,-3.838,-9.404,1.158,-3.07,8.61,-1.54,5.39
,-9.227,0.878,-3.685,-9.442,0.601,-3.396,6.23,-1.47,5.95
,-9.263,0.893,-3.479,-9.306,0.251,-3.867,4.83,-1.4,5.81
,-9.227,1.062,-2.982,-9.007,0.663,-3.953,4.13,-0.21,5.67
26806.0,-9.098,1.094,-4.015,-9.454,0.471,-3.551,12.74,-3.01,6.09
,-9.038,1.519,-3.862,-9.438,0.043,-3.86,10.15,-1.4,5.25
,-9.206,1.577,-3.687,-9.057,0.431,-3.927,4.97,-1.12,4.76
,-9.301,1.024,-3.585,-9.127,0.924,-3.821,0.28,-2.94,4.55
26882.0,-9.222,1.163,-3.63,-9.17,1.263,-2.771,7.56,-3.85,5.04
,-9.407,1.326,-3.441,-9.139,1.235,-2.63,4.76,-3.71,4.97
,-9.38,1.33,-3.197,-9.229,1.024,-2.728,2.73,-3.99,4.41
,-9.225,1.328,-2.998,-8.899,0.988,-2.891,0.84,-3.15,3.71
26957.0,-9.024,1.251,-2.996,-9.277,0.775,-3.252,0.7,-0.84,1.33
,-9.115,1.33,-3.262,-9.239,0.787,-3.049,0.56,-0.91,0.7
,-9.139,1.318,-3.312,-9.428,0.653,-2.886,-1.05,-0.56,0.56
,-9.225,1.11,-3.137,-9.447,0.593,-2.819,-3.01,-0.07,0.35
27033.0,-9.457,0.57,-2.659,-9.328,0.335,-3.654,-1.19,2.66,0.56
,-9.524,0.318,-2.663,-9.115,0.723,-3.898,-0.14,2.73,0.84
,-9.423,0.122,-2.891,-9.057,1.134,-3.762,2.8,2.24,1.47
,-9.421,0.201,-3.195,-9.177,1.338,-3.513,7.07,1.75,2.17
27109.0,-9.311,1.464,-3.166,-8.957,1.275,-3.754,5.95,2.94,2.38
,-9.596,1.139,-3.092,-8.952,1.874,-3.635,3.08,1.96,1.82
,-9.428,0.739,-3.532,-9.146,1.972,-3.132,4.2,0.07,2.1
,-9.072,0.775,-3.757,-9.445,1.476,-2.659,7.56,-0.49,2.52
27185.0,-9.612,0.792,-2.584,-9.105,0.907,-3.391,-4.2,2.1,-0.84
,-9.524,0.179,-2.599,-9.244,1.117,-3.379,-0.91,1.47,-0.49
,-9.299,0.072,-2.871,-9.356,1.141,-3.24,4.41,1.54,0.07
,-9.124,0.433,-3.283,-9.328,0.713,-3.238,8.75,2.31,0.56
27260.0,-9.349,0.479,-3.494,-9.213,1.417,-3.692,2.24,2.24,0.77
,-9.258,0.438,-3.74,-9.356,1.254,-3.309,5.18,1.96,1.33
,-9.155,0.727,-3.829,-9.543,0.749,-3.128,7.98,2.03,1.75
,-9.153,1.184,-3.824,-9.418,0.457,-3.173,8.12,2.45,1.68
27336.0,-9.351,0.443,-3.125,-9.292,1.096,-3.178,4.62,1.4,1.33
,-9.296,0.665,-3.293,-9.426,0.797,-3.199,8.47,1.75,1.75
,-9.253,1.041,-3.283,-9.268,0.625,-3.498,9.24,2.38,2.03
,-9.261,1.101,-3.223,-9.095,0.689,-3.618,8.12,2.24,1.89
27412.0,-9.158,0.876,-3.74,-9.296,0.967,-3.563,8.68,2.03,1.75
,-9.184,1.01,-3.781,-9.273,1.012,-3.537,7.35,1.96,1.82
,-9.237,0.991,-3.644,-9.301,0.976,-3.431,5.25,1.75,1.82
,-9.232,0.907,-3.587,-9.335,0.816,-3.467,4.48,1.4,1.68
27487.0,-9.306,0.778,-3.417,-9.241,0.979,-3.62,4.2,0.7,1.68
,-9.241,0.79,-3.352,-9.27,0.962,-3.711,5.67,0.77,1.89
,-9.299,0.838,-3.384,-9.143,1.022,-3.747,6.51,0.7,1.68
,-9.301,0.89,-3.551,-9.191,0.998,-3.687,7.35,0.21,1.61
27563.0,-9.306,0.948,-3.544,-9.256,0.811,-3.434,3.43,-0.35,0.91
,-9.289,1.0,-3.434,-9.282,0.852,-3.403,3.01,-0.28,0.77
,-9.34,0.95,-3.384,-9.323,0.79,-3.417,2.24,-0.42,0.49
,-9.32,0.881,-3.379,-9.282,0.852,-3.329,1.47,-0.56,0.49
27639.0,-9.304,0.95,-3.206,-9.277,0.849,-3.254,0.63,-0.28,0.84
,-9.306,0.787,-3.159,-9.229,1.024,-3.238,0.7,-0.35,0.91
,-9.232,0.775,-3.209,-9.201,1.043,-3.061,1.4,-0.63,1.12
,-9.244,0.751,-3.197,-9.325,0.926,-3.001,2.52,-0.42,1.12
27715.0,-9.273,0.759,-2.941,-9.21,1.117,-3.333,0.14,2.03,0.56
,-9.268,0.601,-2.967,-9.349,1.388,-3.218,1.12,1.89,0.63
,-9.32,0.548,-3.197,-9.584,1.407,-3.156,3.22,1.68,0.77
,-9.158,0.849,-3.367,-9.49,1.151,-3.125,5.11,2.17,0.91
27790.0,-9.347,0.876,-3.257,-9.203,1.168,-3.46,2.17,1.75,-0.07
,-9.191,0.895,-3.506,-9.304,1.144,-3.309,3.5,1.82,0.07
,-9.124,0.995,-3.534,-9.414,0.983,-3.3,3.71,2.03,0.07
,-9.194,1.01,-3.508,-9.337,0.727,-3.329,3.15,2.52,-0.21
27866.0,-9.318,0.704,-3.195,-9.395,0.503,-3.08,-1.33,2.73,-1.05
,-9.246,0.89,-3.183,-9.359,0.311,-3.082,0.42,3.01,-1.05
,-9.246,1.074,-3.061,-9.311,0.321,-3.262,0.42,3.08,-0.98
,-9.416,0.905,-2.967,-9.083,0.706,-3.577,-0.35,3.08,-0.84
27942.0,-9.083,1.082,-3.68,-9.251,0.79,-3.649,9.03,2.73,0.07
,-9.198,1.103,-3.618,-9.155,0.909,-3.759,6.3,2.87,-0.07
,-9.301,0.957,-3.597,-9.265,0.861,-3.85,4.2,2.59,0.0
,-9.363,0.854,-3.62,-9.172,0.909,-3.874,3.43,2.24,-0.07
28018.0,-9.296,0.842,-3.853,-9.258,0.761,-3.589,4.62,0.56,-0.07
,-9.253,0.833,-3.771,-9.366,0.756,-3.563,4.2,0.28,-0.21
,-9.318,0.897,-3.601,-9.316,0.797,-3.544,3.29,0.21,-0.35
,-9.361,0.811,-3.649,-9.225,0.89,-3.542,3.08,-0.49,-0.35
28093.0,-9.229,0.964,-3.496,-9.318,0.742,-3.388,3.08,-1.33,-0.35
,-9.33,0.912,-3.482,-9.232,0.771,-3.451,2.52,-1.89,-0.35
,-9.304,0.857,-3.412,-9.177,0.859,-3.479,2.1,-2.31,-0.35
,-9.395,0.854,-3.293,-9.206,0.9,-3.436,1.82,-2.17,-0.28
28169.0,-9.241,0.952,-3.266,-9.361,0.718,-3.137,-0.07,-1.75,-0.84
,-9.359,0.919,-3.092,-9.215,0.883,-3.058,-1.4,-1.4,-1.12
,-9.426,0.723,-3.08,-9.225,1.117,-3.051,-1.89,-1.75,-1.26
,-9.385,0.675,-3.034,-9.292,1.244,-3.032,-0.91,-1.82,-0.98
28244.0,-9.225,1.027,-2.9,-9.261,0.464,-2.85,0.07,0.84,-1.82
,-9.208,0.873,-2.618,-9.22,0.718,-3.065,-0.56,1.75,-1.61
,-9.464,0.584,-2.654,-9.131,0.919,-2.977,-0.14,1.54,-1.75
,-9.33,0.364,-2.723,-9.33,0.974,-2.785,1.68,1.47,-1.54
28320.0,-9.378,0.689,-2.723,-9.356,0.79,-3.929,1.75,6.09,-2.1
,-9.428,0.34,-3.094,-9.246,1.043,-3.824,3.01,4.83,-1.75
,-9.299,0.256,-3.381,-9.186,1.486,-3.506,7.14,3.5,-1.4
,-9.294,0.479,-3.695,-9.04,1.594,-3.183,11.83,3.36,-1.26
28396.0,-9.141,1.45,-3.218,-9.165,0.905,-3.154,3.85,8.54,-2.87
,-9.263,1.129,-3.41,-9.153,1.086,-2.958,2.94,6.09,-2.94
,-9.445,0.861,-3.264,-9.241,1.146,-2.615,2.66,5.11,-3.29
,-9.34,0.742,-3.204,-9.143,0.919,-2.436,3.01,5.25,-3.64
28472.0,-9.241,0.601,-2.395,-8.921,0.165,-3.242,-5.6,8.75,-5.25
,-9.514,0.385,-2.395,-8.744,0.68,-3.206,-3.85,7.98,-5.25
,-9.574,0.11,-2.804,-8.923,1.18,-3.156,-0.49,6.79,-5.04
,-9.328,-0.062,-3.101,-9.258,1.378,-2.869,3.57,6.72,-4.55
28548.0,-9.665,1.079,-2.735,-8.713,-0.089,-4.281,-0.21,12.25,-4.55
,-9.459,0.732,-3.19,-8.557,0.112,-4.034,-2.31,10.15,-5.04
,-9.301,0.357,-3.64,-8.842,-0.045,-3.927,-2.52,9.45,-5.74
,-9.265,-0.189,-3.9,-9.277,-0.127,-3.716,-0.7,9.59,-6.16
28623.0,-9.878,-0.335,-3.02,-8.897,1.558,-3.161,6.44,10.99,-1.33
,-9.653,-0.498,-2.778,-9.155,1.694,-3.376,10.15,7.56,-1.05
,-9.062,-0.124,-2.869,-9.167,1.244,-3.558,15.61,6.3,-0.56
,-8.914,0.751,-3.084,-9.093,0.498,-3.731,19.67,8.26,-0.42
28699.0,-8.746,0.002,-3.79,-9.718,-0.371,-4.458,-9.1,16.66,-1.4
,-8.583,-0.141,-4.032,-9.361,-0.658,-4.31,-7.28,16.66,-1.26
,-8.983,-0.043,-4.355,-9.201,-0.778,-3.927,-5.32,16.66,-1.12
,-9.39,-0.196,-4.398,-9.009,-0.481,-4.089,-5.67,16.87,-0.28
28775.0,-8.957,-0.002,-4.326,-9.296,0.529,-4.666,6.93,16.66,6.37
,-9.239,0.246,-4.312,-8.952,0.646,-4.803,6.16,16.38,6.44
,-9.354,0.28,-4.649,-8.67,0.849,-4.712,5.18,14.0,6.65
,-9.105,0.44,-4.98,-8.734,1.048,-4.556,5.04,12.67,7.21
28851.0,-9.105,1.101,-4.331,-8.949,0.608,-4.803,8.68,3.99,3.43
,-9.21,1.177,-4.346,-8.703,0.254,-4.7,9.17,2.8,2.87
,-9.177,1.223,-4.597,-8.873,0.29,-4.396,9.31,2.73,3.08
,-8.993,1.05,-4.666,-8.978,0.648,-4.401,7.42,3.57,3.22
28926.0,-9.088,0.936,-4.494,-8.547,0.096,-4.429,5.88,3.08,2.59
,-9.497,0.976,-4.379,-8.538,0.505,-4.257,4.55,1.05,1.89
,-9.471,0.675,-4.52,-8.847,0.821,-3.96,2.94,-2.38,1.47
,-8.938,0.189,-4.59,-9.165,0.945,-3.927,1.96,-4.06,1.61
29002.0,-9.263,0.613,-4.209,-8.638,1.082,-3.321,9.87,-2.17,1.61
,-9.292,0.074,-4.197,-9.184,1.074,-3.233,7.07,-2.52,3.01
,-8.772,0.17,-3.905,-9.361,0.567,-3.616,7.07,-0.7,4.34
,-8.67,0.754,-3.271,-8.997,0.062,-3.69,9.31,1.96,4.13
29077.0,-8.756,-0.648,-3.74,-9.873,0.096,-3.52,5.67,1.54,1.54
,-8.33,-0.773,-3.975,-9.835,0.452,-3.592,10.64,3.64,2.24
,-8.61,-0.589,-3.697,-9.079,0.45,-3.824,13.79,6.79,3.64
,-9.368,-0.273,-3.676,-8.452,0.584,-4.123,16.17,8.33,5.32
29153.0,-8.576,0.983,-3.845,-8.713,2.046,-4.101,7.56,10.15,7.7
,-8.837,1.472,-3.812,-8.976,2.103,-4.491,5.6,9.66,6.23
,-8.815,1.651,-3.975,-9.158,1.661,-4.992,4.34,9.31,3.85
,-8.641,1.933,-4.02,-9.265,0.852,-5.31,4.83,10.22,1.61
29229.0,-9.067,0.225,-5.334,-8.842,1.902,-4.19,-6.72,5.18,0.91
,-8.763,0.089,-5.441,-9.215,1.761,-3.967,-3.43,4.83,1.96
,-8.658,0.462,-5.319,-9.086,1.082,-4.31,-0.07,5.53,2.24
,-8.748,1.165,-5.039,-9.15,0.615,-4.362,0.49,6.79,2.45
29305.0,-9.189,0.491,-4.64,-8.995,-0.584,-4.446,-18.48,5.04,0.77
,-9.083,0.242,-4.743,-8.696,-0.538,-4.85,-16.87,3.85,0.35
,-9.031,-0.057,-4.992,-8.782,-0.067,-4.858,-15.82,1.82,-0.07
,-8.928,-0.227,-4.635,-8.849,0.811,-4.657,-13.23,0.98,0.77
29381.0,-8.89,1.424,-4.53,-8.425,1.031,-4.798,2.03,-2.87,1.89
,-8.997,1.677,-4.398,-8.823,0.991,-5.097,0.42,-3.36,0.0
,-8.648,1.723,-4.508,-9.234,0.713,-4.862,-0.84,-4.69,-1.82
,-8.569,1.34,-4.582,-9.378,0.529,-4.659,-2.66,-5.88,-3.85
29456.0,-9.196,0.369,-4.606,-8.94,0.921,-3.855,-1.75,-5.53,-1.61
,-9.21,0.352,-4.645,-8.854,0.859,-4.001,-0.7,-5.95,-0.63
,-9.167,0.572,-4.592,-8.725,0.684,-3.8,0.28,-6.09,-0.07
,-9.21,0.826,-4.35,-8.696,0.302,-3.798,-0.28,-6.23,0.0
29532.0,-8.909,-0.191,-3.745,-9.103,-0.163,-4.111,-5.11,-4.13,-2.03
,-9.208,-0.33,-3.951,-9.306,-0.227,-3.941,-2.24,-3.71,-1.4
,-9.385,-0.364,-3.972,-9.203,0.124,-4.121,-0.14,-3.5,-0.28
,-9.344,-0.342,-3.941,-9.043,0.407,-3.872,1.96,-3.36,1.05
29608.0,-8.849,0.546,-3.611,-9.225,1.206,-4.054,4.83,-0.21,4.06
,-8.77,0.562,-3.728,-9.052,1.194,-4.125,5.39,-0.14,3.5
,-8.741,1.024,-3.924,-9.191,0.897,-4.221,6.93,0.84,3.29
,-9.0,1.259,-3.896,-8.918,0.785,-4.413,7.07,1.89,2.94
29684.0,-8.871,0.821,-4.511,-8.859,1.575,-4.19,10.22,1.47,0.07
,-9.055,1.005,-4.336,-8.981,1.694,-4.034,11.76,2.24,-0.56
,-9.009,1.292,-4.183,-9.371,1.206,-4.2,12.74,2.66,-1.82
,-9.016,1.412,-4.221,-9.466,0.495,-4.357,13.23,2.73,-3.5
29759.0,-9.383,-0.132,-4.338,-9.062,0.127,-3.967,3.5,3.71,-3.15
,-9.435,-0.38,-4.073,-9.234,0.005,-4.025,6.37,3.5,-0.63
,-9.206,-0.361,-4.171,-8.871,-0.215,-4.006,10.15,3.15,0.77
,-9.083,-0.158,-4.171,-8.624,-0.574,-3.857,13.16,4.2,0.98
29835.0,-8.768,-0.78,-3.802,-9.177,0.921,-4.116,7.07,2.87,6.51
,-9.0,-0.751,-3.836,-9.072,0.816,-4.24,11.55,2.52,6.44
,-9.06,-0.136,-3.872,-8.839,0.766,-4.109,15.05,2.73,7.21
,-9.155,0.433,-4.034,-8.624,0.718,-4.417,16.1,2.87,8.47
29910.0,-8.672,0.914,-4.257,-8.789,1.23,-4.635,12.04,3.71,9.1
,-9.088,1.007,-4.202,-8.715,1.429,-4.666,12.95,3.36,8.33
,-9.067,1.211,-4.341,-8.842,1.4,-4.85,13.16,3.01,7.28
,-8.99,1.342,-4.468,-8.945,1.534,-4.838,11.97,3.01,6.37
29986.0,-8.897,1.79,-4.872,-8.691,0.823,-4.539,3.01,3.57,2.31
,-9.052,1.855,-4.874,-8.61,0.696,-4.48,0.21,3.43,1.68
,-9.048,1.409,-4.606,-9.031,0.601,-4.226,-3.36,2.59,0.84
,-8.99,0.995,-4.302,-9.217,0.467,-4.267,-4.2,0.07,-0.63
30062.0,-9.146,0.345,-4.367,-8.861,0.495,-4.338,-1.89,-4.69,-3.29
,-9.005,0.235,-4.331,-8.978,0.419,-4.212,-1.75,-4.27,-2.24
,-9.124,0.395,-4.154,-8.897,0.565,-4.168,-0.56,-4.2,-1.75
,-8.961,0.514,-4.417,-9.036,0.493,-4.111,0.49,-4.76,-1.54
30138.0,-9.225,0.302,-3.939,-9.122,0.608,-4.008,-2.24,-6.44,-0.07
,-9.206,0.093,-3.91,-9.179,0.806,-4.092,-1.12,-5.95,0.7
,-9.05,0.17,-3.824,-8.938,0.962,-4.113,1.33,-5.11,1.4
,-8.976,0.395,-4.006,-9.143,0.907,-4.056,3.64,-3.64,1.96
30214.0,-9.012,0.849,-4.137,-8.765,0.866,-4.255,-2.45,-2.8,2.66
,-9.131,1.024,-3.807,-8.902,0.878,-4.159,-2.45,-3.22,1.89
,-9.088,0.991,-3.984,-8.93,1.089,-4.116,-1.96,-5.67,0.49
,-8.813,0.981,-4.314,-8.99,1.254,-4.118,-0.98,-7.49,-0.56
30289.0,-9.088,1.225,-4.152,-8.983,0.524,-4.032,0.56,-7.56,-4.06
,-9.167,1.194,-4.063,-9.162,0.141,-3.987,-1.19,-7.7,-4.48
,-8.983,1.067,-4.159,-9.268,-0.06,-3.955,-3.5,-8.05,-4.41
,-8.945,0.826,-3.996,-9.194,-0.105,-4.022,-6.23,-7.42,-4.34
30365.0,-9.256,0.012,-3.85,-9.076,0.203,-4.066,-5.04,-4.2,-1.4
,-9.244,0.024,-3.752,-8.897,0.11,-3.922,-4.06,-3.5,-0.14
,-9.139,0.041,-3.733,-8.916,0.457,-3.568,-3.64,-2.94,1.19
,-9.093,0.132,-3.814,-8.969,0.794,-3.544,-3.15,-2.59,2.03
30441.0,-9.016,0.902,-3.525,-9.134,0.78,-3.69,-4.06,0.49,1.68
,-9.22,0.66,-3.496,-9.052,0.924,-3.52,-5.53,-0.35,1.33
,-9.189,0.476,-3.51,-9.122,1.017,-3.522,-3.99,-1.4,1.19
,-9.186,0.601,-3.735,-9.069,1.005,-3.582,-1.75,-1.89,1.33
30517.0,-9.167,0.928,-3.561,-9.04,1.106,-3.723,-2.66,-3.15,0.21
,-9.371,0.866,-3.479,-9.067,1.06,-3.422,-2.94,-3.99,0.0
,-9.462,1.062,-3.549,-9.292,0.849,-3.285,-1.61,-5.18,-0.42
,-9.182,1.101,-3.683,-9.225,0.232,-3.549,-0.91,-5.04,-0.84
30592.0,-8.964,-0.213,-3.862,-9.328,0.945,-3.156,-3.64,-6.72,-0.63
,-8.844,-0.156,-4.116,-9.347,0.818,-2.656,0.84,-6.93,-0.21
,-8.899,0.373,-3.939,-9.383,0.517,-2.804,2.45,-4.48,0.07
,-9.253,0.876,-3.565,-9.253,0.211,-3.005,0.7,-1.82,0.35
30668.0,-9.206,0.055,-3.295,-9.306,0.838,-2.91,0.91,-4.34,1.47
,-9.098,0.098,-3.393,-9.273,0.637,-2.764,4.97,-3.92,2.1
,-9.153,0.512,-3.379,-9.447,0.328,-2.809,6.93,-1.82,2.8
,-9.292,0.854,-3.02,-9.055,0.239,-3.106,6.02,0.56,3.01
30743.0,-9.012,0.249,-3.209,-9.416,0.354,-3.86,7.84,0.42,4.41
,-9.16,0.452,-3.393,-9.17,0.409,-4.104,8.68,1.26,4.27
,-9.304,0.469,-3.379,-8.976,0.723,-4.039,7.21,1.82,4.69
,-9.497,0.409,-3.704,-9.158,0.969,-3.908,7.28,0.7,5.6
30819.0,-9.191,1.115,-3.745,-9.234,1.216,-3.501,8.19,0.49,6.44
,-9.261,1.228,-3.551,-9.131,1.017,-3.616,7.77,0.42,6.37
,-9.229,1.33,-3.654,-9.048,0.83,-3.585,7.91,0.77,5.88
,-9.167,1.34,-3.587,-9.184,0.771,-3.558,6.51,0.63,4.9
30895.0,-9.105,0.888,-3.597,-9.33,1.17,-3.216,4.27,0.42,3.71
,-9.253,1.036,-3.587,-9.33,0.838,-3.175,4.13,0.07,3.64
,-9.292,1.012,-3.398,-9.363,0.402,-3.352,3.57,0.07,3.36
,-9.234,1.18,-3.235,-9.1,0.156,-3.546,2.52,1.05,2.87
30971.0,-9.167,0.455,-3.431,-9.031,1.149,-3.463,5.53,0.56,3.43
,-9.186,0.866,-3.479,-9.021,1.168,-3.211,7.21,0.84,3.22
,-9.16,1.168,-3.503,-9.284,0.969,-3.329,6.37,1.26,3.36
,-9.201,1.17,-3.455,-9.225,0.687,-3.391,4.13,1.26,3.5
31047.0,-9.222,0.72,-3.704,-9.103,1.153,-3.843,7.14,0.21,2.03
,-9.182,0.921,-4.022,-9.239,0.914,-3.556,8.96,0.14,1.75
,-9.162,1.146,-3.987,-9.531,0.565,-3.659,7.63,1.19,1.4
,-9.203,1.271,-3.984,-9.28,0.388,-4.118,4.06,1.61,0.91
31122.0,-9.177,0.593,-4.317,-9.186,1.316,-3.405,-0.21,-1.75,1.4
,-9.052,1.007,-4.384,-9.32,0.928,-3.061,0.77,-1.54,1.54
,-9.091,1.405,-4.156,-9.316,0.505,-3.084,-0.98,-0.77,1.12
,-9.179,1.527,-3.778,-9.385,0.347,-3.362,-4.97,-0.21,0.56
31198.0,-9.184,0.294,-3.845,-9.194,1.127,-3.549,-0.63,-2.8,0.35
,-9.189,0.471,-4.063,-9.308,0.861,-3.101,1.75,-2.52,0.98
,-9.179,0.828,-4.166,-9.342,0.572,-2.759,1.89,-2.38,1.05
,-9.186,1.122,-4.011,-9.213,0.388,-2.462,-0.42,-1.68,0.63
31274.0,-9.246,0.404,-2.431,-9.158,1.141,-2.285,0.56,0.07,1.89
,-9.086,0.596,-2.529,-9.335,1.027,-2.35,4.69,0.77,2.17
,-9.038,0.969,-2.527,-9.454,0.553,-2.647,6.3,1.82,2.24
,-9.093,0.981,-2.474,-9.56,0.151,-3.23,6.02,3.08,2.17
31350.0,-9.179,0.333,-3.944,-9.308,1.304,-4.362,9.73,3.29,2.8
,-8.892,0.96,-4.494,-9.514,0.794,-4.247,12.18,3.92,3.08
,-8.914,1.493,-4.683,-9.483,0.457,-4.145,9.17,4.83,2.66
,-9.045,1.665,-4.623,-9.39,0.354,-4.346,2.8,5.04,1.82
31425.0,-9.012,0.761,-4.271,-9.38,1.048,-3.372,2.03,-0.42,2.1
,-9.119,1.086,-4.188,-9.313,0.931,-3.348,2.8,-0.28,2.1
,-9.098,1.34,-3.872,-9.141,0.945,-3.166,0.98,-0.21,1.82
,-9.246,1.304,-3.582,-9.06,1.055,-3.037,-1.68,-0.35,1.4
31501.0,-9.179,1.196,-3.013,-9.292,0.701,-3.044,2.52,-1.05,1.12
,-9.198,1.158,-2.836,-9.232,0.713,-3.149,1.75,-0.63,0.7
,-9.287,0.938,-2.776,-9.213,0.68,-3.398,1.68,-0.35,0.49
,-9.287,0.725,-2.809,-9.069,0.876,-3.443,2.17,-0.21,0.49
31576.0,-9.292,0.967,-3.443,-9.155,1.108,-3.798,3.71,1.61,1.05
,-9.21,1.0,-3.527,-9.117,1.318,-3.733,2.94,1.4,1.19
,-9.316,0.945,-3.587,-9.146,1.464,-3.577,2.52,0.91,1.26
,-9.308,0.883,-3.74,-9.191,1.338,-3.302,3.29,0.28,1.26
31652.0,-9.373,0.864,-3.111,-9.148,0.972,-3.51,-3.08,1.4,-0.28
,-9.421,0.57,-3.235,-9.17,1.139,-3.458,-1.19,0.77,-0.35
,-9.268,0.431,-3.451,-9.34,1.05,-3.374,2.52,0.35,0.0
,-9.158,0.608,-3.417,-9.275,0.909,-3.393,5.53,0.91,0.42
31728.0,-9.308,0.78,-3.537,-9.237,1.271,-3.393,3.85,0.28,0.49
,-9.143,0.763,-3.618,-9.361,1.127,-3.273,5.67,0.14,0.63
,-9.079,0.95,-3.647,-9.361,0.907,-3.321,6.51,0.49,0.77
,-9.206,1.187,-3.647,-9.273,0.677,-3.506,5.81,1.05,0.49
31804.0,-9.177,0.742,-3.57,-9.196,1.137,-3.211,2.87,0.42,0.28
,-9.15,0.897,-3.606,-9.335,0.95,-3.104,3.64,0.7,0.35
,-9.263,1.106,-3.558,-9.304,0.735,-3.163,3.15,1.05,0.28
,-9.232,1.218,-3.417,-9.196,0.73,-3.195,1.68,1.26,0.07
31880.0,-9.237,0.792,-3.276,-9.299,0.816,-3.515,4.97,1.26,0.0
,-9.174,0.854,-3.321,-9.222,0.809,-3.58,5.46,1.68,0.14
,-9.27,0.847,-3.379,-9.234,0.761,-3.659,5.32,1.68,0.07
,-9.273,0.881,-3.486,-9.246,0.838,-3.637,5.04,1.61,-0.07
31955.0,-9.213,0.916,-3.644,-9.251,0.921,-3.539,3.57,1.82,0.28
,-9.225,0.957,-3.604,-9.273,1.022,-3.558,3.22,1.47,0.35
,-9.296,0.967,-3.58,-9.206,0.983,-3.592,2.8,1.33,0.49
,-9.249,0.876,-3.546,-9.237,0.943,-3.522,2.8,1.26,0.49
32031.0,-9.263,0.804,-3.565,-9.222,0.72,-3.661,2.24,0.91,0.56
,-9.268,0.763,-3.53,-9.261,0.852,-3.649,2.73,0.7,0.56
,-9.328,0.67,-3.501,-9.191,0.952,-3.565,3.57,0.35,0.63
,-9.306,0.627,-3.558,-9.196,1.106,-3.51,4.62,0.0,0.77
32107.0,-9.206,1.053,-3.312,-9.225,0.9,-3.427,2.87,0.63,0.77
,-9.39,0.914,-3.235,-9.184,1.024,-3.551,2.31,0.42,0.7
,-9.335,0.833,-3.254,-9.153,1.048,-3.558,3.36,0.14,0.7
,-9.318,0.866,-3.309,-9.304,1.058,-3.494,4.48,0.21,0.7
32183.0,-9.234,0.96,-3.317,-9.22,0.73,-3.156,0.56,0.91,0.0
,-9.282,0.919,-3.307,-9.241,0.711,-3.161,0.28,0.98,-0.28
,-9.263,0.828,-3.156,-9.225,0.806,-3.163,0.42,1.33,-0.21
,-9.246,0.804,-3.113,-9.256,0.907,-3.252,1.19,1.75,0.0
32258.0,-9.292,0.931,-3.36,-9.215,0.737,-3.848,4.76,2.45,-0.35
,-9.265,0.869,-3.553,-9.222,0.739,-3.738,4.62,2.03,-0.21
,-9.234,0.804,-3.735,-9.289,0.739,-3.63,4.41,1.82,-0.28
,-9.189,0.787,-3.843,-9.311,0.905,-3.58,4.83,1.82,0.07
32334.0,-9.249,1.06,-3.491,-9.239,0.797,-3.357,6.86,0.63,0.14
,-9.234,1.165,-3.419,-9.256,0.811,-3.412,6.02,0.77,0.0
,-9.246,1.034,-3.4,-9.206,0.914,-3.482,4.69,0.49,-0.21
,-9.268,0.938,-3.405,-9.22,1.007,-3.561,4.62,0.42,-0.14
32409.0,-9.229,1.094,-3.57,-9.323,0.608,-3.666,5.74,0.0,-0.84
,-9.131,1.041,-3.532,-9.15,0.687,-3.757,4.2,0.14,-1.12
,-9.241,0.924,-3.52,-9.155,1.015,-3.652,2.31,-0.07,-1.33
,-9.33,0.699,-3.522,-9.229,1.146,-3.549,1.54,-0.77,-1.33
32485.0,-9.328,0.983,-3.376,-9.239,0.706,-3.128,0.42,-0.98,-1.75
,-9.404,0.785,-3.154,-9.21,1.01,-3.257,-0.49,-1.05,-1.54
,-9.375,0.591,-3.056,-9.112,1.28,-3.271,0.7,-1.12,-1.54
,-9.328,0.617,-3.072,-9.081,1.295,-3.044,2.94,-1.26,-1.68
32561.0,-9.337,1.218,-2.857,-9.072,0.531,-2.998,-2.45,0.49,-3.36
,-9.385,0.806,-2.934,-9.131,0.732,-2.793,-3.85,0.07,-3.36
,-9.167,0.474,-2.848,-9.366,0.644,-2.776,-3.29,0.28,-3.22
,-9.179,0.369,-2.917,-9.165,0.507,-2.905,-0.7,0.91,-3.15
32637.0,-9.258,0.522,-2.783,-9.282,0.182,-2.702,0.42,6.37,-2.94
,-9.543,0.713,-2.673,-9.282,-0.041,-2.833,2.59,4.9,-3.22
,-9.11,0.739,-2.733,-9.155,0.093,-3.482,2.66,4.34,-3.15
,-9.287,0.529,-2.536,-8.911,0.275,-3.683,0.91,4.9,-3.22
32712.0,-9.072,0.409,-3.434,-9.227,0.687,-3.218,6.72,10.36,-1.05
,-9.328,0.593,-3.123,-9.629,0.483,-2.953,4.62,12.53,-0.7
,-9.466,0.632,-2.938,-9.27,0.44,-3.336,2.66,12.81,0.0
,-9.371,0.723,-2.905,-8.758,0.517,-3.273,2.59,12.18,0.28
32788.0,-9.098,0.694,-3.606,-9.167,0.313,-4.159,11.97,7.07,-0.49
,-9.263,0.828,-3.786,-9.627,-0.081,-3.817,13.02,7.42,-0.56
,-9.141,0.938,-3.936,-9.548,-0.354,-3.826,12.74,8.47,-0.91
,-9.167,0.608,-4.08,-8.892,-0.364,-4.061,10.57,9.31,-0.63
32864.0,-9.124,-0.091,-3.841,-8.562,2.094,-3.017,18.69,5.46,3.99
,-8.99,0.536,-3.592,-9.153,2.06,-3.285,20.58,8.05,4.13
,-8.794,1.072,-3.144,-9.438,1.68,-3.647,19.04,11.34,3.85
,-8.629,1.682,-3.077,-9.636,1.177,-3.695,17.78,12.6,2.87
32940.0,-9.452,0.61,-3.659,-9.148,-0.124,-4.372,-3.15,13.3,-2.66
,-8.871,0.385,-3.965,-9.115,0.201,-4.221,0.21,14.84,-1.82
,-9.112,0.4,-3.905,-8.825,0.95,-4.475,2.8,14.84,-0.98
,-9.426,0.098,-4.257,-8.49,1.819,-4.219,4.27,10.57,-0.98
33016.0,-8.772,2.149,-4.094,-9.349,-0.821,-4.051,7.35,12.39,-4.97
,-9.131,1.723,-4.101,-9.457,-1.149,-4.384,-1.19,12.46,-5.39
,-9.241,0.931,-3.814,-9.323,-1.326,-4.551,-9.17,12.88,-5.11
,-9.325,-0.005,-3.771,-9.076,-1.481,-4.575,-11.55,12.32,-4.83
33091.0,-8.574,-1.058,-4.865,-9.294,1.527,-3.757,16.45,4.62,0.7
,-8.772,0.038,-4.501,-9.086,1.101,-3.857,19.11,5.46,1.12
,-9.048,0.931,-4.092,-8.969,0.33,-4.015,17.15,6.16,0.77
,-9.277,1.359,-3.819,-9.234,-0.282,-4.116,10.85,6.93,0.84
33167.0,-9.385,-0.536,-4.489,-8.614,0.648,-4.171,-1.33,7.84,4.97
,-9.34,-0.337,-4.594,-9.122,0.804,-4.135,4.06,7.91,6.02
,-9.007,-0.17,-4.319,-9.165,0.818,-4.219,6.44,8.47,6.79
,-8.617,0.287,-4.223,-9.186,0.574,-4.099,8.12,9.94,7.14
33242.0,-9.043,0.29,-4.228,-8.947,0.491,-4.13,1.96,5.25,4.83
,-8.873,0.182,-4.537,-8.947,0.737,-3.972,3.43,5.04,5.04
,-8.947,0.206,-4.336,-8.794,0.751,-4.221,5.88,4.83,5.04
,-8.942,0.227,-4.424,-8.737,0.459,-4.288,8.75,4.69,5.04
33318.0,-8.856,0.445,-4.092,-8.739,0.96,-4.31,10.08,3.29,3.43
,-9.153,0.701,-3.946,-8.703,1.029,-4.513,10.15,3.85,3.71
,-9.232,0.893,-3.836,-8.947,0.754,-4.456,10.57,4.41,3.57
,-9.107,0.835,-4.078,-8.882,0.605,-4.365,9.94,3.92,2.94
33394.0,-8.866,0.562,-4.219,-8.993,0.725,-4.192,2.59,3.5,1.19
,-8.705,0.656,-4.011,-9.045,0.457,-4.415,3.85,4.62,0.56
,-8.851,0.637,-3.759,-9.045,0.17,-4.671,5.53,4.9,-0.21
,-8.959,0.689,-3.924,-9.155,0.041,-4.838,7.0,4.69,-0.49
33470.0,-9.028,0.187,-4.824,-9.038,1.321,-4.939,-1.61,5.18,3.29
,-8.894,0.538,-4.855,-9.019,1.347,-4.937,-1.82,5.25,4.34
,-8.988,0.926,-4.681,-9.107,1.082,-4.836,-1.96,4.9,4.2
,-9.141,1.11,-4.803,-8.94,0.55,-4.604,-2.8,3.64,3.36
33545.0,-8.973,-0.11,-4.649,-9.062,-0.287,-4.53,-9.59,-0.42,4.69
,-8.725,-0.419,-4.585,-9.244,0.385,-4.755,-5.6,-0.7,5.04
,-8.892,-0.811,-4.511,-9.308,0.89,-4.929,-3.64,-1.33,5.67
,-8.988,-0.794,-4.413,-9.366,0.952,-5.004,-0.84,-2.31,6.72
33621.0,-8.947,1.058,-4.513,-8.725,1.917,-4.145,-10.29,-4.97,11.55
,-8.543,1.151,-4.511,-8.703,2.733,-4.049,-11.55,-6.51,11.34
,-8.37,1.058,-4.525,-8.729,3.369,-3.888,-10.85,-7.0,9.87
,-8.471,1.321,-4.439,-8.593,3.668,-3.704,-7.07,-7.07,7.28
33697.0,-8.71,3.855,-3.965,-8.935,0.859,-3.967,-2.31,-6.09,-9.59
,-8.885,3.484,-4.097,-8.897,0.093,-3.946,-7.07,-5.74,-11.83
,-9.05,2.711,-3.869,-9.021,-0.251,-3.795,-11.97,-5.32,-12.81
,-9.081,1.852,-3.953,-9.048,-0.364,-3.74,-14.56,-5.46,-13.37
33773.0,-9.115,-0.581,-3.915,-9.378,-0.866,-3.967,-6.37,-3.78,-12.6
,-9.036,-0.696,-4.011,-9.306,-1.007,-3.97,-6.58,-3.64,-11.27
,-9.129,-0.924,-3.927,-9.301,-1.156,-3.841,-7.63,-3.29,-9.73
,-9.227,-0.94,-3.929,-9.258,-0.948,-3.721,-7.63,-3.15,-8.12
33849.0,-9.203,-0.598,-3.534,-8.947,0.11,-3.958,-0.98,-1.4,1.33
,-8.993,-0.242,-3.659,-9.064,0.182,-4.027,1.68,-1.05,2.17
,-9.009,-0.043,-3.568,-8.957,0.567,-3.984,3.78,0.07,2.94
,-9.021,-0.045,-3.874,-8.94,0.718,-3.92,5.04,0.21,3.29
33924.0,-9.162,0.548,-3.898,-8.772,0.634,-4.121,5.11,3.64,5.74
,-9.33,0.483,-3.979,-8.93,0.658,-4.075,4.62,3.01,5.67
,-9.28,0.498,-3.888,-9.373,0.526,-4.022,5.81,2.87,5.25
,-8.918,0.593,-3.951,-9.478,0.412,-4.372,7.56,3.43,4.83
34000.0,-9.241,0.708,-4.415,-8.916,2.063,-4.369,9.38,3.92,4.69
,-8.993,1.311,-4.331,-9.184,1.833,-4.353,12.04,4.27,3.29
,-8.88,1.783,-4.384,-9.17,1.543,-4.152,11.48,4.27,1.96
,-8.72,2.173,-4.326,-9.06,1.33,-4.484,9.1,4.76,0.98
34075.0,-8.684,1.048,-4.018,-9.555,-0.771,-3.728,8.68,3.78,-4.55
,-8.612,0.814,-4.046,-9.332,-1.45,-3.74,9.94,4.55,-4.62
,-8.981,0.677,-4.178,-9.237,-1.816,-3.8,10.92,4.62,-4.76
,-9.399,0.227,-4.154,-9.318,-1.639,-4.03,8.61,4.83,-3.5
34151.0,-9.45,-1.192,-3.843,-8.906,1.433,-4.669,15.61,4.9,7.63
,-9.407,-0.727,-3.982,-8.938,1.247,-4.669,19.74,3.29,7.91
,-8.949,0.385,-4.341,-8.777,1.074,-4.692,21.35,2.87,8.4
,-8.792,1.292,-4.369,-8.844,1.082,-4.558,18.34,3.22,8.96
34227.0,-8.871,1.589,-4.568,-8.945,1.797,-4.525,14.14,0.98,7.21
,-9.016,1.883,-4.396,-8.94,1.646,-4.57,15.54,0.49,5.95
,-8.832,1.835,-4.594,-9.038,1.237,-4.293,13.93,-0.14,4.62
,-8.796,1.795,-4.563,-9.045,0.799,-4.312,11.34,-0.35,3.57
34303.0,-8.851,0.744,-4.322,-9.139,1.062,-4.116,0.63,-3.01,-2.03
,-8.938,0.967,-4.204,-9.0,0.838,-3.888,1.96,-3.22,-2.87
,-8.973,1.072,-4.164,-8.866,0.622,-3.798,1.19,-3.43,-3.57
,-9.026,1.091,-4.178,-8.94,0.373,-3.831,0.28,-3.57,-3.71
34378.0,-9.091,0.38,-3.776,-8.758,0.302,-4.113,-1.68,-2.8,-3.43
,-9.301,0.17,-3.963,-8.708,0.4,-4.075,-0.77,-3.57,-3.22
,-9.301,-0.043,-3.972,-8.784,0.462,-3.946,-0.21,-4.27,-2.52
,-9.146,0.012,-4.113,-9.1,0.543,-3.836,1.12,-5.88,-2.1
34454.0,-9.227,0.541,-3.833,-9.021,-0.084,-3.781,-0.56,-2.59,-0.56
,-9.189,0.424,-3.549,-9.172,0.215,-3.841,-0.98,-1.68,0.14
,-9.158,0.0,-3.656,-9.124,0.613,-3.929,-0.14,-2.45,0.56
,-8.964,-0.163,-3.786,-8.99,1.031,-4.018,1.96,-2.52,0.98
34530.0,-9.088,1.055,-3.934,-8.942,0.522,-4.219,1.05,-0.63,1.96
,-9.117,0.859,-3.936,-9.043,0.826,-4.295,-1.96,-1.61,1.75
,-9.095,0.5,-3.934,-9.088,1.113,-4.135,-2.03,-3.71,1.19
,-8.868,0.447,-4.097,-9.136,0.976,-4.08,0.07,-4.69,0.07
34606.0,-9.17,0.928,-4.008,-9.115,0.541,-4.274,1.05,-3.29,0.0
,-9.107,0.916,-4.121,-9.485,0.311,-4.099,0.21,-3.08,-0.49
,-9.088,0.849,-4.197,-9.521,-0.129,-3.903,-1.12,-2.94,-1.05
,-8.906,0.782,-4.312,-9.124,-0.191,-4.195,-2.94,-1.68,-0.84
34682.0,-8.871,0.28,-4.365,-8.971,0.931,-3.96,3.5,-7.07,0.77
,-8.94,0.955,-4.221,-9.1,0.73,-3.805,4.62,-6.02,1.26
,-9.158,1.206,-3.951,-9.251,0.615,-3.888,2.1,-5.6,1.33
,-9.182,1.168,-3.996,-9.184,0.558,-3.932,-0.84,-6.23,1.19
34757.0,-9.222,0.491,-3.848,-9.139,0.957,-3.85,0.28,-6.86,0.63
,-9.146,0.526,-3.766,-9.167,0.811,-3.448,1.05,-7.28,0.84
,-8.94,0.498,-3.85,-9.526,0.555,-3.307,1.33,-8.05,0.98
,-9.014,0.634,-3.661,-9.127,0.483,-3.553,0.91,-7.14,1.05
34833.0,-8.978,0.464,-3.264,-9.208,0.565,-3.726,-3.36,-3.78,0.91
,-9.048,0.455,-3.403,-9.067,0.62,-3.374,-1.96,-3.57,0.77
,-9.217,0.617,-3.388,-8.997,0.847,-3.374,-0.49,-3.29,0.7
,-9.476,0.629,-3.62,-9.06,0.993,-3.3,0.91,-4.41,0.14
34908.0,-9.323,0.883,-3.168,-8.909,0.687,-3.496,-3.85,-2.1,0.42
,-9.512,0.699,-3.264,-9.194,1.031,-3.094,-4.83,-3.01,-0.28
,-9.217,0.488,-3.64,-9.402,1.192,-2.886,-4.06,-3.71,-0.14
,-9.0,0.385,-3.733,-9.299,1.254,-2.702,-3.36,-3.08,0.14
34984.0,-9.241,0.974,-2.783,-9.155,0.144,-3.321,-4.13,-1.33,-0.84
,-9.234,0.706,-2.833,-9.083,0.005,-3.513,-4.06,-1.61,-1.4
,-9.284,0.416,-2.879,-9.0,-0.012,-3.513,-3.85,-0.56,-1.4
,-9.344,0.28,-3.142,-9.222,0.134,-3.434,-2.59,-0.63,-1.12
35060.0,-9.292,0.196,-3.448,-9.287,0.555,-3.094,-0.63,-0.28,1.89
,-9.241,0.321,-3.271,-9.107,0.79,-3.032,-0.63,0.42,2.59
,-9.265,0.445,-3.309,-9.222,0.775,-3.333,0.84,0.35,2.73
,-9.186,0.553,-3.087,-9.311,0.534,-3.601,0.7,1.4,2.94
35136.0,-9.306,0.45,-3.764,-9.32,0.548,-3.553,3.57,1.05,2.66
,-9.265,0.445,-3.884,-9.299,0.541,-3.415,3.71,1.4,2.8
,-9.213,0.469,-3.869,-9.356,0.548,-3.276,3.22,1.54,3.08
,-9.206,0.598,-3.573,-9.478,0.409,-3.384,2.38,2.38,3.57
35211.0,-9.232,0.488,-3.623,-9.442,1.117,-2.96,4.55,0.35,5.11
,-8.959,0.718,-3.575,-9.438,0.584,-3.252,6.3,0.7,5.11
,-9.043,0.964,-3.398,-9.347,0.28,-3.69,5.81,1.89,4.76
,-9.198,1.139,-3.005,-9.129,0.436,-3.979,4.06,3.15,4.48
35287.0,-9.002,0.993,-4.085,-9.849,0.438,-3.171,11.2,0.35,4.2
,-8.988,1.548,-3.848,-9.474,-0.213,-3.647,7.98,2.03,3.57
,-9.201,1.797,-3.338,-9.05,-0.12,-4.109,1.82,3.36,2.73
,-9.471,1.402,-2.936,-8.88,0.529,-4.441,-3.85,3.57,1.89
35362.0,-8.938,1.369,-4.374,-9.459,0.553,-2.513,6.65,0.0,3.43
,-9.191,1.697,-3.929,-9.399,0.366,-2.563,0.84,0.77,3.01
,-9.203,1.589,-3.482,-9.287,0.321,-2.919,-5.11,0.91,2.38
,-9.407,1.053,-2.852,-9.0,0.639,-3.25,-9.1,0.91,1.96
35438.0,-8.918,1.137,-3.429,-9.433,0.357,-3.302,8.33,1.12,2.66
,-8.978,1.488,-3.434,-9.287,0.115,-3.558,5.32,2.45,1.96
,-9.172,1.347,-3.319,-9.06,0.347,-3.63,0.0,2.87,1.4
,-9.385,0.873,-3.159,-9.052,0.823,-3.702,-3.71,2.59,1.05
35514.0,-9.124,1.263,-3.75,-9.174,0.847,-3.668,5.81,2.8,1.75
,-9.363,1.357,-3.762,-9.028,1.194,-3.616,2.24,2.38,1.33
,-9.344,1.046,-3.618,-9.072,1.467,-3.57,-1.05,1.61,1.19
,-9.289,0.845,-3.743,-9.146,1.247,-3.343,-1.19,0.77,1.05
35590.0,-9.304,0.916,-3.111,-9.395,0.55,-3.34,-4.83,1.89,-0.42
,-9.284,0.708,-3.025,-9.457,0.507,-3.451,-3.85,2.17,-0.49
,-9.222,0.45,-3.106,-9.411,0.452,-3.731,-1.89,2.03,-0.49
,-9.217,0.519,-3.23,-9.153,0.68,-4.015,0.21,2.17,-0.28
35666.0,-9.005,1.022,-4.061,-9.402,0.637,-3.443,7.77,0.21,1.54
,-9.033,1.211,-3.972,-9.256,0.871,-3.369,5.39,0.77,1.33
,-9.256,1.127,-3.833,-9.328,0.883,-3.4,2.38,0.56,1.05
,-9.359,0.838,-3.515,-9.129,0.983,-3.441,-0.21,0.28,0.7
35741.0,-9.131,1.034,-3.393,-9.215,0.529,-3.618,1.61,0.49,1.05
,-9.174,1.046,-3.185,-9.136,0.625,-3.671,0.35,0.77,0.63
,-9.404,0.782,-3.19,-9.172,0.852,-3.721,-0.98,0.35,0.42
,-9.385,0.51,-3.436,-9.206,0.876,-3.477,0.07,-0.56,0.63
35817.0,-9.318,0.873,-3.281,-9.237,0.914,-3.518,0.42,0.35,1.4
,-9.375,0.692,-3.049,-9.16,1.132,-3.597,0.0,0.42,1.47
,-9.294,0.543,-3.154,-9.119,1.33,-3.513,2.31,-0.35,1.68
,-9.191,0.78,-3.393,-9.261,1.261,-3.329,5.18,-0.42,1.89
35893.0,-9.404,0.916,-3.3,-9.246,1.055,-3.556,-1.96,1.12,0.77
,-9.43,0.644,-3.314,-9.239,1.11,-3.506,-1.89,0.42,0.7
,-9.273,0.593,-3.434,-9.351,0.943,-3.424,0.56,0.0,0.77
,-9.174,0.782,-3.551,-9.378,0.859,-3.381,2.66,0.14,0.84
35969.0,-9.253,0.821,-3.398,-9.227,1.01,-3.24,1.61,0.0,0.49
,-9.189,0.9,-3.362,-9.241,0.859,-3.159,2.38,0.35,0.49
,-9.103,1.082,-3.352,-9.222,0.806,-3.084,2.38,0.7,0.21
,-9.127,1.165,-3.312,-9.177,0.826,-3.142,0.98,1.05,-0.14
36044.0,-9.217,0.816,-3.216,-9.323,0.742,-3.276,0.98,1.96,-0.7
,-9.232,0.861,-3.345,-9.466,0.467,-3.312,1.82,2.03,-0.77
,-9.229,0.861,-3.434,-9.347,0.239,-3.288,1.61,2.52,-0.91
,-9.246,0.809,-3.4,-9.234,0.223,-3.336,1.05,2.59,-0.98
36120.0,-9.045,0.567,-3.41,-9.289,0.869,-2.912,11.06,0.91,0.91
,-9.117,1.07,-3.398,-9.466,0.311,-3.132,12.53,2.1,0.7
,-9.009,1.484,-3.3,-9.261,0.223,-3.427,10.5,3.71,0.28
,-9.076,1.412,-3.044,-9.167,0.677,-3.678,5.46,5.32,-0.14
36196.0,-8.942,1.216,-3.833,-9.366,0.948,-3.293,16.73,3.08,-0.35
,-8.914,1.589,-3.568,-9.139,0.799,-3.281,13.23,4.83,-1.19
,-9.344,1.505,-3.307,-9.031,0.912,-3.24,6.65,5.95,-1.68
,-9.485,1.168,-3.285,-9.086,1.055,-3.13,3.15,4.83,-1.89
36272.0,-9.131,1.017,-2.68,-9.246,0.309,-3.788,5.32,5.6,-3.43
,-9.507,0.651,-2.455,-8.882,0.974,-4.226,2.66,6.72,-3.36
,-9.488,0.096,-2.584,-8.796,1.637,-4.044,2.94,5.39,-2.73
,-9.249,-0.01,-3.077,-9.258,1.816,-3.575,8.26,4.69,-1.75
36348.0,-9.466,1.682,-3.23,-9.359,-0.256,-3.563,-0.84,5.6,-3.85
,-9.237,0.651,-3.01,-9.61,0.053,-3.372,-6.51,2.66,-3.57
,-9.375,-0.242,-3.18,-9.399,0.4,-3.233,-4.69,-0.84,-3.08
,-9.203,-0.443,-3.611,-9.462,0.38,-2.912,2.94,-0.91,-2.31
36423.0,-9.292,0.371,-3.439,-8.866,1.184,-3.166,9.59,6.65,-0.56
,-9.062,0.436,-4.011,-9.478,1.4,-2.575,11.62,2.45,-0.21
,-9.021,0.469,-4.001,-9.813,1.39,-2.501,11.69,-0.63,-0.49
,-8.787,0.79,-3.609,-9.56,0.931,-2.891,12.39,-0.28,-0.49
36499.0,-9.081,0.38,-3.75,-9.182,0.242,-4.185,12.67,4.41,-3.08
,-8.782,0.306,-4.204,-9.215,-0.134,-3.702,12.81,5.74,-3.08
,-8.868,0.854,-4.508,-8.756,-0.134,-3.903,12.74,7.84,-2.8
,-9.148,0.732,-4.223,-8.646,0.553,-3.673,7.63,9.38,-2.24
36574.0,-9.002,1.586,-3.609,-9.093,0.199,-4.319,14.0,11.27,-1.89
,-9.509,1.931,-3.333,-8.983,0.373,-4.472,7.7,12.95,-2.31
,-9.572,1.414,-3.556,-9.423,0.383,-4.36,-0.35,12.88,-2.87
,-9.407,0.579,-3.783,-9.117,0.012,-4.606,-4.76,12.74,-3.22
36650.0,-8.878,-0.244,-4.817,-9.249,0.589,-3.979,-0.91,7.49,-1.96
,-8.959,-0.227,-4.97,-8.837,0.57,-3.723,2.31,4.9,-2.1
,-9.158,0.244,-4.53,-8.916,0.579,-3.735,4.62,4.41,-1.47
,-9.481,0.62,-4.164,-9.055,0.452,-3.795,5.18,3.71,-0.91
36726.0,-9.143,0.321,-3.709,-9.016,-1.307,-3.422,5.6,8.26,0.0
,-9.124,0.06,-3.443,-9.162,-0.845,-3.206,3.36,10.01,1.05
,-9.072,-0.385,-3.372,-9.007,-0.17,-3.096,1.05,10.78,2.38
,-8.985,-0.967,-3.357,-8.873,0.474,-3.214,-0.49,10.36,4.06
36802.0,-9.11,0.993,-2.989,-8.957,0.105,-3.853,9.1,11.34,5.53
,-9.409,1.022,-2.886,-8.576,0.156,-4.085,6.65,10.78,5.32
,-9.316,0.751,-3.41,-8.469,0.4,-4.391,5.6,10.15,5.74
,-9.091,0.359,-3.628,-9.174,0.503,-4.18,5.53,10.78,6.3
36877.0,-9.608,0.414,-4.355,-8.131,1.381,-4.803,5.81,13.44,6.23
,-9.371,0.541,-4.312,-8.909,1.687,-4.688,4.41,12.67,7.14
,-8.878,0.751,-4.13,-9.414,1.627,-4.649,4.27,13.3,7.07
,-8.248,1.022,-4.487,-9.471,1.266,-4.893,6.16,13.72,5.6
36953.0,-9.127,0.754,-4.764,-8.751,0.715,-4.25,2.52,8.05,0.35
,-8.459,0.407,-4.944,-8.871,0.778,-4.357,4.34,7.07,0.14
,-8.559,0.33,-4.408,-8.933,0.732,-4.523,6.72,7.42,0.21
,-8.777,0.481,-4.204,-8.961,0.342,-4.491,9.24,5.88,-1.19
37029.0,-8.928,-0.256,-4.523,-9.368,1.106,-4.537,3.01,7.28,-0.77
,-8.83,-0.488,-4.606,-8.904,1.563,-4.609,4.13,6.79,0.56
,-8.966,-0.239,-4.424,-8.488,1.637,-4.633,7.42,6.79,0.91
,-9.146,0.359,-4.549,-8.641,1.393,-4.408,10.22,6.37,0.49
37105.0,-8.732,1.039,-4.405,-8.961,-0.469,-5.243,-3.78,5.53,-2.87
,-9.002,0.522,-3.994,-8.94,-0.189,-5.37,-2.73,5.18,-4.2
,-8.959,-0.275,-4.24,-8.952,0.127,-5.118,-0.28,3.99,-4.62
,-8.926,-0.491,-4.901,-8.981,0.436,-4.657,4.76,2.94,-3.85
37180.0,-8.866,0.881,-4.578,-8.885,0.153,-4.518,1.96,2.66,1.61
,-8.811,0.943,-4.365,-9.067,-0.014,-4.709,-2.1,3.22,1.61
,-8.899,0.725,-4.145,-8.952,0.115,-4.905,-6.02,3.29,1.19
,-8.782,0.373,-4.216,-8.993,0.447,-4.882,-7.91,3.5,1.61
37256.0,-9.081,0.474,-4.87,-8.952,1.058,-4.769,-1.96,2.1,4.62
,-9.069,0.4,-4.676,-9.021,1.01,-4.669,-3.57,-0.21,4.27
,-8.629,0.617,-4.831,-9.184,0.773,-4.413,-3.29,-1.05,4.55
,-8.65,0.943,-4.822,-8.756,0.55,-4.661,-4.27,-0.56,4.41
37332.0,-8.598,0.546,-4.891,-8.758,1.237,-4.781,-10.15,-1.96,3.22
,-8.882,0.395,-4.965,-8.705,1.701,-4.649,-7.84,-2.24,2.73
,-8.921,0.605,-4.934,-8.701,2.099,-4.714,-5.11,-2.87,2.17
,-8.882,0.905,-4.783,-9.062,1.974,-4.692,-3.01,-2.87,1.96
37407.0,-9.179,1.429,-4.654,-8.648,0.495,-4.623,-12.95,-2.66,-1.82
,-8.981,0.921,-4.724,-9.045,0.675,-4.113,-13.93,-3.64,-2.31
,-8.658,0.61,-4.609,-9.22,0.73,-3.594,-12.11,-3.57,-2.87
,-8.469,0.462,-4.659,-9.191,0.38,-3.778,-8.68,-4.06,-3.64
37483.0,-8.787,0.144,-3.831,-9.043,-1.031,-4.188,-5.74,-6.37,-4.83
,-8.792,0.005,-3.934,-9.162,-1.034,-3.955,-5.88,-6.16,-4.27
,-8.758,-0.337,-4.154,-9.122,-1.019,-4.078,-6.51,-5.39,-3.29
,-8.985,-0.84,-4.142,-9.349,-0.936,-3.738,-6.65,-4.41,-1.89
37559.0,-9.098,-0.56,-3.989,-8.715,1.127,-3.783,3.78,-4.13,6.51
,-8.897,-0.098,-4.02,-8.832,1.225,-3.953,5.04,-3.85,7.21
,-8.631,0.361,-4.085,-8.973,1.189,-4.044,5.88,-3.22,7.14
,-8.595,0.916,-3.879,-9.191,1.165,-4.19,6.72,-1.54,6.79
37635.0,-9.253,1.053,-4.288,-8.693,1.012,-4.082,0.63,1.05,5.39
,-9.038,0.782,-4.149,-8.729,1.29,-4.223,0.21,1.4,5.53
,-9.064,0.601,-4.245,-8.947,1.254,-4.322,1.05,1.61,5.46
,-8.885,0.704,-4.018,-9.0,1.074,-4.24,2.8,2.24,5.25
37710.0,-8.899,1.055,-3.958,-9.045,1.309,-4.18,1.89,5.18,1.75
,-8.906,1.261,-4.336,-9.225,1.579,-3.944,3.85,5.04,0.42
,-8.748,1.51,-4.367,-9.009,1.5,-4.307,4.41,5.74,-0.28
,-8.844,1.395,-4.441,-8.871,1.182,-4.547,4.06,6.86,-0.77
37786.0,-8.914,0.955,-4.599,-8.859,0.191,-4.362,6.09,7.63,-6.58
,-9.016,0.912,-4.743,-9.179,0.223,-4.786,7.07,7.7,-6.72
,-9.1,0.531,-3.994,-9.296,0.017,-4.812,5.88,7.42,-6.79
,-8.792,0.486,-4.178,-9.045,-0.091,-4.515,7.7,6.79,-7.42
37862.0,-8.827,0.041,-4.336,-8.882,-0.385,-4.034,8.12,5.18,-3.78
,-8.835,-0.153,-4.209,-8.892,-0.244,-4.276,6.86,5.39,-3.36
,-9.136,-0.419,-3.965,-8.892,-0.182,-4.288,7.21,5.74,-3.36
,-9.014,-0.455,-4.034,-8.959,-0.132,-4.448,8.75,5.53,-2.31
37938.0,-9.081,-0.077,-4.803,-9.031,0.742,-4.848,12.53,5.88,4.2
,-9.189,-0.05,-4.728,-8.737,1.144,-5.317,12.39,5.46,5.67
,-9.43,0.077,-4.743,-8.543,1.455,-5.396,12.81,4.13,7.14
,-9.083,0.51,-4.932,-8.717,1.594,-5.334,14.56,3.08,7.98
38013.0,-8.815,1.668,-5.142,-8.947,1.039,-4.877,12.04,-1.05,3.99
,-8.875,1.407,-5.025,-9.014,1.012,-4.963,10.15,-1.96,3.5
,-8.813,1.043,-5.162,-8.981,1.132,-4.824,9.66,-2.59,2.8
,-8.741,1.022,-4.934,-8.993,1.055,-4.716,10.5,-2.59,2.24
38089.0,-8.928,1.027,-4.896,-8.882,0.45,-4.346,-0.28,-6.37,0.42
,-8.818,0.893,-4.958,-9.062,0.23,-4.307,-3.57,-8.05,-0.63
,-8.634,0.9,-4.87,-9.139,0.108,-4.386,-5.46,-8.75,-1.12
,-8.71,0.704,-4.585,-9.146,0.117,-4.305,-7.49,-8.82,-0.84
38165.0,-8.887,0.388,-4.393,-9.174,-0.062,-4.046,0.98,-10.78,-1.89
,-8.567,0.512,-4.451,-9.072,-0.093,-4.032,-0.35,-9.59,-1.33
,-8.725,0.431,-4.288,-9.036,-0.031,-4.13,-3.71,-8.26,-0.35
,-9.086,0.237,-4.001,-8.978,0.086,-4.133,-6.16,-8.68,0.35
38240.0,-8.949,0.273,-4.195,-8.713,0.586,-4.226,-3.22,-9.24,2.38
,-8.983,0.215,-4.058,-8.871,0.952,-4.13,-3.71,-8.33,3.78
,-9.27,0.084,-3.8,-9.069,1.249,-4.128,-2.94,-8.82,4.34
,-8.976,0.196,-3.934,-9.06,1.184,-4.164,-0.91,-9.87,4.13
38316.0,-8.906,0.921,-4.197,-9.009,0.924,-3.991,-4.2,-11.2,1.96
,-8.839,0.902,-4.142,-9.488,0.866,-3.685,-4.9,-10.29,2.03
,-8.947,0.873,-4.078,-9.263,0.802,-3.726,-5.6,-9.1,2.03
,-9.012,0.826,-4.044,-8.861,0.613,-3.963,-6.3,-8.19,1.75
38392.0,-8.911,0.469,-3.932,-9.203,-0.558,-3.654,-8.68,-8.05,1.68
,-9.162,0.321,-3.79,-8.973,-0.184,-3.838,-8.82,-7.77,2.24
,-9.344,-0.069,-3.723,-8.966,0.148,-3.544,-8.26,-8.54,2.87
,-9.153,-0.512,-3.762,-9.16,0.323,-3.594,-6.72,-9.03,3.22
38468.0,-9.131,0.357,-3.64,-9.182,1.046,-3.805,3.99,-11.55,5.11
,-9.206,0.488,-3.745,-8.918,1.237,-3.814,4.06,-11.76,5.25
,-9.256,0.699,-3.821,-9.014,1.441,-3.79,4.2,-11.13,5.53
,-9.27,0.926,-3.793,-9.067,1.601,-3.798,3.78,-9.59,5.81
38543.0,-9.098,1.682,-3.762,-9.155,0.842,-3.408,-1.33,-5.39,3.57
,-9.112,1.689,-3.671,-9.112,0.648,-3.412,-4.9,-5.11,2.38
,-9.033,1.515,-3.546,-9.275,0.61,-3.415,-8.05,-4.9,1.19
,-9.028,1.271,-3.467,-9.275,0.581,-3.388,-10.57,-4.62,0.35
38619.0,-9.371,0.593,-3.302,-9.186,0.601,-2.819,-3.15,-7.91,-0.42
,-9.258,0.68,-3.259,-9.404,0.313,-2.862,-2.52,-8.19,-0.56
,-9.15,0.83,-3.015,-9.474,0.084,-2.797,-3.01,-7.21,-0.35
,-9.079,0.854,-2.819,-9.45,0.11,-2.821,-4.27,-6.37,0.0
38695.0,-9.265,0.424,-3.027,-9.335,0.833,-2.903,5.53,-7.21,2.17
,-9.005,0.95,-3.089,-9.466,0.644,-2.958,7.14,-5.81,2.66
,-9.222,1.141,-3.022,-9.167,0.519,-3.044,4.83,-4.55,2.38
,-9.332,1.034,-3.168,-9.299,0.57,-2.972,2.17,-5.6,2.38
38771.0,-9.342,0.761,-3.096,-9.21,1.235,-3.039,6.23,-3.57,3.5
,-9.227,0.897,-3.053,-9.308,1.0,-3.022,6.09,-2.17,3.92
,-9.256,1.007,-3.003,-9.363,0.737,-2.881,5.53,-1.4,3.99
,-9.124,1.177,-2.953,-9.418,0.675,-2.984,4.83,-1.05,3.22
38846.0,-8.995,0.964,-3.238,-9.371,0.572,-2.52,4.97,-0.63,2.45
,-8.926,1.33,-2.948,-9.622,0.086,-2.668,3.92,1.75,1.89
,-9.213,1.395,-2.546,-9.313,0.112,-3.116,0.63,2.87,1.47
,-9.332,1.07,-2.532,-9.189,0.689,-3.032,-2.17,2.66,1.61
38922.0,-9.478,1.184,-3.099,-9.184,0.627,-3.486,8.61,4.62,2.38
