Timestamp,AccX,AccY,AccZ,GyroX,GyroY,GyroZ,MagnX,MagnY,MagnZ
0.0,-9.318,0.031,-3.374,-9.318,0.048,-3.408,2.31,1.68,0.7
,-9.296,0.012,-3.379,-9.332,0.045,-3.453,2.38,1.96,0.84
,-9.273,-0.026,-3.372,-9.325,0.103,-3.475,2.31,2.1,0.84
,-9.33,0.01,-3.364,-9.311,0.108,-3.525,2.24,2.03,0.84
76.0,-9.227,0.139,-3.549,-9.27,0.045,-3.482,2.38,2.17,0.91
,-9.256,0.132,-3.553,-9.289,0.026,-3.501,2.45,1.96,0.91
,-9.308,0.089,-3.491,-9.275,0.077,-3.472,2.66,1.89,0.91
,-9.301,0.091,-3.568,-9.292,0.072,-3.477,2.66,1.89,0.91
152.0,-9.306,0.084,-3.412,-9.251,0.11,-3.647,2.73,1.61,0.84
,-9.308,0.108,-3.441,-9.203,0.079,-3.537,2.59,1.75,0.77
,-9.366,0.153,-3.51,-9.301,0.086,-3.57,2.38,1.54,0.63
,-9.332,0.136,-3.632,-9.313,0.134,-3.484,2.1,1.54,0.56
228.0,-9.261,0.074,-3.424,-9.287,0.069,-3.424,2.45,0.98,0.49
,-9.284,0.05,-3.381,-9.263,0.062,-3.412,2.45,0.98,0.35
,-9.275,0.079,-3.388,-9.287,0.062,-3.398,2.59,1.05,0.28
,-9.282,0.067,-3.427,-9.287,0.065,-3.396,2.8,1.26,0.42
304.0,-9.304,0.103,-3.431,-9.253,0.12,-3.484,2.45,1.68,0.63
,-9.296,0.098,-3.381,-9.253,0.139,-3.515,2.38,1.61,0.63
,-9.328,0.043,-3.443,-9.263,0.11,-3.52,2.52,1.82,0.77
,-9.306,0.074,-3.51,-9.268,0.124,-3.506,2.73,1.75,0.77
380.0,-9.287,0.093,-3.463,-9.261,0.031,-3.448,2.52,1.61,0.84
,-9.296,0.11,-3.455,-9.304,0.074,-3.501,2.52,1.47,0.84
,-9.277,0.098,-3.496,-9.294,0.089,-3.463,2.31,1.47,0.77
,-9.294,0.043,-3.458,-9.289,0.117,-3.522,2.38,1.33,0.7
456.0,-9.316,0.065,-3.53,-9.275,0.096,-3.441,2.24,1.26,0.7
,-9.263,0.057,-3.506,-9.308,0.077,-3.441,2.31,1.12,0.7
,-9.241,0.06,-3.484,-9.304,0.045,-3.415,2.45,1.26,0.77
,-9.311,0.026,-3.472,-9.294,0.029,-3.458,2.73,1.26,0.91
532.0,-9.323,0.043,-3.46,-9.313,0.081,-3.455,2.87,1.33,0.84
,-9.296,0.055,-3.443,-9.282,0.065,-3.491,2.94,1.33,0.84
,-9.325,0.079,-3.455,-9.292,0.098,-3.477,2.87,1.54,0.98
,-9.296,0.086,-3.448,-9.273,0.132,-3.496,2.73,1.61,0.84
608.0,-9.287,0.134,-3.455,-9.299,0.086,-3.467,2.38,1.54,0.91
,-9.32,0.086,-3.458,-9.332,0.117,-3.472,2.1,1.47,0.84
,-9.287,0.069,-3.431,-9.27,0.117,-3.47,2.1,1.47,0.7
,-9.299,0.084,-3.434,-9.301,0.098,-3.475,2.1,1.54,0.84
684.0,-9.294,0.022,-3.489,-9.342,0.091,-3.419,1.96,1.4,0.84
,-9.246,0.069,-3.451,-9.344,0.079,-3.431,2.24,1.54,0.91
,-9.337,0.026,-3.451,-9.342,0.179,-3.522,2.66,1.47,0.98
,-9.273,0.105,-3.451,-9.239,0.079,-3.491,2.73,1.54,0.98
760.0,-9.249,0.074,-3.467,-9.328,0.091,-3.463,1.96,1.54,0.7
,-9.313,0.122,-3.501,-9.294,0.034,-3.419,2.24,1.33,0.77
,-9.311,0.103,-3.463,-9.304,0.038,-3.534,2.31,1.19,0.77
,-9.311,0.12,-3.463,-9.282,0.115,-3.561,2.17,1.12,0.7
836.0,-9.27,0.096,-3.57,-9.342,0.096,-3.41,2.45,1.05,0.84
,-9.261,0.041,-3.472,-9.33,0.117,-3.379,2.17,1.05,0.84
,-9.284,0.045,-3.467,-9.246,0.055,-3.429,2.31,0.98,0.77
,-9.359,0.074,-3.372,-9.282,0.06,-3.467,2.31,0.98,0.77
912.0,-9.256,0.038,-3.465,-9.363,0.093,-3.412,2.31,0.77,0.7
,-9.27,0.105,-3.436,-9.239,0.057,-3.498,2.45,0.84,0.77
,-9.265,0.12,-3.477,-9.273,0.093,-3.477,2.31,0.91,0.77
,-9.316,0.16,-3.419,-9.308,0.098,-3.544,1.96,1.12,0.84
988.0,-9.287,0.11,-3.52,-9.332,0.096,-3.472,2.31,0.84,0.77
,-9.284,0.153,-3.498,-9.28,0.132,-3.431,2.03,0.91,0.84
,-9.294,0.096,-3.46,-9.323,0.096,-3.53,1.75,0.77,0.63
,-9.277,0.108,-3.458,-9.344,0.196,-3.534,1.68,0.7,0.63
1064.0,-9.287,0.213,-3.53,-9.296,0.105,-3.491,1.61,0.28,0.42
,-9.27,0.122,-3.53,-9.282,0.124,-3.558,1.12,0.35,0.28
,-9.239,0.136,-3.542,-9.273,0.139,-3.455,1.26,0.07,0.07
,-9.33,0.189,-3.522,-9.306,0.122,-3.424,1.12,0.0,0.0
1140.0,-9.263,0.122,-3.297,-9.349,-0.062,-3.061,0.56,-0.7,-0.14
,-9.378,0.036,-3.183,-9.241,-0.05,-3.149,-0.42,-0.28,-0.21
,-9.404,0.089,-3.149,-9.304,-0.031,-3.183,-0.84,-0.14,-0.42
,-9.349,-0.002,-3.113,-9.363,0.065,-3.216,-1.4,-0.07,-0.49
1216.0,-9.304,0.096,-3.233,-9.234,0.175,-3.542,-0.56,1.75,0.28
,-9.289,0.12,-3.264,-9.234,0.136,-3.537,-0.91,1.75,0.28
,-9.289,0.144,-3.388,-9.287,0.187,-3.563,-1.12,1.82,0.28
,-9.282,0.124,-3.475,-9.275,0.189,-3.601,-1.12,1.89,0.28
1292.0,-9.273,0.108,-3.486,-9.289,0.026,-3.754,-1.05,0.98,0.28
,-9.296,0.065,-3.606,-9.237,0.053,-3.707,-0.84,0.91,0.21
,-9.282,0.048,-3.601,-9.22,0.057,-3.575,-0.28,0.49,0.07
,-9.335,0.089,-3.683,-9.237,0.112,-3.525,0.14,0.14,0.0
1368.0,-9.318,0.141,-3.491,-9.294,0.11,-3.372,4.06,-0.7,0.7
,-9.368,0.141,-3.336,-9.294,0.132,-3.257,3.92,-0.63,0.84
,-9.397,0.16,-3.252,-9.313,0.103,-3.257,3.64,-0.7,0.91
,-9.342,0.086,-3.302,-9.287,0.101,-3.173,3.57,-0.49,0.77
1444.0,-9.344,0.045,-3.092,-9.328,0.065,-3.118,3.71,0.07,1.12
,-9.414,0.034,-3.077,-9.349,0.079,-3.245,3.5,0.42,1.26
,-9.359,0.055,-2.998,-9.277,0.069,-3.357,3.5,0.91,1.4
,-9.411,0.112,-3.132,-9.241,0.048,-3.288,3.29,1.19,1.19
1520.0,-9.294,0.053,-3.223,-9.361,-0.12,-3.137,3.15,2.03,1.89
,-9.368,-0.029,-3.187,-9.385,-0.117,-3.23,3.08,2.24,1.89
,-9.411,-0.01,-3.166,-9.311,-0.024,-3.135,3.15,2.52,1.89
,-9.402,-0.067,-3.087,-9.392,0.182,-3.396,3.29,3.01,2.17
1596.0,-9.347,0.297,-3.331,-9.258,0.29,-3.498,5.67,3.71,2.59
,-9.304,0.443,-3.53,-9.33,0.151,-3.546,4.76,3.5,2.45
,-9.306,0.445,-3.726,-9.344,-0.05,-3.245,2.73,3.08,1.47
,-9.249,0.347,-3.577,-9.373,-0.007,-3.283,1.12,2.73,1.05
1672.0,-9.418,-0.079,-3.065,-9.16,0.457,-3.41,-2.73,2.8,-0.14
,-9.363,-0.081,-2.979,-9.143,0.163,-3.534,-3.08,3.15,-0.56
,-9.392,0.172,-3.173,-9.091,-0.168,-3.522,-3.85,3.29,-1.33
,-9.368,0.517,-3.451,-9.129,-0.349,-3.257,-5.25,3.01,-2.1
1748.0,-9.385,-0.433,-3.654,-9.227,-0.364,-3.496,-4.06,2.87,-1.26
,-9.332,-0.318,-3.364,-9.129,-0.239,-3.518,-1.54,3.08,-0.91
,-9.217,-0.055,-3.391,-9.15,0.081,-3.494,-0.98,3.01,-0.49
,-9.256,-0.022,-3.343,-9.306,0.447,-3.812,-0.84,3.08,-0.07
1824.0,-9.32,0.534,-3.542,-9.392,-0.206,-2.584,6.02,2.52,1.75
,-9.246,0.392,-3.403,-9.43,-0.194,-3.087,5.53,2.66,2.17
,-9.249,0.139,-3.128,-9.399,-0.256,-3.001,5.53,3.15,2.45
,-9.356,-0.124,-2.917,-9.198,0.024,-3.104,6.65,3.5,2.73
1900.0,-9.265,0.455,-3.656,-9.04,-0.251,-3.451,6.02,4.41,3.15
,-9.27,0.668,-3.879,-9.256,-0.311,-3.34,4.27,3.85,2.31
,-9.179,0.471,-4.056,-9.316,-0.215,-2.802,1.54,3.22,2.1
,-8.923,0.077,-3.486,-9.404,-0.17,-2.84,1.05,3.57,3.36
1976.0,-9.5,-0.148,-2.795,-9.141,-0.438,-3.24,7.49,6.02,4.83
,-9.536,-0.129,-2.943,-8.938,-0.823,-2.8,6.79,6.79,5.11
,-9.507,-0.041,-3.455,-8.993,-0.586,-2.958,5.11,7.14,4.9
,-9.265,-0.077,-3.295,-9.217,0.239,-3.13,3.64,8.12,5.46
2052.0,-9.275,1.074,-3.386,-9.45,0.409,-2.833,13.65,11.41,8.33
,-9.287,1.139,-3.228,-9.478,0.835,-3.183,9.45,11.69,7.7
,-9.196,0.761,-2.994,-9.342,1.103,-3.762,4.34,12.95,7.28
,-9.289,0.347,-2.685,-9.028,1.029,-3.747,3.01,14.56,6.93
2128.0,-8.863,0.491,-3.597,-9.234,0.55,-4.25,2.52,16.73,4.97
,-8.993,-0.031,-3.793,-9.105,0.668,-4.247,2.94,16.73,5.25
,-9.06,-0.086,-3.458,-8.854,0.562,-4.022,6.3,16.1,5.32
,-9.227,0.246,-3.929,-8.787,0.33,-3.888,9.38,15.4,5.18
2204.0,-8.988,0.299,-3.939,-8.882,0.56,-3.934,6.16,16.17,3.57
,-9.261,0.534,-4.207,-8.964,0.191,-3.814,7.21,15.12,3.08
,-9.304,0.773,-4.381,-9.028,0.122,-3.75,6.44,14.63,2.17
,-9.036,0.847,-4.243,-9.009,0.325,-3.778,4.13,14.98,1.54
2280.0,-8.89,0.546,-3.498,-9.194,0.562,-3.604,2.31,18.69,0.14
,-8.868,0.732,-3.326,-9.385,0.512,-3.501,2.45,20.3,0.28
,-8.882,0.648,-3.132,-9.213,0.117,-3.819,1.05,21.14,0.49
,-9.0,0.617,-3.238,-8.775,-0.433,-4.118,-0.21,20.37,0.63
2356.0,-8.543,-0.833,-4.348,-8.839,0.995,-4.838,-5.53,19.53,2.38
,-8.614,-0.909,-4.42,-8.67,1.34,-5.066,-0.42,20.09,3.99
,-8.811,-0.483,-4.468,-8.691,1.173,-5.224,4.9,20.51,4.34
,-8.758,0.139,-4.441,-8.842,0.656,-5.365,7.56,20.86,3.78
2432.0,-8.918,-0.026,-5.315,-8.741,-0.668,-4.666,-6.3,18.34,1.05
,-8.703,-0.586,-5.049,-9.15,-0.371,-4.695,-5.04,18.69,2.52
,-8.437,-0.68,-4.913,-8.854,-0.144,-4.848,-1.33,18.55,3.71
,-8.385,-0.794,-4.697,-8.727,-0.122,-4.755,3.22,18.06,5.25
2508.0,-8.385,0.01,-4.788,-8.866,0.302,-4.336,7.77,13.65,8.96
,-8.09,0.189,-4.661,-8.892,0.567,-4.499,8.54,13.44,8.89
,-8.48,0.194,-4.491,-8.866,0.94,-4.724,9.03,13.58,8.89
,-8.813,0.081,-4.386,-8.361,0.902,-4.764,9.03,13.51,9.24
2584.0,-8.32,1.007,-4.893,-8.416,0.077,-4.905,12.11,12.95,7.21
,-8.435,1.024,-4.956,-8.839,-0.182,-4.831,13.23,12.67,7.49
,-8.423,0.715,-4.941,-8.765,0.287,-4.884,11.97,12.25,7.84
,-8.607,0.455,-5.013,-8.457,1.261,-5.377,11.83,12.39,7.91
2660.0,-8.497,2.044,-5.817,-8.717,-0.036,-5.525,18.06,12.04,5.04
,-8.301,1.876,-5.966,-8.65,-0.337,-5.434,12.88,11.27,3.29
,-8.428,1.424,-5.755,-8.914,-0.17,-5.58,6.3,11.83,3.15
,-8.267,0.505,-5.372,-8.526,-0.22,-5.564,1.82,12.11,3.43
2736.0,-8.48,-0.012,-5.599,-8.301,1.464,-5.556,10.01,8.68,4.9
,-8.973,0.086,-6.047,-8.485,1.589,-5.561,9.94,8.05,5.95
,-8.239,0.282,-5.487,-8.677,1.283,-5.779,10.08,7.84,6.37
,-8.366,0.969,-5.504,-8.703,0.84,-5.642,11.69,7.56,5.88
2812.0,-8.332,0.218,-5.415,-8.368,-0.012,-5.434,5.88,5.32,2.17
,-8.303,0.263,-5.693,-8.428,0.187,-5.48,9.73,5.04,1.89
,-8.339,0.354,-5.614,-8.562,0.29,-5.511,11.2,4.41,2.17
,-8.248,0.093,-5.573,-8.593,0.395,-5.427,12.25,4.34,3.01
2888.0,-8.751,0.677,-5.501,-8.332,-0.251,-5.791,11.13,1.05,1.19
,-8.445,0.699,-5.724,-8.488,-0.692,-5.554,9.52,-0.42,0.63
,-8.275,0.182,-5.753,-8.279,-0.464,-5.389,8.96,-1.33,-0.07
,-8.299,0.218,-5.86,-7.899,-0.261,-5.353,9.73,-2.17,0.28
2964.0,-8.129,0.002,-5.255,-8.772,1.0,-4.815,13.37,-4.69,5.32
,-8.318,0.168,-5.109,-8.536,0.991,-4.551,13.02,-4.34,6.09
,-8.646,0.412,-4.879,-8.289,1.462,-4.74,14.14,-4.06,5.88
,-8.768,0.799,-4.982,-8.504,1.689,-4.927,15.12,-4.06,5.39
3040.0,-8.899,1.213,-4.716,-8.607,0.943,-5.138,9.17,1.4,0.7
,-9.064,1.012,-4.58,-8.404,0.44,-5.169,9.59,2.52,-0.28
,-8.921,1.06,-4.676,-8.313,-0.06,-5.336,10.71,3.22,-1.05
,-8.734,1.153,-4.848,-8.39,-0.266,-5.492,9.52,3.92,-1.89
3116.0,-8.442,-0.237,-5.616,-8.392,0.115,-5.827,4.06,6.93,-1.68
,-8.409,-0.242,-5.702,-8.524,0.172,-5.808,3.36,6.44,-0.77
,-8.296,-0.179,-5.693,-8.54,0.313,-5.753,2.52,6.58,-0.14
,-8.251,0.012,-5.686,-8.476,0.455,-5.7,2.03,6.79,0.49
3192.0,-8.385,0.474,-5.705,-8.533,0.029,-5.499,1.54,5.46,2.31
,-8.344,0.589,-5.638,-8.346,0.282,-5.568,0.49,5.11,2.24
,-8.375,0.38,-5.597,-8.227,0.67,-5.729,-1.33,5.18,2.38
,-8.421,0.014,-5.473,-8.27,0.723,-5.544,-2.45,5.32,2.52
3268.0,-8.428,0.17,-5.303,-8.318,-0.007,-5.487,-6.23,3.92,2.1
,-8.308,-0.237,-5.377,-8.418,0.151,-5.499,-8.68,2.8,3.43
,-8.258,-0.424,-5.379,-8.581,0.005,-5.027,-8.89,3.15,4.83
,-8.234,-0.397,-5.365,-8.665,1.146,-5.776,-7.56,3.29,5.95
3344.0,-8.646,0.773,-5.291,-8.457,0.345,-5.272,-8.05,1.89,4.41
,-8.363,0.402,-5.106,-8.485,0.493,-5.281,-10.15,2.45,4.2
,-8.193,0.345,-5.19,-8.497,0.641,-5.267,-9.45,2.87,3.92
,-8.215,0.311,-5.219,-8.48,0.763,-5.394,-8.4,2.87,3.78
3420.0,-8.442,0.505,-5.221,-8.239,0.124,-5.425,-6.09,2.24,3.92
,-8.38,0.311,-5.317,-8.33,0.182,-5.47,-6.65,2.52,3.99
,-8.512,0.081,-5.169,-8.409,0.352,-5.59,-7.21,1.4,4.55
,-8.435,0.05,-5.217,-8.54,0.543,-5.619,-6.86,0.42,5.6
3496.0,-8.576,0.608,-5.504,-8.387,0.895,-5.377,0.49,-0.49,6.58
,-8.514,0.747,-5.418,-8.349,0.809,-5.372,0.98,-0.77,6.72
,-8.433,0.778,-5.398,-8.342,0.95,-5.497,0.84,-0.84,6.51
,-8.409,0.933,-5.444,-8.296,0.857,-5.602,0.84,-1.19,6.51
3572.0,-8.43,0.785,-5.473,-8.275,1.177,-5.473,0.84,-2.1,4.34
,-8.574,0.916,-5.504,-8.445,1.053,-5.434,1.68,-2.17,3.78
,-8.552,1.115,-5.575,-8.576,0.84,-5.499,1.26,-2.73,3.29
,-8.38,1.117,-5.523,-8.672,0.668,-5.578,-0.28,-2.8,2.8
3648.0,-8.622,0.562,-5.595,-8.275,0.742,-5.379,-0.91,-3.78,0.21
,-8.559,0.651,-5.516,-8.05,1.017,-5.846,1.61,-3.99,0.0
,-8.378,0.699,-5.434,-8.308,0.806,-5.315,2.87,-3.99,-0.21
,-8.349,0.591,-5.377,-8.579,0.902,-5.334,2.38,-5.18,-0.42
3724.0,-8.693,1.024,-5.238,-8.516,0.718,-5.154,-0.14,-8.4,-1.33
,-8.605,1.165,-5.238,-8.607,0.481,-4.968,-0.42,-8.12,-2.17
,-8.533,0.998,-5.224,-8.504,0.677,-4.992,-1.19,-7.49,-2.66
,-8.603,0.921,-5.14,-8.358,0.876,-4.992,-1.75,-7.42,-2.87
3800.0,-8.37,1.015,-5.02,-8.643,0.567,-5.023,0.98,-11.34,-3.08
,-8.48,1.074,-5.118,-8.765,0.452,-5.059,0.14,-11.48,-3.5
,-8.521,0.974,-5.145,-8.679,0.378,-5.073,-0.7,-11.06,-3.78
,-8.567,0.766,-5.073,-8.725,0.419,-5.181,-1.12,-9.94,-3.64
3876.0,-8.827,0.39,-5.188,-8.452,0.653,-5.298,6.02,-10.43,-2.73
,-8.6,0.806,-5.401,-8.447,0.692,-5.114,4.55,-12.95,-2.87
,-8.44,0.818,-5.262,-8.536,0.938,-5.24,1.33,-14.28,-2.87
,-8.27,0.95,-5.64,-8.607,0.94,-4.949,0.98,-15.68,-3.92
3952.0,-8.689,0.962,-4.932,-8.753,0.503,-4.592,1.05,-17.5,-4.27
,-8.717,0.957,-4.841,-8.847,0.392,-4.58,3.15,-16.94,-4.48
,-8.813,0.883,-4.721,-8.949,0.29,-4.566,5.39,-16.59,-4.27
,-8.784,0.797,-4.616,-9.019,0.567,-4.59,6.37,-15.96,-3.71
4028.0,-8.737,0.926,-4.549,-8.442,0.462,-3.539,4.97,-19.46,-4.69
,-8.61,0.761,-4.324,-8.705,0.67,-3.723,1.54,-19.6,-4.34
,-8.634,0.488,-4.276,-9.122,0.943,-3.776,-0.21,-19.32,-4.2
,-8.598,0.337,-4.135,-8.981,0.706,-3.644,0.28,-18.76,-4.34
4104.0,-8.892,0.924,-3.747,-8.89,0.309,-3.8,6.72,-15.89,-4.97
,-8.88,0.826,-3.69,-8.871,0.024,-3.676,6.37,-15.89,-5.25
,-8.957,0.713,-3.85,-8.945,-0.103,-3.774,6.09,-16.1,-5.39
,-8.94,0.57,-3.833,-8.993,-0.038,-3.74,4.69,-16.31,-5.11
4180.0,-8.945,-0.031,-3.587,-9.0,0.445,-3.565,5.6,-13.72,-3.43
,-9.045,0.045,-3.752,-9.045,0.366,-3.381,4.97,-13.79,-3.01
,-9.014,0.237,-3.848,-9.11,0.268,-3.618,4.27,-13.72,-3.22
,-9.086,0.407,-3.69,-9.213,0.378,-3.326,3.99,-13.37,-3.08
4256.0,-9.095,0.414,-3.64,-9.115,0.443,-3.352,2.45,-11.55,-3.43
,-9.1,0.455,-3.508,-9.11,0.541,-3.575,2.45,-10.99,-3.5
,-9.095,0.311,-3.41,-9.012,0.443,-3.312,3.43,-10.43,-3.36
,-9.194,0.359,-3.676,-9.072,0.246,-2.994,4.13,-10.01,-3.64
4332.0,-9.306,0.299,-3.156,-9.253,0.447,-3.506,4.41,-7.77,-3.92
,-9.469,0.4,-3.053,-9.167,0.352,-3.525,4.76,-7.28,-4.48
,-9.363,0.56,-3.058,-9.143,0.263,-3.704,3.29,-6.58,-4.48
,-9.253,0.663,-3.422,-9.177,0.278,-3.664,0.84,-6.09,-4.62
4408.0,-9.174,0.495,-3.802,-9.438,-0.376,-3.068,0.7,-5.67,-6.16
,-9.045,0.491,-3.886,-9.519,0.074,-3.41,-0.63,-5.67,-6.16
,-9.081,0.168,-3.431,-9.464,0.581,-3.515,-2.31,-5.25,-5.32
,-9.22,-0.232,-2.96,-9.289,0.699,-3.668,-1.96,-4.76,-4.2
4484.0,-9.072,0.366,-3.711,-9.409,-0.048,-3.147,-3.57,-4.97,-5.81
,-9.038,-0.012,-3.496,-9.454,0.12,-3.166,-2.59,-4.41,-4.97
,-9.076,-0.112,-3.391,-9.351,0.189,-3.41,-0.28,-4.34,-4.62
,-9.251,-0.124,-3.032,-9.17,0.026,-3.149,1.05,-4.48,-4.76
4560.0,-9.045,-0.235,-3.113,-9.397,-0.019,-3.104,-2.73,-2.59,-3.78
,-9.141,-0.299,-2.989,-9.316,-0.002,-3.008,-2.24,-1.82,-3.5
,-9.316,-0.371,-3.046,-9.311,-0.034,-3.175,-1.12,-1.47,-3.36
,-9.459,-0.168,-3.199,-9.215,0.091,-3.173,-0.77,-1.19,-3.29
4636.0,-9.213,0.079,-3.111,-9.392,0.249,-3.209,-2.8,0.7,-1.75
,-9.325,-0.11,-2.991,-9.277,0.225,-3.369,-3.71,1.4,-1.54
,-9.471,-0.201,-2.953,-9.203,-0.096,-3.242,-3.15,1.61,-1.26
,-9.545,0.002,-3.226,-9.134,-0.105,-3.319,-2.38,1.96,-1.33
4712.0,-9.174,-0.065,-3.262,-9.38,0.067,-3.408,-2.66,2.87,-0.7
,-9.273,0.038,-3.288,-9.263,-0.017,-3.235,-1.75,3.01,-0.77
,-9.351,0.139,-3.305,-9.313,-0.053,-3.223,-1.47,3.08,-0.84
,-9.328,0.23,-3.271,-9.407,0.098,-3.484,-1.96,3.29,-0.84
4788.0,-9.246,0.278,-3.668,-9.275,-0.005,-3.486,-1.54,3.71,-0.77
,-9.172,0.16,-3.678,-9.342,0.191,-3.379,-2.1,3.92,-0.42
,-9.119,-0.043,-3.561,-9.368,0.431,-3.506,-1.4,3.85,0.07
,-9.162,-0.156,-3.465,-9.375,0.443,-3.721,0.42,4.13,0.49
4864.0,-9.184,0.328,-3.838,-9.215,0.084,-4.073,-1.47,2.94,-0.91
,-9.165,0.299,-3.984,-9.129,0.134,-3.953,-1.05,2.45,-0.77
,-9.172,0.242,-3.929,-9.275,0.263,-3.769,0.42,1.82,-0.7
,-9.249,0.12,-4.011,-9.28,0.306,-3.74,1.89,1.26,-0.63
4940.0,-9.284,0.347,-3.618,-9.263,-0.098,-3.544,2.03,-1.12,-1.82
,-9.306,0.153,-3.491,-9.234,0.014,-3.757,0.14,-1.54,-2.03
,-9.347,-0.002,-3.534,-9.16,-0.062,-3.678,-0.56,-1.75,-2.24
,-9.282,-0.134,-3.491,-9.11,-0.179,-3.549,0.56,-1.68,-1.89
5016.0,-9.112,-0.268,-3.36,-9.366,-0.177,-2.871,5.18,-2.1,0.0
,-9.239,-0.208,-3.266,-9.407,-0.244,-2.855,5.25,-1.82,0.07
,-9.344,-0.16,-3.087,-9.423,-0.177,-2.979,4.83,-1.54,0.28
,-9.363,-0.179,-2.97,-9.454,-0.117,-3.12,3.85,-0.91,0.56
5092.0,-9.459,-0.132,-3.211,-9.22,0.12,-3.69,2.8,1.68,1.47
,-9.395,0.002,-3.324,-9.261,0.177,-3.757,2.8,1.82,1.47
,-9.316,0.05,-3.46,-9.294,0.299,-3.848,2.31,1.82,1.4
,-9.239,0.098,-3.565,-9.28,0.395,-3.865,1.47,1.82,1.33
5168.0,-9.265,0.299,-3.75,-9.232,0.335,-3.709,-0.21,-0.35,0.07
,-9.304,0.177,-3.702,-9.239,0.194,-3.652,-0.28,-0.91,0.07
,-9.366,0.16,-3.723,-9.225,0.002,-3.453,-0.07,-1.4,-0.28
,-9.351,0.285,-3.704,-9.184,-0.139,-3.348,0.28,-1.68,-0.49
5244.0,-9.299,-0.242,-3.12,-9.442,0.069,-2.888,0.63,-2.1,0.14
,-9.308,-0.194,-3.034,-9.433,-0.038,-2.974,2.24,-1.75,0.49
,-9.404,-0.089,-2.996,-9.462,0.019,-3.061,3.22,-1.33,0.77
,-9.371,-0.014,-2.9,-9.402,0.108,-3.101,2.94,-0.91,1.05
5320.0,-9.332,0.072,-3.106,-9.289,0.196,-3.422,-0.42,0.98,0.91
,-9.33,-0.05,-3.23,-9.256,0.156,-3.374,-0.07,1.19,0.7
,-9.299,0.074,-3.29,-9.351,0.12,-3.326,1.26,1.19,0.98
,-9.284,0.215,-3.422,-9.332,0.225,-3.302,2.24,1.33,1.26
5396.0,-9.33,0.27,-3.329,-9.375,-0.067,-3.185,2.38,1.54,0.77
,-9.361,0.11,-3.245,-9.351,0.057,-3.233,1.05,1.33,0.42
,-9.38,-0.024,-3.195,-9.325,0.156,-3.333,0.07,1.54,0.42
,-9.38,-0.017,-3.187,-9.332,0.182,-3.482,0.07,1.75,0.42
5472.0,-9.306,0.043,-3.506,-9.375,0.146,-3.376,1.68,2.24,0.91
,-9.263,0.012,-3.486,-9.397,0.141,-3.405,2.24,1.89,1.12
,-9.289,-0.041,-3.494,-9.335,0.086,-3.436,3.01,1.82,1.26
,-9.325,0.034,-3.417,-9.244,0.06,-3.503,3.57,1.96,1.47
5548.0,-9.273,0.05,-3.515,-9.409,0.098,-3.302,2.94,1.68,1.12
,-9.249,0.108,-3.472,-9.373,0.101,-3.319,3.92,1.47,1.33
,-9.32,0.158,-3.46,-9.349,0.019,-3.34,4.13,1.33,1.4
,-9.383,0.129,-3.36,-9.313,0.017,-3.345,4.13,1.12,1.26
5624.0,-9.275,0.043,-3.352,-9.378,0.223,-3.417,3.78,1.54,1.47
,-9.313,0.06,-3.357,-9.263,0.165,-3.329,4.06,1.61,1.54
,-9.354,0.117,-3.364,-9.28,0.117,-3.364,4.13,1.68,1.4
,-9.359,0.23,-3.362,-9.318,0.12,-3.326,3.99,1.61,1.4
5700.0,-9.399,0.184,-3.367,-9.304,-0.019,-3.278,3.08,1.61,0.7
,-9.351,0.163,-3.41,-9.371,0.101,-3.309,2.52,1.47,0.63
,-9.275,0.055,-3.412,-9.375,0.189,-3.379,2.1,1.4,0.56
,-9.289,-0.065,-3.412,-9.411,0.225,-3.398,2.66,1.61,0.77
5776.0,-9.32,0.144,-3.484,-9.344,0.175,-3.4,3.92,1.4,0.63
,-9.246,0.168,-3.515,-9.39,0.191,-3.408,4.06,1.47,0.63
,-9.28,0.108,-3.475,-9.318,0.172,-3.34,3.78,1.4,0.7
,-9.304,0.069,-3.376,-9.33,0.11,-3.319,4.13,1.33,0.63
5852.0,-9.308,0.065,-3.319,-9.304,0.057,-3.278,3.29,1.19,0.21
,-9.359,0.117,-3.331,-9.301,0.022,-3.333,3.43,1.33,0.07
,-9.383,0.177,-3.3,-9.301,-0.031,-3.357,3.08,1.47,0.07
,-9.385,0.122,-3.273,-9.311,0.031,-3.348,2.52,1.54,-0.07
5928.0,-9.359,0.019,-3.4,-9.289,-0.01,-3.29,3.92,1.82,0.28
,-9.332,0.019,-3.415,-9.375,0.024,-3.247,4.41,1.82,0.35
,-9.32,0.019,-3.391,-9.416,0.019,-3.264,4.41,1.82,0.35
,-9.294,-0.043,-3.372,-9.378,0.11,-3.369,4.34,1.75,0.35
6004.0,-9.301,0.091,-3.441,-9.258,0.019,-3.491,3.15,1.89,0.07
,-9.304,0.069,-3.477,-9.313,-0.024,-3.4,3.01,1.96,0.14
,-9.263,0.036,-3.525,-9.361,-0.022,-3.364,2.87,1.68,0.0
,-9.294,0.01,-3.496,-9.332,0.012,-3.35,2.73,1.75,0.14
6080.0,-9.371,0.062,-3.345,-9.287,-0.084,-3.436,2.8,1.47,0.28
,-9.34,0.091,-3.388,-9.342,-0.019,-3.429,2.45,1.33,0.21
,-9.268,0.038,-3.436,-9.33,0.041,-3.419,1.96,1.33,0.14
,-9.277,-0.038,-3.463,-9.32,0.014,-3.388,2.1,1.26,0.14
6156.0,-9.318,0.05,-3.302,-9.308,0.0,-3.355,3.01,0.98,0.63
,-9.318,0.01,-3.269,-9.311,-0.024,-3.357,2.87,0.98,0.56
,-9.366,0.031,-3.336,-9.273,-0.072,-3.324,2.87,1.26,0.49
,-9.33,0.091,-3.362,-9.299,0.014,-3.364,2.73,1.19,0.49
6232.0,-9.316,0.086,-3.338,-9.316,0.043,-3.348,3.71,1.33,0.84
,-9.296,0.024,-3.307,-9.292,-0.01,-3.391,2.87,1.47,0.84
,-9.311,-0.036,-3.331,-9.311,-0.014,-3.36,2.66,1.61,0.77
,-9.316,0.034,-3.329,-9.316,0.022,-3.419,2.73,1.61,0.77
6308.0,-9.371,0.127,-3.4,-9.366,0.034,-3.297,3.15,1.68,1.12
,-9.387,0.06,-3.305,-9.323,-0.017,-3.278,2.8,1.75,1.19
,-9.318,-0.007,-3.262,-9.304,-0.038,-3.264,2.52,1.82,1.12
,-9.363,0.077,-3.269,-9.308,-0.017,-3.336,2.31,1.61,0.98
6384.0,-9.373,0.074,-3.269,-9.306,0.103,-3.446,3.57,2.31,1.33
,-9.323,0.156,-3.362,-9.311,0.024,-3.561,3.57,2.38,1.33
,-9.332,0.158,-3.46,-9.337,0.103,-3.549,3.08,2.17,1.05
,-9.316,0.172,-3.453,-9.342,0.096,-3.551,2.73,2.1,1.05
6460.0,-9.299,0.069,-3.503,-9.347,0.062,-3.317,2.8,1.47,0.91
,-9.313,0.005,-3.431,-9.366,0.053,-3.321,2.8,1.54,0.98
,-9.313,0.067,-3.403,-9.347,0.081,-3.364,3.01,1.54,1.05
,-9.366,0.043,-3.384,-9.323,0.055,-3.41,3.22,1.61,0.98
6536.0,-9.261,0.014,-3.369,-9.335,0.086,-3.388,2.24,1.54,0.7
,-9.28,0.022,-3.388,-9.323,0.091,-3.393,2.38,1.89,0.7
,-9.308,0.024,-3.331,-9.383,0.014,-3.381,2.59,1.89,0.7
,-9.356,0.053,-3.362,-9.363,0.005,-3.362,2.52,1.75,0.63
6612.0,-9.294,0.01,-3.4,-9.32,0.132,-3.35,2.45,2.03,0.7
,-9.316,0.024,-3.374,-9.308,0.05,-3.381,2.66,2.03,0.77
,-9.356,0.103,-3.312,-9.304,0.005,-3.288,2.59,2.1,0.63
,-9.328,0.096,-3.331,-9.323,-0.041,-3.3,2.31,2.24,0.63
6688.0,-9.342,-0.069,-3.348,-9.294,0.079,-3.585,2.38,2.8,0.77
,-9.385,0.086,-3.465,-9.241,0.057,-3.53,2.59,2.8,0.63
,-9.323,0.077,-3.498,-9.253,-0.022,-3.479,1.89,2.8,0.56
,-9.232,0.086,-3.53,-9.265,-0.024,-3.362,1.68,2.8,0.49
6764.0,-9.34,-0.007,-3.326,-9.299,-0.05,-3.4,2.1,2.38,0.63
,-9.304,0.062,-3.427,-9.328,0.0,-3.329,2.45,2.31,0.56
,-9.342,0.089,-3.41,-9.318,0.019,-3.412,2.03,2.31,0.56
,-9.261,0.034,-3.34,-9.289,0.065,-3.429,1.54,2.38,0.7
6840.0,-9.299,0.022,-3.436,-9.277,-0.026,-3.46,1.47,2.66,0.49
,-9.284,0.041,-3.501,-9.294,0.014,-3.422,1.26,2.66,0.56
,-9.258,0.029,-3.565,-9.337,-0.007,-3.424,1.54,2.52,0.49
,-9.287,0.067,-3.484,-9.241,0.034,-3.408,1.54,2.59,0.91
6916.0,-9.282,0.045,-3.475,-9.375,0.024,-3.463,1.96,2.38,0.91
,-9.292,0.002,-3.384,-9.294,0.031,-3.419,1.82,2.31,0.98
,-9.351,0.036,-3.52,-9.263,0.067,-3.549,1.89,2.38,0.98
,-9.275,0.045,-3.451,-9.215,0.11,-3.51,2.1,2.31,1.05
6992.0,-9.227,0.01,-3.498,-9.287,0.139,-3.362,0.91,2.24,1.12
,-9.282,-0.026,-3.575,-9.28,0.122,-3.36,0.84,1.89,1.05
,-9.299,0.034,-3.544,-9.323,0.012,-3.266,1.4,1.89,0.98
,-9.237,0.06,-3.477,-9.239,-0.048,-3.18,1.75,1.89,1.05
7068.0,-9.287,-0.029,-3.087,-9.366,0.122,-3.12,0.42,2.87,1.47
,-9.268,0.005,-3.163,-9.402,0.036,-3.278,0.63,3.22,1.47
,-9.306,0.012,-3.108,-9.308,-0.112,-3.24,0.84,3.57,1.47
,-9.33,0.146,-3.099,-9.229,-0.273,-3.29,0.77,4.13,1.61
7144.0,-9.308,-0.105,-3.297,-9.251,0.06,-3.699,1.05,6.37,3.08
,-9.354,-0.026,-3.379,-9.244,0.127,-3.793,1.89,6.65,3.08
,-9.323,0.086,-3.494,-9.191,0.206,-3.848,1.33,6.65,3.08
,-9.261,0.041,-3.506,-9.155,0.278,-3.929,0.91,6.72,3.08
7220.0,-9.225,0.275,-3.91,-9.158,0.45,-4.049,3.64,5.46,3.01
,-9.246,0.402,-3.991,-9.124,0.323,-3.857,3.85,4.76,2.73
,-9.155,0.438,-4.066,-9.167,0.22,-3.754,3.78,4.2,2.31
,-9.179,0.476,-4.078,-9.304,0.175,-3.771,3.43,3.5,1.82
7296.0,-9.253,0.045,-3.635,-9.241,-0.048,-3.197,-0.84,1.47,0.21
,-9.206,-0.036,-3.496,-9.318,0.067,-3.278,-1.26,1.4,0.35
,-9.232,-0.153,-3.525,-9.313,0.148,-3.386,-1.19,1.54,0.56
,-9.146,-0.158,-3.398,-9.201,0.117,-3.515,0.0,1.89,0.84
7372.0,-9.134,0.089,-3.532,-9.517,0.072,-2.852,-0.56,3.08,1.26
,-9.083,0.005,-3.374,-9.466,0.182,-2.989,-0.14,3.57,1.68
,-9.162,-0.129,-3.061,-9.301,0.177,-3.238,1.05,4.55,2.52
,-9.318,-0.158,-2.575,-9.16,-0.199,-3.228,2.24,5.46,3.22
7448.0,-9.182,-0.526,-3.396,-9.048,0.457,-3.936,-2.03,8.68,3.78
,-9.299,-0.436,-3.881,-9.076,0.17,-3.419,0.77,8.68,3.5
,-9.184,0.026,-3.917,-9.234,0.036,-3.312,3.08,8.26,3.43
,-9.083,0.438,-4.032,-9.349,0.103,-3.082,3.43,8.19,3.43
7524.0,-9.292,0.39,-3.106,-9.196,-0.134,-3.132,7.21,10.08,4.62
,-9.198,0.773,-3.618,-9.198,-0.019,-3.673,5.11,10.15,3.15
,-9.024,0.577,-3.364,-9.15,0.309,-4.221,1.26,10.43,2.59
,-9.024,0.175,-2.941,-9.083,0.675,-4.36,-0.91,11.34,3.5
7600.0,-9.012,0.586,-4.331,-8.93,0.627,-4.185,-1.33,9.52,0.98
,-9.038,0.172,-3.9,-8.969,0.581,-4.209,-2.1,9.8,1.19
,-9.174,-0.048,-3.324,-9.134,0.335,-4.118,-0.49,10.5,1.75
,-9.1,0.235,-3.817,-9.16,-0.146,-3.769,1.33,10.36,0.84
7676.0,-9.1,-0.261,-3.91,-8.83,-0.311,-3.798,-2.38,10.29,1.47
,-9.036,-0.091,-3.929,-9.076,-0.526,-3.628,0.7,10.57,1.75
,-8.871,0.158,-4.168,-9.17,-0.297,-3.793,1.19,10.36,1.96
,-8.732,0.084,-4.068,-9.036,0.084,-4.219,0.0,10.29,2.52
7752.0,-8.861,0.084,-4.154,-9.036,0.974,-4.233,0.84,9.87,4.76
,-8.83,-0.038,-4.121,-9.072,1.103,-4.176,0.07,10.29,5.6
,-8.964,0.022,-3.831,-9.112,0.61,-4.034,2.38,10.92,6.09
,-9.045,0.383,-4.092,-9.043,0.11,-3.549,5.53,10.71,5.74
7828.0,-9.074,-0.086,-3.716,-8.916,0.01,-3.886,5.18,11.76,5.32
,-8.949,0.189,-4.044,-9.095,-0.168,-4.183,10.78,11.2,4.76
,-8.703,0.562,-4.274,-9.045,0.019,-4.29,13.3,11.2,4.97
,-8.677,0.562,-4.329,-8.942,0.237,-4.444,11.97,12.04,5.74
7904.0,-8.808,0.481,-4.3,-8.945,0.349,-4.24,9.38,14.14,7.28
,-8.727,0.412,-4.123,-9.141,0.483,-4.133,6.86,14.7,7.14
,-8.66,0.098,-3.96,-9.019,1.003,-4.319,5.39,15.68,7.35
,-8.808,0.117,-3.802,-8.839,1.35,-4.401,6.51,16.03,7.98
7980.0,-8.732,1.402,-4.472,-8.624,0.945,-4.226,8.54,14.84,3.36
,-8.713,1.395,-4.712,-8.729,0.541,-4.087,7.56,14.42,1.89
,-8.782,1.307,-4.618,-8.933,0.282,-4.267,5.74,14.56,0.77
,-8.667,1.18,-4.487,-8.842,0.256,-4.451,3.29,15.61,0.21
8056.0,-8.842,-0.012,-4.695,-8.681,0.34,-5.044,-6.23,14.77,-0.98
,-8.689,-0.287,-4.53,-8.655,1.072,-5.441,-6.65,14.77,-0.14
,-8.516,-0.395,-4.515,-8.614,1.345,-5.508,-2.87,15.47,0.42
,-8.591,-0.292,-4.673,-8.409,1.05,-5.41,2.38,15.89,0.84
8132.0,-8.708,0.359,-5.018,-8.469,-0.486,-5.25,2.31,14.35,0.42
,-8.674,0.012,-5.128,-8.48,-0.541,-5.24,1.82,13.44,0.28
,-8.629,-0.235,-5.286,-8.562,-0.309,-5.195,3.08,12.95,1.4
,-8.614,-0.447,-5.264,-8.67,-0.048,-5.439,3.5,12.11,2.94
8208.0,-8.612,-0.077,-5.439,-8.495,0.747,-5.006,9.66,9.73,6.51
,-8.559,0.215,-5.377,-8.655,0.646,-4.793,9.24,8.96,6.44
,-8.409,0.526,-5.358,-8.672,0.581,-4.645,9.31,8.47,5.81
,-8.464,0.692,-5.214,-8.691,0.694,-4.704,9.03,8.75,4.83
8284.0,-8.581,0.804,-4.659,-8.617,0.474,-5.188,7.42,8.26,1.54
,-8.531,0.782,-4.779,-8.646,0.364,-5.221,8.12,7.77,0.98
,-8.634,0.598,-4.848,-8.373,0.254,-5.492,7.91,7.63,0.63
,-8.713,0.491,-4.956,-8.253,0.038,-5.623,8.05,6.86,0.28
8360.0,-8.105,-0.383,-5.305,-8.662,0.357,-5.121,8.82,6.79,3.57
,-8.447,-0.778,-4.929,-8.543,0.974,-5.331,8.89,7.98,3.99
,-8.619,-0.785,-4.798,-8.425,1.268,-5.236,11.55,8.61,5.46
,-8.311,-0.421,-4.972,-8.399,1.338,-5.293,13.65,7.91,6.51
8436.0,-8.282,1.125,-5.159,-8.437,-0.093,-5.205,7.14,8.26,5.32
,-8.442,0.881,-4.92,-8.873,-0.383,-5.111,5.46,8.12,5.39
,-8.148,0.854,-5.164,-8.758,-0.275,-5.145,4.9,7.91,5.04
,-8.366,0.67,-5.329,-8.624,0.151,-5.238,4.76,8.12,4.62
8512.0,-8.603,0.811,-5.686,-8.342,0.787,-5.382,19.81,8.05,3.29
,-8.397,1.737,-5.544,-8.358,0.072,-5.516,19.67,7.28,1.82
,-8.291,1.711,-5.425,-8.279,-0.529,-5.525,14.63,7.42,0.07
,-8.516,1.455,-5.432,-8.251,-0.885,-5.832,8.82,7.84,-1.05
8588.0,-8.344,-1.22,-5.879,-8.279,-0.048,-5.865,9.8,7.98,3.5
,-8.5,-1.196,-5.776,-8.404,0.553,-5.765,14.63,7.56,4.9
,-8.433,-0.737,-5.887,-8.215,0.395,-5.434,17.99,7.07,6.44
,-8.435,-0.608,-5.745,-8.122,-0.048,-5.482,18.41,5.46,7.28
8664.0,-8.117,-0.098,-5.489,-8.361,1.117,-5.501,10.85,4.41,8.96
,-8.258,0.23,-5.65,-8.567,1.199,-5.482,12.46,4.13,9.38
,-8.232,0.361,-5.374,-8.488,1.031,-5.43,14.14,3.22,8.47
,-8.311,0.914,-5.451,-8.325,0.854,-5.508,15.47,2.31,7.35
8740.0,-8.38,0.811,-5.473,-8.473,0.469,-5.879,10.43,1.54,3.57
,-8.16,0.782,-5.564,-8.516,0.069,-5.872,10.15,2.1,3.08
,-8.203,0.802,-5.688,-8.421,-0.199,-5.832,8.75,1.89,2.66
,-8.416,0.534,-5.755,-8.248,-0.383,-5.793,6.93,1.75,2.03
8816.0,-8.342,-0.144,-5.8,-8.102,0.61,-5.65,3.78,3.64,4.9
,-8.516,0.153,-5.724,-8.09,0.787,-5.575,4.06,3.15,5.46
,-8.318,0.45,-5.712,-8.241,1.027,-5.621,2.45,1.89,5.6
,-8.093,0.555,-5.75,-8.416,0.921,-5.597,0.77,1.54,5.6
8892.0,-8.516,1.036,-5.571,-8.382,-0.223,-5.408,-3.15,3.08,3.64
,-8.351,0.972,-5.559,-8.411,0.335,-5.832,-5.11,3.29,3.22
,-8.318,0.687,-5.549,-8.349,0.443,-5.786,-7.63,3.5,2.94
,-8.267,0.258,-5.583,-8.296,0.663,-5.788,-9.8,3.36,3.15
8968.0,-8.346,0.771,-5.714,-8.301,0.62,-5.535,-7.07,3.15,1.68
,-8.442,0.816,-5.575,-8.224,0.514,-5.611,-7.91,2.59,1.05
,-8.423,0.859,-5.559,-8.375,0.364,-5.58,-8.96,1.4,0.42
,-8.363,0.794,-5.487,-8.447,0.235,-5.556,-10.64,1.05,-0.21
9044.0,-8.459,0.261,-5.568,-8.301,0.421,-5.611,-10.01,-0.28,0.14
,-8.241,0.316,-5.609,-8.416,0.471,-5.564,-9.24,-1.33,0.84
,-8.165,0.33,-5.669,-8.471,0.395,-5.434,-8.75,-1.47,1.33
,-8.251,0.275,-5.678,-8.459,0.361,-5.473,-8.68,-1.54,1.68
9120.0,-8.311,0.251,-5.592,-8.411,0.431,-5.573,-7.07,-1.05,3.08
,-8.256,0.163,-5.676,-8.418,0.72,-5.453,-6.09,-0.49,3.92
,-8.363,0.369,-5.676,-8.311,0.759,-5.552,-3.92,-0.42,4.2
,-8.366,0.457,-5.75,-8.222,0.916,-5.559,-1.75,-0.7,3.78
9196.0,-8.382,0.981,-5.58,-8.177,0.759,-5.566,-2.38,-4.83,2.45
,-8.526,1.036,-5.592,-8.303,0.622,-5.465,-3.01,-5.39,1.75
,-8.466,1.022,-5.554,-8.471,0.558,-5.394,-4.27,-5.04,1.26
,-8.275,0.842,-5.559,-8.404,0.895,-5.513,-4.9,-4.27,1.05
9272.0,-8.435,0.864,-5.566,-8.358,0.385,-5.264,0.42,-5.32,-1.4
,-8.471,0.668,-5.339,-8.301,0.486,-5.284,-2.8,-7.49,-1.61
,-8.272,0.529,-5.391,-8.299,0.553,-5.197,-3.57,-8.12,-1.33
,-8.248,0.361,-5.327,-8.394,0.481,-5.078,-3.64,-8.12,-0.91
9348.0,-8.461,0.55,-5.162,-8.557,0.742,-5.111,-0.21,-7.56,0.42
,-8.454,0.589,-5.162,-8.366,0.811,-5.202,0.42,-7.14,0.77
,-8.516,0.574,-5.102,-8.299,0.794,-5.197,1.33,-6.79,1.05
,-8.576,0.665,-5.114,-8.454,0.797,-5.288,2.03,-6.72,1.19
9424.0,-8.445,0.782,-5.221,-8.567,0.924,-5.152,0.7,-9.45,1.19
,-8.485,0.715,-5.214,-8.569,1.18,-5.336,0.0,-10.01,1.19
,-8.492,0.665,-5.231,-8.452,1.259,-5.288,0.0,-10.29,0.98
,-8.526,0.742,-5.185,-8.516,0.778,-4.85,0.84,-10.5,0.7
9500.0,-8.423,0.806,-5.054,-8.681,0.931,-5.063,0.63,-11.55,-0.98
,-8.595,0.584,-4.949,-8.442,0.995,-5.092,1.19,-11.76,-0.49
,-8.768,0.503,-4.893,-8.452,0.995,-5.126,2.31,-12.53,0.0
,-8.813,0.658,-5.083,-8.497,0.945,-4.956,3.22,-13.23,0.07
9576.0,-8.562,0.998,-4.822,-8.528,0.931,-4.798,1.05,-14.42,-1.19
,-8.681,1.019,-4.848,-8.655,0.842,-4.704,0.35,-15.05,-1.61
,-8.77,0.952,-4.817,-8.753,0.897,-4.776,-0.35,-15.33,-2.1
,-8.835,0.914,-4.8,-8.729,1.117,-4.798,-0.84,-15.33,-2.38
9652.0,-8.737,1.086,-4.659,-8.844,0.369,-4.216,0.77,-16.73,-4.2
,-8.679,0.962,-4.599,-8.863,0.242,-4.14,-0.35,-16.87,-4.62
,-8.648,0.72,-4.511,-8.737,0.239,-4.101,-1.05,-16.73,-5.04
,-8.775,0.45,-4.267,-8.784,0.34,-4.156,-0.84,-16.31,-5.32
9728.0,-8.684,0.445,-4.192,-8.976,0.751,-3.795,4.34,-15.54,-3.15
,-8.792,0.524,-4.142,-8.942,0.952,-3.821,4.9,-15.4,-2.73
,-8.835,0.617,-3.944,-8.871,1.053,-3.888,5.6,-14.91,-2.45
,-8.983,0.639,-3.86,-8.928,0.749,-3.702,6.37,-14.0,-2.52
9804.0,-8.909,0.51,-3.841,-9.081,0.847,-3.955,1.26,-11.97,-4.2
,-8.856,0.383,-3.597,-8.851,0.885,-4.027,2.66,-11.34,-3.64
,-9.009,0.498,-3.841,-8.928,0.55,-3.853,4.9,-11.13,-3.29
,-9.184,0.646,-3.898,-8.938,0.218,-3.91,5.39,-11.06,-3.99
9880.0,-8.969,0.029,-3.68,-9.143,0.313,-3.668,1.33,-9.31,-4.27
,-9.067,0.129,-3.896,-9.069,0.258,-3.967,3.08,-9.45,-3.78
,-9.162,0.261,-3.807,-9.005,0.244,-3.941,3.78,-9.45,-3.57
,-9.122,0.39,-3.903,-9.026,0.086,-3.793,4.13,-9.1,-3.22
9956.0,-9.064,0.103,-3.537,-9.287,0.524,-3.25,6.02,-8.12,-1.68
,-9.081,0.244,-3.482,-9.201,0.503,-3.544,7.84,-7.77,-1.54
,-9.141,0.416,-3.278,-9.112,0.517,-3.625,7.91,-7.07,-1.54
,-9.246,0.531,-3.381,-9.036,0.589,-3.47,6.51,-6.65,-1.68
10032.0,-9.033,0.634,-3.558,-9.342,0.859,-3.221,2.17,-4.41,-2.94
,-9.081,0.79,-3.403,-9.306,0.555,-3.23,2.17,-4.06,-3.71
,-9.246,0.964,-3.376,-9.225,0.232,-3.475,0.91,-3.85,-4.55
,-9.385,1.086,-3.321,-9.052,0.065,-3.379,-3.01,-3.71,-5.67
10108.0,-9.103,0.01,-3.659,-9.215,-0.017,-3.582,-10.99,-1.05,-6.72
,-9.079,-0.096,-3.458,-9.17,0.235,-3.659,-10.5,-0.7,-6.09
,-9.186,-0.199,-3.479,-9.148,0.335,-3.752,-9.73,-0.63,-5.11
,-9.289,-0.244,-3.448,-9.081,0.409,-3.63,-8.05,-0.21,-4.41
10184.0,-9.129,0.447,-3.498,-9.282,0.613,-3.716,-3.92,1.12,-2.94
,-9.244,0.438,-3.412,-9.208,0.567,-3.996,-3.64,1.4,-2.66
,-9.325,0.495,-3.417,-9.088,0.565,-4.07,-3.22,1.4,-2.94
,-9.354,0.546,-3.491,-8.952,0.45,-4.116,-3.64,1.05,-3.29
10260.0,-8.949,0.158,-3.939,-9.232,0.242,-3.948,-7.07,-0.14,-4.62
,-9.06,0.089,-4.027,-9.227,0.457,-4.149,-6.09,-0.49,-4.27
,-9.174,-0.041,-3.812,-9.052,0.459,-4.07,-5.46,-0.91,-4.06
,-9.179,0.043,-3.743,-9.036,0.376,-3.941,-4.2,-0.77,-3.71
10336.0,-9.17,0.208,-3.917,-9.201,0.014,-3.745,-1.82,-2.73,-3.01
,-9.282,0.359,-4.066,-9.208,0.151,-3.656,0.07,-3.15,-3.01
,-9.208,0.378,-3.975,-9.194,0.34,-3.704,0.35,-3.64,-2.8
,-9.143,0.165,-3.781,-9.17,0.258,-3.503,0.21,-3.78,-2.17
10412.0,-9.17,-0.012,-3.36,-9.227,0.208,-2.852,1.75,-3.78,-1.19
,-9.282,-0.096,-3.264,-9.229,0.16,-2.843,3.15,-3.43,-0.7
,-9.234,0.091,-3.185,-9.15,-0.089,-2.714,5.67,-2.8,-0.07
,-9.239,0.179,-2.946,-9.241,-0.129,-2.58,7.63,-2.24,0.49
10488.0,-9.354,-0.007,-2.73,-9.313,0.447,-3.604,9.94,2.8,2.52
,-9.363,0.254,-2.967,-9.299,0.641,-3.879,9.52,3.57,2.17
,-9.182,0.347,-3.075,-9.22,0.591,-4.121,7.77,4.34,2.03
,-9.299,0.428,-3.372,-9.122,0.45,-4.099,5.67,4.69,1.82
10564.0,-9.124,0.316,-4.142,-9.241,0.579,-3.824,2.24,3.29,0.28
,-9.182,0.45,-4.07,-9.158,0.361,-3.673,3.71,2.66,0.14
,-9.239,0.608,-3.924,-9.222,0.079,-3.599,3.85,2.24,0.0
,-9.213,0.658,-3.776,-9.273,0.098,-3.613,2.31,1.89,-0.63
10640.0,-9.215,0.256,-3.546,-9.148,0.098,-3.786,3.15,1.12,-1.05
,-9.292,0.404,-3.513,-9.134,-0.124,-3.687,2.8,0.98,-1.12
,-9.335,0.467,-3.673,-9.184,-0.005,-3.668,1.33,0.98,-1.54
,-9.237,0.34,-3.735,-9.246,0.179,-3.719,0.0,0.84,-1.68
10716.0,-9.201,0.302,-3.62,-9.225,-0.172,-3.242,3.5,0.49,-0.63
,-9.256,0.158,-3.486,-9.284,-0.105,-3.252,2.1,0.77,-0.49
,-9.227,-0.029,-3.345,-9.282,0.093,-3.364,1.26,0.91,-0.28
,-9.232,-0.158,-3.283,-9.222,0.232,-3.417,1.47,1.12,-0.07
10792.0,-9.17,0.371,-3.594,-9.241,0.065,-3.781,2.24,2.94,0.84
,-9.234,0.316,-3.716,-9.311,0.129,-3.752,1.12,2.73,0.56
,-9.189,0.294,-3.819,-9.289,0.285,-3.781,0.63,2.52,0.49
,-9.196,0.177,-3.812,-9.239,0.436,-3.884,0.63,2.52,0.7
10868.0,-9.174,0.459,-3.843,-9.249,0.201,-3.472,2.73,1.26,0.56
,-9.107,0.354,-3.802,-9.289,0.139,-3.352,1.68,1.05,0.49
,-9.189,0.251,-3.695,-9.299,0.182,-3.302,1.26,0.77,0.35
,-9.217,0.218,-3.64,-9.342,0.292,-3.417,1.47,0.7,0.35
10944.0,-9.258,0.357,-3.551,-9.139,0.215,-3.666,2.38,1.47,0.49
,-9.148,0.292,-3.573,-9.217,0.227,-3.711,1.54,1.75,0.49
,-9.184,0.187,-3.637,-9.249,0.23,-3.632,0.77,1.75,0.35
,-9.148,0.172,-3.69,-9.201,0.275,-3.656,0.49,1.61,0.28
11020.0,-9.189,0.239,-3.647,-9.222,0.182,-3.587,0.56,1.54,0.49
,-9.177,0.213,-3.628,-9.189,0.026,-3.501,0.84,1.47,0.7
,-9.201,0.156,-3.647,-9.27,-0.01,-3.434,1.19,1.61,0.63
,-9.21,0.254,-3.62,-9.308,0.093,-3.436,1.4,1.61,0.77
11096.0,-9.342,0.203,-3.518,-9.136,0.168,-3.833,3.08,2.31,1.4
,-9.311,0.309,-3.632,-9.174,0.223,-3.793,2.38,2.31,1.26
,-9.206,0.287,-3.671,-9.222,0.313,-3.692,1.33,2.1,1.05
,-9.186,0.187,-3.812,-9.261,0.436,-3.649,0.98,2.17,0.98
11172.0,-9.265,0.45,-3.68,-9.165,0.194,-3.64,2.17,1.61,1.12
,-9.251,0.371,-3.723,-9.217,0.189,-3.637,1.33,1.4,0.91
,-9.162,0.223,-3.771,-9.261,0.323,-3.544,1.19,1.19,0.84
,-9.174,0.184,-3.752,-9.325,0.33,-3.556,1.61,1.12,1.05
11248.0,-9.27,0.225,-3.506,-9.246,0.323,-3.52,1.54,1.19,0.91
,-9.191,0.139,-3.472,-9.213,0.388,-3.642,1.75,1.47,1.12
,-9.246,0.091,-3.443,-9.237,0.299,-3.769,2.73,1.89,1.33
,-9.241,0.206,-3.47,-9.165,0.268,-3.762,3.57,1.68,1.26
11324.0,-9.162,0.242,-3.726,-9.213,0.354,-3.58,3.43,1.75,1.05
,-9.184,0.211,-3.769,-9.196,0.278,-3.544,4.34,1.75,1.12
,-9.217,0.357,-3.697,-9.263,0.163,-3.503,5.04,1.54,1.12
,-9.258,0.424,-3.656,-9.249,0.124,-3.467,4.83,1.47,1.12
11400.0,-9.217,0.163,-3.451,-9.263,0.273,-3.711,3.85,2.1,1.12
,-9.225,0.225,-3.501,-9.162,0.266,-3.795,3.85,2.17,1.12
,-9.239,0.201,-3.597,-9.184,0.208,-3.814,3.78,2.24,1.05
,-9.206,0.227,-3.628,-9.182,0.175,-3.843,3.99,2.38,1.12
11476.0,-9.184,0.117,-3.8,-9.203,0.328,-3.642,4.9,1.61,1.33
,-9.191,0.268,-3.817,-9.196,0.261,-3.601,5.67,1.4,1.26
,-9.184,0.366,-3.723,-9.186,0.239,-3.577,5.46,1.33,1.19
,-9.244,0.335,-3.707,-9.273,0.251,-3.64,4.48,0.98,1.05
11552.0,-9.27,0.244,-3.563,-9.196,0.184,-3.604,3.71,0.98,0.84
,-9.182,0.282,-3.625,-9.196,0.187,-3.587,3.57,1.12,0.98
,-9.237,0.239,-3.656,-9.251,0.297,-3.647,3.29,0.98,0.84
,-9.208,0.196,-3.666,-9.284,0.369,-3.728,3.08,1.12,0.84
11628.0,-9.229,0.333,-3.764,-9.234,0.297,-3.587,2.52,0.91,0.49
,-9.148,0.227,-3.735,-9.275,0.268,-3.527,2.52,0.84,0.56
,-9.131,0.187,-3.697,-9.244,0.218,-3.553,3.36,0.98,0.63
,-9.208,0.309,-3.721,-9.191,0.184,-3.544,3.85,0.91,0.7
11704.0,-9.213,0.179,-3.52,-9.244,0.232,-3.537,2.94,1.12,0.56
,-9.213,0.203,-3.553,-9.284,0.22,-3.582,3.36,1.26,0.63
,-9.213,0.246,-3.525,-9.268,0.227,-3.63,3.22,1.33,0.49
,-9.249,0.249,-3.518,-9.229,0.227,-3.714,2.8,1.47,0.42
11780.0,-9.177,0.223,-3.723,-9.258,0.244,-3.594,2.38,1.75,0.56
,-9.134,0.182,-3.711,-9.246,0.249,-3.625,2.8,1.61,0.56
,-9.198,0.196,-3.683,-9.222,0.215,-3.585,3.08,1.68,0.63
,-9.225,0.258,-3.654,-9.196,0.177,-3.601,3.15,1.54,0.63
11856.0,-9.258,0.206,-3.632,-9.21,0.206,-3.601,2.8,1.61,0.7
,-9.17,0.227,-3.637,-9.186,0.16,-3.599,3.29,1.68,0.63
,-9.222,0.297,-3.659,-9.263,0.232,-3.601,3.36,1.54,0.7
,-9.186,0.256,-3.716,-9.239,0.206,-3.613,2.66,1.61,0.56
11932.0,-9.232,0.223,-3.609,-9.21,0.268,-3.676,1.75,1.82,0.42
,-9.22,0.199,-3.668,-9.215,0.184,-3.733,2.1,1.82,0.49
,-9.206,0.206,-3.719,-9.174,0.179,-3.625,2.73,1.75,0.7
,-9.194,0.213,-3.733,-9.222,0.187,-3.604,3.29,1.47,0.84
12008.0,-9.21,0.254,-3.661,-9.227,0.225,-3.664,2.94,1.33,0.56
,-9.239,0.244,-3.666,-9.198,0.23,-3.573,2.59,1.4,0.63
,-9.172,0.225,-3.692,-9.206,0.165,-3.568,2.45,1.26,0.7
,-9.158,0.177,-3.678,-9.261,0.144,-3.542,2.8,1.4,0.84
12084.0,-9.27,0.156,-3.57,-9.206,0.232,-3.673,2.45,1.4,0.7
,-9.232,0.239,-3.582,-9.215,0.256,-3.673,2.17,1.61,0.7
,-9.229,0.232,-3.611,-9.213,0.246,-3.654,1.82,1.75,0.77
,-9.21,0.16,-3.661,-9.198,0.16,-3.632,1.96,1.61,0.77
12160.0,-9.239,0.218,-3.695,-9.201,0.211,-3.685,2.24,1.61,0.84
,-9.201,0.225,-3.714,-9.201,0.227,-3.668,2.17,1.26,0.7
,-9.182,0.189,-3.716,-9.232,0.218,-3.58,1.96,1.54,0.91
,-9.198,0.168,-3.735,-9.217,0.22,-3.57,2.1,1.54,0.77
12236.0,-9.239,0.196,-3.587,-9.277,0.239,-3.707,1.96,1.33,0.84
,-9.268,0.17,-3.64,-9.208,0.297,-3.695,1.75,1.61,0.84
,-9.241,0.11,-3.544,-9.153,0.23,-3.652,2.1,1.68,0.91
,-9.263,0.232,-3.63,-9.177,0.211,-3.661,2.17,1.68,0.98
12312.0,-9.299,0.261,-3.635,-9.189,0.194,-3.699,2.45,1.61,1.05
,-9.234,0.254,-3.678,-9.194,0.199,-3.63,2.31,1.26,0.98
,-9.179,0.206,-3.63,-9.215,0.22,-3.637,2.17,1.33,0.98
,-9.201,0.196,-3.656,-9.253,0.323,-3.606,2.31,1.4,0.84
12388.0,-9.253,0.242,-3.589,-9.232,0.249,-3.585,2.24,1.33,0.91
,-9.234,0.194,-3.58,-9.225,0.266,-3.625,2.24,1.68,0.84
,-9.261,0.16,-3.668,-9.196,0.261,-3.625,2.31,1.54,0.84
,-9.213,0.244,-3.659,-9.155,0.29,-3.661,2.52,1.54,0.77
12464.0,-9.227,0.328,-3.692,-9.124,0.304,-3.843,1.89,1.47,0.77
,-9.237,0.342,-3.769,-9.179,0.325,-3.731,1.89,1.33,0.63
,-9.194,0.345,-3.831,-9.229,0.359,-3.635,1.89,1.26,0.63
,-9.165,0.287,-3.819,-9.203,0.309,-3.625,2.1,0.91,0.42
12540.0,-9.229,0.187,-3.666,-9.225,0.254,-3.637,2.17,0.49,0.42
,-9.182,0.177,-3.515,-9.217,0.199,-3.673,2.17,0.56,0.42
,-9.208,0.177,-3.537,-9.222,0.206,-3.711,2.59,0.63,0.42
,-9.246,0.196,-3.64,-9.21,0.201,-3.661,2.8,0.77,0.49
12616.0,-9.229,0.225,-3.683,-9.217,0.211,-3.589,2.8,0.84,0.35
,-9.198,0.306,-3.659,-9.21,0.218,-3.599,2.66,0.56,0.35
,-9.244,0.297,-3.592,-9.203,0.17,-3.587,2.31,0.63,0.35
,-9.258,0.246,-3.58,-9.296,0.182,-3.616,2.17,0.56,0.35
12692.0,-9.189,0.177,-3.611,-9.244,0.218,-3.664,3.22,0.84,0.42
,-9.215,0.218,-3.659,-9.256,0.246,-3.678,3.22,0.84,0.35
,-9.244,0.237,-3.64,-9.177,0.275,-3.649,3.08,0.84,0.35
,-9.265,0.215,-3.609,-9.179,0.261,-3.609,2.73,0.77,0.42
12768.0,-9.22,0.139,-3.587,-9.263,0.201,-3.522,2.66,0.63,0.28
,-9.229,0.089,-3.482,-9.189,0.266,-3.498,2.87,0.98,0.35
,-9.251,0.148,-3.484,-9.191,0.146,-3.431,2.87,0.91,0.42
,-9.258,0.136,-3.475,-9.229,0.086,-3.486,2.94,1.19,0.49
12844.0,-9.229,0.132,-3.424,-9.227,0.127,-3.486,3.15,1.68,0.63
,-9.287,0.239,-3.489,-9.239,0.129,-3.577,3.29,1.68,0.63
,-9.196,0.246,-3.534,-9.306,0.203,-3.52,2.94,1.96,0.49
,-9.203,0.201,-3.594,-9.21,0.266,-3.599,2.59,2.1,0.63
12920.0,-9.206,0.196,-3.558,-9.222,0.249,-3.635,2.87,2.59,0.91
,-9.241,0.156,-3.625,-9.201,0.172,-3.515,3.01,2.52,0.84
,-9.256,0.134,-3.587,-9.213,0.12,-3.532,3.15,2.59,0.98
,-9.253,0.132,-3.62,-9.196,0.12,-3.594,3.15,2.59,0.91
12996.0,-9.306,0.227,-3.613,-9.136,0.139,-3.888,3.99,3.08,1.33
,-9.28,0.278,-3.781,-9.232,0.235,-3.939,3.92,3.01,1.26
,-9.237,0.268,-3.867,-9.213,0.347,-3.908,3.43,2.59,1.19
,-9.17,0.151,-3.91,-9.198,0.28,-3.74,3.64,2.38,1.19
13072.0,-9.155,0.22,-3.709,-9.268,0.232,-3.592,5.18,1.05,1.12
,-9.194,0.168,-3.764,-9.265,0.156,-3.542,5.74,0.98,1.12
,-9.203,0.318,-3.783,-9.184,0.129,-3.542,5.81,0.84,0.98
,-9.198,0.263,-3.594,-9.198,0.134,-3.513,5.46,0.77,1.05
13148.0,-9.196,0.215,-3.477,-9.292,0.151,-3.321,5.81,1.12,1.19
,-9.249,0.273,-3.434,-9.287,0.156,-3.374,5.39,1.33,0.91
,-9.263,0.194,-3.379,-9.225,0.187,-3.436,4.48,1.75,0.98
,-9.258,0.182,-3.285,-9.201,0.191,-3.597,3.92,2.17,1.12
13224.0,-9.162,0.184,-3.609,-9.237,0.218,-3.678,2.66,3.43,1.05
,-9.186,0.215,-3.659,-9.229,0.213,-3.733,2.38,3.5,1.12
,-9.234,0.251,-3.656,-9.213,0.208,-3.774,1.61,3.78,1.26
,-9.237,0.273,-3.692,-9.167,0.057,-3.719,0.91,3.92,1.33
13300.0,-9.217,-0.065,-3.702,-9.11,0.223,-3.819,-0.07,3.92,2.45
,-9.136,-0.086,-3.568,-9.04,0.022,-3.795,0.77,3.99,2.73
,-9.237,0.031,-3.616,-9.095,-0.041,-3.678,2.03,4.13,3.01
,-9.201,0.194,-3.821,-9.165,0.002,-3.503,2.17,3.92,2.73
13376.0,-9.186,0.201,-3.484,-9.1,0.005,-3.376,3.85,4.48,3.71
,-9.167,0.287,-3.25,-9.122,0.057,-3.482,2.8,4.69,3.64
,-9.268,0.182,-3.357,-9.217,-0.019,-3.491,0.91,4.9,3.36
,-9.225,0.144,-3.527,-9.194,-0.079,-3.458,-0.35,5.11,2.73
13452.0,-9.162,0.184,-3.743,-8.904,0.357,-4.027,3.57,6.79,4.55
,-9.158,0.275,-3.573,-8.942,0.38,-4.19,3.78,6.86,4.48
,-9.196,0.4,-3.922,-8.976,0.512,-4.329,2.59,6.65,3.85
,-9.119,0.447,-4.051,-8.99,0.665,-4.188,-0.14,6.37,3.08
13528.0,-9.105,0.732,-4.092,-9.043,0.223,-3.982,1.82,4.06,2.31
,-9.304,0.481,-3.759,-9.112,0.268,-4.18,0.84,3.71,2.59
,-9.284,0.213,-3.908,-9.064,0.325,-4.185,0.63,3.64,2.94
,-9.155,0.141,-3.982,-9.076,0.292,-3.991,1.54,3.22,2.94
13604.0,-9.155,0.376,-4.274,-9.189,0.603,-3.477,10.08,0.91,2.94
,-9.15,0.615,-3.922,-9.282,0.567,-3.412,10.08,0.84,2.59
,-9.124,0.787,-3.745,-9.277,0.464,-3.36,8.82,0.77,2.17
,-9.167,0.873,-3.671,-9.086,0.285,-3.238,5.46,0.7,0.7
13680.0,-8.926,0.273,-3.52,-9.127,0.005,-3.551,0.77,3.01,-0.7
,-9.04,0.299,-3.659,-8.935,0.144,-3.324,2.38,2.87,-0.84
,-9.21,0.23,-3.721,-9.014,0.469,-3.558,3.99,2.66,-0.7
,-9.244,0.091,-3.64,-9.237,0.804,-3.905,5.04,3.5,0.07
13756.0,-9.342,0.823,-4.02,-8.765,0.294,-4.604,6.16,3.85,-0.56
,-9.217,0.823,-4.238,-8.734,-0.105,-4.336,3.64,3.64,-0.28
,-9.072,0.68,-4.427,-8.854,-0.553,-4.001,2.31,3.5,-0.7
,-8.866,0.467,-4.448,-9.086,-0.94,-3.769,2.24,2.94,-1.47
13832.0,-9.268,-1.158,-3.369,-9.213,-0.275,-3.74,1.82,1.61,1.26
,-9.356,-1.211,-3.297,-9.107,0.464,-3.896,3.85,2.52,3.22
,-9.215,-1.165,-3.24,-9.098,0.94,-3.936,5.6,3.43,4.83
,-9.189,-0.861,-3.374,-8.882,1.163,-3.872,8.26,3.99,6.65
13908.0,-8.804,0.859,-3.699,-9.131,-0.002,-3.113,3.64,6.44,6.09
,-8.892,0.653,-3.594,-9.227,-0.091,-2.857,2.31,6.44,5.6
,-9.05,0.416,-3.463,-9.086,-0.022,-3.013,3.01,6.72,6.02
,-9.079,0.203,-3.285,-9.057,0.096,-2.912,4.27,7.98,6.86
13984.0,-9.22,0.292,-3.094,-9.081,1.823,-3.984,12.88,13.16,8.26
,-9.143,0.921,-3.305,-8.997,1.33,-3.848,14.28,13.09,8.12
,-9.112,1.589,-3.69,-8.933,0.67,-3.64,13.58,13.09,6.93
,-9.095,1.95,-3.967,-9.019,0.017,-3.467,9.45,13.23,4.76
14060.0,-9.194,-0.321,-3.424,-8.964,0.663,-4.661,1.89,20.23,2.87
,-9.289,-0.163,-3.628,-8.741,0.747,-4.862,6.09,20.02,3.08
,-9.155,0.239,-4.111,-8.605,0.849,-4.941,7.98,19.67,3.01
,-9.139,0.469,-4.271,-8.708,0.675,-5.001,8.75,19.46,3.43
14136.0,-8.521,0.567,-5.047,-8.863,-0.235,-4.819,2.66,15.68,0.77
,-8.5,0.383,-5.027,-8.878,-0.567,-4.817,-0.07,15.12,1.68
,-8.674,0.108,-5.078,-8.854,-0.739,-4.755,-0.7,14.21,2.24
,-8.878,-0.074,-4.992,-8.753,-0.61,-4.972,-0.98,12.95,1.96
14212.0,-8.641,-0.304,-5.03,-8.887,0.928,-4.692,1.96,8.4,6.79
,-8.421,-0.091,-4.958,-8.775,1.0,-4.609,3.5,8.75,8.05
,-8.528,0.182,-4.865,-8.741,1.043,-4.475,4.48,9.24,8.05
,-8.772,0.605,-4.709,-8.782,1.218,-4.566,6.09,9.73,7.91
14288.0,-8.859,1.407,-4.63,-8.772,0.797,-4.472,5.81,9.73,5.32
,-8.885,1.414,-4.47,-8.693,0.493,-4.63,5.67,9.73,3.92
,-9.009,1.34,-4.353,-8.672,0.206,-4.513,3.64,9.03,2.03
,-8.794,1.053,-4.353,-8.72,0.232,-4.472,2.17,8.82,0.42
14364.0,-8.684,0.268,-4.508,-8.665,0.988,-4.692,9.66,10.99,-3.29
,-8.768,0.342,-4.484,-8.454,1.153,-4.815,11.41,10.92,-3.5
,-8.868,0.632,-4.704,-8.136,1.017,-4.724,11.83,10.01,-3.5
,-8.866,0.67,-4.671,-8.746,1.094,-4.633,10.5,9.1,-3.01
14440.0,-8.878,0.883,-4.556,-8.387,0.089,-5.422,7.14,7.98,-5.25
,-8.82,0.672,-4.685,-8.234,0.038,-5.738,5.95,7.77,-5.32
,-8.708,0.345,-4.757,-8.342,-0.498,-5.896,3.57,7.21,-5.18
,-8.533,0.117,-5.051,-8.43,-1.113,-5.705,3.36,7.49,-4.97
14516.0,-8.863,-0.95,-5.537,-8.969,-0.127,-5.03,9.17,7.14,1.33
,-8.78,-0.72,-5.482,-9.105,0.266,-4.858,12.6,6.79,1.89
,-8.768,-0.495,-5.248,-8.784,0.727,-5.147,16.66,5.46,1.61
,-8.88,-0.27,-5.114,-8.569,1.022,-5.296,16.8,4.76,1.12
14592.0,-8.55,0.969,-5.611,-8.457,0.802,-5.2,11.2,1.75,0.35
,-8.387,0.581,-5.367,-8.811,0.589,-5.142,10.43,1.82,0.63
,-8.189,0.601,-5.19,-8.952,0.194,-5.035,10.36,1.12,0.77
,-8.26,0.976,-5.353,-8.959,-0.182,-5.037,11.69,1.12,0.7
14668.0,-8.624,-0.251,-5.126,-8.346,-0.589,-5.48,10.01,-0.07,1.19
,-8.449,-0.617,-5.085,-8.162,-0.514,-5.358,10.57,0.07,1.75
,-8.646,-0.577,-5.267,-8.165,-0.412,-5.205,12.6,-0.98,1.96
,-8.619,-0.488,-5.31,-8.536,-0.251,-5.092,14.0,-1.89,2.94
14744.0,-8.961,-0.129,-5.042,-8.469,0.057,-4.637,16.24,-1.68,6.58
,-9.091,-0.201,-4.874,-8.67,0.237,-4.578,16.17,-1.61,6.09
,-8.899,-0.086,-4.724,-8.679,0.579,-4.704,15.12,-1.54,6.23
,-8.516,-0.196,-4.721,-8.667,0.854,-4.759,14.91,-0.28,6.44
14820.0,-8.739,1.0,-4.891,-8.911,0.936,-4.63,11.76,0.77,5.67
,-8.679,0.847,-4.709,-8.672,0.89,-4.831,10.29,1.82,5.04
,-8.648,0.625,-4.633,-8.488,0.682,-4.925,9.38,2.66,4.06
,-8.83,0.864,-4.669,-8.531,0.61,-4.922,8.47,3.5,3.29
14896.0,-8.536,0.543,-5.142,-8.648,0.249,-5.085,-1.61,4.48,1.26
,-8.588,0.378,-5.138,-8.624,-0.385,-4.664,-2.03,5.25,1.54
,-8.665,0.464,-5.121,-8.72,-0.002,-4.915,-1.96,5.46,1.61
,-8.763,0.373,-5.221,-8.629,0.127,-5.19,-2.38,5.6,1.26
14972.0,-8.693,0.237,-5.054,-8.677,0.768,-5.343,-5.53,5.18,1.82
,-8.55,0.433,-5.195,-8.823,0.72,-5.269,-6.09,4.34,1.26
,-8.416,0.591,-5.245,-8.799,0.732,-5.157,-7.49,4.2,0.84
,-8.459,0.589,-5.226,-8.763,0.756,-5.126,-9.17,4.69,0.63
15048.0,-8.655,0.656,-5.219,-8.636,-0.246,-5.133,-11.69,4.48,-2.66
,-8.746,0.424,-5.193,-8.65,-0.321,-5.178,-12.6,4.48,-2.73
,-8.703,0.213,-5.207,-8.579,-0.416,-5.26,-13.3,4.13,-2.52
,-8.715,-0.079,-5.09,-8.466,-0.39,-5.135,-12.67,4.34,-2.17
15124.0,-8.502,-0.297,-5.178,-8.626,-0.278,-5.298,-5.81,2.31,1.19
,-8.605,-0.342,-5.264,-8.445,-0.165,-5.398,-5.67,1.12,2.1
,-8.638,-0.196,-5.434,-8.378,-0.115,-5.327,-5.95,0.14,3.29
,-8.646,-0.225,-5.324,-8.435,0.019,-5.408,-7.0,-0.14,4.62
15200.0,-8.564,0.117,-5.494,-8.612,0.711,-5.262,-4.48,-2.8,7.14
,-8.588,0.146,-5.327,-8.715,0.897,-5.257,-3.64,-2.59,7.49
,-8.684,0.34,-5.195,-8.732,0.83,-5.367,-2.24,-2.31,7.56
,-8.61,0.538,-5.276,-8.763,0.826,-5.384,-1.19,-2.52,7.21
15276.0,-8.478,0.613,-5.054,-8.514,0.794,-5.083,-2.8,-4.69,4.69
,-8.607,0.727,-5.217,-8.485,0.763,-5.126,-0.35,-5.53,3.36
,-8.478,0.938,-5.286,-8.497,0.668,-5.116,0.56,-6.72,2.17
,-8.536,0.778,-5.047,-8.574,0.469,-5.114,-0.63,-7.21,1.4
15352.0,-8.653,0.313,-4.922,-8.947,0.491,-4.592,-3.29,-9.38,1.54
,-8.679,0.416,-4.917,-8.748,0.672,-4.803,-1.26,-9.73,1.05
,-8.665,0.574,-4.858,-8.667,0.617,-4.726,0.42,-9.59,0.7
,-8.76,0.579,-4.75,-8.631,0.591,-4.688,0.7,-9.73,0.56
15428.0,-8.502,0.658,-4.649,-8.722,0.692,-4.558,-1.68,-11.34,0.63
,-8.567,0.739,-4.58,-8.806,0.512,-4.494,-0.77,-10.92,0.63
,-8.782,0.771,-4.558,-8.815,0.598,-4.434,-0.49,-10.92,0.56
,-8.78,0.761,-4.585,-8.746,0.897,-4.654,-1.05,-10.99,0.49
15504.0,-8.969,0.857,-4.465,-8.557,0.684,-4.542,2.94,-9.31,-1.19
,-9.048,0.83,-4.322,-8.885,0.613,-4.468,2.59,-10.08,-1.54
,-8.684,1.077,-4.623,-9.11,0.833,-4.508,0.84,-11.06,-1.33
,-8.509,0.976,-4.587,-9.021,0.983,-4.465,-0.91,-10.5,-0.63
15580.0,-8.892,0.967,-4.374,-8.947,1.005,-4.243,-0.14,-10.36,-2.24
,-8.832,0.68,-4.307,-9.009,1.074,-4.183,-1.33,-10.08,-2.59
,-8.801,0.507,-4.283,-9.194,0.897,-4.185,-0.7,-9.66,-3.15
,-8.799,0.732,-4.19,-9.16,0.737,-4.161,1.4,-9.59,-3.43
15656.0,-8.818,0.809,-4.145,-8.878,0.294,-4.221,-5.53,-11.06,-6.16
,-8.815,0.787,-4.183,-8.844,0.194,-4.264,-6.23,-11.34,-6.65
,-8.916,0.558,-4.188,-8.878,0.055,-3.991,-7.35,-11.76,-7.63
,-8.796,0.464,-4.233,-9.076,0.232,-3.826,-8.33,-12.11,-8.19
15732.0,-9.091,0.412,-3.927,-8.904,0.251,-4.145,0.56,-11.2,-6.65
,-9.04,0.598,-4.022,-8.995,0.074,-3.836,0.91,-11.06,-6.37
,-8.921,0.531,-4.089,-9.227,0.017,-3.754,0.07,-10.85,-5.6
,-8.854,0.306,-4.149,-9.249,0.302,-3.879,-0.28,-10.71,-5.18
15808.0,-9.124,0.591,-3.762,-8.949,0.335,-3.798,5.95,-9.24,-3.71
,-8.99,0.514,-3.709,-8.911,0.608,-3.652,2.73,-9.31,-3.78
,-8.976,0.28,-3.833,-9.05,0.715,-3.431,0.7,-9.38,-4.13
,-8.859,0.124,-3.821,-9.222,0.816,-3.491,1.12,-9.17,-4.2
15884.0,-9.249,0.72,-3.659,-8.945,0.144,-3.451,1.12,-8.19,-5.18
,-9.127,0.445,-3.711,-9.215,0.366,-3.865,0.21,-7.91,-4.62
,-9.158,-0.043,-3.448,-9.165,0.433,-3.75,0.49,-7.35,-3.78
,-9.069,-0.103,-3.561,-9.129,0.194,-3.687,3.08,-6.58,-4.06
15960.0,-9.095,-0.05,-3.546,-9.241,0.373,-3.498,1.96,-7.0,-2.73
,-9.177,-0.325,-3.489,-9.239,0.409,-3.754,4.06,-6.51,-2.87
,-9.244,-0.199,-3.453,-9.177,0.608,-3.879,7.0,-6.09,-2.31
,-9.229,0.227,-3.434,-9.112,0.663,-3.719,8.89,-5.95,-1.26
16036.0,-9.203,0.742,-4.066,-9.299,0.211,-3.233,7.91,-6.93,-3.22
,-9.016,0.773,-3.738,-9.227,0.28,-3.288,4.97,-7.63,-4.69
,-9.165,0.572,-3.494,-9.127,0.065,-2.989,2.31,-7.77,-5.11
,-9.32,0.29,-3.491,-9.184,-0.33,-2.651,0.21,-7.91,-6.37
16112.0,-9.213,-0.39,-2.857,-9.39,-0.211,-3.044,-3.36,-5.46,-5.25
,-9.222,-0.436,-2.721,-9.34,-0.012,-3.343,-2.38,-4.55,-4.55
,-9.234,-0.579,-2.498,-9.21,0.156,-3.482,-1.47,-3.78,-3.22
,-9.375,-0.371,-2.907,-9.05,0.091,-3.19,0.14,-3.08,-2.31
16188.0,-9.265,-0.031,-3.427,-9.277,-0.438,-3.113,0.14,-1.12,-1.05
,-9.332,-0.244,-3.472,-9.351,-0.273,-3.228,0.49,-0.98,-0.91
,-9.244,-0.323,-3.312,-9.428,0.022,-3.187,1.33,-0.84,-0.07
,-9.277,-0.383,-3.245,-9.452,0.426,-3.374,2.8,-0.56,0.77
16264.0,-9.421,0.56,-3.391,-9.162,0.742,-3.982,9.94,0.84,2.38
,-9.342,0.481,-3.47,-9.143,0.615,-3.855,8.96,0.77,2.38
,-9.306,0.529,-3.733,-9.206,0.258,-3.671,8.61,0.42,1.54
,-9.249,0.627,-3.996,-9.301,0.168,-3.637,7.56,-0.56,0.14
16340.0,-9.323,0.16,-3.518,-9.411,-0.325,-2.773,3.15,-2.94,-2.17
,-9.289,0.12,-3.427,-9.483,-0.034,-2.924,2.1,-3.01,-2.38
,-9.258,-0.201,-3.123,-9.38,0.062,-3.056,1.33,-2.8,-2.1
,-9.275,-0.416,-2.955,-9.222,0.024,-3.077,1.75,-2.17,-1.68
16416.0,-9.239,-0.074,-3.02,-9.418,0.266,-3.393,1.68,0.98,-0.35
,-9.33,-0.086,-2.927,-9.256,-0.043,-3.393,3.22,1.61,0.35
,-9.363,0.179,-3.041,-9.206,-0.246,-3.24,4.13,1.82,0.56
,-9.44,0.357,-3.154,-9.282,-0.38,-3.209,3.99,2.03,0.56
16492.0,-9.411,-0.127,-3.271,-9.162,0.235,-3.515,7.91,2.73,1.96
,-9.529,0.223,-3.465,-9.282,-0.105,-3.494,7.35,2.59,1.33
,-9.361,0.402,-3.561,-9.28,-0.144,-3.419,4.83,2.24,0.56
,-9.134,0.443,-3.546,-9.28,-0.227,-3.238,2.8,2.17,0.14
16568.0,-9.387,-0.361,-3.003,-9.34,0.321,-3.293,6.58,3.01,1.82
,-9.371,-0.223,-2.965,-9.349,0.309,-3.412,8.33,3.43,2.31
,-9.411,-0.048,-2.984,-9.323,0.129,-3.503,8.75,3.78,2.52
,-9.39,0.203,-3.183,-9.282,0.048,-3.489,8.19,4.06,2.52
16644.0,-9.39,0.146,-3.568,-9.136,0.156,-3.661,4.62,3.99,1.75
,-9.447,0.292,-3.821,-9.234,-0.012,-3.544,4.48,3.43,0.84
,-9.222,0.625,-3.879,-9.392,0.12,-3.635,3.08,2.66,0.07
,-9.107,0.524,-3.79,-9.301,0.179,-3.498,0.84,2.24,-0.21
16720.0,-9.311,0.177,-3.307,-9.335,-0.156,-3.104,2.45,1.4,-0.91
,-9.325,0.134,-3.23,-9.239,-0.302,-2.941,1.26,1.61,-0.98
,-9.296,0.191,-3.185,-9.292,-0.23,-2.927,-0.07,1.75,-1.26
,-9.308,0.089,-3.135,-9.337,-0.05,-3.065,-1.68,2.1,-1.33
16796.0,-9.409,0.089,-3.348,-9.162,-0.093,-3.565,0.49,4.27,-0.21
,-9.332,0.098,-3.453,-9.27,-0.11,-3.616,-0.21,4.55,-0.14
,-9.28,0.132,-3.592,-9.361,0.115,-3.762,-0.84,4.48,-0.21
,-9.208,-0.045,-3.656,-9.359,0.218,-3.853,-0.91,4.34,-0.28
16872.0,-9.32,0.177,-3.9,-9.273,-0.041,-3.458,0.35,2.8,-0.28
,-9.189,0.038,-3.841,-9.385,-0.072,-3.489,0.63,2.45,-0.21
,-9.146,0.06,-3.819,-9.378,0.043,-3.408,1.96,2.24,0.07
,-9.191,0.069,-3.735,-9.337,0.081,-3.475,3.01,1.96,0.35
16948.0,-9.215,0.019,-3.424,-9.34,-0.172,-3.202,1.61,1.82,0.21
,-9.237,-0.062,-3.369,-9.378,-0.079,-3.175,1.12,2.1,0.35
,-9.253,-0.091,-3.331,-9.32,0.153,-3.333,1.05,2.31,0.63
,-9.294,-0.153,-3.245,-9.268,0.184,-3.542,1.05,2.8,0.98
17024.0,-9.215,0.034,-3.609,-9.27,0.213,-3.51,0.35,3.36,1.4
,-9.167,-0.031,-3.697,-9.316,0.23,-3.51,1.54,3.43,1.68
,-9.227,-0.06,-3.683,-9.351,0.144,-3.525,3.08,3.43,1.89
,-9.275,0.105,-3.599,-9.292,0.093,-3.582,3.99,3.22,1.89
17100.0,-9.253,0.053,-3.618,-9.289,0.201,-3.587,2.31,2.94,1.19
,-9.234,0.045,-3.64,-9.34,0.191,-3.661,3.08,2.94,1.26
,-9.206,0.086,-3.731,-9.251,0.203,-3.695,3.85,2.66,1.4
,-9.268,0.124,-3.642,-9.241,0.144,-3.676,4.48,2.59,1.68
17176.0,-9.186,0.017,-3.599,-9.284,0.112,-3.312,2.24,1.96,0.91
,-9.213,-0.084,-3.539,-9.311,0.084,-3.362,2.8,2.24,1.19
,-9.253,-0.101,-3.384,-9.282,0.105,-3.453,3.29,1.96,1.26
,-9.239,-0.002,-3.326,-9.265,0.105,-3.451,3.5,2.24,1.26
17252.0,-9.28,0.057,-3.484,-9.217,0.048,-3.783,2.24,3.08,1.33
,-9.332,0.093,-3.676,-9.222,0.036,-3.778,3.08,2.94,1.26
,-9.227,0.17,-3.721,-9.249,0.148,-3.778,3.57,2.94,1.33
,-9.182,0.134,-3.752,-9.28,0.103,-3.697,3.92,2.87,1.4
17328.0,-9.294,0.124,-3.687,-9.273,0.057,-3.601,5.39,1.75,1.19
,-9.215,0.213,-3.659,-9.229,0.093,-3.549,4.83,1.61,1.05
,-9.244,0.17,-3.58,-9.227,0.043,-3.491,4.34,1.54,1.05
,-9.246,0.093,-3.534,-9.253,0.022,-3.458,4.34,1.68,1.12
17404.0,-9.237,0.041,-3.597,-9.22,0.067,-3.613,3.57,1.89,1.12
,-9.263,0.098,-3.609,-9.241,0.069,-3.738,3.29,1.82,0.98
,-9.194,0.122,-3.635,-9.232,0.177,-3.764,2.73,1.75,0.98
,-9.196,0.05,-3.582,-9.229,0.122,-3.711,2.45,1.68,1.19
17480.0,-9.189,0.045,-3.647,-9.234,0.026,-3.539,5.46,1.33,2.03
,-9.153,0.045,-3.604,-9.273,0.017,-3.501,5.95,1.19,2.03
,-9.203,0.101,-3.592,-9.284,0.034,-3.532,5.95,1.19,1.96
,-9.27,0.05,-3.568,-9.239,0.041,-3.544,5.67,1.33,1.96
17556.0,-9.268,0.045,-3.573,-9.217,0.072,-3.733,3.78,1.26,1.68
,-9.258,0.091,-3.743,-9.158,0.124,-3.774,3.99,1.19,1.54
,-9.273,0.086,-3.721,-9.258,0.184,-3.726,3.99,1.12,1.54
,-9.182,0.141,-3.721,-9.232,0.105,-3.644,3.92,0.98,1.75
17632.0,-9.253,0.014,-3.513,-9.261,0.057,-3.429,3.5,0.28,1.26
,-9.251,0.057,-3.527,-9.232,0.007,-3.398,3.78,0.28,1.12
,-9.261,0.139,-3.587,-9.261,-0.01,-3.266,4.06,0.14,0.91
,-9.237,0.153,-3.498,-9.325,0.022,-3.348,3.57,0.21,0.84
17708.0,-9.27,0.062,-3.393,-9.179,0.005,-3.666,2.17,1.26,0.98
,-9.282,0.105,-3.479,-9.225,-0.026,-3.587,1.89,1.47,0.77
,-9.201,0.158,-3.592,-9.289,-0.002,-3.654,1.47,1.54,0.63
,-9.165,0.065,-3.647,-9.306,0.124,-3.719,1.4,1.54,0.77
17784.0,-9.225,0.191,-3.661,-9.237,0.038,-3.537,1.82,0.98,0.28
,-9.217,0.096,-3.649,-9.265,0.108,-3.518,1.12,1.05,0.35
,-9.208,0.005,-3.604,-9.304,0.098,-3.558,1.54,1.05,0.49
,-9.198,0.024,-3.573,-9.313,0.105,-3.565,2.59,0.98,0.84
17860.0,-9.251,0.124,-3.563,-9.316,0.081,-3.427,2.66,0.91,1.05
,-9.174,0.065,-3.513,-9.332,0.201,-3.453,2.45,0.91,1.05
,-9.237,0.007,-3.53,-9.344,0.175,-3.599,2.73,0.98,1.33
,-9.292,0.005,-3.458,-9.194,0.144,-3.613,3.15,1.12,1.4
17936.0,-9.153,0.153,-3.589,-9.28,0.136,-3.424,1.05,0.98,0.56
,-9.21,-0.05,-3.563,-9.306,0.101,-3.477,1.12,1.47,0.77
,-9.282,-0.11,-3.546,-9.299,0.127,-3.52,2.31,1.33,0.98
,-9.325,-0.005,-3.455,-9.198,0.132,-3.587,3.43,1.33,1.19
18012.0,-9.215,0.153,-3.616,-9.273,0.23,-3.565,2.73,1.82,1.33
,-9.213,0.103,-3.573,-9.203,0.266,-3.568,2.94,1.89,1.33
,-9.27,0.129,-3.565,-9.191,0.101,-3.537,3.29,1.75,1.4
,-9.34,0.072,-3.604,-9.201,0.024,-3.525,3.43,1.75,1.19
18088.0,-9.227,-0.029,-3.486,-9.253,0.275,-3.738,1.89,1.89,0.84
,-9.292,-0.012,-3.417,-9.189,0.172,-3.764,2.52,2.1,1.05
,-9.311,0.139,-3.486,-9.165,0.036,-3.759,2.87,2.31,1.05
,-9.323,0.237,-3.611,-9.189,-0.022,-3.695,2.66,2.38,0.84
18164.0,-9.246,0.077,-3.661,-9.244,0.086,-3.496,3.36,1.4,1.05
,-9.27,0.144,-3.606,-9.203,0.022,-3.506,3.43,1.33,1.12
,-9.289,0.117,-3.532,-9.225,0.048,-3.57,2.73,1.54,1.05
,-9.234,0.067,-3.475,-9.301,0.091,-3.563,2.31,1.61,1.05
18240.0,-9.304,0.148,-3.597,-9.217,0.077,-3.656,4.13,1.68,1.54
,-9.273,0.17,-3.601,-9.225,0.084,-3.671,4.2,1.82,1.54
,-9.234,0.182,-3.632,-9.244,0.093,-3.64,3.78,1.61,1.4
,-9.201,0.124,-3.647,-9.234,0.141,-3.649,3.5,1.47,1.33
18316.0,-9.249,0.141,-3.664,-9.311,0.115,-3.448,4.41,1.19,1.54
,-9.256,0.091,-3.599,-9.273,0.208,-3.47,4.34,1.12,1.61
,-9.237,0.098,-3.489,-9.198,0.158,-3.525,4.06,1.12,1.54
,-9.27,0.077,-3.486,-9.232,0.084,-3.563,3.99,1.47,1.54
18392.0,-9.217,-0.031,-3.594,-9.256,0.124,-3.479,2.1,1.68,0.91
,-9.244,-0.002,-3.601,-9.277,0.115,-3.515,2.66,1.54,0.84
,-9.198,0.093,-3.532,-9.277,0.151,-3.565,2.66,1.82,0.91
,-9.253,0.203,-3.553,-9.239,0.141,-3.632,2.31,1.96,0.91
18468.0,-9.213,0.165,-3.635,-9.21,0.055,-3.673,1.47,1.68,0.7
,-9.215,0.134,-3.728,-9.222,0.007,-3.549,1.82,1.75,0.77
,-9.21,0.187,-3.735,-9.292,0.05,-3.451,2.31,1.4,0.77
,-9.215,0.098,-3.764,-9.268,0.081,-3.422,2.38,1.12,0.91
18544.0,-9.289,0.115,-3.41,-9.203,0.122,-3.723,2.31,1.47,1.05
,-9.313,0.139,-3.537,-9.172,0.06,-3.704,2.03,1.54,0.91
,-9.277,0.211,-3.592,-9.177,0.074,-3.635,2.03,1.54,0.7
,-9.225,0.191,-3.668,-9.234,0.11,-3.601,2.17,1.54,0.77
18620.0,-9.253,0.057,-3.515,-9.268,0.041,-3.534,3.36,1.26,1.05
,-9.306,0.127,-3.475,-9.198,0.089,-3.546,2.94,1.4,0.91
,-9.33,0.17,-3.477,-9.253,0.108,-3.546,2.31,1.4,0.84
,-9.253,0.069,-3.486,-9.292,0.098,-3.577,2.03,1.54,0.84
18696.0,-9.253,0.17,-3.565,-9.229,0.129,-3.721,2.24,1.75,0.63
,-9.225,0.103,-3.611,-9.232,0.112,-3.68,2.03,1.89,0.77
,-9.261,0.086,-3.63,-9.27,0.144,-3.637,1.61,1.89,0.77
,-9.191,0.11,-3.68,-9.251,0.11,-3.582,1.82,1.61,0.84
18772.0,-9.22,0.105,-3.52,-9.21,0.148,-3.632,2.52,1.68,1.05
,-9.308,0.067,-3.544,-9.213,0.108,-3.644,2.52,1.61,0.98
,-9.349,0.055,-3.573,-9.234,0.12,-3.678,2.73,1.54,0.77
,-9.273,0.127,-3.647,-9.256,0.213,-3.647,2.87,1.61,0.84
18848.0,-9.304,0.139,-3.671,-9.194,0.026,-3.522,2.52,1.19,0.77
,-9.261,0.175,-3.587,-9.249,0.079,-3.486,2.31,1.19,0.7
,-9.263,0.112,-3.544,-9.287,0.132,-3.539,2.24,1.26,0.7
,-9.206,0.103,-3.539,-9.268,0.191,-3.57,2.17,1.4,0.77
18924.0,-9.261,0.187,-3.613,-9.251,0.091,-3.69,2.17,1.68,0.84
,-9.21,0.141,-3.573,-9.256,0.132,-3.606,1.68,1.68,0.91
,-9.21,0.048,-3.563,-9.237,0.103,-3.589,2.17,1.61,0.98
,-9.249,0.06,-3.587,-9.234,0.122,-3.637,2.8,1.68,1.05
19000.0,-9.206,0.136,-3.601,-9.284,0.129,-3.582,2.8,1.61,1.12
,-9.237,0.108,-3.556,-9.284,0.112,-3.695,2.66,1.61,1.12
,-9.22,0.103,-3.498,-9.237,0.144,-3.711,2.8,1.75,1.05
,-9.289,0.091,-3.508,-9.229,0.136,-3.812,2.94,1.68,1.05
19076.0,-9.201,0.16,-3.719,-9.246,0.175,-3.532,3.15,1.4,1.12
,-9.196,0.136,-3.704,-9.239,0.151,-3.53,3.22,1.33,1.05
,-9.258,0.144,-3.604,-9.32,0.179,-3.489,3.08,1.26,0.91
,-9.237,0.108,-3.537,-9.227,0.132,-3.51,2.94,1.26,0.84
19152.0,-9.213,0.16,-3.53,-9.213,0.079,-3.539,2.24,1.75,0.7
,-9.239,0.112,-3.568,-9.277,0.129,-3.585,2.31,1.82,0.56
,-9.232,0.127,-3.623,-9.234,0.211,-3.666,2.45,1.75,0.42
,-9.241,0.136,-3.585,-9.261,0.206,-3.661,2.1,1.82,0.63
19228.0,-9.237,0.089,-3.568,-9.256,0.134,-3.601,2.1,1.4,0.56
,-9.222,0.024,-3.585,-9.203,0.077,-3.592,2.66,1.68,0.63
,-9.263,0.141,-3.637,-9.227,0.062,-3.573,3.08,1.61,0.63
,-9.27,0.203,-3.676,-9.282,0.115,-3.635,3.08,1.54,0.63
19304.0,-9.253,0.091,-3.58,-9.241,0.148,-3.635,2.87,1.82,0.84
,-9.215,0.101,-3.544,-9.261,0.134,-3.577,2.8,1.75,0.84
,-9.215,0.093,-3.604,-9.263,0.129,-3.551,2.87,1.75,0.7
,-9.215,0.127,-3.64,-9.261,0.11,-3.553,2.87,1.75,0.77
19380.0,-9.258,0.077,-3.522,-9.179,0.081,-3.788,2.45,1.82,0.7
,-9.244,0.101,-3.623,-9.172,0.12,-3.702,2.52,1.89,0.63
,-9.268,0.215,-3.673,-9.206,0.079,-3.711,2.38,1.75,0.42
,-9.22,0.17,-3.738,-9.232,0.055,-3.68,2.31,1.61,0.42
19456.0,-9.273,0.112,-3.589,-9.213,0.045,-3.589,3.57,1.26,0.7
,-9.294,0.158,-3.594,-9.213,0.034,-3.587,3.15,1.05,0.56
,-9.251,0.148,-3.604,-9.256,0.093,-3.601,2.59,1.05,0.49
,-9.246,0.069,-3.606,-9.258,0.146,-3.635,2.17,1.12,0.56
19532.0,-9.198,0.112,-3.632,-9.217,0.081,-3.587,2.8,1.4,0.84
,-9.217,0.074,-3.63,-9.241,0.057,-3.549,2.8,1.47,0.84
,-9.225,0.077,-3.585,-9.237,0.105,-3.611,2.87,1.33,0.77
,-9.251,0.127,-3.582,-9.261,0.122,-3.585,2.8,1.33,0.7
19608.0,-9.258,0.086,-3.63,-9.153,0.122,-3.623,3.08,1.4,0.84
,-9.227,0.105,-3.687,-9.225,0.151,-3.642,3.36,1.19,0.77
,-9.172,0.136,-3.709,-9.222,0.105,-3.604,3.36,1.05,0.77
,-9.215,0.148,-3.664,-9.268,0.026,-3.62,3.36,1.19,0.84
19684.0,-9.275,0.014,-3.568,-9.241,0.065,-3.673,2.59,1.19,0.77
,-9.273,0.0,-3.585,-9.229,0.065,-3.652,2.52,1.19,0.84
,-9.229,0.031,-3.625,-9.201,0.0,-3.649,2.45,1.05,0.98
,-9.201,0.036,-3.589,-9.194,0.022,-3.628,2.59,1.12,1.05
19760.0,-9.22,0.036,-3.671,-9.22,0.122,-3.632,2.73,0.56,1.19
,-9.263,0.117,-3.714,-9.229,0.158,-3.685,3.15,0.42,1.19
,-9.282,0.163,-3.687,-9.251,0.201,-3.678,3.15,0.14,1.33
,-9.225,0.117,-3.719,-9.316,0.089,-3.53,2.87,0.14,1.33
19836.0,-9.277,0.189,-3.463,-9.227,0.115,-3.518,2.31,0.0,1.05
,-9.261,0.237,-3.446,-9.213,0.034,-3.446,1.68,0.07,0.77
,-9.311,0.22,-3.527,-9.215,0.065,-3.441,1.19,-0.07,0.63
,-9.273,0.141,-3.398,-9.246,0.134,-3.51,0.35,0.07,0.63
19912.0,-9.201,0.208,-3.489,-9.249,0.026,-3.376,1.82,0.49,0.84
,-9.229,0.151,-3.542,-9.287,-0.01,-3.448,1.33,0.56,0.77
,-9.189,0.096,-3.532,-9.306,0.077,-3.376,1.05,0.56,0.7
,-9.253,0.002,-3.34,-9.251,0.208,-3.41,1.05,0.77,0.77
19988.0,-9.232,0.103,-3.604,-9.249,0.134,-3.623,1.19,1.33,1.05
,-9.208,0.139,-3.63,-9.273,0.184,-3.563,1.26,1.54,1.19
,-9.27,0.165,-3.726,-9.292,0.194,-3.51,1.82,1.54,1.33
,-9.32,0.134,-3.683,-9.284,0.242,-3.542,2.1,1.47,1.4
20064.0,-9.277,0.28,-3.678,-9.222,0.053,-3.396,0.98,1.4,1.26
,-9.215,0.244,-3.656,-9.263,0.115,-3.321,0.35,1.33,0.98
,-9.155,0.175,-3.656,-9.308,0.115,-3.305,0.42,1.33,1.19
,-9.16,0.084,-3.601,-9.299,0.117,-3.257,0.91,1.05,1.26
20140.0,-9.227,0.012,-3.183,-9.387,0.141,-2.934,1.68,2.59,1.82
,-9.265,-0.191,-3.029,-9.328,0.213,-2.962,1.68,3.29,2.17
,-9.273,-0.294,-2.845,-9.292,0.127,-2.845,2.87,4.27,2.8
,-9.361,-0.172,-2.733,-9.184,0.084,-3.049,4.48,5.39,3.15
20216.0,-9.182,-0.045,-2.936,-9.222,0.644,-3.833,0.14,9.52,3.01
,-9.208,-0.069,-3.082,-9.036,0.593,-4.022,-0.35,10.36,3.29
,-9.201,-0.055,-2.974,-8.938,0.28,-4.092,-1.05,11.2,3.29
,-9.258,0.211,-3.29,-9.024,-0.266,-3.857,-0.98,11.27,2.87
20292.0,-9.129,-0.424,-3.551,-8.997,0.553,-3.532,-3.15,11.69,3.99
,-9.349,-0.184,-3.685,-9.069,0.4,-3.412,0.49,11.76,4.2
,-9.301,0.349,-3.831,-9.162,0.45,-3.336,2.31,11.34,3.99
,-9.139,0.699,-3.888,-9.196,0.522,-3.565,1.4,11.13,3.64
20368.0,-9.127,0.455,-3.805,-8.894,0.242,-4.661,-11.48,11.97,0.77
,-8.978,0.208,-3.53,-9.002,0.421,-4.836,-12.39,12.04,1.26
,-9.045,0.079,-4.128,-9.217,0.27,-4.87,-10.57,12.18,1.61
,-8.964,0.11,-4.417,-9.189,0.163,-4.515,-7.42,11.48,1.61
20444.0,-9.1,0.352,-3.817,-9.158,0.749,-4.64,7.98,9.1,4.27
,-9.081,0.888,-4.104,-8.918,0.199,-4.523,10.85,8.61,3.29
,-9.026,1.278,-4.118,-8.808,-0.151,-4.255,8.47,7.42,1.4
,-9.095,1.067,-4.267,-8.928,-0.077,-3.972,2.52,6.3,0.21
20520.0,-9.127,0.206,-3.546,-8.794,0.017,-3.898,0.42,6.23,-0.98
,-9.165,0.467,-3.958,-8.842,-0.11,-3.793,1.47,5.74,-1.05
,-8.914,0.495,-4.214,-9.028,0.086,-3.632,2.1,5.04,-0.56
,-8.772,0.127,-4.066,-9.103,0.603,-4.087,3.5,4.76,0.63
20596.0,-9.095,0.579,-4.269,-8.985,-0.179,-3.781,8.96,4.62,0.14
,-9.04,0.048,-4.19,-8.902,0.361,-3.891,4.2,5.04,1.33
,-9.124,-0.503,-4.245,-8.988,0.376,-3.886,3.01,6.09,2.59
,-9.198,-0.66,-3.609,-9.057,0.134,-3.776,5.39,7.42,3.85
20672.0,-8.921,-0.184,-3.637,-9.026,0.385,-3.857,1.96,8.82,3.57
,-8.722,-0.5,-3.735,-9.045,0.866,-3.829,5.25,9.59,4.41
,-8.794,-0.476,-3.855,-8.744,1.149,-4.135,9.45,9.59,5.04
,-8.938,-0.081,-3.869,-8.509,0.902,-3.896,13.3,9.73,5.53
20748.0,-8.624,0.232,-3.922,-9.514,-0.352,-4.133,2.87,11.48,5.74
,-8.796,-0.433,-3.802,-8.966,0.077,-4.575,0.77,11.48,6.79
,-9.34,-0.948,-3.719,-8.512,0.605,-4.695,3.29,11.27,7.84
,-9.66,-0.799,-4.008,-8.361,0.993,-4.697,7.07,11.41,7.77
20824.0,-8.406,1.194,-4.405,-8.775,1.323,-4.288,6.51,13.3,7.7
,-8.753,1.23,-4.238,-8.514,0.648,-3.984,4.34,14.0,6.44
,-8.909,1.455,-4.154,-8.799,-0.246,-3.448,2.45,13.86,4.76
,-8.938,1.551,-4.209,-9.244,-0.495,-3.408,0.28,13.58,3.5
20900.0,-9.497,-0.194,-3.771,-8.318,0.529,-5.166,7.14,17.5,2.45
,-9.49,0.392,-4.159,-8.232,0.782,-5.312,7.98,16.1,2.17
,-9.093,0.634,-4.451,-8.349,1.134,-5.19,3.99,15.05,2.66
,-8.559,0.519,-4.946,-8.44,1.259,-4.905,-1.82,14.63,2.87
20976.0,-8.49,0.895,-4.748,-8.686,-0.22,-4.946,-8.33,13.79,0.28
,-8.655,0.388,-4.683,-8.492,-0.357,-4.872,-10.36,13.16,1.19
,-8.808,0.041,-4.862,-8.528,-0.376,-4.621,-9.17,12.81,2.31
,-8.782,-0.129,-5.001,-8.701,-0.402,-4.728,-4.9,13.16,2.94
21052.0,-8.983,-0.179,-4.91,-8.284,1.194,-5.145,10.08,16.66,7.28
,-8.959,0.598,-5.121,-8.512,1.086,-4.874,11.34,15.4,7.28
,-8.562,1.223,-5.351,-8.808,0.68,-4.903,10.5,14.77,6.72
,-8.267,1.376,-5.374,-8.938,0.182,-4.977,7.49,15.05,5.53
21128.0,-9.019,-0.191,-4.951,-8.327,0.711,-5.896,5.46,11.27,0.56
,-8.804,-0.237,-5.095,-8.229,1.12,-5.855,7.91,10.29,1.12
,-8.39,-0.285,-5.264,-8.215,1.881,-5.966,10.29,10.57,1.82
,-8.15,0.132,-5.518,-8.229,2.213,-5.982,13.86,11.06,2.17
21204.0,-8.177,1.948,-5.573,-9.143,0.069,-5.027,7.0,7.7,-0.77
,-8.614,1.141,-5.169,-8.378,0.086,-5.42,1.26,7.84,-1.33
,-8.576,0.376,-4.934,-8.272,-0.043,-5.525,-1.12,6.93,-2.17
,-8.746,0.098,-4.848,-8.327,-0.366,-5.554,-0.07,6.65,-2.38
21280.0,-8.308,-0.404,-5.516,-8.638,0.347,-5.288,8.26,6.93,2.38
,-8.318,-0.041,-5.681,-8.521,0.45,-5.202,12.11,5.95,3.36
,-8.521,-0.029,-5.487,-8.595,0.304,-5.152,13.44,4.62,2.87
,-8.617,0.148,-5.327,-8.421,0.462,-5.458,12.74,4.13,1.89
21356.0,-8.382,0.651,-5.477,-8.497,0.17,-5.123,8.12,4.2,2.73
,-8.112,0.854,-5.351,-8.43,-0.304,-5.027,9.31,3.99,2.87
,-7.98,0.931,-5.53,-8.653,-0.335,-5.138,9.24,3.78,2.94
,-8.22,0.452,-5.351,-8.433,-0.27,-5.075,7.98,4.2,3.43
21432.0,-8.437,-0.089,-5.073,-8.007,0.593,-5.604,14.21,3.78,6.09
,-8.598,0.261,-5.449,-7.947,0.617,-5.681,14.07,3.57,6.37
,-8.65,0.136,-5.54,-8.208,0.156,-5.597,13.37,3.08,6.65
,-8.598,0.287,-5.504,-8.619,0.115,-5.535,13.72,1.82,5.81
21508.0,-8.854,0.208,-5.327,-8.354,0.897,-5.626,13.93,0.91,5.46
,-8.641,0.278,-5.54,-8.641,0.905,-5.686,12.95,1.12,5.74
,-8.277,0.299,-5.372,-8.545,0.689,-5.683,12.39,1.75,5.95
,-8.138,0.469,-5.549,-8.526,0.371,-5.69,11.83,1.68,5.88
21584.0,-8.428,-0.053,-5.59,-8.569,0.459,-5.894,0.91,1.19,4.69
,-8.172,-0.211,-5.36,-8.5,0.593,-5.872,1.26,1.89,4.97
,-7.992,0.079,-5.561,-8.406,0.873,-5.793,1.75,2.24,5.53
,-8.332,0.421,-5.743,-8.385,1.086,-5.556,1.4,2.03,6.02
21660.0,-8.445,1.213,-5.329,-8.291,0.713,-5.37,-3.57,2.52,5.6
,-8.413,1.189,-5.348,-8.279,0.687,-5.492,-6.79,2.59,4.83
,-8.48,1.031,-5.386,-8.306,0.66,-5.511,-9.38,2.52,4.34
,-8.43,0.936,-5.52,-8.416,0.524,-5.37,-11.34,2.73,4.13
21736.0,-8.547,0.869,-5.528,-8.354,0.9,-5.564,-7.07,3.92,1.96
,-8.756,1.06,-5.461,-8.256,0.849,-5.453,-7.49,3.64,0.98
,-8.72,1.108,-5.463,-8.301,1.031,-5.635,-8.4,3.15,0.07
,-8.547,1.074,-5.468,-8.404,0.902,-5.559,-10.01,2.24,-0.56
21812.0,-8.607,0.948,-5.575,-8.485,-0.306,-5.705,-10.36,0.7,-3.08
,-8.595,0.861,-5.626,-8.217,-0.404,-5.846,-11.69,-0.07,-3.15
,-8.526,0.337,-5.547,-8.208,-0.409,-5.865,-14.0,-0.21,-2.66
,-8.595,-0.151,-5.564,-8.203,-0.251,-5.915,-14.7,-0.7,-1.68
21888.0,-8.248,-0.069,-5.934,-8.385,1.139,-5.851,-5.32,-4.06,5.25
,-8.409,0.014,-5.851,-8.177,1.177,-5.765,-4.34,-4.06,5.81
,-8.516,0.237,-5.851,-8.131,0.957,-5.511,-3.64,-4.9,6.23
,-8.662,0.732,-5.695,-8.323,0.852,-5.355,-3.22,-6.37,6.58
21964.0,-8.49,0.955,-5.317,-8.638,1.005,-4.91,-4.41,-7.91,5.32
,-8.571,1.235,-5.298,-8.827,0.883,-5.037,-2.31,-7.63,4.9
,-8.543,1.362,-5.217,-8.588,0.852,-4.898,-1.26,-6.93,4.55
,-8.672,1.287,-5.145,-8.136,1.11,-5.229,-1.33,-6.58,3.57
22040.0,-8.033,1.158,-5.202,-8.457,0.962,-4.767,1.4,-9.38,0.14
,-8.294,0.95,-5.035,-8.552,0.948,-4.757,2.24,-9.1,-0.7
,-8.679,0.773,-4.922,-8.495,0.814,-4.728,2.59,-9.66,-1.68
,-8.672,0.852,-4.836,-8.581,1.031,-4.733,2.94,-9.66,-1.75
22116.0,-8.583,1.137,-4.893,-8.449,0.675,-4.676,2.24,-9.31,-2.31
,-8.648,0.823,-4.922,-8.66,0.89,-4.685,-0.42,-10.15,-2.38
,-8.387,0.83,-4.951,-8.748,1.132,-4.683,-1.96,-10.22,-2.59
,-8.236,0.739,-4.798,-8.622,1.359,-4.669,-1.47,-9.59,-2.31
22192.0,-8.61,1.28,-4.573,-8.26,1.417,-4.841,0.0,-7.07,-2.8
,-8.818,0.993,-4.413,-8.538,0.845,-4.465,-0.77,-6.16,-3.78
,-8.985,0.983,-4.513,-8.744,0.701,-4.506,-1.75,-7.07,-4.76
,-8.732,1.223,-4.714,-8.854,0.771,-4.57,-3.36,-7.98,-4.76
22268.0,-8.796,0.816,-4.444,-8.665,0.55,-4.597,-6.23,-7.14,-6.44
,-8.717,0.804,-4.558,-8.758,0.455,-4.556,-7.77,-7.0,-6.79
,-8.756,0.778,-4.53,-8.684,0.33,-4.573,-9.73,-7.21,-7.0
,-8.713,0.656,-4.511,-8.705,0.256,-4.58,-12.11,-7.56,-7.0
22344.0,-8.698,0.206,-4.664,-8.71,1.096,-4.721,-5.95,-7.35,-3.85
,-8.758,0.323,-4.678,-8.686,1.182,-4.759,-3.08,-7.56,-3.22
,-8.71,0.577,-4.709,-8.689,0.895,-4.652,-0.49,-7.56,-2.94
,-8.796,0.785,-4.702,-8.636,0.613,-4.535,1.26,-7.77,-2.94
22420.0,-8.748,0.424,-4.594,-8.823,0.936,-4.499,1.33,-8.47,-1.68
,-8.859,0.486,-4.592,-8.751,1.079,-4.542,3.78,-9.24,-1.68
,-8.964,0.66,-4.496,-8.768,1.007,-4.434,5.6,-9.87,-2.03
,-8.926,0.79,-4.556,-8.837,0.821,-4.305,6.23,-10.01,-2.1
22496.0,-8.926,0.696,-4.35,-8.849,1.115,-4.245,3.36,-9.38,-3.01
,-9.005,0.763,-4.247,-8.799,1.074,-4.075,3.64,-9.45,-2.8
,-9.06,0.782,-4.219,-8.856,1.022,-4.159,3.64,-9.87,-3.29
,-8.882,0.914,-4.293,-8.892,0.964,-4.087,3.85,-10.01,-3.92
22572.0,-9.0,0.715,-4.238,-9.127,0.689,-3.948,2.52,-9.45,-5.04
,-8.985,0.581,-4.001,-9.045,0.823,-3.996,0.56,-9.45,-5.6
,-8.863,0.531,-3.944,-8.902,0.845,-3.867,-0.28,-9.31,-5.81
,-8.971,0.538,-3.831,-8.923,0.591,-3.793,0.42,-8.96,-5.88
22648.0,-9.043,0.488,-3.793,-8.93,0.057,-3.738,-1.05,-7.42,-6.23
,-8.935,0.613,-3.683,-9.021,0.062,-3.697,-1.4,-7.63,-6.65
,-8.952,0.555,-3.68,-9.131,0.189,-3.991,-1.68,-7.35,-6.51
,-8.89,0.189,-3.778,-9.074,0.562,-3.932,-2.1,-7.14,-6.37
22724.0,-8.971,0.821,-3.754,-9.244,0.675,-3.711,4.06,-5.6,-3.92
,-9.033,0.651,-3.441,-8.878,0.706,-3.728,2.38,-4.62,-3.64
,-9.265,0.376,-3.199,-8.88,0.378,-3.644,1.96,-3.85,-4.06
,-9.311,0.5,-3.336,-9.105,0.294,-3.68,2.1,-3.29,-4.34
22800.0,-9.311,0.469,-3.771,-9.086,-0.034,-3.967,2.8,-2.52,-4.41
,-9.229,0.756,-4.156,-9.074,-0.077,-3.752,2.94,-2.94,-4.69
,-8.978,0.921,-4.314,-9.091,0.146,-3.649,1.4,-3.08,-4.97
,-8.952,0.44,-4.214,-9.122,0.412,-3.821,0.35,-3.08,-4.2
22876.0,-9.141,0.426,-3.9,-9.213,-0.156,-3.003,0.91,-4.41,-5.11
,-9.038,0.33,-3.778,-9.373,0.124,-2.95,0.63,-4.27,-4.55
,-8.923,0.062,-3.625,-9.399,0.378,-3.147,1.68,-3.5,-3.64
,-9.043,-0.175,-3.24,-9.344,0.455,-3.451,3.5,-2.59,-2.8
22952.0,-9.16,0.495,-3.766,-9.11,0.397,-4.094,4.34,0.35,-1.89
,-8.995,0.464,-4.018,-9.115,0.503,-4.195,5.11,0.7,-1.61
,-8.947,0.366,-3.927,-9.074,0.613,-4.204,6.65,0.91,-1.05
,-9.1,0.321,-4.02,-9.127,0.627,-4.369,9.1,1.12,-0.42
23028.0,-9.083,0.543,-4.436,-9.127,0.187,-3.922,7.49,-2.1,-2.52
,-9.189,0.617,-4.487,-9.232,-0.211,-3.74,6.51,-3.15,-3.57
,-9.05,0.713,-4.377,-9.148,-0.44,-3.326,5.6,-4.13,-4.48
,-9.009,0.66,-4.164,-9.184,-0.404,-3.23,3.92,-4.69,-4.9
23104.0,-9.342,-0.321,-3.056,-9.043,0.017,-3.506,9.1,-3.29,-1.96
,-9.349,0.086,-3.228,-9.088,-0.172,-3.262,10.15,-2.87,-1.75
,-9.115,0.531,-3.424,-9.294,-0.122,-3.161,8.96,-2.66,-1.68
,-9.038,0.349,-3.477,-9.483,0.256,-3.537,6.37,-2.38,-1.61
23180.0,-9.378,0.541,-3.805,-9.045,-0.156,-3.721,7.0,-0.63,-1.19
,-9.074,0.541,-3.865,-9.227,-0.038,-3.448,3.78,-0.91,-1.68
,-9.028,0.323,-3.987,-9.371,0.017,-3.477,1.89,-1.05,-1.68
,-9.038,-0.024,-3.982,-9.34,0.096,-3.422,2.31,-1.19,-1.61
23256.0,-9.273,0.117,-3.635,-9.17,0.055,-4.092,4.06,-0.91,-0.77
,-9.251,-0.022,-3.795,-9.103,0.062,-3.975,3.57,-1.05,-0.98
,-9.079,0.031,-3.977,-9.131,-0.005,-3.69,4.76,-0.98,-0.56
,-9.139,0.108,-4.133,-9.244,-0.005,-3.726,6.23,-1.4,-0.28
23332.0,-9.33,0.165,-3.771,-9.268,0.132,-3.551,8.26,-2.66,0.21
,-9.232,0.251,-3.819,-9.229,0.297,-3.585,7.28,-3.01,0.14
,-9.141,0.031,-3.599,-9.213,0.278,-3.53,6.16,-2.87,0.21
,-9.148,0.043,-3.587,-9.234,0.096,-3.386,6.86,-2.73,0.35
23408.0,-9.239,0.067,-3.297,-9.373,-0.067,-3.101,4.48,-2.8,0.42
,-9.289,-0.108,-3.137,-9.263,0.045,-3.254,4.55,-2.31,0.77
,-9.32,-0.124,-3.063,-9.153,-0.036,-3.352,5.04,-1.61,0.98
,-9.351,-0.136,-3.046,-9.177,-0.153,-3.269,5.74,-1.12,1.26
23484.0,-9.246,-0.108,-3.309,-9.196,0.086,-3.29,7.14,1.26,2.38
,-9.292,0.065,-3.326,-9.222,0.124,-3.427,7.91,1.4,2.52
,-9.318,0.17,-3.293,-9.33,0.115,-3.613,7.42,1.54,2.38
,-9.316,0.203,-3.355,-9.268,0.237,-3.62,5.88,1.89,2.03
23560.0,-9.239,0.165,-3.544,-9.328,0.177,-3.594,3.92,2.66,1.96
,-9.182,0.036,-3.393,-9.316,0.168,-3.776,3.43,2.94,2.17
,-9.253,0.043,-3.379,-9.222,0.067,-3.893,3.29,3.01,2.24
,-9.277,0.115,-3.417,-9.184,0.098,-3.91,3.01,3.01,2.1
23636.0,-9.122,0.177,-3.908,-9.275,0.129,-3.47,3.5,1.96,2.1
,-9.165,0.196,-3.743,-9.275,0.132,-3.419,3.99,2.1,2.52
,-9.251,0.227,-3.63,-9.184,0.16,-3.362,4.34,1.96,2.73
,-9.246,0.177,-3.508,-9.225,0.069,-3.429,4.48,1.82,2.73
23712.0,-9.258,-0.005,-3.352,-9.201,0.196,-3.515,3.08,2.73,2.38
,-9.258,0.067,-3.479,-9.213,0.261,-3.635,3.43,2.73,2.38
,-9.316,0.127,-3.551,-9.249,0.354,-3.726,3.57,2.66,2.1
,-9.186,0.23,-3.501,-9.217,0.23,-3.704,3.43,3.01,2.17
23788.0,-9.189,0.153,-3.709,-9.282,0.136,-3.644,2.1,2.66,1.82
,-9.177,0.165,-3.699,-9.263,0.16,-3.585,3.08,2.66,2.17
,-9.222,0.194,-3.676,-9.256,0.256,-3.747,3.57,2.66,2.31
,-9.222,0.182,-3.656,-9.206,0.239,-3.69,3.71,2.8,2.45
23864.0,-9.244,0.311,-3.879,-9.165,0.055,-3.51,2.38,2.1,1.33
,-9.16,0.218,-3.936,-9.184,0.103,-3.35,2.17,1.82,1.12
,-9.122,0.313,-3.9,-9.344,0.139,-3.396,2.24,1.54,1.05
,-9.172,0.201,-3.781,-9.33,0.112,-3.369,2.1,1.33,1.05
23940.0,-9.275,0.043,-3.386,-9.275,0.232,-3.683,1.12,2.31,0.84
,-9.268,-0.038,-3.422,-9.241,0.333,-3.798,1.19,2.45,0.91
,-9.237,-0.014,-3.467,-9.158,0.273,-3.812,2.03,2.59,0.98
,-9.287,0.093,-3.585,-9.117,0.244,-3.795,3.08,2.73,1.05
24016.0,-9.158,0.179,-3.912,-9.342,0.175,-3.649,4.06,2.17,0.91
,-9.203,0.258,-3.831,-9.375,0.196,-3.652,4.62,2.03,0.98
,-9.165,0.179,-3.757,-9.289,0.189,-3.563,4.55,1.82,1.05
,-9.244,0.098,-3.585,-9.225,0.163,-3.475,4.27,1.75,1.12
24092.0,-9.21,0.127,-3.544,-9.165,0.211,-3.8,2.73,2.17,0.56
,-9.215,0.213,-3.549,-9.167,0.225,-3.908,2.87,2.17,0.42
,-9.201,0.242,-3.601,-9.194,0.179,-3.927,2.31,1.89,0.14
,-9.198,0.223,-3.695,-9.167,0.091,-3.888,2.1,1.96,0.07
24168.0,-9.184,0.122,-3.845,-9.306,0.067,-3.544,2.87,0.91,0.0
,-9.203,0.196,-3.802,-9.277,0.081,-3.678,3.08,0.77,0.21
,-9.237,0.153,-3.673,-9.227,0.179,-3.759,2.73,0.84,0.28
,-9.275,0.074,-3.609,-9.117,0.175,-3.829,2.38,0.7,0.28
24244.0,-9.098,0.165,-3.86,-9.246,0.17,-3.58,2.87,0.28,0.35
,-9.153,0.122,-3.9,-9.229,0.093,-3.561,3.43,0.21,0.49
,-9.198,0.132,-3.738,-9.213,0.069,-3.518,3.85,-0.07,0.56
,-9.244,0.115,-3.594,-9.234,0.06,-3.51,3.92,-0.07,0.63
24320.0,-9.227,0.022,-3.51,-9.21,0.093,-3.601,4.06,0.21,0.91
,-9.249,0.041,-3.558,-9.201,0.022,-3.609,4.55,0.42,1.05
,-9.27,0.096,-3.57,-9.115,0.067,-3.58,4.55,0.35,0.98
,-9.282,0.115,-3.58,-9.213,0.074,-3.489,4.41,0.49,1.05
24396.0,-9.292,0.139,-3.498,-9.191,0.096,-3.64,3.57,1.19,1.26
,-9.287,0.158,-3.508,-9.198,0.117,-3.62,3.15,1.26,1.19
,-9.323,0.211,-3.642,-9.251,0.208,-3.539,2.24,1.33,0.84
,-9.222,0.122,-3.592,-9.296,0.251,-3.537,1.61,1.4,0.98
24472.0,-9.258,0.299,-3.47,-9.184,0.069,-3.601,2.03,1.68,0.7
,-9.208,0.318,-3.618,-9.191,0.069,-3.709,1.4,1.75,0.56
,-9.196,0.249,-3.618,-9.251,0.129,-3.685,0.84,1.75,0.42
,-9.16,0.16,-3.558,-9.241,0.072,-3.738,0.77,1.75,0.35
24548.0,-9.222,0.129,-3.862,-9.203,0.16,-3.769,2.17,1.4,0.63
,-9.203,0.151,-3.881,-9.244,0.203,-3.632,2.52,1.19,0.77
,-9.134,0.101,-3.862,-9.287,0.16,-3.486,2.66,0.7,0.7
,-9.201,0.12,-3.841,-9.27,0.12,-3.441,3.29,0.56,0.77
24624.0,-9.251,0.153,-3.405,-9.21,0.065,-3.429,3.01,0.56,0.91
,-9.296,0.196,-3.41,-9.232,0.007,-3.455,2.38,0.91,0.7
,-9.246,0.156,-3.419,-9.256,0.062,-3.513,1.61,0.84,0.49
,-9.162,0.144,-3.434,-9.299,0.151,-3.664,1.05,1.12,0.56
24700.0,-9.261,0.232,-3.807,-9.244,0.002,-3.912,1.47,1.47,0.42
,-9.201,0.242,-3.927,-9.241,0.12,-3.568,1.12,1.4,0.35
,-9.134,0.093,-3.953,-9.27,0.196,-3.556,1.26,1.12,0.56
,-9.158,0.038,-3.936,-9.27,0.294,-3.448,2.03,0.84,0.7
24776.0,-9.196,0.194,-3.403,-9.287,0.005,-3.288,2.38,0.56,1.05
,-9.182,0.103,-3.329,-9.299,0.055,-3.381,1.96,0.98,1.05
,-9.213,-0.012,-3.252,-9.227,0.079,-3.338,2.17,1.26,1.19
,-9.287,0.024,-3.288,-9.249,0.163,-3.573,2.59,1.54,1.33
24852.0,-9.277,0.213,-3.747,-9.182,0.187,-3.975,1.4,2.59,1.05
,-9.167,0.196,-3.877,-9.139,0.208,-3.843,1.33,2.66,1.05
,-9.229,0.124,-3.884,-9.208,0.239,-3.857,1.96,2.45,1.12
,-9.225,0.153,-3.932,-9.299,0.261,-3.817,3.22,2.31,1.26
24928.0,-9.328,0.261,-3.735,-9.103,0.151,-3.8,4.06,0.56,0.98
,-9.332,0.263,-3.79,-9.107,0.101,-3.769,3.22,0.28,0.56
,-9.162,0.254,-3.74,-9.146,0.134,-3.503,2.31,0.07,0.21
,-9.119,0.237,-3.843,-9.227,0.184,-3.388,1.61,-0.07,0.21
25004.0,-9.332,0.187,-3.307,-9.323,-0.067,-3.386,2.87,-0.21,0.91
,-9.387,0.05,-3.221,-9.246,0.043,-3.482,2.31,0.35,0.91
,-9.354,0.01,-3.257,-9.225,0.144,-3.649,1.89,0.49,0.84
,-9.359,-0.05,-3.278,-9.191,0.235,-3.783,1.82,0.77,0.91
25080.0,-9.174,0.268,-3.817,-9.318,0.203,-3.692,2.24,1.26,0.77
,-9.162,0.208,-3.821,-9.342,0.246,-3.678,2.45,1.19,0.98
,-9.174,0.16,-3.817,-9.213,0.287,-3.637,3.22,1.05,1.19
,-9.196,0.158,-3.704,-9.213,0.22,-3.618,3.78,0.77,1.26
25156.0,-9.143,0.172,-3.609,-9.287,0.141,-3.314,2.31,0.28,0.77
,-9.208,0.175,-3.522,-9.387,0.148,-3.343,2.1,0.35,0.77
,-9.225,0.196,-3.472,-9.337,0.144,-3.367,1.82,0.35,0.77
,-9.258,0.127,-3.405,-9.287,0.105,-3.419,1.82,0.42,0.7
25232.0,-9.277,0.129,-3.561,-9.182,0.098,-3.635,1.54,1.61,0.7
,-9.234,0.103,-3.616,-9.316,0.144,-3.58,1.89,1.75,0.84
,-9.146,0.067,-3.652,-9.28,0.17,-3.582,2.52,1.75,0.98
,-9.186,0.014,-3.656,-9.206,0.227,-3.565,3.43,1.68,1.05
25308.0,-9.208,0.33,-3.664,-9.201,0.112,-3.537,3.99,1.54,0.91
,-9.184,0.359,-3.671,-9.249,0.05,-3.489,3.36,1.47,0.77
,-9.217,0.294,-3.75,-9.296,-0.022,-3.369,2.52,1.33,0.63
,-9.21,0.182,-3.676,-9.284,-0.01,-3.453,1.75,1.26,0.56
25384.0,-9.261,0.024,-3.568,-9.16,0.017,-3.75,1.47,1.47,0.84
,-9.241,0.043,-3.661,-9.17,0.036,-3.656,1.68,1.82,0.98
,-9.208,0.11,-3.754,-9.268,0.108,-3.673,2.45,1.61,1.12
,-9.217,0.132,-3.805,-9.251,0.285,-3.647,2.94,1.47,1.33
25460.0,-9.241,0.357,-3.647,-9.139,0.014,-3.647,6.3,0.84,1.61
,-9.234,0.328,-3.695,-9.17,-0.007,-3.513,5.39,0.77,1.54
,-9.184,0.199,-3.68,-9.268,0.101,-3.453,4.83,0.49,1.4
,-9.196,0.122,-3.721,-9.392,0.201,-3.451,4.76,0.35,1.54
25536.0,-9.328,0.23,-3.506,-9.244,0.199,-3.539,4.48,0.7,1.75
,-9.28,0.23,-3.585,-9.263,0.215,-3.494,3.57,0.63,1.54
,-9.198,0.129,-3.546,-9.277,0.227,-3.553,3.15,1.05,1.61
,-9.232,0.091,-3.515,-9.239,0.242,-3.597,3.36,1.19,1.61
25612.0,-9.201,0.227,-3.618,-9.249,0.27,-3.616,1.61,0.91,0.91
,-9.239,0.225,-3.721,-9.289,0.323,-3.472,1.75,0.84,0.84
,-9.208,0.16,-3.687,-9.294,0.29,-3.477,2.17,0.56,0.84
,-9.237,0.23,-3.671,-9.294,0.254,-3.534,2.31,0.77,0.91
25688.0,-9.251,0.148,-3.51,-9.282,0.256,-3.36,-0.91,0.77,0.14
,-9.239,0.084,-3.467,-9.316,0.242,-3.434,-1.12,0.63,0.21
,-9.234,0.055,-3.448,-9.284,0.17,-3.331,-0.7,0.98,0.28
,-9.249,0.17,-3.257,-9.33,0.17,-3.594,-0.7,1.33,0.21
25764.0,-9.296,0.235,-3.731,-9.117,0.23,-3.788,-2.45,1.68,-0.42
,-9.174,0.321,-3.766,-9.198,0.11,-3.738,-1.82,1.47,-0.49
,-9.107,0.357,-3.853,-9.325,-0.019,-3.656,-1.61,1.33,-0.49
,-9.167,0.261,-3.843,-9.397,-0.005,-3.573,-1.54,1.12,-0.63
25840.0,-9.359,0.034,-3.458,-9.265,0.246,-3.451,1.4,0.42,0.21
,-9.277,0.007,-3.362,-9.194,0.213,-3.446,1.75,0.63,0.49
,-9.301,0.165,-3.343,-9.198,0.022,-3.47,1.96,0.98,0.28
,-9.311,0.196,-3.321,-9.227,-0.002,-3.465,1.61,1.4,0.35
25916.0,-9.217,0.187,-3.537,-9.177,0.194,-3.518,3.08,2.17,0.91
,-9.294,0.414,-3.649,-9.258,0.139,-3.458,3.64,2.1,0.63
,-9.251,0.471,-3.685,-9.325,0.072,-3.393,2.94,1.89,0.63
,-9.198,0.39,-3.616,-9.277,0.158,-3.424,2.1,1.89,0.56
25992.0,-9.284,0.146,-3.472,-9.296,0.165,-3.12,1.68,2.1,0.35
,-9.234,0.16,-3.46,-9.409,0.261,-3.008,1.54,2.38,0.35
,-9.253,0.211,-3.451,-9.402,0.309,-3.003,1.89,2.8,0.42
,-9.244,0.182,-3.297,-9.294,0.366,-2.977,2.52,3.08,0.77
26068.0,-9.265,0.325,-2.819,-9.292,-0.498,-2.589,1.4,6.37,0.35
,-9.227,0.242,-2.735,-9.316,-0.572,-2.843,-0.42,7.21,0.0
,-9.146,0.041,-2.532,-9.268,-0.388,-3.214,-2.1,8.61,-0.07
,-9.194,-0.237,-2.369,-9.081,-0.364,-3.214,-4.06,10.15,0.28
26144.0,-8.978,-0.517,-3.214,-9.182,0.239,-3.594,-2.66,15.61,4.2
,-9.062,-0.603,-3.147,-9.124,0.558,-3.577,0.14,16.94,5.67
,-9.215,-0.534,-2.898,-8.938,0.581,-4.259,4.41,18.2,7.49
,-9.316,-0.117,-3.285,-8.679,0.359,-4.185,7.84,18.48,7.98
26220.0,-8.815,0.156,-4.034,-8.878,0.543,-3.874,1.19,18.69,6.58
,-9.019,0.158,-3.539,-8.933,0.392,-3.86,2.45,19.11,6.72
,-9.1,0.225,-3.671,-9.064,0.201,-3.654,3.22,19.67,6.44
,-9.012,0.474,-3.831,-8.99,0.053,-4.518,2.87,19.74,5.88
26296.0,-8.65,0.134,-4.64,-9.148,0.287,-4.118,1.05,18.06,4.27
,-8.557,0.246,-4.618,-9.308,0.718,-4.075,1.96,17.08,4.62
,-8.684,0.223,-4.518,-9.349,1.407,-4.594,1.33,16.8,4.83
,-8.964,0.117,-4.147,-9.028,1.613,-4.989,3.01,17.01,5.11
26372.0,-8.672,1.512,-5.102,-8.562,-0.419,-4.654,-7.28,14.0,0.98
,-8.373,0.957,-5.487,-8.825,-0.723,-4.274,-11.34,13.23,0.0
,-8.49,0.242,-4.922,-9.079,-0.974,-4.154,-10.57,12.67,-0.28
,-8.684,-0.072,-4.929,-9.05,-0.983,-3.283,-6.58,12.46,-0.21
26448.0,-8.995,-0.433,-4.08,-8.433,0.761,-4.944,13.65,14.28,7.84
,-8.732,0.414,-4.606,-8.473,0.491,-4.635,16.24,12.67,7.56
,-8.899,1.161,-5.099,-8.729,0.55,-4.465,14.98,11.13,7.56
,-8.679,1.165,-5.544,-9.088,0.648,-4.027,9.38,10.64,7.7
26524.0,-9.22,0.907,-3.963,-8.701,1.309,-4.592,1.54,12.25,3.36
,-9.17,1.151,-3.927,-8.727,1.139,-5.056,-1.82,12.32,3.29
,-8.849,1.357,-4.221,-8.593,0.895,-5.205,-3.43,12.39,2.59
,-8.72,1.436,-4.448,-8.6,0.397,-5.111,-3.57,12.32,1.4
26600.0,-8.485,0.122,-4.731,-8.557,0.225,-4.621,3.71,12.04,0.07
,-8.583,0.069,-4.666,-8.483,-0.235,-4.379,5.11,11.69,-0.7
,-8.727,0.239,-4.561,-8.808,-0.428,-4.496,5.67,11.69,-1.82
,-8.854,0.419,-4.566,-9.06,0.074,-4.989,4.34,11.97,-1.68
26676.0,-8.77,0.593,-5.181,-8.502,0.974,-5.418,-1.05,9.38,2.45
,-8.466,0.907,-5.185,-8.559,0.519,-5.312,-0.35,9.8,2.8
,-8.291,0.895,-5.051,-8.521,0.153,-4.972,-0.14,10.57,2.8
,-8.394,0.972,-5.13,-8.382,0.323,-4.822,1.89,10.71,2.59
26752.0,-8.49,0.55,-4.913,-8.677,-0.799,-4.204,5.46,11.06,1.05
,-8.516,0.78,-5.118,-8.524,-0.548,-4.223,4.9,9.66,0.63
,-8.54,0.706,-5.099,-8.342,0.117,-4.633,2.31,9.45,1.4
,-8.598,0.022,-4.733,-8.483,0.854,-4.872,-1.75,11.27,3.08
26828.0,-8.693,1.318,-5.013,-9.012,0.103,-5.202,6.16,11.83,4.06
,-8.775,1.268,-5.083,-8.641,-0.328,-5.343,4.13,11.9,2.59
,-8.756,0.945,-5.102,-8.423,-0.529,-5.336,2.87,12.11,1.4
,-8.648,0.476,-5.317,-8.296,-0.505,-5.348,3.08,12.18,0.49
26904.0,-8.26,-0.239,-5.427,-8.263,0.364,-5.508,15.68,8.05,1.75
,-8.129,0.168,-5.82,-8.27,0.103,-5.233,16.94,6.58,2.17
,-8.327,0.555,-5.863,-8.172,0.11,-5.233,15.75,6.37,3.36
,-8.32,0.627,-5.717,-8.148,0.158,-5.123,12.25,6.79,4.55
26980.0,-8.174,0.127,-5.291,-8.423,0.878,-5.159,9.73,7.56,8.61
,-8.557,0.23,-5.257,-8.124,1.383,-5.284,10.08,8.12,9.31
,-8.478,0.349,-5.224,-8.299,1.287,-5.31,11.34,8.68,9.87
,-8.368,0.553,-5.176,-8.562,1.211,-5.272,11.97,7.7,9.8
27056.0,-8.55,0.854,-5.264,-8.016,1.328,-5.733,8.82,8.12,3.71
,-8.423,0.68,-5.257,-8.246,0.744,-5.264,9.38,9.45,3.85
,-8.153,0.816,-5.154,-8.698,0.287,-5.087,11.55,8.82,3.64
,-8.05,1.283,-5.456,-8.93,0.208,-5.41,12.32,7.77,3.36
27132.0,-8.717,-0.098,-5.552,-7.944,-0.043,-5.97,6.79,7.77,2.1
,-8.531,0.378,-5.827,-8.583,-0.55,-5.915,9.52,5.95,1.68
,-7.875,0.912,-6.011,-8.737,-0.771,-5.765,9.8,5.04,2.59
,-7.664,1.029,-6.236,-8.562,-1.086,-5.528,7.35,4.97,3.64
27208.0,-8.43,-0.842,-5.494,-8.387,1.409,-5.839,16.8,4.06,6.51
,-8.342,-0.495,-5.532,-8.356,1.67,-5.755,18.06,2.87,7.77
,-8.232,0.134,-5.599,-8.339,1.627,-5.678,19.18,2.1,9.03
,-8.071,0.68,-5.688,-8.346,1.503,-5.81,18.83,1.75,9.59
27284.0,-8.306,1.175,-5.666,-8.244,0.44,-5.815,7.0,2.38,5.25
,-8.337,1.058,-5.552,-8.131,0.488,-5.927,6.72,3.15,4.62
,-8.437,0.826,-5.619,-8.105,0.713,-5.999,5.25,3.01,3.85
,-8.418,0.639,-5.738,-8.423,0.603,-5.994,3.43,2.66,3.78
27360.0,-8.413,0.369,-6.064,-8.071,0.794,-6.035,-2.45,4.2,2.87
,-8.32,0.175,-5.973,-8.392,0.869,-6.066,-3.57,4.34,3.71
,-8.105,0.191,-5.901,-8.559,0.818,-5.932,-4.2,3.71,4.83
,-7.944,0.529,-5.922,-8.318,0.754,-5.774,-4.55,3.5,5.6
27436.0,-8.095,0.771,-5.707,-8.614,1.127,-5.595,-9.94,2.94,5.81
,-8.203,1.182,-5.832,-8.454,1.285,-6.009,-9.31,2.38,5.39
,-8.279,1.515,-5.748,-8.186,0.488,-5.657,-9.94,2.1,4.41
,-8.569,1.711,-5.779,-8.138,0.342,-5.573,-9.8,1.33,2.45
27512.0,-7.928,0.38,-5.784,-8.461,0.266,-5.767,-10.57,0.0,0.21
,-8.157,0.325,-5.803,-8.313,0.213,-5.719,-8.89,-0.14,0.7
,-8.521,0.385,-5.784,-8.205,-0.031,-5.664,-7.49,-0.49,0.98
,-8.497,0.421,-5.86,-8.105,-0.084,-5.556,-7.07,-0.7,1.33
27588.0,-8.145,0.045,-5.415,-8.222,0.972,-5.721,-4.34,-1.68,6.37
,-8.294,0.388,-5.552,-8.39,1.019,-5.786,-3.85,-3.71,7.21
,-8.287,0.713,-5.709,-8.557,0.895,-5.7,-4.13,-4.9,7.91
,-8.16,0.9,-5.733,-8.605,0.78,-5.657,-4.62,-5.11,8.05
27664.0,-8.457,1.036,-5.633,-8.26,1.709,-5.791,-6.37,-5.6,5.18
,-8.313,1.287,-5.693,-8.37,1.503,-5.776,-4.55,-5.39,4.41
,-8.32,1.577,-5.652,-8.516,1.283,-5.731,-3.85,-6.16,3.78
,-8.227,1.761,-5.729,-8.361,1.019,-5.583,-4.06,-6.44,3.43
27740.0,-8.765,0.51,-5.245,-8.449,0.905,-5.537,3.01,-3.92,-0.91
,-8.356,0.921,-5.568,-8.445,1.005,-5.465,3.15,-7.7,-2.1
,-7.724,1.082,-5.494,-8.332,1.055,-5.492,3.29,-8.4,-2.87
,-8.004,0.924,-5.468,-8.256,0.859,-5.425,3.29,-9.17,-2.8
27816.0,-8.275,0.732,-5.3,-8.698,0.962,-5.051,3.5,-9.52,-2.1
,-8.363,0.742,-5.262,-7.925,1.393,-5.164,6.23,-8.96,-2.24
,-8.457,0.737,-5.188,-7.748,1.412,-4.987,7.91,-8.61,-2.17
,-8.935,0.447,-4.982,-8.16,1.189,-4.793,6.65,-10.08,-2.38
27892.0,-8.708,1.228,-4.74,-8.519,0.818,-4.697,-1.89,-14.0,-2.45
,-8.808,1.385,-4.647,-8.605,0.814,-4.791,-1.96,-13.37,-2.66
,-8.598,1.146,-4.568,-8.557,0.919,-4.929,0.07,-12.11,-3.36
,-8.564,1.213,-4.905,-8.437,1.129,-5.044,2.1,-10.85,-3.78
27968.0,-8.246,1.244,-5.138,-8.746,0.952,-5.016,6.93,-11.34,-4.41
,-8.411,1.194,-5.006,-8.579,0.725,-4.982,5.11,-11.97,-5.25
,-8.614,1.196,-4.968,-8.44,0.337,-4.915,2.94,-12.88,-5.81
,-8.638,1.168,-5.006,-8.442,0.11,-4.841,0.35,-13.37,-5.74
28044.0,-8.607,-0.031,-4.594,-8.811,0.615,-4.712,4.83,-12.6,-3.36
,-8.739,0.093,-4.616,-8.722,0.543,-4.652,8.33,-12.67,-2.17
,-8.842,0.498,-4.709,-8.737,0.579,-4.558,9.66,-13.3,-1.33
,-8.713,0.596,-4.776,-8.715,0.895,-4.575,9.66,-13.72,-0.49
28120.0,-8.842,1.146,-4.568,-8.722,1.409,-4.64,9.52,-14.7,0.35
,-8.861,1.342,-4.568,-8.739,1.187,-4.393,8.82,-14.77,-0.35
,-8.823,1.469,-4.623,-8.717,0.976,-4.202,7.14,-14.77,-1.19
,-8.756,1.419,-4.597,-8.794,0.857,-4.259,5.46,-14.77,-2.38
28196.0,-8.966,0.842,-4.066,-8.832,0.579,-4.207,0.77,-14.98,-5.95
,-9.009,0.785,-4.042,-8.653,0.438,-3.932,0.21,-14.84,-6.16
,-9.007,0.852,-4.101,-8.722,0.455,-4.073,-0.56,-14.49,-6.44
,-9.134,0.754,-4.07,-8.768,0.555,-4.082,-1.19,-14.14,-6.86
28272.0,-8.983,0.727,-3.97,-9.026,0.598,-3.513,1.61,-14.14,-6.58
,-8.985,0.885,-3.802,-8.866,0.385,-3.463,1.19,-13.86,-6.65
,-9.05,0.694,-3.558,-8.954,0.251,-3.312,-0.35,-13.02,-7.56
,-9.095,0.658,-3.455,-9.16,0.196,-3.448,-1.19,-12.11,-8.12
28348.0,-9.239,0.213,-3.276,-9.119,0.342,-3.312,1.4,-9.31,-6.72
,-9.203,0.452,-3.565,-9.196,0.404,-3.125,1.12,-8.82,-7.21
,-9.143,0.481,-3.501,-9.153,0.517,-3.558,-0.63,-7.98,-7.42
,-9.062,0.402,-3.293,-9.045,0.656,-3.699,-2.17,-7.14,-7.0
28424.0,-8.961,0.335,-3.757,-9.033,0.658,-3.769,-7.77,-5.18,-7.84
,-9.031,-0.012,-3.659,-9.201,0.62,-3.855,-7.0,-4.34,-7.14
,-9.033,-0.026,-3.697,-9.234,0.254,-3.922,-4.62,-3.99,-7.14
,-8.959,0.287,-3.778,-9.048,0.136,-3.848,-2.59,-4.06,-7.21
28500.0,-8.99,0.014,-3.941,-9.21,0.235,-3.156,-6.79,-3.92,-6.79
,-9.05,0.153,-3.853,-9.359,0.337,-3.317,-4.48,-3.71,-6.37
,-8.988,0.357,-3.632,-9.349,0.359,-3.393,-2.66,-3.5,-5.81
,-9.019,0.302,-3.307,-9.186,0.385,-3.41,-1.89,-3.01,-4.9
28576.0,-9.127,0.129,-3.542,-9.129,0.108,-3.295,-2.94,-0.77,-4.48
,-9.076,0.031,-3.585,-9.146,0.096,-3.25,-1.4,-0.42,-4.2
,-9.021,0.098,-3.601,-9.172,0.28,-3.424,-0.07,-0.07,-3.78
,-8.997,0.098,-3.376,-9.227,0.462,-3.216,0.91,0.42,-2.8
28652.0,-9.201,0.433,-3.388,-9.332,0.395,-3.917,3.78,3.15,-1.26
,-9.284,0.302,-3.379,-9.22,0.486,-4.233,2.1,3.5,-1.47
,-9.308,0.302,-3.496,-9.014,0.455,-4.348,-0.14,3.71,-1.96
,-9.249,0.304,-3.508,-8.914,0.292,-4.587,-1.19,4.13,-2.03
28728.0,-8.914,0.424,-4.515,-9.241,0.285,-3.821,2.03,1.61,-2.31
,-9.002,0.608,-4.499,-9.265,0.328,-3.759,3.01,0.7,-2.59
,-8.997,0.648,-4.334,-9.119,0.4,-3.671,2.38,0.14,-2.87
,-9.103,0.483,-3.838,-9.141,0.189,-3.704,0.91,-0.28,-2.66
28804.0,-9.122,-0.067,-3.709,-9.172,0.591,-3.384,0.0,-0.63,-3.01
,-9.124,-0.031,-3.786,-9.28,0.682,-3.532,2.31,-0.7,-2.38
,-9.093,0.139,-3.616,-9.292,0.385,-3.628,4.48,-0.56,-1.96
,-9.139,0.395,-3.575,-9.131,0.029,-3.738,4.2,-0.14,-2.31
28880.0,-9.074,-0.347,-3.762,-9.273,0.426,-3.845,-6.51,0.49,-3.71
,-9.064,-0.443,-3.723,-9.124,0.395,-3.869,-0.91,0.7,-2.24
,-9.11,-0.199,-3.716,-9.134,0.012,-3.821,4.34,1.05,-0.98
,-9.158,0.132,-3.702,-9.11,-0.366,-3.546,6.79,0.91,-0.42
28956.0,-9.179,-0.251,-3.463,-9.143,0.483,-3.939,6.93,1.47,0.7
,-9.268,0.132,-3.388,-9.062,0.043,-4.07,8.54,1.75,0.56
,-9.311,0.577,-3.549,-9.05,-0.242,-4.022,7.77,1.75,0.21
,-9.344,0.622,-3.795,-9.179,-0.191,-3.953,4.9,1.68,-0.42
29032.0,-9.256,0.045,-3.843,-8.961,0.057,-3.817,10.5,0.91,0.98
,-9.225,0.402,-3.857,-9.012,-0.304,-3.599,9.73,0.56,0.42
,-9.229,0.464,-4.063,-9.198,-0.237,-3.68,6.72,0.07,-0.77
,-9.064,0.452,-4.001,-9.328,0.12,-3.747,3.36,-0.07,-1.4
29108.0,-9.21,0.421,-3.666,-9.296,-0.029,-3.53,7.98,-0.21,0.28
,-9.139,0.33,-3.589,-9.28,0.007,-3.606,5.39,-0.07,0.21
,-9.148,0.086,-3.587,-9.119,0.16,-3.575,3.36,0.07,0.35
,-9.172,-0.024,-3.52,-9.131,0.148,-3.659,3.08,0.35,0.42
29184.0,-9.244,0.103,-3.685,-9.22,0.045,-3.743,2.03,1.26,0.7
,-9.268,0.074,-3.625,-9.191,0.151,-3.764,1.47,1.12,0.7
,-9.241,0.096,-3.601,-9.083,0.136,-3.817,1.68,1.26,0.7
,-9.325,0.084,-3.845,-9.167,0.208,-3.774,1.96,1.33,0.7
29260.0,-9.222,0.112,-3.738,-9.282,0.189,-3.69,3.71,1.26,1.68
,-9.241,0.12,-3.637,-9.215,0.129,-3.723,4.2,1.26,1.47
,-9.237,0.189,-3.577,-9.167,0.134,-3.819,4.2,1.26,1.47
,-9.256,0.168,-3.532,-9.184,0.108,-3.865,3.71,1.33,1.4
29336.0,-9.122,0.249,-3.865,-9.131,0.127,-3.824,3.5,1.26,1.54
,-9.15,0.263,-3.891,-9.098,0.105,-3.838,3.22,0.98,1.47
,-9.234,0.28,-3.857,-9.095,0.187,-3.776,2.52,0.77,1.4
,-9.213,0.225,-3.857,-9.158,0.203,-3.721,2.1,0.56,1.54
29412.0,-9.182,0.134,-3.618,-9.261,0.096,-3.558,3.36,0.42,2.17
,-9.194,-0.031,-3.491,-9.277,0.134,-3.508,3.64,0.56,2.52
,-9.251,-0.029,-3.534,-9.21,0.148,-3.597,4.55,0.56,2.52
,-9.261,0.062,-3.477,-9.186,0.177,-3.678,5.46,1.19,2.8
29487.0,-9.148,0.184,-3.609,-9.337,0.357,-3.774,3.71,2.1,2.52
,-9.155,0.141,-3.546,-9.189,0.333,-3.805,3.78,2.17,2.66
,-9.21,0.189,-3.611,-9.067,0.292,-3.845,4.48,2.31,2.59
,-9.287,0.215,-3.618,-9.093,0.17,-3.85,4.9,2.45,2.66
29563.0,-9.158,0.246,-3.845,-9.196,0.273,-3.788,3.92,2.24,2.31
,-9.208,0.246,-3.845,-9.198,0.292,-3.798,3.64,2.03,2.17
,-9.16,0.273,-3.812,-9.162,0.27,-3.754,3.36,1.68,2.03
,-9.17,0.215,-3.824,-9.119,0.172,-3.699,3.29,1.68,2.03
29638.0,-9.189,0.163,-3.618,-9.124,0.311,-3.879,4.27,1.82,2.31
,-9.208,0.208,-3.53,-9.136,0.258,-4.027,4.2,1.96,2.17
,-9.232,0.323,-3.676,-9.162,0.28,-3.92,3.64,1.96,1.89
,-9.201,0.313,-3.778,-9.141,0.27,-3.994,2.59,1.96,1.54
29713.0,-9.129,0.223,-3.9,-9.172,0.282,-3.817,3.78,1.05,1.47
,-9.189,0.208,-3.829,-9.203,0.242,-3.723,4.2,0.7,1.47
,-9.189,0.28,-3.821,-9.198,0.258,-3.86,4.55,0.42,1.4
,-9.141,0.311,-3.879,-9.148,0.306,-3.759,4.48,0.35,1.47
29788.0,-9.129,0.333,-3.695,-9.172,0.203,-3.501,3.29,0.0,0.84
,-9.148,0.172,-3.632,-9.179,0.163,-3.587,2.87,0.14,0.91
,-9.225,0.165,-3.673,-9.237,0.249,-3.556,2.94,0.14,0.77
,-9.246,0.179,-3.709,-9.268,0.294,-3.57,2.73,0.21,0.56
29863.0,-9.275,0.179,-3.527,-9.232,0.182,-3.747,3.15,0.91,0.77
,-9.186,0.168,-3.568,-9.203,0.182,-3.817,3.36,1.05,0.7
,-9.131,0.184,-3.587,-9.189,0.122,-3.79,3.64,1.4,0.91
,-9.21,0.201,-3.57,-9.184,0.182,-3.774,3.71,1.33,0.84
29938.0,-9.189,0.187,-3.721,-9.227,0.235,-3.69,4.55,1.26,0.84
,-9.162,0.261,-3.745,-9.189,0.144,-3.793,4.83,1.33,0.84
,-9.189,0.378,-3.743,-9.143,0.139,-3.793,3.99,1.33,0.7
,-9.275,0.292,-3.716,-9.162,0.105,-3.747,2.66,1.33,0.35
30013.0,-9.172,0.146,-3.68,-9.174,0.194,-3.644,3.08,1.05,0.7
,-9.206,0.182,-3.618,-9.172,0.079,-3.683,3.43,1.26,0.77
,-9.232,0.218,-3.606,-9.201,0.057,-3.695,3.22,1.33,0.77
,-9.287,0.244,-3.714,-9.189,0.17,-3.728,2.59,1.19,0.63
30088.0,-9.189,0.273,-3.766,-9.186,0.096,-3.656,3.92,1.47,1.05
,-9.184,0.278,-3.793,-9.21,0.093,-3.558,3.43,1.4,0.91
,-9.167,0.218,-3.738,-9.232,0.153,-3.491,3.15,1.33,0.91
,-9.124,0.144,-3.74,-9.261,0.211,-3.52,3.5,1.19,0.91
30163.0,-9.234,0.251,-3.616,-9.191,0.203,-3.869,3.15,1.75,0.77
,-9.172,0.225,-3.735,-9.143,0.239,-3.783,2.45,1.96,0.7
,-9.158,0.168,-3.821,-9.203,0.223,-3.824,2.31,1.96,0.63
,-9.155,0.112,-3.898,-9.222,0.282,-3.793,3.01,2.03,0.84
30238.0,-9.172,0.254,-3.786,-9.217,0.254,-3.778,2.52,1.05,0.56
,-9.134,0.168,-3.795,-9.249,0.278,-3.75,2.87,0.98,0.49
,-9.174,0.129,-3.79,-9.215,0.246,-3.716,3.71,0.91,0.56
,-9.191,0.158,-3.766,-9.146,0.275,-3.64,4.83,1.05,0.84
30313.0,-9.225,0.206,-3.719,-9.184,0.184,-3.582,3.15,0.77,0.35
,-9.213,0.165,-3.659,-9.239,0.213,-3.628,2.59,0.63,0.35
,-9.194,0.153,-3.625,-9.196,0.218,-3.606,2.73,0.91,0.42
,-9.179,0.134,-3.656,-9.215,0.258,-3.731,2.8,1.05,0.49
30388.0,-9.208,0.182,-3.788,-9.206,0.282,-3.75,2.45,1.12,0.28
,-9.098,0.122,-3.714,-9.158,0.189,-3.668,2.45,1.05,0.35
,-9.141,0.134,-3.786,-9.222,0.136,-3.707,3.01,1.12,0.49
,-9.21,0.218,-3.786,-9.184,0.168,-3.745,3.64,1.12,0.49
30463.0,-9.201,0.146,-3.721,-9.189,0.187,-3.62,2.8,1.05,0.42
,-9.201,0.153,-3.726,-9.215,0.199,-3.563,2.73,0.84,0.21
,-9.229,0.117,-3.702,-9.222,0.23,-3.577,3.08,0.7,0.28
,-9.186,0.165,-3.64,-9.217,0.227,-3.585,3.22,0.77,0.42
30538.0,-9.191,0.182,-3.659,-9.184,0.16,-3.714,1.61,1.26,0.28
,-9.182,0.108,-3.673,-9.237,0.225,-3.661,1.33,1.12,0.35
,-9.177,0.036,-3.678,-9.232,0.232,-3.774,1.75,1.12,0.35
,-9.237,0.072,-3.733,-9.136,0.232,-3.762,2.52,1.33,0.49
30613.0,-9.177,0.179,-3.747,-9.167,0.23,-3.752,1.82,1.4,0.35
,-9.222,0.139,-3.752,-9.213,0.184,-3.781,2.38,1.19,0.42
,-9.174,0.196,-3.735,-9.208,0.122,-3.714,2.87,1.12,0.49
,-9.189,0.22,-3.805,-9.189,0.105,-3.716,3.01,1.12,0.42
30688.0,-9.198,0.165,-3.707,-9.189,0.182,-3.654,2.94,0.91,0.42
,-9.191,0.16,-3.62,-9.196,0.184,-3.711,2.94,0.84,0.42
,-9.203,0.175,-3.659,-9.191,0.124,-3.697,2.94,0.98,0.49
,-9.153,0.177,-3.628,-9.196,0.127,-3.707,2.87,0.91,0.49
30763.0,-9.217,0.096,-3.666,-9.246,0.093,-3.544,2.45,0.91,0.35
,-9.196,0.153,-3.599,-9.251,0.129,-3.632,2.31,1.12,0.49
,-9.206,0.12,-3.532,-9.191,0.211,-3.711,2.03,1.26,0.42
,-9.265,0.124,-3.542,-9.177,0.148,-3.776,2.03,1.47,0.56
30838.0,-9.141,0.11,-3.786,-9.165,0.196,-3.716,2.17,1.61,0.63
,-9.174,0.136,-3.798,-9.191,0.158,-3.711,2.45,1.4,0.63
,-9.251,0.201,-3.829,-9.206,0.144,-3.704,2.59,1.26,0.56
,-9.22,0.266,-3.798,-9.179,0.115,-3.676,2.38,1.19,0.63
30913.0,-9.196,0.096,-3.606,-9.201,0.148,-3.716,2.52,1.19,0.91
,-9.222,0.101,-3.57,-9.174,0.11,-3.69,2.59,1.19,0.91
,-9.287,0.165,-3.577,-9.174,0.112,-3.69,2.45,1.33,0.77
,-9.222,0.196,-3.637,-9.136,0.201,-3.676,2.03,1.19,0.7
30988.0,-9.256,0.17,-3.721,-9.182,0.172,-3.826,1.96,1.33,0.84
,-9.217,0.182,-3.695,-9.158,0.148,-3.743,1.75,1.4,0.77
,-9.17,0.144,-3.707,-9.179,0.132,-3.754,1.68,1.19,0.7
,-9.177,0.129,-3.757,-9.206,0.165,-3.699,1.89,1.05,0.7
31063.0,-9.227,0.191,-3.671,-9.225,0.127,-3.673,2.94,0.77,0.91
,-9.234,0.136,-3.599,-9.17,0.158,-3.687,2.59,1.12,0.91
,-9.21,0.146,-3.589,-9.143,0.189,-3.697,2.1,1.19,0.84
,-9.241,0.103,-3.587,-9.22,0.184,-3.69,2.03,1.19,0.77
31138.0,-9.251,0.199,-3.699,-9.217,0.158,-3.666,2.94,1.26,0.98
,-9.196,0.22,-3.757,-9.249,0.17,-3.616,2.66,1.19,0.77
,-9.201,0.141,-3.74,-9.206,0.146,-3.549,2.24,1.19,0.7
,-9.208,0.11,-3.649,-9.17,0.069,-3.537,2.38,1.26,0.91
31213.0,-9.234,0.069,-3.561,-9.134,0.163,-3.721,2.17,1.68,0.84
,-9.249,0.127,-3.62,-9.179,0.235,-3.754,2.73,1.68,0.77
,-9.256,0.17,-3.668,-9.172,0.148,-3.707,2.73,1.89,0.84
,-9.179,0.172,-3.711,-9.158,0.16,-3.709,2.73,1.89,0.91
31288.0,-9.217,0.16,-3.668,-9.28,0.235,-3.606,2.87,1.89,0.84
,-9.203,0.175,-3.575,-9.229,0.23,-3.685,2.59,1.82,0.98
,-9.198,0.163,-3.553,-9.186,0.177,-3.687,2.66,1.89,0.98
,-9.284,0.208,-3.573,-9.179,0.12,-3.599,2.59,2.03,0.77
31363.0,-9.222,0.144,-3.707,-9.162,0.136,-3.781,2.31,2.31,0.56
,-9.172,0.306,-3.757,-9.194,0.151,-3.867,2.59,2.31,0.42
,-9.217,0.299,-3.74,-9.179,0.194,-3.903,1.61,2.31,0.35
,-9.15,0.199,-3.788,-9.182,0.16,-3.776,1.26,2.24,0.35
31438.0,-9.215,0.22,-3.848,-9.191,0.108,-3.719,2.38,1.26,0.35
,-9.15,0.208,-3.692,-9.253,0.062,-3.726,2.45,1.19,0.35
,-9.15,0.258,-3.764,-9.294,0.141,-3.754,2.31,1.19,0.28
,-9.17,0.196,-3.735,-9.265,0.218,-3.719,2.1,1.12,0.14
31513.0,-9.222,0.227,-3.604,-9.143,0.158,-3.726,2.73,0.98,0.35
,-9.217,0.215,-3.814,-9.153,0.156,-3.833,2.24,0.84,0.21
,-9.155,0.189,-3.843,-9.249,0.227,-3.8,1.82,0.63,0.07
,-9.182,0.175,-3.831,-9.208,0.347,-3.831,1.54,0.42,-0.07
31588.0,-9.162,0.297,-3.781,-9.217,0.299,-3.743,2.38,-0.42,-0.42
,-9.182,0.175,-3.826,-9.227,0.256,-3.534,2.38,-0.42,-0.49
,-9.191,0.065,-3.817,-9.234,0.208,-3.606,3.08,-0.49,-0.35
,-9.203,0.124,-3.738,-9.241,0.144,-3.726,3.92,-0.56,-0.35
31663.0,-9.196,0.098,-3.585,-9.294,0.124,-3.477,1.89,-0.7,-0.91
,-9.198,-0.01,-3.644,-9.27,0.203,-3.343,2.59,-0.63,-0.77
,-9.15,0.0,-3.482,-9.265,0.079,-3.247,3.78,-0.42,-0.49
,-9.22,0.067,-3.429,-9.265,0.022,-3.314,4.27,-0.28,-0.42
31738.0,-9.253,-0.055,-3.4,-9.246,0.16,-3.128,2.66,1.47,0.07
,-9.22,-0.093,-3.4,-9.296,0.187,-3.163,3.22,1.96,0.28
,-9.191,-0.057,-3.252,-9.287,-0.089,-3.094,3.78,2.45,0.77
,-9.249,0.069,-3.216,-9.289,-0.421,-3.063,4.2,3.22,1.19
31813.0,-9.258,-0.4,-3.003,-9.088,0.069,-3.455,2.59,6.65,2.31
,-9.292,-0.191,-3.027,-9.06,-0.057,-3.403,4.62,7.49,2.8
,-9.416,0.112,-3.252,-9.153,0.077,-3.357,4.76,8.19,3.01
,-9.292,0.105,-3.51,-9.206,0.29,-3.283,2.87,8.75,2.94
31888.0,-9.069,0.235,-3.331,-9.268,0.256,-3.771,-0.28,11.13,2.38
,-8.957,0.199,-3.197,-8.914,0.038,-3.829,-2.1,11.97,2.87
,-9.086,0.249,-3.293,-8.832,-0.471,-3.798,-2.66,12.18,2.8
,-9.361,0.242,-3.506,-8.935,-0.806,-3.754,-3.57,12.53,2.03
31963.0,-9.031,-0.713,-3.506,-8.61,1.17,-4.905,-0.28,14.14,5.04
,-9.155,-0.22,-3.723,-8.423,0.737,-4.767,4.06,14.49,5.53
,-9.131,0.409,-3.692,-8.576,0.062,-4.953,5.39,14.42,5.39
,-9.021,1.039,-4.748,-8.681,-0.522,-4.408,3.64,13.3,4.13
32038.0,-9.028,-0.771,-4.075,-9.081,1.125,-4.147,2.66,9.94,5.11
,-9.428,-0.668,-3.35,-8.928,0.84,-4.405,7.0,10.08,5.88
,-9.474,-0.115,-4.013,-8.705,0.218,-3.927,9.17,9.52,5.25
,-9.213,0.708,-3.96,-8.806,-0.022,-4.121,9.59,9.17,4.48
32113.0,-8.882,0.184,-4.255,-9.227,-0.246,-4.384,6.65,9.73,4.2
,-8.995,0.349,-4.561,-8.988,-0.069,-3.91,6.93,8.54,3.92
,-9.057,0.266,-4.405,-8.89,0.421,-3.891,5.32,7.84,4.48
,-9.103,-0.12,-4.238,-8.696,0.871,-3.924,5.81,8.4,5.32
32188.0,-8.801,0.969,-4.042,-8.837,0.266,-4.171,13.65,8.75,4.34
,-8.981,0.778,-4.271,-9.024,0.297,-3.932,9.31,8.26,3.22
,-8.993,0.397,-3.833,-9.072,0.361,-3.836,7.07,8.4,3.22
,-8.978,0.213,-4.092,-8.887,0.261,-3.41,7.07,8.68,3.15
32263.0,-8.717,0.385,-3.743,-8.717,-0.189,-4.099,2.24,12.95,1.61
,-8.734,0.627,-4.164,-8.768,-0.414,-3.967,2.45,12.18,1.47
,-8.935,0.759,-4.228,-8.837,-0.072,-4.118,1.89,11.69,1.54
,-8.897,0.428,-4.477,-8.971,0.467,-4.202,-0.42,12.18,2.03
32338.0,-8.897,0.96,-4.257,-8.866,0.115,-4.25,3.85,13.93,1.05
,-8.854,0.869,-4.252,-8.804,0.708,-4.58,-0.63,14.56,1.26
,-8.964,0.34,-4.056,-8.425,1.127,-4.585,-2.31,15.33,1.96
,-8.957,-0.022,-4.142,-8.32,0.981,-4.14,0.28,15.89,2.1
32413.0,-8.425,0.503,-4.121,-8.705,-0.256,-5.061,3.36,17.71,1.61
,-8.686,-0.11,-4.295,-8.536,-0.151,-4.989,0.98,17.92,1.54
,-8.988,-0.414,-4.558,-8.605,0.038,-4.984,1.26,17.92,2.59
,-8.88,-0.318,-5.061,-8.835,0.261,-5.207,2.73,17.36,3.22
32488.0,-9.06,0.512,-5.257,-8.583,-0.749,-4.671,5.25,14.42,2.1
,-8.638,0.794,-5.284,-8.777,-0.682,-4.762,2.52,13.72,2.45
,-8.155,0.512,-5.207,-8.808,-0.27,-4.867,-1.4,14.98,3.78
,-8.129,-0.4,-4.757,-8.543,-0.06,-5.138,-4.06,16.38,5.18
32563.0,-8.421,0.323,-5.08,-8.423,1.007,-4.764,8.4,15.89,8.12
,-8.433,0.763,-5.135,-8.631,0.727,-4.692,9.03,15.4,7.49
,-8.354,1.062,-4.934,-8.626,0.474,-4.87,8.19,14.7,6.51
,-8.356,1.22,-4.862,-8.588,0.232,-4.781,5.67,14.0,5.88
32638.0,-8.504,0.01,-4.884,-8.222,1.359,-5.382,6.3,17.5,1.82
,-8.452,0.146,-4.915,-8.512,1.311,-5.432,9.31,17.36,1.4
,-8.308,0.766,-5.205,-8.753,1.115,-5.463,12.6,16.03,1.05
,-8.078,1.125,-5.456,-8.725,0.771,-5.207,14.21,15.26,0.56
32713.0,-8.488,0.347,-5.171,-7.798,-0.804,-5.951,7.0,16.66,-4.76
,-7.923,-0.079,-5.327,-8.349,-0.232,-6.241,4.06,16.52,-3.22
,-7.827,-1.024,-5.365,-8.37,0.165,-6.138,1.05,17.22,-0.7
,-7.803,-1.163,-5.453,-8.189,0.378,-6.088,3.22,17.78,1.68
32788.0,-8.698,0.208,-5.899,-8.009,0.22,-5.822,6.09,13.51,5.32
,-8.387,-0.093,-5.42,-7.861,0.266,-5.774,2.52,14.0,5.46
,-8.303,-0.268,-5.451,-7.731,0.553,-5.922,2.45,13.93,4.69
,-7.885,-0.031,-5.705,-8.196,0.771,-5.836,4.69,13.93,3.64
32863.0,-8.129,1.086,-5.86,-8.074,-0.122,-6.078,8.96,9.94,6.16
,-8.306,1.173,-5.932,-7.877,-0.723,-6.169,8.89,9.17,4.55
,-8.595,1.28,-6.169,-7.837,-1.043,-6.305,7.84,8.4,3.01
,-8.287,0.732,-6.293,-7.961,-0.778,-6.542,5.95,8.12,3.15
32938.0,-7.806,-0.912,-6.59,-8.473,0.23,-6.43,18.34,3.99,10.5
,-7.691,-0.258,-6.418,-8.423,-0.067,-6.231,21.28,2.31,10.92
,-7.992,0.409,-6.659,-8.339,-0.108,-6.351,21.77,0.84,10.36
,-8.212,0.519,-6.645,-8.215,0.093,-6.444,17.29,-0.14,9.87
33013.0,-8.189,0.203,-6.511,-8.062,0.108,-6.236,13.09,-2.45,8.96
,-8.014,0.098,-6.54,-8.081,0.347,-6.047,12.39,-3.08,9.73
,-8.16,0.328,-6.372,-8.217,0.969,-6.006,12.11,-4.41,10.78
,-8.105,0.347,-6.379,-8.083,1.304,-6.104,10.36,-5.74,11.13
33088.0,-8.423,1.283,-6.085,-7.717,1.452,-5.599,4.06,-5.53,7.77
,-8.303,0.998,-6.021,-7.822,1.799,-5.53,2.1,-5.04,7.14
,-8.138,0.727,-5.915,-8.325,1.689,-5.437,1.19,-4.27,7.28
,-7.98,0.96,-5.755,-8.725,1.35,-5.329,2.59,-3.85,7.49
33163.0,-8.588,0.957,-5.403,-8.196,0.749,-5.709,-9.52,-3.36,1.54
,-8.356,0.89,-5.58,-8.394,0.814,-5.688,-10.71,-3.64,1.05
,-8.162,0.799,-5.671,-8.461,1.132,-5.848,-11.41,-3.22,0.7
,-8.045,0.763,-5.772,-8.452,1.129,-5.846,-12.11,-2.94,0.42
33238.0,-8.344,0.95,-5.832,-8.253,0.452,-5.994,-14.7,-4.27,-3.57
,-8.112,0.732,-5.915,-8.289,0.268,-5.932,-14.42,-3.92,-4.13
,-8.215,0.558,-5.927,-8.492,0.093,-5.724,-14.35,-4.13,-3.85
,-8.217,0.522,-5.899,-8.495,0.23,-5.776,-12.74,-4.2,-3.43
33313.0,-8.512,0.258,-5.674,-8.234,-0.072,-5.559,-9.87,-6.51,-1.05
,-8.382,0.225,-5.745,-8.047,-0.239,-5.621,-10.22,-6.86,-0.42
,-8.313,0.177,-5.815,-8.1,-0.258,-5.65,-9.94,-7.28,-0.21
,-8.208,-0.067,-5.633,-8.244,-0.156,-5.681,-9.73,-7.63,-0.07
33388.0,-8.402,-0.05,-5.597,-8.04,0.969,-5.511,-2.94,-8.33,6.37
,-8.622,0.306,-5.465,-8.043,0.967,-5.425,-0.21,-9.73,6.23
,-8.65,0.773,-5.523,-8.375,0.845,-5.353,0.42,-10.92,6.37
,-8.289,0.955,-5.427,-8.672,1.151,-5.336,-1.12,-10.85,6.37
33463.0,-8.768,1.46,-5.418,-8.055,0.902,-5.542,-1.19,-11.06,3.64
,-8.641,1.441,-5.444,-8.346,0.68,-5.286,-1.19,-11.06,1.75
,-8.634,1.307,-5.413,-8.591,0.902,-5.336,-2.94,-11.62,0.35
,-8.327,1.271,-5.595,-8.603,0.993,-5.276,-3.22,-11.34,-0.56
33538.0,-8.397,1.067,-5.212,-8.693,0.766,-4.953,0.0,-14.28,-3.29
,-8.284,0.936,-5.051,-8.567,0.962,-4.92,-2.59,-14.07,-3.15
,-8.37,0.689,-4.917,-8.614,1.017,-4.838,-3.71,-13.79,-3.36
,-8.538,0.653,-5.011,-8.488,1.151,-4.791,-2.73,-14.28,-3.92
33613.0,-8.555,1.007,-4.724,-8.488,0.608,-4.685,-1.61,-14.84,-4.41
,-8.674,0.96,-4.515,-8.6,0.302,-4.618,-3.22,-15.19,-5.11
,-8.536,0.902,-4.527,-8.777,0.165,-4.688,-3.43,-15.12,-5.46
,-8.459,0.931,-4.614,-8.868,0.632,-4.932,-3.5,-14.7,-5.25
33688.0,-8.54,0.651,-4.755,-8.626,0.615,-4.527,1.26,-14.21,-3.99
,-8.368,0.488,-4.558,-8.758,0.443,-4.312,1.54,-14.0,-2.8
,-8.564,0.663,-4.831,-8.715,0.529,-4.362,1.96,-14.77,-3.08
,-8.715,0.634,-4.64,-8.729,0.55,-4.288,0.56,-15.26,-3.22
33763.0,-8.801,0.711,-4.271,-8.971,0.871,-4.19,2.8,-13.16,-1.96
,-8.875,0.696,-4.319,-8.662,1.067,-4.25,3.01,-12.74,-1.61
,-8.918,0.699,-4.271,-8.66,0.979,-4.281,3.99,-12.18,-1.26
,-9.105,0.543,-4.013,-8.792,0.821,-4.286,5.04,-11.76,-0.7
33838.0,-8.863,0.794,-4.319,-9.009,1.005,-4.14,2.66,-11.83,-2.66
,-8.899,0.83,-4.353,-9.191,0.905,-4.054,3.15,-11.9,-3.15
,-8.842,1.01,-4.24,-9.122,0.811,-4.089,3.99,-11.83,-4.06
,-8.804,1.18,-4.204,-9.038,0.431,-4.293,3.15,-11.69,-5.04
33913.0,-8.832,0.342,-4.063,-9.014,0.337,-4.192,-1.26,-11.2,-7.0
,-8.725,0.447,-3.946,-8.971,0.278,-4.279,-1.05,-11.27,-6.72
,-8.794,0.371,-4.168,-9.033,-0.024,-4.087,-1.12,-11.41,-6.72
,-9.016,0.347,-4.176,-8.99,0.038,-3.9,-0.56,-11.55,-6.93
33988.0,-8.93,0.318,-3.836,-8.894,0.78,-3.877,3.71,-9.8,-4.06
,-8.947,0.414,-3.747,-9.012,0.919,-3.802,4.48,-9.24,-3.5
,-9.069,0.488,-3.687,-8.997,0.933,-3.807,4.41,-9.24,-3.08
,-9.117,0.653,-3.68,-9.191,0.768,-3.699,4.27,-9.31,-2.87
34063.0,-9.423,0.584,-3.587,-8.916,0.129,-3.654,1.05,-8.33,-5.95
,-9.107,0.924,-3.958,-9.129,-0.208,-3.475,-1.19,-8.96,-7.77
,-8.811,0.861,-3.884,-9.244,-0.242,-3.381,-5.25,-9.45,-8.33
,-8.784,0.44,-3.728,-9.375,-0.127,-3.482,-7.63,-9.38,-8.12
34138.0,-9.249,0.002,-3.343,-8.983,0.668,-3.534,-2.03,-6.16,-5.53
,-9.313,0.177,-3.25,-9.033,0.342,-3.364,-0.21,-5.53,-4.62
,-9.249,0.479,-3.759,-9.15,0.34,-3.477,0.91,-5.67,-4.69
,-9.062,0.694,-3.544,-9.153,0.596,-3.58,0.98,-5.25,-4.2
34213.0,-9.081,0.811,-3.616,-9.258,-0.06,-3.063,-4.27,-6.37,-6.3
,-9.095,0.443,-3.534,-9.246,0.445,-3.125,-6.37,-5.88,-6.51
,-9.172,-0.098,-3.362,-9.146,0.818,-3.843,-5.74,-5.18,-6.37
,-9.191,-0.213,-3.077,-9.026,0.648,-3.652,-3.15,-4.13,-5.53
34288.0,-9.028,0.306,-3.948,-9.347,0.273,-3.716,-5.04,-4.06,-5.32
,-9.076,-0.031,-3.671,-9.368,0.337,-3.932,-2.45,-3.71,-4.06
,-9.131,-0.172,-3.475,-9.275,0.144,-3.793,1.68,-3.36,-2.45
,-9.39,0.151,-3.697,-9.184,0.223,-4.257,3.22,-3.92,-2.45
34363.0,-8.99,0.124,-4.027,-9.488,-0.191,-2.331,-5.74,-5.81,-4.69
,-8.959,-0.235,-3.542,-9.505,0.299,-2.369,-4.76,-5.74,-3.36
,-9.15,-0.613,-2.977,-9.526,0.266,-2.498,-0.7,-5.18,-1.96
,-9.363,-0.579,-2.613,-9.459,0.383,-2.79,4.62,-4.41,-0.98
34438.0,-9.397,0.61,-3.551,-9.055,-0.077,-3.475,3.29,-0.07,-0.98
,-9.103,0.579,-3.644,-9.239,-0.048,-3.123,1.75,-0.07,-1.05
,-9.012,0.404,-3.81,-9.493,0.117,-3.391,1.12,-0.21,-0.98
,-9.021,0.112,-3.711,-9.304,0.232,-3.424,1.89,-0.28,-1.19
34513.0,-9.189,0.218,-3.307,-9.462,0.459,-3.178,5.32,0.63,-0.07
,-9.241,-0.101,-3.113,-9.368,0.572,-3.568,4.69,1.05,0.49
,-9.378,-0.148,-3.192,-9.184,0.244,-3.687,6.51,1.61,0.77
,-9.531,0.096,-3.18,-9.134,0.084,-3.795,7.84,1.96,0.91
34588.0,-9.153,0.06,-3.695,-9.282,0.292,-3.728,1.68,1.61,-0.91
,-9.182,0.069,-3.685,-9.229,0.345,-3.776,2.87,1.33,-0.7
,-9.33,0.246,-3.752,-9.146,0.376,-3.652,3.15,1.05,-0.63
,-9.282,0.285,-3.597,-9.277,0.302,-3.673,2.73,0.84,-0.42
34663.0,-9.27,0.294,-3.542,-9.261,-0.043,-3.68,0.98,-0.63,-1.12
,-9.347,0.292,-3.757,-9.289,0.045,-3.673,0.98,-1.05,-1.33
,-9.318,0.084,-3.735,-9.206,0.084,-3.508,0.56,-1.54,-1.33
,-9.258,-0.014,-3.738,-9.213,-0.11,-3.252,1.75,-1.82,-1.05
34738.0,-9.375,-0.237,-3.175,-9.404,0.211,-2.934,7.07,-1.4,0.56
,-9.289,-0.203,-2.934,-9.34,0.189,-2.982,8.47,-0.98,1.19
,-9.323,-0.041,-2.905,-9.349,-0.002,-3.192,8.89,-0.42,1.61
,-9.387,0.022,-2.828,-9.289,-0.117,-3.223,8.54,0.14,1.54
34813.0,-9.215,0.041,-3.321,-9.38,0.388,-3.774,7.14,2.31,1.61
,-9.292,0.246,-3.467,-9.34,0.328,-3.735,7.98,2.38,1.61
,-9.332,0.333,-3.551,-9.251,0.27,-3.711,7.7,2.45,1.75
,-9.323,0.433,-3.527,-9.234,0.132,-3.719,7.0,2.17,1.68
34888.0,-9.186,0.115,-3.518,-9.241,0.242,-3.561,6.02,1.19,1.05
,-9.328,0.225,-3.563,-9.241,0.022,-3.513,6.16,0.7,0.84
,-9.476,0.239,-3.542,-9.251,-0.002,-3.379,5.88,0.42,0.49
,-9.344,0.431,-3.618,-9.244,0.112,-3.372,4.83,0.07,0.14
34963.0,-9.32,0.103,-3.147,-9.28,-0.057,-3.044,6.3,0.49,0.84
,-9.409,0.065,-2.982,-9.32,-0.074,-3.187,6.3,0.77,1.05
,-9.416,-0.01,-3.077,-9.34,0.012,-3.183,6.23,0.91,0.84
,-9.363,-0.12,-3.01,-9.351,0.156,-3.317,5.88,1.47,1.05
35038.0,-9.38,0.124,-3.36,-9.239,0.108,-3.702,4.34,3.01,0.98
,-9.299,0.034,-3.374,-9.256,0.127,-3.781,3.99,3.15,1.05
,-9.273,0.041,-3.455,-9.239,0.105,-3.867,4.27,3.22,1.26
,-9.289,0.026,-3.585,-9.206,0.148,-3.793,5.39,3.15,1.47
35113.0,-9.287,0.275,-3.805,-9.289,-0.019,-3.367,10.15,1.47,2.17
,-9.347,0.29,-3.711,-9.33,-0.112,-3.159,9.03,1.26,1.75
,-9.32,0.33,-3.513,-9.316,-0.098,-3.218,7.7,0.91,1.47
,-9.34,0.256,-3.408,-9.328,-0.139,-3.204,5.95,0.7,1.12
35188.0,-9.289,0.0,-3.108,-9.299,0.139,-3.391,5.32,2.1,1.54
,-9.277,0.026,-3.099,-9.237,0.084,-3.47,4.55,2.24,1.47
,-9.363,0.069,-3.151,-9.203,0.0,-3.582,3.85,2.66,1.4
,-9.385,0.089,-3.324,-9.251,0.108,-3.676,2.94,2.87,1.19
35263.0,-9.292,0.194,-3.74,-9.332,0.179,-3.561,4.41,2.66,1.61
,-9.251,0.06,-3.544,-9.28,0.184,-3.582,4.41,2.38,1.89
,-9.225,0.045,-3.501,-9.229,0.043,-3.522,4.41,2.31,2.03
,-9.356,0.041,-3.537,-9.241,-0.022,-3.477,5.04,2.24,1.82
35338.0,-9.311,0.081,-3.467,-9.201,0.029,-3.4,5.46,2.1,1.89
,-9.351,0.194,-3.475,-9.258,-0.002,-3.326,5.46,1.89,1.75
,-9.289,0.22,-3.47,-9.323,0.012,-3.283,4.76,1.89,1.61
,-9.249,0.177,-3.475,-9.287,0.048,-3.204,3.57,1.82,1.4
35413.0,-9.304,0.031,-3.192,-9.294,0.067,-3.465,2.24,3.01,1.4
,-9.282,0.079,-3.285,-9.34,0.065,-3.527,1.82,3.08,1.26
,-9.316,0.05,-3.35,-9.378,0.194,-3.649,1.61,3.43,1.33
,-9.234,0.055,-3.405,-9.261,0.246,-3.783,1.61,3.71,1.47
35488.0,-9.21,0.208,-3.855,-9.28,0.158,-3.573,1.75,2.66,1.05
,-9.232,0.098,-3.917,-9.313,0.148,-3.51,2.17,2.45,1.05
,-9.196,0.093,-3.845,-9.261,0.17,-3.427,3.15,2.24,1.19
,-9.162,0.124,-3.783,-9.277,0.134,-3.405,4.06,2.03,1.4
35563.0,-9.265,0.031,-3.329,-9.313,0.235,-3.553,3.36,1.82,1.47
,-9.289,-0.093,-3.317,-9.287,0.203,-3.585,3.78,2.1,1.68
,-9.28,0.024,-3.343,-9.251,0.108,-3.649,4.27,2.17,1.61
,-9.282,0.218,-3.434,-9.253,0.146,-3.769,4.06,2.38,1.4
35638.0,-9.179,0.132,-3.759,-9.27,0.235,-3.601,1.82,1.89,0.98
,-9.244,0.168,-3.709,-9.277,0.081,-3.577,2.17,1.75,1.12
,-9.284,0.206,-3.64,-9.249,0.019,-3.506,2.45,1.54,1.12
,-9.28,0.237,-3.699,-9.244,-0.034,-3.388,2.52,1.26,0.91
35713.0,-9.299,0.019,-3.372,-9.251,0.12,-3.472,2.66,1.33,1.19
,-9.325,0.065,-3.393,-9.239,0.069,-3.522,2.45,1.75,1.19
,-9.306,0.101,-3.324,-9.318,0.074,-3.577,2.03,1.75,1.19
,-9.301,0.124,-3.436,-9.244,0.089,-3.632,1.26,1.68,0.91
35788.0,-9.258,0.151,-3.618,-9.282,0.096,-3.408,1.61,1.89,0.98
,-9.275,0.146,-3.609,-9.313,0.041,-3.439,1.68,1.82,1.05
,-9.249,0.141,-3.53,-9.332,0.06,-3.46,1.54,1.96,1.12
,-9.268,0.091,-3.537,-9.316,0.084,-3.458,1.33,1.82,0.91
35863.0,-9.284,0.105,-3.496,-9.225,0.134,-3.558,1.89,2.17,1.05
,-9.304,0.139,-3.585,-9.301,0.199,-3.695,2.1,2.1,1.05
,-9.294,0.184,-3.664,-9.313,0.237,-3.69,2.31,2.24,1.12
,-9.182,0.208,-3.647,-9.256,0.213,-3.654,2.31,2.03,1.19
35938.0,-9.241,0.191,-3.711,-9.282,0.165,-3.479,1.54,1.33,0.84
,-9.141,0.101,-3.668,-9.292,0.151,-3.427,1.96,1.12,0.98
,-9.261,0.091,-3.587,-9.282,0.172,-3.396,2.52,1.26,1.12
,-9.275,0.081,-3.484,-9.27,0.129,-3.518,2.59,1.19,1.12
36013.0,-9.249,0.129,-3.563,-9.313,0.258,-3.522,1.68,1.61,0.98
,-9.182,0.108,-3.51,-9.246,0.213,-3.601,2.31,1.82,1.19
,-9.249,0.158,-3.513,-9.206,0.139,-3.611,2.87,1.82,1.12
,-9.359,0.249,-3.52,-9.239,0.11,-3.597,3.08,1.75,1.05
36088.0,-9.225,0.108,-3.611,-9.206,0.184,-3.51,2.31,1.54,0.84
,-9.253,0.177,-3.575,-9.292,0.081,-3.46,2.73,1.33,0.98
,-9.232,0.124,-3.63,-9.325,0.065,-3.393,3.15,1.33,0.98
,-9.229,0.16,-3.585,-9.287,0.122,-3.453,3.36,1.4,0.98
36163.0,-9.263,0.196,-3.549,-9.227,0.23,-3.599,2.1,1.82,0.56
,-9.256,0.172,-3.534,-9.249,0.127,-3.503,2.03,1.61,0.63
,-9.184,0.172,-3.618,-9.323,0.086,-3.489,2.24,1.68,0.63
,-9.21,0.203,-3.604,-9.323,0.153,-3.537,2.59,1.82,0.7
36238.0,-9.273,0.213,-3.537,-9.215,0.117,-3.561,2.94,1.96,0.77
,-9.275,0.179,-3.616,-9.246,0.055,-3.522,2.87,1.68,0.7
,-9.246,0.182,-3.637,-9.244,0.187,-3.489,3.08,1.61,0.77
,-9.196,0.177,-3.62,-9.263,0.206,-3.522,3.15,1.75,0.84
36313.0,-9.215,0.132,-3.451,-9.261,0.117,-3.553,1.96,1.82,0.7
,-9.284,0.103,-3.477,-9.273,0.129,-3.582,2.03,2.03,0.7
,-9.256,0.053,-3.494,-9.234,0.163,-3.625,2.38,2.17,0.7
,-9.256,0.127,-3.515,-9.234,0.141,-3.668,2.45,2.24,0.77
36388.0,-9.225,0.175,-3.673,-9.225,0.199,-3.652,2.17,2.17,0.63
,-9.189,0.191,-3.632,-9.256,0.175,-3.575,2.38,1.96,0.63
,-9.222,0.146,-3.661,-9.263,0.112,-3.549,2.66,1.75,0.77
,-9.249,0.172,-3.647,-9.28,0.172,-3.553,3.01,1.68,0.91
36463.0,-9.299,0.168,-3.539,-9.229,0.175,-3.577,2.31,1.47,0.56
,-9.273,0.146,-3.585,-9.284,0.196,-3.594,1.96,1.54,0.49
,-9.232,0.096,-3.585,-9.241,0.136,-3.553,1.61,1.47,0.42
,-9.225,0.081,-3.546,-9.198,0.129,-3.558,2.03,1.68,0.56
36538.0,-9.234,0.086,-3.587,-9.222,0.194,-3.601,1.68,1.82,0.7
,-9.225,0.203,-3.565,-9.191,0.168,-3.551,1.82,1.89,0.77
,-9.306,0.163,-3.589,-9.203,0.124,-3.484,1.82,1.82,0.7
,-9.251,0.211,-3.585,-9.241,0.168,-3.477,1.4,2.03,0.7
36613.0,-9.268,0.17,-3.513,-9.215,0.072,-3.506,0.98,2.24,0.7
,-9.277,0.151,-3.539,-9.217,0.146,-3.472,0.84,2.31,0.7
,-9.217,0.024,-3.484,-9.249,0.199,-3.561,0.7,2.45,0.84
,-9.206,0.055,-3.52,-9.299,0.196,-3.575,0.77,2.38,0.77
36688.0,-9.273,0.177,-3.647,-9.249,0.246,-3.905,-1.89,2.73,0.28
,-9.249,0.043,-3.769,-9.273,0.4,-3.838,-1.82,2.73,0.42
,-9.194,-0.031,-3.807,-9.184,0.369,-3.814,-0.98,2.73,0.63
,-9.174,0.065,-3.853,-9.174,0.258,-3.728,1.12,2.66,1.05
36763.0,-9.215,0.158,-3.745,-9.208,0.139,-3.573,2.52,1.61,1.19
,-9.249,0.196,-3.738,-9.277,0.208,-3.597,3.08,1.33,1.05
,-9.215,0.177,-3.685,-9.229,0.134,-3.501,3.08,1.12,1.05
,-9.182,0.156,-3.683,-9.246,0.144,-3.53,2.87,1.12,0.98
36838.0,-9.241,0.134,-3.496,-9.239,0.093,-3.592,2.45,1.47,0.98
,-9.246,0.179,-3.539,-9.206,0.141,-3.551,2.73,1.47,0.98
,-9.21,0.199,-3.601,-9.256,0.17,-3.549,2.66,1.47,0.98
,-9.217,0.175,-3.573,-9.287,0.244,-3.604,2.66,1.75,1.12
36913.0,-9.241,0.225,-3.654,-9.222,0.122,-3.57,2.1,1.96,0.98
,-9.184,0.199,-3.671,-9.246,0.139,-3.553,2.17,1.82,0.98
,-9.153,0.187,-3.671,-9.277,0.168,-3.544,2.38,2.03,1.05
,-9.179,0.108,-3.625,-9.251,0.182,-3.623,2.73,2.03,1.12
36988.0,-9.268,0.258,-3.714,-9.217,0.239,-3.678,1.75,2.03,0.77
,-9.194,0.225,-3.711,-9.268,0.23,-3.601,1.89,1.82,0.7
,-9.177,0.17,-3.728,-9.261,0.215,-3.628,2.03,1.89,0.84
,-9.191,0.132,-3.659,-9.196,0.168,-3.625,2.38,1.89,0.91
37063.0,-9.217,0.115,-3.683,-9.246,0.223,-3.606,1.96,1.68,0.56
,-9.237,0.12,-3.69,-9.222,0.227,-3.623,2.59,1.75,0.7
,-9.22,0.158,-3.659,-9.189,0.156,-3.64,2.94,1.89,0.91
,-9.203,0.187,-3.644,-9.196,0.132,-3.661,3.08,1.89,0.98
37138.0,-9.222,0.098,-3.659,-9.237,0.163,-3.57,2.38,1.82,0.77
,-9.22,0.163,-3.623,-9.213,0.182,-3.673,2.52,1.75,0.7
,-9.213,0.175,-3.616,-9.237,0.146,-3.656,2.52,1.68,0.7
,-9.249,0.179,-3.625,-9.208,0.227,-3.676,2.24,1.89,0.7
37213.0,-9.201,0.172,-3.69,-9.237,0.237,-3.606,2.24,1.75,0.77
,-9.172,0.163,-3.692,-9.215,0.146,-3.582,2.31,1.68,0.84
,-9.198,0.191,-3.644,-9.177,0.134,-3.577,2.45,1.75,0.77
,-9.268,0.153,-3.683,-9.203,0.086,-3.491,2.73,1.89,0.84
37288.0,-9.16,0.151,-3.616,-9.237,0.17,-3.659,2.87,2.17,0.98
,-9.275,0.232,-3.582,-9.222,0.168,-3.719,2.94,2.45,0.98
,-9.215,0.117,-3.47,-9.15,0.184,-3.652,2.52,2.52,0.98
,-9.273,0.081,-3.611,-9.122,0.225,-3.783,2.59,2.59,0.84
37363.0,-9.201,0.17,-3.853,-9.234,0.268,-3.788,2.66,2.45,0.98
,-9.119,0.191,-3.793,-9.208,0.273,-3.793,2.8,2.38,1.05
,-9.131,0.187,-3.833,-9.184,0.256,-3.692,2.73,2.17,1.05
,-9.155,0.184,-3.786,-9.227,0.215,-3.609,2.73,1.89,0.77
37438.0,-9.244,0.16,-3.606,-9.203,0.179,-3.601,1.61,1.47,0.63
,-9.234,0.17,-3.628,-9.191,0.182,-3.606,1.89,1.68,0.56
,-9.201,0.122,-3.601,-9.179,0.112,-3.654,2.03,1.82,0.63
,-9.194,0.165,-3.606,-9.162,0.124,-3.518,2.03,1.82,0.56
37513.0,-9.203,0.177,-3.678,-9.225,0.065,-3.714,2.52,2.31,0.7
,-9.237,0.206,-3.788,-9.237,0.141,-3.575,2.52,2.24,0.63
,-9.172,0.158,-3.606,-9.234,0.179,-3.489,2.31,2.45,0.7
,-9.143,0.165,-3.637,-9.237,0.215,-3.439,2.45,2.52,0.84
37588.0,-9.225,0.163,-3.434,-9.229,0.055,-3.343,3.01,3.43,0.84
,-9.206,0.168,-3.479,-9.225,0.101,-3.343,3.01,3.57,1.05
,-9.222,0.103,-3.393,-9.246,0.146,-3.496,2.94,4.2,1.19
,-9.213,0.077,-3.367,-9.174,0.203,-3.618,2.87,4.41,1.12
37663.0,-9.162,0.235,-3.668,-9.21,0.266,-4.087,1.89,5.67,1.26
,-9.182,0.251,-3.865,-9.093,0.258,-4.104,1.89,5.95,1.19
,-9.217,0.206,-3.915,-9.086,0.273,-4.022,1.89,5.74,1.19
,-9.198,0.239,-3.955,-9.057,0.345,-4.042,2.31,5.46,1.33
37738.0,-9.148,0.33,-4.025,-9.112,0.043,-4.006,3.71,3.78,0.7
,-9.134,0.376,-4.08,-9.134,0.112,-4.133,3.22,3.29,0.35
,-9.15,0.285,-4.089,-9.088,0.139,-4.02,2.52,2.8,0.28
,-9.131,0.177,-4.034,-9.064,0.16,-3.905,2.31,2.59,0.42
37813.0,-9.091,0.163,-3.68,-9.227,-0.055,-3.209,4.83,1.96,1.4
,-9.141,0.139,-3.673,-9.182,-0.16,-3.116,5.18,1.96,1.33
,-9.232,0.144,-3.534,-9.332,-0.261,-2.919,4.48,2.31,1.19
,-9.208,0.022,-3.417,-9.356,-0.002,-3.032,3.5,2.59,1.05
37888.0,-9.411,0.318,-3.005,-8.806,0.16,-3.625,-0.56,5.95,0.42
,-9.421,0.586,-3.661,-9.122,-0.182,-3.754,-4.55,5.74,-1.19
,-9.115,0.706,-3.606,-9.256,0.048,-3.912,-9.8,5.46,-2.17
,-8.758,0.596,-3.558,-9.124,0.148,-3.924,-13.79,5.74,-2.52
37963.0,-9.05,-0.086,-3.738,-9.002,0.701,-4.877,-6.58,8.68,0.21
,-9.129,-0.486,-3.41,-8.734,0.663,-5.109,-5.18,9.45,1.61
,-9.397,-0.457,-3.611,-8.679,0.129,-5.195,-1.4,9.52,2.45
,-9.39,0.168,-4.372,-8.856,-0.093,-5.018,2.17,8.54,2.1
38038.0,-9.093,0.105,-4.621,-8.966,0.163,-4.377,10.01,3.85,4.62
,-9.122,0.565,-4.465,-8.983,-0.404,-4.111,10.43,2.38,3.64
,-9.088,0.983,-4.432,-9.107,-0.608,-3.455,6.79,1.19,2.17
,-8.983,0.782,-4.561,-9.203,-0.323,-3.795,1.4,0.42,1.26
38113.0,-9.021,0.002,-3.57,-9.165,-0.266,-3.185,11.06,1.05,4.48
,-9.028,0.019,-3.513,-9.105,0.074,-3.271,11.55,1.4,5.46
,-9.069,-0.115,-3.539,-8.985,0.227,-3.149,10.5,2.24,6.09
,-9.038,-0.376,-3.333,-8.935,0.285,-3.331,10.5,3.08,6.72
38188.0,-9.024,0.206,-3.096,-9.005,1.728,-4.216,10.08,7.42,6.65
,-9.174,0.333,-3.154,-8.935,1.307,-4.255,11.62,8.19,7.21
,-9.083,0.751,-3.252,-8.868,0.431,-4.173,12.95,8.54,6.09
,-8.942,1.362,-3.743,-8.875,-0.225,-3.771,12.53,8.19,4.13
38263.0,-9.005,-0.184,-3.609,-8.861,-0.718,-3.711,-0.84,10.08,0.84
,-9.06,0.211,-3.518,-8.808,-0.615,-4.118,-0.28,10.22,0.0
,-9.04,0.302,-3.817,-8.734,-0.227,-3.967,-3.29,10.36,-0.28
,-8.926,-0.057,-3.872,-8.938,0.541,-4.324,-5.95,10.5,0.42
38338.0,-9.031,1.048,-4.331,-8.873,0.443,-4.037,14.21,10.5,4.41
,-9.11,1.079,-4.209,-8.961,0.388,-4.073,11.55,10.22,3.5
,-9.069,0.847,-4.219,-9.06,0.273,-3.69,8.19,11.06,3.5
,-8.875,0.704,-4.214,-9.416,0.596,-3.747,6.44,11.9,3.78
38413.0,-9.325,1.168,-3.927,-8.425,0.424,-5.066,-0.91,13.09,-2.24
,-9.074,1.089,-4.14,-8.43,0.505,-4.886,-4.97,12.88,-1.96
,-8.804,0.735,-4.745,-8.555,0.735,-4.302,-8.33,11.83,-1.33
,-8.586,0.452,-5.008,-8.868,0.402,-4.168,-7.56,11.06,-0.63
38488.0,-8.82,-0.244,-4.331,-8.89,-1.103,-3.898,0.49,13.16,-1.89
,-8.667,-1.206,-4.111,-9.007,-0.194,-4.178,-3.29,13.72,1.75
,-8.672,-1.936,-4.044,-9.005,0.713,-4.36,-1.96,14.98,5.25
,-8.813,-1.771,-3.879,-8.756,1.421,-4.771,4.13,16.24,6.51
38563.0,-8.492,1.251,-4.75,-8.918,0.333,-4.616,1.75,14.98,8.05
,-8.416,0.651,-4.635,-9.124,0.299,-4.774,-0.56,16.24,7.21
,-8.626,0.182,-4.549,-8.911,0.218,-4.738,1.33,16.66,5.95
,-8.825,0.117,-4.441,-8.646,0.093,-4.594,5.53,16.59,5.81
38638.0,-8.624,0.002,-4.429,-8.38,1.11,-5.286,10.08,18.55,6.02
,-8.653,0.311,-4.585,-8.172,1.125,-5.26,10.22,18.41,5.88
,-8.804,0.68,-4.764,-8.181,0.988,-5.276,9.1,17.08,6.09
,-8.622,0.861,-5.185,-8.658,0.931,-5.293,6.23,16.1,6.79
38713.0,-8.945,0.916,-5.477,-8.241,0.084,-4.819,3.36,13.3,1.33
,-8.815,1.007,-5.669,-8.521,0.077,-4.654,4.97,12.39,0.35
,-8.495,0.804,-5.458,-8.636,0.313,-4.87,5.67,12.88,-0.7
,-8.153,0.258,-5.123,-8.483,0.481,-4.934,6.02,13.72,-1.68
38788.0,-8.466,0.522,-5.123,-8.425,-1.01,-4.893,9.38,12.39,-2.24
,-8.399,0.077,-5.209,-8.445,-0.558,-4.963,6.86,11.9,-1.54
,-8.275,-0.232,-5.262,-8.277,-0.424,-5.229,6.58,12.18,-0.42
,-8.399,-0.778,-4.96,-8.186,-0.256,-5.41,7.77,13.58,0.7
38863.0,-7.999,-0.268,-5.221,-8.698,0.345,-4.96,9.52,12.04,7.35
,-7.846,0.031,-5.331,-8.48,0.919,-4.956,11.62,11.97,8.54
,-8.002,0.014,-5.355,-8.653,1.61,-5.051,10.78,12.6,10.57
,-8.145,-0.093,-4.992,-8.423,2.417,-5.267,10.71,13.02,11.9
38938.0,-8.122,2.458,-5.396,-8.126,0.467,-6.011,11.97,15.54,2.31
,-8.478,2.058,-5.532,-7.882,0.043,-6.188,7.49,15.68,1.54
,-8.887,1.689,-5.686,-7.937,-0.613,-6.19,4.62,13.65,0.42
,-8.626,1.18,-5.903,-8.191,-1.23,-6.339,2.73,11.9,0.07
39013.0,-8.208,-1.541,-6.324,-7.913,-1.091,-6.08,7.21,8.33,4.13
,-8.141,-1.706,-6.303,-8.112,-0.39,-6.011,7.7,6.65,6.44
,-8.074,-2.182,-6.09,-8.169,0.366,-5.949,9.24,4.27,8.19
,-8.021,-1.551,-6.49,-8.177,0.586,-6.202,14.49,2.03,9.73
39088.0,-8.217,0.799,-5.932,-8.789,1.632,-5.822,18.97,-1.33,12.95
,-8.351,1.208,-5.714,-8.629,1.333,-5.954,19.18,-1.89,12.39
,-8.198,1.452,-5.652,-8.416,0.601,-5.884,17.43,-1.68,11.69
,-8.619,1.74,-5.901,-8.122,0.146,-5.745,14.84,-1.68,9.87
