Timestamp,AccX,AccY,AccZ,GyroX,GyroY,GyroZ,MagnX,MagnY,MagnZ
0.0,-9.464,-0.06,-2.931,-9.497,-0.005,-2.867,2.87,1.26,0.84
,-9.438,-0.022,-2.929,-9.514,-0.014,-2.9,2.94,1.19,0.84
,-9.541,0.022,-2.888,-9.502,-0.041,-2.814,3.08,0.91,0.84
,-9.531,0.012,-2.852,-9.524,-0.069,-2.828,3.08,1.12,0.84
75.0,-9.495,-0.081,-2.855,-9.509,-0.06,-2.848,2.24,0.91,0.7
,-9.466,-0.074,-2.814,-9.469,-0.112,-2.862,2.24,0.84,0.56
,-9.524,-0.062,-2.816,-9.454,-0.055,-2.895,2.17,0.98,0.7
,-9.524,-0.062,-2.855,-9.478,-0.012,-2.924,2.03,1.05,0.77
151.0,-9.488,-0.014,-2.9,-9.49,-0.022,-2.831,3.08,0.77,1.19
,-9.49,-0.017,-2.855,-9.517,-0.024,-2.871,3.22,0.56,1.19
,-9.564,-0.06,-2.871,-9.512,-0.017,-2.831,3.15,0.42,1.12
,-9.471,0.01,-2.871,-9.521,-0.06,-2.821,3.22,0.49,1.12
227.0,-9.483,-0.132,-2.814,-9.517,-0.031,-2.697,2.87,0.35,1.12
,-9.507,-0.019,-2.723,-9.514,-0.081,-2.685,3.01,0.56,1.05
,-9.538,-0.081,-2.656,-9.524,-0.055,-2.766,2.73,0.63,0.91
,-9.502,-0.072,-2.651,-9.519,-0.069,-2.804,2.24,0.7,0.77
302.0,-9.509,-0.065,-2.79,-9.505,-0.041,-2.869,1.61,1.12,0.42
,-9.545,-0.074,-2.816,-9.435,-0.002,-2.9,1.75,1.26,0.49
,-9.502,0.0,-2.95,-9.538,0.01,-2.91,1.82,1.26,0.49
,-9.517,0.005,-2.881,-9.459,0.007,-2.855,1.68,1.05,0.56
378.0,-9.469,-0.041,-2.828,-9.552,-0.06,-2.881,2.59,0.91,0.7
,-9.509,-0.057,-2.776,-9.514,-0.057,-2.761,2.38,0.84,0.63
,-9.536,-0.096,-2.761,-9.517,-0.043,-2.819,2.31,0.98,0.63
,-9.521,-0.086,-2.793,-9.493,-0.053,-2.785,2.1,0.84,0.56
453.0,-9.507,-0.034,-2.773,-9.531,-0.079,-2.848,2.31,0.84,0.77
,-9.519,-0.012,-2.771,-9.5,-0.062,-2.869,2.38,0.84,0.77
,-9.569,-0.036,-2.752,-9.474,-0.096,-2.898,2.45,0.98,0.7
,-9.564,-0.012,-2.735,-9.512,0.007,-2.994,2.38,0.91,0.7
529.0,-9.495,0.031,-2.941,-9.531,-0.002,-2.783,2.87,0.42,0.56
,-9.502,0.077,-2.962,-9.474,-0.12,-2.68,2.66,0.14,0.49
,-9.509,0.048,-2.816,-9.488,-0.074,-2.778,2.8,0.21,0.42
,-9.538,-0.01,-2.778,-9.505,-0.048,-2.726,2.94,0.42,0.42
605.0,-9.519,-0.074,-2.704,-9.505,-0.036,-2.601,3.08,0.21,0.56
,-9.545,-0.089,-2.673,-9.567,-0.074,-2.615,3.01,0.49,0.56
,-9.55,-0.122,-2.606,-9.533,-0.057,-2.637,3.08,0.77,0.77
,-9.572,-0.026,-2.582,-9.605,-0.022,-2.699,3.08,0.98,0.84
681.0,-9.545,-0.036,-2.915,-9.497,0.012,-2.855,1.89,1.4,0.42
,-9.474,0.002,-2.785,-9.526,-0.036,-2.773,1.68,1.61,0.42
,-9.481,-0.045,-2.809,-9.507,-0.048,-2.804,1.61,1.4,0.35
,-9.509,0.017,-2.826,-9.541,-0.081,-2.848,1.96,1.4,0.35
756.0,-9.502,-0.022,-2.946,-9.507,0.007,-2.749,2.66,0.77,0.07
,-9.481,-0.091,-2.96,-9.538,0.01,-2.673,2.87,0.77,0.14
,-9.481,-0.045,-2.879,-9.584,-0.115,-2.52,3.43,0.84,0.35
,-9.481,-0.029,-2.864,-9.617,-0.115,-2.529,3.5,0.56,0.14
832.0,-9.557,-0.072,-2.441,-9.61,-0.077,-2.12,3.43,1.68,0.14
,-9.56,-0.048,-2.357,-9.629,-0.069,-2.087,3.78,2.17,0.14
,-9.505,0.0,-2.28,-9.629,-0.148,-2.149,3.85,2.59,0.07
,-9.538,-0.007,-2.283,-9.596,-0.141,-2.254,3.64,3.15,0.07
908.0,-9.521,-0.112,-2.383,-9.375,-0.045,-3.295,1.68,6.79,-0.35
,-9.505,-0.089,-2.627,-9.399,-0.062,-3.429,0.77,6.86,-0.35
,-9.466,-0.067,-2.857,-9.366,-0.053,-3.532,0.21,6.93,-0.42
,-9.397,-0.091,-3.061,-9.375,-0.041,-3.604,-0.21,7.14,-0.35
984.0,-9.421,-0.012,-3.601,-9.459,0.101,-3.283,1.75,3.92,-0.14
,-9.466,0.072,-3.518,-9.493,0.086,-3.147,2.59,3.01,-0.28
,-9.43,0.103,-3.472,-9.502,0.048,-3.032,3.15,1.96,-0.42
,-9.44,0.11,-3.441,-9.531,-0.022,-2.757,3.5,1.33,-0.42
1060.0,-9.529,-0.029,-2.647,-9.512,-0.407,-2.41,1.96,-0.21,-1.47
,-9.531,-0.108,-2.496,-9.541,-0.304,-2.458,1.33,-0.14,-1.68
,-9.488,-0.172,-2.496,-9.552,-0.278,-2.467,0.7,0.0,-1.75
,-9.5,-0.345,-2.453,-9.462,-0.333,-2.321,0.28,0.7,-1.4
1135.0,-9.569,-0.321,-2.276,-9.548,-0.215,-2.252,1.05,3.64,0.14
,-9.636,-0.302,-2.218,-9.541,-0.215,-2.29,1.12,4.34,0.49
,-9.584,-0.223,-2.319,-9.442,-0.309,-2.259,0.77,5.11,0.42
,-9.572,-0.242,-2.259,-9.488,-0.421,-2.185,-0.35,5.81,0.28
1211.0,-9.581,-0.45,-2.113,-9.383,-0.447,-2.965,-3.22,9.94,1.68
,-9.579,-0.275,-2.522,-9.342,-0.519,-3.12,-3.01,10.36,1.54
,-9.485,-0.208,-2.687,-9.306,-0.589,-3.068,-4.13,10.92,1.33
,-9.337,-0.302,-2.759,-9.275,-0.617,-3.072,-5.18,11.34,1.68
1286.0,-9.375,-0.392,-3.068,-9.402,0.117,-3.613,3.43,12.04,5.88
,-9.469,-0.053,-3.123,-9.366,-0.175,-3.544,4.48,11.97,5.74
,-9.497,0.177,-3.257,-9.387,-0.153,-3.518,4.48,11.76,5.53
,-9.426,0.285,-3.482,-9.311,0.029,-3.269,3.57,11.2,5.46
1362.0,-9.222,0.175,-2.879,-9.433,-0.325,-2.716,1.96,10.64,5.39
,-9.34,0.029,-2.57,-9.387,-0.23,-3.238,-1.33,11.2,5.18
,-9.495,-0.189,-2.493,-9.191,-0.179,-3.396,-4.9,11.83,4.69
,-9.485,-0.349,-2.522,-9.04,-0.16,-3.546,-6.3,12.39,4.69
1438.0,-8.949,0.158,-3.13,-9.318,1.335,-4.396,-1.82,12.04,4.13
,-9.258,0.531,-3.18,-8.969,0.684,-4.238,0.07,12.18,3.78
,-9.423,0.952,-2.592,-9.048,-0.512,-4.089,0.7,11.76,2.94
,-9.574,1.335,-3.845,-9.208,-1.433,-3.166,-2.87,10.22,0.42
1514.0,-9.33,-1.201,-3.163,-9.416,0.593,-2.773,-3.78,10.22,4.27
,-9.442,-0.38,-2.663,-9.356,0.014,-3.101,1.75,11.2,4.69
,-9.462,0.589,-2.718,-9.112,-0.203,-3.427,3.29,11.34,3.99
,-9.524,1.082,-3.238,-9.043,-0.256,-3.836,-0.63,11.34,2.52
1589.0,-9.098,-0.156,-4.034,-9.287,-0.598,-2.29,6.23,11.83,4.97
,-9.206,-0.395,-3.829,-9.502,-0.304,-2.249,8.68,12.67,6.44
,-9.184,-0.826,-3.022,-9.416,0.364,-2.797,12.32,14.28,8.26
,-9.191,-0.84,-3.089,-9.191,0.486,-2.706,16.66,15.89,9.45
1665.0,-9.227,0.371,-3.171,-8.72,0.562,-4.219,7.7,19.74,9.73
,-9.038,0.268,-3.276,-8.83,0.818,-3.821,5.81,20.58,9.87
,-8.966,0.079,-3.563,-9.112,0.907,-3.721,6.09,21.14,10.57
,-8.88,0.112,-3.769,-9.189,0.763,-3.623,8.47,21.77,11.2
1740.0,-9.356,0.57,-3.719,-8.777,-0.943,-4.011,12.11,22.68,9.03
,-9.115,0.433,-3.91,-8.875,-1.122,-3.618,10.71,22.61,9.45
,-8.777,0.091,-4.178,-8.926,-0.845,-3.85,9.52,22.61,10.08
,-8.729,-0.373,-4.063,-8.808,-0.065,-3.903,9.24,22.54,10.57
1816.0,-8.882,0.699,-4.288,-8.801,0.905,-4.233,18.97,24.15,13.65
,-8.863,1.194,-4.618,-8.961,0.66,-3.941,14.84,22.75,12.81
,-8.739,1.251,-4.527,-8.782,0.359,-3.936,9.1,21.98,11.62
,-8.756,1.089,-4.592,-8.586,0.258,-3.869,4.55,22.05,10.08
1892.0,-8.737,0.256,-3.991,-8.646,1.73,-4.915,7.49,26.18,11.69
,-8.82,0.352,-4.156,-8.677,1.541,-5.051,9.31,26.88,12.18
,-9.043,0.732,-4.073,-8.564,1.366,-5.202,11.97,25.97,11.27
,-8.866,1.445,-4.53,-8.291,1.194,-5.303,13.09,24.29,9.17
1968.0,-8.411,0.895,-5.126,-8.686,0.024,-5.066,2.94,23.8,3.29
,-8.634,0.412,-5.011,-8.516,0.328,-5.413,3.64,23.87,2.17
,-8.957,0.168,-4.834,-8.363,0.593,-5.705,4.9,23.73,1.89
,-8.909,0.141,-4.733,-8.138,0.493,-5.829,6.37,22.82,2.38
2044.0,-8.368,0.369,-5.559,-8.325,-0.838,-5.654,7.28,17.43,3.08
,-8.344,0.263,-5.724,-8.181,-1.235,-5.329,6.72,16.87,3.22
,-8.626,0.096,-5.779,-8.576,-1.096,-5.264,5.81,15.82,3.5
,-8.485,-0.321,-5.765,-8.368,-0.615,-5.319,5.6,14.63,4.06
2119.0,-8.471,0.211,-5.396,-8.172,1.168,-5.176,24.78,9.52,6.93
,-8.16,0.936,-5.456,-8.832,0.962,-5.212,24.78,8.12,6.51
,-8.181,1.24,-5.631,-8.492,0.876,-4.958,22.05,7.42,6.65
,-8.301,1.158,-5.434,-8.667,0.89,-5.011,18.97,7.98,6.51
2195.0,-8.476,0.885,-5.209,-8.167,0.921,-5.482,11.48,8.75,4.97
,-8.583,0.517,-5.262,-8.569,1.5,-5.585,9.8,8.96,5.39
,-8.402,0.735,-5.341,-8.567,1.565,-5.877,11.27,8.96,4.97
,-8.296,0.897,-5.379,-8.433,1.18,-5.748,13.51,9.59,4.06
2271.0,-8.217,0.366,-5.578,-8.564,0.378,-5.937,3.22,6.65,0.63
,-8.33,-0.254,-5.879,-8.598,1.127,-6.078,2.52,6.3,1.33
,-8.43,-0.756,-5.616,-8.141,1.127,-5.887,3.36,5.67,2.1
,-8.598,-0.29,-5.54,-8.004,1.158,-5.757,7.07,4.62,2.31
2347.0,-7.992,1.151,-5.774,-8.483,-0.735,-5.518,2.52,1.05,1.05
,-8.256,1.254,-5.98,-8.37,-0.945,-5.274,-0.28,1.61,2.17
,-8.263,-0.148,-5.48,-8.05,-0.747,-5.276,-3.64,2.24,3.29
,-8.229,-0.816,-5.319,-8.165,-0.062,-5.559,-2.1,2.8,4.41
2422.0,-8.658,0.613,-5.552,-8.291,1.117,-5.537,12.04,3.29,9.1
,-8.71,0.584,-5.53,-8.217,1.17,-5.681,10.08,3.15,8.19
,-8.808,0.68,-5.439,-8.215,1.187,-5.743,9.1,3.78,7.14
,-8.569,0.964,-5.47,-8.332,1.168,-5.863,8.61,4.27,6.51
2498.0,-8.461,0.988,-6.021,-8.425,0.888,-6.186,1.12,5.67,4.76
,-8.327,0.823,-5.841,-8.545,0.598,-6.21,0.07,6.02,4.76
,-8.076,1.003,-5.954,-8.402,0.34,-6.119,-0.28,5.67,4.13
,-8.076,1.156,-6.159,-8.165,0.297,-5.903,-1.33,5.88,3.5
2573.0,-8.047,0.194,-5.865,-8.557,0.981,-5.616,-4.13,6.02,3.64
,-8.076,0.165,-5.707,-8.555,1.144,-5.698,-3.43,6.23,3.92
,-8.236,0.4,-5.767,-8.521,1.263,-5.623,-1.75,5.53,4.06
,-8.447,0.842,-5.865,-8.325,1.333,-5.769,-1.26,4.62,3.92
2649.0,-8.169,1.149,-5.851,-8.215,0.517,-5.765,-7.07,3.92,-0.84
,-8.334,0.79,-5.843,-8.184,0.476,-5.91,-7.14,3.85,-1.05
,-8.373,0.311,-5.757,-8.354,0.258,-5.882,-6.23,3.78,-0.7
,-8.327,0.29,-5.559,-8.569,0.098,-5.76,-3.78,3.36,0.35
2725.0,-8.536,0.172,-5.772,-8.069,0.598,-5.805,-3.08,1.75,3.71
,-8.404,0.189,-5.686,-8.234,0.493,-5.626,-3.01,2.1,4.2
,-8.375,0.462,-5.599,-8.272,0.555,-5.753,-3.5,1.19,4.34
,-8.062,0.665,-5.698,-8.126,0.491,-5.755,-4.9,0.56,4.41
2801.0,-8.081,0.56,-5.8,-8.301,0.567,-5.791,-5.67,-2.17,5.39
,-8.27,0.804,-5.803,-8.327,0.548,-5.843,-4.69,-2.45,5.81
,-8.325,0.742,-5.724,-8.267,0.565,-5.93,-4.62,-3.01,6.37
,-8.234,0.737,-5.765,-8.397,0.538,-5.98,-4.27,-2.66,6.44
2876.0,-8.409,0.5,-5.848,-7.971,1.271,-5.609,3.43,-2.1,6.3
,-8.294,0.648,-5.805,-8.095,1.457,-5.547,5.67,-2.52,5.74
,-8.169,0.672,-5.678,-8.222,1.665,-5.686,6.79,-3.36,5.81
,-8.303,0.998,-5.683,-8.406,1.615,-5.494,6.86,-4.97,5.39
2952.0,-8.428,1.675,-5.389,-8.337,1.302,-5.518,2.94,-8.96,1.47
,-8.624,1.613,-5.415,-8.174,1.031,-5.537,2.38,-8.96,-0.14
,-8.588,1.555,-5.291,-8.256,0.605,-5.468,1.26,-9.45,-1.96
,-8.514,1.539,-5.477,-8.502,0.436,-5.441,-0.21,-10.08,-3.08
3028.0,-8.593,0.629,-5.583,-8.241,0.979,-5.489,3.15,-14.0,-2.38
,-8.466,0.876,-5.568,-8.169,0.936,-5.331,3.36,-14.84,-2.59
,-8.296,1.012,-5.511,-8.54,0.9,-5.296,2.17,-15.19,-2.38
,-8.153,0.926,-5.497,-8.72,0.907,-5.319,1.4,-15.47,-1.82
3104.0,-8.658,1.235,-5.355,-8.411,1.515,-4.941,0.35,-18.62,-4.34
,-8.679,0.96,-4.898,-8.265,1.512,-4.972,0.42,-18.62,-3.78
,-8.547,1.232,-4.939,-8.339,1.364,-4.853,2.1,-19.32,-3.99
,-8.569,1.508,-4.977,-8.485,1.364,-4.771,2.03,-19.46,-4.34
3180.0,-8.667,1.278,-4.726,-8.459,0.747,-4.738,-2.31,-20.44,-8.89
,-8.768,1.146,-4.587,-8.579,0.656,-4.666,-3.64,-20.44,-9.52
,-8.619,1.086,-4.731,-8.658,0.613,-4.575,-4.83,-20.3,-10.01
,-8.504,0.924,-4.697,-8.622,0.543,-4.48,-5.88,-19.95,-10.15
3255.0,-8.612,0.469,-4.491,-8.693,0.211,-4.29,-4.76,-20.51,-10.57
,-8.643,0.323,-4.587,-8.662,0.577,-4.271,-4.41,-20.58,-9.8
,-8.737,0.194,-4.427,-8.746,0.816,-4.243,-3.15,-20.58,-8.47
,-8.76,0.115,-4.391,-8.823,0.871,-4.032,-0.7,-20.23,-7.56
3331.0,-8.911,0.742,-3.728,-9.045,0.388,-3.544,1.82,-18.62,-6.44
,-9.038,0.586,-3.522,-9.091,0.122,-3.561,0.91,-18.13,-7.0
,-9.079,0.637,-3.697,-9.057,0.306,-3.62,-0.21,-17.85,-8.05
,-8.981,0.646,-3.726,-8.878,0.634,-3.362,-2.59,-17.85,-8.54
3406.0,-8.988,0.634,-3.542,-9.048,0.258,-3.951,-2.59,-14.56,-7.91
,-8.859,0.605,-3.556,-8.949,0.304,-3.532,-4.13,-14.42,-7.91
,-8.933,0.486,-3.781,-9.028,0.287,-3.609,-4.27,-14.35,-7.35
,-9.031,0.237,-3.747,-9.172,0.474,-3.786,-3.5,-14.07,-7.21
3482.0,-9.074,0.656,-3.661,-9.186,0.057,-3.142,-3.08,-12.81,-7.7
,-8.983,0.325,-3.726,-9.308,0.28,-3.199,-4.76,-12.39,-6.93
,-9.052,-0.057,-3.147,-9.253,0.45,-3.357,-3.22,-11.55,-6.23
,-9.208,-0.139,-3.441,-9.186,0.522,-3.204,0.28,-10.85,-6.23
3558.0,-9.182,0.335,-3.484,-9.203,0.656,-3.649,1.33,-9.17,-5.32
,-9.112,0.469,-3.391,-9.22,0.605,-3.35,1.19,-8.61,-5.95
,-9.052,0.603,-3.259,-9.318,0.493,-3.453,0.91,-8.19,-5.81
,-9.177,0.543,-3.25,-9.407,0.452,-3.537,-0.07,-7.77,-6.02
3634.0,-9.215,0.426,-3.309,-9.318,-0.041,-3.154,-1.33,-7.42,-7.21
,-9.208,0.385,-3.525,-9.225,-0.168,-3.149,-1.61,-7.21,-7.21
,-9.067,0.258,-3.161,-9.158,-0.282,-2.874,-2.52,-6.86,-7.07
,-9.17,0.17,-3.159,-9.263,-0.335,-2.907,-3.01,-6.37,-6.72
3709.0,-9.375,-0.187,-2.938,-9.301,0.239,-3.465,1.12,-3.29,-4.06
,-9.421,0.213,-3.166,-9.361,0.447,-3.932,1.82,-2.94,-3.71
,-9.282,0.383,-3.262,-9.088,0.577,-3.948,1.33,-2.52,-3.57
,-9.162,0.237,-3.25,-8.993,0.433,-3.63,1.12,-2.31,-3.22
3785.0,-9.079,0.203,-3.568,-9.356,-0.112,-3.314,4.48,-3.64,-2.59
,-9.186,-0.029,-3.283,-9.318,-0.292,-3.108,4.62,-3.71,-2.52
,-9.244,0.005,-3.233,-9.323,-0.366,-3.218,4.27,-3.85,-2.52
,-9.464,0.012,-3.252,-9.351,-0.213,-3.192,2.66,-3.99,-3.01
3860.0,-9.311,-0.019,-3.245,-9.335,0.17,-3.259,3.85,-2.73,-1.47
,-9.318,0.057,-3.376,-9.395,0.282,-3.178,4.06,-2.73,-1.33
,-9.215,0.019,-3.319,-9.368,0.235,-3.175,4.55,-2.38,-0.77
,-9.275,0.101,-3.278,-9.378,0.235,-3.154,5.6,-2.24,-0.35
3936.0,-9.373,0.194,-3.247,-9.44,-0.041,-3.558,4.62,-1.54,-0.35
,-9.354,0.175,-3.34,-9.34,-0.014,-3.498,4.2,-1.47,-0.42
,-9.323,0.201,-3.336,-9.244,0.316,-3.374,4.34,-1.4,-0.28
,-9.265,0.223,-3.405,-9.237,0.349,-3.317,4.62,-1.54,-0.21
4012.0,-9.229,0.065,-3.139,-9.6,0.098,-2.587,1.47,-1.96,-1.61
,-9.332,-0.215,-2.871,-9.519,0.156,-2.582,1.26,-1.19,-0.91
,-9.373,-0.22,-2.718,-9.442,0.246,-2.819,1.96,-0.49,-0.35
,-9.574,-0.036,-2.608,-9.328,0.311,-3.056,2.03,0.07,-0.07
4088.0,-9.287,0.194,-3.168,-9.325,0.249,-3.546,1.33,2.24,0.35
,-9.299,-0.029,-3.211,-9.347,0.361,-3.664,2.73,2.45,0.98
,-9.414,-0.069,-3.367,-9.21,0.354,-3.644,4.97,2.38,1.33
,-9.414,-0.031,-3.51,-9.275,0.294,-3.616,6.58,2.24,1.47
4164.0,-9.299,0.146,-3.491,-9.289,0.376,-3.235,1.75,0.49,0.14
,-9.442,0.194,-3.448,-9.253,0.27,-3.166,2.31,0.07,-0.07
,-9.5,0.342,-3.439,-9.268,0.079,-3.223,2.66,-0.49,-0.49
,-9.39,0.359,-3.338,-9.478,0.005,-3.338,2.1,-0.63,-1.12
4239.0,-9.519,-0.134,-3.439,-9.162,-0.163,-2.666,0.42,-0.98,-1.75
,-9.428,-0.103,-3.36,-9.45,-0.268,-2.539,0.28,-1.05,-2.52
,-9.22,0.311,-3.128,-9.6,-0.091,-2.608,-0.91,-0.98,-3.01
,-9.172,0.179,-2.912,-9.529,0.191,-2.864,-3.78,-0.7,-3.29
4315.0,-9.399,0.132,-2.85,-9.428,0.34,-3.376,0.35,2.52,-0.63
,-9.435,0.053,-2.857,-9.368,0.218,-3.46,1.26,3.15,-0.28
,-9.411,0.112,-3.084,-9.351,-0.019,-3.427,3.15,3.43,0.21
,-9.418,0.249,-3.257,-9.332,-0.012,-3.52,4.97,3.78,0.42
4391.0,-9.323,-0.005,-3.551,-9.502,0.086,-3.508,8.26,2.94,1.4
,-9.301,0.093,-3.479,-9.423,0.385,-3.501,9.24,3.01,1.82
,-9.318,0.144,-3.41,-9.311,0.625,-3.51,9.52,2.8,1.89
,-9.332,0.203,-3.384,-9.234,0.345,-3.491,9.59,2.45,1.89
4467.0,-9.273,-0.129,-3.47,-9.392,0.136,-3.273,2.38,0.35,-0.7
,-9.28,-0.199,-3.376,-9.397,0.134,-3.273,3.99,0.35,-0.35
,-9.332,-0.194,-3.288,-9.277,0.069,-3.233,5.95,0.28,0.07
,-9.397,0.024,-3.266,-9.304,-0.005,-3.305,6.79,0.14,0.0
4542.0,-9.287,-0.122,-3.329,-9.421,0.144,-3.204,5.74,-0.28,0.56
,-9.289,-0.227,-3.288,-9.407,0.273,-3.151,7.28,-0.14,1.26
,-9.38,-0.175,-3.269,-9.363,0.127,-3.195,9.17,-0.28,1.61
,-9.385,-0.014,-3.173,-9.363,-0.017,-3.168,10.64,-0.14,1.82
4618.0,-9.397,-0.065,-3.214,-9.304,0.144,-3.247,5.39,-0.63,0.7
,-9.38,0.062,-3.226,-9.32,0.034,-3.223,5.81,-0.56,0.63
,-9.411,0.16,-3.329,-9.454,-0.057,-3.221,5.67,-0.7,0.56
,-9.299,0.22,-3.326,-9.411,0.024,-3.195,4.76,-0.56,0.21
4693.0,-9.402,0.077,-3.104,-9.421,-0.165,-2.706,0.28,-0.49,-0.98
,-9.363,0.014,-2.996,-9.409,-0.134,-2.702,-0.49,-0.28,-0.7
,-9.351,-0.081,-2.96,-9.447,-0.235,-2.675,-0.28,-0.14,-0.56
,-9.361,-0.196,-2.857,-9.483,-0.232,-2.484,1.05,0.21,-0.21
4769.0,-9.541,-0.184,-2.35,-9.172,-0.625,-2.278,2.45,3.43,1.19
,-9.478,-0.105,-2.206,-9.313,-0.718,-2.259,0.98,4.55,0.98
,-9.433,-0.144,-2.441,-9.512,-0.491,-2.804,-1.4,5.39,0.56
,-9.28,-0.45,-2.367,-9.361,-0.117,-2.905,-3.22,6.44,0.98
4845.0,-9.191,-0.146,-2.587,-9.428,0.354,-2.462,2.52,11.97,5.32
,-9.22,-0.421,-2.522,-9.263,0.55,-2.74,1.4,13.51,6.3
,-9.359,-0.395,-2.084,-9.174,0.132,-2.745,1.4,14.77,6.65
,-9.588,-0.105,-2.613,-9.081,-0.639,-2.331,0.84,15.4,5.74
4921.0,-9.189,-0.897,-2.498,-9.196,0.218,-2.761,-10.43,20.58,7.21
,-9.253,-0.754,-2.69,-9.256,0.081,-2.623,-5.6,21.56,7.56
,-9.227,-0.323,-2.711,-9.127,0.321,-2.922,-0.35,22.19,8.47
,-9.241,0.115,-2.864,-8.909,0.916,-3.649,2.59,23.31,9.31
4996.0,-8.873,1.094,-3.79,-8.882,0.16,-3.766,4.06,25.27,7.07
,-8.914,1.017,-3.991,-8.696,0.28,-3.805,2.52,25.55,7.07
,-8.961,0.663,-3.295,-8.839,0.402,-3.821,2.31,26.6,8.05
,-9.079,0.153,-3.704,-9.141,0.644,-3.58,3.5,27.37,8.05
5072.0,-9.366,0.778,-3.824,-8.435,0.613,-5.351,9.03,28.35,4.55
,-9.433,1.103,-4.252,-8.399,-0.407,-4.592,7.98,26.81,2.31
,-9.237,1.725,-5.078,-8.607,-1.091,-4.202,3.29,24.29,0.7
,-8.825,1.462,-5.504,-8.679,-1.015,-4.661,-4.83,22.61,0.0
5148.0,-8.875,-0.744,-5.071,-8.593,0.38,-5.461,-3.92,20.93,2.73
,-8.952,-0.613,-4.958,-8.674,1.216,-5.865,-3.57,20.3,5.18
,-8.957,-0.744,-4.212,-8.715,1.196,-5.678,-1.89,20.3,7.28
,-8.751,-0.419,-4.606,-8.634,0.771,-5.128,2.1,20.02,7.77
5224.0,-8.634,0.189,-4.597,-9.088,-0.235,-4.408,12.95,17.92,9.8
,-8.734,-0.069,-4.7,-8.701,0.089,-4.238,14.21,16.94,9.59
,-8.801,-0.263,-4.702,-8.423,0.598,-4.085,14.84,16.17,9.66
,-9.062,-0.345,-4.688,-8.559,1.352,-4.764,14.56,16.38,9.94
5300.0,-8.787,1.754,-5.092,-8.519,0.613,-4.724,6.02,15.05,8.26
,-9.083,1.788,-5.037,-8.626,0.598,-4.86,2.17,13.72,7.35
,-8.952,1.644,-5.142,-8.835,0.574,-4.838,-1.54,13.3,6.09
,-8.617,1.041,-4.917,-8.856,0.426,-4.803,-2.66,14.28,5.46
5375.0,-8.655,-0.098,-4.767,-8.497,0.565,-5.205,4.41,13.58,4.76
,-8.461,-0.282,-4.812,-8.693,0.924,-5.291,3.78,13.79,5.39
,-8.253,-0.187,-4.958,-8.78,0.933,-5.207,5.11,13.79,5.39
,-8.236,0.089,-5.023,-8.579,0.675,-5.214,6.79,14.07,5.39
5451.0,-8.361,0.101,-5.073,-8.488,0.287,-5.214,1.12,12.46,5.6
,-8.435,-0.359,-4.853,-8.416,0.263,-5.37,3.36,12.46,6.79
,-8.612,-0.263,-4.944,-8.411,0.593,-5.41,7.14,11.55,7.63
,-8.574,0.065,-4.989,-8.356,0.972,-5.559,9.31,10.43,8.19
5526.0,-8.323,1.182,-5.542,-8.583,1.323,-4.75,7.42,6.09,6.72
,-8.205,1.094,-5.413,-8.555,1.429,-4.98,6.3,6.02,5.53
,-8.485,0.945,-5.116,-8.516,1.594,-4.999,6.37,5.95,4.13
,-8.763,1.067,-4.994,-8.483,1.295,-5.03,8.12,4.06,2.17
5602.0,-8.464,0.519,-5.063,-7.813,-0.065,-5.317,11.69,3.99,-5.04
,-8.583,-0.019,-5.133,-8.358,0.371,-5.305,11.9,4.13,-4.13
,-8.502,-0.266,-5.365,-8.703,0.553,-5.31,14.35,2.94,-3.08
,-8.114,-0.215,-5.252,-8.703,0.711,-5.322,17.64,2.87,-2.03
5678.0,-8.555,0.699,-5.238,-8.387,0.519,-5.513,10.15,2.52,0.42
,-8.739,0.55,-5.281,-8.378,0.345,-5.485,7.63,3.57,0.07
,-8.844,0.376,-5.303,-8.143,0.16,-5.36,6.3,4.13,-0.42
,-8.641,0.376,-5.382,-7.947,-0.33,-5.059,7.42,3.92,-1.19
5754.0,-8.346,-0.349,-5.317,-8.567,0.838,-5.607,11.2,4.9,1.68
,-8.859,-0.282,-5.231,-8.198,0.294,-5.607,14.42,4.55,1.75
,-8.978,0.244,-5.25,-8.311,-0.235,-5.532,15.61,4.06,2.1
,-8.973,0.483,-5.425,-8.428,-0.584,-5.64,14.98,2.17,0.98
5829.0,-8.411,-0.567,-5.523,-8.603,0.177,-5.441,13.02,1.89,5.74
,-8.428,-0.548,-5.413,-8.356,0.677,-5.552,15.4,2.03,6.44
,-8.346,0.022,-5.657,-8.258,0.983,-5.848,15.96,1.54,7.07
,-8.346,-0.22,-5.714,-8.471,0.66,-5.638,14.84,0.56,8.12
5905.0,-8.469,0.567,-5.695,-8.289,-0.117,-5.296,7.21,-2.73,8.68
,-8.469,0.352,-5.698,-8.232,0.206,-5.231,7.14,-2.59,8.26
,-8.492,-0.084,-5.473,-8.318,0.476,-5.195,6.44,-2.1,8.61
,-8.437,-0.122,-5.336,-8.679,0.704,-5.229,7.63,-2.31,9.38
5981.0,-8.679,0.871,-5.195,-8.492,0.713,-5.001,7.63,-2.52,8.89
,-8.591,0.708,-5.195,-8.186,0.816,-4.85,6.93,-1.89,8.47
,-8.636,0.713,-5.262,-8.114,1.189,-4.867,6.37,-1.61,8.05
,-8.806,0.73,-5.25,-8.315,1.555,-5.059,6.16,-1.4,7.63
6057.0,-8.607,1.56,-5.095,-8.442,0.637,-5.207,1.89,2.38,4.55
,-8.646,1.302,-4.98,-8.571,0.27,-5.322,-1.19,2.73,3.57
,-8.524,1.029,-5.106,-8.725,-0.017,-5.202,-3.71,3.15,2.52
,-8.378,0.864,-5.164,-8.722,0.002,-5.171,-4.55,4.27,2.03
6132.0,-8.619,0.227,-5.231,-8.569,1.232,-5.025,-3.29,6.23,2.66
,-8.653,0.828,-5.085,-8.693,1.043,-4.984,-2.45,5.67,2.38
,-8.413,1.338,-5.207,-8.691,0.869,-5.025,-3.5,5.25,1.82
,-8.351,1.498,-5.166,-8.567,0.924,-5.236,-6.51,5.88,0.63
6208.0,-8.495,0.763,-5.279,-8.349,-0.156,-5.511,-10.64,7.35,-2.17
,-8.397,0.38,-5.42,-8.342,-0.23,-5.559,-11.06,7.63,-1.47
,-8.418,-0.036,-5.465,-8.366,-0.139,-5.738,-10.43,7.42,0.14
,-8.435,-0.254,-5.482,-8.531,-0.019,-5.788,-8.54,7.07,1.75
6284.0,-8.504,0.05,-5.841,-8.349,0.778,-5.709,-5.11,5.95,7.0
,-8.471,0.031,-5.908,-8.177,1.015,-5.559,-4.9,6.02,7.56
,-8.629,0.122,-5.808,-8.232,1.194,-5.458,-4.62,5.95,8.19
,-8.662,0.357,-5.681,-8.461,1.29,-5.281,-4.62,3.92,7.98
6360.0,-8.504,1.486,-5.468,-8.246,1.158,-5.511,-6.23,1.61,6.44
,-8.378,1.395,-5.599,-8.318,0.924,-5.506,-7.84,1.19,6.02
,-8.342,1.218,-5.516,-8.428,0.751,-5.492,-7.63,1.47,5.25
,-8.392,1.189,-5.544,-8.394,0.699,-5.535,-6.23,0.28,3.64
6436.0,-8.289,0.634,-5.607,-8.433,0.771,-5.719,0.35,-1.68,0.21
,-8.354,0.57,-5.599,-8.612,0.596,-5.525,1.54,-2.45,0.56
,-8.289,0.605,-5.585,-8.466,0.782,-5.635,2.24,-2.52,0.63
,-8.39,0.797,-5.628,-8.382,0.792,-5.587,4.48,-2.66,0.35
6511.0,-8.253,0.838,-5.43,-8.437,1.187,-5.322,0.35,-6.72,0.28
,-8.234,0.838,-5.372,-8.469,1.149,-5.257,0.35,-7.77,0.35
,-8.229,0.893,-5.307,-8.519,1.034,-5.176,0.35,-8.05,0.35
,-8.315,0.981,-5.243,-8.586,0.902,-5.205,1.12,-8.4,0.35
6587.0,-8.495,1.027,-5.305,-8.765,1.225,-4.968,0.63,-10.22,-1.54
,-8.351,1.117,-5.195,-8.658,1.266,-5.145,1.12,-10.22,-2.1
,-8.349,1.271,-5.111,-8.504,1.127,-5.078,2.03,-10.08,-2.87
,-8.55,1.208,-5.054,-8.555,0.574,-4.977,2.03,-10.01,-3.64
6662.0,-8.497,1.034,-5.31,-8.734,0.969,-4.673,0.14,-12.95,-5.25
,-8.131,1.228,-5.013,-8.703,1.046,-4.666,-1.12,-13.72,-5.81
,-8.129,1.261,-5.03,-8.782,1.005,-4.683,-1.61,-13.86,-6.58
,-8.437,1.062,-4.87,-8.835,1.017,-4.8,-1.61,-13.58,-7.0
6738.0,-8.653,0.995,-4.815,-8.583,0.974,-4.724,-0.91,-12.32,-9.17
,-8.538,0.962,-4.939,-8.612,1.005,-4.702,0.07,-11.76,-8.89
,-8.557,0.857,-4.815,-8.78,0.861,-4.769,0.49,-11.83,-8.75
,-8.619,0.866,-4.759,-8.863,0.651,-4.69,0.0,-12.67,-9.8
6814.0,-8.82,0.428,-4.647,-8.756,0.395,-4.575,-6.09,-13.44,-10.99
,-8.631,0.347,-4.611,-8.82,0.328,-4.549,-5.11,-13.09,-10.5
,-8.586,0.354,-4.537,-8.851,0.184,-4.511,-3.5,-12.81,-9.87
,-8.77,0.38,-4.353,-8.737,0.488,-4.525,-2.24,-12.88,-9.38
6890.0,-8.536,0.584,-4.281,-9.1,0.512,-4.032,-0.07,-13.72,-8.4
,-8.734,0.538,-4.262,-8.959,0.404,-4.07,-0.49,-13.65,-8.19
,-8.938,0.467,-4.011,-8.878,0.235,-4.051,-0.98,-13.37,-8.26
,-9.086,0.531,-4.078,-8.789,0.313,-4.063,-1.47,-13.16,-8.89
6965.0,-8.689,0.507,-4.073,-8.918,0.316,-4.135,-0.07,-11.83,-8.05
,-8.796,0.517,-4.178,-8.938,0.388,-3.915,-0.35,-11.48,-7.91
,-8.863,0.22,-4.022,-9.031,0.51,-4.18,-0.7,-11.2,-7.84
,-8.961,0.201,-4.168,-9.033,0.617,-4.164,0.28,-10.99,-7.77
7041.0,-9.05,0.608,-4.121,-8.959,0.467,-4.614,1.68,-9.8,-7.07
,-9.028,0.447,-4.207,-9.033,0.357,-4.369,1.47,-9.66,-6.93
,-9.043,0.407,-4.281,-8.928,0.235,-4.678,2.45,-10.43,-7.0
,-9.005,0.342,-4.427,-8.878,0.191,-4.489,3.78,-11.06,-6.65
7116.0,-8.88,0.072,-4.037,-9.282,0.428,-3.601,5.95,-13.44,-5.95
,-9.007,-0.105,-3.987,-9.189,0.459,-3.489,6.16,-13.65,-5.32
,-9.021,-0.065,-3.628,-9.033,0.194,-3.429,7.21,-13.72,-5.25
,-9.179,0.165,-3.575,-8.99,-0.093,-3.228,8.19,-13.72,-5.25
7192.0,-9.074,-0.165,-3.154,-9.064,0.062,-3.118,5.81,-11.83,-5.11
,-9.21,-0.132,-3.226,-9.174,-0.144,-2.886,7.07,-11.69,-5.11
,-9.153,-0.029,-3.23,-9.203,-0.182,-2.781,7.42,-11.2,-5.25
,-9.064,0.12,-3.223,-9.256,-0.23,-2.955,6.65,-10.85,-5.11
7268.0,-9.289,-0.144,-3.132,-9.273,-0.34,-3.86,0.63,-6.65,-4.27
,-9.287,0.156,-3.623,-9.342,0.11,-3.783,0.56,-6.58,-4.69
,-9.098,0.227,-3.831,-9.43,0.622,-3.795,-0.35,-6.51,-5.04
,-8.949,0.053,-3.838,-9.194,0.768,-3.9,-0.7,-6.37,-4.41
7344.0,-8.906,0.526,-3.623,-9.318,-0.593,-3.039,-12.04,-8.96,-10.85
,-8.823,0.069,-3.321,-9.112,-0.558,-2.874,-15.4,-8.61,-11.2
,-8.971,-0.431,-3.171,-9.306,-0.814,-2.647,-14.84,-7.91,-10.5
,-9.347,-0.751,-3.08,-9.641,-0.67,-2.989,-11.83,-6.79,-9.45
7420.0,-9.538,-0.318,-2.927,-9.366,-0.026,-2.979,1.75,-3.92,-3.78
,-9.44,-0.151,-2.955,-9.342,0.23,-3.101,3.85,-3.29,-2.66
,-9.316,-0.275,-2.886,-9.284,0.168,-3.144,5.11,-2.31,-1.4
,-9.337,-0.392,-2.931,-9.237,-0.081,-2.991,7.91,-1.33,-0.35
7495.0,-9.311,-0.23,-2.989,-9.335,0.062,-3.429,11.69,1.4,1.89
,-9.447,-0.249,-3.087,-9.229,0.132,-3.721,12.32,2.03,1.89
,-9.411,0.026,-3.343,-9.117,0.048,-3.606,12.32,2.17,1.33
,-9.27,0.127,-3.384,-9.119,-0.16,-3.465,10.78,2.24,0.91
7571.0,-9.275,-0.258,-3.391,-9.33,-0.285,-3.149,7.91,1.96,0.63
,-9.258,-0.151,-3.343,-9.34,-0.218,-3.173,8.96,2.1,0.91
,-9.28,-0.077,-3.171,-9.445,-0.175,-3.393,8.26,2.1,1.12
,-9.411,-0.244,-3.144,-9.311,-0.084,-3.553,6.72,2.31,0.98
7647.0,-9.349,-0.024,-3.676,-9.32,-0.223,-3.295,4.9,2.87,0.77
,-9.251,0.074,-3.656,-9.395,-0.27,-3.161,4.34,2.45,0.56
,-9.208,0.156,-3.582,-9.418,-0.282,-3.319,3.85,2.38,0.56
,-9.246,0.048,-3.458,-9.363,-0.194,-3.355,3.01,2.24,0.49
7723.0,-9.313,-0.045,-3.568,-9.316,0.043,-3.958,5.25,2.66,1.19
,-9.258,-0.105,-3.635,-9.311,0.105,-3.979,5.18,2.59,1.33
,-9.301,-0.136,-3.711,-9.268,0.112,-3.944,6.09,2.59,1.61
,-9.296,-0.086,-3.795,-9.095,0.146,-3.972,7.14,2.31,1.82
7798.0,-9.088,0.098,-3.869,-9.325,-0.213,-3.484,8.19,-0.49,1.33
,-9.256,-0.057,-3.879,-9.373,-0.16,-3.369,7.77,-1.19,0.91
,-9.287,0.007,-3.747,-9.366,-0.045,-3.518,6.37,-1.96,0.14
,-9.237,-0.098,-3.551,-9.344,-0.12,-3.498,4.9,-2.03,0.0
7874.0,-9.158,-0.17,-3.34,-9.378,-0.12,-3.072,2.17,-2.38,-0.42
,-9.225,-0.352,-3.137,-9.32,-0.337,-3.022,2.03,-2.17,-0.21
,-9.421,-0.215,-3.123,-9.292,-0.407,-3.101,3.08,-1.82,0.07
,-9.407,-0.108,-3.111,-9.237,-0.208,-3.128,3.29,-1.61,0.14
7949.0,-9.311,-0.168,-3.123,-9.306,0.129,-3.434,3.64,0.0,0.63
,-9.368,-0.225,-3.092,-9.275,0.029,-3.508,3.01,0.28,0.49
,-9.32,-0.134,-3.199,-9.253,-0.199,-3.427,2.73,0.28,0.49
,-9.397,-0.007,-3.372,-9.268,-0.189,-3.396,2.52,0.35,0.14
8025.0,-9.347,-0.196,-3.34,-9.21,0.098,-3.726,2.52,0.63,0.42
,-9.404,-0.141,-3.283,-9.244,-0.081,-3.709,3.01,0.63,0.7
,-9.392,-0.132,-3.494,-9.241,-0.108,-3.58,3.08,0.56,0.49
,-9.337,0.029,-3.649,-9.263,0.072,-3.367,3.29,0.14,0.21
8101.0,-9.366,-0.101,-3.123,-9.277,-0.292,-2.819,1.54,-0.42,-0.07
,-9.459,-0.081,-2.967,-9.418,-0.304,-2.876,0.77,-0.56,-0.49
,-9.433,0.01,-3.013,-9.373,-0.33,-2.91,-0.56,-0.49,-1.05
,-9.306,-0.098,-2.965,-9.378,-0.404,-2.84,-2.45,0.0,-1.05
8177.0,-9.316,-0.266,-2.965,-9.253,-0.62,-2.273,-2.17,2.8,0.0
,-9.304,-0.364,-2.962,-9.402,-0.627,-1.79,-1.96,3.29,0.42
,-9.22,-0.479,-2.852,-9.66,-0.105,-2.316,-1.47,4.2,1.26
,-9.261,-0.536,-2.668,-9.639,0.139,-2.812,-0.56,5.18,2.1
8252.0,-9.301,0.191,-3.329,-9.119,-0.421,-3.685,-7.84,10.36,2.31
,-9.045,-0.139,-3.754,-9.265,-0.273,-3.417,-10.08,10.43,2.66
,-8.942,-0.495,-3.817,-9.301,0.242,-3.618,-8.19,10.71,3.57
,-9.057,-0.644,-3.695,-9.22,0.196,-3.293,-4.13,10.85,4.48
8328.0,-9.244,0.038,-3.039,-9.34,0.325,-3.563,-8.89,10.22,3.71
,-9.201,-0.165,-2.742,-9.112,0.203,-3.92,-10.92,11.13,3.57
,-9.203,-0.239,-2.383,-8.823,-0.354,-3.81,-10.85,12.11,3.92
,-9.478,0.12,-3.25,-8.701,-1.22,-3.178,-9.8,12.25,3.36
8404.0,-9.083,-1.417,-2.721,-9.186,0.828,-4.063,-2.03,15.82,10.01
,-9.363,-0.964,-2.486,-8.856,0.481,-4.274,3.57,17.08,11.06
,-9.567,-0.136,-2.953,-8.763,-0.022,-4.195,6.58,17.29,11.13
,-9.586,0.694,-4.075,-8.847,-0.302,-4.171,5.11,15.96,9.45
8480.0,-9.057,-0.132,-4.034,-9.038,-0.199,-3.738,5.88,15.4,10.36
,-9.038,0.416,-4.372,-9.294,-0.352,-3.735,9.31,14.35,9.73
,-8.799,0.586,-4.274,-9.397,0.325,-3.721,9.66,13.51,9.1
,-8.892,0.175,-4.298,-9.38,1.103,-3.836,9.66,13.09,10.01
8556.0,-9.38,2.101,-3.879,-8.813,0.979,-4.372,21.77,13.51,8.19
,-9.217,2.422,-4.362,-8.969,0.534,-4.29,12.67,12.67,5.53
,-8.792,2.139,-3.946,-9.201,0.302,-4.226,3.15,11.97,3.08
,-8.739,1.405,-4.056,-9.244,0.215,-4.034,-3.64,11.48,1.12
8631.0,-9.064,0.026,-3.582,-8.973,0.081,-4.798,-4.76,13.37,-2.03
,-8.971,-0.201,-3.666,-8.849,0.127,-4.829,-3.29,13.79,-1.4
,-8.973,-0.254,-4.054,-8.756,-0.084,-4.166,-1.54,12.46,-1.33
,-9.036,-0.168,-4.551,-8.815,-0.189,-3.955,1.68,11.13,-0.84
8707.0,-8.973,-0.153,-4.334,-8.655,-0.385,-4.31,4.34,11.13,1.05
,-9.0,-0.01,-4.403,-8.593,-0.196,-4.221,2.31,10.01,1.26
,-8.882,0.045,-4.642,-8.758,-0.096,-4.113,-0.49,9.59,2.45
,-8.775,-0.179,-4.642,-9.062,-0.196,-4.293,-1.68,10.64,3.64
8782.0,-9.016,-0.318,-4.185,-9.191,0.462,-3.551,10.22,11.62,6.79
,-8.543,-0.4,-3.874,-9.354,1.216,-3.776,10.85,13.65,8.4
,-8.351,-0.213,-3.733,-9.375,1.709,-3.924,13.86,15.68,9.03
,-8.629,-0.053,-3.412,-8.954,2.029,-4.398,17.15,16.73,8.68
8858.0,-8.294,1.577,-4.484,-8.887,-0.627,-4.338,-3.64,15.26,2.52
,-8.279,0.782,-4.47,-8.861,-0.885,-4.238,-5.74,16.24,2.73
,-8.504,0.091,-4.537,-8.684,-1.17,-4.243,-3.29,16.31,2.59
,-8.734,-0.256,-4.508,-8.732,-1.058,-4.384,2.1,16.59,3.01
8934.0,-8.713,-0.538,-4.561,-8.361,0.802,-5.083,16.66,17.64,9.8
,-8.811,0.139,-4.602,-8.449,0.692,-5.004,17.64,17.5,9.94
,-8.782,0.622,-4.745,-8.528,0.412,-4.999,15.12,15.96,9.52
,-8.607,0.821,-5.063,-8.681,0.182,-4.812,9.59,14.49,8.96
9010.0,-8.818,0.057,-4.834,-8.282,0.294,-5.377,2.66,15.89,9.31
,-9.031,0.175,-5.03,-8.385,0.103,-5.229,6.65,14.63,8.82
,-8.823,0.208,-5.238,-8.442,0.354,-5.315,9.45,13.37,8.75
,-8.667,0.304,-5.298,-8.524,0.596,-5.444,10.71,11.9,9.1
9085.0,-8.636,0.749,-5.681,-8.524,0.907,-5.523,16.24,8.82,4.13
,-8.653,1.067,-5.779,-8.066,0.905,-5.36,16.17,7.49,2.24
,-8.536,1.106,-5.757,-8.186,0.873,-5.016,14.98,6.37,0.77
,-8.725,0.885,-5.614,-8.318,0.914,-4.941,13.65,5.04,0.07
9161.0,-8.99,0.744,-5.114,-8.351,-0.447,-5.073,14.35,4.27,-0.42
,-9.033,0.438,-4.972,-8.303,0.014,-5.343,12.74,4.55,-0.14
,-8.885,0.072,-5.123,-8.102,0.124,-5.217,11.2,5.18,0.91
,-8.78,-0.632,-4.972,-8.399,0.567,-5.217,10.01,5.67,2.1
9236.0,-8.509,0.725,-5.358,-8.55,0.785,-4.999,12.95,4.13,3.43
,-8.789,0.79,-5.351,-8.583,1.316,-5.64,11.06,4.41,3.01
,-8.897,0.701,-4.917,-8.306,1.125,-5.712,9.03,4.69,2.87
,-8.705,0.491,-4.97,-7.983,0.436,-5.851,8.47,4.34,1.89
9312.0,-8.011,-0.577,-5.604,-8.758,-1.055,-5.353,3.92,1.12,1.82
,-8.208,-1.031,-5.537,-8.648,-0.586,-5.217,4.97,1.54,4.2
,-8.461,-1.328,-5.492,-8.605,0.498,-5.197,9.31,1.4,4.83
,-8.696,-1.129,-5.432,-8.545,1.419,-5.413,13.93,1.05,5.39
9388.0,-8.236,1.029,-5.274,-8.421,-0.778,-4.848,10.71,-2.87,4.55
,-8.303,0.462,-5.293,-8.423,-0.091,-4.949,7.63,-3.43,4.06
,-8.222,0.034,-5.319,-8.509,0.625,-4.917,7.56,-3.29,4.76
,-8.277,-0.644,-5.2,-8.904,1.508,-5.118,8.05,-2.17,6.37
9464.0,-8.954,1.795,-5.169,-8.667,0.464,-5.257,15.82,-1.33,4.97
,-8.612,1.484,-5.166,-8.859,0.27,-5.281,11.06,-0.42,3.99
,-8.528,0.893,-5.068,-8.631,-0.124,-5.15,7.07,1.19,3.71
,-8.569,0.558,-5.135,-8.358,0.096,-5.181,6.02,3.15,3.36
9540.0,-8.162,0.081,-5.3,-8.323,0.811,-5.616,1.96,5.88,5.88
,-8.258,0.045,-5.288,-8.672,0.998,-5.516,0.21,5.81,6.16
,-8.279,0.005,-5.279,-8.741,0.895,-5.25,-0.14,6.09,6.23
,-8.229,0.211,-5.288,-8.552,0.809,-5.331,-0.28,6.86,6.3
9615.0,-8.375,0.73,-5.468,-8.418,0.814,-5.355,-7.77,8.68,5.6
,-8.65,0.79,-5.233,-8.591,0.711,-5.317,-8.33,8.19,5.88
,-8.473,0.816,-5.279,-8.54,0.488,-5.343,-10.15,7.42,5.18
,-8.296,1.141,-5.621,-8.514,0.596,-5.549,-10.64,7.63,4.27
9691.0,-8.528,0.445,-5.214,-8.392,0.682,-5.401,-12.74,8.82,2.94
,-8.524,0.591,-5.195,-8.55,0.548,-5.662,-11.69,7.56,2.17
,-8.452,0.842,-5.363,-8.763,0.199,-5.686,-11.62,6.79,1.82
,-8.459,0.773,-5.305,-8.71,-0.105,-5.776,-12.95,6.3,1.61
9767.0,-8.588,-0.287,-5.865,-8.236,0.28,-5.762,-11.13,4.97,2.94
,-8.397,-0.182,-5.707,-8.22,0.357,-5.717,-7.77,4.48,3.99
,-8.215,0.153,-5.889,-8.375,0.39,-5.719,-5.32,3.57,4.55
,-8.181,0.191,-5.87,-8.528,0.546,-5.743,-6.09,2.31,5.32
9843.0,-8.626,0.615,-5.511,-8.488,1.156,-5.686,-11.06,0.28,6.65
,-8.524,0.598,-5.544,-8.337,1.103,-5.729,-10.85,-0.28,5.95
,-8.411,0.885,-5.568,-8.399,1.189,-5.681,-10.15,-0.49,5.6
,-8.327,0.979,-5.738,-8.299,1.077,-5.69,-8.75,-0.56,5.95
9918.0,-8.32,1.141,-5.54,-8.581,1.297,-5.53,-4.9,-3.29,3.71
,-8.301,1.101,-5.473,-8.476,1.309,-5.573,-3.57,-3.22,2.31
,-8.425,1.141,-5.461,-8.485,1.251,-5.573,-2.73,-3.92,0.91
,-8.579,1.146,-5.453,-8.461,1.235,-5.516,-2.45,-4.06,-0.63
9994.0,-8.284,1.031,-5.604,-8.227,1.113,-5.607,-0.14,-6.02,-4.13
,-8.437,0.627,-5.262,-8.069,1.249,-5.69,0.42,-5.81,-3.85
,-8.533,0.711,-5.544,-8.119,1.05,-5.571,2.17,-6.79,-3.64
,-8.373,0.852,-5.516,-8.402,0.816,-5.456,3.08,-8.26,-3.43
10069.0,-8.521,0.634,-5.37,-8.591,0.474,-5.15,0.84,-11.55,-4.34
,-8.641,0.436,-5.291,-8.76,0.835,-5.123,-0.14,-12.53,-3.57
,-8.457,0.397,-5.269,-8.631,1.122,-5.217,0.0,-13.44,-3.29
,-8.476,0.39,-5.217,-8.413,1.146,-5.231,1.47,-13.65,-3.29
10145.0,-8.217,1.07,-5.121,-8.653,0.972,-4.635,3.29,-16.45,-1.12
,-8.334,1.024,-5.054,-8.78,1.122,-4.769,3.22,-16.52,-1.19
,-8.251,1.17,-5.173,-8.617,0.974,-4.657,6.51,-16.52,-2.73
,-8.526,0.905,-4.929,-8.634,0.735,-4.625,6.86,-17.08,-3.22
10221.0,-8.624,0.51,-4.532,-8.734,0.541,-4.302,-0.14,-18.97,-4.41
,-8.626,0.605,-4.472,-8.729,0.637,-4.269,0.91,-19.32,-4.55
,-8.574,0.708,-4.456,-8.782,0.641,-4.228,2.03,-19.46,-4.27
,-8.727,0.55,-4.377,-8.77,0.637,-4.044,2.24,-19.67,-3.99
10297.0,-8.677,0.873,-4.061,-9.04,1.39,-4.099,3.92,-18.48,-5.11
,-8.734,1.096,-3.891,-8.863,1.046,-4.03,4.9,-17.85,-5.18
,-8.83,1.405,-3.97,-8.871,0.79,-4.149,5.25,-17.64,-5.81
,-9.117,1.45,-4.089,-8.844,0.61,-4.106,2.87,-17.43,-6.79
10372.0,-8.76,0.718,-4.389,-9.043,0.479,-4.044,0.0,-16.59,-9.59
,-8.811,0.73,-4.374,-9.026,0.5,-4.054,0.56,-16.66,-9.17
,-8.911,0.692,-4.281,-8.983,0.51,-4.355,1.05,-16.38,-8.75
,-9.012,0.5,-4.066,-8.878,0.294,-4.166,1.33,-15.96,-8.47
10448.0,-8.897,-0.122,-4.149,-9.165,0.333,-3.403,-4.62,-16.73,-8.12
,-8.923,-0.337,-3.982,-9.162,0.419,-3.374,-2.38,-16.66,-8.19
,-8.928,-0.191,-3.582,-9.134,0.5,-3.388,0.7,-16.24,-8.19
,-9.069,0.172,-3.386,-9.095,0.337,-3.293,2.38,-15.82,-7.56
10524.0,-9.033,0.091,-3.18,-9.32,0.914,-3.307,0.98,-12.81,-5.95
,-9.103,0.002,-3.094,-9.261,1.007,-3.357,3.01,-11.97,-5.67
,-9.189,0.201,-3.147,-9.201,0.632,-3.037,5.67,-11.34,-5.46
,-9.351,0.567,-3.209,-9.261,0.227,-3.001,6.86,-11.62,-6.09
10600.0,-9.304,0.024,-2.989,-9.27,-0.215,-2.95,-0.21,-7.77,-7.84
,-9.189,0.098,-2.965,-9.284,-0.225,-3.228,0.42,-6.93,-7.63
,-9.275,0.065,-3.159,-9.179,-0.165,-3.329,0.28,-6.3,-7.21
,-9.289,-0.019,-3.044,-9.05,0.077,-3.281,0.0,-5.81,-6.65
10676.0,-9.045,0.297,-3.441,-9.354,0.108,-3.159,5.67,-3.64,-4.13
,-9.112,0.371,-3.173,-9.253,-0.034,-3.061,5.53,-3.57,-4.27
,-9.229,0.424,-3.331,-9.368,-0.055,-3.017,5.6,-3.15,-4.13
,-9.356,0.285,-3.211,-9.356,-0.05,-3.18,4.55,-2.38,-4.27
10751.0,-9.258,-0.017,-3.041,-9.124,0.117,-3.264,5.11,-0.42,-3.71
,-9.213,0.093,-3.089,-9.27,0.184,-3.451,5.04,0.21,-3.36
,-9.22,0.141,-3.259,-9.265,0.263,-3.475,4.83,0.49,-3.36
,-9.225,0.11,-3.364,-9.194,0.347,-3.75,4.34,0.77,-3.29
10827.0,-9.155,0.421,-3.824,-9.421,-0.072,-3.898,1.61,0.21,-3.36
,-9.208,0.251,-3.9,-9.375,-0.005,-4.039,0.98,-0.42,-3.36
,-9.15,0.146,-3.872,-9.244,0.089,-3.862,0.77,-0.84,-3.36
,-9.306,0.06,-3.769,-9.265,-0.012,-3.865,1.19,-1.05,-3.08
10902.0,-9.313,-0.069,-3.738,-9.292,-0.091,-3.362,4.9,-3.15,-2.87
,-9.275,0.089,-3.683,-9.304,-0.232,-3.228,6.16,-3.64,-2.94
,-9.239,0.196,-3.604,-9.385,-0.235,-3.051,5.74,-4.06,-3.15
,-9.277,0.089,-3.443,-9.488,-0.103,-3.434,4.62,-4.13,-3.36
10978.0,-9.213,-0.117,-3.159,-9.229,-0.034,-3.116,4.48,-4.06,-3.08
,-9.289,-0.026,-3.269,-9.361,-0.074,-3.204,4.48,-3.85,-2.8
,-9.34,-0.129,-3.34,-9.385,-0.041,-3.082,3.99,-3.71,-3.15
,-9.237,-0.093,-3.197,-9.292,-0.043,-3.084,4.34,-3.64,-2.66
11054.0,-9.375,-0.05,-3.07,-9.33,-0.203,-3.003,4.62,-2.45,-2.24
,-9.349,-0.139,-2.979,-9.356,-0.208,-2.958,3.92,-2.03,-2.03
,-9.447,-0.172,-3.072,-9.316,-0.388,-2.649,3.71,-1.68,-1.75
,-9.481,-0.203,-3.087,-9.426,-0.416,-2.525,3.43,-1.05,-1.61
11130.0,-9.462,-0.371,-2.525,-9.304,-0.177,-3.197,3.85,2.38,0.42
,-9.497,-0.27,-2.556,-9.277,-0.318,-3.321,3.57,3.43,0.49
,-9.474,-0.168,-2.848,-9.256,-0.361,-3.427,2.94,4.06,0.56
,-9.39,-0.151,-2.917,-9.261,-0.258,-3.618,2.17,4.69,0.7
11205.0,-9.232,-0.132,-3.692,-9.28,0.28,-3.833,8.47,4.41,2.03
,-9.213,0.017,-3.697,-9.249,0.012,-3.692,9.03,4.13,2.31
,-9.363,0.168,-3.886,-9.328,-0.05,-3.601,8.4,3.43,2.03
,-9.323,0.225,-3.838,-9.366,0.024,-3.743,6.72,2.66,1.75
11281.0,-9.32,0.144,-3.752,-9.308,-0.302,-3.594,3.64,0.07,0.56
,-9.277,0.179,-3.726,-9.383,-0.196,-3.575,3.29,-0.35,0.56
,-9.282,0.065,-3.774,-9.423,0.086,-3.563,3.15,-0.7,0.56
,-9.32,-0.146,-3.74,-9.284,0.299,-3.51,3.29,-1.26,0.77
11357.0,-9.22,0.206,-3.247,-9.428,0.151,-3.209,-0.07,-2.94,-1.12
,-9.232,-0.041,-3.08,-9.304,-0.045,-2.977,-1.26,-2.8,-0.91
,-9.421,-0.16,-3.084,-9.28,-0.27,-2.936,-0.91,-2.73,-1.26
,-9.474,-0.005,-3.104,-9.409,-0.433,-2.955,0.14,-2.52,-1.4
11433.0,-9.38,-0.337,-2.955,-9.351,0.029,-3.049,3.92,-0.84,-0.14
,-9.43,-0.151,-3.104,-9.438,-0.084,-3.214,4.48,-0.56,-0.35
,-9.397,-0.278,-3.063,-9.43,-0.081,-3.216,3.57,-0.35,-0.77
,-9.308,-0.108,-3.005,-9.344,0.026,-3.228,2.66,0.07,-0.77
11508.0,-9.325,-0.036,-3.178,-9.361,-0.27,-3.104,-1.33,0.7,-2.45
,-9.253,-0.077,-3.092,-9.282,-0.215,-3.099,-1.4,0.98,-2.45
,-9.328,-0.053,-3.221,-9.323,-0.282,-3.015,-1.05,1.26,-2.24
,-9.383,-0.273,-3.156,-9.299,-0.34,-2.91,-1.12,1.4,-2.1
11584.0,-9.407,-0.227,-2.883,-9.418,-0.057,-3.319,0.63,3.5,0.28
,-9.454,-0.165,-2.876,-9.34,-0.034,-3.408,0.98,3.78,0.7
,-9.502,-0.022,-2.97,-9.294,-0.062,-3.539,1.19,3.78,0.84
,-9.493,0.129,-3.273,-9.28,-0.05,-3.573,0.77,3.5,0.84
11660.0,-9.354,-0.103,-3.661,-9.361,-0.012,-3.374,5.25,2.8,2.1
,-9.296,0.0,-3.546,-9.361,-0.096,-3.314,5.11,2.45,1.82
,-9.301,0.029,-3.568,-9.323,-0.203,-3.238,4.62,2.31,1.61
,-9.354,-0.067,-3.537,-9.344,-0.156,-3.228,4.41,1.96,1.61
11735.0,-9.454,-0.069,-3.204,-9.316,-0.246,-3.23,3.43,1.61,1.47
,-9.38,0.062,-3.233,-9.361,-0.256,-3.161,3.15,1.47,1.26
,-9.33,-0.014,-3.228,-9.407,-0.12,-3.204,2.24,1.54,1.19
,-9.258,-0.179,-3.23,-9.404,-0.038,-3.149,2.03,1.68,1.47
11811.0,-9.371,-0.014,-3.238,-9.347,-0.184,-3.264,3.71,2.31,2.38
,-9.39,-0.201,-3.329,-9.375,-0.235,-3.278,2.38,2.1,1.89
,-9.33,-0.22,-3.321,-9.318,-0.182,-3.283,1.61,2.1,1.33
,-9.261,-0.156,-3.242,-9.292,-0.206,-3.238,0.91,2.31,1.19
11887.0,-9.337,-0.177,-3.154,-9.438,-0.29,-3.029,2.24,3.01,1.47
,-9.27,-0.065,-3.037,-9.421,-0.184,-2.97,2.38,3.36,1.33
,-9.306,-0.084,-2.974,-9.356,-0.182,-3.049,1.68,3.71,1.61
,-9.366,-0.239,-2.876,-9.316,-0.144,-3.075,0.98,4.27,1.89
11963.0,-9.256,-0.115,-3.089,-9.366,-0.199,-2.453,0.98,6.3,2.94
,-9.28,-0.115,-3.065,-9.332,-0.201,-2.19,1.26,6.72,3.71
,-9.268,-0.28,-2.836,-9.421,-0.44,-1.936,1.61,7.28,4.48
,-9.284,-0.194,-2.802,-9.435,-0.763,-1.646,2.8,8.05,4.76
12038.0,-9.344,-0.785,-1.414,-9.351,0.378,-3.936,-3.92,16.73,7.21
,-9.368,-0.742,-1.572,-8.894,0.311,-4.491,-4.48,19.11,7.98
,-9.428,-0.608,-1.594,-8.722,-0.213,-4.719,-3.85,21.07,8.89
,-9.507,0.067,-2.864,-8.665,-0.546,-4.238,-3.01,21.63,8.12
12114.0,-8.844,-0.354,-4.152,-9.495,-0.053,-2.316,2.66,20.79,11.83
,-9.079,-0.165,-3.565,-9.557,0.313,-4.226,5.6,21.21,12.04
,-9.282,-0.165,-3.025,-9.093,0.404,-4.319,4.62,21.84,12.88
,-9.366,-0.048,-2.814,-8.583,0.22,-4.817,0.91,23.1,13.3
12190.0,-8.449,0.017,-4.807,-8.744,0.723,-4.322,-7.91,21.21,13.09
,-8.471,-0.203,-4.436,-8.775,0.045,-3.884,-2.73,21.77,13.86
,-8.693,0.196,-4.592,-8.777,-0.376,-3.008,3.08,21.21,12.74
,-8.693,0.658,-4.396,-9.045,-0.278,-3.046,4.27,20.3,11.69
12266.0,-9.184,-0.055,-2.924,-8.545,0.189,-4.334,4.2,22.47,13.44
,-9.246,0.103,-3.597,-8.526,0.732,-4.484,4.41,21.77,12.95
,-9.1,-0.086,-3.975,-8.349,1.362,-4.027,3.43,21.56,13.72
,-8.827,-0.057,-4.436,-8.473,1.476,-3.982,4.62,21.49,15.26
12341.0,-8.705,1.608,-3.982,-9.033,1.218,-4.719,8.4,24.29,13.72
,-9.06,1.534,-3.999,-8.873,1.335,-5.284,4.69,24.29,13.44
,-9.268,1.596,-4.121,-8.612,1.369,-5.602,1.4,24.36,12.95
,-9.244,1.409,-4.252,-8.114,1.129,-5.59,-0.63,24.36,12.04
12417.0,-7.863,0.771,-5.331,-9.177,1.158,-5.769,-1.89,21.84,7.49
,-8.124,0.345,-5.276,-8.696,1.263,-5.602,0.42,20.79,7.63
,-8.696,0.412,-5.532,-8.267,1.134,-5.315,3.29,18.76,6.58
,-9.112,0.794,-5.686,-8.066,0.964,-5.238,5.46,17.43,6.02
12492.0,-8.148,0.869,-4.788,-8.71,-0.191,-4.757,-2.59,17.71,4.9
,-8.358,0.794,-4.817,-8.507,-0.357,-4.676,-2.52,17.15,5.32
,-8.586,0.57,-4.91,-8.346,-0.213,-4.575,-3.29,16.17,5.46
,-8.653,0.235,-4.738,-8.074,0.337,-4.58,-2.66,16.03,6.58
12568.0,-8.145,1.062,-4.563,-8.308,1.541,-4.858,12.74,18.34,11.27
,-8.672,1.637,-4.463,-8.464,0.902,-5.03,12.32,18.62,10.36
,-8.806,1.989,-4.8,-8.428,0.51,-5.061,7.63,17.01,8.54
,-8.447,1.977,-5.004,-8.363,0.522,-5.341,2.03,17.43,7.63
12644.0,-8.524,0.56,-5.465,-7.767,0.101,-5.243,5.6,17.64,7.49
,-8.569,0.596,-5.561,-8.016,0.541,-5.284,5.95,15.33,7.91
,-8.1,0.61,-5.906,-8.284,0.933,-5.573,5.25,14.7,8.05
,-7.619,0.16,-5.686,-8.318,1.345,-5.686,3.92,15.96,9.1
12720.0,-8.366,1.488,-5.865,-8.27,1.512,-5.709,6.44,12.11,8.05
,-8.375,1.754,-5.977,-8.67,1.24,-5.556,6.51,10.57,6.3
,-8.059,1.922,-6.064,-8.559,1.034,-5.961,7.98,10.22,3.99
,-7.995,1.799,-5.853,-8.208,0.888,-5.688,9.03,10.78,2.1
12796.0,-8.138,0.869,-5.585,-8.263,1.441,-5.834,11.9,10.64,0.42
,-8.057,1.117,-5.712,-8.055,1.522,-5.906,13.44,10.92,-0.35
,-7.846,1.125,-5.566,-7.863,1.586,-5.755,12.74,11.48,-0.49
,-8.591,1.381,-5.513,-7.803,1.656,-5.535,12.04,10.22,-1.05
12871.0,-8.066,1.919,-5.386,-7.971,1.335,-5.36,6.44,11.69,-4.41
,-8.284,2.056,-5.327,-8.265,1.292,-5.762,5.88,11.27,-5.46
,-8.373,2.127,-5.039,-8.6,1.323,-6.042,4.83,11.48,-6.3
,-8.162,1.905,-5.128,-8.385,1.034,-6.389,3.64,12.18,-6.37
12947.0,-8.267,0.842,-6.272,-8.011,-0.713,-7.308,8.61,12.95,-8.19
,-7.93,-0.081,-6.296,-7.858,-0.969,-7.497,7.14,12.18,-8.82
,-7.997,-0.347,-6.554,-7.148,-1.039,-7.528,10.08,10.43,-10.15
,-8.129,-0.625,-6.956,-6.86,-0.988,-7.148,13.51,7.91,-10.92
13023.0,-7.617,-0.895,-7.078,-8.09,-0.117,-6.305,13.51,0.35,2.45
,-8.105,-1.204,-6.686,-8.133,-0.048,-6.088,13.93,-1.19,4.34
,-8.461,-0.713,-6.502,-8.236,0.651,-6.494,15.82,-3.22,6.23
,-8.232,-0.459,-6.143,-8.653,1.089,-7.37,16.45,-4.34,8.47
13099.0,-7.971,1.816,-6.707,-8.232,0.723,-5.721,25.97,-7.49,11.69
,-7.492,1.479,-6.403,-8.179,0.471,-5.788,20.3,-8.68,11.69
,-7.478,0.737,-5.836,-8.26,0.436,-5.841,17.5,-8.4,11.97
,-8.066,0.905,-5.927,-8.339,0.782,-5.925,16.8,-8.82,11.55
13174.0,-8.083,1.046,-5.745,-7.916,0.474,-5.516,13.58,-6.93,8.4
,-8.131,1.031,-5.58,-7.909,0.617,-5.597,11.2,-6.23,7.84
,-8.263,1.072,-5.64,-8.212,0.869,-5.441,9.03,-6.51,8.05
,-8.081,0.591,-5.676,-8.363,1.287,-5.523,7.98,-5.74,8.47
13250.0,-8.346,1.802,-5.566,-8.138,1.893,-5.733,7.21,-0.14,6.44
,-8.279,1.73,-5.324,-8.203,1.653,-5.69,3.22,0.63,5.39
,-8.11,1.735,-5.334,-8.325,1.618,-5.906,1.4,1.19,4.55
,-8.031,2.017,-5.518,-8.332,1.457,-5.906,-0.42,1.61,3.92
13325.0,-8.21,0.967,-5.946,-8.222,1.194,-5.848,-10.29,3.64,-0.84
,-8.066,0.333,-5.817,-8.222,1.35,-5.966,-11.76,4.97,-0.91
,-8.064,0.227,-5.705,-8.27,1.046,-5.836,-11.76,5.95,-0.28
,-8.193,0.885,-5.726,-8.191,1.421,-6.245,-11.06,5.67,0.7
13401.0,-8.162,0.955,-6.231,-8.308,0.251,-6.193,-19.81,3.85,0.63
,-8.337,0.184,-5.994,-7.94,0.172,-6.202,-20.02,3.64,0.0
,-8.521,0.002,-6.126,-7.846,0.158,-6.289,-15.19,2.38,-1.19
,-8.638,0.359,-6.229,-8.117,0.17,-6.205,-11.62,0.63,-1.12
13477.0,-8.26,0.201,-6.102,-8.437,0.395,-5.863,-6.86,-4.69,3.01
,-8.169,0.517,-6.059,-8.464,0.278,-5.693,-5.88,-4.69,4.06
,-8.083,0.785,-6.195,-8.301,0.665,-5.65,-4.76,-4.55,4.55
,-8.098,0.68,-6.14,-7.794,1.146,-5.87,-5.74,-3.78,4.69
13553.0,-7.708,1.512,-5.879,-8.612,1.292,-5.597,-2.03,-10.01,5.53
,-8.043,1.438,-5.918,-7.949,1.292,-5.719,-2.59,-10.5,4.55
,-8.461,1.455,-5.939,-7.621,1.397,-5.707,-2.45,-10.78,3.71
,-8.646,1.448,-5.843,-7.892,1.261,-5.602,-3.29,-10.01,3.71
13628.0,-8.502,1.156,-5.485,-8.239,1.113,-5.449,0.28,-10.99,-3.78
,-8.689,1.261,-5.585,-7.88,1.543,-5.75,3.29,-11.06,-4.9
,-8.569,1.17,-5.585,-8.057,1.462,-5.221,3.92,-10.36,-4.83
,-8.229,1.115,-5.571,-8.153,1.634,-5.36,4.27,-8.96,-4.34
13704.0,-8.435,1.407,-5.379,-8.203,0.309,-5.303,2.87,-11.9,-7.42
,-8.622,1.232,-5.406,-7.988,0.419,-5.274,1.12,-12.39,-6.79
,-8.579,0.845,-5.535,-8.102,0.761,-5.317,0.56,-12.39,-6.23
,-8.521,0.354,-5.341,-8.229,1.096,-5.42,2.31,-11.97,-5.74
13779.0,-8.437,1.211,-5.518,-8.313,1.005,-5.358,12.74,-16.1,-4.27
,-8.442,1.074,-5.513,-8.339,1.225,-5.229,8.68,-16.94,-3.43
,-8.452,0.811,-5.494,-8.284,0.771,-4.829,5.95,-17.92,-2.94
,-8.425,0.763,-5.434,-8.612,1.132,-5.061,4.83,-18.97,-2.94
13855.0,-8.71,1.084,-4.841,-8.562,0.96,-4.666,3.5,-22.12,-5.46
,-8.672,1.036,-4.748,-8.536,1.199,-4.41,3.15,-22.4,-5.88
,-8.543,1.098,-4.755,-8.495,1.237,-4.338,3.08,-22.54,-6.09
,-8.514,0.936,-4.678,-8.603,1.146,-4.164,2.24,-22.47,-6.58
13931.0,-8.772,0.974,-4.346,-8.758,0.708,-3.91,-1.26,-22.54,-8.54
,-8.859,0.914,-4.29,-8.78,0.495,-3.972,-1.26,-22.54,-8.61
,-8.866,0.897,-4.341,-8.729,0.385,-4.039,-0.77,-22.12,-8.96
,-8.725,0.816,-4.097,-8.777,0.447,-4.216,0.28,-20.86,-9.17
14007.0,-8.758,0.352,-4.319,-8.82,0.553,-3.836,-0.35,-19.46,-7.0
,-8.751,0.141,-4.252,-8.954,0.565,-3.853,0.42,-19.18,-6.65
,-8.839,0.16,-4.149,-8.878,0.359,-3.611,1.96,-18.62,-6.86
,-8.782,0.488,-4.066,-8.93,0.263,-3.573,3.15,-18.06,-7.14
14083.0,-9.009,0.201,-3.302,-9.009,0.704,-3.836,3.22,-15.26,-5.6
,-9.162,0.16,-3.443,-8.882,0.672,-3.711,6.37,-14.84,-5.32
,-9.203,0.5,-3.46,-8.863,0.625,-3.865,7.21,-14.07,-5.39
,-9.186,0.632,-3.58,-8.863,0.694,-3.96,6.02,-13.58,-5.25
14158.0,-8.971,0.694,-3.929,-9.244,0.16,-3.118,2.59,-12.67,-5.32
,-9.134,0.522,-3.778,-9.172,0.203,-3.384,2.03,-12.53,-5.18
,-9.239,0.445,-3.484,-9.105,0.438,-3.632,1.47,-12.04,-5.32
,-9.28,0.261,-3.376,-8.926,0.412,-3.79,0.49,-11.27,-5.88
14234.0,-8.923,0.129,-3.467,-9.368,0.797,-3.23,-2.59,-9.45,-5.39
,-9.069,-0.184,-3.257,-9.332,0.62,-3.41,-0.91,-8.68,-4.48
,-9.275,-0.029,-2.91,-9.153,0.266,-3.154,2.94,-7.77,-4.62
,-9.318,0.45,-3.281,-9.057,-0.158,-3.185,4.97,-7.35,-5.81
14310.0,-9.141,-0.067,-3.072,-9.217,0.452,-3.24,-1.12,-5.18,-5.46
,-9.28,0.237,-3.139,-9.232,0.211,-3.527,1.05,-4.48,-5.53
,-9.409,0.586,-3.247,-9.146,0.136,-3.661,-0.07,-4.13,-6.09
,-9.292,0.641,-3.214,-9.033,-0.002,-3.671,-3.57,-3.71,-6.44
14386.0,-8.997,-0.144,-3.625,-9.277,0.794,-4.156,-4.06,-2.24,-5.04
,-9.153,-0.12,-3.393,-8.928,0.859,-4.209,-1.05,-2.03,-4.27
,-9.332,0.05,-3.372,-8.808,0.526,-4.073,1.05,-2.03,-3.92
,-9.481,0.407,-3.829,-8.885,0.093,-3.999,1.54,-2.52,-4.69
14461.0,-9.088,0.029,-3.764,-9.241,0.096,-3.273,-0.35,-5.25,-5.6
,-9.229,0.084,-3.242,-9.098,0.057,-3.223,0.28,-5.53,-5.32
,-9.395,0.175,-3.175,-9.222,-0.045,-3.427,-0.63,-5.46,-5.32
,-9.459,0.227,-3.355,-9.198,-0.048,-3.434,-2.52,-5.39,-5.95
14537.0,-9.292,0.055,-3.259,-9.318,0.038,-3.211,0.28,-4.27,-3.99
,-9.33,0.11,-3.254,-9.217,-0.062,-3.032,0.56,-4.13,-3.92
,-9.282,0.007,-3.029,-9.32,-0.175,-3.142,0.91,-3.57,-3.64
,-9.347,0.045,-3.19,-9.435,-0.144,-3.197,1.4,-3.08,-3.29
14612.0,-9.356,0.069,-3.362,-9.438,0.045,-3.216,4.48,-1.68,-1.61
,-9.251,0.134,-3.391,-9.44,0.263,-3.364,4.9,-1.68,-1.54
,-9.229,0.01,-3.278,-9.351,0.294,-3.345,5.18,-1.47,-1.12
,-9.273,-0.141,-3.116,-9.256,0.189,-3.503,6.09,-1.05,-0.49
14688.0,-9.27,0.007,-3.498,-9.318,-0.189,-2.989,2.87,-1.19,-1.89
,-9.191,0.005,-3.522,-9.43,-0.005,-3.005,3.92,-1.19,-1.54
,-9.284,-0.074,-3.41,-9.49,0.223,-3.242,4.83,-1.12,-1.05
,-9.268,-0.179,-3.221,-9.383,0.337,-3.376,6.02,-0.84,-0.56
14764.0,-9.239,0.194,-3.245,-9.433,-0.05,-2.977,4.48,0.07,-0.77
,-9.215,-0.002,-3.149,-9.414,-0.022,-2.965,4.13,0.35,-0.56
,-9.306,-0.136,-3.013,-9.328,0.034,-2.915,4.83,0.7,-0.35
,-9.426,-0.096,-3.051,-9.387,-0.105,-2.871,5.67,1.26,-0.14
14840.0,-9.34,-0.141,-2.816,-9.296,0.163,-3.628,5.11,3.71,0.98
,-9.435,0.029,-2.943,-9.215,0.11,-3.762,5.67,4.2,1.05
,-9.457,0.156,-3.214,-9.246,0.122,-3.872,5.11,4.41,0.63
,-9.368,0.211,-3.518,-9.263,0.057,-3.872,3.99,4.2,0.28
14916.0,-9.258,-0.067,-3.74,-9.28,-0.105,-3.367,1.68,2.59,0.28
,-9.311,-0.079,-3.666,-9.368,-0.187,-3.24,2.52,1.96,0.14
,-9.32,-0.057,-3.601,-9.457,-0.151,-3.173,3.15,1.75,0.21
,-9.263,-0.041,-3.453,-9.411,-0.055,-3.111,3.5,1.82,0.7
14991.0,-9.375,0.074,-3.204,-9.241,0.079,-3.719,5.18,2.31,1.47
,-9.409,0.16,-3.391,-9.253,0.048,-3.795,4.48,2.38,1.26
,-9.301,0.227,-3.467,-9.215,0.089,-3.711,3.5,2.1,1.19
,-9.258,0.203,-3.647,-9.287,0.163,-3.568,3.29,2.03,1.12
15067.0,-9.373,0.089,-3.53,-9.325,-0.112,-3.049,6.65,0.91,1.89
,-9.332,0.01,-3.343,-9.349,-0.112,-2.972,6.02,0.84,1.82
,-9.34,-0.036,-3.242,-9.409,-0.077,-3.032,5.25,0.84,1.61
,-9.292,-0.101,-3.183,-9.39,0.026,-3.111,4.9,1.12,1.47
15143.0,-9.349,0.06,-3.173,-9.351,0.086,-3.364,3.71,3.29,1.89
,-9.332,-0.024,-3.168,-9.375,0.067,-3.467,3.22,3.5,1.96
,-9.328,-0.034,-3.223,-9.241,0.132,-3.486,3.08,3.57,1.82
,-9.34,0.067,-3.329,-9.28,0.067,-3.501,3.22,4.06,1.96
15219.0,-9.263,0.069,-3.544,-9.244,0.101,-3.527,3.36,3.85,1.68
,-9.332,0.098,-3.532,-9.265,0.022,-3.455,3.85,3.64,1.68
,-9.28,0.158,-3.57,-9.33,0.019,-3.463,3.85,3.43,1.54
,-9.268,0.168,-3.597,-9.313,0.05,-3.367,3.57,3.43,1.47
15294.0,-9.349,0.105,-3.515,-9.21,0.156,-3.601,2.94,3.08,1.19
,-9.253,0.144,-3.52,-9.249,0.079,-3.589,2.17,2.87,1.12
,-9.263,0.108,-3.537,-9.275,0.093,-3.611,1.75,2.73,1.05
,-9.277,0.124,-3.616,-9.227,0.086,-3.565,1.89,2.73,0.91
15370.0,-9.268,0.218,-3.594,-9.292,0.122,-3.534,2.87,1.96,0.98
,-9.261,0.17,-3.549,-9.299,0.132,-3.556,2.59,1.82,0.84
,-9.284,0.156,-3.561,-9.308,0.153,-3.501,2.45,1.75,0.84
,-9.273,0.156,-3.553,-9.263,0.124,-3.544,2.31,1.68,0.77
15445.0,-9.261,0.069,-3.427,-9.275,0.136,-3.498,2.17,1.33,0.42
,-9.284,0.041,-3.367,-9.258,0.081,-3.494,2.38,1.33,0.49
,-9.27,0.081,-3.417,-9.282,0.072,-3.551,2.8,1.54,0.35
,-9.328,0.105,-3.484,-9.246,0.022,-3.539,3.01,1.54,0.21
15521.0,-9.222,0.101,-3.515,-9.241,0.084,-3.532,2.59,1.4,0.07
,-9.342,0.089,-3.522,-9.318,0.096,-3.597,2.52,1.19,-0.07
,-9.375,0.148,-3.57,-9.234,0.096,-3.563,2.59,1.26,-0.07
,-9.299,0.115,-3.57,-9.184,0.101,-3.494,2.03,1.12,-0.42
15597.0,-9.241,0.012,-3.393,-9.366,-0.048,-2.994,1.75,0.7,-0.21
,-9.177,-0.098,-3.228,-9.38,-0.024,-3.027,1.89,0.98,-0.14
,-9.244,-0.103,-3.132,-9.411,-0.093,-3.08,1.82,1.4,-0.07
,-9.313,-0.098,-3.068,-9.354,-0.081,-3.245,1.33,1.54,-0.21
15673.0,-9.203,-0.093,-3.295,-9.284,0.268,-3.661,-0.84,3.43,0.07
,-9.229,-0.103,-3.36,-9.265,0.23,-3.673,0.28,3.57,0.35
,-9.323,-0.034,-3.513,-9.234,0.12,-3.537,1.33,3.57,0.42
,-9.306,0.163,-3.58,-9.225,-0.043,-3.4,1.75,3.64,0.49
15748.0,-9.241,-0.148,-3.046,-9.301,-0.098,-2.821,-0.28,4.27,1.26
,-9.366,-0.165,-2.848,-9.208,-0.182,-2.793,0.07,4.9,1.61
,-9.435,-0.081,-2.819,-9.103,-0.273,-2.654,-0.42,5.53,1.89
,-9.356,-0.06,-2.709,-9.184,-0.452,-2.381,-1.68,6.58,2.17
15824.0,-9.375,-0.232,-2.955,-9.342,-0.574,-3.034,-1.61,12.32,4.76
,-9.275,-0.022,-2.955,-9.261,-0.601,-2.972,-1.47,13.16,4.2
,-9.227,0.01,-3.01,-9.261,-0.242,-2.905,-2.03,14.0,4.76
,-9.265,-0.235,-2.946,-9.351,0.258,-3.546,-3.36,15.05,5.53
15900.0,-9.282,0.299,-3.857,-8.854,-1.005,-3.312,-1.26,17.57,5.25
,-9.036,0.225,-3.982,-9.048,-0.969,-3.257,-6.16,17.08,4.9
,-8.873,-0.165,-3.886,-8.971,-0.428,-3.068,-9.59,16.87,5.39
,-8.772,-0.694,-3.544,-8.902,0.397,-3.731,-9.73,17.22,6.51
15976.0,-8.808,0.799,-4.089,-8.83,0.077,-4.279,11.55,19.46,9.52
,-8.751,0.684,-4.13,-8.813,0.062,-4.295,7.7,19.04,10.29
,-8.923,0.514,-4.525,-8.588,0.201,-4.334,4.69,18.69,10.78
,-8.973,0.215,-4.372,-8.612,0.029,-4.226,3.64,19.18,10.85
16052.0,-8.985,-0.426,-3.862,-8.686,0.919,-4.446,4.76,17.78,12.32
,-9.227,-0.558,-4.398,-8.514,1.141,-4.403,6.65,17.08,13.51
,-9.117,-0.211,-4.48,-8.48,1.292,-4.231,10.08,16.59,14.14
,-8.885,0.352,-4.58,-8.71,1.364,-4.348,12.6,16.38,14.49
16127.0,-8.966,1.462,-4.439,-8.313,0.203,-4.104,2.24,15.26,8.82
,-9.155,1.218,-4.281,-8.366,-0.124,-4.324,-1.33,15.12,8.54
,-9.076,1.012,-4.281,-8.701,-0.168,-4.561,-3.78,15.68,7.84
,-8.612,0.577,-3.798,-8.957,0.053,-4.439,-4.48,16.73,7.42
16203.0,-9.143,0.285,-4.633,-8.334,1.474,-5.173,11.69,17.85,11.76
,-9.258,0.541,-4.829,-8.282,1.342,-4.951,13.02,16.8,10.57
,-9.136,0.919,-5.068,-8.313,1.132,-4.499,11.34,15.19,9.45
,-8.607,1.328,-5.202,-8.452,1.352,-4.491,9.31,14.56,8.96
16278.0,-8.813,1.833,-4.386,-8.433,1.163,-4.604,4.97,16.94,2.73
,-9.213,2.331,-4.326,-8.409,0.026,-4.525,4.62,16.8,1.33
,-9.083,2.393,-4.439,-8.583,-0.706,-4.547,0.91,16.24,-0.14
,-8.693,2.063,-4.654,-8.775,-1.268,-4.628,-3.85,16.1,-1.33
16354.0,-8.873,-1.189,-4.834,-8.181,1.496,-5.899,10.71,18.2,5.18
,-8.65,-0.979,-4.977,-8.045,2.34,-5.879,14.14,18.2,7.21
,-8.579,-0.505,-5.195,-8.26,2.486,-5.659,15.4,18.06,8.47
,-8.437,0.498,-5.559,-8.562,1.943,-5.327,15.4,17.15,8.54
16430.0,-8.796,1.067,-5.123,-8.509,-0.529,-4.922,-12.74,15.12,1.61
,-8.815,0.383,-5.011,-8.358,-0.11,-5.099,-13.02,15.47,2.38
,-8.638,-0.201,-4.984,-8.447,0.407,-5.305,-9.52,15.75,3.08
,-8.466,-0.526,-4.85,-8.521,1.35,-5.53,-3.43,16.38,3.64
16506.0,-8.287,2.249,-5.934,-8.44,0.581,-5.415,11.69,10.5,2.52
,-7.99,2.46,-5.934,-8.528,-0.105,-5.303,5.46,9.8,0.35
,-7.911,2.271,-5.788,-8.571,-0.589,-5.264,-0.35,10.36,-1.89
,-8.124,1.572,-5.575,-8.583,-0.95,-5.193,-4.97,10.5,-3.99
16581.0,-8.471,-0.854,-5.303,-8.057,2.252,-5.762,11.69,8.47,-2.38
,-8.169,-0.773,-5.492,-8.093,2.209,-5.671,14.98,7.98,-0.91
,-8.306,-0.055,-5.501,-7.944,1.584,-5.391,18.83,8.33,1.19
,-8.066,1.261,-5.662,-8.746,0.727,-5.25,22.33,7.7,1.61
16657.0,-8.43,-0.026,-5.482,-8.634,-0.426,-5.903,-2.73,8.19,0.63
,-8.081,-0.696,-5.645,-8.09,0.242,-6.119,-0.7,7.84,1.19
,-8.378,-1.22,-5.841,-7.731,0.474,-5.858,3.57,7.91,2.59
,-8.737,-1.232,-5.681,-7.586,0.794,-5.954,8.4,7.56,4.2
16733.0,-8.327,1.012,-5.767,-8.303,2.218,-5.508,10.5,4.9,8.12
,-8.437,1.146,-5.497,-8.246,2.513,-5.633,8.82,4.69,7.63
,-8.698,1.235,-5.449,-8.296,1.993,-5.343,8.05,3.99,6.44
,-8.629,1.799,-5.427,-8.019,1.622,-5.377,7.7,3.78,3.99
16809.0,-7.944,1.0,-5.463,-8.44,-0.108,-5.86,0.7,5.25,0.14
,-7.827,0.56,-5.463,-8.409,-0.273,-5.719,2.52,5.67,0.91
,-8.11,0.17,-5.693,-8.114,-0.17,-5.889,6.86,4.41,0.56
,-8.358,-0.022,-5.853,-7.98,-0.129,-6.1,10.08,3.29,0.0
16884.0,-8.078,-0.309,-5.82,-7.923,0.211,-5.587,12.11,0.7,2.52
,-8.267,-0.577,-5.69,-8.227,0.826,-5.58,12.18,0.63,4.2
,-8.074,-0.302,-5.774,-8.361,1.141,-5.497,12.74,-0.14,6.02
,-7.947,-0.105,-5.654,-8.698,1.515,-5.583,13.02,0.14,7.56
16960.0,-8.607,1.73,-5.743,-7.954,0.385,-5.75,13.93,1.82,4.9
,-8.531,1.591,-5.815,-8.038,0.261,-5.607,12.67,1.61,3.29
,-8.267,1.101,-5.82,-8.167,0.756,-5.743,11.83,2.17,2.52
,-8.09,0.646,-5.796,-8.313,1.134,-6.044,12.46,3.36,2.8
17036.0,-8.308,1.003,-6.121,-8.138,0.318,-6.19,8.68,5.53,2.8
,-8.181,0.732,-6.193,-8.354,0.361,-6.107,6.02,5.11,2.73
,-8.119,0.505,-6.248,-8.33,0.613,-5.927,5.25,5.46,3.01
,-8.131,0.342,-6.155,-8.019,0.792,-5.961,4.97,5.81,3.36
17111.0,-8.102,0.732,-5.829,-8.165,0.708,-6.078,-2.52,4.06,2.8
,-8.198,0.732,-5.796,-8.2,0.768,-5.853,-4.69,2.59,3.36
,-8.248,0.605,-5.853,-8.279,0.782,-5.887,-6.23,2.45,3.78
,-8.186,0.639,-5.875,-8.5,0.692,-5.719,-7.07,2.8,3.92
17187.0,-8.605,0.692,-5.626,-8.315,0.629,-5.863,-6.3,4.55,0.07
,-8.148,0.912,-5.688,-8.411,0.493,-5.92,-6.23,3.29,0.07
,-7.839,0.979,-5.908,-8.361,0.299,-6.152,-5.88,2.87,-0.49
,-8.088,0.907,-5.896,-8.203,-0.014,-6.176,-6.37,2.94,-0.91
17263.0,-8.093,-0.182,-6.123,-7.913,0.498,-5.968,-3.64,3.99,2.31
,-8.251,-0.175,-6.025,-8.167,0.625,-5.987,-1.75,3.85,3.64
,-8.437,0.0,-5.975,-8.129,0.768,-6.004,-2.17,0.42,3.92
,-8.033,0.371,-6.076,-8.043,1.022,-6.042,-3.78,-1.82,4.2
17339.0,-7.932,1.271,-5.98,-8.208,1.421,-5.729,-7.35,-5.46,5.11
,-8.244,1.33,-5.81,-8.33,1.304,-5.774,-7.14,-5.67,4.27
,-8.37,1.385,-5.729,-8.346,1.144,-5.812,-6.93,-5.6,3.29
,-8.402,1.467,-5.741,-8.289,0.96,-5.867,-6.23,-4.97,2.1
17414.0,-8.189,0.701,-5.834,-8.277,0.474,-5.731,-1.05,-6.51,-3.57
,-8.076,0.663,-5.875,-8.2,0.72,-6.056,1.26,-6.72,-4.27
,-8.004,0.565,-5.832,-8.181,0.68,-5.793,3.43,-7.14,-4.69
,-8.083,0.517,-5.812,-8.155,0.577,-5.82,4.9,-7.77,-4.9
17490.0,-8.16,0.577,-5.729,-8.358,0.321,-5.571,2.52,-13.3,-3.29
,-8.186,0.483,-5.695,-8.263,0.311,-5.504,0.84,-15.19,-3.01
,-8.272,0.464,-5.731,-8.212,0.443,-5.499,0.42,-16.38,-2.31
,-8.358,0.445,-5.707,-8.217,0.536,-5.382,0.35,-17.43,-1.68
17566.0,-8.301,0.871,-5.372,-8.502,0.771,-5.054,7.63,-18.83,-0.7
,-8.244,1.096,-5.329,-8.43,0.689,-4.728,6.3,-19.74,-1.19
,-8.289,1.192,-5.236,-8.447,0.747,-4.815,3.71,-19.88,-1.82
,-8.459,1.058,-5.15,-8.502,0.833,-4.7,1.54,-19.74,-1.82
17642.0,-8.614,0.89,-4.855,-8.421,1.039,-4.594,7.35,-18.34,-3.57
,-8.844,0.962,-4.697,-8.483,0.919,-4.525,7.63,-18.2,-3.43
,-8.701,0.936,-4.424,-8.593,0.919,-4.573,6.23,-17.64,-3.22
,-8.488,1.106,-4.599,-8.619,0.972,-4.523,5.95,-17.08,-3.22
17717.0,-8.478,0.866,-4.657,-8.945,0.878,-4.532,3.01,-16.03,-3.92
,-8.521,0.694,-4.537,-8.851,0.995,-4.563,2.45,-15.68,-4.2
,-8.686,0.632,-4.525,-8.684,0.909,-4.602,3.15,-15.82,-4.41
,-8.885,0.811,-4.575,-8.684,0.785,-4.604,4.13,-15.68,-4.9
17793.0,-8.732,0.562,-4.527,-8.701,0.438,-4.669,-2.87,-15.61,-7.07
,-8.792,0.438,-4.594,-8.765,0.51,-4.628,-3.29,-15.68,-7.35
,-8.693,0.347,-4.633,-8.839,0.534,-4.64,-2.66,-15.75,-7.49
,-8.693,0.361,-4.587,-8.835,0.407,-4.52,-1.54,-15.89,-7.28
17868.0,-8.715,0.156,-4.372,-9.103,0.668,-4.269,-1.4,-15.89,-6.44
,-8.648,0.019,-4.279,-9.031,0.754,-4.235,0.14,-15.61,-5.74
,-8.801,0.213,-4.257,-8.923,0.732,-4.037,2.52,-15.54,-5.53
,-8.952,0.373,-4.082,-8.763,0.629,-3.979,3.57,-15.82,-5.53
17944.0,-8.842,0.421,-3.793,-8.959,0.483,-3.795,-1.12,-15.19,-6.93
,-8.945,0.357,-3.786,-8.988,0.426,-3.814,-0.49,-14.84,-7.14
,-9.04,0.397,-3.702,-8.859,0.464,-3.934,0.14,-14.49,-7.63
,-8.959,0.507,-3.752,-8.959,0.452,-3.984,0.14,-14.28,-7.63
18020.0,-9.031,0.364,-3.838,-9.148,0.251,-3.405,0.21,-13.79,-7.49
,-9.139,0.0,-3.57,-9.067,0.443,-3.795,-0.49,-13.3,-7.28
,-9.143,-0.127,-3.36,-8.928,0.443,-3.774,0.0,-12.67,-7.07
,-9.174,-0.096,-3.475,-8.966,0.175,-3.561,0.84,-12.04,-7.14
18096.0,-9.1,-0.168,-3.386,-9.167,0.101,-3.451,-2.17,-10.22,-6.72
,-9.265,-0.055,-3.262,-9.112,-0.098,-3.276,0.49,-9.59,-6.79
,-9.258,0.203,-3.515,-9.134,-0.136,-3.247,1.61,-9.31,-7.07
,-9.229,0.321,-3.262,-9.28,0.134,-3.486,0.28,-9.1,-7.07
18172.0,-9.237,0.246,-3.623,-9.275,-0.055,-3.242,2.1,-7.0,-6.16
,-9.067,0.057,-3.156,-9.282,0.292,-3.384,0.91,-6.37,-5.04
,-9.146,-0.158,-3.233,-9.158,0.328,-3.57,0.98,-5.95,-4.62
,-9.225,-0.28,-3.072,-9.134,0.251,-3.379,2.45,-5.11,-4.69
18247.0,-9.072,0.156,-3.664,-9.301,-0.081,-3.149,-1.54,-3.57,-5.25
,-9.206,-0.124,-3.283,-9.301,0.036,-3.408,-1.96,-3.43,-5.11
,-9.203,-0.194,-3.223,-9.301,0.091,-3.465,-0.91,-3.22,-4.34
,-9.332,-0.194,-3.36,-9.107,0.074,-3.498,-0.07,-2.73,-4.13
18323.0,-9.16,0.0,-3.592,-9.282,-0.376,-3.027,-0.35,-1.75,-3.5
,-9.127,-0.218,-3.41,-9.301,-0.38,-2.869,0.42,-1.82,-3.08
,-9.201,-0.134,-3.503,-9.299,-0.316,-2.809,2.03,-1.54,-2.66
,-9.292,-0.189,-3.156,-9.375,-0.072,-3.139,1.82,-1.19,-2.45
18399.0,-9.28,0.129,-3.309,-9.227,0.045,-3.386,2.24,1.75,-1.12
,-9.186,0.194,-3.472,-9.306,0.112,-3.412,1.33,1.75,-0.91
,-9.174,0.093,-3.563,-9.387,0.079,-3.384,1.33,1.82,-0.84
,-9.203,0.036,-3.532,-9.332,0.103,-3.513,3.01,2.17,-0.35
18475.0,-9.194,0.05,-3.537,-9.21,-0.376,-2.979,-0.14,2.24,-1.12
,-9.146,-0.101,-3.443,-9.399,-0.323,-2.804,-0.21,2.38,-0.84
,-9.093,-0.292,-3.47,-9.423,-0.239,-2.754,0.56,2.66,-0.28
,-9.148,-0.421,-3.185,-9.485,-0.127,-3.096,1.68,3.15,0.49
18550.0,-9.328,-0.014,-3.094,-9.122,0.014,-4.171,-1.05,6.16,1.19
,-9.282,-0.031,-3.661,-9.167,0.29,-4.188,-1.54,6.3,1.19
,-9.134,-0.132,-3.939,-9.237,0.433,-4.259,-0.77,6.23,1.26
,-9.048,-0.112,-4.006,-9.256,0.294,-4.14,1.54,6.09,2.03
18626.0,-9.103,0.122,-4.164,-9.201,0.55,-3.915,3.01,2.52,1.19
,-9.17,-0.103,-4.03,-9.225,0.428,-3.989,4.34,2.1,1.47
,-9.237,0.007,-3.922,-9.184,0.175,-3.936,6.79,1.54,1.54
,-9.21,0.325,-3.984,-9.11,-0.098,-3.795,8.47,0.84,1.26
18701.0,-9.162,-0.124,-3.716,-9.225,-0.022,-3.348,4.83,-1.05,0.28
,-9.232,0.01,-3.673,-9.249,-0.144,-3.185,6.09,-1.05,0.28
,-9.227,0.043,-3.47,-9.27,-0.215,-3.013,6.51,-1.12,0.28
,-9.234,0.079,-3.429,-9.318,-0.194,-3.151,6.09,-1.12,-0.07
18777.0,-9.318,-0.132,-3.197,-9.167,-0.203,-3.582,4.2,1.33,0.77
,-9.239,-0.01,-3.364,-9.263,-0.036,-3.585,3.85,1.89,0.84
,-9.22,-0.122,-3.522,-9.347,0.074,-3.582,3.5,2.1,0.91
,-9.115,-0.213,-3.609,-9.351,0.203,-3.632,4.2,2.31,1.26
18853.0,-9.287,0.163,-3.776,-9.311,0.103,-3.738,4.2,2.1,1.12
,-9.208,0.069,-3.86,-9.289,0.22,-3.733,3.71,2.1,1.19
,-9.119,-0.055,-3.79,-9.265,0.187,-3.747,4.34,2.03,1.47
,-9.227,-0.065,-3.776,-9.239,0.103,-3.771,5.88,1.96,1.68
18929.0,-9.198,-0.057,-3.769,-9.287,0.258,-3.673,3.64,0.98,1.19
,-9.189,-0.074,-3.719,-9.222,0.16,-3.654,4.2,0.7,1.19
,-9.239,0.034,-3.654,-9.167,-0.012,-3.604,4.41,0.63,0.98
,-9.318,0.203,-3.714,-9.201,-0.053,-3.695,4.41,0.56,0.98
19004.0,-9.241,-0.06,-3.534,-9.261,-0.084,-3.367,3.08,0.21,0.7
,-9.284,-0.069,-3.453,-9.282,0.034,-3.479,2.94,0.35,0.84
,-9.217,-0.11,-3.352,-9.263,0.019,-3.635,2.31,0.56,0.7
,-9.239,-0.117,-3.338,-9.182,0.029,-3.683,1.96,0.7,0.56
19080.0,-9.201,-0.002,-3.774,-9.304,0.036,-3.527,2.8,1.12,0.77
,-9.203,0.012,-3.716,-9.299,0.06,-3.565,3.36,1.12,0.98
,-9.263,0.036,-3.673,-9.27,0.055,-3.601,3.78,1.12,1.12
,-9.237,0.06,-3.582,-9.241,-0.031,-3.573,3.64,1.05,0.98
19155.0,-9.241,0.005,-3.604,-9.277,0.065,-3.515,2.59,1.05,0.63
,-9.229,0.038,-3.57,-9.253,-0.002,-3.606,2.8,1.19,0.77
,-9.203,0.134,-3.597,-9.256,0.034,-3.62,2.8,1.12,0.77
,-9.206,0.043,-3.542,-9.206,0.005,-3.652,2.52,1.19,0.63
19231.0,-9.177,-0.022,-3.58,-9.347,-0.103,-3.388,2.87,1.26,0.63
,-9.225,0.057,-3.568,-9.328,-0.127,-3.396,3.01,1.26,0.7
,-9.256,0.048,-3.527,-9.313,-0.069,-3.362,2.31,1.19,0.56
,-9.263,-0.045,-3.465,-9.244,-0.019,-3.496,1.96,1.33,0.63
19307.0,-9.244,0.06,-3.518,-9.258,0.05,-3.716,1.82,2.03,0.63
,-9.196,0.079,-3.52,-9.215,0.057,-3.745,1.61,2.38,0.84
,-9.244,-0.005,-3.568,-9.253,0.081,-3.848,1.54,2.45,0.77
,-9.268,0.0,-3.606,-9.222,0.108,-3.833,2.17,2.38,0.77
19383.0,-9.174,0.108,-3.819,-9.246,0.038,-3.539,2.87,1.26,0.63
,-9.222,0.05,-3.726,-9.282,0.067,-3.613,2.94,1.26,0.63
,-9.289,0.029,-3.604,-9.239,0.048,-3.625,3.43,1.12,0.63
,-9.261,0.084,-3.606,-9.131,-0.038,-3.609,3.5,1.05,0.63
19459.0,-9.208,-0.103,-3.573,-9.273,0.036,-3.518,2.1,0.91,0.21
,-9.206,-0.077,-3.549,-9.249,-0.002,-3.53,2.52,1.05,0.42
,-9.275,-0.038,-3.489,-9.234,-0.019,-3.585,2.8,1.19,0.42
,-9.316,0.019,-3.525,-9.158,-0.036,-3.632,2.45,1.12,0.35
19534.0,-9.139,-0.053,-3.585,-9.256,0.038,-3.568,0.63,1.4,0.21
,-9.17,-0.043,-3.575,-9.294,0.072,-3.683,0.77,1.33,0.35
,-9.21,-0.098,-3.515,-9.268,0.026,-3.611,0.84,1.33,0.42
,-9.215,-0.034,-3.506,-9.17,0.012,-3.618,0.98,1.4,0.42
19610.0,-9.184,0.005,-3.685,-9.301,0.041,-3.496,-0.98,0.91,-0.07
,-9.203,0.026,-3.68,-9.256,-0.048,-3.427,-1.19,0.91,-0.07
,-9.239,0.043,-3.661,-9.273,-0.127,-3.278,-1.75,0.91,0.0
,-9.282,0.036,-3.546,-9.287,-0.072,-3.276,-2.38,0.77,0.0
19686.0,-9.289,-0.065,-3.168,-9.136,-0.237,-2.96,-3.15,2.73,1.68
,-9.292,0.098,-3.197,-9.136,-0.237,-2.927,-3.36,3.22,1.61
,-9.289,0.014,-3.195,-9.076,-0.258,-2.716,-4.48,3.57,1.68
,-9.184,-0.144,-3.101,-9.105,-0.23,-2.568,-5.25,4.2,1.96
19762.0,-9.127,-0.254,-2.486,-9.433,0.0,-3.094,-3.71,9.52,4.41
,-9.17,-0.45,-2.168,-9.27,0.318,-3.491,-3.43,11.41,5.67
,-9.294,-0.522,-2.46,-9.069,0.34,-3.786,-1.96,13.02,6.65
,-9.426,-0.369,-2.52,-9.167,0.246,-4.128,-0.21,14.28,6.79
19837.0,-9.129,-0.134,-4.192,-9.086,0.225,-4.281,-5.39,14.77,5.53
,-9.024,-0.101,-4.159,-8.93,0.361,-4.118,-4.34,14.42,5.25
,-9.098,-0.007,-4.027,-8.868,0.27,-3.987,-3.22,14.49,4.83
,-9.198,0.072,-4.233,-8.89,0.105,-3.982,-3.15,14.0,4.34
19913.0,-8.995,0.053,-3.707,-8.746,0.56,-4.637,-2.24,13.3,5.74
,-9.117,0.246,-4.145,-8.813,0.51,-4.156,0.14,12.81,6.23
,-9.083,0.476,-4.496,-9.136,0.598,-3.814,0.84,11.9,5.81
,-8.959,0.56,-4.685,-9.323,0.948,-3.982,1.47,10.99,5.67
19988.0,-9.258,1.127,-3.912,-8.923,-0.491,-3.522,10.78,9.8,3.15
,-9.131,1.074,-4.216,-8.947,-0.416,-3.707,5.88,9.66,1.89
,-8.875,0.395,-3.518,-9.021,-0.103,-3.733,1.54,10.36,1.96
,-8.856,-0.246,-3.209,-9.05,0.22,-4.267,0.35,11.76,2.45
20064.0,-8.892,0.275,-3.845,-9.148,0.366,-4.587,1.75,13.79,3.64
,-8.863,0.333,-4.417,-8.811,0.002,-4.274,1.68,13.23,3.71
,-8.926,0.526,-4.566,-8.619,-0.313,-3.814,1.19,12.18,2.45
,-9.119,0.55,-4.733,-8.698,-0.292,-3.877,0.14,11.27,2.45
20140.0,-8.985,-0.05,-4.087,-8.617,0.33,-4.314,8.68,13.09,4.55
,-9.033,0.194,-4.128,-8.763,0.603,-4.554,7.28,13.79,5.18
,-8.849,0.117,-3.963,-8.842,0.732,-4.803,4.48,14.91,5.95
,-8.614,0.153,-3.829,-8.837,0.646,-4.97,3.99,15.96,6.37
20216.0,-8.763,0.428,-4.769,-8.83,0.469,-4.666,4.97,13.93,7.56
,-8.691,0.309,-4.602,-8.789,0.579,-4.929,7.63,14.63,7.42
,-8.612,0.244,-4.374,-8.715,0.481,-4.905,10.57,15.12,6.79
,-8.72,0.306,-4.271,-8.674,0.572,-4.829,13.09,14.91,6.72
20292.0,-8.799,0.737,-4.716,-8.406,0.979,-4.96,13.09,13.86,5.6
,-8.928,1.189,-4.829,-8.512,0.103,-4.831,12.53,13.02,3.22
,-8.837,1.725,-5.207,-8.842,-0.538,-4.484,7.84,11.2,1.19
,-8.476,1.701,-5.181,-8.978,-0.567,-4.436,0.7,10.22,0.84
20367.0,-8.827,-0.419,-4.429,-8.72,0.05,-4.47,5.6,13.3,2.52
,-8.72,-0.359,-4.338,-8.693,0.318,-5.011,6.93,13.93,4.06
,-8.701,-0.263,-4.448,-8.521,0.763,-5.19,6.72,14.28,5.67
,-8.624,-0.144,-4.319,-8.275,1.065,-5.331,6.72,15.05,7.28
20443.0,-8.26,1.103,-5.279,-8.562,-0.428,-4.972,2.87,11.62,6.16
,-8.476,0.759,-5.269,-8.55,-0.677,-4.862,1.89,11.62,5.67
,-8.72,0.392,-5.217,-8.55,-0.617,-4.831,1.26,11.41,5.18
,-8.686,-0.053,-5.152,-8.5,-0.337,-4.905,0.14,11.27,5.46
20519.0,-8.469,0.328,-4.97,-8.392,1.577,-5.116,10.92,11.2,10.15
,-8.605,0.945,-5.059,-8.459,1.28,-4.934,11.83,10.92,9.87
,-8.588,1.503,-5.233,-8.526,0.919,-4.786,9.38,10.22,8.47
,-8.497,1.735,-5.26,-8.559,0.591,-4.714,5.53,10.22,7.21
20595.0,-8.528,0.141,-4.7,-8.306,0.761,-5.212,4.76,12.04,1.19
,-8.464,0.074,-4.745,-8.334,1.314,-5.262,8.82,11.69,0.84
,-8.545,0.132,-5.013,-8.411,1.73,-5.217,12.32,11.06,1.26
,-8.227,0.278,-5.257,-8.277,1.747,-5.286,15.96,11.27,1.61
20670.0,-8.569,1.737,-5.14,-8.258,0.275,-5.229,10.36,10.43,-2.8
,-8.368,1.366,-4.922,-8.339,0.273,-5.367,4.76,11.27,-3.01
,-8.179,0.931,-4.803,-8.533,0.16,-5.391,0.49,11.97,-2.66
,-8.009,0.419,-4.901,-8.681,0.163,-5.542,-1.47,11.76,-2.1
20746.0,-8.413,0.273,-5.707,-7.624,-0.199,-6.078,11.76,11.69,-1.68
,-8.368,0.302,-5.858,-8.059,-0.608,-6.037,12.39,11.27,-1.75
,-8.234,0.622,-6.009,-8.055,-1.23,-5.717,12.53,10.71,-2.17
,-7.849,0.421,-6.123,-8.423,-1.302,-5.903,10.22,10.99,-2.03
20821.0,-8.512,-1.278,-5.707,-8.129,0.715,-6.164,13.23,8.19,7.14
,-8.497,-1.201,-5.781,-7.99,0.436,-5.827,13.58,7.35,8.82
,-8.339,-1.173,-5.666,-8.033,0.948,-5.786,14.0,6.65,10.08
,-8.157,-0.483,-5.848,-8.083,1.127,-5.92,16.87,5.46,11.34
20897.0,-8.32,1.577,-5.652,-8.99,0.972,-5.25,13.3,3.92,11.27
,-7.892,1.689,-5.686,-8.713,1.005,-5.202,13.02,3.92,9.31
,-8.057,1.682,-5.578,-8.241,0.629,-5.305,11.62,4.27,7.7
,-8.442,1.201,-5.666,-8.062,0.471,-5.363,11.97,4.06,5.25
20973.0,-8.248,0.725,-5.832,-7.459,-0.28,-5.788,10.78,5.32,2.03
,-8.284,0.577,-6.131,-7.562,-0.072,-5.709,10.15,5.25,2.52
,-8.031,0.275,-6.205,-8.406,0.371,-5.755,10.22,5.11,3.57
,-7.791,0.199,-6.205,-8.844,0.617,-5.736,10.85,4.41,4.55
21049.0,-8.799,0.914,-5.767,-8.014,1.208,-6.597,12.74,3.85,4.76
,-8.344,1.007,-5.934,-8.172,1.053,-6.506,10.08,3.5,4.55
,-8.095,0.945,-6.016,-8.279,0.744,-6.291,7.7,3.5,4.27
,-7.956,1.007,-6.257,-8.222,0.251,-6.15,6.44,3.64,3.64
21124.0,-8.016,-0.153,-6.025,-8.174,0.273,-6.157,-1.96,5.53,2.94
,-7.889,-0.043,-6.131,-8.208,0.342,-6.111,-1.82,5.67,3.64
,-8.033,0.11,-6.116,-8.301,0.596,-5.937,-1.82,6.02,4.34
,-8.186,0.285,-6.078,-8.349,0.723,-5.767,-2.87,5.32,4.83
21200.0,-8.272,1.295,-6.119,-8.129,0.845,-5.602,-6.58,4.48,3.85
,-8.258,1.338,-6.25,-8.1,0.897,-5.602,-7.7,4.41,2.73
,-8.284,1.175,-5.894,-8.208,1.208,-5.8,-9.94,4.69,1.47
,-8.227,0.895,-5.599,-8.143,1.072,-5.915,-10.5,4.9,0.42
21276.0,-8.155,0.821,-6.083,-8.172,-0.694,-6.195,-9.17,2.59,-3.36
,-8.148,0.345,-6.245,-8.102,-0.615,-6.143,-10.36,2.8,-2.94
,-8.208,-0.297,-6.289,-8.193,-0.304,-5.992,-10.78,2.94,-1.4
,-8.241,-0.639,-6.329,-8.076,0.069,-6.044,-9.31,1.61,0.49
21352.0,-8.066,0.165,-6.044,-8.196,1.479,-5.997,-7.63,-4.55,6.72
,-8.062,0.419,-5.966,-8.294,1.467,-5.973,-8.4,-4.62,7.21
,-8.057,0.916,-6.001,-8.334,1.247,-5.899,-7.49,-4.97,6.79
,-8.062,1.307,-6.037,-8.308,0.94,-5.887,-7.14,-4.97,6.02
21428.0,-8.248,0.768,-5.906,-8.291,0.816,-6.162,-7.49,-5.04,2.45
,-8.057,0.828,-5.968,-8.406,0.818,-6.245,-2.17,-5.11,1.82
,-8.129,0.833,-6.155,-8.313,0.771,-6.277,2.52,-5.67,0.77
,-8.112,0.849,-6.104,-8.21,0.562,-6.114,5.74,-6.3,-0.35
21503.0,-7.985,0.648,-6.348,-8.327,0.325,-5.867,3.92,-11.83,-2.66
,-7.839,0.378,-6.013,-8.423,0.522,-5.798,1.47,-12.6,-2.38
,-7.901,0.223,-5.896,-8.306,0.68,-5.7,0.98,-13.37,-1.82
,-8.129,0.294,-5.966,-8.378,0.828,-5.568,1.68,-14.91,-0.98
21579.0,-8.301,0.885,-5.535,-8.334,1.086,-5.42,4.76,-19.6,-0.56
,-8.337,0.979,-5.513,-8.291,1.012,-5.291,3.78,-19.95,-0.63
,-8.418,1.103,-5.422,-8.236,0.916,-5.24,2.66,-21.07,-0.56
,-8.464,1.046,-5.439,-8.248,0.991,-5.252,1.96,-22.12,-1.12
21654.0,-8.373,0.943,-5.047,-8.502,0.826,-4.819,1.82,-23.03,-2.59
,-8.55,0.988,-4.977,-8.495,0.969,-4.846,1.82,-23.31,-2.59
,-8.524,0.541,-4.645,-8.483,1.094,-4.927,2.1,-23.38,-3.29
,-8.612,0.897,-5.054,-8.543,0.957,-4.669,3.22,-23.66,-3.71
21730.0,-8.744,0.818,-4.609,-8.418,0.708,-4.539,-1.4,-24.01,-5.32
,-8.835,0.608,-4.63,-8.483,0.682,-4.417,-2.24,-24.29,-5.81
,-8.804,0.605,-4.63,-8.543,0.799,-4.259,-2.24,-24.36,-6.3
,-8.547,0.68,-4.563,-8.689,0.814,-4.319,-2.17,-23.94,-6.37
21806.0,-8.76,0.773,-4.281,-8.698,0.479,-4.173,-1.19,-22.75,-7.07
,-8.753,0.579,-4.195,-8.614,0.483,-4.018,-2.38,-22.54,-6.79
,-8.813,0.285,-4.073,-8.681,0.428,-3.872,-1.96,-22.12,-6.79
,-8.799,0.302,-4.123,-8.902,0.483,-3.776,-0.14,-21.56,-6.93
21882.0,-9.007,0.572,-3.666,-9.072,0.749,-3.506,2.87,-19.18,-6.02
,-8.993,0.739,-3.687,-8.933,0.572,-3.513,2.73,-18.2,-6.37
,-9.043,0.672,-3.479,-8.856,0.581,-3.625,0.84,-17.5,-6.79
,-9.134,0.778,-3.527,-8.868,0.581,-3.869,-0.21,-16.94,-7.0
21957.0,-8.938,0.565,-3.644,-9.265,-0.196,-3.3,-1.05,-14.56,-8.19
,-9.134,0.23,-3.568,-9.244,0.038,-3.484,-1.33,-13.93,-7.56
,-9.095,-0.081,-3.36,-9.165,0.187,-3.494,-1.12,-13.02,-7.21
,-9.119,-0.278,-3.259,-9.074,0.091,-3.434,0.35,-11.97,-6.72
22033.0,-9.043,-0.005,-3.52,-9.06,0.56,-3.802,0.0,-9.59,-4.62
,-8.966,0.096,-3.484,-9.005,0.323,-3.891,2.59,-8.96,-4.48
,-9.0,0.433,-3.814,-9.067,0.287,-3.695,4.62,-8.75,-4.62
,-9.081,0.639,-3.85,-9.296,0.23,-3.632,4.55,-9.1,-4.76
22109.0,-9.383,0.347,-3.202,-9.217,0.68,-3.558,5.53,-8.47,-4.83
,-9.371,0.488,-3.417,-9.16,0.467,-3.561,4.27,-8.19,-5.39
,-9.323,0.677,-3.429,-9.107,0.194,-3.345,2.17,-7.98,-6.51
,-9.203,0.744,-3.484,-9.141,-0.091,-3.238,-0.14,-7.98,-7.07
22185.0,-9.174,-0.029,-3.4,-9.375,0.012,-3.125,-1.19,-7.0,-7.56
,-9.282,-0.014,-3.197,-9.34,0.115,-3.503,-0.7,-6.86,-7.0
,-9.299,0.01,-3.037,-9.22,0.16,-3.503,-0.63,-6.44,-6.23
,-9.383,-0.029,-3.099,-9.129,0.148,-3.668,-0.49,-5.88,-6.23
22260.0,-9.11,0.218,-3.728,-9.273,-0.203,-3.288,1.33,-5.39,-6.58
,-9.148,0.304,-3.69,-9.304,-0.39,-2.97,2.38,-5.46,-6.51
,-9.177,0.337,-3.577,-9.402,-0.419,-3.039,1.68,-5.46,-6.51
,-9.184,0.055,-3.278,-9.488,-0.282,-2.8,0.77,-5.74,-6.23
22336.0,-9.361,-0.108,-3.087,-9.239,-0.426,-2.819,2.87,-3.29,-4.34
,-9.284,-0.05,-2.986,-9.342,-0.491,-2.63,0.98,-2.8,-4.48
,-9.229,-0.086,-3.056,-9.474,-0.352,-2.675,-0.21,-2.31,-4.2
,-9.215,-0.242,-2.934,-9.399,-0.148,-2.745,-0.77,-1.68,-3.43
22411.0,-9.411,0.05,-2.845,-9.275,-0.146,-3.415,5.46,2.03,-0.91
,-9.308,0.103,-3.183,-9.337,-0.084,-3.381,4.55,2.66,-1.19
,-9.241,0.089,-3.309,-9.404,0.151,-3.611,3.57,3.01,-1.12
,-9.246,-0.057,-3.408,-9.306,0.333,-3.544,3.29,3.29,-0.84
22487.0,-9.246,0.254,-3.443,-9.351,-0.074,-3.238,6.16,2.87,-0.56
,-9.253,0.017,-3.386,-9.292,-0.168,-3.07,5.81,2.8,-0.7
,-9.232,-0.069,-3.486,-9.349,-0.342,-2.984,6.37,2.87,-0.63
,-9.287,-0.069,-3.391,-9.392,-0.306,-2.989,6.51,2.52,-0.77
22563.0,-9.459,-0.165,-3.199,-9.129,-0.091,-3.994,3.71,4.27,-0.28
,-9.344,-0.249,-3.317,-9.155,0.146,-4.061,2.73,4.41,-0.35
,-9.229,-0.359,-3.424,-9.227,0.292,-4.051,2.94,4.55,0.07
,-9.122,-0.302,-3.75,-9.229,0.273,-4.204,4.13,4.62,0.28
22639.0,-9.165,0.225,-4.19,-9.215,0.05,-3.802,4.83,0.77,-0.49
,-9.16,0.172,-4.293,-9.28,-0.055,-3.489,4.97,-0.28,-0.77
,-9.131,0.096,-4.288,-9.351,-0.11,-3.278,5.11,-1.26,-1.19
,-9.15,0.081,-4.073,-9.383,-0.215,-3.056,5.53,-2.17,-1.19
22715.0,-9.323,-0.306,-2.941,-9.462,-0.302,-2.8,0.7,-2.94,-1.82
,-9.33,-0.407,-2.773,-9.478,-0.282,-3.001,0.49,-2.31,-1.47
,-9.404,-0.45,-2.716,-9.373,-0.242,-3.12,1.05,-1.47,-0.91
,-9.44,-0.412,-2.697,-9.323,-0.194,-3.362,1.96,-0.49,-0.49
22790.0,-9.246,-0.132,-3.57,-9.342,0.024,-3.419,3.43,1.82,0.7
,-9.203,-0.084,-3.601,-9.392,0.06,-3.446,3.85,1.82,0.98
,-9.225,-0.048,-3.549,-9.387,0.022,-3.532,3.92,1.68,1.19
,-9.318,-0.079,-3.494,-9.354,-0.146,-3.508,3.85,1.54,1.05
22866.0,-9.246,-0.122,-3.424,-9.325,0.043,-3.568,3.01,1.19,0.98
,-9.273,-0.129,-3.501,-9.234,0.005,-3.515,3.99,0.84,0.98
,-9.265,0.01,-3.496,-9.229,-0.084,-3.494,4.2,0.84,0.91
,-9.299,0.098,-3.52,-9.28,-0.11,-3.41,3.71,0.63,0.63
22942.0,-9.347,-0.093,-3.374,-9.299,-0.17,-3.345,2.45,0.07,0.63
,-9.304,-0.151,-3.319,-9.282,-0.16,-3.309,2.66,0.35,0.77
,-9.311,-0.172,-3.245,-9.304,-0.151,-3.372,2.59,0.35,0.91
,-9.287,-0.112,-3.324,-9.351,-0.218,-3.403,2.38,0.35,0.77
23018.0,-9.318,-0.124,-3.439,-9.292,-0.053,-3.57,1.26,0.77,0.7
,-9.371,-0.12,-3.436,-9.292,-0.146,-3.534,1.47,0.91,0.7
,-9.311,-0.007,-3.482,-9.239,-0.189,-3.424,1.61,0.63,0.63
,-9.347,0.062,-3.518,-9.296,-0.175,-3.357,1.54,0.56,0.56
23093.0,-9.361,-0.11,-3.386,-9.399,-0.062,-3.305,2.59,0.0,0.98
,-9.354,0.014,-3.367,-9.366,-0.057,-3.295,2.17,-0.14,0.77
,-9.347,0.053,-3.293,-9.33,-0.084,-3.29,1.33,-0.21,0.63
,-9.363,0.014,-3.235,-9.308,-0.156,-3.259,0.63,-0.14,0.56
23169.0,-9.313,-0.203,-3.228,-9.287,0.022,-3.453,2.52,0.63,1.19
,-9.356,-0.112,-3.293,-9.246,-0.072,-3.41,3.08,0.63,1.12
,-9.404,-0.036,-3.343,-9.349,-0.091,-3.427,3.08,0.56,0.91
,-9.308,0.038,-3.443,-9.306,-0.132,-3.333,2.73,0.56,0.7
23244.0,-9.347,-0.139,-3.257,-9.332,-0.01,-3.302,3.71,0.56,1.12
,-9.39,-0.165,-3.171,-9.342,-0.069,-3.41,4.2,0.7,1.19
,-9.385,-0.048,-3.235,-9.335,-0.112,-3.463,4.2,0.91,0.98
,-9.378,-0.022,-3.245,-9.292,-0.081,-3.436,3.71,0.98,0.84
23320.0,-9.27,-0.093,-3.357,-9.361,-0.062,-3.163,4.06,1.05,1.12
,-9.349,-0.098,-3.269,-9.299,-0.163,-3.123,4.83,1.19,1.19
,-9.399,-0.005,-3.257,-9.32,-0.196,-3.12,4.97,1.05,1.19
,-9.368,-0.002,-3.195,-9.359,-0.096,-3.151,4.27,0.98,1.12
23396.0,-9.356,-0.101,-3.132,-9.373,-0.055,-3.403,2.87,2.24,0.77
,-9.404,-0.06,-3.135,-9.301,0.002,-3.496,2.38,2.45,0.77
,-9.383,-0.043,-3.159,-9.275,-0.005,-3.63,1.89,2.66,0.63
,-9.363,-0.057,-3.242,-9.256,-0.084,-3.654,1.82,2.8,0.63
23472.0,-9.28,-0.081,-3.592,-9.284,-0.079,-3.386,2.87,1.89,0.56
,-9.316,-0.034,-3.604,-9.289,-0.17,-3.29,3.22,1.61,0.49
,-9.313,0.043,-3.503,-9.311,-0.225,-3.23,2.45,1.54,0.35
,-9.308,0.041,-3.424,-9.323,-0.156,-3.159,1.26,1.33,0.14
23548.0,-9.296,-0.141,-3.039,-9.407,-0.273,-2.785,2.17,1.75,0.7
,-9.351,-0.115,-2.953,-9.347,-0.385,-2.747,2.17,2.17,0.7
,-9.361,-0.184,-2.888,-9.351,-0.395,-2.666,1.4,2.59,0.7
,-9.363,-0.242,-2.802,-9.316,-0.433,-2.515,0.63,3.22,0.77
23623.0,-9.387,-0.254,-2.489,-9.072,-0.029,-2.797,-0.35,7.49,2.45
,-9.462,-0.026,-2.711,-9.117,-0.208,-2.716,-0.91,8.26,2.03
,-9.373,0.041,-2.795,-9.277,-0.294,-2.934,-1.68,9.03,2.1
,-9.182,0.077,-2.946,-9.313,-0.306,-3.264,-2.66,9.94,2.31
23699.0,-9.196,-0.187,-3.594,-9.354,-0.101,-3.47,-3.71,12.81,3.01
,-9.206,-0.084,-3.589,-9.313,0.029,-3.549,-3.08,12.46,3.22
,-9.366,-0.124,-3.628,-9.383,0.17,-3.929,-2.45,12.32,3.5
,-9.438,-0.213,-3.563,-9.368,0.345,-4.216,-2.45,12.25,3.5
23775.0,-9.129,0.297,-4.326,-9.045,0.148,-3.853,-7.07,10.99,2.38
,-9.072,-0.031,-4.159,-9.062,0.139,-3.685,-8.89,10.5,2.8
,-8.961,-0.093,-3.929,-9.048,-0.062,-3.276,-7.91,10.01,3.15
,-9.06,0.072,-4.034,-9.203,-0.249,-3.233,-6.09,9.31,2.73
23851.0,-9.251,-0.213,-3.242,-8.894,-0.203,-3.589,-3.29,11.27,4.48
,-9.155,-0.148,-3.475,-8.923,0.285,-4.003,-3.22,11.69,4.48
,-9.095,-0.177,-3.534,-9.086,1.003,-4.465,-4.34,11.83,4.76
,-8.959,-0.357,-3.649,-9.131,1.225,-4.439,-4.13,12.11,5.39
23926.0,-9.06,1.012,-3.972,-9.328,0.208,-3.709,1.61,8.68,2.87
,-9.024,0.101,-3.422,-9.306,0.309,-4.212,-0.35,9.94,3.29
,-9.043,-0.165,-3.061,-9.177,0.012,-4.415,2.1,10.71,3.36
,-9.225,-0.005,-3.321,-8.904,-0.392,-4.346,5.6,10.78,2.45
24002.0,-8.739,-0.61,-4.269,-9.206,0.646,-4.233,5.67,11.41,4.55
,-8.622,-0.069,-4.245,-9.213,0.156,-3.97,10.99,10.92,4.34
,-8.722,0.67,-4.587,-9.131,-0.333,-3.415,13.65,9.94,3.43
,-8.938,0.938,-4.324,-9.134,-0.282,-3.752,11.69,9.31,3.15
24077.0,-9.052,-0.057,-3.821,-8.954,0.321,-3.467,8.12,10.36,3.92
,-9.014,0.139,-3.757,-9.141,0.596,-4.089,8.4,10.36,4.13
,-8.93,0.16,-3.632,-9.081,0.44,-4.424,6.44,11.2,4.34
,-8.899,0.117,-3.293,-8.916,0.002,-4.484,6.02,12.46,4.76
24153.0,-8.734,-0.639,-4.149,-8.973,1.376,-4.159,3.36,13.23,6.23
,-8.882,-0.725,-4.063,-8.942,1.713,-4.142,9.59,14.56,7.21
,-9.036,-0.302,-4.197,-8.954,1.488,-3.704,16.66,14.63,6.37
,-9.048,0.531,-4.054,-8.949,1.271,-3.771,20.72,14.28,5.04
24229.0,-8.887,0.79,-3.821,-8.988,-0.641,-4.343,-3.5,16.17,-1.05
,-8.892,0.218,-3.991,-8.82,-0.713,-4.52,-5.18,15.82,-0.77
,-8.961,-0.156,-4.293,-8.727,-0.605,-4.664,-4.27,15.26,-0.21
,-9.033,-0.443,-4.314,-8.684,-0.505,-4.759,-1.19,15.54,0.77
24305.0,-8.603,-0.23,-4.829,-8.799,0.285,-4.779,14.98,15.12,5.32
,-8.708,-0.089,-4.87,-8.574,0.548,-4.963,13.86,15.05,5.81
,-8.837,-0.041,-4.898,-8.626,0.498,-5.063,10.64,14.77,6.02
,-8.787,0.002,-4.8,-8.667,0.28,-4.984,8.19,14.77,6.37
24380.0,-8.614,-0.041,-4.755,-8.787,-0.785,-4.721,-0.77,14.42,5.81
,-8.823,-0.385,-4.48,-8.495,-0.852,-4.719,0.77,14.84,6.72
,-8.83,-0.799,-4.489,-8.418,-0.56,-4.673,2.94,14.35,7.77
,-8.868,-0.84,-4.678,-8.435,0.227,-4.946,6.51,14.07,9.17
24456.0,-8.576,0.838,-5.202,-8.605,1.381,-4.803,21.28,12.88,11.69
,-8.686,1.177,-5.25,-8.358,0.943,-4.547,18.76,10.71,10.08
,-8.667,1.441,-5.296,-8.203,0.282,-4.305,13.37,9.38,8.4
,-8.567,1.508,-4.886,-8.466,-0.158,-4.152,7.63,9.38,6.93
24531.0,-8.827,-0.225,-4.436,-8.212,2.041,-5.339,5.04,11.48,3.01
,-8.916,0.12,-4.69,-8.035,1.9,-5.166,12.67,11.13,3.08
,-8.799,0.732,-4.932,-8.509,1.472,-4.999,20.02,9.59,1.82
,-8.844,1.572,-4.996,-8.794,0.794,-4.793,24.64,7.07,0.0
24607.0,-8.732,0.0,-5.023,-8.299,-1.665,-5.499,7.0,9.87,-3.43
,-8.665,-0.974,-5.152,-8.1,-0.943,-5.688,3.15,10.92,-1.33
,-8.413,-1.943,-5.288,-8.016,-0.359,-5.721,2.38,11.13,1.33
,-8.83,-2.008,-5.487,-8.186,0.378,-5.793,6.16,10.71,3.29
24683.0,-8.48,0.794,-5.745,-8.653,-0.034,-5.004,16.38,5.88,8.47
,-8.471,0.998,-5.824,-8.725,0.062,-4.977,13.3,5.53,8.54
,-8.801,0.541,-5.279,-8.763,0.615,-5.284,8.26,5.67,8.54
,-8.859,0.378,-5.102,-8.579,1.017,-5.511,6.16,5.6,8.26
24759.0,-8.119,0.945,-5.458,-8.634,-0.333,-5.59,13.86,3.71,4.83
,-8.059,0.914,-5.477,-8.799,-0.737,-5.389,11.97,3.29,6.09
,-8.124,0.924,-5.865,-8.77,-1.012,-5.468,9.66,2.87,6.58
,-8.354,0.505,-6.009,-8.782,-1.113,-5.671,6.37,2.59,6.65
24835.0,-8.447,-1.007,-5.698,-8.375,0.244,-5.284,15.05,0.07,5.6
,-8.244,-0.299,-5.664,-8.33,0.424,-5.274,18.27,0.07,6.58
,-8.086,0.206,-5.681,-8.701,0.955,-5.166,18.97,-0.07,7.84
,-8.062,0.373,-5.839,-8.844,1.488,-5.298,17.43,-0.35,8.75
24910.0,-8.729,1.754,-5.281,-8.404,0.263,-5.544,13.58,0.98,5.67
,-8.763,1.711,-5.252,-8.267,-0.007,-5.595,10.29,1.12,3.57
,-8.626,1.29,-5.401,-8.378,0.11,-5.587,6.16,1.26,2.24
,-8.579,0.684,-5.398,-8.382,0.529,-5.748,3.15,1.89,2.03
24986.0,-8.301,0.627,-5.633,-8.564,0.648,-5.276,0.14,3.5,3.01
,-8.241,0.601,-5.47,-8.66,0.804,-5.374,-2.1,3.78,2.94
,-8.143,0.495,-5.353,-8.581,0.871,-5.54,-4.62,4.13,2.73
,-8.337,0.507,-5.288,-8.617,0.605,-5.324,-6.16,4.9,2.52
25062.0,-8.581,0.548,-5.315,-8.607,0.916,-5.303,-9.52,6.16,1.33
,-8.378,0.572,-5.444,-8.813,0.962,-5.363,-10.36,5.46,1.05
,-8.275,0.474,-5.367,-8.703,0.983,-5.384,-9.94,5.88,0.14
,-8.454,0.687,-5.351,-8.502,0.955,-5.401,-8.19,6.09,-0.91
25138.0,-8.131,0.739,-5.489,-8.471,-0.05,-5.341,-13.93,4.69,-5.32
,-8.313,0.428,-5.288,-8.43,-0.103,-5.439,-14.91,5.18,-5.11
,-8.512,0.122,-5.307,-8.363,-0.321,-5.453,-14.98,3.99,-5.11
,-8.588,0.081,-5.341,-8.447,-0.457,-5.473,-13.51,3.43,-4.83
25213.0,-8.447,-0.369,-5.676,-8.33,-0.168,-5.7,-8.75,1.05,0.56
,-8.37,-0.256,-5.793,-8.54,-0.136,-5.674,-7.56,0.56,1.47
,-8.189,-0.165,-5.863,-8.483,0.062,-5.75,-6.93,0.56,1.96
,-8.179,-0.115,-5.767,-8.392,0.445,-5.762,-6.79,0.77,2.03
25289.0,-8.234,0.739,-5.858,-8.614,0.349,-5.556,-6.3,-2.24,3.57
,-8.306,0.83,-5.654,-8.619,0.462,-5.47,-7.0,-1.82,3.15
,-8.445,0.627,-5.585,-8.428,0.574,-5.511,-8.19,-2.66,2.59
,-8.545,0.51,-5.587,-8.145,0.591,-5.614,-8.33,-3.5,2.45
25364.0,-8.26,0.524,-5.511,-8.543,0.641,-5.386,-0.42,-5.46,-0.28
,-8.409,0.534,-5.559,-8.631,0.943,-5.556,0.91,-6.23,-0.63
,-8.533,0.455,-5.501,-8.497,0.995,-5.599,1.61,-6.65,-0.49
,-8.356,0.799,-5.879,-8.354,0.931,-5.437,2.45,-7.21,-0.63
25440.0,-8.378,0.916,-5.386,-8.39,0.553,-5.236,-1.26,-8.82,-4.13
,-8.536,0.651,-5.367,-8.413,0.459,-5.15,-2.17,-9.66,-4.06
,-8.636,0.543,-5.298,-8.579,0.421,-5.054,-2.66,-10.43,-3.85
,-8.624,0.541,-5.322,-8.715,0.44,-5.114,-2.45,-11.34,-4.06
25516.0,-8.787,0.529,-5.193,-8.074,0.445,-5.044,4.55,-9.17,-5.25
,-8.837,0.455,-5.085,-8.014,0.452,-5.343,4.55,-9.66,-5.32
,-8.744,0.412,-5.159,-8.476,0.29,-5.042,2.24,-11.48,-5.04
,-8.325,0.34,-5.171,-8.746,0.239,-4.872,-0.77,-12.53,-4.76
25592.0,-8.758,0.39,-4.893,-8.428,0.309,-4.712,6.3,-13.23,-3.36
,-8.722,0.309,-4.843,-8.22,0.491,-4.654,7.0,-12.74,-2.1
,-8.981,-0.191,-4.645,-8.385,0.591,-4.592,6.79,-12.6,-1.89
,-8.959,-0.048,-4.635,-8.693,0.79,-4.542,5.88,-14.49,-2.38
25668.0,-8.894,0.933,-4.654,-8.667,0.364,-4.621,4.48,-15.19,-1.82
,-8.918,0.881,-4.692,-8.679,0.369,-4.582,2.45,-15.19,-2.03
,-8.875,0.687,-4.625,-8.66,0.455,-4.506,1.12,-14.84,-2.24
,-8.717,0.452,-4.63,-8.748,0.526,-4.465,2.45,-14.35,-2.31
25743.0,-8.765,0.488,-4.508,-8.808,0.4,-4.29,10.5,-14.77,-1.05
,-8.878,0.357,-4.398,-8.887,0.536,-4.381,9.8,-14.7,-0.84
,-8.849,0.29,-4.29,-8.904,0.646,-4.367,9.59,-14.77,-0.77
,-8.866,0.275,-4.271,-8.78,0.56,-4.25,10.22,-14.63,-0.77
25819.0,-8.813,0.306,-4.015,-9.05,0.749,-4.068,6.44,-15.12,-1.05
,-8.82,0.084,-3.783,-9.062,0.773,-4.042,7.0,-14.56,-1.12
,-8.935,0.22,-3.764,-9.062,0.799,-3.989,9.24,-14.35,-1.68
,-8.981,0.445,-3.903,-8.959,0.696,-3.786,9.59,-14.63,-2.31
25895.0,-8.93,0.632,-3.8,-8.99,0.304,-4.149,1.68,-13.86,-6.09
,-8.94,0.725,-3.924,-9.012,-0.002,-3.934,0.28,-14.21,-7.07
,-8.887,0.735,-3.977,-9.162,-0.112,-3.81,-1.75,-14.42,-7.91
,-9.012,0.68,-3.975,-9.22,0.041,-3.783,-3.64,-14.77,-8.26
25971.0,-9.115,0.053,-3.826,-9.117,-0.701,-3.463,-4.2,-14.98,-9.31
,-8.981,-0.041,-4.104,-9.234,-0.421,-3.455,-6.58,-15.19,-9.66
,-9.005,-0.325,-3.893,-9.162,0.053,-3.427,-7.56,-14.91,-8.89
,-9.002,-0.622,-3.707,-9.095,0.39,-3.594,-6.23,-14.63,-7.77
26046.0,-9.062,0.292,-3.36,-9.237,-0.024,-2.989,0.21,-13.44,-6.79
,-9.17,-0.213,-3.214,-9.332,0.352,-2.915,-0.7,-12.95,-6.23
,-9.141,-0.416,-3.135,-9.347,0.328,-2.848,1.82,-12.46,-5.74
,-9.129,-0.376,-2.883,-9.318,0.306,-3.154,5.32,-11.55,-5.32
26122.0,-9.253,0.136,-2.826,-9.182,-0.012,-3.226,-1.89,-8.82,-7.63
,-9.294,0.127,-3.661,-9.277,-0.426,-2.955,-2.1,-8.75,-8.26
,-9.141,0.337,-3.415,-9.442,-0.694,-2.955,-1.54,-8.75,-8.68
,-9.103,0.302,-3.455,-9.38,-0.811,-2.647,-1.82,-8.47,-8.33
26197.0,-9.335,-0.811,-2.697,-9.136,-0.026,-3.12,-1.89,-5.25,-5.95
,-9.332,-0.754,-2.668,-9.234,0.122,-3.245,-1.12,-4.34,-5.32
,-9.349,-0.541,-3.015,-9.167,0.146,-3.233,0.0,-3.78,-4.9
,-9.32,-0.313,-3.084,-9.275,-0.05,-3.008,0.7,-3.15,-4.55
26273.0,-9.344,-0.323,-2.812,-9.301,-0.4,-2.828,-1.68,-1.05,-3.64
,-9.442,-0.433,-2.804,-9.383,-0.388,-2.9,-0.7,-0.56,-3.36
,-9.445,-0.428,-2.855,-9.359,-0.38,-2.797,0.7,0.0,-3.29
,-9.311,-0.488,-2.723,-9.268,-0.424,-2.699,1.26,0.77,-2.8
26349.0,-9.282,-0.656,-2.608,-9.366,0.06,-2.958,-2.38,4.83,-0.91
,-9.361,-0.768,-2.371,-9.239,0.019,-3.326,-2.59,5.95,-0.56
,-9.495,-0.503,-2.402,-9.232,-0.115,-3.553,-2.45,7.07,-0.42
,-9.495,-0.218,-2.613,-9.28,-0.206,-3.795,-4.34,7.98,-1.26
26425.0,-9.277,-0.254,-4.054,-9.296,-0.172,-4.233,-6.58,8.12,-1.12
,-9.131,-0.263,-4.106,-9.225,-0.211,-4.14,-3.15,7.56,-0.35
,-9.177,-0.27,-4.094,-9.22,-0.249,-4.156,0.42,6.86,0.56
,-9.229,-0.177,-4.08,-9.265,-0.242,-4.202,2.94,6.16,0.91
26500.0,-9.265,-0.127,-4.2,-9.241,-0.22,-3.453,4.97,1.61,0.7
,-9.234,-0.069,-4.015,-9.375,-0.175,-3.252,4.9,1.12,0.84
,-9.189,-0.196,-3.872,-9.395,-0.136,-3.092,4.9,0.56,1.05
,-9.174,-0.285,-3.606,-9.426,-0.215,-3.156,6.37,0.28,1.47
26576.0,-9.246,-0.254,-3.106,-9.325,-0.309,-3.218,6.65,0.77,1.47
,-9.232,-0.311,-3.015,-9.368,-0.187,-3.317,6.02,1.47,1.75
,-9.287,-0.402,-3.029,-9.378,-0.237,-3.553,6.09,2.24,1.96
,-9.337,-0.409,-3.082,-9.244,-0.208,-3.587,6.65,2.73,2.1
26651.0,-9.196,-0.132,-3.723,-9.287,-0.079,-3.597,5.11,3.22,1.82
,-9.273,-0.065,-3.762,-9.349,-0.031,-3.807,5.46,3.08,1.89
,-9.265,-0.084,-3.757,-9.275,0.053,-3.786,5.53,2.8,1.89
,-9.253,-0.043,-3.611,-9.222,0.069,-3.793,5.53,2.45,1.89
26727.0,-9.206,-0.086,-3.649,-9.337,-0.366,-3.228,4.27,1.12,0.98
,-9.208,-0.29,-3.472,-9.301,-0.366,-3.226,4.41,0.98,1.33
,-9.292,-0.278,-3.479,-9.378,-0.321,-3.388,5.32,1.12,1.54
,-9.368,-0.268,-3.309,-9.296,-0.227,-3.386,5.25,1.26,1.61
26803.0,-9.227,-0.132,-3.486,-9.342,-0.144,-3.57,3.43,2.03,1.47
,-9.229,-0.163,-3.539,-9.258,-0.153,-3.568,2.73,2.24,1.54
,-9.246,-0.251,-3.575,-9.208,-0.179,-3.63,2.59,2.1,1.61
,-9.316,-0.211,-3.609,-9.198,-0.239,-3.606,3.15,1.82,1.68
26879.0,-9.222,-0.249,-3.582,-9.361,-0.311,-3.195,3.85,1.54,1.75
,-9.27,-0.237,-3.47,-9.387,-0.246,-3.307,3.99,1.96,2.03
,-9.215,-0.263,-3.288,-9.306,-0.12,-3.465,4.2,2.17,2.24
,-9.27,-0.306,-3.171,-9.244,0.01,-3.671,4.34,2.45,2.59
26955.0,-9.153,-0.069,-3.716,-9.28,-0.048,-3.415,2.24,2.8,1.96
,-9.1,-0.043,-3.786,-9.373,-0.084,-3.386,2.1,2.59,2.03
,-9.16,-0.081,-3.695,-9.32,-0.084,-3.338,2.03,2.45,2.03
,-9.239,-0.067,-3.573,-9.299,-0.096,-3.467,1.89,2.31,2.03
27030.0,-9.241,-0.146,-3.486,-9.277,-0.117,-3.565,-2.17,2.87,0.91
,-9.227,-0.158,-3.582,-9.308,-0.012,-3.592,-2.03,2.73,0.91
,-9.239,-0.227,-3.594,-9.244,-0.036,-3.63,-1.47,2.66,1.05
,-9.258,-0.175,-3.539,-9.229,-0.067,-3.64,-0.84,2.8,1.26
27106.0,-9.184,-0.218,-3.556,-9.268,-0.134,-3.723,0.0,2.38,1.47
,-9.241,-0.225,-3.582,-9.239,-0.158,-3.754,0.91,2.52,1.54
,-9.28,-0.132,-3.647,-9.21,-0.146,-3.86,1.75,2.38,1.61
,-9.282,-0.065,-3.74,-9.191,-0.089,-3.75,1.61,2.1,1.47
27182.0,-9.22,-0.11,-3.747,-9.325,-0.12,-3.427,2.8,1.05,1.68
,-9.201,-0.122,-3.676,-9.332,-0.079,-3.577,3.29,0.91,1.89
,-9.179,-0.103,-3.506,-9.253,-0.069,-3.594,3.57,0.84,1.96
,-9.222,-0.112,-3.486,-9.165,-0.045,-3.62,3.64,1.05,2.1
27258.0,-9.186,-0.098,-3.623,-9.289,-0.045,-3.494,1.61,0.91,1.54
,-9.232,-0.124,-3.606,-9.258,0.031,-3.513,1.96,0.98,1.54
,-9.239,-0.036,-3.51,-9.22,0.01,-3.553,2.1,0.91,1.68
,-9.344,-0.062,-3.508,-9.229,-0.017,-3.635,2.17,0.98,1.61
27333.0,-9.251,-0.043,-3.664,-9.306,-0.086,-3.4,0.77,0.7,0.77
,-9.229,-0.129,-3.611,-9.328,-0.022,-3.403,0.84,0.7,0.84
,-9.237,-0.213,-3.508,-9.311,-0.05,-3.369,1.12,0.63,1.05
,-9.292,-0.235,-3.408,-9.227,-0.053,-3.379,1.96,0.84,1.19
27409.0,-9.239,-0.148,-3.386,-9.22,-0.038,-3.518,1.05,1.75,0.91
,-9.273,-0.043,-3.539,-9.191,-0.038,-3.46,1.68,1.82,0.91
,-9.249,0.002,-3.592,-9.229,0.01,-3.563,1.82,1.68,0.63
,-9.203,0.007,-3.582,-9.27,0.081,-3.498,1.89,1.82,0.7
27485.0,-9.294,0.0,-3.613,-9.34,0.014,-3.743,0.77,1.82,0.14
,-9.239,0.024,-3.518,-9.268,-0.017,-3.697,0.56,1.75,0.21
,-9.282,-0.057,-3.515,-9.227,-0.06,-3.75,0.35,1.75,0.07
,-9.328,-0.124,-3.613,-9.191,-0.069,-3.845,0.56,1.75,-0.14
27561.0,-9.198,-0.038,-3.707,-9.244,-0.134,-3.506,2.24,0.91,-0.21
,-9.189,0.014,-3.735,-9.194,-0.124,-3.412,3.15,0.77,0.0
,-9.241,-0.019,-3.709,-9.28,-0.251,-3.302,3.64,0.63,0.07
,-9.27,-0.06,-3.594,-9.311,-0.182,-3.226,3.92,0.63,0.21
27636.0,-9.308,-0.187,-3.312,-9.273,-0.349,-2.982,3.99,1.12,0.7
,-9.237,-0.239,-3.233,-9.256,-0.366,-2.903,3.57,1.75,0.98
,-9.213,-0.297,-3.183,-9.184,-0.328,-2.819,3.43,2.24,1.33
,-9.225,-0.376,-2.982,-9.189,-0.402,-2.697,3.92,2.8,1.68
27712.0,-9.225,-0.469,-2.63,-9.284,-0.254,-2.907,3.5,7.7,3.78
,-9.251,-0.459,-2.546,-9.241,-0.127,-3.053,3.57,8.96,4.2
,-9.335,-0.354,-2.742,-9.265,-0.108,-3.319,3.85,9.87,4.55
,-9.399,-0.328,-2.867,-9.217,-0.024,-3.726,3.43,10.57,4.55
27787.0,-9.182,0.091,-3.979,-9.141,0.239,-3.807,0.77,13.23,4.97
,-9.067,0.074,-4.147,-9.167,0.392,-3.637,-0.07,13.02,4.69
,-9.033,0.069,-4.133,-9.316,0.622,-4.068,-0.21,12.81,4.55
,-9.05,0.105,-3.944,-9.287,0.847,-4.793,0.35,12.6,5.25
27863.0,-9.005,0.684,-5.056,-9.062,-0.921,-4.118,-8.96,8.82,1.33
,-8.839,0.129,-5.042,-9.292,-0.648,-3.795,-10.85,7.77,2.1
,-8.851,-0.546,-4.728,-9.344,0.014,-4.087,-9.87,7.28,3.36
,-8.899,-1.015,-4.259,-9.342,0.206,-4.159,-4.06,7.07,4.97
27939.0,-9.146,0.225,-3.982,-9.067,-0.048,-3.912,-1.54,4.62,3.64
,-8.957,0.244,-3.692,-9.019,0.23,-3.628,-4.83,4.76,4.2
,-8.935,-0.022,-3.601,-9.021,0.223,-3.932,-5.81,4.76,4.48
,-9.012,-0.223,-3.597,-9.007,0.072,-3.8,-4.34,4.76,3.99
28015.0,-9.002,0.263,-3.664,-9.016,-0.182,-3.486,2.87,5.11,4.48
,-9.038,0.258,-4.03,-8.89,-0.33,-3.015,5.11,4.97,3.71
,-9.098,0.297,-3.893,-8.993,-0.16,-3.034,5.95,5.18,3.22
,-9.105,0.144,-3.881,-9.148,0.206,-3.302,6.51,5.95,3.78
28091.0,-9.306,0.579,-3.405,-8.969,0.574,-3.783,8.33,10.71,4.83
,-9.229,0.538,-3.307,-9.146,0.751,-4.379,3.78,12.04,5.04
,-8.964,0.436,-2.91,-9.098,0.766,-4.604,1.68,13.44,5.53
,-8.93,0.452,-3.357,-8.823,0.237,-4.137,0.84,13.93,4.76
28166.0,-8.76,-0.431,-4.075,-8.978,-0.108,-4.652,-5.74,14.49,3.71
,-8.808,-0.833,-4.231,-8.856,0.017,-4.434,-2.45,14.21,3.99
,-9.028,-0.689,-4.329,-8.729,0.311,-4.348,2.45,13.79,4.55
,-9.122,-0.392,-4.635,-8.739,0.665,-4.293,5.88,13.23,5.46
28242.0,-8.94,0.744,-4.508,-8.595,0.409,-4.056,3.15,11.83,5.32
,-9.052,0.684,-4.594,-8.765,0.359,-3.9,-0.91,11.34,4.9
,-8.918,0.637,-4.403,-9.064,0.443,-4.087,-3.01,12.04,5.25
,-8.725,0.505,-4.243,-9.112,0.421,-4.149,-2.03,13.02,5.6
28318.0,-8.978,0.148,-4.008,-8.871,0.371,-4.508,1.68,13.09,4.48
,-8.782,0.01,-4.054,-8.674,0.579,-4.599,1.75,14.42,4.62
,-8.789,-0.036,-4.03,-8.507,0.431,-4.637,3.01,15.12,4.06
,-8.909,0.246,-4.314,-8.605,0.22,-4.704,3.99,14.7,3.5
28394.0,-8.715,0.213,-4.748,-8.689,-0.263,-4.53,0.28,13.79,5.74
,-8.641,0.524,-5.016,-8.732,-0.797,-4.561,3.64,12.88,5.18
,-8.555,0.785,-5.118,-8.827,-1.05,-4.709,4.27,12.32,4.83
,-8.576,0.407,-4.819,-8.77,-1.003,-4.96,2.1,12.46,5.6
28469.0,-8.469,-0.567,-5.15,-8.67,2.52,-5.121,9.31,12.81,12.46
,-8.516,0.115,-5.109,-8.801,2.271,-4.915,12.46,12.67,13.3
,-8.624,1.326,-5.042,-9.06,1.704,-4.893,14.56,12.25,12.67
,-8.564,2.082,-5.178,-9.043,0.955,-4.779,12.74,10.85,10.36
28545.0,-8.734,0.117,-4.606,-8.734,0.297,-4.659,-8.12,11.2,4.27
,-8.557,-0.479,-4.405,-8.629,1.101,-4.58,-2.66,12.53,4.2
,-8.552,-0.56,-4.302,-8.27,1.761,-4.769,3.99,13.44,4.48
,-8.638,-0.206,-4.353,-8.167,2.077,-4.757,9.24,13.16,4.62
28620.0,-8.43,1.816,-4.59,-8.76,-0.246,-4.817,3.08,10.99,0.14
,-8.926,1.486,-4.728,-8.617,-0.567,-5.13,0.28,10.71,-2.03
,-9.033,1.096,-4.69,-8.366,-0.644,-5.291,-1.47,10.5,-4.2
,-8.918,0.318,-4.669,-7.72,-0.605,-5.815,-2.45,10.15,-4.62
28696.0,-7.636,-0.775,-5.913,-9.069,-0.201,-5.48,15.12,9.45,2.87
,-7.935,-0.818,-5.867,-9.048,0.022,-5.054,16.38,9.24,6.44
,-8.66,-0.577,-5.832,-8.579,0.548,-4.982,17.85,8.47,8.82
,-8.887,-0.433,-5.611,-8.37,1.295,-5.243,17.08,7.42,9.1
28772.0,-8.344,1.56,-5.489,-7.626,0.648,-5.441,12.67,6.93,5.88
,-8.265,1.658,-5.556,-8.263,0.184,-5.291,12.18,6.51,5.04
,-8.253,1.711,-5.702,-9.074,0.325,-5.473,10.92,6.02,4.69
,-7.937,1.364,-5.846,-9.509,-0.012,-5.183,10.08,6.16,5.46
28848.0,-9.055,-0.129,-5.248,-7.947,0.457,-5.875,14.0,1.68,5.46
,-8.612,0.103,-5.518,-8.026,0.096,-5.681,14.63,1.89,6.44
,-8.291,0.101,-5.386,-7.985,-0.608,-5.339,13.65,2.66,7.14
,-8.04,0.34,-5.676,-8.363,-0.586,-5.374,12.6,1.89,7.14
28924.0,-8.629,0.096,-5.377,-8.83,2.0,-4.937,16.03,0.28,13.02
,-8.653,0.725,-5.286,-8.792,1.943,-4.874,18.34,-0.07,11.69
,-8.66,1.689,-5.147,-8.454,1.586,-4.764,18.97,0.28,9.8
,-8.521,1.922,-5.023,-8.387,1.328,-4.774,17.01,0.56,7.28
28999.0,-8.454,1.378,-4.92,-8.825,1.156,-5.437,9.45,3.01,1.61
,-8.275,1.177,-4.901,-8.583,0.794,-5.403,10.92,3.78,-0.28
,-8.172,1.242,-4.977,-8.5,0.256,-5.327,13.02,4.69,-1.82
,-8.61,1.35,-5.24,-8.528,0.246,-5.379,14.7,5.39,-2.66
29075.0,-8.287,0.175,-5.274,-8.301,0.507,-5.86,10.71,5.95,-0.91
,-8.284,-0.132,-5.202,-8.102,0.414,-5.973,7.84,5.88,-0.21
,-8.409,-0.165,-5.298,-8.074,0.261,-5.951,6.09,5.88,0.35
,-8.425,0.211,-5.638,-8.26,0.45,-6.013,5.74,5.81,0.7
29151.0,-8.514,0.766,-6.021,-8.157,-0.555,-5.709,0.98,7.21,0.63
,-8.655,0.627,-5.992,-8.086,-0.397,-6.126,-0.91,7.49,0.49
,-8.512,0.223,-5.93,-8.337,0.06,-5.982,-3.08,7.63,1.05
,-8.229,-0.263,-5.82,-8.43,0.433,-5.946,-4.41,7.7,2.45
29227.0,-8.488,0.964,-5.884,-8.643,1.912,-5.767,-3.92,4.34,5.88
,-8.471,1.409,-5.652,-8.744,1.493,-5.595,-5.32,4.41,4.76
,-8.464,1.869,-5.719,-8.607,0.993,-5.461,-6.65,4.9,2.59
,-8.469,2.065,-5.829,-8.275,0.629,-5.544,-8.19,5.32,-0.07
29302.0,-8.162,0.414,-5.788,-8.411,-0.165,-6.09,-11.55,1.47,-3.36
,-8.256,0.065,-5.899,-8.342,-0.089,-6.023,-9.87,0.98,-2.31
,-8.409,-0.117,-5.901,-8.488,-0.191,-5.635,-7.98,0.07,-1.19
,-8.483,-0.199,-5.949,-8.445,0.022,-5.681,-6.37,-0.49,-0.07
29378.0,-8.296,0.227,-5.65,-8.445,0.742,-5.676,-7.35,-1.4,4.97
,-8.083,0.395,-5.745,-8.521,1.11,-5.729,-8.26,-1.82,5.95
,-8.239,0.376,-5.607,-8.358,1.225,-5.702,-9.03,-3.01,6.16
,-8.27,0.479,-5.616,-8.318,1.031,-5.592,-8.05,-3.64,5.88
29453.0,-8.299,0.751,-5.554,-8.16,0.72,-5.377,-3.5,-3.08,3.22
,-8.469,0.462,-5.463,-8.44,0.852,-5.475,-0.84,-3.36,2.73
,-8.526,0.443,-5.336,-8.626,0.928,-5.652,0.98,-5.18,2.24
,-8.2,0.486,-5.353,-8.693,0.931,-5.396,2.31,-6.51,1.54
29529.0,-8.488,1.141,-5.709,-8.239,0.761,-5.41,3.57,-9.87,-1.4
,-8.279,0.964,-5.614,-8.363,0.713,-5.367,1.75,-9.73,-1.68
,-8.04,0.79,-5.516,-8.567,0.706,-5.319,1.4,-9.94,-2.24
,-8.076,0.794,-5.394,-8.562,0.529,-5.353,3.15,-10.29,-2.66
29605.0,-8.641,0.474,-5.288,-8.378,1.053,-5.164,4.48,-15.05,-1.05
,-8.504,0.452,-5.257,-8.413,0.936,-5.013,6.02,-15.54,-0.91
,-8.449,0.723,-5.248,-8.524,0.835,-4.913,7.35,-15.96,-1.12
,-8.447,0.936,-5.2,-8.691,0.842,-4.994,7.7,-16.17,-0.98
29681.0,-8.643,0.835,-4.925,-8.727,1.156,-4.803,3.08,-18.2,-1.33
,-8.5,0.938,-4.946,-8.768,1.228,-4.886,3.22,-17.85,-1.75
,-8.514,0.814,-4.602,-8.686,1.103,-4.932,3.5,-17.36,-3.01
,-8.701,0.665,-4.427,-8.595,0.876,-4.824,6.16,-17.43,-2.94
29756.0,-8.557,0.565,-4.649,-8.748,1.036,-4.513,-1.68,-18.97,-4.97
,-8.646,0.392,-4.573,-8.777,0.79,-4.429,1.19,-18.97,-5.95
,-8.715,0.763,-4.573,-8.861,0.577,-4.353,3.99,-18.83,-6.44
,-8.765,0.979,-4.664,-8.902,0.72,-4.322,3.71,-19.25,-7.0
29832.0,-8.916,0.938,-4.389,-8.715,0.096,-4.111,3.08,-19.39,-8.33
,-8.806,1.015,-4.396,-8.768,0.022,-4.006,1.4,-19.32,-8.75
,-8.768,0.909,-4.305,-8.961,0.282,-3.917,-0.98,-19.39,-8.96
,-8.758,0.428,-4.298,-8.949,0.546,-3.991,-2.66,-18.97,-8.82
29907.0,-9.026,0.782,-3.972,-8.887,0.426,-3.637,2.59,-18.2,-9.38
,-8.981,0.675,-3.939,-9.1,0.548,-3.518,0.77,-17.64,-9.31
,-8.873,0.57,-3.884,-9.139,0.625,-3.501,0.0,-17.29,-8.96
,-8.849,0.397,-3.743,-9.112,0.794,-3.58,0.42,-16.94,-8.68
29983.0,-9.04,0.835,-3.855,-9.184,-0.067,-3.53,-1.4,-15.33,-11.9
,-8.985,0.601,-3.575,-9.076,0.031,-3.599,-4.62,-15.12,-12.32
,-9.112,0.223,-3.577,-8.981,0.002,-3.448,-5.81,-14.7,-12.32
,-9.088,0.041,-3.455,-9.014,-0.091,-3.259,-6.3,-13.93,-12.53
30059.0,-9.165,-0.127,-3.159,-8.964,-0.337,-3.587,-3.29,-10.92,-10.64
,-9.198,-0.218,-3.046,-9.045,-0.486,-3.398,-2.31,-10.36,-10.22
,-9.237,-0.239,-3.556,-9.194,-0.397,-3.017,-1.68,-10.01,-10.36
,-9.079,-0.196,-3.625,-9.308,-0.105,-3.01,-0.91,-10.08,-10.08
30135.0,-9.397,0.268,-3.041,-9.38,-0.141,-2.704,10.57,-7.28,-6.86
,-9.198,0.196,-2.565,-9.383,-0.067,-2.764,6.16,-6.51,-7.07
,-9.229,-0.041,-2.469,-9.368,-0.177,-2.752,2.73,-5.6,-6.72
,-9.308,-0.206,-2.687,-9.299,-0.325,-3.101,1.61,-4.62,-7.07
30211.0,-9.198,-0.383,-3.082,-9.234,-0.086,-3.417,1.75,-0.21,-5.67
,-9.062,-0.433,-3.262,-9.282,-0.017,-3.321,2.8,0.07,-5.04
,-9.06,-0.33,-3.199,-9.246,-0.168,-3.393,3.57,0.63,-4.48
,-9.172,-0.294,-3.24,-9.229,-0.519,-3.482,4.27,1.26,-4.13
30286.0,-9.198,-0.541,-3.41,-9.162,0.242,-3.848,-0.84,2.24,-3.5
,-9.33,-0.349,-3.64,-9.095,0.086,-3.623,1.33,2.24,-3.22
,-9.318,-0.144,-3.838,-9.167,0.0,-3.553,2.73,1.89,-3.08
,-9.249,0.151,-3.912,-9.289,-0.273,-3.329,3.5,1.61,-2.66
30362.0,-9.337,-0.376,-3.161,-9.198,-0.081,-3.408,0.21,1.33,-2.24
,-9.328,-0.385,-3.161,-9.122,-0.043,-3.58,0.56,2.03,-2.1
,-9.332,-0.4,-3.171,-9.119,-0.151,-3.424,1.54,2.31,-1.75
,-9.325,-0.237,-3.319,-9.179,-0.275,-3.221,2.59,2.38,-1.61
30438.0,-9.28,-0.333,-3.195,-9.213,-0.531,-3.345,1.96,3.85,-0.63
,-9.395,-0.292,-3.381,-9.227,-0.445,-3.329,1.61,4.13,-0.98
,-9.234,-0.352,-3.3,-9.232,-0.101,-3.381,1.47,4.48,-0.77
,-9.22,-0.392,-3.278,-9.244,-0.026,-3.381,1.61,4.97,-0.14
30514.0,-9.289,0.017,-3.463,-9.227,-0.357,-3.735,3.01,6.09,0.49
,-9.234,-0.148,-3.585,-9.301,-0.117,-3.939,1.12,6.16,0.35
,-9.225,-0.278,-3.604,-9.232,0.045,-4.001,0.0,6.16,0.35
,-9.206,-0.426,-3.668,-9.217,0.079,-3.963,0.28,6.37,0.56
30589.0,-9.258,-0.045,-4.018,-9.208,-0.194,-3.867,2.31,4.69,0.56
,-9.229,-0.158,-4.032,-9.261,0.057,-3.888,2.1,4.2,0.42
,-9.091,-0.292,-4.001,-9.203,0.275,-4.013,2.45,4.13,0.7
,-9.131,-0.388,-3.786,-9.112,0.129,-3.953,3.01,3.99,1.05
30665.0,-9.081,-0.156,-3.891,-9.258,-0.062,-3.726,-0.63,2.52,0.07
,-9.052,-0.27,-3.798,-9.167,-0.134,-3.635,0.14,2.31,0.21
,-9.15,-0.27,-3.74,-9.253,-0.129,-3.709,1.4,1.89,0.35
,-9.246,-0.103,-3.764,-9.232,-0.17,-3.699,2.31,1.61,0.42
30740.0,-9.129,-0.268,-3.747,-9.179,-0.091,-3.661,0.07,1.82,0.07
,-9.158,-0.371,-3.63,-9.15,-0.12,-3.716,0.21,1.68,0.28
,-9.217,-0.335,-3.671,-9.184,-0.156,-3.764,1.05,1.75,0.49
,-9.273,-0.232,-3.63,-9.172,-0.12,-3.795,1.54,1.68,0.56
30816.0,-9.15,-0.184,-3.762,-9.198,-0.017,-3.891,2.8,1.4,0.91
,-9.119,-0.199,-3.817,-9.208,-0.048,-3.79,3.29,1.26,1.05
,-9.143,-0.177,-3.766,-9.206,-0.191,-3.769,3.57,1.33,1.33
,-9.22,-0.117,-3.826,-9.318,-0.287,-3.745,3.99,1.12,1.12
30892.0,-9.232,-0.22,-3.699,-9.158,-0.12,-3.723,3.29,0.42,1.19
,-9.227,-0.206,-3.63,-9.158,-0.158,-3.63,3.5,0.42,1.05
,-9.143,-0.175,-3.695,-9.191,-0.208,-3.616,3.64,0.56,1.05
,-9.155,-0.108,-3.699,-9.299,-0.151,-3.654,3.5,0.63,1.19
30968.0,-9.251,-0.05,-3.74,-9.112,-0.112,-3.752,4.27,0.77,1.4
,-9.222,0.026,-3.8,-9.131,-0.182,-3.68,3.99,0.77,1.33
,-9.155,0.036,-3.829,-9.184,-0.156,-3.597,3.5,0.63,1.19
,-9.105,-0.086,-3.783,-9.253,-0.132,-3.575,3.15,0.7,1.26
31043.0,-9.258,-0.017,-3.609,-9.225,-0.175,-3.699,3.64,0.7,1.33
,-9.215,0.007,-3.649,-9.258,-0.139,-3.69,2.94,0.91,1.19
,-9.184,-0.036,-3.692,-9.268,-0.263,-3.635,2.1,0.77,0.91
,-9.136,-0.148,-3.589,-9.239,-0.22,-3.666,1.82,0.91,1.05
31119.0,-9.182,-0.124,-3.69,-9.146,0.029,-3.79,2.8,1.33,1.19
,-9.234,-0.081,-3.656,-9.189,-0.038,-3.752,2.66,1.26,1.12
,-9.172,-0.077,-3.664,-9.203,-0.134,-3.766,2.31,1.33,1.05
,-9.21,-0.002,-3.766,-9.153,-0.139,-3.759,1.96,1.26,0.91
31195.0,-9.174,-0.151,-3.637,-9.21,-0.122,-3.656,3.22,0.91,1.19
,-9.162,-0.148,-3.589,-9.189,-0.206,-3.733,3.22,0.7,1.05
,-9.244,-0.11,-3.546,-9.165,-0.148,-3.764,2.31,0.84,0.84
,-9.229,-0.079,-3.575,-9.21,-0.203,-3.85,1.19,0.91,0.63
31271.0,-9.194,-0.091,-3.821,-9.206,-0.184,-3.68,2.45,0.49,0.98
,-9.196,-0.053,-3.86,-9.186,-0.211,-3.549,2.52,0.49,1.12
,-9.165,-0.151,-3.771,-9.244,-0.237,-3.568,1.89,0.07,1.05
,-9.194,-0.144,-3.731,-9.253,-0.196,-3.53,1.68,0.14,0.98
31347.0,-9.263,-0.23,-3.546,-9.127,-0.153,-3.714,0.0,0.35,0.98
,-9.191,-0.194,-3.546,-9.184,-0.208,-3.685,-0.28,0.49,0.98
,-9.222,-0.17,-3.656,-9.184,-0.187,-3.611,-0.84,0.49,0.84
,-9.203,-0.146,-3.666,-9.237,-0.17,-3.489,-1.54,0.28,0.7
31422.0,-9.191,-0.132,-3.599,-9.16,-0.089,-3.707,-1.75,0.63,1.12
,-9.237,-0.103,-3.594,-9.158,-0.211,-3.673,-2.17,0.7,1.19
,-9.256,-0.057,-3.463,-9.198,-0.156,-3.702,-3.01,0.84,0.77
,-9.237,0.002,-3.716,-9.222,-0.05,-3.637,-3.57,0.7,0.63
31498.0,-9.21,0.012,-3.697,-9.208,0.038,-3.991,-0.56,0.77,1.4
,-9.206,0.086,-3.821,-9.184,0.057,-3.881,-0.21,0.49,1.26
,-9.222,0.103,-3.85,-9.196,0.01,-3.726,-0.49,0.35,1.12
,-9.21,0.026,-3.965,-9.194,0.057,-3.666,-0.7,0.35,1.05
31573.0,-9.289,0.014,-3.609,-9.313,-0.024,-3.661,0.63,-0.42,1.54
,-9.268,0.034,-3.539,-9.246,-0.053,-3.642,0.42,-0.49,1.33
,-9.268,0.005,-3.623,-9.287,-0.045,-3.606,0.63,-0.63,1.19
,-9.263,-0.012,-3.609,-9.234,0.007,-3.623,0.77,-0.28,1.26
31649.0,-9.261,-0.014,-3.637,-9.198,-0.081,-3.623,2.1,-0.91,0.98
,-9.253,0.041,-3.685,-9.186,-0.124,-3.46,2.24,-0.77,0.84
,-9.253,0.057,-3.656,-9.263,-0.165,-3.386,2.1,-0.98,0.63
,-9.261,-0.005,-3.676,-9.304,-0.187,-3.29,1.96,-1.05,0.49
31725.0,-9.263,-0.117,-3.331,-9.174,-0.273,-3.422,1.82,-0.28,1.12
,-9.296,-0.074,-3.321,-9.229,-0.313,-3.331,1.47,0.0,1.12
,-9.194,-0.136,-3.343,-9.246,-0.299,-3.233,1.05,0.28,1.33
,-9.206,-0.213,-3.422,-9.251,-0.275,-2.96,1.12,0.49,1.61
31801.0,-9.32,-0.27,-2.972,-9.229,-0.101,-3.618,3.01,3.29,4.06
,-9.383,-0.048,-3.049,-9.275,-0.086,-3.64,2.17,3.92,3.92
,-9.308,0.05,-3.417,-9.273,0.012,-3.85,0.56,4.2,3.64
,-9.184,0.036,-3.573,-9.217,0.179,-3.786,-1.33,4.48,3.5
31876.0,-9.215,0.16,-3.601,-9.462,0.337,-3.029,2.94,4.13,5.04
,-9.261,-0.048,-3.374,-9.311,0.534,-3.099,3.43,4.34,5.32
,-9.399,-0.294,-3.18,-9.067,0.313,-3.319,4.13,4.83,5.25
,-9.454,-0.084,-2.986,-9.055,-0.28,-3.297,4.48,5.25,4.2
31952.0,-9.0,-0.615,-3.477,-9.079,0.007,-3.218,-11.55,7.49,2.52
,-8.99,-0.416,-3.582,-9.268,0.036,-3.453,-7.14,7.77,3.36
,-9.024,-0.156,-3.606,-9.363,0.127,-3.558,-3.43,8.33,4.76
,-9.04,-0.002,-3.51,-9.234,0.345,-3.711,-1.75,8.82,5.67
32027.0,-9.016,0.577,-3.838,-8.902,0.196,-3.776,3.78,8.19,4.62
,-9.069,0.584,-3.597,-9.076,-0.309,-3.221,2.73,8.26,4.13
,-8.997,0.538,-3.79,-9.208,-0.711,-3.149,2.17,8.54,3.15
,-8.94,0.543,-3.766,-9.155,-0.637,-2.958,0.91,8.54,2.24
32103.0,-9.251,-0.421,-3.214,-8.899,0.584,-3.764,7.91,11.34,5.46
,-9.206,0.199,-3.424,-8.899,0.392,-4.424,8.33,11.34,4.48
,-9.158,0.778,-3.841,-9.002,0.062,-4.465,5.32,11.41,3.92
,-9.055,0.861,-3.951,-9.162,-0.117,-4.42,0.07,11.9,3.99
32179.0,-9.095,-0.148,-4.3,-9.009,0.285,-4.274,-6.37,9.94,4.76
,-9.103,-0.06,-3.707,-9.091,0.275,-4.678,-3.36,10.5,5.04
,-9.045,-0.026,-3.747,-9.005,0.026,-4.642,-0.84,10.64,4.97
,-8.976,0.199,-3.877,-8.727,-0.036,-4.192,0.77,10.36,4.69
32255.0,-8.634,0.129,-3.723,-9.162,0.859,-3.982,11.2,11.55,8.05
,-8.89,0.51,-3.479,-9.332,0.498,-4.099,13.51,12.04,6.72
,-9.182,0.759,-3.503,-9.347,0.263,-4.228,11.06,12.25,6.02
,-9.217,0.909,-3.886,-9.064,0.014,-4.331,4.83,11.55,5.88
32331.0,-8.739,-0.148,-4.346,-8.878,-0.17,-4.238,-1.54,9.45,5.18
,-8.574,0.057,-4.381,-9.217,0.019,-4.066,1.05,9.31,6.09
,-8.504,0.206,-4.585,-9.426,0.242,-4.08,2.52,9.03,6.72
,-8.624,0.014,-4.477,-9.189,0.73,-4.463,2.8,9.38,7.7
32406.0,-8.751,0.933,-4.745,-8.966,0.771,-4.221,0.56,7.7,7.63
,-8.382,0.871,-4.685,-8.909,1.283,-4.408,-2.45,7.7,8.68
,-8.452,0.455,-4.398,-8.813,1.362,-4.338,-2.24,9.03,9.03
,-8.787,0.407,-4.247,-8.914,1.216,-4.295,1.82,10.01,8.75
32482.0,-8.842,0.747,-4.355,-8.964,0.591,-4.025,4.83,9.31,7.49
,-8.902,0.299,-4.204,-8.844,0.94,-4.429,5.04,10.01,7.28
,-8.985,0.136,-4.142,-8.703,1.204,-4.436,6.86,10.36,6.93
,-9.021,0.325,-4.164,-8.686,1.254,-4.415,9.03,9.73,6.23
32558.0,-8.926,1.062,-4.221,-8.801,0.663,-4.374,1.26,10.15,3.22
,-8.732,1.024,-4.207,-9.127,0.179,-4.235,-1.61,10.15,2.1
,-8.483,1.101,-4.413,-9.162,-0.122,-4.281,-2.8,11.13,1.68
,-8.466,1.0,-4.513,-9.179,-0.086,-4.329,-2.73,11.97,1.82
32634.0,-9.0,0.342,-4.637,-8.713,0.763,-4.348,7.63,9.1,4.34
,-8.394,0.933,-4.879,-9.081,0.675,-4.508,10.36,8.33,3.71
,-8.131,1.192,-4.838,-9.361,0.763,-4.343,10.64,9.17,3.22
,-8.272,0.933,-4.573,-9.038,1.094,-4.527,8.68,10.08,3.01
32709.0,-8.507,1.299,-4.628,-9.301,0.828,-4.625,10.5,7.84,-2.8
,-8.55,1.371,-4.716,-8.746,0.431,-4.826,11.9,8.05,-4.2
,-8.969,1.326,-4.91,-8.385,-0.043,-5.13,12.53,7.63,-5.32
,-8.815,1.213,-4.764,-8.275,-0.323,-5.14,12.67,7.35,-6.3
32785.0,-8.145,-0.481,-5.322,-8.526,0.103,-4.858,8.68,9.66,-1.19
,-8.555,-0.632,-5.307,-8.713,0.397,-4.879,12.67,7.56,-0.7
,-8.969,-0.335,-5.315,-8.77,0.287,-4.908,15.19,6.3,-0.21
,-8.588,-0.062,-5.159,-8.784,0.33,-5.262,16.38,7.21,1.12
32860.0,-8.461,0.294,-5.229,-8.643,1.007,-5.154,5.46,4.41,3.15
,-8.607,0.402,-5.049,-8.732,0.871,-4.968,5.11,5.88,4.55
,-8.748,0.806,-5.195,-8.559,0.426,-5.126,6.44,5.53,4.69
,-8.521,1.029,-5.269,-8.583,-0.44,-4.676,7.98,4.62,3.71
32936.0,-8.48,-0.168,-4.91,-8.916,0.754,-5.262,4.48,3.5,4.55
,-8.603,0.089,-5.051,-8.526,0.213,-5.102,5.95,3.92,4.55
,-8.945,0.165,-4.748,-8.212,-0.045,-5.054,7.63,4.13,4.41
,-8.983,0.507,-4.956,-8.177,0.014,-4.939,9.24,2.52,3.99
33012.0,-8.344,-0.414,-5.032,-9.21,0.426,-4.882,3.71,3.85,8.19
,-8.67,-0.491,-4.563,-8.969,0.842,-4.874,6.79,4.2,8.75
,-8.93,-0.132,-4.537,-8.557,1.541,-5.236,11.76,2.8,8.4
,-9.172,0.361,-4.872,-8.452,1.919,-5.317,14.28,1.4,7.63
33088.0,-8.449,2.027,-5.03,-8.624,0.615,-5.032,14.7,2.8,3.29
,-8.196,1.843,-4.972,-8.504,0.335,-5.154,9.94,3.99,2.38
,-8.27,1.462,-4.996,-8.569,0.096,-5.363,5.32,4.69,2.31
,-8.648,1.036,-5.09,-8.497,-0.132,-5.317,1.89,5.32,2.59
33163.0,-8.366,-0.034,-5.317,-8.459,0.629,-5.348,-1.33,7.21,5.04
,-8.354,0.357,-5.449,-8.354,0.67,-5.422,-0.84,7.7,5.53
,-8.674,0.687,-5.312,-8.476,0.938,-5.453,-1.54,7.42,5.39
,-8.787,0.921,-5.365,-8.595,1.062,-5.602,-4.13,6.3,5.04
33239.0,-8.612,0.797,-5.453,-8.607,1.237,-5.446,-9.94,7.49,5.81
,-8.82,0.916,-5.334,-8.6,0.921,-5.255,-10.08,6.93,5.25
,-8.784,1.043,-5.418,-8.473,1.019,-5.427,-10.64,5.81,4.48
,-8.638,1.261,-5.485,-8.402,0.993,-5.53,-11.06,5.39,3.29
33315.0,-8.531,0.89,-5.485,-8.679,0.067,-5.406,-13.86,3.5,2.1
,-8.662,0.699,-5.446,-8.591,-0.163,-5.317,-13.44,2.87,2.03
,-8.641,0.615,-5.494,-8.402,-0.263,-5.296,-13.16,1.96,1.89
,-8.579,0.227,-5.532,-8.241,-0.172,-5.322,-13.16,1.12,2.17
33391.0,-8.49,0.29,-5.398,-8.557,1.041,-5.322,-5.74,0.21,8.82
,-8.607,0.526,-5.331,-8.512,0.78,-5.09,-4.62,-0.35,9.45
,-8.796,0.646,-5.293,-8.437,0.79,-5.233,-4.76,-0.98,9.59
,-8.827,0.998,-5.346,-8.382,0.838,-5.3,-4.83,-1.33,9.31
33467.0,-8.49,0.998,-5.391,-8.734,1.45,-5.121,-0.21,-2.03,9.87
,-8.591,1.266,-5.427,-8.425,1.572,-5.032,1.96,-2.45,9.94
,-8.567,1.33,-5.413,-8.267,1.517,-4.97,3.92,-2.24,9.31
,-8.76,1.405,-5.176,-8.421,1.575,-4.889,4.9,-2.52,8.12
33542.0,-8.547,1.527,-5.164,-8.579,1.551,-5.319,4.27,-4.48,2.94
,-8.502,1.646,-4.913,-8.99,0.826,-4.8,5.25,-4.69,1.82
,-8.732,1.902,-5.494,-8.842,1.039,-5.197,6.93,-5.95,0.63
,-8.777,1.771,-5.324,-8.208,1.18,-5.243,6.16,-5.95,-0.77
33618.0,-7.93,1.082,-5.14,-8.976,1.515,-4.889,6.65,-7.84,-1.61
,-7.961,1.067,-5.118,-8.763,1.711,-5.047,7.0,-8.54,-1.54
,-8.378,1.005,-4.972,-8.547,1.539,-5.162,8.4,-8.96,-2.59
,-8.83,1.311,-4.879,-8.516,1.244,-5.231,9.87,-9.38,-3.5
33693.0,-8.672,0.787,-5.13,-8.722,0.912,-5.255,2.52,-11.9,-4.9
,-8.528,0.61,-5.25,-8.72,0.914,-5.02,3.99,-12.67,-4.9
,-8.485,0.538,-5.248,-8.531,1.4,-5.324,7.0,-12.46,-4.62
,-8.713,0.67,-5.351,-8.385,1.374,-5.3,10.15,-12.39,-4.41
33769.0,-8.469,1.053,-5.219,-8.574,0.838,-4.599,7.07,-15.54,-3.99
,-8.626,0.802,-5.083,-8.681,1.003,-4.422,4.69,-16.66,-4.55
,-8.65,0.553,-4.879,-8.686,1.189,-4.283,3.99,-17.5,-5.18
,-8.593,0.562,-4.755,-8.82,1.244,-4.123,4.41,-18.13,-5.25
33845.0,-8.952,1.297,-3.989,-8.689,1.127,-3.585,8.12,-18.41,-4.62
,-9.198,0.888,-3.905,-9.016,0.905,-3.695,6.79,-18.83,-5.53
,-8.985,1.211,-3.764,-9.117,0.96,-3.781,3.92,-19.88,-6.79
,-8.543,1.307,-3.735,-8.94,1.01,-3.855,2.45,-19.39,-7.49
33921.0,-8.634,0.849,-3.884,-9.189,0.476,-3.542,0.91,-16.73,-10.01
,-8.796,0.531,-3.774,-9.337,0.524,-3.613,1.89,-15.61,-9.8
,-8.866,0.522,-3.58,-9.296,0.632,-3.632,3.15,-14.91,-9.45
,-8.933,0.447,-3.465,-9.148,0.644,-3.716,4.41,-14.07,-8.89
33996.0,-8.825,0.445,-3.482,-9.234,0.208,-3.41,1.68,-11.62,-8.61
,-8.679,0.311,-3.295,-9.196,0.139,-3.408,1.68,-10.43,-7.91
,-8.677,0.299,-3.269,-9.139,-0.043,-3.226,2.03,-9.45,-7.56
,-8.988,0.182,-3.185,-8.976,-0.096,-3.032,2.94,-9.1,-7.0
34072.0,-9.079,0.002,-2.905,-9.1,0.57,-3.628,9.31,-4.76,-3.5
,-9.21,0.313,-3.116,-9.079,0.371,-3.57,10.22,-4.2,-3.5
,-9.294,0.61,-3.154,-9.093,0.419,-3.381,8.89,-4.13,-3.43
,-9.273,0.72,-3.532,-9.143,0.61,-3.683,5.53,-4.2,-3.36
34148.0,-9.234,0.775,-3.63,-9.033,-0.029,-3.982,5.74,-2.52,-4.41
,-9.206,0.869,-3.936,-9.115,-0.366,-3.585,3.01,-3.29,-4.97
,-9.062,0.754,-4.116,-9.239,-0.486,-3.417,0.0,-3.78,-5.46
,-8.995,0.337,-4.006,-9.217,-0.115,-3.223,-1.54,-3.71,-5.39
34224.0,-9.265,0.184,-3.396,-9.033,0.184,-3.226,1.89,-2.52,-4.62
,-9.206,0.208,-3.441,-9.167,0.438,-3.211,-0.35,-2.52,-4.62
,-9.124,-0.002,-3.099,-9.268,0.67,-3.233,-0.77,-1.82,-3.78
,-9.122,-0.069,-3.173,-9.275,0.634,-3.384,1.89,-1.05,-3.22
34300.0,-9.217,0.522,-3.556,-9.162,0.483,-3.967,2.03,-0.14,-3.57
,-9.131,0.459,-3.625,-9.253,0.486,-3.776,1.54,0.07,-3.78
,-9.124,0.371,-3.618,-9.196,0.517,-4.226,1.19,0.07,-3.71
,-9.1,0.395,-3.733,-9.083,0.199,-3.934,0.98,0.28,-4.2
34375.0,-9.122,-0.105,-3.721,-9.241,0.129,-3.475,-2.03,-1.47,-4.2
,-9.217,-0.184,-3.597,-9.217,0.041,-3.575,0.49,-1.4,-3.64
,-9.299,-0.108,-3.594,-9.177,0.053,-3.668,2.59,-1.4,-3.64
,-9.368,0.086,-3.668,-9.146,0.191,-3.69,3.57,-1.4,-3.43
34451.0,-9.194,0.266,-3.783,-9.172,-0.067,-3.695,3.92,-1.82,-3.15
,-9.203,0.203,-3.865,-9.268,-0.089,-3.443,3.64,-2.03,-3.01
,-9.179,0.151,-3.855,-9.292,0.05,-3.429,4.13,-2.17,-2.73
,-9.124,0.029,-3.719,-9.349,-0.007,-3.211,5.04,-2.24,-2.52
34526.0,-9.304,0.024,-3.24,-9.244,-0.022,-3.396,6.51,-1.47,-1.54
,-9.32,0.05,-3.34,-9.213,0.002,-3.273,6.02,-1.26,-1.89
,-9.194,0.086,-3.326,-9.21,0.055,-3.147,5.46,-1.05,-1.89
,-9.194,0.053,-3.386,-9.316,0.101,-3.125,5.11,-0.7,-1.54
34602.0,-9.33,0.196,-3.151,-9.143,-0.022,-3.704,6.72,0.98,-1.05
,-9.289,0.261,-3.348,-9.072,-0.084,-3.589,4.9,1.26,-1.54
,-9.232,0.151,-3.434,-9.206,-0.022,-3.436,2.45,1.19,-2.03
,-9.177,0.045,-3.68,-9.306,-0.029,-3.206,1.47,1.33,-2.17
34678.0,-9.416,0.086,-3.271,-9.122,0.11,-3.597,3.71,2.38,-0.91
,-9.409,0.182,-3.506,-9.194,-0.151,-3.47,3.01,2.31,-1.4
,-9.237,0.22,-3.546,-9.351,-0.187,-3.398,2.38,2.38,-1.54
,-9.134,0.246,-3.649,-9.363,-0.153,-3.24,2.24,2.17,-1.33
34754.0,-9.399,-0.012,-3.264,-9.105,0.203,-4.156,3.71,3.22,-0.56
,-9.371,0.177,-3.472,-9.069,0.012,-4.121,2.87,3.43,-1.19
,-9.33,0.388,-3.879,-9.172,0.002,-4.049,1.26,3.29,-1.68
,-9.127,0.397,-4.006,-9.282,0.177,-4.044,-0.56,2.66,-1.96
34829.0,-9.263,0.208,-3.824,-9.311,0.038,-3.606,4.06,0.42,-1.4
,-9.232,0.232,-3.75,-9.253,-0.06,-3.477,3.15,0.35,-1.4
,-9.28,0.112,-3.563,-9.201,-0.127,-3.4,2.17,0.07,-1.68
,-9.304,0.045,-3.484,-9.201,-0.179,-3.321,2.24,-0.14,-1.75
34905.0,-9.287,-0.27,-3.154,-9.227,-0.146,-3.266,4.13,1.12,-0.77
,-9.268,-0.22,-3.19,-9.189,-0.158,-3.305,4.69,1.54,-0.42
,-9.347,-0.258,-3.288,-9.189,-0.144,-3.264,4.55,1.82,-0.63
,-9.246,-0.242,-3.238,-9.313,-0.146,-3.245,4.9,2.1,-0.56
34981.0,-9.313,-0.055,-3.245,-9.287,0.031,-3.731,5.95,4.13,0.56
,-9.351,0.055,-3.271,-9.294,0.002,-3.879,5.25,4.48,0.42
,-9.373,-0.05,-3.405,-9.234,0.065,-4.006,4.06,4.55,0.35
,-9.27,-0.057,-3.453,-9.217,0.036,-4.104,3.43,4.55,0.21
35057.0,-9.076,0.005,-4.054,-9.184,0.012,-3.891,3.36,3.08,-0.07
,-9.215,0.148,-4.152,-9.189,0.005,-3.812,3.99,2.52,0.07
,-9.143,0.146,-4.066,-9.21,-0.081,-3.668,4.06,2.38,0.21
,-9.174,0.081,-3.927,-9.208,-0.086,-3.659,3.71,1.82,0.14
35132.0,-9.222,-0.158,-3.563,-9.284,-0.16,-3.561,2.45,0.98,0.0
,-9.167,-0.177,-3.482,-9.167,-0.158,-3.549,2.59,1.05,0.28
,-9.21,-0.215,-3.403,-9.184,-0.158,-3.649,2.59,1.26,0.42
,-9.184,-0.182,-3.455,-9.177,-0.201,-3.63,2.8,1.54,0.56
35208.0,-9.206,-0.251,-3.609,-9.229,-0.132,-3.561,3.15,1.82,1.19
,-9.22,-0.132,-3.582,-9.241,-0.048,-3.537,3.57,1.96,1.33
,-9.239,-0.12,-3.542,-9.229,-0.007,-3.668,3.57,2.03,1.4
,-9.258,-0.069,-3.534,-9.229,-0.084,-3.611,3.22,1.96,1.26
35283.0,-9.311,0.01,-3.716,-9.129,-0.048,-3.862,2.38,2.31,1.4
,-9.363,-0.024,-3.723,-9.148,-0.081,-3.908,2.24,2.17,1.19
,-9.263,0.069,-3.762,-9.179,-0.053,-3.932,2.17,2.03,1.12
,-9.189,0.072,-3.867,-9.184,-0.017,-3.893,1.89,1.68,1.12
35359.0,-9.172,0.036,-3.771,-9.268,0.055,-3.451,4.06,0.35,1.19
,-9.189,0.034,-3.723,-9.311,0.062,-3.475,4.2,0.35,1.26
,-9.215,0.038,-3.597,-9.198,0.091,-3.417,4.06,0.35,1.26
,-9.244,0.036,-3.501,-9.251,0.031,-3.446,3.5,0.56,1.19
35435.0,-9.246,-0.069,-3.518,-9.258,0.034,-3.697,0.49,1.19,0.35
,-9.22,-0.105,-3.561,-9.213,0.086,-3.711,0.56,1.47,0.49
,-9.217,-0.069,-3.532,-9.191,0.0,-3.728,0.63,1.61,0.35
,-9.234,-0.01,-3.654,-9.237,-0.084,-3.644,0.63,1.26,-0.07
35511.0,-9.201,-0.036,-3.762,-9.158,-0.043,-3.807,0.14,0.98,-0.14
,-9.189,0.029,-3.793,-9.198,0.026,-3.695,-0.07,0.63,-0.42
,-9.22,0.057,-3.731,-9.222,-0.012,-3.673,-0.42,0.42,-0.42
,-9.251,-0.043,-3.836,-9.184,0.022,-3.69,-0.63,0.28,-0.63
35587.0,-9.158,0.026,-3.64,-9.225,-0.067,-3.743,-0.63,0.0,-0.49
,-9.186,0.072,-3.683,-9.287,-0.17,-3.745,-1.19,0.07,-0.56
,-9.249,0.031,-3.678,-9.282,-0.158,-3.781,-1.75,0.07,-0.56
,-9.246,0.06,-3.743,-9.232,-0.057,-3.793,-2.59,-0.07,-0.7
35662.0,-9.258,0.019,-3.824,-9.261,-0.098,-3.52,0.28,-0.21,0.63
,-9.208,0.079,-3.692,-9.229,-0.06,-3.429,0.77,-0.21,0.84
,-9.198,0.0,-3.731,-9.232,-0.005,-3.417,1.54,-0.28,0.91
,-9.241,-0.057,-3.671,-9.301,0.124,-3.379,2.73,-0.35,1.12
35738.0,-9.249,0.206,-3.34,-9.287,-0.218,-3.132,5.11,-0.77,0.14
,-9.244,0.084,-3.199,-9.363,-0.093,-3.204,2.8,-0.56,-0.14
,-9.227,-0.12,-3.173,-9.296,-0.041,-3.204,0.77,-0.28,-0.28
,-9.198,-0.254,-3.168,-9.21,-0.041,-3.319,0.14,0.07,-0.28
35814.0,-9.172,-0.266,-3.317,-9.337,-0.613,-2.675,-1.4,1.96,0.28
,-9.172,-0.488,-3.206,-9.373,-0.486,-2.546,-0.77,2.59,1.19
,-9.16,-0.656,-3.01,-9.39,-0.273,-2.855,1.19,3.43,2.1
,-9.241,-0.761,-2.716,-9.323,-0.203,-3.278,3.92,4.55,3.43
35890.0,-9.203,-0.136,-3.439,-8.88,0.093,-4.128,4.76,8.61,4.97
,-9.244,-0.005,-4.149,-9.076,0.103,-3.819,4.27,8.82,5.18
,-8.961,0.005,-4.219,-9.361,0.156,-3.357,3.64,8.54,5.25
,-8.815,0.01,-4.257,-9.622,0.22,-3.297,4.41,8.4,6.3
35965.0,-9.627,0.153,-2.953,-8.94,-0.014,-3.987,2.38,7.98,6.65
,-9.505,0.05,-3.003,-9.002,0.002,-4.034,-0.42,8.75,6.23
,-9.34,-0.172,-3.355,-8.971,-0.175,-3.817,-4.62,9.1,4.34
,-8.978,-0.184,-3.467,-9.0,-0.244,-3.453,-6.93,9.38,3.08
36041.0,-9.064,-0.005,-3.113,-8.765,1.096,-4.233,-12.95,8.75,4.34
,-9.232,0.316,-2.857,-8.658,0.053,-4.307,-12.04,8.82,3.85
,-9.203,1.007,-3.585,-8.686,-0.749,-4.08,-13.3,8.05,1.05
,-8.88,1.496,-3.807,-8.935,-0.979,-3.953,-15.61,7.0,-0.91
36116.0,-9.105,-0.357,-3.855,-9.105,1.223,-3.247,4.41,8.96,2.87
,-9.368,0.663,-3.987,-9.079,1.125,-3.494,9.1,8.89,2.73
,-9.335,1.158,-3.64,-9.119,0.909,-4.322,8.19,9.17,2.8
,-9.28,1.295,-3.743,-9.119,0.467,-4.422,4.9,9.31,2.73
36192.0,-8.794,-0.431,-4.602,-9.227,0.012,-3.948,-13.58,8.19,0.0
,-8.674,-1.106,-3.924,-9.244,0.459,-4.018,-11.76,10.15,1.68
,-8.772,-1.424,-3.673,-8.978,0.601,-3.776,-5.04,11.27,2.73
,-9.098,-0.838,-3.805,-8.928,0.409,-3.116,1.47,11.34,2.66
36268.0,-9.117,0.246,-3.46,-8.813,-0.495,-4.681,0.56,12.67,5.11
,-9.179,0.067,-3.479,-8.839,-0.677,-4.235,2.8,11.69,4.9
,-9.062,-0.191,-4.149,-8.985,-0.462,-4.006,3.92,10.92,5.46
,-8.804,-0.189,-4.537,-9.072,0.043,-3.987,5.74,10.85,6.72
36344.0,-9.206,0.787,-4.104,-8.861,1.156,-4.491,21.98,14.56,10.08
,-9.093,1.464,-4.185,-8.978,0.51,-4.602,16.17,14.49,8.68
,-8.878,1.656,-4.259,-8.995,-0.227,-4.422,8.12,14.49,7.77
,-8.811,1.51,-4.343,-8.751,-0.778,-4.2,0.0,13.72,6.23
36419.0,-8.691,-1.175,-3.848,-8.904,0.823,-4.702,3.57,14.07,7.63
,-8.832,-0.993,-3.8,-8.66,1.228,-4.695,12.88,14.98,9.24
,-8.899,-0.462,-3.975,-8.533,1.515,-4.733,20.23,15.47,10.71
,-9.048,0.213,-4.279,-8.495,1.644,-4.491,23.03,14.91,11.41
36495.0,-8.631,1.567,-4.597,-8.88,-1.094,-4.204,5.25,13.51,7.42
,-8.672,1.029,-4.764,-8.861,-0.605,-4.094,-1.33,12.6,6.93
,-8.76,-0.014,-4.657,-8.71,0.278,-4.259,-6.93,12.81,8.05
,-8.818,-0.83,-4.525,-8.691,1.149,-4.298,-7.63,13.37,9.45
36571.0,-8.844,1.886,-4.597,-8.177,1.22,-4.97,16.1,14.0,7.91
,-8.897,2.268,-4.8,-8.423,0.553,-4.815,9.66,13.79,6.58
,-8.839,1.974,-4.654,-8.928,-0.045,-4.944,0.56,13.51,5.32
,-8.437,1.826,-4.771,-9.229,-0.273,-4.872,-5.88,12.95,4.06
36647.0,-8.942,-0.354,-4.831,-8.504,0.28,-5.001,3.78,13.65,3.85
,-8.483,-0.017,-5.027,-8.476,0.345,-5.169,8.26,14.14,4.34
,-8.275,0.144,-5.071,-8.497,0.39,-5.075,10.92,13.93,4.69
,-8.39,0.187,-5.027,-8.574,0.687,-4.831,12.32,13.37,5.04
36723.0,-8.454,1.582,-4.987,-8.868,1.857,-4.745,14.91,7.7,1.33
,-8.471,2.23,-4.829,-8.741,0.933,-4.652,17.99,7.7,-2.03
,-8.71,2.426,-4.75,-8.413,-0.002,-4.547,17.78,7.84,-5.18
,-8.765,2.209,-4.69,-8.636,-0.629,-4.791,13.65,8.47,-7.0
36798.0,-8.16,-0.797,-4.932,-8.681,0.299,-5.659,12.39,10.01,-0.42
,-7.954,-0.672,-5.463,-8.562,0.392,-5.544,17.71,8.82,1.61
,-8.26,-0.512,-5.654,-8.677,0.505,-5.252,20.23,9.1,2.8
,-8.519,-0.251,-5.64,-8.679,0.651,-5.396,21.42,8.96,4.06
36874.0,-8.526,0.625,-5.379,-8.33,0.584,-5.597,11.13,8.05,3.22
,-8.586,0.687,-5.219,-8.622,0.33,-5.494,10.15,7.28,2.24
,-8.22,0.883,-5.458,-8.54,0.268,-5.42,10.36,6.86,1.54
,-8.21,0.94,-5.709,-8.27,0.522,-5.372,11.13,7.07,1.47
36949.0,-8.2,0.615,-5.64,-8.804,-0.574,-5.248,13.23,4.06,4.62
,-8.583,0.562,-5.7,-8.536,0.079,-5.422,14.35,3.15,3.36
,-9.122,0.639,-5.638,-7.947,0.345,-5.53,14.14,2.94,2.66
,-8.988,-0.108,-5.25,-7.624,0.457,-5.879,12.39,2.24,1.4
37025.0,-7.894,0.12,-5.757,-8.636,0.05,-5.516,10.64,0.91,2.17
,-8.275,-0.328,-5.573,-8.906,0.44,-5.616,9.1,0.7,3.01
,-8.519,-0.428,-5.642,-8.796,0.656,-5.489,10.64,-0.21,4.41
,-8.591,-0.189,-5.547,-8.521,0.782,-5.339,11.83,-0.07,5.32
37101.0,-8.569,0.761,-5.183,-8.315,0.933,-5.389,4.06,2.52,3.78
,-8.603,0.62,-5.138,-8.49,0.94,-5.508,1.96,3.22,4.06
,-8.418,0.909,-5.212,-8.457,0.952,-5.528,1.19,4.06,4.2
,-8.291,1.05,-5.26,-8.32,1.129,-5.489,0.0,5.6,4.2
37177.0,-8.236,1.029,-5.621,-8.71,0.503,-5.48,-9.24,7.63,2.73
,-8.256,0.55,-5.492,-8.617,0.689,-5.607,-11.62,8.61,2.87
,-8.373,0.11,-5.386,-8.607,0.704,-5.585,-11.27,9.59,2.87
,-8.564,0.347,-5.42,-8.545,0.78,-5.619,-10.92,9.8,2.66
37252.0,-8.547,0.682,-5.401,-8.308,-0.239,-5.791,-12.18,8.68,-1.19
,-8.418,0.715,-5.688,-8.37,-0.488,-5.808,-12.74,7.91,-0.98
,-8.26,0.514,-5.695,-8.32,-0.622,-5.719,-13.44,7.7,-0.35
,-8.267,0.122,-5.633,-8.37,-0.428,-5.662,-14.14,7.0,0.49
37328.0,-8.363,-0.007,-5.712,-8.533,0.711,-6.011,-6.02,4.13,5.04
,-8.445,0.546,-5.899,-8.681,0.445,-5.681,-5.18,3.22,5.25
,-8.509,0.787,-6.006,-8.428,0.218,-5.676,-5.95,2.8,5.74
,-8.392,0.79,-6.114,-7.992,0.39,-5.633,-7.84,3.15,6.3
37403.0,-7.784,0.548,-5.762,-8.746,0.61,-5.846,-5.6,-0.14,5.81
,-8.007,0.73,-5.784,-8.334,0.337,-5.755,-4.06,-0.63,6.02
,-8.382,0.641,-5.745,-8.035,0.258,-5.805,-3.64,-1.19,6.44
,-8.756,0.565,-5.729,-7.889,0.297,-5.628,-3.29,-1.89,6.72
37479.0,-7.978,0.572,-5.678,-8.38,1.29,-5.494,1.54,-5.32,6.37
,-8.248,0.876,-5.714,-8.904,1.096,-5.312,3.99,-5.6,5.32
,-8.5,1.228,-5.628,-8.658,1.395,-5.511,5.25,-5.81,4.55
,-8.624,1.374,-5.676,-8.32,1.586,-5.322,5.53,-5.53,3.92
37555.0,-7.999,1.603,-5.324,-8.519,1.017,-5.013,3.57,-8.33,-1.47
,-8.009,1.469,-5.162,-8.603,0.905,-5.15,2.45,-8.12,-2.24
,-8.275,1.223,-5.078,-8.533,0.969,-5.231,2.03,-7.91,-2.87
,-8.445,1.05,-5.056,-8.433,0.871,-5.24,2.17,-7.7,-2.94
37631.0,-8.349,0.692,-5.152,-8.224,0.452,-5.075,3.78,-7.98,-4.41
,-8.399,0.785,-5.276,-8.349,0.342,-5.004,3.85,-8.96,-4.48
,-8.332,0.66,-5.214,-8.423,0.371,-5.027,2.45,-9.8,-4.2
,-8.236,0.591,-5.176,-8.545,0.5,-5.006,1.19,-10.36,-3.85
37707.0,-8.516,0.871,-5.264,-8.469,0.694,-4.874,7.28,-10.85,-1.96
,-8.509,0.711,-4.903,-8.502,0.876,-4.905,6.44,-10.43,-1.12
,-8.509,0.713,-4.87,-8.61,0.981,-4.896,7.28,-10.15,-0.91
,-8.571,0.713,-5.02,-8.703,0.919,-4.865,7.98,-10.01,-1.05
37782.0,-8.626,1.127,-4.829,-8.756,0.869,-4.688,3.08,-12.67,-3.43
,-8.521,1.103,-4.795,-8.861,0.981,-4.824,0.14,-12.74,-4.13
,-8.624,0.979,-4.805,-8.792,0.9,-4.779,-1.61,-12.53,-4.55
,-8.629,0.871,-4.8,-8.591,0.802,-4.898,-1.89,-12.6,-5.25
37858.0,-8.485,0.692,-4.826,-8.868,0.84,-4.903,0.35,-12.32,-6.44
,-8.471,0.459,-4.764,-8.713,0.869,-4.841,2.17,-11.83,-6.09
,-8.595,0.426,-4.841,-8.626,0.687,-4.817,4.83,-11.69,-6.09
,-8.741,0.577,-4.898,-8.507,0.56,-4.74,6.65,-12.04,-6.58
37934.0,-8.61,0.526,-4.59,-8.859,0.921,-4.578,2.24,-12.81,-6.02
,-8.765,0.555,-4.456,-8.825,0.804,-4.606,3.22,-13.44,-6.3
,-8.993,0.708,-4.566,-8.923,0.864,-4.496,3.57,-14.21,-7.07
,-9.028,0.835,-4.532,-8.969,0.926,-4.53,2.73,-14.42,-7.56
38010.0,-8.83,0.897,-4.52,-8.713,-0.235,-4.24,-0.77,-15.4,-10.5
,-8.741,0.718,-4.429,-8.918,-0.163,-4.212,-2.03,-15.33,-11.2
,-8.684,0.385,-4.133,-9.06,-0.117,-4.156,-2.66,-15.12,-11.06
,-8.583,-0.005,-4.19,-9.055,0.098,-4.089,-2.45,-15.19,-10.64
38085.0,-9.05,0.165,-3.97,-9.031,0.184,-3.695,6.86,-15.33,-7.63
,-9.014,0.28,-4.006,-9.021,0.067,-3.465,5.95,-15.05,-8.12
,-8.921,0.328,-3.908,-9.088,-0.045,-3.278,4.2,-15.05,-8.33
,-8.859,0.33,-3.831,-9.079,0.045,-3.295,2.52,-14.63,-7.84
38161.0,-9.043,0.251,-3.168,-9.141,0.026,-2.876,5.11,-11.9,-7.84
,-9.045,0.306,-3.099,-9.215,-0.017,-2.931,4.34,-11.13,-7.91
,-9.143,0.29,-3.101,-9.33,0.055,-3.195,2.87,-10.01,-8.05
,-9.146,0.242,-3.156,-9.103,0.053,-3.18,1.47,-9.03,-8.19
38236.0,-8.988,-0.273,-3.163,-9.229,-0.249,-3.338,-1.33,-4.69,-7.49
,-9.005,-0.428,-3.166,-9.122,-0.184,-3.666,-0.35,-3.64,-6.86
,-9.172,-0.541,-3.099,-9.074,-0.407,-3.553,2.17,-2.8,-6.3
,-9.251,-0.345,-3.4,-9.031,-0.38,-3.695,4.13,-2.03,-5.67
38312.0,-9.088,-0.321,-3.637,-9.103,0.108,-3.807,8.54,0.07,-2.31
,-9.026,-0.254,-3.678,-9.179,0.034,-3.807,9.8,0.63,-2.1
,-9.014,-0.029,-3.733,-9.091,-0.074,-3.893,10.08,0.42,-1.96
,-9.105,0.024,-3.807,-9.036,-0.153,-3.683,8.89,0.49,-2.17
38388.0,-9.182,-0.067,-3.766,-9.091,0.163,-4.07,5.88,0.49,-2.31
,-9.122,0.168,-3.833,-9.076,0.062,-3.934,6.72,0.7,-2.52
,-9.107,0.309,-3.85,-9.1,-0.029,-3.9,6.16,0.28,-2.8
,-9.139,0.239,-3.991,-9.296,-0.017,-3.999,4.69,0.07,-3.22
38464.0,-9.273,-0.034,-4.056,-9.115,-0.345,-3.719,2.17,-1.05,-3.92
