Timestamp,AccX,AccY,AccZ,GyroX,GyroY,GyroZ,MagnX,MagnY,MagnZ
0.0,-9.416,0.093,-3.084,-9.457,0.153,-3.199,2.45,1.61,0.28
,-9.416,0.065,-3.108,-9.337,0.091,-3.226,2.45,1.61,0.28
,-9.45,0.127,-3.142,-9.385,0.091,-3.149,2.52,1.33,0.07
,-9.44,0.151,-3.199,-9.402,0.156,-3.173,2.52,1.33,0.0
75.0,-9.459,0.148,-3.101,-9.402,-0.005,-3.108,3.08,0.91,0.28
,-9.407,0.17,-3.072,-9.416,0.045,-3.12,3.15,0.98,0.21
,-9.481,0.165,-3.056,-9.414,0.136,-3.106,3.01,0.77,0.14
,-9.469,0.141,-3.092,-9.402,0.105,-3.061,2.73,0.84,0.21
150.0,-9.414,0.026,-2.922,-9.485,0.141,-3.017,2.17,0.77,0.14
,-9.462,0.084,-2.903,-9.435,0.117,-3.034,2.45,0.98,0.35
,-9.464,0.124,-2.881,-9.407,0.084,-3.094,2.59,1.19,0.42
,-9.485,0.163,-2.9,-9.426,-0.005,-3.108,2.73,1.19,0.42
226.0,-9.404,-0.024,-3.094,-9.426,0.189,-3.046,3.22,1.75,0.77
,-9.416,0.031,-3.039,-9.44,0.172,-3.096,3.78,1.89,1.05
,-9.474,0.134,-3.037,-9.44,0.189,-3.137,4.06,1.75,1.05
,-9.462,0.144,-3.025,-9.43,0.172,-3.125,3.57,1.61,0.91
302.0,-9.387,0.153,-3.147,-9.421,0.168,-3.049,2.87,1.4,0.63
,-9.416,0.175,-3.077,-9.426,0.077,-3.118,2.94,1.47,0.63
,-9.404,0.165,-3.058,-9.325,-0.012,-3.082,2.59,1.4,0.56
,-9.459,0.151,-3.029,-9.387,-0.101,-3.128,2.45,1.4,0.56
378.0,-9.423,-0.007,-3.039,-9.426,0.196,-3.027,3.5,1.4,0.91
,-9.481,0.12,-3.07,-9.438,0.17,-3.027,3.29,1.33,0.84
,-9.44,0.17,-3.046,-9.474,0.187,-2.989,2.45,1.12,0.7
,-9.409,0.148,-3.051,-9.43,0.208,-2.991,2.03,1.33,0.63
453.0,-9.387,0.129,-2.998,-9.445,0.091,-3.087,2.1,1.54,0.49
,-9.411,0.074,-3.001,-9.442,0.086,-3.053,2.03,1.68,0.56
,-9.426,0.065,-3.01,-9.378,-0.017,-3.075,2.31,1.68,0.63
,-9.471,0.077,-3.063,-9.421,0.002,-3.087,2.24,1.61,0.56
529.0,-9.438,0.144,-3.084,-9.447,0.141,-3.128,2.8,1.75,0.77
,-9.423,0.182,-3.058,-9.452,0.148,-3.132,2.66,1.82,0.7
,-9.426,0.096,-3.092,-9.385,0.136,-3.137,2.1,1.75,0.77
,-9.447,0.096,-3.087,-9.354,0.093,-3.106,2.03,1.54,0.7
605.0,-9.414,0.122,-3.051,-9.485,0.019,-3.099,1.89,1.4,0.63
,-9.464,0.12,-3.094,-9.452,0.048,-3.144,1.75,1.47,0.63
,-9.433,0.089,-3.089,-9.399,0.017,-3.092,1.47,1.33,0.49
,-9.497,0.081,-3.087,-9.418,0.091,-3.039,1.4,1.4,0.42
681.0,-9.464,0.199,-3.027,-9.407,0.067,-3.108,2.52,1.19,0.91
,-9.447,0.199,-3.008,-9.375,0.036,-3.092,1.89,1.33,0.84
,-9.411,0.179,-3.049,-9.404,0.062,-2.977,1.4,1.26,0.7
,-9.43,0.086,-3.082,-9.414,0.172,-2.893,1.54,1.26,0.7
757.0,-9.421,0.213,-2.943,-9.368,0.187,-2.998,0.77,1.4,0.91
,-9.488,0.225,-2.943,-9.481,0.412,-2.9,-0.28,1.12,0.77
,-9.402,0.179,-3.034,-9.395,0.531,-2.965,-1.05,1.26,0.7
,-9.359,0.12,-2.931,-9.397,0.505,-2.833,-1.05,1.4,0.91
832.0,-9.459,0.34,-2.883,-9.646,-0.637,-3.35,-8.33,1.05,-0.63
,-9.404,0.189,-2.941,-9.442,-0.373,-3.434,-9.45,0.98,-0.42
,-9.474,-0.278,-3.029,-9.354,-0.031,-3.393,-9.73,0.84,-0.42
,-9.61,-0.505,-3.271,-9.337,0.203,-3.376,-6.65,1.33,0.0
908.0,-9.351,0.266,-3.47,-9.435,0.34,-3.314,0.0,0.84,0.98
,-9.371,0.086,-3.149,-9.428,0.45,-3.161,-1.54,0.49,0.91
,-9.347,0.038,-3.19,-9.359,0.05,-3.101,-0.49,0.35,1.19
,-9.359,0.108,-3.135,-9.194,-0.471,-3.381,1.26,0.42,1.47
983.0,-9.217,-0.704,-3.046,-9.495,0.309,-3.049,4.06,0.49,3.01
,-9.378,-0.371,-2.941,-9.34,0.309,-2.972,7.28,1.12,3.57
,-9.529,0.002,-3.058,-9.093,-0.613,-2.848,8.61,1.47,3.78
,-9.507,0.194,-3.046,-8.933,-1.082,-2.766,7.98,1.4,3.71
1059.0,-9.191,-0.531,-2.869,-9.608,0.885,-3.47,9.03,1.82,5.53
,-9.416,-0.263,-2.977,-9.562,1.027,-3.604,8.05,2.17,5.39
,-9.306,-0.093,-3.02,-9.533,0.761,-3.664,2.17,1.75,4.62
,-9.44,0.201,-3.106,-9.495,0.759,-3.838,-2.03,0.84,3.64
1135.0,-9.409,0.854,-3.9,-9.651,0.969,-3.087,-13.3,-3.08,-0.42
,-9.445,1.22,-3.929,-9.694,0.536,-2.74,-10.22,-3.71,-0.14
,-9.483,1.225,-3.594,-9.643,0.409,-2.422,-9.59,-4.55,-0.49
,-9.485,1.17,-3.302,-9.617,0.591,-2.211,-10.71,-5.25,-1.12
1211.0,-9.663,0.625,-2.022,-9.608,0.223,-2.044,-5.39,-3.08,-3.15
,-9.689,0.658,-1.874,-9.567,0.184,-2.139,-3.85,-1.96,-3.43
,-9.758,0.704,-1.922,-9.526,0.28,-2.268,-2.31,-0.7,-3.85
,-9.706,0.304,-1.948,-9.493,0.306,-2.422,-0.35,0.77,-3.64
1286.0,-9.45,0.321,-2.493,-9.497,0.254,-2.931,11.69,6.51,-2.52
,-9.392,0.148,-2.644,-9.514,0.536,-3.068,10.29,6.86,-2.8
,-9.282,0.002,-2.68,-9.524,0.598,-3.104,8.89,6.93,-2.8
,-9.294,0.043,-2.749,-9.505,0.66,-3.209,7.35,7.14,-3.08
1362.0,-9.49,0.715,-3.3,-9.567,0.304,-3.553,1.33,6.65,-5.25
,-9.564,0.751,-3.396,-9.466,0.215,-3.546,1.19,6.51,-5.81
,-9.45,0.51,-3.329,-9.423,-0.055,-3.477,0.28,6.09,-6.23
,-9.387,0.258,-3.331,-9.342,-0.256,-3.419,0.21,5.39,-6.58
1438.0,-9.385,-0.084,-3.357,-9.409,0.371,-3.022,-1.05,3.22,-8.54
,-9.44,0.285,-3.259,-9.526,-0.01,-2.962,0.49,2.94,-8.68
,-9.428,0.383,-3.087,-9.514,0.129,-2.79,0.84,2.8,-8.96
,-9.452,0.462,-3.07,-9.56,0.373,-2.852,1.54,2.73,-9.24
1514.0,-9.689,0.589,-2.934,-9.275,-0.704,-3.144,7.63,4.2,-11.55
,-9.562,0.38,-2.95,-9.313,-0.278,-3.128,5.6,3.71,-12.18
,-9.232,-0.297,-3.166,-9.552,0.031,-3.123,5.18,3.64,-12.25
,-9.172,-0.505,-3.18,-9.603,0.306,-2.955,7.56,4.06,-11.97
1589.0,-9.485,0.359,-2.994,-9.347,-0.168,-3.084,4.83,3.57,-14.07
,-9.45,0.227,-2.883,-9.407,-0.168,-3.139,4.97,3.92,-14.63
,-9.378,0.342,-2.948,-9.411,0.026,-3.161,5.95,4.06,-15.33
,-9.428,-0.034,-3.01,-9.44,0.239,-3.159,6.02,4.55,-15.68
1665.0,-9.474,0.244,-3.19,-9.354,-0.27,-3.367,6.44,5.53,-18.69
,-9.368,-0.043,-3.149,-9.22,-0.469,-3.388,5.46,5.6,-19.53
,-9.426,-0.141,-3.254,-9.359,-0.352,-3.446,7.28,5.67,-20.16
,-9.512,0.103,-3.391,-9.356,-0.196,-3.424,9.17,5.53,-20.93
1741.0,-9.296,-0.438,-3.374,-9.646,0.474,-2.946,17.01,5.74,-23.24
,-9.234,-0.759,-3.34,-9.517,0.146,-2.862,19.95,6.51,-23.38
,-9.258,-0.627,-3.149,-9.562,-0.053,-2.788,24.22,6.93,-23.8
,-9.584,-0.081,-3.025,-9.557,-0.089,-2.819,27.72,7.0,-24.57
1816.0,-9.612,-0.385,-2.795,-9.466,-0.73,-2.974,25.2,7.49,-30.87
,-9.658,-0.366,-2.663,-9.387,-1.263,-3.23,25.83,7.98,-31.99
,-9.758,-0.22,-2.714,-9.325,-1.668,-3.484,25.62,8.26,-33.32
,-9.648,-0.282,-2.79,-9.148,-1.716,-3.635,23.03,8.33,-34.72
1892.0,-9.215,-1.821,-3.869,-9.316,-2.903,-3.8,21.07,7.42,-35.42
,-9.301,-2.158,-3.996,-9.488,-2.742,-3.778,18.83,6.58,-35.35
,-9.172,-2.58,-3.977,-9.39,-2.809,-3.587,18.27,6.09,-34.58
,-9.165,-2.895,-3.893,-9.507,-2.941,-3.367,20.79,5.6,-33.39
1968.0,-9.667,-2.85,-3.319,-10.239,-1.292,-2.496,33.32,4.83,-25.2
,-10.256,-2.972,-3.259,-9.935,-1.141,-2.376,33.18,4.34,-24.29
,-10.189,-2.62,-3.068,-9.708,-1.426,-2.414,31.78,3.71,-22.96
,-10.251,-1.852,-2.678,-9.579,-1.627,-2.675,28.63,2.66,-20.86
2044.0,-9.172,-1.299,-2.85,-8.552,-1.077,-3.802,20.93,6.65,-4.55
,-8.878,-1.204,-3.13,-8.287,-1.393,-3.723,25.06,8.61,0.91
,-8.768,-1.397,-3.41,-8.311,-1.395,-3.788,29.33,10.78,6.44
,-8.533,-1.211,-3.616,-8.16,-1.192,-3.915,34.93,13.16,12.25
2119.0,-8.344,-0.962,-3.994,-8.562,-0.392,-3.147,46.2,21.7,30.1
,-8.433,-0.328,-3.606,-8.89,-0.861,-3.417,44.38,21.14,32.34
,-8.447,0.505,-3.408,-8.825,0.062,-3.831,37.24,19.6,32.62
,-8.48,0.371,-3.498,-8.825,0.656,-3.874,24.08,18.27,32.06
2195.0,-8.969,0.318,-3.958,-8.926,-2.649,-3.618,-21.28,8.05,26.74
,-8.854,-1.254,-3.723,-8.954,-2.57,-3.642,-36.4,6.09,25.69
,-8.715,-2.503,-3.297,-9.091,-2.158,-3.601,-42.84,5.11,27.51
,-8.926,-2.804,-3.463,-9.323,-1.826,-3.513,-39.69,3.71,30.73
2271.0,-9.543,-1.627,-3.357,-9.756,0.069,-3.436,-12.95,-0.56,38.01
,-9.438,-0.96,-3.245,-9.686,-0.694,-3.283,-12.25,-0.98,38.36
,-9.543,-0.144,-3.226,-9.45,-1.405,-3.439,-14.91,-1.61,37.45
,-9.694,0.28,-3.4,-9.411,-1.871,-3.379,-23.73,-2.87,34.79
2347.0,-9.569,-1.972,-3.35,-9.368,-1.268,-3.927,-60.69,-5.81,27.09
,-9.679,-1.476,-3.448,-9.438,-1.304,-3.877,-59.08,-6.44,26.95
,-9.38,-1.077,-3.719,-9.55,-1.139,-3.989,-61.11,-7.77,25.97
,-9.289,-1.127,-3.745,-9.416,-0.735,-3.85,-62.79,-8.54,25.55
2422.0,-9.311,-0.558,-3.819,-9.028,-1.778,-3.369,-53.2,-17.15,24.78
,-9.234,-0.905,-3.838,-8.882,-1.776,-3.41,-55.3,-18.62,24.01
,-9.04,-1.51,-3.676,-8.804,-1.912,-3.197,-55.09,-19.39,24.01
,-9.028,-1.627,-3.501,-8.732,-1.85,-3.293,-52.22,-19.67,24.29
2498.0,-8.775,-1.653,-3.175,-9.014,-1.89,-3.558,-35.42,-16.31,22.96
,-8.76,-1.424,-3.07,-9.194,-2.103,-3.733,-33.04,-15.12,21.42
,-9.06,-1.352,-3.25,-8.746,-3.137,-4.405,-31.08,-13.93,19.95
,-9.067,-1.615,-3.467,-7.966,-8.035,-4.235,-29.4,-12.32,18.76
2573.0,-9.55,-11.945,-4.08,-9.854,-1.862,-3.36,18.97,3.36,4.48
,-8.478,-9.701,-3.448,-7.174,1.103,-4.202,57.33,7.91,0.28
,-7.741,-3.436,-3.259,-10.203,2.319,-3.917,82.39,5.81,3.01
,-6.693,-0.806,-4.061,-10.938,0.117,-4.037,66.36,6.93,6.02
2649.0,-11.689,-0.969,-3.853,-10.392,2.888,-2.603,-16.03,5.88,-13.79
,-11.108,0.718,-4.367,-9.627,1.835,-2.391,-0.49,5.11,-5.32
,-12.046,1.436,-3.769,-9.203,0.962,-2.745,16.73,3.99,3.15
,-11.187,2.998,-3.151,-8.854,0.51,-3.068,25.97,1.47,6.86
2725.0,-8.82,-0.256,-3.254,-9.392,-1.862,-3.333,6.02,-1.82,0.49
,-8.969,-1.189,-3.398,-9.344,-0.866,-3.262,-6.58,-2.31,-1.75
,-9.306,-2.139,-3.391,-9.454,0.069,-3.166,-12.11,-2.1,-2.73
,-9.404,-2.486,-3.34,-9.519,0.715,-2.994,-9.94,-1.33,-2.45
2801.0,-9.55,1.039,-3.132,-9.541,0.73,-3.151,6.58,-0.35,3.01
,-9.493,1.141,-3.202,-9.519,0.388,-3.12,6.23,-0.63,2.87
,-9.462,0.895,-2.979,-9.421,0.105,-2.881,6.02,-0.91,2.94
,-9.313,1.041,-3.226,-9.548,-0.069,-2.745,7.77,-1.12,2.66
2877.0,-9.624,-0.177,-2.611,-9.761,-0.199,-2.539,5.95,-0.07,1.26
,-9.636,-0.227,-2.601,-10.01,0.108,-2.469,4.34,0.28,1.19
,-9.864,-0.292,-2.587,-10.196,0.158,-2.56,2.52,0.63,1.19
,-9.835,-0.316,-2.642,-10.029,-0.313,-2.462,1.19,1.26,1.12
2952.0,-9.902,-0.766,-2.491,-9.921,-1.594,-2.355,-4.9,4.76,1.68
,-10.148,-1.163,-2.446,-10.062,-1.024,-2.493,-4.9,5.32,2.87
,-9.969,-1.01,-2.364,-9.988,-0.761,-2.596,-5.25,5.67,4.34
,-9.83,-1.268,-2.386,-9.548,-1.003,-2.895,-7.84,5.6,5.46
3028.0,-9.304,-1.515,-3.228,-9.466,-2.326,-4.652,-24.85,7.98,3.43
,-9.244,-2.252,-3.733,-8.787,-2.474,-4.984,-23.45,10.85,3.08
,-9.215,-2.627,-4.113,-8.799,-2.824,-5.039,-16.45,14.49,2.59
,-9.411,-2.632,-4.594,-8.82,-3.23,-4.939,-6.86,17.29,2.1
3104.0,-8.531,-3.601,-4.886,-8.43,-3.922,-4.36,19.46,14.98,-13.16
,-8.452,-3.824,-4.826,-8.416,-3.644,-4.31,26.18,12.6,-16.03
,-8.488,-3.664,-4.757,-8.66,-3.329,-4.369,33.32,10.57,-19.32
,-8.416,-3.788,-4.525,-8.981,-2.881,-4.324,38.92,9.59,-21.84
3180.0,-8.993,-2.29,-4.195,-9.234,-2.379,-4.2,70.84,6.79,-30.52
,-9.012,-2.084,-4.08,-9.325,-1.826,-4.365,71.75,5.95,-32.41
,-9.162,-2.769,-4.073,-9.608,-1.508,-4.695,70.28,4.69,-33.81
,-9.167,-2.821,-4.133,-9.55,-1.175,-4.843,72.66,3.78,-34.02
3255.0,-9.229,-1.249,-4.661,-9.045,-0.306,-4.125,86.66,2.17,-33.95
,-9.146,-1.244,-4.523,-9.361,-0.514,-4.293,88.48,0.91,-33.74
,-9.39,-1.508,-4.391,-9.464,-0.931,-4.195,89.18,-1.89,-33.95
,-9.124,-0.972,-4.094,-9.162,-1.28,-4.068,91.07,-4.2,-33.53
3331.0,-8.911,-1.694,-3.802,-9.124,-1.048,-3.142,79.66,-13.58,-29.68
,-9.107,-1.259,-3.575,-9.167,-1.718,-2.895,84.98,-14.98,-27.37
,-9.189,-0.51,-3.273,-9.485,-0.924,-3.197,88.62,-15.75,-25.9
,-9.258,-0.156,-3.374,-9.275,-0.007,-3.151,85.12,-16.31,-25.76
3406.0,-9.232,0.352,-2.529,-9.208,-0.577,-2.737,61.74,-16.52,-22.61
,-9.074,-1.168,-2.644,-9.139,-0.27,-2.036,48.86,-15.12,-22.82
,-9.021,-1.816,-2.465,-9.261,-0.376,-1.972,44.38,-13.72,-21.91
,-9.153,-1.223,-2.52,-9.387,-1.11,-2.324,47.25,-13.23,-21.0
3482.0,-9.1,-1.61,-1.816,-9.038,-0.66,-1.524,11.55,-14.56,-28.28
,-8.868,-1.646,-2.041,-8.981,0.4,-1.768,6.86,-14.07,-28.49
,-8.916,-1.783,-2.067,-8.775,-0.12,-1.634,0.56,-12.39,-27.79
,-8.99,-1.881,-1.704,-9.036,-0.821,-1.003,-3.71,-10.36,-25.69
3558.0,-9.06,-0.864,-1.211,-9.718,-0.656,-0.919,-42.98,1.19,-10.78
,-9.325,-0.361,-1.206,-9.871,-0.95,-1.034,-41.58,4.06,-7.7
,-9.576,-0.519,-0.593,-9.746,-0.799,-1.419,-40.39,7.77,-3.64
,-9.737,-0.524,-0.754,-9.653,-0.988,-1.639,-39.41,10.01,0.7
3634.0,-9.474,-2.374,-1.984,-10.029,-2.546,-3.649,-42.42,18.2,27.58
,-9.617,-3.001,-2.455,-10.007,-4.408,-3.415,-31.22,21.0,32.48
,-9.842,-2.544,-3.01,-10.086,-5.688,-3.355,-16.24,22.12,36.33
,-9.978,-1.811,-3.448,-9.895,-5.085,-3.479,-9.38,21.42,37.38
3709.0,-9.921,-2.79,-3.386,-9.313,-2.175,-3.197,-12.46,15.82,30.94
,-9.976,-0.675,-3.352,-9.17,-2.02,-3.47,-25.55,13.44,27.44
,-9.617,-0.309,-3.302,-9.244,-1.208,-3.819,-46.62,10.57,24.85
,-9.457,-1.273,-3.022,-9.024,-0.806,-3.982,-59.78,8.75,24.43
3785.0,-8.552,-0.823,-4.137,-8.993,-2.694,-3.601,-33.67,4.13,29.19
,-8.533,-1.187,-4.271,-9.201,-2.058,-3.206,-40.46,1.89,26.67
,-8.612,-1.979,-4.317,-9.265,-1.594,-2.967,-48.72,-0.07,24.01
,-8.737,-2.659,-4.061,-9.512,-1.414,-2.73,-53.27,-0.84,23.31
3861.0,-9.82,-0.739,-2.766,-9.371,-0.455,-3.774,-33.04,0.7,27.86
,-9.854,-0.139,-3.12,-9.631,-0.591,-3.841,-29.68,0.56,27.51
,-9.579,0.168,-3.508,-9.497,-0.787,-3.836,-30.17,0.21,26.67
,-9.356,0.101,-3.764,-9.375,-1.244,-3.855,-32.69,-0.28,25.76
3937.0,-8.916,-2.271,-3.75,-9.342,0.325,-3.647,-26.18,-2.94,24.78
,-9.198,-1.823,-3.707,-9.241,-0.045,-3.527,-15.12,-2.59,26.25
,-9.682,-0.543,-3.793,-9.335,0.175,-3.3,-5.6,-2.38,25.97
,-9.541,0.321,-3.692,-9.756,0.658,-3.273,-5.39,-2.31,25.34
4013.0,-9.734,0.794,-3.175,-9.375,-0.84,-3.128,-9.94,-4.55,19.04
,-9.574,0.565,-3.175,-9.655,-0.555,-3.029,-11.34,-4.9,17.78
,-9.373,0.077,-3.192,-9.689,-0.493,-2.869,-12.18,-5.18,16.66
,-9.007,-0.505,-3.202,-9.627,-0.031,-2.752,-13.65,-5.11,15.82
4088.0,-9.619,0.735,-2.905,-9.445,-0.503,-3.546,-0.77,-2.24,13.72
,-9.347,0.802,-3.094,-9.354,-0.768,-3.403,-1.19,-1.89,13.16
,-9.277,0.519,-3.276,-9.344,-0.223,-3.352,-1.54,-1.89,12.6
,-9.387,-0.134,-3.561,-9.349,0.455,-3.247,0.14,-1.68,12.18
4164.0,-9.349,1.031,-3.271,-9.552,-0.275,-3.46,-1.61,-4.41,8.68
,-9.591,0.103,-3.379,-9.359,0.342,-3.405,-7.84,-4.83,7.63
,-9.368,-0.823,-3.35,-9.103,0.505,-3.175,-6.86,-4.76,7.77
,-9.397,-1.106,-3.343,-9.273,0.562,-3.111,1.4,-4.27,8.89
4239.0,-9.567,0.476,-3.015,-9.564,0.747,-1.962,7.42,-4.27,8.12
,-9.464,0.704,-2.874,-9.469,0.684,-1.493,4.9,-4.9,7.0
,-9.335,0.474,-2.57,-9.404,0.357,-1.247,2.73,-4.83,6.51
,-9.603,0.5,-2.288,-9.686,-0.134,-1.225,1.96,-4.48,5.6
4315.0,-9.627,-0.237,-1.381,-9.435,0.098,-2.948,-16.87,0.91,1.89
,-9.574,-0.242,-1.78,-9.213,0.364,-3.587,-13.3,3.36,2.66
,-9.433,-0.089,-2.252,-9.136,-1.936,-3.163,-12.18,5.04,3.78
,-9.301,-0.103,-2.56,-8.691,0.72,-4.652,-12.25,6.72,4.83
4391.0,-9.007,0.859,-4.877,-9.115,-1.287,-2.723,-3.85,6.3,7.0
,-8.847,-0.479,-4.314,-9.84,0.105,-2.599,-9.31,4.62,7.91
,-9.514,-1.05,-3.996,-10.06,2.099,-2.45,-1.82,3.22,7.91
,-9.079,-1.429,-3.319,-10.055,2.221,-2.276,2.24,4.48,10.64
4467.0,-9.818,1.601,-2.438,-9.349,0.596,-3.893,-0.63,8.05,6.65
,-9.751,1.261,-2.675,-9.007,-0.665,-3.991,1.75,8.33,5.67
,-9.648,1.352,-2.919,-9.033,-1.316,-4.006,6.65,8.47,5.04
,-9.61,1.366,-3.355,-9.191,-0.759,-4.08,8.12,8.05,3.92
4542.0,-9.244,-0.151,-4.02,-9.397,0.495,-2.728,18.55,4.48,5.46
,-8.911,0.168,-3.664,-9.502,0.182,-2.544,14.35,2.87,4.9
,-8.978,0.378,-3.254,-9.56,-0.005,-2.388,8.82,1.82,4.06
,-9.304,0.45,-3.032,-9.505,0.184,-2.34,4.2,1.12,2.94
4618.0,-9.5,0.05,-2.434,-9.586,0.581,-3.601,-0.14,3.85,2.52
,-9.457,-0.086,-2.656,-9.572,0.864,-3.776,-0.98,4.62,2.45
,-9.316,-0.074,-2.833,-8.99,-0.366,-3.685,-1.54,5.04,2.31
,-9.45,0.244,-3.266,-8.67,-1.591,-3.537,-1.61,5.25,2.03
4693.0,-9.002,-1.149,-3.506,-9.177,0.024,-2.783,3.57,4.13,3.15
,-9.414,0.292,-3.525,-8.959,-0.026,-2.733,9.31,4.27,3.36
,-9.682,1.027,-3.345,-9.478,0.983,-3.175,4.9,4.13,2.52
,-9.603,1.22,-3.029,-9.746,1.816,-3.475,-2.17,3.85,1.05
4769.0,-9.485,1.232,-3.565,-9.452,1.077,-3.029,-13.86,3.08,-3.85
,-9.304,0.445,-3.386,-9.612,1.192,-3.025,-13.51,3.15,-3.64
,-9.383,0.201,-3.168,-9.809,0.447,-2.95,-6.51,3.5,-3.22
,-9.399,0.938,-3.077,-9.725,0.333,-3.25,-1.4,3.71,-3.22
4845.0,-9.615,0.447,-3.606,-9.418,1.122,-3.405,-0.7,4.69,-5.6
,-9.323,0.431,-3.745,-9.426,1.177,-3.355,1.82,4.9,-5.11
,-9.184,0.041,-3.862,-9.304,0.677,-3.132,3.92,4.9,-4.55
,-9.318,0.251,-3.644,-9.246,-0.156,-3.01,7.77,4.69,-3.92
4921.0,-9.308,-0.23,-2.912,-9.584,0.57,-2.544,1.19,4.06,-7.14
,-9.253,0.012,-2.809,-9.469,0.957,-2.728,4.34,5.04,-6.58
,-9.294,0.278,-2.733,-9.332,0.897,-2.773,5.6,6.09,-6.23
,-9.445,0.428,-2.496,-9.153,0.12,-2.845,5.32,6.93,-6.51
4997.0,-9.052,-0.644,-2.848,-9.495,0.546,-3.319,-1.47,9.38,-9.17
,-9.375,-0.507,-2.936,-9.49,0.519,-3.522,1.68,10.36,-8.89
,-9.574,-0.237,-3.068,-9.139,-0.069,-3.539,1.05,11.06,-9.45
,-9.275,-0.005,-3.125,-8.952,-0.067,-3.589,-1.19,11.9,-10.01
5072.0,-9.007,0.007,-3.369,-9.263,0.402,-3.577,-2.87,12.25,-12.11
,-9.215,0.648,-3.362,-9.158,0.211,-3.8,-1.89,12.11,-12.74
,-9.328,0.928,-3.326,-9.107,0.105,-3.932,-3.5,12.25,-13.58
,-9.39,0.735,-3.417,-9.222,0.203,-4.08,-5.32,12.32,-14.42
5148.0,-9.552,0.27,-4.113,-9.064,0.414,-4.92,1.89,12.18,-17.15
,-9.313,0.256,-4.269,-8.873,0.098,-4.891,0.07,11.27,-18.13
,-9.208,0.108,-4.429,-8.847,-0.311,-4.803,-0.35,10.36,-18.76
,-9.11,0.311,-4.53,-8.758,-1.596,-4.623,0.77,9.17,-19.53
5224.0,-8.784,-1.615,-4.259,-9.162,-0.189,-3.877,6.09,3.71,-19.95
,-9.158,-0.682,-4.334,-9.177,0.019,-3.872,13.79,3.57,-19.74
,-9.11,-0.175,-4.2,-9.208,-0.005,-3.848,12.74,2.87,-20.23
,-8.964,-0.287,-4.032,-9.282,0.098,-3.932,9.87,2.52,-20.65
5300.0,-9.301,0.091,-4.171,-9.115,-1.055,-3.865,13.93,0.49,-23.66
,-9.115,-0.158,-4.25,-9.148,-0.804,-3.747,13.37,0.0,-24.43
,-9.05,-0.67,-4.243,-9.32,-0.498,-3.637,13.51,-0.42,-24.92
,-9.021,-1.158,-4.003,-9.112,-0.471,-3.766,15.19,-0.56,-25.06
5375.0,-9.048,-0.629,-3.766,-9.115,-0.782,-3.183,19.25,-1.19,-28.49
,-9.251,-0.687,-3.795,-9.337,-0.077,-3.161,21.91,-0.91,-28.91
,-9.273,-0.668,-3.769,-9.586,-0.041,-3.202,24.08,-0.98,-29.54
,-9.086,-0.876,-3.601,-9.627,-0.584,-3.302,25.62,-0.7,-30.03
5451.0,-9.452,-1.029,-3.427,-9.418,-1.589,-3.352,22.12,0.28,-36.05
,-9.335,-0.869,-3.539,-9.366,-2.173,-3.475,25.69,0.63,-36.75
,-9.445,-0.646,-3.673,-9.119,-2.345,-3.649,24.99,0.28,-38.01
,-9.411,-1.074,-3.506,-8.988,-2.302,-3.948,20.3,-0.21,-39.48
5526.0,-9.158,-2.606,-4.188,-9.715,-2.544,-4.561,9.24,-2.52,-42.35
,-9.299,-2.821,-4.326,-9.897,-2.517,-4.561,11.13,-3.01,-41.86
,-9.402,-2.86,-4.441,-10.285,-2.807,-4.444,16.31,-3.29,-40.81
,-9.541,-2.778,-4.53,-10.251,-3.18,-4.149,23.17,-3.85,-39.34
5602.0,-10.048,-3.503,-3.743,-10.043,-2.388,-2.496,38.15,-9.03,-26.39
,-10.012,-3.503,-3.364,-9.73,-2.19,-2.163,43.33,-9.17,-23.1
,-10.132,-3.128,-3.104,-9.414,-1.381,-1.768,47.39,-9.52,-20.02
,-10.299,-2.728,-2.857,-9.036,-1.06,-1.419,46.55,-10.36,-17.64
5678.0,-8.71,-0.95,-1.759,-7.94,-2.125,-3.46,38.43,-4.41,6.51
,-8.418,-1.23,-2.242,-7.966,-1.395,-3.664,41.3,-0.63,12.53
,-8.239,-1.979,-2.769,-7.942,-1.232,-3.888,46.34,3.22,19.53
,-8.157,-2.508,-3.245,-8.16,-0.866,-3.707,56.56,6.86,27.3
5754.0,-8.165,0.053,-3.23,-8.928,0.608,-2.74,78.89,19.25,49.35
,-8.406,0.909,-2.721,-9.091,0.55,-2.63,67.41,18.2,48.72
,-8.653,1.187,-2.635,-9.363,0.708,-2.879,47.88,16.66,46.55
,-8.772,1.06,-2.867,-9.392,0.476,-2.793,25.76,15.19,43.89
5830.0,-9.182,-1.086,-3.197,-9.107,-0.586,-3.714,-54.95,11.62,36.68
,-9.055,-2.379,-3.159,-9.028,-0.553,-3.824,-60.76,12.81,39.76
,-9.091,-2.606,-3.077,-8.93,-1.821,-3.948,-55.09,12.95,43.75
,-8.976,-1.732,-3.106,-8.882,-2.359,-3.996,-46.34,13.02,46.69
5905.0,-8.906,-2.343,-3.845,-9.509,-0.61,-3.687,-51.31,5.46,43.4
,-8.868,-1.63,-3.774,-9.05,-2.455,-3.642,-47.95,2.38,41.79
,-9.055,-0.893,-3.867,-9.072,-3.218,-3.594,-49.91,-0.42,39.06
,-9.459,-0.404,-3.944,-9.124,-2.972,-3.711,-56.77,-2.03,35.7
5981.0,-9.292,-2.166,-3.676,-9.509,-1.357,-4.223,-61.46,-2.31,34.02
,-9.34,-1.517,-3.977,-9.378,-1.335,-4.556,-57.33,-2.03,33.46
,-9.464,-1.455,-4.063,-9.392,-1.498,-4.625,-56.0,-1.19,33.11
,-9.6,-1.462,-4.176,-9.366,-1.85,-4.448,-54.53,-0.77,33.11
6057.0,-9.27,-2.003,-4.477,-8.859,-1.811,-4.475,-52.43,-6.86,31.85
,-9.105,-2.024,-4.35,-8.808,-1.914,-4.329,-49.21,-8.4,31.99
,-9.083,-1.907,-4.228,-8.868,-1.833,-4.164,-46.27,-9.73,31.5
,-8.995,-1.936,-4.051,-8.873,-1.735,-4.195,-41.72,-9.52,31.01
6133.0,-8.82,-1.744,-3.991,-8.672,-2.213,-3.101,-40.74,-15.89,19.32
,-8.713,-1.63,-3.676,-8.617,-2.41,-2.986,-41.79,-16.8,17.01
,-8.593,-1.67,-3.329,-8.27,-2.697,-2.74,-43.4,-17.01,14.84
,-8.614,-1.797,-3.482,-7.837,-2.955,-2.881,-44.66,-16.87,12.81
6208.0,-7.672,-4.855,-3.714,-9.028,-0.701,-3.604,-11.06,-2.8,14.21
,-8.882,-9.34,-3.458,-11.139,0.584,-2.723,14.28,-0.98,18.13
,-9.351,-10.658,-2.793,-13.211,0.012,-2.929,63.63,0.7,16.59
,-10.376,-7.203,-2.185,-14.415,1.196,-3.063,110.81,-1.26,8.75
6284.0,-11.881,1.314,-3.477,-8.543,2.429,-3.209,-10.78,1.96,-3.08
,-11.022,-0.426,-3.089,-8.696,2.661,-3.13,-8.19,0.56,-3.78
,-9.56,-0.002,-2.967,-9.088,2.087,-3.116,10.64,-0.07,-2.17
,-9.107,1.342,-3.096,-9.15,1.144,-3.029,27.65,0.84,-0.07
6359.0,-9.15,-0.826,-2.824,-9.562,0.302,-3.096,-1.68,-0.91,-1.96
,-9.308,-1.653,-2.888,-9.675,0.519,-2.962,0.28,-0.98,-1.26
,-9.481,-1.187,-2.979,-9.67,0.507,-2.876,6.51,-0.49,0.21
,-9.495,-0.168,-3.087,-9.61,0.4,-2.718,8.54,-0.35,0.49
6435.0,-9.478,0.28,-2.627,-9.409,0.567,-2.833,0.0,0.84,-0.07
,-9.596,0.416,-2.62,-9.418,0.392,-2.948,4.06,1.96,0.49
,-9.598,0.739,-2.682,-9.351,0.007,-3.235,6.23,2.17,0.63
,-9.505,0.773,-2.687,-9.067,-0.553,-3.247,5.67,2.66,0.49
6511.0,-9.124,-0.498,-3.269,-9.399,0.182,-3.41,6.93,3.85,1.68
,-9.33,0.007,-3.388,-9.407,0.175,-3.475,11.34,4.06,2.24
,-9.507,0.263,-3.439,-9.294,0.266,-3.4,11.9,3.85,2.38
,-9.509,0.285,-3.439,-9.32,0.38,-3.288,10.57,3.15,2.38
6587.0,-9.349,0.342,-3.096,-9.56,0.56,-2.34,11.55,2.03,2.66
,-9.579,0.337,-2.977,-9.541,0.771,-2.254,11.41,1.96,2.52
,-9.701,0.306,-2.714,-9.416,0.613,-2.338,10.92,2.52,2.45
,-9.66,0.397,-2.46,-9.373,0.136,-2.599,10.64,3.22,2.24
6662.0,-9.387,-0.251,-2.848,-9.787,-0.735,-3.331,0.42,6.23,0.84
,-9.567,-0.383,-3.099,-9.256,-0.727,-2.862,2.45,6.79,1.4
,-10.1,-0.548,-3.486,-8.899,-0.931,-2.417,3.71,6.72,1.68
,-10.313,-0.785,-3.551,-9.095,-0.864,-2.106,2.66,6.37,1.4
6738.0,-9.696,-0.677,-2.111,-10.033,-0.208,-2.18,7.35,12.04,6.93
,-10.376,-0.775,-2.163,-9.43,-1.285,-2.711,7.91,13.3,7.63
,-10.83,-0.593,-2.297,-9.213,-2.802,-3.063,3.99,12.67,7.0
,-10.66,-0.179,-2.268,-9.363,-2.4,-3.939,-6.37,9.8,4.97
6814.0,-9.684,-1.634,-4.637,-8.581,-4.843,-5.286,-4.34,15.75,2.87
,-9.552,-0.95,-5.135,-8.605,-4.788,-5.202,-1.33,14.77,-0.7
,-9.05,-1.086,-5.363,-8.65,-3.836,-4.958,-4.97,13.65,-5.18
,-8.638,-2.915,-5.418,-8.971,-3.005,-4.798,-7.84,13.23,-8.68
6890.0,-9.081,-2.477,-4.645,-9.139,-3.367,-3.975,50.82,4.13,-18.55
,-9.069,-2.503,-4.53,-9.244,-2.962,-3.924,52.64,2.8,-21.91
,-9.067,-2.819,-4.491,-9.452,-2.343,-4.006,55.72,1.96,-24.64
,-9.124,-3.331,-4.341,-9.447,-1.771,-4.085,60.69,1.54,-26.32
6966.0,-9.191,-1.508,-3.987,-8.993,-2.826,-4.03,83.16,-2.03,-33.46
,-9.052,-1.45,-3.955,-9.227,-2.268,-4.159,80.29,-2.59,-34.86
,-9.189,-2.01,-3.879,-9.485,-1.582,-4.216,77.42,-3.15,-35.7
,-9.031,-2.706,-3.936,-9.421,-1.024,-4.24,76.58,-4.06,-35.28
7041.0,-9.411,-0.388,-3.972,-9.225,-1.464,-3.151,80.08,-10.64,-38.64
,-9.411,0.01,-3.855,-9.502,-0.979,-2.962,72.52,-12.39,-40.32
,-9.112,-0.933,-3.601,-9.598,-0.538,-3.156,60.97,-12.95,-41.02
,-8.938,-1.996,-3.357,-9.361,-1.443,-3.223,53.83,-12.53,-39.69
7117.0,-9.359,-1.582,-2.924,-9.411,-1.395,-2.965,53.83,-10.92,-42.0
,-9.529,-1.194,-2.989,-9.416,-1.251,-3.094,56.84,-10.57,-41.51
,-9.555,-1.735,-3.254,-9.363,-0.955,-2.972,53.97,-10.71,-41.3
,-9.471,-1.869,-2.611,-9.239,-1.4,-3.058,51.03,-11.41,-40.53
7192.0,-8.964,-1.653,-3.096,-9.028,-1.141,-2.278,24.64,-13.93,-37.31
,-9.064,-1.448,-2.661,-8.665,-0.727,-2.29,25.62,-13.86,-35.77
,-9.292,-1.005,-2.879,-8.55,-0.857,-2.0,25.97,-15.54,-35.91
,-9.129,-1.161,-2.716,-8.794,-1.007,-2.335,22.61,-17.29,-36.19
7268.0,-8.737,-0.931,-2.304,-8.392,-1.546,-1.694,-6.79,-16.94,-29.61
,-8.452,-0.648,-1.74,-8.423,-1.723,-1.661,-13.23,-14.91,-26.25
,-8.547,-0.902,-1.893,-8.1,-1.558,-1.62,-20.37,-12.39,-23.52
,-8.334,-1.515,-1.838,-7.722,-2.199,-1.969,-24.01,-9.52,-20.72
7344.0,-8.256,-3.116,-2.094,-9.584,-0.416,-2.871,-9.87,11.69,0.14
,-8.256,-2.343,-2.541,-10.031,0.041,-2.843,1.54,15.61,7.91
,-8.246,-1.108,-3.051,-9.524,-0.031,-2.649,6.58,20.44,13.3
,-9.325,-0.67,-2.917,-9.56,-1.622,-2.34,4.2,22.54,18.13
7420.0,-9.694,-2.257,-2.254,-10.268,-3.498,-2.881,-21.77,15.33,27.3
,-9.567,-1.675,-2.809,-10.383,-3.345,-3.183,-19.11,16.52,30.45
,-9.44,-1.419,-3.391,-10.335,-3.62,-3.329,-22.12,16.31,32.83
,-9.588,-2.331,-3.027,-10.826,-3.35,-3.628,-29.19,15.89,34.16
7495.0,-10.646,-2.587,-3.558,-9.816,-1.711,-3.106,-29.61,9.94,31.22
,-10.538,-3.573,-3.23,-9.383,-1.225,-3.077,-36.05,8.47,30.87
,-10.321,-3.185,-3.233,-8.323,-0.847,-2.778,-35.0,7.91,31.29
,-10.055,-2.663,-3.123,-8.021,-0.696,-2.759,-31.36,7.84,31.78
7571.0,-8.564,-0.538,-2.663,-9.584,-0.773,-2.529,-43.68,3.15,27.44
,-9.136,-0.565,-2.611,-9.828,-0.613,-2.936,-48.79,3.57,25.69
,-9.775,-0.821,-2.51,-9.842,-0.337,-3.477,-51.59,4.2,24.78
,-9.832,-0.797,-2.498,-9.45,-0.593,-4.113,-51.87,4.97,24.5
7647.0,-9.505,-1.23,-4.587,-8.844,-1.359,-5.085,-53.41,3.78,21.35
,-9.387,-1.362,-5.071,-8.887,-1.366,-4.697,-52.15,2.03,20.58
,-9.141,-1.393,-5.226,-9.208,-0.845,-4.398,-50.4,0.28,20.23
,-8.997,-1.469,-5.169,-9.189,-0.948,-4.106,-48.16,-1.68,20.09
7723.0,-9.32,-1.309,-3.817,-9.849,-0.01,-2.845,-32.2,-9.17,20.65
,-9.261,-1.467,-3.496,-9.45,0.115,-3.053,-28.07,-8.96,20.93
,-8.964,-1.508,-3.015,-9.308,-0.775,-3.051,-24.15,-8.47,21.84
,-9.414,-0.948,-2.857,-9.478,-0.744,-3.104,-19.46,-7.98,22.33
7798.0,-9.696,-0.689,-3.379,-9.332,-0.378,-3.508,-15.82,-7.42,19.95
,-9.261,-1.003,-3.422,-9.574,-0.201,-3.307,-12.95,-6.86,20.44
,-9.418,-0.799,-3.491,-9.653,0.306,-3.257,-6.93,-6.37,21.0
,-9.502,-0.428,-3.544,-9.45,0.629,-3.386,-1.33,-5.88,20.79
7874.0,-9.505,0.373,-3.269,-9.493,-0.067,-2.984,8.19,-5.88,18.06
,-9.392,0.467,-3.19,-9.493,0.117,-2.938,5.95,-6.58,16.87
,-9.474,0.323,-3.104,-9.584,-0.067,-2.869,4.41,-6.79,15.82
,-9.418,-0.232,-2.95,-9.49,-0.72,-2.654,4.76,-6.44,15.47
7950.0,-9.452,-0.361,-2.548,-9.368,0.093,-2.644,10.29,-4.34,13.16
,-9.509,0.218,-2.618,-9.485,0.213,-2.69,10.29,-3.57,12.46
,-9.361,0.115,-2.68,-9.488,0.208,-2.649,6.37,-3.29,11.69
,-9.409,-0.026,-2.649,-9.567,0.416,-2.544,5.46,-2.94,11.41
8025.0,-9.981,0.536,-2.608,-9.462,0.44,-2.699,14.14,0.84,9.73
,-9.663,1.017,-2.637,-9.308,1.108,-2.568,8.47,0.35,7.35
,-9.627,0.675,-2.769,-9.031,0.546,-2.431,1.96,-0.42,5.88
,-9.751,0.603,-2.788,-9.361,-0.486,-2.144,-0.77,-1.05,4.69
8101.0,-9.416,-0.704,-2.297,-9.304,-0.28,-2.795,-15.68,-1.19,2.38
,-9.502,-0.395,-2.407,-9.385,-0.299,-2.941,-13.02,0.14,2.87
,-9.505,-0.156,-2.596,-9.574,-0.373,-2.867,-13.09,1.12,3.5
,-9.488,-0.194,-2.86,-9.615,-0.531,-2.771,-13.86,1.96,3.92
8177.0,-9.579,-0.361,-2.716,-9.349,-0.512,-2.989,-3.85,4.97,6.51
,-9.289,-0.871,-2.546,-9.751,-0.151,-2.735,-0.49,6.65,7.84
,-9.392,-0.833,-2.453,-9.969,1.218,-2.831,5.46,8.05,9.31
,-9.584,-0.395,-2.513,-9.576,1.646,-3.082,9.45,8.96,9.66
8253.0,-9.505,0.426,-3.049,-9.284,0.682,-3.666,5.18,12.39,9.73
,-9.476,0.67,-3.238,-10.002,0.684,-3.707,12.81,11.83,10.08
,-9.452,0.773,-3.623,-10.005,0.452,-3.647,15.96,10.78,10.15
,-8.801,0.586,-3.659,-9.643,0.11,-3.664,13.3,9.73,9.87
8328.0,-9.277,0.11,-3.905,-9.057,-0.246,-4.022,10.43,6.65,5.95
,-9.361,0.354,-4.03,-9.019,-0.766,-3.819,14.98,5.88,6.3
,-9.215,0.407,-4.104,-9.021,-0.622,-3.494,14.91,4.55,5.95
,-9.11,0.034,-4.104,-9.251,-0.163,-3.396,12.11,3.36,5.67
8404.0,-9.263,0.134,-3.108,-9.641,0.553,-2.446,15.61,0.35,6.16
,-9.172,0.474,-2.812,-9.541,0.227,-2.347,13.3,0.21,6.02
,-9.318,0.55,-2.678,-9.373,-0.299,-2.505,10.08,0.14,5.53
,-9.588,0.617,-2.45,-9.418,-0.436,-2.651,6.58,0.28,4.62
8480.0,-9.521,0.141,-2.888,-9.045,-0.553,-3.568,-0.63,2.73,2.52
,-9.512,0.536,-3.175,-9.246,0.077,-3.819,-1.68,3.15,1.89
,-9.282,-0.141,-3.364,-9.584,0.84,-3.965,-5.39,3.36,1.82
,-9.115,-0.658,-3.424,-9.593,1.115,-3.857,-4.27,3.36,2.59
8556.0,-9.38,0.653,-3.661,-9.689,1.515,-3.553,-6.93,-0.14,1.12
,-8.978,-0.73,-3.302,-9.562,1.199,-3.58,-8.19,-0.42,1.54
,-8.942,-0.866,-3.264,-9.328,-0.101,-3.408,-0.42,-0.35,3.01
,-9.452,0.426,-3.46,-9.129,-0.96,-3.317,8.4,-0.63,3.36
8631.0,-9.373,-0.285,-3.34,-9.49,0.333,-2.864,5.39,-2.24,0.49
,-9.89,1.438,-3.4,-9.33,0.05,-2.869,6.86,-3.01,-0.21
,-9.533,2.28,-3.25,-9.574,0.431,-2.929,-4.2,-4.41,-1.75
,-9.373,1.488,-3.068,-9.777,0.916,-2.891,-16.31,-4.69,-3.29
8707.0,-9.696,1.508,-2.139,-9.576,-0.211,-2.41,-0.14,-3.15,-3.22
,-9.646,1.567,-2.292,-9.536,0.105,-2.656,-3.92,-2.73,-5.39
,-9.567,0.96,-2.285,-9.538,0.412,-2.752,-8.26,-1.89,-7.35
,-9.471,0.16,-2.221,-9.519,0.488,-2.886,-10.15,-0.63,-7.63
8782.0,-9.249,0.053,-2.96,-9.368,0.156,-3.223,10.71,5.11,-5.11
,-9.206,-0.057,-3.072,-9.34,0.203,-3.195,11.69,5.18,-4.83
,-9.253,-0.065,-3.161,-9.335,0.191,-3.058,12.6,5.46,-4.48
,-9.342,0.041,-3.104,-9.39,0.325,-3.022,12.53,5.88,-4.13
8858.0,-9.311,0.395,-3.049,-9.588,0.428,-2.833,5.46,4.97,-5.6
,-9.349,0.244,-2.903,-9.474,0.479,-2.831,3.92,5.25,-5.67
,-9.356,0.132,-2.776,-9.433,0.165,-2.84,4.41,5.6,-5.74
,-9.454,0.129,-2.668,-9.287,0.005,-2.826,5.53,6.3,-5.81
8934.0,-9.373,0.153,-2.833,-9.426,0.514,-3.092,-2.87,8.12,-8.47
,-9.363,0.285,-2.68,-9.385,0.093,-3.345,-2.59,8.82,-8.68
,-9.526,0.617,-2.709,-9.294,-0.074,-3.58,-2.1,9.24,-8.96
,-9.399,0.641,-2.862,-9.296,0.086,-3.759,-3.85,9.45,-9.94
9010.0,-9.217,0.11,-3.659,-9.129,-0.005,-4.154,-2.03,9.45,-12.6
,-9.284,0.251,-3.726,-9.127,-0.16,-4.214,-2.17,8.89,-13.02
,-9.557,0.266,-3.917,-9.208,-0.057,-4.14,-3.15,7.84,-13.79
,-9.375,0.208,-4.042,-9.17,-0.115,-4.07,-4.83,6.44,-14.56
9086.0,-9.335,0.086,-3.896,-8.985,-0.902,-3.458,5.18,3.08,-14.56
,-9.445,0.481,-4.042,-9.213,-0.498,-3.18,4.06,1.89,-15.68
,-9.387,0.519,-4.037,-9.423,0.065,-3.049,0.28,0.7,-16.8
,-9.198,-0.349,-3.855,-9.392,0.038,-2.831,-3.57,0.0,-17.22
9161.0,-9.316,0.055,-2.687,-9.457,0.062,-3.254,2.8,1.61,-18.2
,-9.438,-0.041,-2.697,-9.32,0.017,-3.52,1.75,1.96,-19.39
,-9.421,-0.132,-2.8,-9.277,-0.132,-3.786,1.47,2.38,-19.67
,-9.478,0.057,-2.936,-9.234,-0.371,-3.881,3.15,2.52,-19.88
9237.0,-9.196,-0.66,-3.905,-9.234,-0.869,-3.865,7.77,2.87,-22.54
,-9.282,-0.876,-3.951,-8.971,-0.864,-3.821,10.22,2.52,-22.61
,-9.203,-0.924,-3.874,-9.136,-0.974,-3.731,12.88,2.1,-22.68
,-9.323,-0.773,-3.879,-9.385,-0.928,-3.403,15.26,1.61,-23.03
9313.0,-9.45,-0.34,-3.209,-9.541,-0.122,-2.852,20.65,0.0,-26.39
,-9.469,0.179,-2.967,-9.447,-0.73,-2.79,18.55,-0.49,-28.07
,-9.198,0.361,-2.749,-9.423,-1.204,-2.919,14.84,-0.56,-29.75
,-9.328,0.337,-2.747,-9.344,-1.723,-2.912,12.67,-0.42,-31.57
9389.0,-9.433,-1.776,-2.606,-9.696,-1.268,-2.331,22.47,4.9,-36.12
,-9.734,-1.266,-2.324,-9.591,-1.673,-2.733,20.37,5.04,-38.5
,-9.708,-0.794,-2.02,-9.454,-1.618,-3.448,15.82,5.6,-40.53
,-9.737,-0.924,-2.082,-9.263,-1.273,-3.982,10.22,6.37,-42.63
9464.0,-9.258,-1.335,-4.482,-9.318,-2.814,-4.714,17.22,8.54,-43.75
,-9.229,-1.967,-4.614,-9.493,-2.702,-4.671,16.1,7.56,-43.75
,-9.316,-2.623,-4.688,-9.844,-2.852,-4.446,17.92,6.37,-43.4
,-9.356,-2.881,-4.752,-10.357,-3.056,-4.111,22.33,5.04,-42.56
9540.0,-10.634,-3.357,-3.592,-10.014,-2.936,-1.68,28.7,-1.4,-34.65
,-10.55,-3.065,-3.082,-10.294,-2.95,-1.539,27.93,-1.68,-31.71
,-10.464,-3.3,-2.501,-10.117,-2.125,-1.615,24.85,-2.03,-29.89
,-10.254,-3.417,-1.945,-9.952,-1.321,-1.764,22.75,-1.4,-28.63
9615.0,-9.631,-1.455,-2.075,-8.569,-1.838,-2.862,-1.54,3.08,-22.12
,-9.237,-1.814,-2.271,-8.277,-1.464,-2.84,-6.3,3.99,-19.04
,-9.026,-2.029,-2.697,-8.222,-1.677,-2.74,-5.95,4.62,-15.19
,-8.837,-2.28,-2.864,-7.966,-1.759,-2.982,-1.82,5.32,-10.78
9691.0,-7.861,-1.711,-3.19,-8.54,0.187,-4.518,23.8,18.69,20.86
,-7.65,-0.876,-3.838,-8.521,0.543,-5.013,32.2,23.8,26.6
,-7.909,-0.139,-4.432,-8.478,0.156,-4.903,34.44,27.65,30.24
,-8.361,-0.256,-4.487,-8.215,-0.168,-4.621,34.65,29.68,33.11
9767.0,-8.186,-0.333,-4.429,-8.768,-0.201,-3.888,0.63,15.19,44.87
,-8.449,-0.184,-3.92,-8.705,-0.976,-4.018,-1.12,14.91,47.53
,-8.739,0.589,-3.463,-8.698,-1.433,-4.197,-3.71,14.21,48.93
,-8.801,0.818,-3.788,-8.789,-1.156,-4.389,-15.68,11.83,47.74
9843.0,-8.89,-1.335,-4.535,-8.057,-2.891,-3.999,-57.4,-0.28,49.28
,-8.882,-2.654,-4.52,-8.454,-2.347,-3.967,-64.12,-1.89,51.8
,-8.39,-3.204,-4.238,-8.619,-1.445,-4.298,-65.24,-4.06,55.16
,-7.806,-3.178,-3.884,-8.703,-0.605,-4.369,-59.71,-4.62,57.96
9919.0,-8.89,-0.242,-4.771,-9.129,-2.115,-4.946,-49.07,-9.87,45.22
,-9.06,-0.529,-5.166,-9.229,-2.257,-5.008,-58.45,-13.16,41.02
,-9.06,-0.838,-5.293,-9.208,-2.431,-4.922,-64.54,-15.68,38.22
,-9.117,-1.481,-5.229,-9.227,-2.257,-4.63,-67.76,-17.78,36.33
9994.0,-9.167,-2.02,-4.508,-9.299,-1.706,-4.125,-50.19,-23.59,33.6
,-9.287,-1.941,-4.422,-9.39,-1.689,-4.551,-48.79,-23.94,32.83
,-9.548,-1.795,-4.106,-9.194,-1.922,-4.451,-48.51,-23.59,32.48
,-9.43,-1.673,-4.372,-9.031,-2.288,-4.195,-52.08,-23.45,31.5
10070.0,-9.021,-2.697,-3.798,-9.064,-1.943,-3.68,-53.97,-22.75,26.32
,-9.091,-2.824,-3.752,-8.978,-2.51,-3.484,-46.55,-22.33,25.06
,-9.074,-2.467,-3.606,-8.952,-3.163,-3.137,-39.06,-22.26,23.59
,-9.038,-2.053,-3.434,-8.626,-3.156,-2.812,-33.32,-21.56,22.47
10146.0,-7.832,-3.465,-3.743,-9.914,-4.113,-2.56,-0.07,-13.65,21.56
,-8.933,-7.016,-3.558,-9.83,-1.543,-2.599,19.25,-9.45,27.09
,-9.234,-11.323,-3.104,-9.861,-0.778,-2.333,54.18,-5.04,30.52
,-9.397,-10.567,-2.575,-9.622,-1.79,-1.586,109.62,0.91,30.73
10222.0,-10.993,0.244,-1.531,-10.598,0.694,-2.802,46.13,-0.42,-2.66
,-11.242,2.773,-2.458,-9.421,1.101,-2.45,14.14,0.49,-7.07
,-12.4,2.467,-2.895,-9.165,2.429,-2.754,-13.09,1.47,-9.1
,-11.651,1.541,-3.02,-9.05,3.293,-2.984,-21.35,0.63,-8.54
10297.0,-8.93,3.096,-3.01,-9.308,-2.51,-3.18,39.41,0.91,3.36
,-9.215,1.338,-2.994,-9.239,-2.099,-3.116,17.92,-1.19,0.63
,-9.497,-0.72,-3.065,-9.325,-1.101,-2.994,3.71,-2.45,-1.89
,-9.529,-2.079,-3.151,-9.45,-0.208,-2.627,-2.1,-2.52,-3.22
10373.0,-9.682,0.613,-2.412,-9.801,0.89,-2.682,8.89,0.77,0.49
,-9.689,0.957,-2.393,-9.603,0.644,-2.955,7.28,1.19,0.07
,-9.653,1.103,-2.462,-9.409,0.28,-3.02,6.09,1.33,-0.14
,-9.782,1.079,-2.596,-9.421,0.213,-3.147,6.23,1.61,-0.14
10448.0,-9.624,0.273,-3.326,-10.031,-0.739,-3.269,4.13,1.05,-0.98
,-9.866,0.182,-3.427,-10.005,-0.617,-3.072,0.77,0.35,-1.47
,-9.816,-0.045,-3.36,-9.928,-0.601,-2.654,-2.94,-0.42,-1.82
,-9.77,-0.436,-3.29,-9.725,-0.682,-2.252,-5.04,-0.77,-1.75
10524.0,-9.66,-0.979,-1.809,-10.167,-0.584,-0.998,-6.23,0.84,0.07
,-9.88,-1.194,-1.493,-10.103,0.242,-1.228,-4.48,3.08,1.19
,-10.065,-1.275,-1.163,-9.844,0.505,-2.029,-2.66,5.46,2.24
,-10.158,-1.041,-1.074,-9.545,-0.392,-2.544,-3.08,7.07,2.59
10600.0,-9.435,-1.472,-3.096,-8.641,-2.998,-4.697,-39.41,10.08,-2.87
,-9.129,-2.161,-3.905,-8.82,-3.166,-4.503,-35.63,11.83,-2.66
,-8.856,-2.876,-4.475,-9.043,-3.381,-4.362,-26.39,12.88,-2.24
,-8.83,-3.171,-4.661,-8.949,-3.087,-4.393,-13.09,13.02,-2.38
10676.0,-9.177,-2.946,-4.195,-9.016,-3.372,-3.946,40.25,12.6,-7.0
,-9.079,-3.089,-4.156,-9.182,-2.745,-4.006,44.38,12.39,-9.24
,-8.827,-3.577,-4.092,-9.299,-2.525,-4.192,46.97,12.6,-11.34
,-8.796,-3.778,-3.948,-9.182,-2.465,-4.178,52.99,12.95,-12.88
10751.0,-9.229,-2.498,-4.183,-9.351,-2.651,-3.764,58.45,13.02,-26.81
,-9.22,-2.994,-4.128,-9.433,-2.036,-3.776,58.52,13.51,-29.12
,-9.373,-3.24,-4.042,-9.421,-2.154,-3.881,61.18,13.72,-30.8
,-9.351,-3.199,-3.92,-9.531,-2.017,-3.754,65.1,13.37,-32.13
10827.0,-9.584,-1.756,-3.836,-9.351,-1.486,-3.776,69.37,10.08,-39.97
,-9.648,-1.598,-3.704,-9.545,-1.153,-4.039,67.69,9.73,-41.23
,-9.38,-2.185,-3.716,-9.471,-1.034,-3.922,63.77,9.59,-41.79
,-9.246,-2.053,-3.623,-9.43,-0.871,-3.793,64.47,8.89,-41.51
10903.0,-9.378,-1.33,-3.982,-8.918,-1.385,-3.62,60.69,4.48,-42.14
,-9.182,-2.146,-4.015,-8.772,-0.924,-3.4,57.33,2.52,-40.95
,-9.139,-1.977,-3.915,-9.107,-0.436,-3.659,59.01,-0.63,-38.99
,-9.227,-1.706,-3.812,-9.306,-0.153,-3.96,59.36,-4.83,-38.15
10979.0,-9.296,0.22,-3.747,-9.148,-1.943,-2.668,38.85,-11.34,-39.2
,-9.198,0.112,-3.893,-9.361,-1.247,-2.797,26.95,-15.33,-41.51
,-8.921,-1.158,-3.644,-9.095,-0.637,-2.563,16.03,-17.64,-42.21
,-8.854,-2.058,-2.943,-8.581,-0.081,-2.601,16.8,-17.64,-39.55
11055.0,-8.593,-0.457,-2.012,-8.425,-0.01,-2.606,15.68,-21.49,-30.24
,-8.866,-1.634,-2.644,-8.473,0.242,-2.288,7.21,-19.46,-28.84
,-8.447,-2.149,-2.548,-8.638,0.239,-1.517,6.16,-17.01,-26.04
,-8.416,-1.383,-2.558,-8.672,0.603,-1.519,8.33,-15.12,-22.12
11130.0,-8.114,-0.165,-1.907,-8.547,-1.902,-2.639,-56.21,-6.72,-15.47
,-8.007,-2.824,-1.74,-8.784,-2.824,-2.699,-61.11,-1.12,-12.39
,-8.48,-3.857,-2.23,-9.354,-2.857,-2.663,-44.94,3.15,-4.97
,-8.586,-2.879,-2.338,-9.134,-1.35,-2.431,-22.12,6.86,2.73
11206.0,-8.99,-0.634,-2.489,-9.694,-3.271,-3.324,5.46,12.6,31.36
,-9.1,-1.115,-2.532,-9.466,-2.919,-3.29,-1.75,15.47,35.49
,-9.289,-1.381,-3.07,-9.842,-2.974,-3.178,-4.48,17.57,38.57
,-9.691,-2.51,-3.369,-10.055,-2.118,-3.216,-2.45,18.13,41.37
11281.0,-9.986,-0.658,-3.288,-10.737,-3.69,-3.183,17.01,16.87,49.21
,-10.495,-1.596,-3.025,-10.282,-2.915,-3.125,-2.59,14.0,43.61
,-10.703,-2.795,-2.972,-9.684,-1.768,-3.295,-24.01,11.2,36.68
,-10.881,-3.604,-3.202,-8.909,-1.225,-3.463,-40.32,8.82,31.92
11357.0,-8.538,-0.771,-3.47,-9.823,0.179,-3.807,-54.46,4.06,30.24
,-8.514,-0.038,-3.64,-9.701,-0.648,-3.534,-49.07,3.5,30.8
,-9.033,0.5,-3.826,-9.648,-1.156,-3.379,-47.81,2.24,30.38
,-9.641,0.725,-3.927,-9.639,-2.113,-3.503,-50.05,0.49,29.68
11433.0,-9.682,-2.379,-3.726,-9.052,-0.28,-4.223,-30.66,-0.56,30.87
,-9.787,-1.857,-3.97,-9.11,-0.211,-3.97,-23.52,-0.35,30.73
,-9.371,-1.161,-4.231,-9.34,0.242,-4.003,-21.42,-0.7,30.03
,-9.131,-0.742,-4.293,-9.416,0.471,-3.862,-20.51,-1.33,29.54
11509.0,-9.375,0.972,-3.592,-9.689,-0.687,-2.563,-4.34,-4.83,26.53
,-9.71,0.986,-3.297,-9.636,-0.196,-2.553,-9.8,-6.09,23.45
,-9.392,0.603,-3.034,-9.493,-0.043,-2.706,-20.23,-7.28,20.93
,-9.323,-0.38,-2.649,-9.373,-0.227,-2.953,-27.44,-7.42,19.53
11584.0,-9.395,-1.053,-3.149,-9.536,-0.359,-3.783,-19.81,-3.99,15.96
,-9.416,-1.417,-3.482,-9.093,-0.483,-3.604,-14.21,-3.15,15.68
,-9.284,-1.007,-3.585,-9.253,-0.239,-3.396,-6.86,-2.38,16.24
,-9.576,-0.184,-3.764,-9.287,0.153,-3.209,-2.59,-2.45,16.17
11660.0,-9.653,0.378,-3.051,-9.251,0.577,-3.013,-0.28,-3.36,14.35
,-9.648,-0.141,-2.915,-9.385,0.263,-2.938,-5.32,-4.2,13.79
,-9.115,-0.55,-2.79,-9.495,-0.093,-2.898,-5.95,-4.06,13.79
,-9.141,-0.115,-2.809,-9.478,0.029,-2.91,-3.78,-3.78,13.51
11735.0,-9.421,0.069,-2.974,-9.897,-0.208,-3.168,-13.65,-2.8,9.66
,-9.351,0.031,-3.096,-9.562,-0.605,-3.147,-11.62,-2.38,9.87
,-9.411,0.062,-3.123,-9.351,-0.759,-3.111,-9.38,-2.17,10.08
,-9.698,0.074,-3.154,-9.505,-0.313,-3.281,-8.05,-1.82,9.73
11811.0,-9.555,0.168,-3.393,-9.253,-0.124,-2.62,0.63,-1.4,9.24
,-9.445,-0.074,-3.309,-9.395,-0.309,-2.477,-2.03,-2.03,9.31
,-9.402,-0.354,-3.156,-9.311,-0.34,-2.505,-3.08,-3.22,8.75
,-9.457,0.05,-2.874,-9.258,-0.005,-2.565,-1.54,-3.92,9.03
11887.0,-9.423,0.404,-2.862,-9.679,1.132,-3.393,8.12,2.31,9.8
,-9.438,0.543,-2.977,-9.366,1.134,-3.431,5.67,2.66,9.24
,-9.32,0.438,-3.029,-9.373,0.811,-3.427,3.71,2.87,8.68
,-9.497,0.687,-3.195,-9.485,0.995,-3.51,5.6,3.22,8.47
11963.0,-9.459,1.187,-3.467,-8.569,-1.692,-2.01,2.73,0.63,5.67
,-9.316,1.053,-3.257,-9.509,-0.488,-2.51,-2.8,-0.07,4.9
,-9.167,-0.007,-3.35,-9.998,0.481,-2.472,-7.98,-0.42,4.76
,-9.385,-1.95,-2.864,-9.586,0.512,-2.692,-4.48,0.21,6.86
12039.0,-9.978,1.421,-3.254,-9.691,2.0,-3.116,15.75,7.42,10.22
,-10.244,1.187,-2.548,-9.73,1.802,-3.108,14.21,7.77,8.75
,-9.521,1.776,-2.778,-9.629,1.565,-3.147,12.81,7.98,6.86
,-9.615,1.991,-3.084,-9.074,0.057,-2.986,11.27,8.12,5.39
12114.0,-8.892,-1.182,-2.795,-9.196,-0.201,-3.513,-8.54,5.25,-1.26
,-9.423,-0.897,-2.927,-9.177,-0.302,-3.553,-1.75,5.39,-0.7
,-9.536,-0.385,-3.147,-9.337,-0.093,-3.68,0.56,5.46,-1.4
,-9.313,0.055,-3.369,-9.325,0.244,-3.757,-3.57,5.32,-1.89
12190.0,-9.177,0.426,-3.702,-9.069,-0.632,-3.319,-1.82,3.64,-0.14
,-9.299,0.481,-3.673,-9.131,-0.909,-3.096,-1.19,3.15,0.07
,-9.457,0.617,-3.692,-9.409,-0.34,-3.072,-1.26,2.31,-0.21
,-9.416,0.486,-3.597,-9.586,0.598,-3.08,-3.36,1.54,-0.7
12266.0,-9.612,0.962,-3.061,-9.258,0.005,-3.307,7.98,2.73,1.68
,-9.469,0.732,-3.123,-9.359,0.313,-3.352,2.66,2.45,0.91
,-9.359,0.378,-3.206,-9.342,0.503,-3.331,-0.7,2.24,0.28
,-9.249,-0.012,-3.218,-9.335,0.38,-3.242,-1.12,2.31,0.07
12342.0,-9.385,0.302,-3.104,-9.395,-0.256,-2.843,-0.28,1.75,0.56
,-9.378,0.287,-3.008,-9.806,0.146,-3.111,-1.4,1.75,0.28
,-9.131,-0.203,-2.819,-9.677,0.227,-3.293,-3.22,1.82,0.63
,-9.064,-0.445,-2.697,-9.282,-0.268,-3.419,-2.73,2.31,1.47
12417.0,-9.024,-0.802,-3.575,-9.596,0.371,-3.776,-1.26,3.22,1.82
,-9.016,-0.821,-3.747,-9.476,0.809,-3.707,3.15,3.15,2.66
,-9.045,-0.665,-3.743,-9.368,0.905,-3.771,6.23,2.73,3.64
,-9.356,-0.285,-3.74,-9.136,0.747,-3.807,8.12,2.59,4.27
12493.0,-9.148,0.95,-3.857,-9.715,1.094,-3.142,6.51,-0.7,2.45
,-9.533,0.782,-3.656,-9.481,1.101,-3.041,5.39,-1.19,1.89
,-9.608,0.641,-3.451,-9.411,1.184,-3.149,4.97,-1.33,1.26
,-9.679,0.883,-3.209,-9.409,1.163,-3.204,4.62,-1.61,0.07
12568.0,-9.598,0.907,-3.223,-9.488,0.713,-2.929,-3.43,-2.59,-4.41
,-9.564,0.431,-3.094,-9.485,0.493,-3.027,-1.12,-2.1,-4.76
,-9.466,0.378,-3.003,-9.366,0.093,-3.096,2.73,-1.54,-4.62
,-9.421,0.637,-2.852,-9.275,-0.045,-3.228,4.9,-1.12,-4.69
12644.0,-9.28,0.057,-3.197,-9.416,0.206,-2.804,4.27,-0.49,-6.02
,-9.277,0.27,-3.101,-9.45,0.337,-2.771,5.39,-0.35,-5.88
,-9.249,0.352,-2.967,-9.407,0.62,-2.97,4.97,-0.28,-5.95
,-9.387,0.168,-2.848,-9.426,0.763,-3.099,4.2,-0.07,-6.02
12720.0,-9.335,0.474,-3.144,-9.363,0.321,-2.809,-6.3,0.07,-9.52
,-9.304,-0.175,-3.132,-9.399,0.579,-2.855,-8.33,0.28,-9.73
,-9.263,-0.424,-3.049,-9.471,0.404,-2.855,-5.53,0.77,-9.17
,-9.351,-0.129,-2.982,-9.514,-0.096,-2.893,-0.63,1.75,-8.54
12796.0,-9.371,-0.156,-2.915,-9.502,0.948,-2.903,-3.08,3.36,-10.22
,-9.373,-0.053,-2.893,-9.619,0.852,-2.948,0.07,4.13,-10.15
,-9.462,0.38,-2.922,-9.5,0.486,-2.984,1.12,4.48,-10.36
,-9.397,0.711,-2.833,-9.402,0.328,-3.049,-0.21,4.41,-10.99
12871.0,-9.421,0.337,-3.116,-9.407,0.055,-3.408,-7.91,4.41,-15.05
,-9.354,0.213,-3.166,-9.44,-0.172,-3.52,-8.61,4.41,-15.47
,-9.261,0.189,-3.269,-9.232,-0.447,-3.599,-10.29,4.13,-16.17
,-9.375,0.041,-3.312,-9.143,-0.486,-3.568,-11.2,4.06,-16.87
12947.0,-9.301,-0.175,-3.515,-9.282,-0.577,-3.254,-1.96,4.76,-17.15
,-9.483,0.038,-3.53,-9.139,-0.536,-3.159,-0.7,4.69,-17.36
,-9.524,-0.065,-3.276,-9.184,-0.787,-3.178,-1.54,4.34,-17.99
,-9.519,-0.06,-3.352,-9.512,-0.462,-3.168,-2.59,4.13,-18.97
13023.0,-9.485,-0.177,-3.183,-9.44,-0.488,-3.147,4.48,6.02,-19.88
,-9.529,-0.129,-3.137,-9.306,-0.735,-3.032,5.18,6.16,-20.65
,-9.237,-0.244,-3.01,-9.256,-0.708,-3.089,4.27,6.23,-21.35
,-9.17,-0.239,-3.082,-9.579,-0.4,-3.204,4.55,6.44,-22.05
13099.0,-9.373,-0.156,-3.309,-9.342,-0.72,-3.369,17.08,9.52,-24.64
,-9.217,-0.215,-3.41,-9.277,-0.641,-3.408,17.92,9.73,-25.34
,-9.328,-0.34,-3.47,-9.103,-0.909,-3.415,19.04,9.73,-26.18
,-9.323,-0.459,-3.429,-9.069,-0.553,-3.58,20.23,9.59,-27.09
13175.0,-9.328,-0.182,-3.8,-9.622,0.069,-3.084,28.07,9.24,-31.5
,-9.33,0.194,-3.862,-9.588,0.479,-2.85,26.88,9.17,-33.18
,-9.347,-0.084,-3.793,-9.438,0.28,-2.692,25.48,8.96,-34.58
,-9.584,-0.39,-3.472,-9.426,-0.495,-2.515,27.3,9.24,-35.98
13250.0,-9.603,-0.969,-2.596,-10.019,-0.838,-4.058,18.97,11.2,-46.27
,-9.61,-0.976,-2.8,-10.211,-2.063,-4.417,20.58,12.04,-47.39
,-9.677,-0.639,-3.084,-10.412,-3.577,-4.597,20.3,11.97,-48.44
,-9.859,-0.44,-3.546,-10.4,-4.396,-4.893,17.22,11.9,-49.77
13326.0,-10.22,-4.575,-4.951,-10.383,-3.518,-3.862,26.95,8.33,-38.71
,-10.139,-4.484,-4.846,-10.158,-3.553,-3.417,35.84,7.49,-33.67
,-10.318,-4.298,-4.563,-9.629,-3.173,-3.125,43.82,6.79,-28.7
,-10.27,-3.743,-4.29,-9.246,-2.833,-2.788,50.33,5.88,-24.85
13401.0,-9.162,-3.037,-2.642,-8.469,-1.606,-2.831,39.2,2.45,-15.96
,-8.945,-2.929,-2.651,-8.346,-1.606,-2.974,36.82,2.73,-14.49
,-8.782,-2.714,-2.749,-8.313,-2.091,-3.364,33.81,2.59,-12.95
,-8.622,-2.168,-2.776,-8.282,-2.264,-3.659,29.4,2.31,-10.22
13477.0,-8.169,-2.233,-3.79,-7.882,-1.235,-3.829,27.3,5.04,6.93
,-7.961,-2.438,-3.85,-8.093,-0.826,-3.563,33.6,4.83,10.85
,-7.944,-2.34,-3.85,-8.167,-0.235,-3.331,40.32,5.18,14.84
,-7.827,-1.735,-3.955,-8.102,0.378,-2.836,44.8,5.95,18.34
13553.0,-8.248,0.61,-2.766,-8.552,-1.814,-3.144,19.18,-0.07,28.42
,-8.253,0.342,-2.587,-8.693,-1.852,-3.087,4.34,-0.91,27.09
,-8.452,-0.043,-2.893,-8.641,-1.285,-3.077,-8.4,-0.91,26.25
,-8.612,-1.079,-3.12,-8.48,-1.993,-3.355,-19.32,-0.42,26.74
13629.0,-8.533,-2.69,-3.305,-8.935,0.27,-3.568,-25.9,6.37,39.48
,-8.701,-2.225,-3.391,-9.019,-0.079,-3.735,-21.56,7.0,42.42
,-8.808,-0.881,-3.503,-9.186,-0.244,-3.86,-19.18,6.23,42.42
,-8.796,0.179,-3.565,-9.182,-0.543,-4.027,-25.06,4.9,39.69
13704.0,-9.072,-0.735,-4.116,-8.593,-6.612,-4.195,-84.77,1.33,29.89
,-9.105,-1.22,-4.099,-8.703,-5.138,-4.319,-91.21,0.49,29.47
,-8.579,-4.408,-4.805,-8.808,-2.419,-4.506,-96.88,1.82,32.55
,-8.385,-6.245,-4.436,-8.969,-0.878,-4.403,-82.46,5.04,40.81
13780.0,-9.014,-0.16,-4.331,-9.33,-0.809,-4.472,2.45,5.04,49.63
,-9.189,-0.031,-4.188,-9.462,-1.639,-4.58,-8.05,4.76,45.22
,-9.158,-0.258,-4.324,-9.268,-2.453,-4.554,-19.81,3.92,41.44
,-9.258,-0.469,-4.214,-9.215,-2.793,-4.463,-30.45,1.82,38.08
13856.0,-9.15,-2.773,-4.41,-9.019,-1.615,-4.826,-51.1,-2.66,28.84
,-9.141,-2.34,-4.716,-8.985,-1.888,-4.664,-46.27,-2.73,27.86
,-9.229,-1.766,-4.779,-8.806,-1.603,-4.422,-44.03,-3.43,26.6
,-9.182,-1.452,-4.951,-8.811,-1.362,-4.535,-45.85,-4.41,25.2
13932.0,-8.854,-1.436,-4.269,-8.246,-2.723,-3.984,-54.6,-11.69,13.79
,-8.82,-1.567,-4.35,-8.119,-2.745,-3.812,-56.98,-13.16,10.15
,-8.552,-2.175,-4.19,-8.179,-2.793,-3.498,-57.89,-13.65,7.56
,-8.478,-2.594,-4.039,-8.55,-2.797,-3.029,-55.44,-13.93,6.09
14008.0,-8.495,-2.362,-3.726,-9.036,-3.455,-3.692,-20.58,-7.84,6.09
,-8.342,-4.13,-4.025,-9.363,-0.179,-3.857,-12.18,-3.15,10.85
,-9.576,-7.703,-3.776,-10.684,-0.936,-3.944,8.61,-1.54,17.01
,-9.536,-8.263,-3.099,-9.28,-1.701,-3.778,49.42,0.0,19.25
14083.0,-9.67,-2.139,-2.907,-11.675,-0.254,-4.477,46.9,-13.37,2.38
,-10.342,-0.955,-3.309,-10.912,1.608,-4.192,38.71,-11.48,1.68
,-10.969,0.057,-3.994,-9.938,2.209,-3.728,29.12,-5.95,1.05
,-11.63,-0.629,-4.365,-9.215,1.828,-3.324,23.31,-1.61,-0.07
14159.0,-8.837,1.591,-3.491,-9.112,-1.419,-2.69,18.76,-11.34,-2.66
,-8.684,1.414,-3.503,-9.105,-2.113,-2.417,10.71,-12.53,-3.85
,-8.65,0.677,-3.3,-9.048,-2.391,-2.039,0.7,-13.58,-4.55
,-8.93,-0.376,-3.077,-9.268,-1.914,-2.02,-7.07,-14.21,-4.97
14234.0,-9.677,-1.127,-2.048,-9.701,0.462,-2.072,11.76,-6.58,1.12
,-9.739,-0.402,-2.058,-9.89,0.668,-2.35,12.6,-4.83,1.54
,-9.605,0.05,-1.984,-9.768,0.759,-2.544,10.15,-3.36,1.68
,-9.622,0.232,-2.089,-9.739,0.591,-2.812,7.28,-2.24,1.12
14310.0,-9.538,0.278,-2.97,-9.22,-0.364,-3.506,0.49,0.07,-1.19
,-9.342,0.115,-3.168,-9.318,-0.45,-3.467,1.82,0.28,-1.19
,-9.258,-0.077,-3.384,-9.304,-0.565,-3.345,3.71,0.63,-0.91
,-9.27,-0.28,-3.486,-9.296,-0.574,-3.209,4.83,0.35,-0.7
14386.0,-9.361,-0.45,-3.108,-9.572,-0.093,-2.879,7.35,-0.21,0.84
,-9.488,-0.378,-3.135,-9.765,-0.01,-2.687,7.84,-0.21,0.98
,-9.6,-0.203,-3.084,-9.871,0.007,-2.46,7.84,-0.42,1.05
,-9.643,-0.196,-3.022,-9.799,-0.115,-2.225,7.63,-0.49,1.33
14462.0,-9.919,-0.323,-1.95,-9.718,-1.034,-0.589,2.03,3.08,0.35
,-10.089,-0.952,-1.742,-9.931,-1.981,-0.522,-1.89,4.48,0.0
,-10.06,-1.208,-1.424,-10.053,-2.075,-1.089,-5.46,5.74,0.0
,-9.777,-0.893,-0.964,-10.129,-1.783,-1.953,-11.13,6.93,0.21
14537.0,-10.081,-1.742,-3.166,-9.73,-3.319,-5.564,-23.38,16.38,3.71
,-9.902,-2.481,-4.104,-9.792,-3.314,-5.841,-22.26,17.01,4.41
,-9.667,-2.96,-4.783,-9.32,-3.125,-5.827,-16.8,16.17,5.32
,-9.347,-3.183,-5.461,-9.385,-3.029,-5.372,-7.91,15.19,6.02
14613.0,-9.306,-3.144,-5.217,-8.686,-3.223,-4.027,37.8,1.68,-8.96
,-8.887,-3.305,-4.838,-8.638,-3.092,-3.9,37.31,-1.61,-12.39
,-8.562,-3.467,-4.499,-8.684,-2.907,-3.606,38.36,-3.08,-15.05
,-8.591,-3.283,-4.264,-8.772,-2.635,-3.671,41.86,-2.87,-17.43
14689.0,-8.894,-2.558,-3.63,-8.969,-1.914,-3.86,52.36,0.49,-31.5
,-8.882,-2.51,-3.68,-9.086,-1.785,-3.972,52.71,2.24,-32.13
,-9.019,-2.58,-3.778,-9.203,-1.924,-4.128,53.76,3.85,-32.41
,-9.141,-2.314,-3.762,-9.143,-1.761,-4.14,55.23,4.9,-32.83
14765.0,-9.062,-1.606,-4.314,-9.538,-1.718,-4.025,60.97,10.22,-35.14
,-9.11,-1.953,-4.393,-9.655,-1.208,-4.056,62.3,10.22,-35.0
,-9.215,-2.297,-4.432,-9.296,-1.309,-3.941,66.57,9.87,-33.95
,-9.383,-2.113,-4.255,-9.079,-1.701,-3.85,73.22,9.8,-32.41
14840.0,-9.155,-1.764,-3.702,-9.196,-0.838,-3.214,76.65,3.85,-30.87
,-9.409,-1.213,-3.709,-9.347,-0.66,-3.269,80.57,3.43,-30.31
,-9.459,-0.782,-3.642,-9.139,-1.275,-3.293,78.82,2.1,-30.66
,-9.256,-0.849,-3.443,-8.959,-2.338,-3.211,71.54,0.63,-31.22
14916.0,-9.141,-2.45,-3.046,-8.674,-0.436,-2.716,46.27,-4.97,-31.78
,-9.44,-1.907,-2.941,-8.394,-1.168,-2.541,52.01,-6.44,-30.52
,-9.677,-1.237,-3.092,-8.638,-1.646,-2.637,51.31,-10.22,-31.85
,-9.198,-0.5,-2.962,-8.918,-1.378,-2.513,42.35,-14.28,-33.67
14992.0,-9.165,-0.55,-2.84,-8.638,-3.128,-2.297,11.69,-9.31,-31.01
,-9.127,-0.187,-3.046,-8.614,-2.74,-2.302,1.61,-10.99,-31.08
,-8.952,-1.543,-2.886,-8.626,-1.993,-1.816,-11.06,-12.53,-30.31
,-8.813,-2.754,-2.699,-9.026,-1.244,-2.17,-14.14,-12.81,-27.93
15067.0,-8.763,-0.775,-2.245,-8.392,-1.826,-1.663,7.84,-12.11,-18.34
,-8.301,-0.66,-1.969,-8.624,-1.314,-1.936,-3.5,-12.11,-18.13
,-7.995,-1.225,-1.723,-8.54,-1.261,-1.799,-14.21,-9.8,-17.01
,-8.174,-1.922,-1.754,-8.562,-1.431,-1.534,-18.55,-6.09,-15.12
15143.0,-8.507,-1.251,-2.0,-8.626,-3.123,-2.558,-42.91,5.46,-8.05
,-8.033,-2.075,-2.134,-8.567,-3.891,-2.778,-51.45,9.94,-7.49
,-8.789,-3.307,-2.041,-8.715,-4.96,-2.788,-52.78,12.46,-4.55
,-8.713,-3.23,-2.3,-9.136,-4.525,-2.666,-46.62,12.04,0.07
15219.0,-9.33,-3.228,-2.718,-8.976,-2.374,-3.068,1.12,10.5,19.88
,-8.77,-2.527,-2.766,-9.112,-2.553,-3.068,0.7,10.36,21.98
,-8.741,-2.309,-2.819,-9.251,-2.79,-3.089,-6.86,10.64,23.03
,-8.921,-2.493,-2.895,-9.304,-2.68,-2.898,-12.81,12.67,24.99
15295.0,-9.275,-2.144,-2.735,-9.782,-3.092,-3.652,-3.57,16.8,39.34
,-9.263,-1.91,-2.692,-10.141,-3.874,-4.164,-4.48,17.43,41.44
,-9.545,-1.974,-2.996,-10.672,-4.465,-4.508,-6.23,17.85,42.84
,-9.722,-2.252,-3.23,-10.962,-3.692,-4.901,-8.96,17.64,43.54
15370.0,-11.199,-2.587,-5.08,-8.801,-2.572,-3.551,-13.65,7.35,36.75
,-10.694,-1.496,-4.87,-8.698,-1.546,-3.08,-33.74,3.15,31.29
,-10.057,-1.457,-4.487,-8.961,0.141,-2.996,-56.98,-0.63,27.37
,-9.502,-2.304,-4.008,-9.103,0.627,-2.864,-69.72,-2.8,26.25
15446.0,-9.067,-0.048,-2.721,-9.856,-0.335,-3.551,-26.32,0.35,36.82
,-9.38,-0.763,-2.613,-9.564,-0.572,-3.676,-23.31,1.19,36.54
,-9.919,-1.106,-2.797,-8.99,-1.563,-3.946,-20.44,1.61,35.07
,-10.038,-0.814,-3.125,-9.05,-1.809,-4.015,-21.14,1.12,33.25
15522.0,-9.32,-0.706,-4.214,-9.177,-0.61,-3.944,-26.53,-1.47,26.67
,-9.289,0.268,-4.226,-9.328,-0.503,-4.02,-20.37,-1.61,26.04
,-9.356,0.61,-4.283,-9.445,-0.282,-4.089,-19.39,-2.31,25.48
,-9.306,0.043,-4.142,-9.395,0.093,-4.101,-19.39,-3.15,24.64
15598.0,-9.39,0.44,-3.735,-9.354,-0.622,-3.096,-7.35,-5.81,20.37
,-9.371,0.246,-3.654,-9.517,-0.715,-3.111,-11.76,-6.37,18.27
,-9.253,-0.187,-3.309,-9.354,-0.778,-3.18,-15.05,-6.79,16.94
,-9.15,-0.38,-3.156,-9.206,-0.794,-3.269,-15.68,-6.86,16.03
15673.0,-9.332,-0.732,-3.386,-9.375,0.034,-3.723,-5.39,-4.62,15.33
,-9.404,-0.505,-3.544,-9.462,0.479,-3.604,-3.22,-4.55,15.05
,-9.222,-0.658,-3.611,-9.43,0.337,-3.431,-3.29,-4.34,14.98
,-9.153,-0.4,-3.577,-9.306,-0.012,-3.135,-1.96,-4.48,14.63
15749.0,-9.397,-0.132,-2.991,-9.562,0.239,-2.852,-5.74,-5.74,10.85
,-9.414,-0.139,-2.876,-9.584,0.572,-2.977,-4.97,-5.46,10.36
,-9.359,-0.235,-2.721,-9.538,0.345,-3.07,-6.72,-5.11,9.8
,-9.373,-0.031,-2.706,-9.495,-0.572,-3.199,-7.98,-5.25,9.24
15824.0,-9.392,-1.125,-3.276,-9.287,-0.388,-3.305,-13.16,-3.57,6.72
,-9.292,-1.108,-3.336,-9.227,-0.447,-3.221,-5.6,-2.73,7.56
,-9.44,-0.431,-3.336,-9.505,-0.256,-3.041,-0.35,-2.38,8.19
,-9.452,0.093,-3.384,-9.529,0.495,-2.776,-1.33,-2.45,7.98
15900.0,-9.313,0.732,-2.63,-9.474,-0.428,-2.503,-14.28,-4.62,5.04
,-9.225,-0.101,-2.443,-9.404,-0.39,-2.46,-19.04,-4.55,4.76
,-9.265,-0.39,-2.405,-9.457,-0.352,-2.376,-18.69,-3.99,4.97
,-9.447,-0.5,-2.477,-9.675,0.11,-2.52,-16.17,-2.52,5.32
15976.0,-9.639,0.28,-2.747,-9.378,0.306,-3.597,-7.63,4.06,6.72
,-9.44,0.156,-3.013,-9.588,0.558,-3.642,-7.7,4.62,6.51
,-9.483,0.124,-3.302,-9.615,0.943,-3.647,-5.67,4.97,6.44
,-9.366,0.141,-3.486,-9.452,0.407,-3.288,-3.64,5.11,6.44
16052.0,-8.543,-0.983,-2.809,-9.06,-1.091,-2.422,1.75,5.18,7.42
,-8.866,-0.881,-2.391,-9.337,-1.182,-2.405,7.42,5.18,8.4
,-9.378,0.641,-2.699,-9.799,1.601,-2.795,8.96,5.74,8.12
,-9.708,0.479,-2.764,-10.316,3.228,-2.886,0.21,6.79,8.4
16128.0,-9.94,2.783,-2.998,-9.426,0.658,-4.14,2.59,10.64,4.2
,-9.663,1.254,-3.211,-9.383,-0.091,-4.322,-1.68,10.36,2.45
,-9.519,0.744,-3.506,-9.347,-0.627,-4.295,4.06,10.15,1.68
,-9.512,0.802,-3.786,-9.136,-0.689,-4.247,9.52,9.73,1.05
16203.0,-8.825,-0.854,-4.037,-9.385,0.388,-3.116,-2.03,3.43,-2.03
,-8.581,-1.467,-3.656,-9.392,0.605,-2.996,-1.68,3.36,-0.49
,-8.77,-1.354,-3.338,-9.335,0.33,-2.929,4.62,3.64,1.4
,-9.17,-0.464,-3.178,-9.351,0.239,-2.982,11.76,4.34,2.66
16279.0,-9.361,0.263,-3.13,-8.973,-0.699,-3.783,5.39,5.46,2.17
,-9.399,0.431,-3.348,-8.902,-1.299,-3.802,4.27,5.6,1.89
,-9.375,0.313,-3.587,-9.122,-0.799,-3.855,1.68,5.32,1.54
,-9.189,-0.144,-3.774,-9.447,-0.086,-4.097,-1.54,5.11,1.33
16355.0,-9.457,0.424,-4.185,-9.208,0.445,-3.829,7.7,3.71,3.36
,-9.323,0.481,-3.979,-8.839,-0.282,-3.534,4.97,2.73,3.22
,-9.332,0.72,-4.061,-8.916,-0.584,-3.252,4.62,1.82,2.66
,-9.385,0.61,-4.101,-9.462,0.177,-3.151,3.85,0.91,1.61
16431.0,-9.533,0.888,-2.95,-9.215,0.124,-2.962,3.01,-0.91,0.35
,-9.529,0.861,-2.845,-9.359,0.201,-3.273,-3.5,-0.91,-0.63
,-9.541,0.634,-2.785,-9.284,-0.261,-3.431,-7.35,-0.56,-1.33
,-9.332,0.196,-2.821,-9.117,-0.526,-3.408,-7.91,0.07,-1.54
16506.0,-8.672,-1.426,-3.513,-9.299,1.003,-3.611,-0.7,2.03,0.49
,-8.734,-1.17,-3.441,-9.354,-0.28,-3.561,3.64,2.03,1.61
,-9.737,-0.048,-3.652,-9.225,-0.251,-3.683,7.42,1.68,1.4
,-9.684,1.352,-3.668,-9.062,0.318,-3.704,0.42,0.63,-0.91
16582.0,-9.189,1.17,-3.908,-9.574,0.416,-3.147,1.33,-0.21,-1.26
,-9.237,1.129,-3.829,-9.576,0.718,-3.173,-2.73,-0.91,-1.68
,-9.469,0.933,-3.51,-9.658,1.12,-3.386,-6.72,-1.26,-2.59
,-9.627,0.739,-3.429,-9.665,0.909,-3.534,-8.47,-1.33,-3.85
16657.0,-9.538,0.371,-3.728,-9.478,0.711,-3.408,2.45,0.07,-5.67
,-9.311,0.45,-3.759,-9.371,0.373,-3.195,5.53,-0.42,-5.88
,-9.38,0.629,-3.668,-9.325,0.172,-3.195,7.49,-0.63,-6.37
,-9.418,0.876,-3.589,-9.265,-0.191,-3.13,6.72,-0.77,-7.28
16733.0,-9.206,-0.395,-3.049,-9.349,0.096,-2.508,5.32,-0.49,-8.26
,-9.206,-0.57,-3.005,-9.545,0.457,-2.46,7.49,-0.14,-7.77
,-9.091,-0.641,-2.883,-9.416,0.12,-2.536,7.84,0.56,-7.35
,-9.024,-0.369,-2.62,-9.32,-0.019,-2.742,7.21,1.26,-7.07
16809.0,-9.217,0.072,-3.003,-9.363,-0.342,-3.245,-2.87,4.48,-8.47
,-9.239,0.103,-3.226,-9.366,-0.141,-3.314,-3.01,4.97,-8.54
,-9.404,0.156,-3.269,-9.409,0.036,-3.424,-4.9,5.04,-9.03
,-9.409,-0.103,-3.329,-9.392,0.239,-3.58,-7.49,5.25,-9.59
16885.0,-9.354,0.218,-3.821,-9.256,-0.589,-3.486,-7.7,5.67,-11.41
,-9.485,-0.06,-3.862,-9.371,-0.019,-3.321,-5.67,5.39,-11.69
,-9.229,-0.471,-3.932,-9.426,0.287,-3.226,-2.87,5.04,-11.41
,-8.957,-0.44,-3.829,-9.471,0.378,-3.168,1.89,5.18,-10.78
16961.0,-9.423,0.275,-3.209,-9.323,-0.476,-3.62,8.47,5.88,-12.53
,-9.483,-0.017,-3.285,-9.21,-0.361,-3.731,10.15,6.51,-13.02
,-9.201,-0.258,-3.319,-9.332,-0.163,-3.977,11.06,6.58,-13.37
,-9.11,-0.165,-3.458,-9.323,0.225,-4.07,12.95,7.07,-13.58
17036.0,-9.229,0.304,-4.058,-9.325,0.0,-3.599,12.6,5.88,-17.57
,-9.27,-0.101,-4.03,-9.239,-0.072,-3.455,13.72,5.6,-18.27
,-9.172,-0.153,-3.877,-9.196,-0.359,-3.257,17.01,5.6,-18.83
,-9.318,-0.098,-3.757,-9.289,-0.218,-3.336,20.16,5.46,-19.46
17112.0,-9.33,-0.17,-3.434,-9.129,-0.132,-3.738,15.12,4.9,-25.55
,-9.225,-0.132,-3.616,-9.062,-0.443,-3.616,14.14,4.69,-26.67
,-9.177,-0.304,-3.731,-9.246,-0.675,-3.592,13.72,4.55,-27.72
,-9.165,-0.242,-3.776,-9.263,-0.778,-3.496,14.28,4.41,-28.7
17188.0,-9.165,-0.912,-3.467,-9.445,-0.589,-2.647,11.2,3.92,-33.67
,-9.201,-1.101,-3.305,-9.509,-0.486,-2.544,12.81,4.62,-34.09
,-9.229,-1.089,-3.027,-9.485,-0.57,-2.467,15.68,5.6,-34.86
,-9.337,-0.847,-2.819,-9.521,-0.952,-2.596,17.85,6.37,-35.63
17264.0,-9.483,-0.924,-2.845,-9.732,-1.785,-4.798,8.82,10.5,-42.77
,-9.548,-0.787,-3.283,-9.988,-2.285,-5.042,7.77,10.64,-43.82
,-9.701,-0.921,-3.891,-10.337,-2.74,-5.095,5.67,10.36,-44.73
,-9.706,-1.275,-4.413,-10.383,-3.173,-4.953,4.76,9.94,-45.15
17339.0,-10.06,-3.376,-4.716,-9.801,-3.939,-3.415,30.94,6.3,-34.02
,-10.019,-3.412,-4.41,-9.39,-3.565,-3.235,36.96,5.6,-30.38
,-10.246,-3.623,-4.078,-9.141,-3.104,-3.257,41.37,5.18,-26.88
,-10.129,-3.936,-3.766,-9.04,-3.017,-3.326,45.64,4.69,-23.94
17415.0,-9.052,-3.008,-3.431,-8.784,-2.639,-4.015,52.64,3.29,-12.39
,-8.918,-2.828,-3.721,-8.744,-2.166,-3.781,53.83,2.38,-10.43
,-8.835,-2.726,-3.91,-8.634,-1.697,-3.439,54.67,1.33,-8.68
,-8.732,-2.709,-4.037,-8.404,-1.395,-2.986,55.09,0.14,-6.23
17490.0,-8.311,-1.354,-2.709,-8.062,-2.357,-3.192,43.89,-3.01,8.68
,-8.392,-1.675,-2.429,-8.2,-1.823,-3.367,43.68,-0.98,12.18
,-8.323,-2.17,-2.704,-8.265,-0.871,-3.585,44.59,1.33,15.96
,-8.279,-2.374,-2.84,-8.212,-0.024,-3.721,48.44,3.99,20.65
17566.0,-8.399,0.251,-3.577,-8.366,-0.28,-3.216,41.37,11.13,32.34
,-8.598,0.275,-3.518,-8.516,-1.433,-3.068,28.56,9.17,32.76
,-8.54,0.086,-3.266,-8.739,-1.862,-2.972,14.98,6.93,33.04
,-8.397,0.452,-3.228,-8.746,-2.099,-3.12,1.54,4.34,31.99
17642.0,-8.753,-2.204,-3.151,-9.069,-0.648,-3.329,-26.32,2.38,34.23
,-8.765,-2.139,-3.149,-9.186,-0.838,-3.408,-24.78,2.59,35.63
,-8.789,-1.783,-3.084,-8.748,-3.144,-3.601,-23.03,3.08,36.54
,-8.952,-1.062,-3.092,-8.66,-4.326,-3.486,-23.24,3.08,36.19
17718.0,-8.957,-4.068,-3.611,-9.107,-0.103,-4.042,-31.22,7.07,44.8
,-8.938,-2.95,-3.788,-9.167,-0.235,-4.078,-17.08,6.16,47.11
,-8.813,-1.613,-3.676,-9.38,-0.503,-3.905,-11.13,5.74,46.76
,-8.827,-0.517,-3.879,-9.296,-0.699,-3.934,-12.25,5.11,43.96
17793.0,-9.289,-1.017,-3.86,-9.117,-3.07,-4.094,-58.24,-0.28,26.53
,-9.273,-1.335,-3.991,-8.93,-3.757,-4.149,-65.52,-1.47,25.34
,-9.337,-1.529,-4.07,-9.0,-3.683,-4.113,-71.4,-2.03,24.78
,-9.268,-1.78,-4.056,-9.081,-3.022,-4.018,-75.74,-2.1,24.71
17869.0,-9.048,-2.108,-3.79,-9.129,-0.651,-4.207,-39.62,0.14,33.18
,-9.127,-1.223,-3.896,-9.119,-1.039,-4.166,-36.47,0.07,31.92
,-9.225,-0.596,-4.042,-8.978,-1.33,-4.393,-39.48,-0.98,29.61
,-9.093,-0.426,-4.013,-8.866,-1.852,-4.611,-46.48,-2.1,27.16
17944.0,-8.835,-2.182,-4.58,-9.002,-1.799,-3.915,-63.84,-10.71,16.73
,-9.081,-2.194,-4.511,-9.146,-2.022,-3.575,-58.52,-12.88,15.96
,-9.091,-2.213,-4.216,-9.241,-2.077,-3.745,-53.13,-14.49,15.54
,-9.172,-1.993,-3.917,-9.131,-2.309,-3.419,-47.81,-15.89,15.19
18020.0,-9.076,-2.331,-3.211,-10.005,-3.101,-2.848,-23.73,-13.09,18.41
,-9.033,-2.34,-2.974,-10.177,-4.154,-3.056,-15.61,-11.13,19.53
,-9.057,-2.024,-2.855,-9.378,-5.511,-3.929,-6.93,-9.31,20.37
,-9.273,-1.642,-2.63,-8.722,-7.779,-4.159,0.14,-8.89,18.34
18096.0,-8.555,-9.33,-3.542,-10.144,2.13,-3.91,0.28,-8.54,-13.79
,-8.133,-5.664,-3.731,-10.823,0.206,-3.69,28.35,-6.16,-7.28
,-9.49,-0.469,-3.388,-10.663,0.433,-3.35,40.25,-5.46,-3.78
,-10.091,3.281,-3.979,-10.495,2.505,-3.089,22.4,-4.13,-3.08
18172.0,-10.136,2.915,-2.828,-9.165,-0.302,-2.498,29.4,-2.94,2.94
,-9.923,2.201,-2.486,-9.294,-0.9,-2.594,28.0,-2.73,3.71
,-9.335,1.484,-2.221,-9.351,-1.429,-2.608,25.9,-2.1,2.87
,-9.139,0.617,-2.3,-9.407,-1.859,-2.807,24.64,-1.33,2.1
18248.0,-9.426,-1.764,-2.85,-9.428,-0.23,-3.252,-2.52,1.12,-2.73
,-9.483,-1.345,-3.058,-9.564,0.036,-3.317,-3.78,1.33,-2.59
,-9.474,-0.9,-3.163,-9.646,0.481,-3.458,-4.06,1.96,-1.96
,-9.392,-0.572,-3.197,-9.567,0.771,-3.592,-3.01,2.52,-1.05
18323.0,-9.354,0.998,-3.644,-9.371,-0.012,-3.47,17.85,2.45,3.01
,-9.282,0.993,-3.702,-9.442,-0.318,-3.242,16.87,1.68,2.59
,-9.383,0.763,-3.759,-9.351,-0.469,-2.998,14.14,0.63,1.75
,-9.385,0.369,-3.659,-9.27,-0.517,-2.733,10.64,-0.49,0.84
18399.0,-9.337,-0.503,-2.659,-9.402,-0.321,-2.67,6.65,-0.56,0.63
,-9.438,-0.519,-2.527,-9.507,-0.175,-2.745,6.58,0.21,1.05
,-9.474,-0.366,-2.603,-9.519,-0.153,-2.874,6.3,0.77,1.33
,-9.49,-0.39,-2.661,-9.519,0.01,-3.053,5.39,1.26,1.61
18475.0,-9.442,0.057,-3.149,-9.21,0.117,-3.539,3.71,3.36,2.31
,-9.423,0.12,-3.331,-9.452,-0.007,-3.57,3.01,2.94,2.1
,-9.316,0.196,-3.486,-9.584,-0.194,-3.53,1.96,2.8,2.03
,-9.186,0.144,-3.486,-9.514,-0.357,-3.281,1.12,2.31,1.82
18551.0,-9.375,-0.45,-3.084,-9.715,-0.433,-2.675,3.01,1.4,3.15
,-9.397,-0.371,-2.996,-9.818,-0.467,-2.611,4.62,1.89,3.64
,-9.596,-0.321,-2.917,-10.041,-0.713,-2.623,5.39,2.17,3.99
,-9.713,-0.316,-2.804,-10.077,-0.775,-2.577,4.55,2.31,4.2
18626.0,-10.108,-0.397,-2.584,-9.878,-1.007,-3.408,-1.26,5.67,5.18
,-10.242,0.045,-2.824,-9.655,-1.89,-3.924,-7.77,4.48,4.34
,-10.1,0.392,-2.812,-9.416,-1.496,-4.704,-20.58,2.17,2.8
,-9.727,0.096,-2.938,-9.411,-1.543,-4.743,-33.6,0.21,1.19
18702.0,-9.407,-1.381,-4.843,-8.804,-2.575,-4.042,-24.22,-2.1,-2.31
,-9.208,-1.579,-4.85,-8.741,-2.615,-3.979,-21.28,-1.47,-3.36
,-9.292,-2.125,-4.496,-8.938,-2.946,-3.975,-17.15,-0.21,-3.43
,-9.127,-2.685,-4.24,-8.885,-3.209,-3.912,-10.5,0.56,-4.55
18777.0,-8.512,-3.288,-4.046,-8.334,-4.929,-4.843,9.1,13.86,-15.26
,-8.339,-3.439,-4.386,-8.301,-5.049,-4.853,10.43,15.12,-17.15
,-8.392,-3.616,-4.649,-8.524,-4.408,-4.704,14.35,16.66,-19.32
,-8.323,-4.171,-4.798,-8.729,-3.565,-4.719,20.51,18.34,-21.14
18853.0,-8.825,-3.142,-4.472,-9.32,-2.407,-3.905,79.66,19.11,-25.83
,-8.823,-3.039,-4.298,-9.246,-2.553,-3.821,83.65,18.9,-27.79
,-8.935,-2.9,-4.027,-9.306,-3.022,-3.716,88.27,18.55,-29.68
,-9.182,-2.647,-4.133,-9.576,-2.601,-3.757,92.47,17.36,-31.85
18929.0,-9.785,-2.039,-3.824,-9.842,-1.132,-3.652,102.9,11.06,-35.77
,-9.866,-1.685,-3.838,-9.904,-0.962,-3.69,102.48,9.03,-36.89
,-9.895,-1.481,-3.723,-9.794,-1.46,-3.754,100.59,7.42,-37.73
,-9.983,-1.259,-3.771,-9.873,-1.479,-3.649,98.28,5.32,-38.5
19005.0,-10.211,-1.053,-3.494,-9.442,-1.357,-2.74,87.92,-4.13,-37.03
,-10.031,-0.357,-3.163,-9.44,-0.682,-2.883,85.05,-8.4,-37.45
,-9.49,0.0,-3.206,-9.442,-0.522,-3.113,76.09,-11.06,-37.94
,-9.39,-1.01,-2.996,-9.351,-0.457,-3.053,65.24,-10.85,-37.17
19081.0,-9.363,-0.421,-2.752,-9.007,-0.919,-2.52,43.26,-14.77,-32.83
,-9.325,-0.347,-2.678,-8.971,-0.991,-2.455,36.96,-15.54,-32.48
,-9.244,-0.318,-2.324,-8.703,-0.749,-2.369,31.08,-16.1,-32.34
,-9.162,-0.684,-2.477,-8.033,-0.354,-2.273,23.94,-16.8,-32.34
19156.0,-7.887,-0.766,-1.933,-8.557,-0.876,-2.558,-14.91,-19.32,-28.14
,-8.167,-1.108,-2.391,-8.445,-1.007,-2.257,-20.72,-15.4,-25.9
,-8.351,-1.311,-2.175,-8.196,-1.22,-2.345,-21.98,-12.18,-22.68
,-8.653,-1.022,-2.541,-8.533,-2.067,-2.108,-22.61,-11.2,-19.88
19232.0,-8.471,-2.245,-2.187,-8.315,-3.068,-2.972,-38.85,-0.35,-9.24
,-8.291,-1.742,-2.359,-8.753,-3.731,-2.596,-37.31,2.59,-5.53
,-8.488,-1.718,-2.56,-9.131,-3.12,-2.352,-39.48,4.97,-1.4
,-8.485,-2.412,-2.726,-9.304,-1.996,-2.379,-40.67,6.51,2.24
19308.0,-8.909,-2.012,-2.28,-9.294,-1.948,-3.199,-18.34,6.93,20.23
,-8.808,-2.596,-2.304,-9.545,-2.359,-3.221,-20.86,7.77,22.47
,-8.995,-2.285,-2.491,-9.514,-2.659,-3.202,-17.99,10.36,25.06
,-9.167,-1.878,-2.759,-9.622,-3.063,-3.185,-16.59,12.67,27.86
19384.0,-9.71,-3.166,-3.202,-10.419,-2.651,-3.218,22.4,19.32,52.22
,-9.517,-2.623,-3.178,-10.613,-5.197,-3.477,35.35,19.74,55.65
,-9.213,-0.792,-3.187,-10.668,-5.815,-3.96,35.21,18.55,54.67
,-9.691,-0.682,-3.252,-10.514,-4.628,-4.24,17.85,16.52,49.77
19459.0,-10.201,-2.642,-4.587,-9.103,0.96,-3.991,-47.88,4.62,30.8
,-9.706,-0.948,-4.57,-9.706,1.737,-3.941,-52.71,3.01,31.71
,-8.988,-1.003,-4.204,-9.773,1.158,-3.714,-53.2,1.68,33.18
,-8.701,-0.428,-3.953,-9.749,-0.165,-3.472,-43.61,0.42,34.86
19535.0,-9.469,-1.938,-3.228,-9.483,-0.66,-2.879,-47.25,-5.95,31.92
,-9.337,-2.773,-2.879,-9.521,-0.436,-3.087,-39.69,-5.18,31.99
,-9.608,-2.089,-2.994,-9.418,-0.158,-3.348,-28.42,-3.85,32.13
,-9.318,-1.086,-2.929,-9.383,0.029,-3.62,-25.62,-2.87,31.64
19610.0,-9.232,-0.069,-3.838,-9.45,0.333,-3.798,-17.15,-1.82,27.93
,-9.22,-0.443,-3.929,-9.442,0.024,-3.58,-11.83,-1.82,27.93
,-9.284,-0.404,-3.953,-9.282,-0.794,-3.355,-5.95,-2.31,27.51
,-9.354,0.077,-3.879,-9.299,-1.065,-3.13,-2.52,-2.66,26.67
19686.0,-9.634,-0.45,-3.18,-9.586,-0.943,-3.532,4.2,-2.87,23.24
,-9.538,0.201,-3.364,-9.447,-0.287,-3.647,8.05,-2.52,22.96
,-9.368,0.165,-3.448,-9.399,0.474,-3.568,6.51,-2.52,22.33
,-9.371,-0.625,-3.551,-9.371,0.62,-3.345,4.9,-2.73,21.7
19762.0,-9.366,0.498,-3.156,-9.191,0.117,-2.254,3.85,-5.11,16.24
,-9.244,0.148,-2.828,-9.261,-0.311,-2.206,0.21,-5.25,14.98
,-9.375,0.0,-2.575,-9.474,0.098,-2.125,0.63,-4.69,14.0
,-9.651,0.17,-2.431,-9.155,0.313,-2.338,0.07,-4.41,12.6
19838.0,-9.469,0.179,-2.67,-9.284,0.244,-3.63,-14.28,-1.19,9.24
,-9.777,-0.117,-3.084,-9.574,0.632,-3.575,-15.61,-0.63,8.54
,-9.414,-0.773,-3.408,-9.617,0.993,-3.393,-13.3,0.21,8.89
,-9.206,-0.625,-3.594,-9.316,1.012,-3.23,-6.44,0.91,9.87
19913.0,-9.308,0.888,-3.108,-9.354,-0.811,-2.522,-17.5,-3.29,4.27
,-9.426,0.969,-2.958,-9.507,-0.806,-2.587,-19.39,-3.71,3.78
,-9.466,1.072,-2.895,-9.603,-0.663,-2.666,-24.43,-4.62,2.52
,-9.277,0.505,-2.781,-9.495,-0.503,-2.745,-31.85,-5.11,1.61
19989.0,-9.569,-0.653,-2.984,-9.172,-0.328,-2.989,-18.55,0.63,3.78
,-9.273,-0.644,-3.025,-9.179,-0.371,-2.723,-17.71,1.54,4.34
,-9.21,-0.742,-3.104,-9.27,-0.361,-2.596,-16.8,2.03,4.9
,-9.217,-0.447,-3.075,-9.351,-0.433,-2.592,-14.91,2.73,5.6
20065.0,-9.189,-0.768,-1.378,-9.141,-0.627,-3.857,-3.22,7.63,9.94
,-9.079,1.5,-2.888,-9.22,0.019,-3.869,2.38,7.0,8.4
,-9.782,2.032,-3.898,-9.557,0.495,-3.379,-2.59,7.14,7.84
,-9.024,0.354,-3.419,-9.742,1.256,-3.513,-12.11,7.42,7.91
20141.0,-9.514,1.39,-3.379,-9.713,0.754,-3.233,11.41,6.37,8.47
,-9.328,1.103,-3.087,-9.459,0.335,-3.343,0.77,5.04,5.88
,-9.641,1.141,-3.154,-9.426,0.105,-3.625,-6.3,4.2,3.57
,-10.01,1.153,-3.242,-9.241,-0.163,-3.893,-10.78,3.71,1.61
20217.0,-8.928,-1.12,-3.996,-8.957,0.177,-3.597,5.81,3.43,3.71
,-8.949,-1.524,-3.999,-9.215,0.639,-3.247,13.44,3.43,5.46
,-9.194,-0.945,-4.101,-9.474,0.878,-2.982,23.03,3.15,6.65
,-9.103,-0.337,-3.946,-9.517,1.098,-2.776,26.6,2.94,7.28
20292.0,-9.483,1.003,-2.584,-9.505,0.61,-3.082,10.57,1.47,4.48
,-9.399,0.629,-2.627,-9.43,0.309,-3.295,9.73,1.96,3.85
,-9.478,0.562,-2.766,-9.407,0.144,-3.441,10.85,2.59,3.57
,-9.526,0.713,-2.898,-9.225,-0.096,-3.537,10.71,2.94,3.01
20368.0,-9.167,-0.227,-3.549,-9.251,0.467,-3.513,0.21,2.24,0.28
,-9.373,-0.022,-3.53,-9.363,0.376,-3.329,2.52,2.24,0.42
,-9.402,0.297,-3.592,-9.344,0.495,-3.238,3.85,1.89,0.49
,-9.361,0.565,-3.64,-9.38,0.591,-3.166,3.43,1.61,0.63
20443.0,-9.39,0.605,-3.106,-9.263,-0.163,-2.953,0.63,0.35,-0.84
,-9.335,0.495,-3.077,-9.196,-0.182,-2.891,-1.47,0.35,-1.33
,-9.354,0.402,-3.053,-9.471,0.175,-2.991,-2.73,0.56,-1.61
,-9.318,0.213,-2.982,-9.564,0.323,-3.187,-2.8,0.84,-1.75
20519.0,-9.368,0.06,-3.453,-9.354,-0.488,-3.74,1.82,2.38,-0.42
,-8.93,-0.885,-3.628,-9.765,0.428,-3.647,0.63,2.59,0.35
,-9.107,-0.952,-3.714,-9.799,1.732,-3.635,5.74,2.45,1.54
,-9.162,-0.995,-3.805,-9.244,2.075,-3.408,10.5,2.73,2.38
20595.0,-8.701,0.514,-3.18,-9.756,1.464,-3.218,-11.27,-1.82,-3.29
,-8.732,-0.531,-2.903,-9.421,0.692,-3.345,-13.86,-2.1,-3.15
,-9.426,-0.179,-2.919,-9.086,0.089,-3.475,-5.88,-1.54,-2.73
,-9.907,0.835,-3.068,-9.134,0.055,-3.556,-1.47,-0.56,-3.22
20671.0,-9.631,0.759,-3.599,-9.509,0.548,-3.123,-2.66,-0.28,-4.83
,-9.768,1.295,-3.386,-9.438,0.112,-3.139,-5.32,-0.56,-6.23
,-9.868,1.228,-3.168,-9.383,-0.069,-3.245,-10.15,-1.26,-7.49
,-9.488,1.208,-3.092,-9.366,0.048,-3.266,-12.67,-1.54,-8.26
20746.0,-9.464,0.156,-3.104,-9.194,0.275,-3.111,6.3,0.63,-6.79
,-9.39,0.285,-3.149,-9.28,0.103,-3.104,5.88,0.91,-7.28
,-9.395,0.266,-3.161,-9.34,0.464,-2.936,4.83,0.84,-7.49
,-9.33,0.172,-3.116,-9.409,0.402,-2.931,4.27,0.56,-7.84
20822.0,-9.576,0.713,-2.869,-9.292,-0.127,-2.742,1.54,0.42,-9.38
,-9.335,0.668,-2.795,-9.442,-0.156,-2.704,-3.36,0.42,-10.08
,-9.318,0.388,-2.757,-9.466,-0.316,-2.807,-6.23,0.84,-10.78
,-9.299,0.251,-2.723,-9.411,-0.069,-2.764,-8.75,1.12,-11.48
20898.0,-9.462,0.426,-2.867,-9.318,-0.122,-3.324,-7.14,4.76,-12.6
,-9.457,0.562,-3.096,-9.452,-0.177,-3.343,-7.98,5.11,-13.3
,-9.375,0.27,-3.209,-9.337,-0.16,-3.144,-8.4,5.32,-13.58
,-9.282,0.115,-3.288,-9.356,0.313,-3.214,-6.09,5.74,-13.58
20974.0,-9.407,0.378,-3.168,-9.28,-0.182,-3.702,-2.59,6.23,-16.31
,-9.368,0.479,-3.206,-9.249,-0.347,-3.752,-6.72,5.74,-17.15
,-9.359,0.108,-3.312,-9.215,-0.842,-3.838,-8.19,5.46,-17.71
,-9.277,-0.022,-3.482,-9.239,-0.601,-3.716,-6.09,5.53,-18.13
21050.0,-9.411,-0.158,-3.661,-9.131,-0.809,-3.431,6.72,5.81,-18.55
,-9.457,0.189,-3.577,-9.275,-0.237,-3.393,5.46,5.81,-19.39
,-9.423,-0.024,-3.467,-9.268,-0.297,-3.333,3.92,5.67,-19.88
,-9.194,-0.696,-3.455,-9.251,-0.424,-3.319,4.55,5.81,-20.09
21125.0,-9.342,-0.39,-3.405,-9.033,-1.024,-3.352,10.92,6.37,-22.4
,-9.256,-0.194,-3.278,-9.229,-0.883,-3.29,11.9,6.58,-23.17
,-9.354,-0.06,-3.41,-9.442,-0.388,-3.3,12.67,6.65,-24.01
,-9.261,-0.325,-3.451,-9.347,-0.069,-3.29,11.69,6.79,-24.71
21201.0,-9.299,-0.318,-3.259,-8.973,-1.062,-3.379,13.16,7.7,-28.49
,-9.392,-0.598,-3.376,-9.095,-1.12,-3.451,13.3,8.05,-29.4
,-9.277,-0.811,-3.393,-9.299,-0.581,-3.544,14.91,8.12,-30.03
,-9.198,-0.833,-3.446,-9.344,-0.258,-3.522,16.52,8.12,-30.73
21276.0,-9.383,-0.072,-3.431,-9.576,-0.366,-2.893,17.22,7.98,-36.12
,-9.483,-0.179,-3.336,-9.576,-0.67,-2.95,17.36,8.26,-37.73
,-9.572,-0.227,-3.125,-9.6,-1.146,-3.262,18.69,8.75,-39.27
,-9.541,-0.302,-2.965,-9.706,-1.338,-3.518,19.53,9.24,-40.88
21352.0,-9.931,-1.517,-3.771,-10.603,-4.307,-4.448,14.98,11.62,-46.34
,-10.179,-1.646,-4.106,-10.337,-4.649,-4.243,17.29,11.55,-46.2
,-10.608,-2.419,-4.429,-10.426,-4.556,-3.891,19.53,11.48,-45.01
,-10.897,-3.577,-4.441,-10.692,-4.152,-3.637,24.08,10.99,-41.86
21428.0,-10.39,-3.522,-3.273,-8.909,-1.309,-2.814,60.34,10.01,-19.11
,-9.971,-2.86,-2.807,-8.708,-1.529,-3.312,58.38,9.03,-16.24
,-9.646,-2.044,-2.568,-8.519,-2.036,-3.903,52.15,8.19,-13.51
,-9.304,-1.785,-2.479,-8.332,-2.35,-4.276,44.38,8.4,-10.57
21504.0,-8.15,-2.434,-4.357,-7.789,-1.486,-3.711,46.97,5.88,7.28
,-8.124,-2.295,-4.192,-7.992,-1.46,-3.3,53.9,5.11,12.11
,-7.942,-1.96,-4.113,-8.239,-0.646,-2.989,59.43,4.62,15.54
,-7.789,-1.493,-3.924,-8.306,0.771,-2.905,61.25,4.34,18.55
21579.0,-8.375,1.474,-3.178,-8.586,-1.163,-3.908,40.88,8.82,27.79
,-8.674,1.321,-3.053,-8.576,-1.771,-3.824,20.02,9.1,28.21
,-8.928,0.967,-3.393,-8.72,-1.596,-3.867,0.28,7.77,28.77
,-8.782,0.048,-3.891,-8.658,-1.053,-3.738,-17.5,5.53,29.61
21655.0,-8.729,-0.548,-3.551,-8.938,-0.5,-3.441,-23.73,-2.45,41.72
,-8.808,-0.235,-3.419,-8.71,-1.709,-3.463,-27.3,-3.78,41.51
,-8.792,-0.105,-3.364,-8.911,-2.888,-4.25,-32.97,-3.85,41.23
,-8.993,0.098,-3.247,-8.413,-4.13,-4.066,-40.46,-3.36,40.95
21731.0,-8.229,-4.183,-4.111,-8.839,-0.885,-4.101,-38.71,0.07,56.77
,-8.2,-3.269,-4.238,-8.978,-0.993,-3.865,-19.53,0.77,59.99
,-8.449,-2.099,-4.264,-9.048,-0.943,-3.946,-5.04,1.33,60.69
,-8.672,-1.132,-4.25,-9.174,-1.316,-3.771,0.7,1.33,59.36
21807.0,-9.349,-1.385,-3.692,-9.375,-2.295,-3.888,-24.92,0.28,50.61
,-9.447,-1.472,-3.994,-9.244,-1.756,-4.113,-29.82,0.63,48.37
,-9.301,-1.96,-4.123,-9.153,-1.153,-4.142,-35.77,0.91,45.85
,-9.354,-2.304,-4.032,-9.38,-1.079,-4.094,-38.43,1.33,44.1
21882.0,-9.507,-1.218,-4.113,-9.146,-2.462,-3.898,-63.84,-0.35,27.93
,-9.512,-1.438,-4.056,-9.06,-2.594,-3.692,-70.91,-1.47,24.08
,-9.43,-1.665,-4.106,-9.17,-2.596,-3.702,-77.14,-3.43,20.44
,-9.194,-2.06,-4.054,-8.993,-2.443,-3.805,-82.18,-5.18,16.8
21958.0,-9.074,-2.23,-3.867,-8.507,-3.455,-4.625,-72.8,-10.36,5.04
,-9.019,-2.395,-4.061,-7.83,-5.154,-5.087,-71.12,-12.74,2.38
,-8.806,-2.754,-4.051,-8.681,-8.461,-4.051,-67.76,-14.49,0.42
,-8.691,-2.996,-4.281,-9.299,-10.948,-4.429,-60.69,-16.52,-0.77
22034.0,-8.906,-8.088,-4.135,-9.926,-1.945,-3.843,61.11,-8.82,-4.69
,-7.968,-3.525,-4.448,-11.187,-1.864,-3.199,84.14,-7.42,-0.98
,-8.756,-1.223,-4.195,-11.661,-1.019,-2.68,80.08,-7.14,5.11
,-9.418,-0.782,-4.379,-11.852,0.641,-2.706,57.26,-5.18,6.65
22109.0,-11.596,1.603,-2.594,-9.349,3.204,-2.544,38.01,-1.19,4.62
,-10.687,2.29,-2.204,-9.136,2.053,-2.862,45.36,-1.89,7.49
,-9.835,3.376,-2.094,-8.978,0.79,-3.046,48.51,-1.75,7.21
,-9.488,3.733,-2.142,-8.804,-0.05,-3.197,43.54,-0.98,5.25
22185.0,-8.851,-1.031,-3.18,-9.55,-1.606,-2.886,-5.18,-5.04,-1.26
,-8.926,-2.0,-3.092,-9.727,-0.498,-3.084,-9.66,-4.41,-1.89
,-9.072,-2.608,-3.077,-9.655,0.194,-3.003,-7.91,-3.01,-1.68
,-9.294,-2.453,-2.953,-9.464,0.5,-2.893,-1.12,-1.61,-0.42
22261.0,-9.579,0.634,-2.793,-9.414,0.651,-2.903,3.43,0.21,2.03
,-9.73,0.751,-2.929,-9.332,0.491,-2.852,6.23,0.42,2.24
,-9.576,0.881,-2.986,-9.387,0.328,-2.9,8.89,0.98,2.52
,-9.488,0.768,-2.931,-9.409,0.132,-2.917,10.5,1.61,2.8
22337.0,-9.368,-0.266,-2.898,-9.361,-0.44,-3.24,2.31,1.96,0.77
,-9.301,-0.672,-2.936,-9.313,-0.115,-3.209,0.28,2.24,0.63
,-9.373,-0.804,-3.02,-9.332,0.053,-3.195,0.84,2.52,0.84
,-9.497,-0.644,-3.252,-9.624,0.136,-3.173,2.03,2.73,0.98
22412.0,-9.619,0.182,-3.106,-9.842,0.034,-2.706,0.56,3.22,2.03
,-9.512,0.105,-2.977,-9.916,-0.261,-2.577,-0.42,3.43,2.17
,-9.423,-0.012,-2.714,-9.67,-0.285,-2.697,-0.49,4.34,2.52
,-9.56,0.072,-2.682,-9.72,-0.459,-2.661,0.56,5.11,2.66
22488.0,-9.899,-0.684,-2.702,-10.132,-1.242,-2.599,-1.89,8.26,3.15
,-9.931,-0.546,-2.752,-10.203,-0.754,-2.371,-2.31,9.31,3.36
,-9.964,-0.622,-2.647,-10.144,0.354,-2.589,-2.87,10.43,4.83
,-9.813,-0.701,-2.623,-9.73,0.067,-2.749,-3.71,11.2,6.02
22564.0,-9.33,-0.663,-3.161,-9.241,-2.871,-4.637,-24.15,8.05,4.06
,-9.184,-1.661,-3.764,-9.124,-1.914,-4.499,-23.94,10.22,4.27
,-9.146,-2.687,-4.195,-8.971,-1.048,-4.592,-17.92,11.55,5.39
,-9.05,-3.228,-4.716,-8.971,-1.156,-4.695,-8.54,12.95,6.51
22640.0,-8.897,-1.735,-4.858,-8.461,-4.29,-4.733,9.8,12.46,-5.11
,-8.818,-2.438,-4.781,-8.48,-4.362,-4.633,8.05,11.97,-9.17
,-8.49,-3.144,-4.855,-8.638,-3.936,-4.535,8.33,10.78,-12.18
,-8.476,-3.697,-4.788,-8.775,-3.486,-4.503,11.55,9.59,-14.07
22715.0,-8.861,-3.173,-4.413,-9.194,-3.324,-4.326,50.68,4.13,-24.71
,-8.973,-3.001,-4.482,-9.476,-2.838,-4.171,54.04,3.36,-27.37
,-9.024,-3.494,-4.513,-9.586,-2.608,-4.006,55.44,2.59,-29.61
,-8.99,-3.719,-4.48,-9.471,-2.534,-3.838,59.64,2.52,-30.87
22791.0,-9.493,-2.819,-3.735,-9.701,-2.276,-3.814,75.46,-1.96,-39.62
,-9.335,-3.183,-3.47,-9.842,-1.677,-3.841,74.76,-2.45,-40.32
,-9.182,-3.273,-3.565,-9.809,-1.35,-3.683,76.37,-2.59,-40.39
,-9.33,-2.857,-3.642,-9.797,-1.443,-3.814,79.8,-2.45,-40.95
22866.0,-9.691,-1.917,-3.821,-9.904,-2.008,-3.374,64.89,-6.02,-51.31
,-9.749,-1.835,-3.635,-9.505,-0.864,-3.123,65.66,-5.81,-50.47
,-9.856,-2.084,-3.666,-9.244,-0.158,-3.513,66.71,-5.95,-49.49
,-9.825,-2.419,-3.625,-9.119,-0.538,-3.553,68.32,-6.44,-48.02
22942.0,-8.971,-0.692,-3.302,-8.918,-0.282,-3.405,49.56,-15.61,-48.23
,-8.926,-1.45,-3.228,-8.961,0.361,-3.503,43.96,-13.65,-45.99
,-8.811,-2.19,-3.116,-8.961,0.445,-3.422,40.81,-12.04,-42.7
,-8.705,-1.498,-2.917,-8.892,0.287,-2.967,44.38,-11.2,-38.85
23018.0,-9.016,-0.048,-2.915,-8.306,0.57,-2.747,8.4,-16.73,-34.86
,-8.686,-0.122,-2.723,-7.779,-0.067,-2.91,1.54,-17.57,-33.32
,-8.598,-0.103,-2.245,-7.463,-2.446,-2.895,-4.55,-17.71,-31.22
,-8.763,0.34,-2.517,-8.174,-3.625,-2.639,-11.83,-18.13,-29.4
23094.0,-8.055,-2.137,-2.17,-8.033,-3.056,-2.359,-19.95,0.42,-12.18
,-8.425,0.646,-2.74,-8.296,-3.685,-2.187,-17.92,1.68,-7.49
,-8.442,0.562,-2.62,-8.827,-3.721,-1.998,-35.63,1.75,-5.46
,-8.258,-1.596,-2.496,-8.976,-3.159,-2.166,-47.74,2.31,-3.36
23170.0,-9.304,-2.45,-2.197,-9.33,-2.331,-2.625,0.91,7.14,21.14
,-9.39,-2.02,-2.249,-9.586,-3.142,-2.857,-1.33,5.81,24.15
,-9.383,-1.577,-2.146,-9.646,-3.362,-2.773,-9.87,6.65,25.48
,-9.273,-1.421,-2.235,-9.658,-2.917,-2.364,-22.33,8.75,25.97
23245.0,-9.801,-1.929,-2.484,-9.541,-2.393,-3.412,-16.8,12.74,36.61
,-9.794,-1.45,-2.91,-9.584,-3.041,-3.661,-18.55,12.53,37.31
,-9.694,-1.364,-3.106,-10.115,-3.204,-3.68,-24.78,12.04,37.17
,-9.619,-1.871,-3.116,-10.694,-2.8,-3.886,-31.92,11.2,36.82
23321.0,-11.046,-1.768,-4.24,-8.942,-2.812,-2.812,-8.75,7.7,43.26
,-10.986,-1.737,-3.932,-8.705,-2.436,-2.429,-17.78,5.53,41.16
,-10.479,-1.747,-3.731,-9.452,-1.292,-2.424,-32.48,3.36,37.73
,-9.679,-2.4,-3.443,-9.541,0.215,-2.575,-46.48,1.68,35.21
23397.0,-9.249,0.931,-2.697,-9.385,-1.721,-4.092,-38.92,2.52,33.67
,-9.507,0.431,-2.891,-9.378,-1.618,-4.523,-46.06,2.03,31.92
,-9.679,-0.546,-3.18,-9.258,-1.0,-4.8,-50.33,1.89,29.89
,-9.464,-1.718,-3.573,-9.189,-0.263,-4.874,-48.37,2.38,29.61
23473.0,-9.141,0.024,-4.831,-9.294,-0.385,-3.81,-19.25,-1.19,29.4
,-9.172,0.182,-4.594,-9.646,-0.512,-3.489,-18.76,-2.87,28.28
,-9.332,0.261,-4.453,-9.356,-0.337,-3.206,-18.48,-4.83,26.95
,-9.148,0.022,-4.176,-9.287,-0.268,-2.855,-19.88,-6.23,25.76
23548.0,-9.483,-0.024,-2.726,-9.237,-1.491,-3.331,-16.03,-7.21,21.49
,-9.349,0.014,-2.747,-9.466,-0.878,-3.592,-19.67,-7.0,20.23
,-9.28,-0.739,-2.84,-9.476,-0.373,-3.812,-21.56,-6.51,19.74
,-9.249,-1.34,-3.039,-9.392,0.057,-3.896,-17.36,-5.39,19.88
23624.0,-9.332,0.177,-3.838,-9.483,-0.179,-3.264,0.77,-3.36,18.97
,-9.304,0.388,-3.714,-9.277,-0.388,-3.044,2.8,-3.5,18.34
,-9.191,0.436,-3.556,-9.354,0.043,-2.994,3.99,-3.71,17.78
,-9.541,0.251,-3.472,-9.356,0.151,-2.886,4.41,-3.92,17.22
23699.0,-9.289,-0.443,-2.852,-9.667,0.888,-3.218,1.75,-2.87,14.7
,-9.502,-0.821,-2.845,-9.593,0.002,-3.352,4.2,-2.1,14.56
,-9.493,0.084,-2.883,-9.222,-0.273,-3.35,9.59,-1.4,14.49
,-9.44,0.905,-3.041,-9.105,0.172,-3.436,9.94,-0.77,13.93
23775.0,-9.289,0.459,-3.132,-9.526,0.522,-2.699,4.55,-2.24,10.99
,-9.316,0.79,-2.821,-9.44,0.074,-2.776,-1.26,-3.15,9.87
,-9.524,0.646,-2.781,-9.517,0.273,-3.008,-5.25,-3.29,8.96
,-9.627,0.756,-2.632,-9.536,0.132,-3.139,-7.49,-3.15,7.77
23851.0,-9.519,-0.136,-3.23,-9.239,-0.5,-3.486,-6.44,-0.42,5.95
,-9.572,-0.34,-3.403,-9.117,-0.641,-3.252,-4.48,-0.14,5.67
,-9.404,-0.01,-3.496,-9.284,-0.244,-3.171,-2.1,-0.14,5.74
,-9.407,0.23,-3.589,-9.275,0.01,-2.855,-2.03,-0.21,5.81
23927.0,-9.174,-0.06,-2.58,-9.261,0.459,-2.692,-1.4,0.63,7.35
,-9.301,0.199,-2.379,-9.347,0.172,-2.776,-0.07,1.19,7.56
,-9.581,0.782,-2.453,-9.227,-0.67,-2.721,2.31,2.17,7.63
,-9.55,0.735,-2.592,-9.416,-0.653,-2.656,1.68,2.66,7.56
24002.0,-9.667,0.151,-2.747,-9.605,1.548,-3.266,1.47,5.11,7.56
,-9.701,0.847,-2.912,-9.775,1.905,-4.058,1.61,5.53,7.07
,-9.722,1.173,-3.056,-9.177,0.433,-3.676,0.07,5.95,6.65
,-9.682,1.299,-3.216,-8.251,-2.053,-3.324,0.35,5.95,6.09
24078.0,-9.17,-1.68,-3.47,-9.708,1.237,-3.4,4.55,3.71,6.58
,-9.921,0.684,-3.62,-9.586,1.034,-3.295,12.25,3.99,6.37
,-10.074,1.864,-3.242,-9.469,1.268,-3.36,5.18,3.64,4.48
,-9.586,1.615,-3.331,-9.378,1.338,-3.434,-2.59,3.08,2.66
24154.0,-9.351,0.83,-3.317,-8.765,-2.12,-2.486,10.5,1.82,1.12
,-9.344,0.278,-3.257,-9.574,-0.299,-2.568,6.86,1.26,-0.14
,-9.234,-0.342,-3.307,-9.651,1.129,-2.486,2.45,0.77,-1.26
,-8.49,-2.362,-2.838,-9.483,1.01,-2.46,-0.49,1.75,-0.28
24230.0,-9.328,0.366,-2.563,-9.265,0.493,-3.984,-0.14,5.67,1.26
,-9.435,0.208,-3.058,-9.28,0.402,-3.922,2.31,6.3,1.12
,-9.509,0.359,-3.522,-9.395,0.474,-3.886,5.67,6.16,0.98
,-9.38,0.534,-3.807,-9.409,0.45,-3.676,6.93,5.88,1.12
24306.0,-9.225,0.266,-3.501,-9.383,-0.005,-3.058,-6.3,1.68,-1.96
,-9.208,-0.074,-3.355,-9.497,0.373,-3.094,-7.35,1.33,-2.1
,-9.308,-0.055,-3.273,-9.44,0.426,-3.116,-5.67,1.12,-1.68
,-9.294,-0.249,-3.202,-9.301,0.254,-3.173,-3.92,1.47,-1.19
24381.0,-9.366,0.191,-3.257,-9.354,0.426,-3.498,-5.81,1.96,-1.33
,-9.301,-0.019,-3.4,-9.167,-0.036,-3.3,-5.46,2.24,-1.26
,-9.067,-0.105,-3.391,-8.614,-1.608,-2.737,-4.83,2.03,-0.98
,-9.241,0.036,-3.367,-8.725,-2.106,-2.46,-2.66,1.96,-0.56
24457.0,-9.347,-0.402,-2.546,-9.206,-0.007,-3.989,16.03,5.25,5.04
,-9.928,1.194,-2.836,-9.124,-0.378,-4.451,14.28,5.46,3.57
,-9.627,1.472,-2.97,-9.323,-0.182,-4.786,0.0,4.69,1.68
,-9.375,0.885,-3.398,-9.33,0.914,-5.042,-11.62,3.43,0.35
24532.0,-9.244,1.737,-5.004,-9.574,0.51,-3.36,3.85,-0.07,-0.21
,-9.414,1.811,-4.685,-9.564,0.505,-2.989,-2.38,-2.38,-1.47
,-9.548,1.244,-4.271,-9.502,0.608,-2.726,-8.54,-4.27,-2.66
,-9.567,0.859,-3.865,-9.615,0.955,-2.563,-10.29,-5.67,-3.85
24608.0,-9.737,0.878,-2.565,-9.366,0.045,-2.907,-4.69,-4.69,-5.88
,-9.579,0.39,-2.659,-9.366,0.457,-2.886,-6.51,-3.85,-6.3
,-9.363,-0.325,-2.79,-9.407,0.352,-2.733,-4.83,-2.8,-6.02
,-9.301,-0.45,-2.881,-9.399,-0.105,-2.661,1.4,-1.68,-4.97
24684.0,-9.318,-0.203,-2.632,-9.311,0.364,-2.709,1.54,1.19,-5.25
,-9.337,0.127,-2.632,-9.397,0.34,-2.771,4.62,2.24,-4.62
,-9.404,0.22,-2.589,-9.442,0.325,-2.862,5.67,3.01,-4.34
,-9.363,0.287,-2.592,-9.49,0.464,-3.082,4.48,3.22,-4.55
24760.0,-9.481,0.67,-3.278,-9.282,0.153,-3.372,-2.03,5.04,-6.3
,-9.268,0.404,-3.367,-9.428,0.699,-3.348,-3.92,4.83,-6.65
,-9.222,-0.055,-3.477,-9.517,0.754,-3.362,-4.69,4.76,-6.51
,-9.325,-0.069,-3.484,-9.39,0.357,-3.197,-3.43,4.62,-6.37
24835.0,-9.373,0.196,-3.077,-9.356,0.388,-3.087,-11.27,3.92,-9.73
,-9.483,0.036,-3.056,-9.407,0.251,-3.07,-7.7,4.62,-9.52
,-9.44,0.067,-2.924,-9.277,0.045,-3.087,-2.87,5.39,-9.17
,-9.418,0.531,-3.075,-9.433,0.079,-3.12,0.28,5.88,-9.45
24911.0,-9.533,0.503,-3.266,-9.179,-0.124,-3.68,-1.26,6.51,-12.74
,-9.344,0.756,-3.453,-9.306,-0.232,-3.647,-3.71,6.3,-13.58
,-9.308,0.122,-3.611,-9.366,0.067,-3.565,-6.44,6.09,-14.14
,-9.206,-0.093,-3.649,-9.466,0.151,-3.606,-5.46,6.16,-14.42
24986.0,-9.337,0.373,-3.537,-9.213,-0.098,-3.632,2.31,6.02,-16.38
,-9.191,0.376,-3.716,-9.277,-0.007,-3.69,1.4,5.81,-17.01
,-9.182,0.175,-3.726,-9.375,-0.254,-3.544,1.33,5.67,-17.5
,-9.28,-0.057,-3.695,-9.201,-0.467,-3.379,1.96,5.39,-18.13
25062.0,-9.378,-0.361,-3.312,-9.344,-0.376,-3.317,4.97,5.53,-20.3
,-9.44,-0.677,-3.175,-9.244,-0.292,-3.491,5.53,5.95,-20.51
,-9.1,-1.055,-3.094,-9.162,-0.467,-3.551,7.21,6.58,-20.23
,-9.198,-0.943,-3.214,-9.232,-0.562,-3.582,12.18,7.56,-19.95
25138.0,-9.122,-0.524,-3.582,-9.318,0.014,-3.618,19.88,8.89,-21.91
,-9.167,-0.474,-3.644,-9.378,0.191,-3.632,22.33,8.89,-22.12
,-9.378,-0.392,-3.604,-9.39,0.17,-3.635,24.43,9.17,-22.47
,-9.316,-0.175,-3.611,-9.332,0.036,-3.594,25.62,9.59,-23.24
25214.0,-9.344,-0.007,-3.498,-9.5,-0.452,-2.788,27.16,9.17,-29.96
,-9.335,-0.089,-3.309,-9.411,-0.426,-2.857,28.14,9.24,-31.22
,-9.476,-0.165,-3.149,-9.356,-0.613,-2.821,29.61,9.8,-32.69
,-9.464,-0.342,-2.958,-9.371,-0.771,-2.97,30.8,10.36,-34.16
25290.0,-9.323,-1.137,-3.032,-9.876,-0.909,-3.611,27.23,12.95,-40.11
,-9.368,-1.168,-3.199,-10.026,-1.46,-3.848,25.76,13.3,-41.23
,-9.526,-0.952,-3.412,-10.223,-2.45,-4.121,24.08,13.23,-42.21
,-9.706,-0.708,-3.508,-10.388,-3.47,-4.293,20.37,12.88,-43.19
25365.0,-10.28,-4.082,-4.427,-9.629,-3.518,-4.089,18.13,10.92,-35.35
,-10.16,-3.999,-4.434,-9.371,-3.408,-4.039,26.18,11.06,-31.01
,-9.899,-3.582,-4.319,-9.361,-3.388,-3.989,32.69,10.78,-28.07
,-9.813,-3.482,-4.14,-9.107,-3.472,-3.877,36.05,10.43,-26.74
25441.0,-8.964,-3.436,-3.774,-8.626,-3.032,-3.427,32.2,6.37,-22.75
,-8.866,-3.424,-3.647,-8.885,-2.766,-3.484,33.95,6.16,-21.0
,-8.595,-3.393,-3.527,-9.009,-2.268,-3.384,36.19,6.09,-18.97
,-8.459,-3.283,-3.467,-8.815,-1.62,-3.238,38.85,6.16,-16.31
25517.0,-8.447,-1.33,-3.135,-8.224,-1.271,-3.982,29.75,4.55,-0.63
,-8.521,-1.304,-3.379,-8.1,-1.472,-3.982,29.96,5.67,3.99
,-8.485,-1.472,-3.508,-8.066,-1.445,-3.903,34.23,6.58,8.68
,-8.385,-1.251,-3.766,-7.928,-1.07,-3.719,39.62,6.3,12.25
25593.0,-8.351,-0.232,-3.838,-8.356,-0.713,-3.888,53.13,4.76,30.38
,-8.591,0.608,-4.286,-8.15,-1.811,-3.728,43.61,2.1,31.29
,-8.581,1.249,-4.104,-8.246,-2.166,-3.388,27.3,-1.61,31.99
,-8.469,0.838,-4.137,-8.289,-1.601,-3.314,5.6,-5.81,32.76
25668.0,-8.54,-0.778,-3.288,-9.009,0.756,-3.01,-12.32,-12.11,42.35
,-8.892,-0.352,-3.108,-9.038,0.041,-3.068,-14.84,-12.39,41.37
,-8.988,0.081,-3.077,-9.052,-1.184,-2.819,-20.72,-11.76,39.48
,-9.021,0.541,-2.891,-8.873,-2.637,-3.25,-29.54,-11.34,36.47
25744.0,-8.753,-3.302,-3.386,-9.347,-1.137,-4.08,-80.01,-4.2,37.31
,-8.954,-3.324,-3.776,-9.548,-0.845,-4.042,-70.91,-2.38,41.72
,-9.069,-2.412,-3.778,-9.371,-0.38,-3.975,-59.29,-0.77,44.45
,-9.177,-1.393,-4.037,-9.313,-0.287,-4.046,-52.43,0.0,44.73
25819.0,-9.39,-0.498,-4.106,-8.799,-5.623,-4.377,-72.1,-0.14,35.77
,-9.189,-1.101,-4.228,-8.763,-4.8,-4.372,-80.85,-0.35,34.79
,-8.82,-3.558,-4.609,-8.746,-3.106,-4.312,-87.92,0.7,36.4
,-8.746,-5.535,-4.554,-8.76,-1.309,-4.398,-82.46,2.1,41.51
25895.0,-8.923,-0.653,-4.623,-8.823,-2.304,-4.319,-5.18,1.61,45.36
,-8.976,-0.794,-4.458,-8.983,-2.539,-4.434,-12.88,1.12,39.34
,-8.995,-1.357,-4.513,-8.969,-2.51,-4.427,-22.82,-0.84,33.95
,-8.799,-1.917,-4.403,-8.823,-2.833,-4.408,-31.78,-3.08,29.54
25971.0,-8.789,-3.281,-4.178,-9.134,-1.759,-3.989,-46.97,-7.98,13.58
,-8.76,-3.293,-4.042,-9.222,-1.608,-3.865,-41.65,-7.91,11.97
,-8.698,-2.764,-3.917,-8.899,-1.692,-4.293,-34.37,-7.84,10.78
,-8.77,-2.211,-3.896,-9.349,-2.127,-4.331,-28.7,-7.28,9.94
26047.0,-9.17,-3.132,-4.642,-9.005,-2.371,-4.458,-7.84,-7.63,9.52
,-8.643,-5.085,-4.822,-9.0,-1.383,-4.326,6.3,-7.91,11.97
,-8.677,-7.392,-4.678,-9.344,-2.324,-4.255,31.64,-6.3,14.42
,-9.375,-6.43,-4.039,-10.024,-3.132,-3.932,70.07,-3.36,16.03
26123.0,-10.426,-1.687,-3.561,-10.278,2.17,-2.556,53.55,3.64,2.24
,-10.574,-0.144,-3.233,-10.031,2.967,-2.584,40.04,1.68,0.07
,-10.579,0.493,-2.955,-9.765,2.927,-2.663,25.34,0.14,-1.47
,-10.428,1.199,-2.682,-9.658,2.417,-2.927,18.06,-0.56,-1.96
26198.0,-9.466,1.828,-3.149,-9.007,-0.773,-3.817,17.01,-1.75,-0.07
,-9.316,1.182,-3.379,-8.909,-1.441,-3.788,15.75,-2.31,-0.35
,-9.208,0.357,-3.609,-9.052,-1.821,-3.757,12.04,-3.22,-0.84
,-9.093,-0.191,-3.743,-9.112,-2.053,-3.52,7.07,-4.41,-1.89
26274.0,-9.356,-1.965,-3.434,-9.366,0.065,-3.18,-3.5,-4.13,-2.8
,-9.497,-1.503,-3.386,-9.416,0.297,-3.108,0.56,-3.71,-1.61
,-9.447,-0.936,-3.233,-9.404,0.5,-3.087,4.34,-3.43,-0.28
,-9.402,-0.306,-3.168,-9.488,0.57,-3.142,7.63,-2.94,0.77
26350.0,-9.44,0.548,-3.12,-9.22,-0.235,-3.056,11.48,-1.54,1.89
,-9.332,0.45,-3.132,-9.363,-0.352,-3.01,9.45,-1.54,1.61
,-9.282,0.237,-3.118,-9.356,-0.424,-2.958,6.93,-1.54,1.19
,-9.244,-0.048,-3.07,-9.294,-0.44,-2.821,5.04,-1.26,0.91
26426.0,-9.332,-0.445,-2.998,-9.452,-0.242,-3.324,0.84,0.42,0.84
,-9.265,-0.459,-3.116,-9.505,-0.179,-3.364,0.14,0.77,0.91
,-9.311,-0.467,-3.123,-9.509,0.0,-3.542,-0.07,0.98,1.05
,-9.308,-0.354,-3.204,-9.335,0.077,-3.573,0.77,1.26,1.4
26501.0,-9.148,0.065,-3.625,-9.395,-0.069,-3.453,1.82,0.42,1.68
,-9.136,0.045,-3.609,-9.485,-0.158,-3.384,1.75,0.28,1.68
,-9.208,-0.01,-3.601,-9.411,-0.318,-3.209,1.75,-0.14,1.54
,-9.316,-0.05,-3.518,-9.483,-0.409,-3.132,2.31,-0.42,1.61
26577.0,-9.569,-0.342,-3.015,-9.564,-0.747,-2.568,6.44,0.07,2.94
,-9.675,-0.39,-2.934,-9.641,-0.658,-2.544,6.44,0.63,3.22
,-9.641,-0.467,-2.838,-9.818,-0.739,-2.503,6.16,1.33,3.36
,-9.624,-0.66,-2.67,-9.835,-0.558,-2.443,5.81,2.38,3.71
26652.0,-10.014,-0.653,-2.223,-9.811,-1.06,-2.338,-2.45,6.65,4.06
,-9.622,-0.101,-1.996,-9.753,-1.058,-2.627,-8.68,6.72,3.57
,-9.557,-0.194,-1.864,-9.596,-0.79,-2.936,-16.87,6.93,3.22
,-9.706,-0.914,-1.907,-9.529,-1.106,-3.281,-20.16,8.54,2.87
26728.0,-9.505,-1.579,-3.518,-8.985,-3.18,-4.767,-10.78,11.27,4.2
,-9.361,-1.938,-3.865,-9.038,-3.446,-4.745,-4.13,12.18,5.39
,-9.21,-2.422,-4.197,-9.234,-3.352,-4.755,4.69,12.95,6.09
,-9.074,-2.929,-4.446,-9.198,-2.773,-4.812,14.28,13.58,5.46
26804.0,-8.983,-2.623,-4.74,-8.969,-2.469,-4.695,53.76,9.52,-0.91
,-8.674,-2.967,-4.822,-8.861,-3.135,-4.537,51.52,8.05,-3.85
,-8.744,-2.761,-4.74,-9.021,-3.47,-4.401,52.08,6.37,-7.42
,-9.0,-2.453,-4.74,-9.014,-3.558,-4.448,52.57,4.48,-11.83
26880.0,-9.057,-3.29,-4.398,-9.253,-2.209,-4.113,52.78,-0.35,-28.56
,-9.007,-2.915,-4.353,-9.292,-2.371,-3.982,55.93,-1.33,-30.94
,-9.196,-2.656,-4.255,-9.251,-2.455,-3.704,58.38,-2.24,-33.04
,-9.263,-2.216,-4.113,-9.117,-3.044,-3.63,59.85,-3.29,-34.86
26955.0,-9.304,-3.027,-3.573,-9.615,-1.192,-3.676,62.79,-3.01,-38.36
,-9.416,-2.541,-3.565,-9.775,-1.357,-3.881,67.48,-2.87,-38.78
,-9.49,-2.118,-3.604,-9.763,-1.29,-3.793,69.65,-2.38,-39.69
,-9.49,-1.548,-3.661,-9.799,-1.201,-3.936,69.16,-1.82,-40.88
27031.0,-9.713,-1.295,-3.829,-8.607,-1.005,-3.415,45.43,-2.66,-46.2
,-9.502,-1.63,-3.838,-8.686,-1.474,-3.379,40.46,-3.85,-46.34
,-9.581,-1.931,-3.539,-8.957,-1.888,-3.18,35.63,-6.3,-46.2
,-9.153,-1.22,-3.245,-9.15,-1.761,-3.151,30.87,-9.17,-46.13
27107.0,-9.079,-1.082,-3.144,-8.684,-1.295,-3.836,21.35,-1.89,-38.92
,-8.851,-0.684,-3.137,-8.612,-1.345,-3.501,16.73,-3.36,-39.41
,-8.794,-0.55,-3.276,-8.674,-0.981,-3.518,10.64,-4.27,-39.41
,-8.842,-0.909,-3.829,-8.421,-0.306,-3.355,5.04,-5.32,-39.48
27183.0,-7.894,-0.426,-3.197,-8.39,-1.534,-2.752,-9.73,-19.53,-35.84
,-7.741,-1.007,-3.202,-8.686,-0.503,-2.34,-18.27,-18.97,-34.16
,-8.059,-2.053,-3.264,-8.961,0.433,-1.95,-19.95,-17.57,-31.43
,-8.186,-2.288,-3.08,-8.914,0.861,-1.536,-13.93,-16.31,-27.65
27259.0,-8.61,0.333,-1.701,-8.904,-2.383,-2.419,-50.47,-12.74,-19.46
,-8.603,-1.503,-1.668,-8.88,-2.321,-2.467,-61.11,-6.86,-18.48
,-8.997,-2.766,-1.835,-8.796,-2.556,-2.343,-59.43,-2.52,-15.12
,-8.904,-2.888,-2.146,-8.871,-2.776,-2.405,-52.92,0.21,-10.99
27334.0,-9.239,-3.094,-2.194,-8.717,-2.795,-2.589,-35.7,6.93,10.92
,-9.196,-2.704,-2.307,-8.524,-2.769,-2.761,-29.26,6.02,14.0
,-8.971,-2.627,-2.539,-8.691,-3.477,-2.994,-30.38,4.83,16.03
,-8.801,-3.175,-2.596,-8.756,-3.75,-3.285,-31.92,4.9,18.41
27410.0,-8.945,-3.673,-3.515,-9.608,-2.517,-4.451,-20.37,10.36,29.54
,-9.091,-2.989,-3.707,-9.868,-2.778,-4.628,-12.18,10.64,32.27
,-9.414,-2.393,-4.015,-9.95,-2.728,-4.496,-7.42,10.57,34.86
,-9.572,-2.513,-4.192,-10.01,-2.625,-4.42,-3.08,10.78,37.73
27485.0,-10.196,-2.335,-4.348,-9.95,-1.9,-3.558,48.3,10.78,57.96
,-10.526,-2.067,-4.156,-9.258,-2.312,-3.187,53.97,9.87,58.38
,-10.574,-2.091,-3.783,-8.952,-1.831,-2.843,49.42,8.33,55.09
,-10.562,-1.864,-3.747,-8.988,-0.663,-2.919,33.53,5.95,49.56
27561.0,-9.105,0.024,-2.972,-9.217,-0.213,-3.654,-37.52,-0.91,31.64
,-9.081,-0.648,-3.022,-9.521,-0.715,-3.707,-38.36,-0.49,32.9
,-8.954,-0.952,-3.027,-9.737,-1.208,-3.575,-31.5,-0.07,35.07
,-9.064,-0.402,-3.338,-9.765,-1.005,-3.539,-21.91,0.35,35.63
27637.0,-9.567,-0.995,-3.537,-9.062,-0.27,-3.783,-33.74,-2.73,28.21
,-9.198,-1.122,-3.63,-9.016,-0.146,-3.711,-34.51,-2.73,28.07
,-9.311,-0.861,-3.714,-9.469,0.077,-3.625,-29.61,-2.73,28.35
,-9.385,-0.39,-3.778,-9.663,0.28,-3.697,-23.24,-2.8,28.49
27713.0,-9.474,0.292,-3.687,-9.34,-0.249,-3.833,-14.56,-4.2,25.41
,-9.232,0.089,-3.707,-9.335,-0.637,-3.841,-13.51,-4.83,24.57
,-9.194,0.172,-3.731,-9.246,-0.905,-3.695,-12.39,-5.53,23.66
,-9.184,0.043,-3.865,-9.225,-0.428,-3.649,-12.81,-6.16,22.47
27788.0,-9.366,0.199,-3.537,-9.512,-0.553,-2.668,-1.26,-6.72,20.51
,-9.387,0.443,-3.288,-9.617,-0.024,-2.812,-6.02,-7.28,18.97
,-9.428,0.072,-3.022,-9.466,0.306,-2.836,-11.2,-7.49,17.64
,-9.361,-0.771,-2.752,-9.395,0.227,-3.001,-11.34,-6.86,17.22
27864.0,-9.191,0.089,-3.039,-9.378,0.493,-2.891,-0.14,-3.29,15.61
,-9.229,0.187,-3.027,-9.576,0.146,-2.919,-0.7,-3.36,14.84
,-9.576,0.388,-3.108,-9.241,-0.208,-3.001,-2.38,-3.5,13.58
,-9.44,0.457,-2.948,-9.172,-0.304,-3.199,-5.6,-3.5,12.32
27939.0,-9.21,-0.187,-3.29,-9.509,-0.455,-3.625,-1.33,-1.19,11.2
,-9.789,0.12,-3.534,-9.619,0.581,-3.477,-0.42,-1.05,10.85
,-9.945,-0.17,-3.632,-9.256,1.086,-3.317,-1.26,-1.26,10.5
,-9.574,-0.579,-3.604,-9.009,0.093,-3.061,-0.35,-1.33,10.5
28015.0,-9.083,-0.211,-2.857,-9.557,0.5,-2.493,-2.94,-3.64,8.12
,-9.351,0.546,-2.826,-9.631,0.656,-2.714,-0.42,-3.01,7.77
,-9.543,1.043,-2.699,-9.591,0.66,-2.874,-3.01,-2.52,6.93
,-9.366,0.629,-2.529,-9.73,0.428,-3.147,-7.07,-1.61,6.16
28091.0,-9.651,-0.057,-3.388,-9.416,-0.041,-3.467,-2.87,1.47,4.13
,-9.284,-0.347,-3.573,-9.366,0.38,-3.273,-0.98,1.26,4.48
,-9.148,-0.711,-3.668,-9.421,0.4,-3.096,1.19,1.4,5.32
,-9.258,-0.706,-3.551,-9.249,0.225,-2.936,5.18,1.33,6.09
28167.0,-9.251,0.225,-2.769,-9.77,1.065,-1.888,10.08,0.98,7.42
,-9.354,0.321,-2.594,-9.682,1.017,-1.91,12.32,1.61,7.63
,-9.304,0.488,-2.197,-9.667,0.682,-2.201,11.83,2.24,7.49
,-9.55,0.859,-2.053,-9.567,0.065,-2.532,8.75,2.94,6.86
28243.0,-9.074,-0.986,-2.759,-9.823,0.514,-3.443,-4.27,7.35,4.69
,-8.973,-1.73,-1.864,-9.433,-0.172,-3.853,3.08,8.54,7.0
,-8.923,0.89,-3.257,-9.478,0.806,-3.872,11.2,8.68,7.0
,-9.619,1.443,-3.987,-9.414,1.065,-3.652,6.09,8.47,5.53
28318.0,-8.918,1.527,-3.924,-9.71,0.845,-3.077,0.49,4.2,3.92
,-8.935,0.656,-3.9,-9.387,0.842,-2.895,-10.92,2.59,2.52
,-9.361,-0.426,-3.408,-9.349,0.727,-2.883,-14.42,2.24,2.59
,-9.787,0.124,-3.187,-9.43,0.553,-3.046,-6.44,2.8,2.59
28394.0,-9.485,0.373,-3.336,-9.105,0.148,-4.212,6.23,5.25,1.47
,-9.454,0.182,-3.704,-9.182,0.584,-4.259,6.51,4.9,1.4
,-9.268,-0.112,-3.96,-9.045,0.345,-4.061,7.07,4.34,1.33
,-9.007,-0.246,-4.13,-8.966,0.055,-3.766,9.17,3.78,1.68
28470.0,-9.213,0.318,-3.549,-9.308,-0.065,-2.843,9.31,-1.19,2.03
,-9.423,0.723,-3.41,-9.517,0.098,-2.883,9.94,-1.54,1.75
,-9.407,0.823,-3.228,-9.631,0.318,-2.848,7.0,-2.1,1.54
,-9.258,0.316,-3.092,-9.624,0.433,-2.891,3.29,-2.38,1.26
28546.0,-9.521,0.474,-2.886,-9.17,0.093,-3.281,1.89,0.14,0.14
,-9.335,0.462,-2.979,-9.189,0.17,-3.238,-0.14,0.28,-0.56
,-9.273,0.481,-3.087,-9.323,0.33,-3.25,-1.82,0.42,-0.84
,-9.268,0.306,-3.254,-9.337,0.522,-3.039,-2.94,0.42,-0.84
28621.0,-9.328,0.522,-2.938,-9.016,-0.041,-2.759,-1.89,0.84,-0.56
,-9.347,0.495,-2.843,-9.275,-0.306,-2.819,-2.73,1.05,-0.63
,-9.275,0.694,-2.802,-9.753,-0.459,-3.063,-3.5,1.05,-0.84
,-9.139,0.586,-2.788,-9.773,-0.522,-3.19,-6.58,1.26,-0.98
28697.0,-9.22,-1.438,-3.123,-9.596,1.627,-4.044,-1.89,4.55,0.98
,-8.871,-1.39,-3.084,-9.105,0.548,-4.046,1.89,5.18,1.96
,-9.366,-0.268,-3.486,-8.825,0.151,-3.793,5.6,4.83,1.89
,-9.756,1.345,-3.905,-9.452,1.053,-3.582,2.1,4.13,0.98
28773.0,-9.744,2.285,-3.309,-9.208,0.304,-2.661,0.56,0.49,-2.66
,-9.316,1.888,-2.936,-9.361,0.921,-2.824,-12.04,-0.84,-4.48
,-9.5,0.543,-2.661,-9.529,1.194,-3.02,-16.59,-0.98,-4.97
,-9.464,0.112,-2.592,-9.409,0.972,-3.163,-13.72,-0.14,-5.32
28849.0,-9.526,0.514,-3.262,-9.442,0.632,-3.551,-16.59,1.75,-6.93
,-9.497,0.536,-3.405,-9.371,0.342,-3.647,-14.07,1.82,-7.21
,-9.332,0.543,-3.451,-9.342,-0.057,-3.652,-12.32,1.96,-7.07
,-9.426,0.699,-3.542,-9.438,-0.263,-3.637,-10.92,1.96,-7.35
28924.0,-9.354,0.007,-3.542,-9.433,0.503,-2.977,-0.14,2.03,-5.81
,-9.277,0.029,-3.419,-9.378,0.51,-2.793,0.98,1.89,-5.46
,-9.184,0.23,-3.269,-9.304,0.512,-2.752,0.35,1.61,-5.67
,-9.215,0.553,-3.051,-9.387,0.524,-2.919,-2.03,1.4,-6.16
29000.0,-9.45,0.675,-2.91,-9.557,0.316,-2.625,-7.63,2.59,-7.84
,-9.368,0.287,-2.85,-9.627,0.282,-2.553,-8.89,3.15,-8.19
,-9.32,0.077,-2.769,-9.526,0.337,-2.57,-8.4,4.41,-8.12
,-9.517,0.158,-2.661,-9.373,0.39,-2.647,-7.07,5.32,-8.33
29076.0,-9.474,0.55,-2.974,-9.225,0.424,-3.467,-12.18,8.05,-11.41
,-9.261,0.223,-3.142,-9.265,0.287,-3.443,-13.51,8.4,-11.62
,-9.237,0.146,-3.324,-9.454,0.323,-3.513,-11.83,8.75,-11.69
,-9.304,0.342,-3.455,-9.481,0.424,-3.668,-9.38,9.03,-11.9
29151.0,-9.349,-0.132,-3.795,-9.349,0.373,-3.903,-11.34,8.68,-14.07
,-9.05,-0.414,-3.891,-9.392,0.328,-3.843,-7.56,8.61,-13.58
,-9.191,-0.022,-4.049,-9.335,0.057,-3.618,-2.52,8.26,-13.51
,-9.316,0.275,-4.027,-9.368,0.211,-3.623,-1.26,7.98,-13.65
29227.0,-9.28,0.304,-3.618,-9.296,0.036,-3.766,-1.12,6.65,-16.1
,-9.258,0.519,-3.659,-9.263,-0.617,-3.711,-0.42,6.3,-16.38
,-9.215,0.266,-3.692,-9.083,-0.749,-3.628,-0.7,5.81,-16.66
,-9.153,0.144,-3.637,-9.196,-0.402,-3.659,-0.07,5.67,-16.73
29303.0,-9.287,0.031,-3.589,-9.167,-0.742,-3.309,7.42,5.81,-17.85
,-9.21,0.199,-3.506,-9.308,-0.306,-3.36,6.93,5.95,-18.13
,-9.313,0.034,-3.475,-9.514,0.249,-3.594,6.3,5.95,-19.04
,-9.313,-0.457,-3.439,-9.234,-0.086,-3.805,6.16,6.3,-19.25
29379.0,-8.952,-0.593,-3.903,-9.27,-0.402,-3.888,9.38,7.28,-22.12
,-9.107,-0.538,-4.006,-9.172,-0.213,-3.867,12.67,7.28,-22.54
,-8.993,-0.775,-3.948,-9.213,-0.213,-3.879,14.7,7.07,-22.54
,-9.052,-0.692,-3.915,-9.124,-0.682,-3.944,17.71,7.0,-22.33
29454.0,-8.983,-1.316,-3.865,-9.263,0.227,-3.606,21.35,6.23,-25.41
,-9.141,-1.115,-3.857,-9.277,-0.029,-3.472,28.49,6.51,-25.41
,-9.258,-0.266,-3.841,-9.342,-0.194,-3.302,32.97,6.37,-26.18
,-9.265,0.163,-3.731,-9.299,-0.692,-3.087,31.57,6.37,-27.3
29530.0,-9.162,-1.024,-2.903,-9.344,-0.651,-3.139,26.25,6.3,-34.09
,-9.457,-0.768,-2.874,-9.28,-0.809,-3.403,29.4,7.14,-35.35
,-9.421,-0.359,-2.871,-9.32,-1.031,-3.618,28.77,7.98,-36.96
,-9.27,-0.574,-2.962,-9.342,-1.062,-3.793,26.39,8.47,-38.71
29606.0,-9.325,-1.385,-3.879,-9.186,-2.024,-4.188,28.07,9.59,-44.66
,-9.308,-1.584,-3.972,-9.304,-2.367,-4.152,27.37,8.82,-45.22
,-9.373,-1.582,-4.159,-9.55,-2.795,-3.977,25.48,7.42,-45.85
,-9.127,-1.682,-4.212,-9.83,-3.192,-3.817,21.63,6.37,-46.34
29682.0,-10.158,-2.979,-3.731,-10.751,-3.836,-3.439,28.56,5.11,-39.62
,-10.742,-2.759,-3.685,-10.672,-3.594,-3.553,32.62,5.32,-36.26
,-10.687,-2.974,-3.625,-10.371,-3.62,-3.561,34.3,5.53,-33.04
,-10.706,-3.498,-3.506,-10.053,-3.606,-3.484,36.75,5.95,-29.96
29757.0,-9.49,-3.116,-3.556,-8.382,-2.089,-3.233,54.32,4.76,-12.32
,-9.22,-2.726,-3.494,-8.234,-2.221,-3.139,54.95,4.41,-8.61
,-9.155,-2.766,-3.477,-8.291,-2.367,-3.087,53.76,3.22,-6.3
,-8.744,-2.46,-3.388,-8.291,-2.053,-3.082,51.59,2.31,-3.36
29833.0,-8.035,-1.977,-3.211,-7.777,-0.433,-3.522,55.09,6.44,21.98
,-7.794,-2.218,-3.266,-7.76,0.574,-4.101,58.59,7.56,26.6
,-7.736,-2.125,-3.305,-8.021,1.072,-4.281,64.33,8.68,31.57
,-7.629,-1.424,-3.494,-8.296,1.204,-3.826,69.72,10.36,36.47
29908.0,-8.382,1.474,-3.345,-8.859,-1.881,-3.625,11.41,9.87,40.74
,-8.397,1.218,-3.218,-8.763,-1.917,-3.326,-6.16,7.21,40.25
,-8.772,0.254,-3.372,-8.959,-1.488,-3.424,-21.91,5.32,40.81
,-8.926,-0.96,-3.527,-9.11,-0.737,-3.501,-31.92,5.11,42.98
29984.0,-9.11,-0.694,-3.412,-9.249,0.378,-4.07,-25.27,5.32,54.81
,-8.665,-1.816,-3.798,-9.61,1.381,-3.975,-35.63,6.44,57.33
,-8.667,-2.151,-3.812,-9.069,0.495,-4.216,-36.26,9.03,61.32
,-8.966,-1.187,-3.946,-9.038,-1.692,-3.944,-30.45,9.52,63.21
30060.0,-9.095,-2.395,-3.934,-8.851,-3.656,-4.968,-87.85,5.53,46.55
,-8.997,-2.788,-4.046,-9.064,-3.068,-5.099,-85.47,5.11,46.62
,-9.016,-3.568,-4.606,-8.844,-2.501,-5.087,-84.14,5.04,47.25
,-8.976,-3.829,-5.018,-8.93,-1.991,-4.86,-78.82,4.06,48.72
30136.0,-9.179,-1.204,-4.736,-8.866,-2.742,-4.848,-43.54,-4.9,37.24
,-9.153,-0.596,-4.645,-8.818,-3.601,-4.726,-50.19,-7.7,30.24
,-9.026,-0.684,-4.903,-8.729,-3.836,-4.494,-64.4,-10.5,22.96
,-8.842,-1.575,-4.944,-8.894,-3.723,-4.48,-80.57,-12.67,17.22
30212.0,-8.997,-3.601,-4.322,-8.995,-3.08,-4.147,-79.45,-16.17,10.5
,-8.861,-3.431,-4.312,-9.1,-2.824,-4.03,-71.47,-15.61,10.01
,-8.758,-3.355,-4.281,-9.107,-2.635,-3.853,-62.23,-14.77,10.01
,-8.856,-3.218,-4.305,-8.878,-2.493,-3.635,-52.08,-13.93,10.71
30287.0,-8.964,-2.422,-3.676,-8.72,-3.412,-3.527,-6.02,-10.22,19.18
,-9.265,-2.682,-3.958,-8.588,-4.164,-3.821,2.1,-8.96,21.0
,-9.371,-3.013,-3.676,-8.916,-5.415,-3.498,11.83,-7.56,23.38
,-9.103,-3.147,-3.719,-8.878,-4.334,-2.886,21.91,-6.86,25.41
30363.0,-9.531,-2.857,-3.838,-9.344,-2.084,-3.455,99.68,0.0,19.18
,-9.847,-2.754,-3.697,-9.165,-0.878,-3.642,93.45,-0.98,10.15
,-10.651,-2.68,-3.743,-9.172,0.105,-3.833,78.68,-6.16,4.69
,-9.325,-3.113,-3.448,-9.239,0.438,-3.92,60.06,-8.26,0.77
30439.0,-9.641,0.581,-3.731,-10.469,3.398,-2.374,9.1,-2.52,-7.63
,-10.232,1.33,-3.443,-10.002,2.572,-2.084,17.36,-1.68,-3.43
,-10.581,2.498,-3.039,-9.49,1.328,-2.108,27.58,-2.45,1.82
,-10.608,3.34,-2.702,-9.344,0.223,-2.245,34.58,-4.13,5.25
30515.0,-9.402,-0.526,-2.4,-9.383,-2.405,-2.572,24.43,-3.99,3.64
,-9.385,-1.213,-2.536,-9.56,-1.701,-2.759,17.08,-3.64,2.66
,-9.246,-2.027,-2.493,-9.598,-0.876,-2.903,8.68,-2.66,1.33
,-9.189,-2.563,-2.431,-9.533,-0.246,-3.139,4.2,-1.33,0.28
30590.0,-9.349,-0.019,-3.254,-9.325,1.187,-3.508,-7.14,1.4,-1.19
,-9.261,0.122,-3.388,-9.363,1.129,-3.707,-3.78,1.61,-0.49
,-9.313,0.562,-3.58,-9.435,0.67,-3.58,2.38,2.03,0.7
,-9.304,0.878,-3.63,-9.454,0.172,-3.518,7.84,2.31,1.89
30666.0,-9.404,-0.251,-3.453,-9.304,-0.543,-3.173,8.75,-0.84,1.82
,-9.294,-0.541,-3.381,-9.44,-0.488,-3.104,8.68,-0.98,1.68
,-9.237,-0.505,-3.326,-9.586,-0.476,-2.934,7.84,-1.26,1.68
,-9.22,-0.543,-3.216,-9.584,-0.244,-2.953,6.3,-1.33,1.54
30741.0,-9.488,-0.005,-2.814,-9.873,0.529,-2.86,9.94,0.63,2.94
,-9.433,0.256,-2.795,-10.165,0.402,-2.876,10.85,1.05,3.22
,-9.478,0.433,-2.785,-10.416,0.261,-2.718,10.22,1.47,3.15
,-9.677,0.584,-2.86,-10.045,-0.261,-2.584,9.1,1.54,3.01
30817.0,-9.529,-0.718,-2.328,-10.036,-1.474,-1.658,-2.03,3.36,-0.42
,-9.411,-1.012,-2.084,-10.153,-1.452,-1.776,-2.31,4.55,0.98
,-9.581,-1.225,-1.926,-10.156,-1.723,-1.9,-1.82,5.6,2.38
,-9.878,-1.606,-1.721,-10.033,-1.84,-2.197,-0.35,7.49,3.57
30893.0,-9.986,-1.488,-2.429,-9.038,-2.407,-4.334,-2.03,13.93,7.14
,-9.919,-1.103,-2.766,-9.237,-2.429,-4.7,-3.43,13.58,5.6
,-9.519,-1.163,-3.104,-8.799,-2.075,-4.932,-6.09,14.07,4.76
,-9.227,-1.663,-3.711,-8.574,-2.393,-5.104,-6.23,15.75,4.55
30969.0,-8.658,-3.386,-5.075,-8.823,-3.958,-4.408,22.4,11.2,-7.49
,-8.71,-3.86,-4.905,-8.878,-3.752,-4.161,29.96,8.68,-9.38
,-8.514,-3.62,-4.769,-9.05,-3.302,-4.156,40.18,6.23,-10.78
,-8.617,-3.635,-4.537,-9.296,-2.929,-4.185,48.3,4.55,-12.18
31044.0,-9.395,-2.86,-4.262,-9.239,-2.886,-4.008,73.57,-3.43,-23.31
,-9.347,-2.97,-4.221,-9.253,-3.154,-3.939,74.83,-3.92,-25.48
,-9.361,-2.948,-4.212,-9.423,-3.132,-3.975,76.37,-5.39,-27.58
,-9.428,-2.706,-4.219,-9.737,-2.879,-3.955,77.42,-7.35,-29.96
31120.0,-9.811,-2.544,-3.936,-9.576,-2.321,-3.623,83.09,-9.1,-33.81
,-9.739,-2.111,-3.829,-9.586,-2.388,-3.489,83.23,-9.45,-34.86
,-9.663,-1.819,-3.707,-9.531,-2.513,-3.417,81.06,-9.94,-36.82
,-9.579,-2.146,-3.676,-9.629,-2.163,-3.391,76.65,-9.87,-38.78
31196.0,-9.651,-1.996,-3.348,-9.907,-1.749,-3.34,79.66,-8.68,-41.3
,-9.708,-1.689,-3.281,-9.646,-2.003,-3.106,79.24,-9.1,-41.79
,-9.813,-1.519,-3.522,-9.241,-2.737,-2.9,76.16,-10.57,-42.91
,-9.818,-1.888,-3.364,-8.827,-2.273,-2.931,72.31,-12.46,-43.68
31272.0,-8.729,-1.524,-2.826,-9.289,-1.464,-2.726,62.09,-22.12,-40.6
,-9.155,-1.077,-2.958,-9.337,-1.091,-2.666,61.67,-20.79,-40.67
,-9.474,-0.785,-2.917,-9.277,-1.429,-2.74,57.26,-20.02,-41.3
,-9.438,-1.385,-2.702,-9.234,-1.543,-2.599,46.62,-19.95,-41.51
31348.0,-9.227,-1.445,-2.091,-8.583,-1.957,-2.127,19.25,-25.2,-38.15
,-9.275,-1.491,-2.209,-8.478,-2.685,-1.991,16.03,-26.11,-38.29
,-9.122,-1.261,-2.331,-8.447,-3.257,-1.878,9.59,-26.88,-38.57
,-8.859,-1.158,-2.28,-8.32,-3.223,-1.91,1.47,-27.65,-38.78
31423.0,-8.399,-2.563,-1.414,-8.485,-1.694,-1.295,9.52,-18.13,-23.1
,-8.55,-1.61,-1.661,-8.308,-2.726,-0.749,9.52,-16.31,-21.21
,-8.547,-1.24,-1.108,-8.236,-3.281,-0.78,3.22,-14.14,-20.37
,-8.598,-1.232,-1.383,-8.15,-3.063,-0.876,-4.41,-11.83,-20.09
31499.0,-8.076,-2.053,-1.048,-7.748,-2.941,-2.024,-9.1,2.66,-11.97
,-8.066,-0.957,-1.223,-8.124,-3.367,-2.283,-15.75,5.18,-10.22
,-8.105,-0.51,-1.486,-8.296,-1.271,-2.821,-29.33,7.77,-9.31
,-7.547,-0.68,-2.182,-8.634,-0.347,-2.989,-50.33,13.58,-10.22
31574.0,-8.641,-2.709,-2.9,-8.311,-5.224,-2.008,-68.74,22.4,8.82
,-8.873,-4.654,-2.599,-8.476,-4.582,-2.056,-59.64,21.35,12.46
,-8.497,-3.886,-2.572,-8.435,-3.173,-2.393,-41.79,20.72,16.45
,-8.344,-4.03,-2.242,-8.696,-2.563,-2.912,-34.3,20.72,19.95
31650.0,-9.117,-2.931,-2.883,-9.94,-1.598,-3.123,-20.72,25.34,34.37
,-9.548,-3.8,-2.697,-10.0,-2.017,-3.058,-23.87,24.64,34.51
,-9.514,-3.683,-2.855,-10.184,-3.151,-3.116,-18.34,22.82,35.0
,-9.794,-2.41,-3.092,-10.337,-3.838,-2.917,-14.07,21.14,35.77
31726.0,-10.244,-3.472,-2.697,-10.278,-3.594,-2.986,-18.69,17.85,43.26
,-10.201,-1.967,-2.704,-10.323,-3.922,-3.202,-10.99,18.48,45.01
,-10.388,-1.658,-2.718,-10.22,-2.211,-3.817,-12.6,18.41,44.59
,-10.246,-2.151,-2.8,-10.246,-1.307,-4.178,-22.12,17.5,42.63
31802.0,-10.096,-1.496,-4.367,-8.827,-0.653,-4.051,-58.17,9.1,29.61
,-9.727,-2.18,-4.365,-8.844,-0.696,-3.855,-70.14,6.93,27.44
,-9.311,-2.144,-4.286,-8.861,-1.637,-3.762,-69.65,5.25,27.16
,-8.983,-1.555,-4.188,-8.775,-1.852,-3.637,-61.25,4.2,28.77
31877.0,-8.658,-0.969,-3.329,-9.665,-3.099,-4.046,-25.9,1.12,36.26
,-9.16,-0.476,-3.262,-9.629,-2.268,-4.29,-31.01,0.21,33.39
,-9.6,-0.9,-3.783,-9.447,-0.907,-4.231,-44.24,-0.98,29.96
,-9.761,-2.264,-3.953,-9.409,-0.223,-3.965,-53.27,-1.82,28.63
31953.0,-8.954,0.091,-3.814,-9.478,0.168,-3.606,-18.76,-3.22,31.5
,-8.997,0.096,-3.802,-9.265,-0.014,-3.403,-21.56,-4.69,30.1
,-9.433,0.235,-3.812,-9.213,0.148,-3.305,-24.29,-5.95,27.72
,-9.543,0.395,-3.726,-9.347,-0.108,-3.388,-27.93,-6.51,25.97
32028.0,-9.229,-0.95,-3.518,-9.426,-0.823,-3.489,-28.77,-7.42,21.35
,-9.361,-1.551,-3.628,-9.44,-0.194,-3.434,-26.39,-7.28,20.58
,-9.296,-1.694,-3.652,-9.689,0.421,-3.707,-20.37,-6.44,20.51
,-9.263,-1.613,-3.573,-9.6,0.517,-3.836,-11.76,-5.11,21.84
32104.0,-9.316,0.089,-3.628,-9.253,0.069,-2.843,1.75,-4.13,20.72
,-9.395,0.196,-3.652,-9.485,0.39,-2.63,5.25,-4.55,20.02
,-9.316,0.294,-3.498,-9.378,0.639,-2.608,6.3,-4.41,18.9
,-9.225,0.249,-3.216,-9.734,-0.34,-2.639,4.06,-4.83,17.85
32180.0,-9.653,-1.098,-2.656,-9.651,0.165,-3.19,-0.77,-2.73,14.14
,-9.194,-0.969,-2.632,-9.529,-0.412,-3.338,5.74,-1.61,14.49
,-9.407,0.275,-2.785,-9.481,-0.38,-3.668,9.73,-0.7,14.35
,-9.481,0.924,-2.95,-9.519,-0.718,-3.788,4.97,-0.63,13.02
32256.0,-9.162,-0.407,-3.642,-9.452,0.203,-2.615,11.55,-1.05,13.79
,-9.191,0.077,-3.53,-9.349,0.696,-2.62,13.23,-0.91,13.65
,-9.402,0.156,-3.087,-9.294,0.828,-2.613,10.5,-1.12,13.02
,-9.469,0.043,-2.745,-9.38,0.873,-2.355,8.4,-0.77,12.46
32332.0,-9.246,0.665,-2.273,-9.593,0.057,-3.137,-1.33,2.73,6.51
,-9.371,0.55,-2.12,-9.476,0.022,-3.683,-3.57,3.78,5.46
,-9.639,0.677,-2.309,-9.241,0.273,-4.104,-4.41,4.97,4.41
,-9.653,0.371,-2.687,-9.069,0.115,-4.305,-6.23,5.88,3.64
32407.0,-9.15,-0.057,-4.355,-9.129,0.39,-3.264,3.15,4.76,3.99
,-9.203,0.148,-4.109,-9.332,0.488,-2.886,3.01,3.43,3.64
,-9.256,0.141,-3.898,-9.292,0.995,-2.761,2.1,2.45,3.43
,-9.356,0.203,-3.592,-9.316,0.692,-2.606,2.45,1.89,3.64
32483.0,-9.457,0.459,-2.568,-9.739,-1.699,-3.979,-19.74,-0.28,0.49
,-9.373,0.553,-2.785,-9.079,-0.333,-3.458,-20.79,0.07,0.56
,-9.402,0.268,-2.95,-8.837,-0.361,-3.419,-21.0,1.19,0.7
,-9.366,0.098,-3.537,-9.179,-1.079,-3.556,-18.06,2.17,0.91
32559.0,-9.083,-0.857,-3.242,-9.6,1.62,-2.508,6.93,4.41,9.03
,-9.378,-0.211,-2.577,-9.73,1.402,-3.037,7.63,4.9,9.03
,-9.564,0.912,-2.304,-9.871,1.254,-3.817,6.93,6.23,7.21
,-9.775,1.512,-2.379,-9.751,1.077,-4.401,1.12,7.14,5.32
32635.0,-9.351,0.699,-4.798,-9.208,0.069,-4.621,4.06,5.74,0.98
,-9.005,-0.445,-4.898,-9.162,0.002,-4.228,6.16,4.83,1.47
,-8.878,-0.744,-4.953,-8.914,-0.847,-3.654,11.13,3.29,2.52
,-9.129,-0.38,-4.815,-8.818,-1.182,-3.159,16.03,1.75,3.01
32710.0,-9.107,-0.921,-2.946,-9.521,0.586,-2.953,12.32,-1.96,4.83
,-9.517,-0.196,-2.95,-9.409,1.027,-2.912,13.09,-1.75,5.04
,-9.667,0.378,-2.948,-9.392,1.4,-2.986,9.8,-1.33,4.62
,-9.545,0.481,-2.95,-9.342,1.122,-2.998,5.6,-0.84,4.13
32786.0,-9.282,0.335,-2.97,-9.378,0.22,-3.216,-3.43,0.35,0.14
,-9.179,-0.12,-2.943,-9.538,0.196,-3.149,-1.47,0.7,0.21
,-9.196,0.086,-3.173,-9.423,0.249,-3.051,1.19,1.05,0.07
,-9.155,0.313,-3.139,-9.505,0.354,-3.025,0.28,1.12,-0.21
32861.0,-9.474,0.739,-2.984,-9.454,0.325,-2.678,-1.96,1.82,-1.4
,-9.241,0.871,-2.97,-9.639,0.565,-2.752,-3.71,1.96,-1.47
,-9.249,0.558,-2.927,-9.416,1.031,-2.986,-4.76,2.52,-1.4
,-9.244,0.445,-2.781,-9.368,0.797,-3.271,-4.55,2.87,-1.4
32937.0,-9.184,0.065,-3.479,-9.067,-1.821,-3.955,-16.59,3.71,-4.13
,-8.93,-1.388,-3.642,-9.191,-1.0,-3.888,-16.45,3.85,-3.36
,-9.158,-1.627,-3.944,-9.567,0.579,-4.121,-6.79,4.62,-1.75
,-9.055,-2.134,-3.948,-9.713,1.156,-4.274,2.24,5.67,0.14
33013.0,-9.143,0.39,-4.283,-9.349,1.371,-3.63,5.11,3.99,0.56
,-9.009,0.086,-4.161,-9.591,1.553,-3.187,8.33,3.22,1.12
,-9.1,0.156,-4.08,-9.514,1.508,-2.915,16.1,2.94,1.82
,-8.983,0.914,-3.893,-9.526,1.12,-2.788,20.09,2.38,2.1
33089.0,-9.78,0.754,-2.747,-9.375,0.857,-3.563,-3.64,1.61,-5.46
,-9.756,0.699,-2.819,-9.411,0.483,-3.546,-2.94,1.54,-6.44
,-9.598,0.806,-3.101,-9.177,0.101,-3.494,-1.33,2.03,-7.07
,-9.588,0.749,-3.355,-9.34,-0.258,-3.4,0.7,2.52,-7.56
33165.0,-9.366,-0.005,-3.331,-8.933,-0.11,-3.264,3.64,2.45,-9.24
,-9.22,-0.017,-3.254,-8.933,-0.146,-3.226,3.08,2.59,-9.1
,-9.198,-0.024,-3.204,-9.179,0.014,-3.247,2.17,2.73,-9.1
,-9.189,-0.045,-3.276,-9.299,0.397,-3.18,1.61,2.52,-9.24
33240.0,-9.284,0.526,-3.166,-9.28,0.345,-3.262,-0.07,3.43,-8.89
,-9.313,0.56,-3.144,-9.407,0.203,-3.324,-1.68,3.71,-9.52
,-9.433,0.5,-3.163,-9.256,0.378,-3.376,-3.08,3.92,-10.22
,-9.399,0.462,-3.259,-9.325,0.486,-3.434,-5.04,4.06,-11.06
33316.0,-9.416,0.589,-3.659,-9.277,-0.086,-3.893,-16.17,3.36,-16.1
,-9.196,0.318,-3.726,-9.251,-0.007,-3.8,-18.97,3.15,-16.73
,-9.064,-0.586,-3.704,-9.328,-0.072,-3.786,-18.2,3.29,-16.52
,-9.153,-0.352,-3.733,-9.497,-0.237,-3.85,-12.53,3.15,-16.45
33392.0,-9.306,-0.282,-3.743,-9.215,-0.261,-3.766,2.24,3.71,-16.1
,-9.22,-0.321,-3.8,-9.361,-0.002,-3.726,5.39,3.36,-16.31
,-9.244,-0.179,-3.831,-9.335,0.091,-3.604,6.51,3.15,-16.59
,-9.136,-0.452,-3.812,-9.371,0.201,-3.632,6.79,2.8,-16.59
33468.0,-9.366,0.065,-3.656,-9.162,-0.986,-3.594,7.91,2.17,-20.44
,-9.189,-0.019,-3.644,-9.34,-0.668,-3.539,7.0,2.03,-21.21
,-9.21,-0.629,-3.752,-9.143,-0.376,-3.381,5.95,1.96,-21.91
,-8.952,-1.139,-3.609,-9.306,-0.211,-3.384,7.49,2.31,-21.84
33543.0,-9.318,-0.117,-3.367,-9.33,-0.397,-3.393,8.54,2.94,-25.2
,-9.17,-0.493,-3.348,-9.251,-0.467,-3.185,7.21,3.15,-25.9
,-9.112,-0.775,-3.388,-9.232,-0.524,-3.094,9.52,3.64,-26.18
,-9.189,-0.656,-3.408,-9.263,-0.524,-3.154,13.58,4.2,-26.67
33619.0,-9.21,-0.656,-3.264,-9.282,-0.804,-3.496,14.28,5.74,-31.29
,-9.213,-0.921,-3.455,-9.299,-0.675,-3.348,14.91,6.3,-31.92
,-9.162,-1.003,-3.568,-9.263,-0.519,-3.185,16.8,6.58,-32.69
,-9.141,-0.924,-3.661,-9.421,-0.416,-3.221,18.97,6.72,-33.25
33694.0,-9.45,-0.519,-3.455,-9.318,-1.476,-3.843,19.81,7.56,-39.06
,-9.38,-0.897,-3.611,-9.344,-1.551,-3.738,19.67,7.98,-39.69
,-9.373,-1.352,-3.778,-9.282,-1.584,-3.635,21.35,8.05,-40.11
,-9.311,-1.498,-3.843,-9.261,-1.878,-3.778,24.5,8.12,-40.88
33770.0,-9.251,-2.326,-3.807,-10.045,-2.115,-4.525,20.3,6.65,-43.75
,-9.253,-2.687,-4.037,-10.266,-2.718,-4.408,23.03,6.65,-42.91
,-9.337,-2.589,-4.295,-10.424,-3.084,-4.178,27.3,5.88,-41.65
,-9.737,-2.216,-4.456,-10.488,-3.362,-4.015,29.82,4.62,-40.67
33846.0,-10.467,-3.534,-3.838,-9.909,-3.987,-3.032,34.51,0.35,-31.92
,-10.656,-3.644,-3.582,-9.519,-4.046,-3.02,39.06,-0.07,-29.54
,-10.634,-3.372,-3.486,-9.483,-3.745,-3.137,40.88,-0.98,-27.37
,-10.349,-3.544,-3.266,-9.363,-3.776,-3.168,38.57,-1.26,-24.85
33922.0,-9.04,-3.587,-3.273,-8.119,-2.02,-2.881,49.7,-1.61,-8.54
,-8.696,-3.01,-3.171,-7.99,-2.477,-2.943,49.77,-2.59,-4.62
,-8.662,-2.446,-3.061,-7.949,-2.735,-3.061,46.62,-3.22,-0.98
,-8.373,-2.008,-2.948,-7.82,-2.606,-3.283,39.9,-3.29,2.31
33997.0,-7.777,-1.981,-3.609,-8.057,-0.285,-3.585,56.14,4.2,24.22
,-7.509,-1.029,-3.874,-8.191,-0.084,-3.125,59.5,4.83,26.53
,-7.581,-0.383,-3.96,-8.311,0.007,-2.74,55.51,4.2,27.09
,-7.808,-0.285,-3.946,-8.399,-0.218,-2.675,47.18,2.59,27.16
34073.0,-8.382,-0.397,-2.486,-8.799,-1.634,-2.17,-11.9,-7.49,27.65
,-8.536,-0.615,-2.302,-8.662,-3.084,-2.539,-21.56,-7.63,26.46
,-8.827,-0.536,-2.123,-8.595,-3.434,-2.716,-29.4,-6.86,25.55
,-8.911,-0.605,-2.29,-8.6,-2.85,-2.91,-39.13,-6.09,24.85
34149.0,-8.748,-1.606,-3.13,-9.316,-0.684,-3.312,-39.34,0.98,38.43
,-9.191,-0.682,-3.374,-8.887,-3.082,-3.632,-39.27,0.49,37.24
,-9.529,0.089,-3.357,-8.935,-4.532,-3.635,-46.2,-1.05,34.86
,-9.6,0.361,-3.436,-9.256,-4.843,-3.829,-59.99,-3.08,31.78
34225.0,-9.112,-4.269,-3.908,-9.481,-0.412,-3.793,-49.63,-3.36,49.21
,-9.191,-3.266,-3.821,-9.469,-0.349,-3.795,-31.15,-2.8,51.8
,-9.423,-2.276,-3.68,-9.536,-0.747,-3.709,-18.83,-2.66,52.57
,-9.478,-1.187,-3.695,-9.32,-1.067,-3.556,-13.51,-3.01,51.24
34301.0,-8.988,-2.01,-3.836,-8.552,-3.405,-4.41,-57.26,-3.29,39.13
,-8.885,-3.434,-3.958,-8.547,-3.132,-4.384,-62.09,-1.47,41.02
,-9.093,-4.113,-4.202,-8.693,-2.702,-4.197,-58.03,-0.91,43.68
,-8.701,-3.917,-4.355,-8.777,-2.115,-4.262,-49.21,-0.63,45.57
34376.0,-8.887,-1.682,-4.188,-9.067,-2.35,-4.367,-23.38,-1.05,33.81
,-8.983,-1.251,-4.145,-9.036,-3.518,-4.41,-31.22,-2.45,29.47
,-9.057,-1.027,-4.456,-9.055,-3.972,-4.195,-41.79,-4.2,25.2
,-8.995,-1.381,-4.456,-8.952,-3.673,-4.085,-52.64,-3.85,21.63
34452.0,-9.115,-3.008,-4.243,-8.693,-2.077,-3.989,-26.67,5.18,18.83
,-9.129,-2.527,-4.293,-8.861,-2.0,-3.821,-18.62,7.07,18.97
,-8.976,-2.326,-4.018,-8.851,-1.723,-3.853,-13.09,8.96,19.18
,-8.734,-2.13,-3.888,-8.748,-1.452,-3.63,-9.24,9.8,19.18
34527.0,-8.722,-1.134,-3.644,-8.973,-1.74,-3.465,4.9,10.43,15.47
,-8.447,-1.094,-3.573,-9.569,-1.618,-3.108,3.57,9.52,13.02
,-8.483,-1.156,-3.309,-9.304,-0.895,-3.013,3.43,8.33,11.06
,-8.827,-1.237,-3.429,-9.268,-0.682,-2.831,2.17,6.16,9.1
34603.0,-9.316,-1.441,-2.62,-10.732,-3.733,-2.953,11.55,-1.19,6.02
,-9.392,-2.075,-2.536,-11.699,-4.176,-3.025,15.4,-2.52,4.69
,-9.454,-2.381,-2.359,-11.845,-2.905,-3.585,22.96,-3.99,4.55
,-9.914,-2.548,-2.599,-10.971,-0.924,-3.865,28.91,-4.34,3.99
34679.0,-10.383,0.507,-3.97,-8.902,1.682,-3.699,38.78,5.88,4.13
,-9.952,1.517,-3.735,-8.933,1.637,-3.759,23.45,2.73,0.98
,-9.531,1.627,-3.532,-9.234,1.452,-3.848,9.59,1.33,-1.68
,-9.079,1.441,-3.36,-9.411,1.053,-3.829,4.69,1.47,-2.94
34755.0,-9.359,0.282,-3.697,-9.347,0.053,-3.288,3.78,-2.17,-1.05
,-9.129,-0.345,-3.415,-9.49,0.062,-3.348,6.16,-2.24,-0.35
,-9.076,-0.395,-3.19,-9.457,-0.39,-3.376,8.82,-1.96,0.07
,-9.182,-0.218,-3.238,-9.407,-1.031,-3.489,7.49,-1.89,-0.28
34830.0,-9.328,-1.5,-3.312,-9.34,0.505,-3.472,-18.69,-3.15,-4.48
,-9.33,-1.366,-3.307,-9.383,0.5,-3.508,-9.73,-1.96,-2.87
,-9.428,-0.751,-3.431,-9.316,0.163,-3.489,-0.63,-1.12,-1.33
,-9.404,0.01,-3.522,-9.139,-0.168,-3.398,4.83,-0.91,-0.35
34906.0,-9.062,-0.237,-3.276,-9.313,0.024,-3.202,5.6,-0.63,0.91
,-9.189,-0.254,-3.183,-9.258,-0.084,-3.252,7.21,-0.21,1.26
,-9.237,-0.132,-3.139,-9.344,-0.299,-3.25,7.42,0.14,1.54
,-9.299,0.005,-3.12,-9.457,-0.503,-3.305,6.37,0.21,1.54
34981.0,-9.586,-0.438,-3.336,-9.079,-0.057,-3.498,1.82,1.05,1.4
,-9.543,-0.268,-3.408,-9.127,-0.148,-3.537,2.66,1.26,1.47
,-9.351,-0.124,-3.501,-9.16,-0.211,-3.544,2.52,1.12,1.54
,-9.174,-0.05,-3.544,-9.203,-0.225,-3.379,1.82,0.91,1.61
35057.0,-9.356,-0.026,-3.319,-9.354,-0.091,-3.183,6.37,1.33,2.73
,-9.423,0.007,-3.247,-9.61,-0.16,-3.259,6.86,1.54,2.8
,-9.33,0.0,-3.192,-9.658,-0.203,-3.376,6.58,1.68,3.01
,-9.27,-0.029,-3.18,-9.402,-0.266,-3.403,6.23,1.89,3.08
35133.0,-9.22,-0.321,-3.47,-9.718,-0.471,-3.671,3.92,2.03,3.71
,-9.249,-0.311,-3.618,-9.947,-0.902,-3.544,4.27,2.1,4.06
,-9.541,-0.316,-3.731,-9.641,-0.696,-3.317,4.83,2.17,4.34
,-9.689,-0.414,-3.738,-9.541,-0.165,-2.85,5.25,2.1,4.62
35209.0,-9.416,0.079,-2.419,-9.627,-0.763,-2.173,-6.51,1.05,4.9
,-9.284,-0.615,-2.012,-9.907,-0.89,-2.541,-11.13,2.38,4.83
,-9.684,-1.108,-1.917,-9.794,-1.242,-2.938,-8.89,4.55,5.39
,-9.938,-0.909,-1.919,-9.797,-1.287,-3.577,-6.51,6.02,5.67
35285.0,-9.6,-1.28,-4.027,-9.028,-2.74,-4.898,-1.47,9.66,7.0
,-9.421,-1.452,-4.475,-8.82,-2.989,-4.965,2.52,8.82,6.65
,-9.253,-1.96,-4.75,-8.938,-3.391,-4.874,7.07,8.19,6.09
,-9.222,-2.635,-4.838,-8.997,-3.183,-4.712,14.35,7.7,5.04
35360.0,-9.15,-2.606,-4.63,-8.969,-3.697,-4.164,51.1,-0.42,-4.69
,-9.127,-2.434,-4.547,-9.06,-3.202,-4.018,50.75,-3.36,-8.19
,-8.966,-2.742,-4.448,-9.141,-2.501,-4.135,47.81,-4.83,-12.18
,-8.78,-3.539,-4.274,-9.095,-2.539,-4.228,46.9,-4.48,-15.05
35436.0,-9.206,-3.008,-4.015,-9.273,-2.448,-3.747,55.09,-9.24,-29.19
,-9.232,-3.01,-3.927,-9.385,-2.161,-3.618,57.12,-10.43,-30.45
,-9.148,-2.733,-3.946,-9.241,-2.163,-3.699,60.76,-11.13,-31.5
,-9.119,-2.551,-3.845,-9.244,-2.486,-3.671,63.91,-10.57,-32.2
35512.0,-9.251,-2.781,-3.57,-9.328,-2.115,-3.613,71.33,-8.54,-34.79
,-9.349,-2.709,-3.594,-9.474,-2.046,-3.405,77.07,-7.7,-33.88
,-9.445,-2.257,-3.754,-9.636,-1.919,-3.51,82.74,-7.35,-33.53
,-9.306,-2.139,-3.721,-9.531,-1.615,-3.36,84.84,-6.79,-33.81
35588.0,-9.457,-1.658,-3.178,-9.32,-1.091,-2.749,80.5,-8.47,-38.71
,-9.428,-2.467,-2.922,-9.483,-0.905,-2.788,73.78,-8.75,-39.06
,-9.337,-2.261,-2.879,-9.34,-1.177,-2.826,70.7,-9.66,-39.48
,-9.215,-1.476,-2.816,-9.036,-2.295,-2.773,68.18,-9.45,-40.25
35663.0,-9.091,-2.419,-2.953,-9.495,-1.5,-3.039,42.7,-0.7,-37.8
,-9.258,-1.747,-3.046,-9.275,-1.601,-2.994,46.83,-0.49,-36.4
,-9.337,-1.474,-3.185,-8.961,-1.165,-2.84,46.97,-0.7,-36.4
,-9.349,-1.39,-3.238,-8.938,-0.83,-2.733,45.08,-1.12,-36.68
35739.0,-9.04,-1.043,-2.984,-8.734,-0.493,-2.568,15.68,-7.0,-34.44
,-8.82,-1.34,-2.843,-8.61,-0.878,-2.426,7.49,-6.37,-33.46
,-8.813,-1.34,-2.45,-8.435,-1.374,-2.079,3.71,-6.09,-31.85
,-8.827,-0.909,-2.544,-8.476,-1.618,-2.077,-1.96,-7.28,-31.22
35814.0,-8.457,-2.759,-2.034,-8.052,-1.163,-1.402,-36.75,-10.64,-27.02
,-8.461,-3.549,-1.663,-7.856,-1.682,-1.653,-32.13,-9.66,-23.03
,-8.55,-2.723,-1.378,-8.1,-2.34,-1.795,-23.1,-9.24,-19.18
,-8.275,-1.34,-1.522,-8.452,-1.385,-1.642,-23.59,-8.89,-17.5
35890.0,-8.38,-0.024,-1.752,-8.497,-2.704,-2.367,-55.02,8.68,-9.52
,-8.461,-0.96,-1.974,-8.693,-3.116,-2.565,-73.22,9.94,-10.36
,-8.445,-3.35,-1.962,-9.438,-3.69,-2.479,-82.67,9.73,-10.5
,-8.476,-3.427,-2.362,-9.184,-3.53,-2.673,-78.33,9.24,-8.05
35966.0,-9.246,-2.197,-3.118,-9.538,-2.745,-3.903,-55.86,5.6,8.82
,-8.99,-1.898,-3.338,-10.074,-1.855,-3.64,-63.28,5.46,10.92
,-8.83,-2.888,-3.336,-9.909,-1.981,-3.398,-70.98,7.07,12.81
,-8.885,-3.477,-3.685,-9.703,-2.699,-3.817,-67.69,9.45,15.47
36042.0,-9.856,-2.903,-4.448,-9.71,-2.941,-5.039,-28.28,12.25,37.8
,-9.986,-2.319,-4.865,-9.811,-2.429,-4.738,-14.7,11.62,43.4
,-9.828,-2.288,-5.035,-10.007,-1.912,-4.166,-4.27,11.06,47.88
,-9.828,-2.898,-5.097,-9.914,-1.352,-3.915,6.86,10.99,51.66
36117.0,-10.089,-1.936,-3.699,-9.485,-0.943,-2.709,3.57,1.05,45.08
,-9.82,-2.737,-3.451,-9.411,0.304,-2.84,-16.66,-1.19,39.34
,-9.509,-3.419,-3.037,-9.244,0.4,-3.051,-28.98,-2.03,36.33
,-9.512,-2.498,-2.788,-9.007,-0.864,-3.245,-29.96,-1.89,35.7
36193.0,-9.021,-1.627,-3.321,-9.249,-1.529,-3.86,-35.77,-1.82,33.67
,-9.158,-1.067,-3.58,-9.56,-1.295,-4.058,-27.79,-1.47,33.53
,-8.921,-0.653,-3.702,-9.517,-1.01,-4.121,-28.77,-1.89,32.27
,-8.804,-1.151,-3.726,-9.261,-0.979,-4.089,-34.79,-2.52,30.59
36269.0,-9.464,-0.558,-3.979,-9.196,-0.23,-3.427,-18.2,-4.34,28.49
,-9.615,0.156,-3.934,-9.289,-0.285,-3.283,-10.64,-4.69,28.07
,-9.399,0.474,-3.795,-9.418,-0.258,-3.151,-10.22,-5.04,27.23
,-9.251,0.084,-3.601,-9.481,-0.558,-3.072,-14.63,-5.88,25.76
36345.0,-9.49,-0.512,-3.137,-9.256,-0.457,-3.903,-22.19,-6.23,19.46
,-9.395,-0.359,-3.197,-9.162,-0.433,-3.979,-18.34,-5.6,19.18
,-9.466,-0.201,-3.467,-9.284,-0.237,-3.941,-15.4,-4.97,18.76
,-9.416,-0.263,-3.743,-9.33,0.036,-3.838,-13.37,-4.9,18.27
36421.0,-9.43,0.266,-3.683,-9.337,-0.282,-3.192,-6.51,-6.44,14.98
,-9.627,0.723,-3.53,-9.244,-0.105,-3.12,-7.28,-7.35,13.37
,-9.215,0.634,-3.336,-9.509,-0.579,-2.965,-11.97,-8.33,12.39
,-9.287,-0.168,-3.326,-9.407,-0.744,-2.8,-13.37,-8.75,12.25
36496.0,-9.277,-0.723,-2.73,-9.28,-0.562,-3.314,-9.94,-6.58,10.78
,-9.22,-0.285,-2.79,-9.344,-0.471,-3.278,-6.93,-5.67,10.71
,-9.615,-0.048,-3.053,-9.615,0.419,-3.195,-7.14,-5.32,10.43
,-9.792,-0.373,-3.264,-9.282,0.56,-2.924,-8.19,-4.97,10.22
36572.0,-9.043,-0.115,-2.565,-9.765,0.909,-2.702,-10.57,-5.11,9.17
,-9.299,0.153,-2.434,-9.529,-0.402,-2.845,-9.66,-4.48,8.75
,-9.524,0.627,-2.477,-9.083,-0.756,-2.726,-9.66,-3.78,8.12
,-9.686,0.814,-2.484,-9.349,-0.337,-2.855,-11.34,-3.22,7.21
36648.0,-9.703,0.05,-2.905,-9.308,-0.285,-3.491,-13.44,-0.63,5.39
,-9.485,0.179,-3.051,-9.308,-0.467,-3.434,-17.78,-0.77,4.62
,-9.27,-0.146,-3.235,-9.507,-0.273,-3.305,-18.9,-0.56,4.76
,-9.371,-0.27,-3.372,-9.639,0.057,-3.135,-14.77,0.0,5.18
36724.0,-9.567,0.266,-3.034,-9.249,0.474,-3.589,-3.85,1.12,5.95
,-9.49,0.38,-3.02,-9.325,0.179,-3.721,-4.83,0.98,5.46
,-9.509,0.656,-3.128,-9.103,-0.615,-3.616,-4.76,0.98,4.9
,-9.378,0.735,-3.326,-9.311,-0.653,-3.458,-5.25,0.7,4.55
36799.0,-9.627,-0.175,-3.331,-9.442,0.541,-2.699,9.66,0.77,7.28
,-9.344,-0.562,-2.481,-9.847,-0.316,-2.876,9.17,1.4,7.84
,-9.083,0.105,-2.907,-9.387,0.56,-3.233,16.52,2.03,8.19
,-9.452,0.39,-3.197,-9.773,0.112,-3.005,22.82,3.01,9.66
36875.0,-9.459,0.33,-3.046,-9.481,-0.457,-2.374,12.88,2.73,7.35
,-9.395,0.842,-2.967,-9.916,0.682,-2.467,9.03,2.17,6.3
,-9.387,0.589,-2.711,-9.787,1.723,-2.4,1.54,1.54,5.39
,-9.105,-0.66,-2.441,-9.639,1.402,-2.362,-3.29,2.17,5.39
36950.0,-9.512,0.749,-2.407,-9.418,0.117,-3.652,3.5,7.42,3.29
,-9.426,0.201,-2.386,-9.129,-0.165,-4.018,5.18,8.4,3.01
,-9.354,0.153,-2.639,-9.086,-0.239,-4.283,7.07,9.03,2.87
,-9.519,0.211,-3.137,-9.16,-0.096,-4.42,7.7,8.82,2.87
37026.0,-9.105,-0.101,-4.331,-9.407,0.395,-3.139,0.35,4.06,1.82
,-9.083,-0.077,-4.056,-9.533,0.601,-3.051,0.7,2.87,2.1
,-8.973,-0.199,-3.709,-9.517,0.426,-2.97,2.45,2.17,2.87
,-9.15,0.038,-3.364,-9.469,0.189,-2.953,5.81,2.38,3.71
37102.0,-9.366,0.048,-3.032,-9.459,0.23,-3.441,1.96,2.73,2.31
,-9.21,-0.117,-3.139,-9.45,0.443,-3.403,1.47,2.87,2.31
,-9.198,-0.206,-3.19,-9.423,0.562,-3.47,0.42,2.66,2.17
,-9.265,-0.127,-3.273,-9.311,0.438,-3.503,0.07,3.01,2.24
37178.0,-9.273,0.462,-3.599,-9.418,0.474,-3.52,2.03,2.45,1.96
,-9.215,0.268,-3.666,-9.191,0.115,-3.446,2.87,2.1,2.17
,-8.985,-0.184,-3.587,-8.66,-1.546,-3.271,3.71,1.82,2.52
,-9.217,-0.01,-3.556,-8.78,-1.972,-3.051,6.72,1.54,2.87
37254.0,-9.347,-0.687,-3.202,-9.488,0.581,-3.154,20.16,2.45,7.28
,-9.739,1.326,-3.001,-9.194,0.139,-3.302,21.84,2.87,6.51
,-9.753,2.032,-3.092,-9.026,0.416,-3.494,10.36,2.17,4.41
,-9.517,1.314,-3.022,-9.524,1.187,-3.513,-1.61,1.75,2.38
37329.0,-9.476,1.223,-3.355,-9.488,1.318,-2.766,-6.65,-0.42,-2.1
,-9.438,0.44,-3.058,-9.392,1.127,-2.764,-11.48,-0.21,-2.52
,-9.753,0.38,-2.843,-9.332,0.924,-2.828,-9.03,0.35,-2.87
,-9.756,0.964,-2.814,-9.529,0.732,-2.821,-6.65,0.98,-3.71
37405.0,-9.552,0.603,-2.86,-9.282,0.462,-3.276,-14.28,3.29,-6.93
