Timestamp,AccX,AccY,AccZ,GyroX,GyroY,GyroZ,MagnX,MagnY,MagnZ
0.0,-9.009,-0.529,-4.19,-9.021,-0.689,-3.965,0.49,-0.14,0.98
,-8.938,-0.505,-4.106,-8.985,-0.586,-3.896,-0.28,-0.35,0.91
,-8.933,-0.601,-4.087,-9.028,-0.457,-3.941,-0.77,-0.21,0.91
,-8.938,-0.646,-3.982,-9.04,-0.45,-3.979,-0.56,-0.07,1.12
76.0,-8.997,-0.543,-4.006,-9.005,-0.589,-4.142,-0.98,1.19,1.96
,-9.014,-0.639,-4.02,-9.009,-0.541,-4.078,-1.54,1.19,1.82
,-9.048,-0.663,-4.121,-8.995,-0.476,-4.104,-1.61,1.19,1.82
,-9.016,-0.627,-4.106,-9.005,-0.467,-4.149,-2.1,1.19,2.03
152.0,-9.007,-0.443,-4.257,-8.983,-0.486,-4.08,-4.55,1.12,2.03
,-9.05,-0.553,-4.221,-8.983,-0.428,-4.118,-5.25,0.98,2.1
,-9.06,-0.584,-4.142,-8.997,-0.416,-4.133,-5.25,1.05,2.38
,-9.026,-0.56,-4.128,-9.055,-0.395,-4.262,-4.83,1.05,2.52
228.0,-8.935,-0.443,-4.283,-8.964,-0.72,-4.025,-8.19,0.42,2.52
,-8.942,-0.579,-4.233,-9.005,-0.474,-3.955,-8.33,0.35,2.8
,-8.938,-0.732,-4.252,-9.074,-0.263,-3.893,-7.56,0.56,3.22
,-9.002,-0.893,-4.154,-9.052,-0.215,-3.929,-5.88,0.7,3.78
304.0,-9.009,-0.325,-3.999,-8.959,-0.524,-4.08,-7.35,1.26,4.34
,-9.026,-0.376,-4.025,-8.973,-0.462,-4.03,-8.12,1.33,4.34
,-8.993,-0.404,-4.049,-9.0,-0.445,-4.113,-8.54,1.54,4.48
,-8.945,-0.412,-4.073,-9.067,-0.345,-4.171,-9.24,1.33,4.62
380.0,-9.074,-0.299,-4.274,-8.914,-0.593,-4.235,-11.06,1.61,5.18
,-8.985,-0.402,-4.195,-8.851,-0.84,-4.137,-11.83,1.54,5.39
,-8.835,-0.409,-4.233,-9.043,-0.402,-4.049,-12.18,1.26,5.53
,-8.933,-0.347,-4.219,-9.129,-0.01,-4.046,-11.83,1.19,5.81
456.0,-9.112,0.06,-4.104,-9.067,0.203,-4.068,-9.66,1.61,7.07
,-9.074,0.012,-4.231,-8.985,-0.337,-3.958,-11.34,1.4,6.79
,-8.837,-0.103,-4.156,-8.985,-0.4,-3.999,-13.3,1.33,6.65
,-8.928,-0.057,-4.08,-8.899,-0.208,-4.08,-13.44,1.26,6.58
532.0,-8.811,-0.203,-4.121,-9.194,0.069,-4.314,-7.56,2.59,8.75
,-9.036,-0.124,-4.183,-9.009,0.562,-4.424,-5.6,2.94,9.17
,-9.057,-0.211,-4.228,-9.021,0.732,-4.405,-4.62,3.36,9.45
,-9.057,-0.345,-4.223,-9.052,0.732,-4.424,-1.75,3.85,10.01
608.0,-9.179,0.842,-4.398,-8.837,0.148,-4.022,-3.29,1.82,7.35
,-8.851,0.754,-4.348,-9.139,0.33,-3.872,-7.28,1.05,6.65
,-8.827,0.558,-4.212,-9.014,0.955,-3.905,-9.17,0.63,6.3
,-8.789,0.424,-4.154,-9.031,0.943,-3.86,-11.13,0.28,6.09
684.0,-8.954,0.737,-3.874,-9.127,0.605,-3.915,-19.04,0.07,4.62
,-9.072,0.596,-3.855,-9.057,0.902,-3.958,-18.97,0.42,4.41
,-9.062,0.62,-3.879,-9.146,0.634,-3.905,-19.11,0.42,4.2
,-8.904,0.629,-3.927,-9.028,0.44,-3.826,-19.74,0.7,4.2
760.0,-9.122,0.493,-3.802,-9.055,0.732,-3.987,-13.86,3.43,3.99
,-9.208,0.802,-3.896,-9.093,0.83,-4.087,-9.03,4.41,3.99
,-9.04,0.983,-3.939,-9.095,0.967,-4.147,-6.65,5.04,3.71
,-9.062,0.699,-3.965,-8.981,0.79,-4.415,-5.18,5.88,3.71
836.0,-8.859,0.33,-4.511,-8.983,0.5,-4.448,-0.49,7.49,2.45
,-8.849,0.182,-4.614,-8.981,0.364,-4.338,2.31,7.49,2.94
,-8.885,0.333,-4.625,-8.954,0.38,-4.343,5.88,7.56,3.22
,-8.969,0.498,-4.59,-8.902,0.57,-4.271,7.63,7.7,3.29
912.0,-8.851,0.632,-4.302,-8.77,0.804,-3.75,12.88,8.68,3.78
,-8.897,0.433,-4.171,-8.806,0.83,-3.738,13.09,9.45,3.92
,-9.194,0.668,-3.92,-8.892,0.715,-3.735,13.3,8.82,3.22
,-8.837,1.101,-3.867,-9.0,0.797,-3.709,10.15,8.61,2.73
988.0,-8.945,0.983,-3.731,-9.158,0.421,-3.989,0.07,10.22,1.33
,-9.009,0.591,-3.654,-9.124,0.354,-4.355,-0.28,11.48,1.47
,-8.952,0.431,-3.666,-8.993,0.199,-4.769,1.19,12.81,1.82
,-9.103,0.218,-3.721,-8.923,0.036,-5.159,4.69,14.14,2.03
1064.0,-8.748,-0.045,-5.374,-8.818,0.811,-4.776,14.84,16.59,1.96
,-8.753,0.069,-5.439,-8.835,1.043,-4.616,17.85,16.45,2.24
,-8.756,0.325,-5.257,-8.839,0.976,-4.506,20.16,16.17,2.31
,-8.849,0.701,-5.006,-8.787,0.682,-4.35,20.16,15.68,1.68
1140.0,-9.079,0.773,-4.192,-9.057,0.538,-3.888,21.7,17.92,0.84
,-9.167,0.747,-3.946,-9.076,0.45,-4.247,21.7,18.62,0.14
,-9.083,0.818,-3.654,-9.117,0.261,-4.523,19.6,18.97,-0.7
,-9.028,1.0,-3.726,-9.019,0.266,-4.767,16.73,19.74,-1.33
1216.0,-9.117,0.108,-4.953,-9.485,0.019,-4.551,13.58,22.96,-3.22
,-7.595,0.337,-4.987,-9.095,0.397,-4.657,10.71,25.2,-6.65
,-9.794,-1.931,-4.795,-9.172,0.749,-4.503,13.72,24.22,-8.33
,-8.961,1.067,-4.685,-9.308,0.849,-4.542,10.08,23.8,-6.23
1292.0,-9.627,1.895,-4.606,-9.244,-0.127,-4.551,13.44,28.98,-11.06
,-9.765,1.711,-4.8,-9.129,0.572,-4.671,9.73,29.47,-13.58
,-9.323,0.026,-4.75,-8.926,0.012,-4.738,5.67,30.66,-14.14
,-9.186,-1.225,-4.64,-8.863,-0.402,-4.843,11.76,32.2,-11.9
1368.0,-8.897,-0.519,-4.982,-8.634,-0.014,-5.116,21.91,37.52,-13.79
,-8.88,-0.412,-5.121,-8.471,0.117,-5.104,23.66,38.36,-14.42
,-8.842,-0.266,-5.164,-8.516,0.452,-5.035,24.78,39.06,-14.63
,-8.71,-0.089,-5.169,-8.593,0.675,-5.13,25.13,39.48,-14.98
1444.0,-8.579,0.524,-5.176,-8.392,-0.22,-5.032,23.03,42.56,-17.71
,-8.591,0.237,-5.159,-8.227,-0.304,-5.118,21.91,43.4,-17.71
,-8.478,0.01,-5.164,-8.076,-0.534,-5.152,21.77,44.17,-17.5
,-8.449,-0.261,-5.001,-8.131,-0.617,-5.458,22.68,45.15,-17.08
1520.0,-8.232,-0.713,-5.597,-8.411,-0.775,-4.759,18.69,47.81,-17.99
,-8.265,-0.919,-5.647,-8.495,-0.969,-4.209,17.08,48.09,-18.27
,-8.33,-1.019,-5.463,-8.658,-1.039,-3.558,17.92,49.0,-18.13
,-8.351,-0.797,-5.195,-8.849,-0.881,-3.053,19.25,49.98,-18.06
1596.0,-8.926,-0.988,-2.515,-9.028,-1.866,-2.773,28.0,63.7,-10.36
,-9.021,-1.18,-2.144,-9.002,-1.826,-3.439,30.1,68.6,-7.0
,-9.06,-1.371,-2.108,-8.808,-2.008,-3.953,32.69,73.5,-3.85
,-9.028,-1.627,-2.268,-8.938,-2.053,-4.499,35.21,78.54,-0.42
1672.0,-9.124,-1.692,-5.063,-9.402,-1.048,-6.671,48.79,103.81,13.16
,-9.311,-1.46,-5.59,-8.969,-0.586,-7.425,47.53,107.94,14.35
,-9.617,-1.481,-5.896,-8.617,-0.17,-8.086,48.3,110.39,15.54
,-9.622,-1.5,-6.157,-8.416,0.144,-8.5,51.66,110.53,16.17
1748.0,-8.055,0.005,-8.918,-6.095,-2.211,-9.636,34.65,92.05,11.9
,-7.751,-0.373,-8.89,-5.927,-3.137,-9.141,23.94,85.96,13.09
,-7.444,-0.751,-8.806,-6.088,-2.958,-9.208,14.21,78.26,14.84
,-6.99,-1.11,-9.584,-5.97,-2.393,-9.052,7.91,68.18,16.8
1824.0,-6.358,-1.756,-8.67,-5.776,-1.065,-8.5,42.35,15.4,35.14
,-6.183,-1.275,-8.449,-5.578,-1.244,-8.701,38.29,-0.28,35.49
,-6.236,-1.113,-8.222,-5.238,-1.51,-8.488,29.47,-16.8,34.02
,-6.135,-1.06,-8.33,-5.023,-2.146,-8.416,20.58,-33.32,31.92
1900.0,-5.164,-2.474,-8.349,-5.537,-2.453,-8.394,-4.55,-93.52,30.1
,-4.937,-2.465,-8.591,-5.843,-2.383,-8.064,-4.13,-105.49,30.17
,-4.738,-2.474,-8.562,-5.552,-2.103,-8.409,-5.18,-113.12,30.94
,-5.286,-2.501,-8.385,-5.2,-2.23,-8.488,-7.42,-120.61,32.13
1976.0,-5.389,-2.606,-8.471,-6.348,-1.819,-7.44,-21.56,-158.27,39.41
,-5.621,-2.931,-8.074,-6.171,-1.505,-7.842,-18.62,-163.45,40.88
,-5.887,-2.828,-7.653,-5.944,-1.338,-7.837,-13.16,-169.26,42.07
,-6.159,-2.331,-7.416,-6.427,-1.175,-7.712,-9.59,-175.98,42.63
2052.0,-6.461,-0.866,-7.655,-6.868,-0.983,-7.301,-29.96,-202.23,34.02
,-6.638,-0.744,-7.521,-7.478,-1.208,-6.782,-35.14,-206.01,30.66
,-6.753,-0.639,-7.332,-7.846,-1.673,-6.341,-41.23,-209.44,26.95
,-6.793,-0.744,-7.358,-8.141,-2.046,-5.954,-47.81,-213.08,23.03
2128.0,-8.516,-2.075,-5.796,-9.074,-1.701,-2.417,-49.7,-222.32,4.2
,-8.725,-1.95,-5.439,-9.495,-1.421,-1.977,-44.66,-221.34,2.24
,-8.6,-1.754,-3.939,-9.976,-0.842,-1.589,-36.54,-215.95,1.33
,-8.923,-1.84,-3.247,-9.631,0.038,-1.177,-30.73,-209.02,-0.49
2204.0,-9.127,0.036,-0.706,-8.102,-1.201,0.242,-36.19,-157.5,-14.14
,-8.854,-0.452,-0.254,-7.779,-1.163,0.17,-45.57,-141.4,-15.26
,-8.526,-0.914,-0.182,-7.552,-1.24,0.249,-50.4,-124.74,-14.77
,-8.306,-1.251,0.225,-7.404,-1.046,0.354,-49.56,-107.31,-13.02
2280.0,-7.483,-0.696,0.373,-7.854,0.141,-1.653,-32.13,-13.51,-3.85
,-7.605,-0.06,-0.158,-8.344,-0.244,-1.89,-30.38,5.04,-2.59
,-7.72,0.349,-0.804,-12.462,-2.608,-0.345,-34.93,22.05,-1.75
,-7.861,0.34,-1.175,-16.695,-5.528,3.147,-41.37,37.45,-0.49
2356.0,-14.396,-3.144,1.948,-13.194,-3.518,1.199,-3.22,62.44,13.79
,-9.684,1.158,0.019,-13.084,-1.9,-0.916,-5.18,61.18,2.1
,-8.267,0.273,-0.11,-9.576,-0.139,-3.609,-38.15,62.16,3.29
,-10.945,-2.781,1.072,-7.798,-1.139,-4.247,-53.62,67.13,13.44
2432.0,-7.59,-2.544,-3.676,-8.267,-0.093,-5.25,-13.02,102.97,22.75
,-7.935,-1.871,-3.829,-8.519,0.952,-5.686,1.61,97.37,21.63
,-8.155,-0.507,-4.427,-9.005,1.261,-5.944,6.58,88.97,19.11
,-8.105,-0.349,-4.939,-9.588,0.455,-5.717,2.52,80.85,18.27
2508.0,-10.199,-0.39,-4.917,-9.124,-0.385,-3.987,-11.83,56.42,15.89
,-10.431,-0.433,-4.458,-9.162,-0.45,-4.575,-15.33,52.08,14.49
,-10.081,-0.452,-4.051,-9.263,0.148,-4.482,-20.72,47.53,12.04
,-9.71,-0.383,-4.178,-9.363,0.443,-3.929,-21.21,43.61,10.36
2584.0,-9.261,0.244,-3.592,-9.658,1.199,-2.163,-15.54,33.46,10.29
,-9.483,0.065,-3.312,-9.78,1.728,-2.237,-15.4,32.2,10.08
,-9.311,0.321,-3.003,-9.904,1.828,-2.431,-14.28,31.78,10.5
,-9.411,0.687,-2.486,-9.809,2.111,-3.017,-10.99,31.85,11.41
2660.0,-9.399,2.027,-3.29,-9.421,0.012,-3.443,-9.66,29.12,8.47
,-9.256,1.51,-3.604,-9.622,1.163,-3.597,-11.83,28.91,8.12
,-9.344,0.682,-3.673,-9.6,2.41,-3.597,-12.53,28.56,7.77
,-9.237,-0.117,-3.46,-9.574,3.003,-3.51,-9.52,28.84,8.12
2736.0,-9.457,2.383,-3.391,-9.512,-0.191,-3.659,-21.28,21.7,3.92
,-9.493,1.244,-2.982,-9.545,0.373,-3.81,-28.63,20.58,3.43
,-9.581,0.352,-3.329,-9.182,1.091,-3.898,-25.83,19.88,3.08
,-9.564,0.017,-3.506,-9.072,0.871,-3.707,-19.88,19.32,2.66
2812.0,-9.344,0.529,-3.506,-9.32,0.134,-3.104,-31.78,14.28,-1.19
,-9.308,0.05,-3.367,-9.356,0.244,-3.072,-34.16,14.42,-1.68
,-9.347,-0.438,-3.252,-9.418,0.218,-3.266,-29.82,14.98,-1.4
,-9.38,-0.282,-3.19,-9.277,-0.165,-3.372,-21.63,15.89,-0.77
2888.0,-9.225,-0.495,-3.527,-9.229,-0.148,-3.51,-10.01,20.02,1.4
,-9.196,-0.799,-3.659,-9.206,0.156,-3.472,-6.44,20.79,2.31
,-9.052,-0.811,-3.723,-9.134,0.359,-3.195,-1.75,21.56,3.57
,-9.057,-0.519,-3.664,-9.177,0.742,-3.171,3.15,22.26,4.83
2964.0,-9.222,0.979,-3.238,-9.402,1.041,-3.116,4.97,24.36,4.69
,-9.198,0.802,-3.135,-8.985,0.78,-3.25,3.78,24.99,4.41
,-9.122,0.627,-3.001,-8.971,0.38,-3.159,4.97,26.32,4.2
,-9.351,0.61,-3.053,-9.062,0.28,-3.214,8.33,27.37,3.99
3040.0,-9.208,-0.057,-3.087,-8.904,0.536,-3.264,1.82,31.5,3.36
,-9.201,0.01,-3.008,-8.978,0.407,-3.565,4.62,33.18,3.78
,-9.165,0.34,-3.089,-9.062,0.33,-3.85,7.07,34.65,3.99
,-9.139,0.325,-3.092,-9.167,0.258,-4.235,7.56,36.47,4.2
3116.0,-9.194,0.309,-4.484,-9.239,0.584,-5.418,9.45,41.44,3.71
,-9.191,0.483,-4.771,-9.45,0.663,-5.331,11.48,41.86,3.5
,-9.117,0.431,-4.98,-9.643,0.778,-5.121,12.53,41.86,3.15
,-9.184,0.5,-5.255,-10.412,1.137,-5.037,13.3,41.86,3.01
3192.0,-10.617,-1.95,-5.138,-10.053,1.402,-4.25,29.61,46.06,-0.7
,-9.007,0.682,-4.915,-10.055,-1.338,-3.843,41.93,45.43,1.68
,-11.017,1.263,-4.788,-10.184,0.05,-3.666,47.67,46.97,0.49
,-10.696,2.836,-4.853,-10.098,0.656,-3.486,45.57,46.97,-3.29
3268.0,-9.876,0.203,-3.364,-9.651,-0.656,-3.257,42.28,56.84,-9.66
,-9.931,0.16,-3.362,-9.866,-0.457,-3.171,43.12,59.85,-11.69
,-9.993,0.287,-3.362,-9.641,0.17,-3.204,44.59,62.58,-13.86
,-9.849,-0.024,-3.312,-9.586,0.067,-3.159,43.75,65.1,-15.61
3344.0,-9.418,-0.33,-3.137,-9.663,-0.794,-2.412,37.66,78.26,-16.31
,-9.478,-0.718,-3.226,-9.593,-0.526,-1.902,36.82,81.06,-15.75
,-9.442,-0.842,-3.199,-9.742,-0.593,-1.608,38.71,84.07,-14.7
,-9.536,-0.957,-2.91,-9.737,-0.924,-1.4,43.47,87.71,-13.44
3420.0,-9.739,-1.467,-1.28,-9.703,-1.23,-3.664,45.78,107.94,-3.64
,-9.82,-2.106,-1.515,-9.615,-0.577,-4.929,46.97,112.63,0.28
,-9.931,-2.185,-1.862,-9.478,0.079,-5.793,52.29,117.04,4.34
,-9.883,-1.866,-2.642,-9.947,-0.258,-6.511,58.38,121.17,7.63
3496.0,-10.182,-0.34,-7.396,-8.567,0.766,-9.495,44.17,135.73,10.99
,-9.859,-0.294,-8.011,-8.157,1.108,-10.337,42.84,129.36,9.1
,-8.88,-0.048,-7.696,-7.65,1.141,-10.211,41.79,119.91,7.21
,-9.098,-0.06,-9.253,-7.363,0.191,-9.835,45.64,109.41,6.93
3572.0,-6.377,-1.201,-10.041,-5.616,-3.683,-8.763,-0.14,42.77,10.64
,-4.774,-3.247,-10.246,-6.042,-2.369,-8.406,-3.85,35.14,13.93
,-4.64,-4.549,-9.931,-6.212,-1.383,-8.016,7.14,32.27,18.62
,-5.255,-4.628,-9.457,-6.281,-1.036,-7.739,26.95,25.27,24.29
3648.0,-5.568,-1.261,-8.002,-4.324,-2.371,-8.502,19.46,-65.38,40.95
,-5.451,-1.709,-8.172,-4.156,-3.013,-8.208,14.07,-80.85,40.67
,-5.36,-1.522,-8.181,-4.934,-3.305,-7.887,9.45,-93.31,41.09
,-4.963,-1.831,-8.205,-5.166,-3.029,-8.428,1.4,-105.84,42.35
3724.0,-4.843,-2.692,-8.363,-5.13,-1.862,-8.382,7.28,-153.93,47.25
,-5.171,-2.309,-8.325,-5.52,-1.895,-8.22,9.94,-161.28,47.88
,-5.018,-2.017,-8.617,-5.784,-1.874,-8.425,9.66,-169.26,49.63
,-4.85,-1.792,-8.559,-5.564,-1.795,-8.454,6.86,-175.07,51.59
3800.0,-5.839,-1.457,-8.325,-6.432,-0.572,-8.741,-2.1,-207.97,48.3
,-6.068,-1.307,-8.308,-6.262,-0.479,-8.815,-6.79,-213.71,45.71
,-6.224,-1.039,-8.521,-6.537,-0.809,-8.114,-13.23,-219.73,42.42
,-6.339,-0.787,-8.617,-7.002,-1.184,-7.571,-20.72,-224.98,38.43
3876.0,-7.157,-1.378,-7.495,-7.722,-1.819,-4.755,-50.89,-242.48,10.99
,-7.05,-1.577,-7.425,-8.416,-2.108,-3.642,-53.41,-244.79,6.09
,-7.789,-1.469,-6.923,-9.048,-1.933,-3.211,-55.79,-245.49,1.4
,-7.676,-1.436,-6.454,-9.416,-1.338,-2.749,-60.62,-242.9,-2.59
3952.0,-9.471,-0.404,-2.453,-8.447,-1.132,-0.392,-39.34,-193.06,-20.79
,-9.308,-0.005,-2.02,-7.72,-0.885,-0.273,-45.5,-177.73,-22.61
,-8.966,-0.462,-1.261,-7.306,-1.137,0.952,-54.95,-159.67,-22.89
,-8.653,-1.117,-0.352,-7.069,-0.983,1.232,-59.5,-139.65,-21.77
4028.0,-7.102,-1.062,1.098,-7.906,1.254,-1.429,-49.56,-17.85,-11.83
,-7.296,-0.644,0.754,-8.368,1.01,-2.0,-45.22,9.8,-6.86
,-7.337,0.177,0.139,-11.551,-1.333,-1.316,-43.89,34.72,-1.75
,-7.614,0.938,-0.706,-20.414,-9.194,5.458,-47.81,55.65,1.68
4104.0,-18.019,-5.975,3.075,-10.122,-4.637,-0.069,-18.06,47.6,18.13
,-9.074,0.294,0.452,-9.531,-2.41,-0.72,-9.31,48.3,2.24
,-7.212,1.582,0.617,-8.334,-2.12,-1.409,-42.77,51.59,-0.7
,-9.335,-1.907,0.962,-8.882,-2.146,-1.134,-74.62,53.34,7.56
4180.0,-10.428,-1.575,-2.134,-8.48,-0.644,-4.681,-16.87,85.19,21.14
,-10.713,0.17,-3.381,-8.933,0.39,-4.824,-8.54,86.45,19.81
,-9.141,1.567,-4.905,-9.536,0.246,-4.178,-14.84,84.77,18.41
,-7.755,0.124,-4.838,-10.16,-0.4,-3.747,-25.62,83.72,19.25
4256.0,-10.081,-0.694,-3.498,-9.026,0.89,-4.355,-8.61,66.78,20.58
,-9.5,-0.431,-3.601,-9.49,1.484,-4.137,-6.09,63.77,20.51
,-9.16,-0.153,-3.795,-9.512,1.823,-4.094,-3.08,61.11,20.58
,-8.964,0.311,-4.13,-9.268,0.486,-4.051,-0.63,58.1,19.18
4332.0,-9.311,-0.933,-3.707,-9.584,0.617,-3.47,-52.57,42.14,7.56
,-9.418,-0.993,-3.771,-9.471,1.184,-3.228,-44.03,40.53,7.84
,-9.392,-0.469,-3.845,-9.811,1.254,-3.211,-35.07,38.64,8.54
,-9.416,0.086,-3.611,-9.876,1.713,-3.329,-27.44,37.45,9.87
4408.0,-9.222,1.053,-3.235,-9.627,0.022,-3.841,-32.34,27.79,9.38
,-9.301,0.074,-3.104,-9.342,-0.258,-4.056,-31.64,28.0,10.29
,-9.696,-0.258,-3.24,-9.404,-0.053,-4.305,-25.2,28.07,10.57
,-9.746,-0.041,-3.561,-9.447,0.696,-4.298,-17.5,27.58,10.01
4484.0,-9.318,1.283,-4.322,-9.184,0.287,-3.994,6.86,26.04,9.94
,-9.292,1.153,-4.3,-9.397,0.459,-3.812,6.72,24.99,9.52
,-9.462,0.811,-4.054,-9.495,0.914,-3.766,7.7,23.73,9.31
,-9.301,0.574,-4.142,-9.397,0.845,-3.776,9.66,22.26,8.89
4560.0,-9.452,0.067,-3.774,-9.605,1.524,-3.175,3.08,19.04,5.88
,-9.287,-0.33,-3.654,-9.15,1.529,-3.147,5.39,19.18,6.02
,-9.268,-0.211,-3.419,-9.143,0.651,-2.749,11.69,19.39,6.3
,-9.407,0.589,-3.245,-9.177,0.591,-2.773,16.24,18.9,6.3
4636.0,-9.354,0.799,-2.807,-9.148,-0.325,-3.362,1.82,17.78,2.8
,-9.34,0.967,-2.857,-8.995,-0.512,-3.393,1.96,18.55,2.45
,-9.438,0.936,-3.017,-9.095,-0.022,-3.582,-1.12,18.76,1.4
,-9.502,0.297,-3.226,-9.246,0.593,-3.783,-5.11,19.04,0.49
4712.0,-9.081,0.555,-3.754,-9.27,0.732,-3.41,0.0,21.77,1.89
,-9.031,0.179,-3.692,-8.942,0.964,-3.305,0.7,22.54,2.45
,-9.105,0.098,-3.553,-9.009,0.692,-3.283,5.04,22.96,2.8
,-9.22,0.457,-3.477,-9.055,0.565,-3.34,9.1,23.24,3.15
4788.0,-9.088,0.45,-3.266,-9.337,0.503,-3.838,1.26,25.34,1.75
,-9.165,0.179,-3.242,-9.115,0.457,-4.147,1.19,26.32,1.54
,-9.21,0.179,-3.278,-9.17,0.136,-4.403,3.22,27.44,1.54
,-9.21,0.23,-3.472,-9.093,0.019,-4.568,4.83,28.42,1.47
4864.0,-9.143,0.105,-4.614,-9.261,0.433,-4.506,0.56,29.19,-1.12
,-9.275,0.22,-4.599,-9.311,0.388,-4.369,2.45,29.4,-1.12
,-9.275,0.17,-4.561,-9.313,0.395,-4.228,4.48,29.75,-0.91
,-9.273,0.359,-4.482,-9.447,0.479,-3.977,7.07,30.03,-0.7
4940.0,-9.521,0.613,-3.762,-9.887,0.328,-3.953,16.8,33.81,-1.12
,-9.481,0.787,-3.709,-9.624,0.754,-4.073,17.92,35.14,-1.61
,-9.617,0.878,-3.711,-9.423,0.73,-3.996,18.41,36.68,-2.24
,-9.533,0.718,-3.762,-9.581,0.065,-4.322,17.57,38.36,-3.01
5016.0,-9.474,0.424,-4.384,-9.694,-2.982,-4.154,24.22,46.06,-5.6
,-10.167,0.928,-4.338,-9.849,-1.165,-3.764,24.78,47.32,-7.42
,-11.158,3.072,-4.769,-10.005,0.742,-3.697,25.06,47.6,-12.18
,-10.333,0.321,-4.503,-9.658,0.34,-3.652,12.25,49.56,-16.24
5092.0,-9.115,-1.048,-3.518,-8.897,-0.613,-3.465,23.1,60.9,-15.75
,-9.05,-1.424,-3.472,-9.026,-0.232,-3.609,23.31,63.21,-15.82
,-9.11,-0.902,-3.479,-9.296,0.177,-3.841,25.55,65.66,-15.47
,-9.038,-0.67,-3.415,-9.39,-0.053,-3.867,24.71,67.9,-15.82
5168.0,-9.44,-0.682,-3.786,-9.787,-1.723,-2.266,14.21,78.61,-16.03
,-9.531,-1.165,-3.654,-9.89,-1.725,-1.943,15.68,81.41,-13.86
,-9.596,-1.347,-3.345,-9.911,-1.582,-1.85,20.86,84.42,-10.78
,-9.72,-1.493,-2.804,-9.88,-1.646,-2.0,27.58,88.55,-6.58
5244.0,-9.859,-1.766,-2.362,-8.428,-0.022,-6.025,72.31,111.23,20.58
,-9.493,-1.96,-2.809,-8.483,0.328,-6.947,83.23,114.31,24.99
,-9.287,-1.677,-3.656,-8.78,0.871,-7.748,93.31,115.99,28.14
,-8.622,-0.895,-4.929,-9.251,1.302,-8.672,99.47,116.06,28.63
5320.0,-9.081,1.256,-9.198,-7.222,0.275,-9.899,57.05,114.8,10.78
,-8.526,1.199,-9.354,-6.487,-0.4,-9.66,43.89,110.74,9.17
,-8.062,0.869,-9.454,-6.241,-1.003,-9.426,31.78,104.09,9.1
,-7.595,0.419,-9.335,-5.81,-1.407,-9.452,20.51,94.01,9.52
5396.0,-5.449,-2.151,-9.459,-5.721,-1.125,-8.593,-12.39,30.45,13.72
,-5.166,-2.438,-9.239,-5.8,-0.991,-8.22,-6.51,19.46,16.94
,-5.561,-2.099,-8.854,-5.817,-1.225,-8.031,3.92,7.07,20.09
,-5.705,-1.524,-8.777,-5.674,-1.634,-7.959,11.76,-7.14,22.12
5472.0,-5.54,-1.61,-7.882,-4.7,-2.367,-8.469,-2.52,-81.76,25.62
,-5.36,-1.62,-8.143,-4.963,-2.462,-8.162,-3.99,-96.67,28.49
,-5.193,-2.041,-8.2,-5.427,-2.62,-8.019,-7.07,-110.67,31.36
,-4.81,-2.249,-8.38,-5.355,-2.68,-8.277,-7.35,-123.06,34.58
5548.0,-5.422,-2.637,-7.932,-6.229,-1.709,-7.705,2.03,-167.86,40.67
,-5.966,-2.414,-7.681,-6.344,-1.768,-7.858,3.08,-173.6,42.21
,-6.245,-2.044,-7.586,-6.334,-2.032,-7.798,2.8,-181.3,44.8
,-6.143,-1.802,-7.588,-6.762,-1.957,-7.478,-1.4,-189.77,46.13
5624.0,-6.712,-1.692,-7.521,-7.406,-0.849,-6.963,-1.96,-219.52,42.14
,-6.904,-1.364,-7.468,-7.581,-0.912,-6.691,-2.17,-223.02,40.11
,-6.994,-1.182,-7.399,-7.834,-0.969,-6.442,-4.9,-226.17,38.5
,-7.385,-0.883,-7.365,-8.052,-1.003,-6.329,-7.91,-228.69,36.75
5700.0,-8.358,-0.83,-6.061,-9.38,-0.639,-3.18,-23.73,-234.43,17.99
,-8.574,-0.562,-5.745,-9.531,-0.656,-2.642,-26.39,-233.45,14.42
,-8.83,-0.553,-4.996,-9.677,-0.639,-2.142,-28.28,-229.6,10.99
,-9.177,-0.498,-4.161,-9.686,-0.512,-1.527,-32.41,-224.56,6.58
5776.0,-9.466,-0.56,-0.826,-7.468,-1.744,1.95,-46.27,-175.42,-15.68
,-9.088,-0.955,-0.459,-7.392,-1.441,2.28,-51.45,-159.46,-16.38
,-8.665,-1.51,-0.297,-7.294,-1.015,2.4,-55.23,-141.75,-16.03
,-7.753,-1.649,1.151,-7.234,-0.562,2.07,-53.27,-121.03,-14.49
5852.0,-7.358,-0.012,1.46,-7.997,0.562,-1.565,-30.17,6.37,-2.24
,-7.576,0.591,0.658,-8.031,0.565,-2.201,-34.86,28.84,-0.84
,-7.712,0.775,-0.199,-8.382,0.5,-2.781,-42.91,48.37,0.07
,-7.772,0.694,-0.96,-9.78,-0.644,-2.711,-51.87,65.1,0.7
5928.0,-16.604,-5.214,1.266,-8.588,-0.311,0.369,-66.64,85.33,12.88
,-19.225,-6.679,5.276,-9.756,-3.649,0.373,-22.4,56.7,23.24
,-13.384,-1.563,-0.012,-10.043,-3.592,-0.766,6.23,44.73,9.94
,-8.224,2.111,-0.179,-9.615,-2.458,-1.991,-17.36,45.08,-7.35
6004.0,-10.309,-0.522,-2.575,-8.294,1.527,-5.138,5.95,83.37,19.46
,-9.655,0.96,-3.424,-8.782,0.246,-5.444,13.3,84.0,19.74
,-9.624,2.23,-3.125,-9.399,-0.802,-4.683,6.58,80.36,18.41
,-8.629,2.773,-4.542,-9.835,-0.986,-4.424,-11.83,76.16,15.82
6080.0,-9.773,-0.735,-5.145,-9.677,-0.615,-3.424,-20.23,63.28,8.75
,-9.392,-0.443,-4.736,-9.433,-0.062,-3.544,-19.46,59.08,10.78
,-9.292,-0.955,-3.869,-9.052,0.357,-3.788,-18.34,56.14,13.3
,-9.608,-1.206,-3.611,-9.162,1.125,-3.888,-15.68,53.06,13.86
6156.0,-9.72,1.563,-3.888,-9.603,-1.498,-3.113,-20.86,40.81,8.68
,-9.801,1.309,-3.795,-9.608,-1.077,-2.912,-34.44,36.33,5.95
,-9.404,0.175,-3.484,-9.622,0.203,-2.752,-43.75,33.53,5.11
,-9.246,-0.991,-3.218,-9.753,1.441,-2.812,-38.99,32.62,6.79
6232.0,-9.887,2.288,-2.994,-9.686,0.622,-3.666,11.2,30.24,11.69
,-9.789,2.446,-3.128,-9.543,0.421,-3.812,2.94,28.98,10.29
,-9.619,1.816,-3.25,-9.356,0.208,-3.781,-6.09,27.58,9.1
,-9.524,1.141,-3.463,-9.438,0.002,-3.57,-10.57,25.9,7.63
6308.0,-9.533,0.201,-3.391,-9.524,0.854,-3.077,2.66,19.25,6.44
,-9.643,0.637,-3.357,-9.517,0.632,-3.144,5.25,18.34,6.44
,-9.634,1.139,-3.281,-9.538,0.598,-3.051,4.34,17.36,6.3
,-9.414,1.177,-3.242,-9.505,0.62,-3.056,0.91,16.66,6.09
6384.0,-9.44,0.467,-2.96,-9.478,0.378,-2.613,2.73,14.14,5.11
,-9.409,0.567,-2.879,-9.464,0.357,-2.508,2.1,13.86,4.76
,-9.38,0.534,-2.766,-9.524,0.385,-2.458,0.35,14.07,4.41
,-9.402,0.498,-2.673,-9.395,0.471,-2.446,-0.98,14.49,3.99
6460.0,-9.464,0.397,-2.486,-9.572,0.098,-2.69,-2.38,17.57,3.36
,-9.428,0.486,-2.556,-9.517,0.122,-2.747,-3.01,18.2,3.43
,-9.447,0.294,-2.601,-9.361,0.335,-2.733,-3.99,19.32,3.5
,-9.514,0.089,-2.625,-9.275,0.608,-2.74,-3.78,20.58,3.71
6536.0,-9.387,0.713,-2.733,-9.284,0.694,-2.721,1.26,24.36,2.94
,-9.268,0.648,-2.599,-9.261,0.761,-2.769,-0.56,25.06,2.59
,-9.316,0.469,-2.577,-9.246,0.471,-2.754,0.07,26.18,2.45
,-9.27,0.567,-2.563,-9.198,0.297,-2.654,1.89,27.37,2.31
6612.0,-9.268,0.517,-2.726,-9.04,0.206,-3.443,4.62,32.48,1.05
,-9.222,0.44,-2.793,-9.232,0.457,-3.687,2.45,33.46,0.56
,-9.251,0.345,-3.015,-9.107,0.842,-4.063,1.61,34.58,0.49
,-9.244,0.184,-3.223,-9.076,0.507,-4.312,1.96,35.49,0.28
6688.0,-8.959,0.38,-4.558,-9.062,0.639,-4.69,-0.77,35.56,-0.42
,-8.921,0.474,-4.728,-9.129,0.739,-4.683,0.07,35.21,-0.21
,-8.916,0.316,-4.69,-9.201,0.854,-4.59,1.19,35.0,0.0
,-8.981,0.34,-4.676,-9.253,0.694,-4.556,3.92,34.51,0.28
6764.0,-9.395,0.754,-4.446,-9.77,0.641,-3.999,14.49,34.72,-0.49
,-9.344,0.459,-4.245,-9.892,0.433,-3.987,17.5,35.49,-0.63
,-9.366,0.558,-4.147,-10.038,0.33,-4.006,21.42,36.47,-0.63
,-9.557,0.763,-4.022,-10.823,0.122,-4.19,24.43,37.87,-1.19
6840.0,-9.541,0.627,-4.063,-10.151,-1.814,-3.479,32.9,45.01,-1.61
,-10.28,1.158,-3.754,-9.971,-3.206,-3.147,35.98,46.55,-3.15
,-10.79,2.23,-3.824,-10.144,0.309,-3.214,41.09,48.3,-7.91
,-11.012,2.994,-4.037,-10.22,1.184,-3.384,28.21,49.0,-13.37
6916.0,-9.725,-0.373,-3.443,-9.083,-0.972,-3.623,24.99,62.02,-15.89
,-9.399,-1.864,-3.534,-9.093,-0.153,-3.855,19.95,64.4,-17.01
,-9.229,-1.883,-3.542,-9.083,0.254,-3.888,22.96,66.99,-16.31
,-9.194,-1.316,-3.654,-9.05,0.01,-3.879,26.53,69.16,-15.96
6992.0,-9.136,-0.495,-3.735,-9.33,-0.895,-3.022,15.68,78.26,-17.57
,-9.306,-0.684,-3.711,-9.268,-0.914,-3.039,17.85,80.43,-15.61
,-9.418,-0.84,-3.589,-9.009,-1.158,-2.924,21.07,82.95,-13.09
,-9.34,-1.022,-3.168,-8.89,-1.395,-3.266,25.27,86.45,-9.38
7068.0,-8.904,-1.701,-3.592,-8.155,-1.184,-5.453,55.37,101.85,12.88
,-8.717,-2.125,-3.941,-8.052,-0.5,-6.327,63.49,104.65,18.41
,-8.732,-2.19,-4.176,-8.246,-0.165,-6.954,73.92,106.89,23.45
,-8.48,-2.022,-4.743,-8.638,0.208,-7.231,83.44,108.15,26.95
7144.0,-9.141,0.433,-7.758,-7.602,0.586,-9.122,76.3,115.15,18.13
,-9.098,0.581,-8.258,-7.2,0.246,-9.136,69.02,114.1,15.05
,-8.512,0.881,-8.674,-6.782,-0.093,-8.691,61.25,110.39,13.37
,-8.035,0.749,-8.981,-6.633,-0.486,-8.815,52.43,104.37,13.51
7220.0,-6.214,-1.015,-9.026,-5.882,-2.371,-7.865,11.27,47.11,16.73
,-5.741,-1.481,-8.964,-6.911,-1.486,-7.437,6.37,33.04,19.53
,-4.965,-2.151,-9.215,-6.64,-0.672,-7.394,7.07,22.12,23.94
,-4.678,-2.747,-9.375,-6.281,-0.522,-7.767,15.61,17.08,28.63
7296.0,-5.901,-0.787,-8.117,-5.42,-2.266,-7.818,13.16,-56.28,29.89
,-5.796,-1.168,-7.961,-5.652,-2.517,-7.578,6.79,-67.41,31.15
,-5.568,-1.503,-8.177,-5.901,-2.326,-7.619,2.66,-78.89,33.04
,-5.461,-1.859,-7.913,-5.683,-2.352,-7.858,-0.84,-90.09,34.86
7372.0,-5.425,-2.52,-8.066,-6.487,-2.419,-7.389,-9.73,-142.8,42.35
,-5.578,-2.592,-8.15,-6.834,-2.273,-7.495,-8.68,-148.19,45.08
,-5.776,-2.694,-7.789,-6.875,-2.338,-7.813,-7.0,-152.6,47.25
,-6.243,-2.544,-7.6,-6.932,-2.295,-7.554,-5.04,-158.62,48.79
7448.0,-6.863,-2.115,-7.416,-7.552,-0.983,-7.502,-3.43,-187.81,49.7
,-7.033,-1.835,-7.337,-7.375,-0.857,-7.294,-2.87,-190.26,47.18
,-7.313,-1.484,-7.346,-7.341,-0.993,-7.052,-3.99,-192.64,44.31
,-7.619,-1.486,-7.241,-7.31,-1.091,-6.956,-7.35,-195.23,41.23
7524.0,-7.526,-1.302,-6.772,-8.33,-1.295,-5.867,-31.71,-204.33,24.43
,-7.681,-1.445,-6.767,-8.361,-1.153,-5.516,-33.25,-206.22,20.86
,-7.844,-1.486,-6.537,-8.622,-1.129,-4.989,-33.11,-207.83,17.5
,-8.002,-1.395,-6.253,-8.976,-1.213,-4.274,-32.2,-209.16,14.42
7600.0,-9.198,-1.027,-3.702,-8.705,-0.639,-0.522,-29.33,-199.85,4.62
,-9.311,-0.988,-3.12,-8.904,-0.325,-0.773,-29.33,-194.04,3.29
,-9.299,-0.763,-2.326,-8.904,-0.134,-1.519,-29.75,-186.9,2.24
,-9.091,-0.696,-1.421,-8.299,-0.287,0.96,-31.36,-177.38,1.33
7676.0,-8.464,-0.627,0.991,-7.693,0.11,1.816,-15.89,-105.35,-3.36
,-8.009,-0.596,1.448,-7.624,0.177,1.668,-11.76,-87.43,-3.22
,-7.861,-0.424,1.575,-7.913,0.232,1.256,-8.82,-68.6,-0.84
,-7.815,-0.246,1.85,-8.133,0.479,0.68,-10.71,-49.56,1.47
7752.0,-8.21,0.694,0.034,-9.457,-0.718,-2.429,-38.78,46.2,5.11
,-8.138,0.756,-0.467,-18.028,-5.788,-1.05,-48.72,60.97,4.34
,-8.088,0.601,-1.211,-20.658,-7.332,5.532,-58.73,73.92,3.64
,-8.313,0.134,-1.807,-12.883,-0.512,0.223,-66.85,84.98,3.64
7828.0,-7.588,4.142,0.297,-10.103,-4.111,0.967,-13.16,25.2,-12.18
,-8.729,-0.974,0.974,-11.139,-2.651,0.151,-75.6,28.42,-7.77
,-9.474,-6.801,1.129,-11.673,-0.548,-1.35,-77.49,41.02,5.95
,-9.737,-5.863,1.292,-10.498,1.546,-2.761,-29.47,57.12,12.04
7904.0,-8.737,3.025,-3.34,-9.509,-0.785,-3.951,24.5,77.91,14.0
,-8.16,3.218,-3.915,-9.579,-0.682,-3.649,5.6,77.56,13.02
,-8.988,2.123,-4.343,-9.306,0.395,-3.766,-8.75,78.47,12.6
,-9.619,0.476,-4.738,-9.344,0.05,-3.601,-14.28,75.67,10.71
7980.0,-9.44,-0.859,-3.027,-9.737,1.644,-2.867,-0.77,55.37,12.25
,-9.679,-1.036,-2.891,-9.809,2.132,-2.855,6.51,52.99,12.81
,-9.56,-0.275,-2.912,-9.799,1.845,-2.663,13.37,50.26,12.25
,-9.296,0.847,-2.953,-9.615,1.436,-2.862,17.01,48.3,11.2
8056.0,-9.497,0.948,-2.747,-9.718,-0.211,-1.972,-36.54,33.95,1.4
,-9.517,0.443,-2.812,-9.828,0.187,-2.051,-38.36,31.92,1.61
,-9.332,-0.05,-2.582,-9.852,0.725,-2.103,-38.5,30.17,2.66
,-9.555,-0.278,-2.182,-9.686,1.175,-2.17,-34.44,28.84,4.13
8132.0,-9.792,1.496,-2.154,-9.564,0.462,-2.544,-20.86,27.44,5.25
,-9.742,1.637,-2.388,-9.696,0.371,-2.596,-25.62,25.9,4.62
,-9.387,1.23,-2.517,-9.859,0.165,-2.654,-27.65,25.48,5.11
,-9.483,0.656,-2.594,-9.643,0.235,-2.759,-25.97,25.69,6.02
8208.0,-9.505,0.175,-2.821,-9.703,-0.134,-2.647,-10.15,24.57,7.0
,-9.49,-0.069,-2.941,-9.457,0.33,-2.513,-8.68,24.29,7.49
,-9.445,-0.419,-2.943,-9.543,0.507,-2.484,-5.95,24.22,8.05
,-9.576,-0.512,-2.802,-9.646,0.696,-2.783,0.63,24.71,8.47
8284.0,-9.464,0.653,-3.065,-9.445,0.689,-3.07,13.3,24.36,8.4
,-9.249,0.572,-3.281,-9.643,1.244,-2.91,12.6,23.59,8.75
,-9.196,0.077,-3.398,-9.564,1.656,-3.005,12.81,23.03,9.31
,-9.256,0.105,-3.235,-9.428,1.316,-3.037,16.31,22.68,10.08
8360.0,-9.395,0.648,-3.068,-9.543,0.981,-3.001,-2.59,18.48,6.16
,-9.153,0.416,-3.003,-9.495,0.763,-2.967,-1.75,18.13,6.65
,-9.311,0.534,-2.972,-9.335,0.349,-3.068,1.89,18.2,7.42
,-9.483,0.842,-2.97,-9.299,0.007,-3.044,3.57,17.92,7.42
8436.0,-9.351,0.12,-3.094,-9.313,0.689,-2.699,-2.66,17.85,5.95
,-9.378,0.455,-3.041,-9.313,0.787,-2.62,0.07,18.27,6.09
,-9.311,0.57,-2.912,-9.277,0.893,-2.582,-0.35,18.55,5.88
,-9.397,0.677,-2.766,-9.292,1.089,-2.608,-0.98,19.04,5.74
8512.0,-9.507,1.163,-2.745,-9.189,0.84,-3.64,1.96,22.61,5.25
,-9.34,0.948,-2.996,-9.083,0.852,-3.793,-0.14,22.89,5.04
,-9.225,0.531,-3.084,-9.162,0.727,-3.908,-0.91,23.31,5.18
,-9.234,0.574,-3.36,-9.239,0.72,-4.085,0.7,23.52,4.97
8588.0,-9.093,0.56,-4.326,-9.1,0.771,-4.195,-0.56,21.42,3.78
,-8.871,0.45,-4.384,-9.256,0.744,-4.209,1.68,21.0,4.69
,-9.057,0.522,-4.386,-9.153,0.797,-4.188,4.48,20.3,5.32
,-9.06,0.644,-4.29,-8.949,0.809,-4.331,6.79,19.67,5.46
8664.0,-8.878,0.763,-4.209,-9.184,0.847,-3.86,12.18,17.22,6.51
,-9.009,0.665,-4.164,-9.148,0.629,-3.869,12.53,17.01,6.65
,-9.048,0.723,-4.015,-9.012,0.579,-3.946,13.37,17.15,6.58
,-9.165,0.816,-3.963,-9.186,0.512,-3.745,14.14,17.08,6.37
8740.0,-9.251,0.536,-3.623,-9.048,0.555,-3.903,25.62,19.88,7.42
,-9.289,0.603,-3.475,-8.926,-0.129,-4.097,28.91,20.79,7.7
,-9.349,0.692,-3.448,-9.055,-0.12,-4.317,31.36,21.63,7.84
,-9.217,0.888,-3.683,-9.064,0.321,-4.532,32.27,21.98,7.91
8816.0,-9.122,0.459,-4.848,-9.509,0.483,-5.322,46.13,24.85,11.83
,-9.045,0.227,-5.08,-9.354,1.553,-5.307,49.07,25.34,12.74
,-9.0,-0.101,-5.274,-9.452,1.51,-4.946,54.6,26.18,14.14
,-9.064,-0.246,-5.437,-9.38,1.022,-4.585,62.79,26.95,15.75
8892.0,-9.541,0.766,-4.19,-10.297,1.957,-3.575,73.71,27.37,16.03
,-9.691,0.665,-4.08,-9.588,-0.878,-3.422,78.68,28.98,16.24
,-10.388,0.12,-4.156,-9.222,0.677,-3.824,81.13,31.43,17.01
,-9.438,2.335,-3.673,-9.521,-0.005,-4.235,91.49,33.81,24.5
8968.0,-9.395,-0.931,-4.609,-8.098,-0.007,-6.19,94.57,40.39,20.58
,-8.837,-0.787,-5.197,-7.825,0.053,-6.301,95.69,39.41,19.46
,-8.452,-0.771,-5.753,-7.648,-0.007,-6.269,94.36,38.15,18.27
,-8.303,-0.445,-6.023,-7.55,0.012,-6.167,92.82,37.03,17.29
9044.0,-7.48,0.134,-6.04,-7.753,0.211,-6.167,86.45,31.29,16.52
,-7.581,0.129,-5.961,-7.851,0.311,-6.107,86.66,30.45,17.29
,-7.619,0.251,-5.994,-7.911,0.541,-6.147,87.22,29.68,18.06
,-7.746,0.299,-6.147,-8.078,0.378,-6.253,87.78,28.63,18.41
9120.0,-8.031,0.129,-6.234,-7.49,-0.763,-6.368,79.8,25.41,20.02
,-7.913,-0.285,-6.26,-7.442,-0.838,-6.463,79.17,24.64,21.21
,-7.643,-0.586,-6.372,-7.394,-1.082,-6.425,80.92,24.15,22.47
,-7.526,-0.794,-6.293,-7.277,-1.216,-6.401,83.86,23.87,23.73
9196.0,-7.296,-1.311,-6.442,-7.207,-1.479,-6.901,97.02,24.92,33.88
,-7.435,-1.531,-6.64,-7.188,-1.395,-6.849,102.76,25.06,36.54
,-7.368,-1.457,-6.676,-7.16,-1.309,-6.801,109.27,24.71,39.41
,-7.286,-1.417,-6.894,-7.152,-1.266,-6.731,114.03,24.01,42.14
9272.0,-7.193,-1.216,-6.564,-7.485,-0.952,-6.123,129.43,21.42,52.64
,-7.215,-1.113,-6.339,-7.519,-0.981,-6.174,129.29,21.28,54.04
,-7.267,-1.098,-6.14,-7.605,-1.103,-6.152,128.45,21.21,55.3
,-7.353,-1.012,-6.073,-7.554,-1.273,-6.176,127.68,21.49,56.28
9348.0,-7.478,-1.35,-6.147,-7.65,-1.9,-6.557,118.93,17.43,55.51
,-7.365,-1.431,-6.344,-7.808,-2.082,-6.482,117.6,15.82,54.88
,-7.344,-1.512,-6.32,-7.904,-2.149,-6.293,116.41,14.42,54.39
,-7.442,-1.735,-6.391,-7.904,-2.163,-6.097,115.64,13.3,53.83
9424.0,-7.863,-2.161,-6.013,-8.066,-2.175,-5.664,118.44,6.93,54.25
,-7.808,-2.192,-5.81,-8.062,-2.154,-5.504,118.44,6.3,55.02
,-7.999,-2.182,-5.733,-8.033,-2.166,-5.307,118.72,5.46,55.93
,-8.014,-2.209,-5.674,-8.131,-2.12,-5.083,119.0,4.9,56.7
9500.0,-8.193,-1.974,-5.032,-8.098,-2.125,-4.989,125.16,6.02,62.79
,-8.165,-1.878,-5.03,-8.026,-2.331,-4.865,124.67,6.44,63.98
,-8.148,-1.895,-5.02,-8.033,-2.441,-4.824,124.32,7.21,65.45
,-8.153,-1.984,-4.996,-8.169,-2.271,-4.884,124.39,8.12,67.13
9576.0,-8.263,-2.027,-5.051,-7.803,-1.833,-4.532,141.82,11.76,77.21
,-8.2,-1.914,-4.896,-7.844,-2.029,-4.724,143.15,12.25,79.24
,-8.04,-1.895,-4.525,-7.98,-1.969,-5.025,143.01,13.02,81.62
,-7.906,-1.833,-4.391,-8.086,-1.881,-5.106,142.1,13.58,84.07
9652.0,-8.064,-1.687,-5.032,-8.045,-1.39,-4.905,140.98,12.6,95.34
,-7.992,-1.627,-4.858,-8.296,-1.759,-5.061,140.56,11.83,96.81
,-7.854,-1.517,-4.759,-8.43,-1.871,-5.123,140.07,11.13,97.65
,-7.882,-1.424,-4.805,-8.397,-1.831,-5.016,139.79,10.43,98.21
9728.0,-8.39,-1.632,-4.874,-8.686,-1.117,-4.487,141.75,3.15,103.67
,-8.399,-1.474,-4.7,-8.708,-1.027,-4.362,143.29,1.68,104.51
,-8.411,-1.383,-4.501,-8.686,-0.897,-4.173,144.97,0.63,104.86
,-8.607,-1.256,-4.535,-8.756,-0.744,-4.006,146.23,-0.7,104.51
9804.0,-8.942,-0.627,-4.003,-9.44,-0.311,-3.47,145.11,-7.35,97.79
,-9.249,-0.531,-3.953,-9.569,-0.316,-3.372,141.19,-9.31,95.06
,-9.356,-0.457,-3.891,-9.655,-0.514,-3.262,136.22,-10.99,92.61
,-9.438,-0.318,-3.656,-9.679,-0.524,-3.099,131.04,-12.46,90.09
9880.0,-9.624,-0.778,-2.848,-9.844,-1.24,-2.675,96.11,-16.73,71.54
,-9.591,-1.06,-2.594,-9.866,-1.261,-2.642,90.72,-15.96,67.48
,-9.639,-1.132,-2.484,-9.902,-1.347,-2.513,87.36,-15.19,63.35
,-9.72,-1.17,-2.635,-9.919,-1.204,-2.414,83.16,-14.28,59.29
9956.0,-9.976,-0.974,-2.398,-9.639,-0.962,-2.233,65.03,-9.52,46.76
,-10.0,-0.866,-2.369,-9.474,-1.11,-2.302,60.34,-9.03,43.96
,-9.899,-0.744,-2.34,-9.416,-1.031,-2.357,55.37,-8.61,40.81
,-9.763,-0.696,-2.297,-9.318,-0.909,-2.407,49.98,-7.63,37.38
10032.0,-9.349,-0.818,-2.517,-9.06,-0.51,-2.9,28.91,-1.26,20.65
,-9.282,-0.725,-2.522,-9.069,-0.357,-2.962,23.03,-0.14,17.29
,-9.141,-0.675,-2.67,-9.134,-0.28,-3.039,15.96,0.49,13.86
,-9.074,-0.687,-2.816,-9.134,-0.318,-3.015,9.38,1.05,11.06
10108.0,-9.095,-0.503,-2.936,-9.71,0.005,-3.099,-1.12,3.15,5.95
,-9.318,-0.574,-3.089,-9.672,0.237,-2.9,2.31,3.57,6.72
,-9.612,-0.66,-3.24,-9.588,0.421,-3.075,6.58,3.85,8.47
,-9.732,-0.457,-3.116,-9.629,0.294,-3.293,12.88,4.48,10.85
10184.0,-9.471,0.034,-3.214,-9.229,-0.751,-2.659,6.58,4.06,11.48
,-9.44,-0.153,-3.07,-9.273,-0.634,-2.448,1.68,3.92,10.99
,-9.351,-0.412,-2.953,-9.423,-0.519,-2.352,-1.82,3.99,10.5
,-9.287,-0.725,-2.809,-9.579,-0.273,-2.441,-2.66,4.76,10.5
10260.0,-9.651,0.263,-2.563,-9.299,-0.304,-2.812,7.63,9.8,13.09
,-9.569,0.168,-2.63,-9.457,-0.105,-2.874,5.18,10.64,12.88
,-9.49,0.036,-2.678,-9.426,0.151,-2.907,3.29,11.48,12.95
,-9.323,-0.297,-2.848,-9.359,0.323,-3.075,1.33,12.32,12.81
10336.0,-9.418,0.144,-3.183,-9.225,0.223,-3.659,-3.64,14.7,12.46
,-9.407,-0.103,-3.381,-9.265,0.842,-3.812,-3.92,14.63,12.6
,-9.296,-0.182,-3.553,-9.404,0.883,-3.85,-1.4,14.84,13.37
,-9.265,-0.136,-3.635,-9.39,0.629,-3.886,3.01,14.98,14.21
10412.0,-9.16,0.357,-3.915,-9.153,0.945,-4.257,-2.45,12.74,14.42
,-9.258,0.261,-4.013,-9.117,0.452,-4.164,0.42,12.25,14.98
,-9.296,0.598,-4.204,-9.119,0.309,-4.106,3.64,11.2,14.98
,-9.296,0.988,-4.195,-9.127,0.127,-4.252,4.13,10.43,14.63
10488.0,-8.99,-0.086,-4.188,-9.045,0.409,-4.051,-6.16,5.67,12.95
,-9.107,-0.179,-4.156,-9.11,0.38,-3.999,-3.71,5.53,13.44
,-9.16,0.151,-4.185,-9.055,0.318,-3.766,-0.21,4.97,13.72
,-9.11,0.376,-4.238,-9.186,0.668,-3.568,0.84,4.55,13.72
10564.0,-9.5,1.237,-3.451,-9.306,1.117,-3.324,-1.19,2.38,12.39
,-9.306,1.795,-3.388,-9.447,1.225,-3.508,-4.34,2.17,11.34
,-9.287,1.661,-3.364,-9.261,1.28,-3.656,-7.7,2.31,10.43
,-9.22,1.374,-3.352,-9.241,1.019,-3.757,-8.75,3.01,9.66
10640.0,-9.222,0.653,-3.924,-9.17,0.546,-4.24,0.28,5.39,7.07
,-9.208,0.433,-4.018,-9.052,0.443,-4.259,3.01,5.6,7.07
,-9.153,0.438,-4.121,-9.057,0.325,-4.137,6.58,5.53,7.0
,-9.014,0.553,-4.116,-9.11,0.409,-3.979,9.8,5.81,7.21
10716.0,-9.16,1.086,-3.944,-9.076,1.261,-3.513,22.75,5.32,8.89
,-9.1,1.33,-3.838,-9.048,1.201,-3.431,19.81,4.83,8.61
,-9.349,1.524,-3.69,-9.11,0.715,-3.273,14.7,3.57,7.7
,-9.081,1.625,-3.609,-9.17,0.809,-3.266,9.45,2.94,6.79
10792.0,-9.174,0.737,-3.245,-9.091,0.337,-3.532,4.62,5.46,5.46
,-9.198,0.747,-3.329,-9.105,0.163,-3.484,4.34,6.37,5.32
,-9.265,0.771,-3.419,-9.062,0.419,-3.475,4.34,7.28,5.18
,-9.17,0.663,-3.513,-9.119,0.675,-3.396,4.34,8.19,5.18
10868.0,-9.112,0.641,-3.221,-9.091,-0.06,-2.8,15.82,13.23,7.21
,-9.076,0.696,-3.151,-9.052,-0.196,-2.759,16.17,14.56,7.35
,-9.143,0.553,-2.907,-9.349,0.39,-2.831,17.78,16.17,7.77
,-8.973,0.371,-2.922,-8.997,1.464,-3.02,20.44,18.55,8.19
10944.0,-9.148,1.491,-3.3,-8.765,0.988,-4.465,19.04,25.27,7.98
,-8.847,1.041,-3.654,-8.796,0.945,-4.709,12.25,25.69,7.35
,-8.83,0.668,-3.833,-8.849,0.732,-4.767,10.85,26.18,7.28
,-8.844,0.739,-4.178,-9.074,0.768,-4.843,13.02,26.6,7.56
11020.0,-9.136,0.833,-5.013,-8.693,0.912,-5.355,10.64,24.99,6.65
,-8.993,0.675,-5.157,-8.739,0.928,-5.267,9.8,24.43,6.16
,-8.787,0.567,-5.303,-8.753,0.957,-5.178,9.73,23.87,5.95
,-8.662,0.715,-5.336,-8.811,1.113,-5.02,10.85,23.38,6.09
11096.0,-8.839,1.24,-4.882,-9.052,0.711,-4.654,16.31,21.0,6.72
,-8.906,1.369,-4.882,-9.265,0.964,-4.661,17.15,21.07,6.72
,-8.918,1.182,-4.893,-9.316,0.711,-4.757,16.94,21.14,6.58
,-8.964,0.72,-4.755,-9.232,0.555,-4.752,17.29,21.42,6.51
11172.0,-9.471,0.579,-4.846,-9.483,0.823,-4.417,24.15,24.71,5.95
,-8.483,0.61,-4.743,-9.387,1.335,-4.475,25.13,27.23,5.88
,-10.435,0.074,-4.468,-9.797,1.814,-4.2,29.68,27.09,6.79
,-8.938,0.632,-4.551,-10.242,2.986,-4.441,30.17,27.37,6.3
11248.0,-9.806,0.842,-4.661,-9.048,0.742,-4.755,13.44,32.97,-4.48
,-9.296,-1.455,-4.669,-8.813,0.22,-4.81,13.16,34.44,-3.29
,-9.292,-0.495,-4.733,-8.856,0.012,-4.87,23.8,35.56,-1.12
,-9.397,0.833,-4.762,-8.856,0.081,-4.958,28.49,36.89,-1.4
11324.0,-8.787,0.122,-5.039,-8.437,0.962,-4.597,16.66,41.16,-9.66
,-8.612,0.325,-5.03,-8.536,0.962,-4.472,17.85,42.0,-9.73
,-8.533,0.672,-4.917,-8.579,0.754,-4.346,18.34,42.98,-9.59
,-8.416,0.902,-4.748,-8.679,0.591,-4.145,18.34,44.03,-9.45
11400.0,-8.78,0.481,-3.941,-9.385,-1.304,-3.132,24.36,52.99,-6.65
,-9.019,0.199,-3.812,-9.545,-1.168,-2.895,26.81,55.86,-5.39
,-9.105,-0.39,-3.642,-9.742,-0.986,-2.57,29.12,59.01,-3.92
,-9.182,-1.0,-3.427,-9.727,-1.079,-2.522,32.62,62.79,-1.61
11476.0,-9.842,-1.627,-2.326,-10.376,-2.146,-2.726,50.19,84.49,13.16
,-10.019,-2.194,-2.178,-10.062,-2.254,-3.46,57.33,90.09,18.2
,-10.129,-2.209,-2.326,-9.691,-2.481,-4.386,66.57,95.76,24.01
,-10.287,-2.304,-2.491,-9.265,-2.807,-5.255,76.44,101.5,31.22
11552.0,-9.036,-2.51,-6.188,-8.701,0.61,-9.356,124.81,108.71,53.97
,-8.772,-1.06,-7.179,-8.557,0.232,-9.232,134.75,107.24,53.34
,-8.545,0.534,-8.906,-8.547,-0.091,-9.414,127.61,105.49,49.49
,-8.519,0.83,-9.45,-7.913,0.168,-9.124,109.06,105.0,47.25
11628.0,-7.373,0.713,-8.978,-5.365,-1.938,-9.586,79.38,83.58,37.94
,-6.975,0.888,-9.385,-5.353,-2.766,-8.6,59.5,70.56,35.7
,-6.2,0.404,-9.45,-6.107,-2.816,-8.122,38.57,58.59,36.54
,-5.726,-0.641,-9.612,-6.566,-2.276,-7.724,23.87,49.28,40.81
11704.0,-6.645,-1.488,-7.423,-4.865,-1.567,-7.964,46.06,-17.15,52.08
,-5.867,-1.117,-7.468,-4.738,-1.933,-8.016,39.06,-36.19,49.35
,-5.568,-1.074,-7.643,-4.659,-2.477,-7.791,29.05,-54.25,45.99
,-5.039,-1.101,-7.851,-4.702,-2.962,-7.705,18.76,-68.74,44.38
11780.0,-5.185,-3.139,-7.547,-5.516,-2.201,-7.897,8.26,-126.49,49.14
,-5.135,-2.941,-7.751,-5.597,-2.027,-7.72,11.83,-137.13,49.56
,-4.838,-2.845,-7.803,-5.896,-2.053,-7.621,14.63,-144.34,51.94
,-5.26,-2.632,-7.705,-6.176,-2.326,-7.688,16.45,-150.29,54.81
11856.0,-6.284,-2.565,-7.679,-7.14,-0.936,-7.167,11.62,-182.84,64.68
,-6.413,-2.405,-7.387,-7.198,-0.759,-7.219,17.71,-186.55,64.61
,-6.779,-1.965,-7.085,-7.184,-0.541,-7.329,22.68,-189.7,63.07
,-6.966,-1.369,-7.006,-7.093,-0.385,-7.267,23.73,-193.41,60.48
11932.0,-7.456,-0.424,-6.937,-7.731,-1.297,-6.102,-3.85,-203.56,43.61
,-7.643,-0.474,-6.822,-8.193,-1.414,-5.511,-9.66,-206.22,39.13
,-7.731,-0.763,-6.595,-8.579,-1.144,-5.123,-16.45,-209.44,34.72
,-7.626,-1.103,-6.289,-8.813,-0.89,-4.621,-21.49,-211.68,30.59
12008.0,-9.249,-0.787,-3.908,-9.722,-0.163,-0.881,-16.73,-206.99,12.53
,-9.435,-0.737,-2.666,-9.806,-0.273,-0.72,-16.94,-202.09,8.12
,-9.572,-0.438,-2.096,-9.464,-0.725,-0.302,-18.55,-195.58,2.87
,-9.684,-0.179,-1.725,-9.299,-1.275,-0.598,-22.89,-187.53,-3.01
12084.0,-8.44,-1.481,0.342,-8.251,-0.634,1.804,-46.97,-124.88,-13.16
,-8.504,-1.632,1.232,-8.138,-0.684,1.85,-38.85,-108.71,-11.9
,-8.428,-1.122,1.431,-8.088,-0.787,1.603,-32.13,-92.05,-12.25
,-8.277,-0.811,1.625,-8.26,-0.55,1.161,-28.21,-74.34,-12.46
12160.0,-8.457,-0.292,0.625,-8.421,0.459,-1.517,-32.06,18.48,-4.97
,-8.44,0.134,0.031,-8.569,0.61,-2.065,-36.54,34.37,-3.29
,-8.428,0.373,-0.517,-9.294,0.179,-2.546,-42.77,48.65,-2.17
,-8.449,0.443,-0.993,-13.003,-2.388,-1.706,-48.3,61.25,-1.82
12236.0,-17.985,-6.652,4.508,-9.667,-4.121,1.022,-29.12,63.63,16.8
,-15.413,-2.644,1.402,-9.722,-4.575,1.012,18.48,44.17,19.53
,-9.529,1.728,-0.754,-9.959,-2.314,1.06,13.23,38.85,0.77
,-8.275,-0.235,0.199,-11.211,0.345,0.28,-27.16,40.88,-4.69
12312.0,-11.225,2.271,-1.359,-8.93,1.548,-3.295,12.25,74.48,18.55
,-9.797,2.273,-1.761,-9.426,1.464,-3.659,-0.56,77.98,15.19
,-8.911,1.857,-2.728,-9.493,0.79,-3.9,-15.61,76.23,10.64
,-8.425,1.594,-3.082,-9.349,-0.507,-3.795,-32.55,74.13,8.05
12388.0,-9.337,-1.318,-3.618,-9.859,-0.785,-3.029,-46.9,60.55,5.88
,-9.442,-1.235,-3.661,-9.497,-0.371,-3.041,-33.11,59.22,8.96
,-9.639,-0.826,-3.508,-9.256,0.445,-3.044,-19.39,57.75,11.2
,-9.849,-1.027,-3.089,-9.237,1.208,-3.218,-9.66,56.7,12.11
12464.0,-9.5,1.656,-3.128,-9.418,-0.524,-2.68,-8.68,46.27,6.86
,-9.703,1.606,-2.919,-9.689,-0.206,-2.666,-23.87,43.12,4.48
,-9.536,1.524,-2.735,-9.428,0.586,-2.766,-40.53,40.11,1.61
,-9.268,0.622,-2.764,-9.524,0.553,-2.685,-52.78,37.87,0.28
12540.0,-9.753,0.881,-2.541,-9.261,0.146,-3.374,-19.53,34.37,7.28
,-9.78,1.225,-2.85,-9.308,-0.091,-3.408,-15.54,33.32,7.42
,-9.634,1.402,-3.29,-9.536,0.139,-3.458,-15.75,31.57,6.72
,-9.454,1.139,-3.391,-9.624,0.615,-3.613,-19.32,30.66,6.65
12616.0,-9.392,0.629,-3.659,-9.354,0.428,-3.752,-14.7,27.51,5.04
,-9.404,0.498,-3.666,-9.349,0.321,-3.728,-14.63,26.18,5.11
,-9.371,0.148,-3.754,-9.344,0.101,-3.575,-11.76,25.06,5.39
,-9.323,0.352,-3.829,-9.354,-0.199,-3.374,-7.91,23.8,5.53
12692.0,-9.746,-0.246,-3.273,-9.442,1.017,-3.223,4.55,21.21,6.3
,-9.579,0.268,-3.197,-9.459,0.885,-3.252,7.21,20.86,6.37
,-9.474,0.627,-3.348,-9.459,0.646,-3.106,7.0,20.3,6.09
,-9.466,0.849,-3.259,-9.418,0.376,-3.089,5.11,19.88,5.74
12768.0,-9.454,0.433,-3.075,-9.15,-0.091,-2.994,0.14,20.44,4.27
,-9.442,0.467,-3.039,-9.148,-0.05,-2.838,0.98,20.51,4.06
,-9.397,0.51,-3.173,-9.354,0.428,-2.584,0.49,20.72,3.85
,-9.22,0.223,-3.125,-9.533,0.852,-2.312,0.35,21.28,4.2
12844.0,-9.392,1.022,-2.268,-9.246,0.302,-2.536,2.8,25.62,3.29
,-9.356,0.826,-2.225,-9.22,0.474,-2.673,0.63,26.74,3.15
,-9.328,0.598,-2.261,-9.057,0.357,-2.759,1.05,28.07,3.08
,-9.15,0.165,-2.331,-9.165,0.151,-2.982,3.85,30.03,3.43
12920.0,-9.165,0.254,-3.293,-9.213,0.589,-3.494,9.45,36.61,3.85
,-9.167,0.242,-3.314,-9.158,0.436,-3.477,9.45,37.52,3.78
,-9.115,0.366,-3.384,-9.009,0.251,-3.573,8.82,38.22,3.64
,-9.16,0.546,-3.47,-9.014,0.29,-3.613,8.96,38.92,3.29
12996.0,-9.136,0.519,-3.805,-9.483,0.814,-4.276,10.57,43.61,2.87
,-9.105,0.268,-3.958,-9.663,0.938,-4.441,9.8,44.59,2.8
,-9.143,0.165,-4.061,-9.677,0.742,-4.728,10.64,45.57,2.94
,-9.318,0.354,-4.137,-9.61,0.378,-4.963,12.95,46.55,2.94
13072.0,-9.641,0.184,-5.042,-9.177,0.443,-4.982,14.63,48.65,0.91
,-9.718,0.648,-5.205,-9.801,0.388,-4.901,18.06,49.84,-0.21
,-9.306,0.641,-5.334,-9.507,0.751,-4.69,18.69,50.82,-1.82
,-10.428,0.005,-5.197,-9.725,0.648,-4.491,20.02,49.63,-2.38
13148.0,-10.031,1.237,-4.649,-9.66,-1.335,-3.716,30.94,55.58,-7.91
,-10.921,3.099,-4.535,-9.885,0.266,-3.632,33.81,56.49,-11.41
,-10.696,2.127,-4.513,-9.517,0.354,-3.642,22.75,56.63,-16.45
,-9.818,-1.23,-4.147,-9.15,-0.833,-3.613,15.19,58.87,-16.31
13224.0,-8.856,-1.529,-3.618,-9.366,-0.634,-3.721,30.52,71.12,-12.18
,-9.05,-1.098,-3.695,-9.643,-0.735,-3.661,35.49,73.43,-11.27
,-9.263,-0.246,-3.731,-9.837,-0.342,-3.357,39.27,75.74,-11.41
,-9.337,-0.177,-3.781,-9.825,-0.239,-2.907,38.43,78.19,-12.25
13300.0,-9.866,-0.625,-2.273,-9.555,-0.62,-2.618,48.02,93.8,-2.03
,-9.859,-1.223,-1.881,-8.947,-0.895,-3.072,52.36,98.91,3.57
,-9.756,-1.455,-1.519,-8.641,-1.137,-3.762,60.2,103.88,10.29
,-9.672,-1.287,-1.395,-8.43,-1.015,-4.826,71.19,108.64,17.15
13376.0,-8.143,-0.337,-5.592,-9.129,0.95,-8.471,89.81,113.12,27.23
,-8.241,0.603,-6.748,-9.021,0.838,-8.89,81.06,113.12,24.08
,-8.5,1.046,-7.509,-8.356,0.369,-9.32,67.2,113.19,20.86
,-8.947,0.811,-8.011,-7.672,-0.022,-9.347,51.38,113.54,17.01
13452.0,-7.569,-0.419,-9.495,-5.654,-2.29,-9.459,31.36,89.46,14.42
,-6.805,-0.849,-9.392,-5.422,-2.737,-9.371,25.97,77.84,14.91
,-6.289,-1.182,-9.478,-5.415,-3.13,-9.452,20.09,65.45,15.47
,-5.872,-1.677,-9.49,-5.611,-3.053,-8.311,13.93,53.13,16.52
13528.0,-6.135,-2.728,-7.784,-5.776,-2.522,-7.88,37.45,-1.12,31.29
,-6.274,-2.441,-7.349,-5.781,-2.548,-7.777,36.19,-15.96,31.43
,-6.315,-2.271,-7.387,-5.552,-2.45,-7.899,29.05,-32.55,30.59
,-6.044,-2.333,-7.746,-5.095,-2.319,-7.968,22.68,-49.42,30.94
13604.0,-4.793,-2.316,-8.212,-5.58,-1.756,-8.267,13.65,-111.3,44.94
,-5.135,-2.154,-8.351,-5.389,-1.857,-8.514,12.46,-120.61,45.5
,-5.298,-2.01,-8.354,-5.279,-2.094,-8.516,8.96,-129.64,45.92
,-5.587,-1.898,-8.296,-5.583,-2.324,-8.143,3.5,-137.27,46.2
13680.0,-5.848,-2.431,-8.009,-6.324,-1.237,-7.99,-1.4,-169.26,48.02
,-5.999,-2.288,-7.952,-6.08,-1.005,-8.191,3.57,-175.0,48.16
,-6.317,-2.015,-7.918,-6.248,-0.835,-8.375,7.21,-180.74,48.86
,-6.372,-1.618,-7.944,-6.21,-1.11,-8.129,6.79,-186.76,49.28
13756.0,-6.535,-1.17,-7.514,-7.279,-0.759,-6.784,-10.78,-201.6,44.17
,-6.808,-0.957,-7.42,-7.428,-0.821,-6.647,-12.39,-203.14,41.86
,-6.822,-0.854,-7.205,-7.794,-0.861,-6.344,-16.52,-204.96,39.27
,-7.138,-0.811,-6.93,-7.87,-0.713,-5.87,-21.07,-206.71,36.26
13832.0,-7.901,-0.531,-5.736,-9.363,-0.151,-3.532,-36.12,-212.24,16.1
,-8.445,-0.464,-5.465,-9.15,-0.112,-2.486,-38.57,-210.35,12.04
,-9.024,-0.11,-5.245,-9.572,-0.041,-2.12,-41.65,-207.9,8.61
,-9.311,-0.055,-4.573,-9.653,-0.024,-1.737,-46.97,-204.33,4.97
13908.0,-9.679,-0.065,-1.357,-8.076,-1.077,1.79,-66.5,-162.19,-17.22
,-9.56,0.041,-1.225,-7.808,-1.991,2.345,-72.31,-149.52,-19.11
,-8.629,0.371,-0.373,-7.504,-2.204,2.52,-81.62,-135.24,-21.21
,-8.272,-0.402,0.957,-7.327,-1.902,2.288,-87.85,-117.04,-21.42
13984.0,-7.394,-0.747,1.766,-8.665,0.732,-1.316,-58.8,4.76,-0.77
,-7.851,0.447,0.866,-12.915,-2.13,-1.048,-57.68,27.65,3.01
,-8.212,1.017,0.029,-19.117,-7.495,3.07,-63.28,48.51,5.11
,-8.375,1.235,-0.665,-14.211,-4.451,1.041,-70.42,67.27,6.23
14060.0,-7.392,0.684,-0.077,-10.199,-3.515,0.347,-30.8,52.99,-1.33
,-7.724,-1.074,0.361,-9.639,-1.5,0.105,-60.48,53.27,-2.52
,-10.184,-5.331,0.96,-10.108,-0.208,-1.141,-67.41,56.7,7.14
,-10.708,-6.329,0.931,-9.706,0.445,-2.297,-37.38,65.87,16.03
14136.0,-9.134,1.656,-3.163,-9.677,1.625,-4.185,11.2,91.14,20.86
,-8.093,2.154,-3.979,-9.686,1.847,-4.348,3.22,89.18,22.75
,-8.093,1.977,-4.195,-9.423,2.041,-4.154,-4.2,88.06,23.73
,-9.122,1.668,-4.432,-9.361,1.34,-4.14,-8.89,85.05,21.7
14212.0,-9.471,0.017,-3.944,-9.165,-1.496,-4.192,-38.36,63.84,9.59
,-9.586,-0.864,-3.948,-9.416,-0.713,-4.075,-35.91,60.83,9.52
,-9.208,-1.333,-4.082,-9.531,0.177,-4.109,-30.73,58.45,9.59
,-8.854,-1.742,-4.082,-9.32,0.991,-4.07,-23.59,56.35,9.94
14288.0,-9.414,1.017,-4.03,-9.552,0.581,-2.977,-27.93,42.91,7.14
,-9.531,0.957,-4.03,-9.753,0.593,-2.845,-30.87,39.9,6.37
,-9.593,0.696,-3.685,-9.555,0.792,-2.867,-32.62,37.24,6.02
,-9.471,0.593,-3.183,-9.33,0.44,-2.886,-31.64,34.79,6.09
14364.0,-9.423,0.022,-2.845,-9.579,0.713,-3.609,-15.61,31.71,9.52
,-9.485,0.146,-3.075,-9.584,0.905,-4.02,-10.01,31.71,9.87
,-9.371,0.323,-3.273,-9.512,0.632,-4.255,-6.93,31.78,10.01
,-9.423,0.524,-3.386,-9.505,0.136,-4.456,-4.62,31.64,10.43
14440.0,-9.442,-0.201,-4.678,-9.134,0.373,-3.979,7.63,26.18,9.45
,-9.27,0.053,-4.819,-9.349,0.536,-3.719,14.42,24.92,9.66
,-9.189,0.278,-4.661,-9.462,0.828,-3.585,18.48,23.45,10.57
,-9.225,0.388,-4.439,-9.363,0.902,-3.293,20.44,21.91,10.92
14516.0,-9.359,0.761,-3.116,-9.493,0.727,-3.288,9.17,17.43,8.19
,-9.402,0.684,-2.998,-9.277,0.481,-3.343,9.66,17.5,8.05
,-9.435,0.888,-3.132,-9.194,0.471,-3.396,11.76,17.78,7.84
,-9.514,0.943,-3.266,-9.234,0.51,-3.424,12.95,17.99,7.84
14592.0,-9.366,0.608,-3.376,-9.062,0.651,-3.338,17.29,18.48,7.77
,-9.395,0.902,-3.472,-9.136,0.744,-3.096,16.73,18.48,7.21
,-9.366,0.955,-3.424,-9.392,0.873,-2.953,14.49,18.27,6.3
,-9.186,0.838,-3.362,-9.529,0.713,-2.682,12.53,18.27,5.95
14668.0,-9.529,0.581,-2.544,-9.186,0.775,-2.737,10.43,21.7,4.41
,-9.337,0.78,-2.458,-9.256,0.603,-2.836,12.18,23.38,4.34
,-9.189,0.804,-2.505,-9.15,0.352,-2.903,12.32,24.78,4.13
,-9.148,0.909,-2.582,-9.11,0.421,-3.075,10.78,26.11,3.78
14744.0,-9.155,0.692,-3.343,-8.904,0.526,-4.238,9.1,32.27,2.31
,-9.05,0.61,-3.52,-8.89,0.053,-4.403,6.44,32.97,1.75
,-9.083,0.763,-3.735,-9.033,-0.148,-4.518,3.57,32.97,0.98
,-8.933,0.871,-4.066,-9.122,-0.053,-4.582,-0.42,32.76,0.07
14820.0,-9.263,0.194,-4.58,-9.124,0.108,-4.515,5.74,34.02,0.91
,-9.318,0.66,-4.652,-9.222,0.194,-4.386,6.16,33.88,0.35
,-9.402,0.603,-4.568,-9.308,0.34,-4.372,4.06,33.81,-0.35
,-9.203,0.474,-4.511,-9.351,0.258,-4.302,1.82,33.39,-0.63
14896.0,-9.198,0.323,-4.226,-9.344,0.354,-4.58,13.51,37.8,0.49
,-9.742,0.562,-4.451,-9.378,0.952,-4.654,16.03,39.34,0.28
,-8.856,1.079,-4.525,-9.593,0.498,-4.496,20.09,40.11,2.31
,-9.409,1.0,-4.29,-9.576,0.57,-4.611,22.89,41.3,0.98
14972.0,-9.842,1.311,-4.716,-9.531,-1.546,-3.886,36.12,46.9,-5.04
,-10.61,3.403,-4.858,-9.663,1.144,-3.86,38.01,47.39,-8.47
,-10.426,1.881,-4.776,-9.584,1.249,-3.783,24.08,47.67,-13.02
,-9.536,-1.838,-4.29,-9.141,-0.316,-3.766,18.06,49.7,-12.81
15048.0,-8.911,-1.615,-3.807,-9.095,0.629,-4.099,20.23,59.01,-16.31
,-8.926,-1.529,-3.788,-9.031,0.239,-4.145,25.2,61.53,-15.61
,-8.911,-0.84,-3.735,-9.045,-0.519,-4.07,29.47,63.91,-15.47
,-9.026,0.055,-3.917,-9.103,-0.811,-3.977,29.4,65.59,-16.66
15124.0,-9.196,-0.823,-3.841,-9.354,-1.256,-2.268,15.96,74.55,-18.76
,-9.275,-0.976,-3.513,-9.447,-1.338,-2.144,19.32,77.21,-16.59
,-9.234,-1.055,-3.178,-9.677,-1.457,-1.936,24.22,80.92,-13.65
,-9.306,-1.077,-2.635,-9.866,-1.536,-2.127,29.89,84.63,-10.64
15200.0,-9.799,-1.491,-2.632,-8.787,-0.483,-5.683,57.96,105.42,9.52
,-9.555,-1.445,-2.948,-9.174,-0.237,-7.088,63.77,108.85,13.02
,-9.433,-1.249,-3.994,-9.313,-0.263,-7.514,68.25,111.65,15.96
,-9.241,-1.015,-4.848,-9.682,-0.407,-8.622,70.28,113.75,18.41
15276.0,-9.73,-0.297,-8.973,-7.399,0.735,-9.782,62.3,117.67,13.16
,-9.083,-0.105,-9.423,-6.798,0.445,-9.689,60.13,111.86,13.37
,-8.406,0.141,-9.552,-6.47,-0.364,-9.892,58.38,104.09,13.93
,-7.942,0.517,-9.816,-6.305,-1.304,-9.45,53.9,94.5,14.63
15352.0,-5.731,-1.642,-9.28,-5.908,-1.51,-8.366,15.96,34.51,24.92
,-5.159,-1.811,-9.686,-5.896,-1.027,-8.095,16.87,22.05,29.47
,-4.685,-2.216,-9.442,-5.31,-0.816,-7.978,20.93,13.23,34.23
,-5.229,-1.924,-8.77,-5.142,-0.95,-8.162,30.03,3.78,38.36
15428.0,-4.917,-1.182,-8.196,-4.195,-1.962,-8.019,4.27,-74.55,34.3
,-4.779,-1.431,-8.145,-4.334,-1.855,-8.153,-0.35,-85.82,34.86
,-4.661,-1.529,-8.081,-4.673,-1.697,-8.555,-3.85,-98.49,35.14
,-4.515,-1.816,-7.777,-5.061,-1.752,-8.256,-8.26,-110.81,34.58
15504.0,-5.475,-1.558,-8.186,-5.951,-1.725,-8.184,-19.46,-150.71,26.39
,-5.537,-1.237,-8.133,-5.662,-2.28,-8.27,-22.47,-157.57,26.6
,-5.626,-1.125,-8.066,-5.676,-2.68,-8.114,-29.19,-164.01,26.67
,-5.767,-1.225,-8.011,-5.664,-2.821,-8.016,-36.89,-171.29,26.32
15580.0,-5.894,-2.773,-7.88,-7.186,-1.115,-7.251,-21.56,-198.03,28.0
,-6.516,-2.493,-7.928,-7.487,-0.83,-6.86,-13.58,-201.6,28.42
,-6.674,-2.458,-7.581,-7.81,-0.72,-6.674,-6.37,-204.19,28.98
,-7.021,-1.596,-7.514,-7.863,-0.632,-6.619,0.14,-205.03,29.89
15656.0,-7.964,-0.739,-6.339,-8.849,-1.043,-5.169,-18.13,-206.99,26.11
,-8.2,-0.9,-6.061,-8.863,-0.94,-4.776,-21.98,-205.73,23.94
,-8.402,-0.998,-5.882,-9.06,-0.73,-4.353,-23.17,-204.33,21.14
,-8.495,-1.003,-5.544,-9.074,-0.632,-3.618,-23.31,-202.37,18.48
15732.0,-8.844,-0.498,-2.63,-9.296,1.041,-1.347,-28.91,-181.37,3.92
,-8.567,-0.572,-1.663,-9.148,0.577,-1.295,-30.17,-171.5,-0.07
,-9.014,-0.172,-1.747,-8.691,-0.55,-1.484,-29.47,-161.63,-4.55
,-9.249,0.763,-1.572,-8.05,-1.565,-0.048,-31.15,-152.18,-9.59
15808.0,-8.332,-2.201,0.534,-7.741,-0.522,0.933,-66.29,-84.98,-15.54
,-8.366,-2.056,0.893,-7.629,-0.084,0.603,-53.06,-65.87,-13.16
,-8.208,-1.613,1.029,-7.818,0.129,0.11,-41.65,-45.78,-10.29
,-8.043,-1.036,1.019,-8.055,0.117,-0.476,-34.58,-25.2,-7.14
15884.0,-8.222,0.17,-1.106,-11.524,0.476,0.737,-45.57,67.41,2.24
,-9.612,-0.529,-1.189,-7.593,1.926,0.45,-50.12,78.05,4.2
,-15.961,-4.597,1.302,-9.466,-3.156,1.122,-47.46,70.98,10.36
,-18.021,-5.719,4.542,-10.191,-5.949,1.637,-11.27,52.92,19.95
15960.0,-10.301,-3.893,1.347,-8.177,1.165,-3.396,-11.55,58.87,11.97
,-11.275,0.34,1.311,-8.069,-0.828,-3.687,11.41,70.14,20.79
,-12.687,2.489,-0.227,-8.356,-0.95,-4.202,8.96,80.57,24.29
,-10.971,2.735,-2.412,-8.725,-0.043,-4.089,-3.85,88.34,20.86
16036.0,-9.122,0.294,-4.19,-9.483,-0.44,-3.754,-6.02,75.88,15.82
,-9.244,0.201,-4.329,-9.751,-0.23,-2.821,-5.74,70.98,15.33
,-9.234,0.096,-4.197,-9.868,0.213,-2.501,-3.29,67.06,15.12
,-9.43,-0.199,-4.161,-9.526,0.725,-2.458,0.7,64.33,15.82
16112.0,-9.191,1.005,-2.539,-9.586,0.115,-2.912,-9.17,53.48,8.47
,-9.139,0.811,-2.814,-9.584,0.203,-3.343,-19.81,51.66,7.14
,-9.131,0.28,-2.711,-9.407,0.146,-3.597,-27.72,50.05,7.42
,-9.428,-0.026,-2.505,-9.337,-0.12,-3.613,-27.93,49.0,7.98
16188.0,-9.404,-0.201,-3.542,-9.646,1.804,-3.266,-7.0,40.81,11.27
,-9.529,-0.251,-3.391,-9.476,1.694,-3.345,4.13,40.25,12.32
,-9.682,0.077,-3.264,-9.45,0.799,-3.163,12.39,39.76,12.25
,-9.703,1.019,-3.204,-9.454,0.246,-3.216,14.14,38.29,11.2
16264.0,-9.428,0.282,-3.125,-9.347,1.039,-3.209,-4.9,32.27,7.63
,-9.445,0.768,-3.02,-9.466,0.577,-3.183,2.17,31.99,7.91
,-9.593,1.419,-3.285,-9.562,0.51,-3.364,5.18,31.36,7.49
,-9.459,1.417,-3.3,-9.497,0.57,-3.525,1.96,30.45,6.79
16340.0,-9.519,0.536,-3.632,-9.332,0.637,-4.087,0.35,28.14,5.11
,-9.629,0.34,-3.824,-9.167,0.421,-4.032,1.05,27.37,4.62
,-9.33,0.347,-3.908,-9.107,0.072,-3.905,3.29,26.32,4.62
,-9.375,0.656,-4.087,-9.115,0.048,-3.668,4.9,25.27,4.69
16416.0,-9.32,0.457,-3.63,-9.316,0.254,-3.611,9.45,21.49,5.46
,-9.411,0.849,-3.654,-9.263,0.012,-3.625,9.45,20.72,5.04
,-9.397,0.893,-3.666,-9.217,0.108,-3.606,5.95,20.23,4.48
,-9.344,0.708,-3.654,-9.273,0.481,-3.599,2.52,19.74,3.99
16492.0,-9.251,0.83,-3.747,-9.1,0.857,-3.506,8.4,19.04,4.13
,-9.167,0.811,-3.75,-9.203,0.943,-3.453,6.44,19.04,3.85
,-9.067,0.704,-3.695,-9.342,0.998,-3.52,5.39,18.83,3.78
,-8.976,0.761,-3.587,-9.323,1.007,-3.489,5.25,18.83,3.57
16568.0,-9.313,0.95,-3.606,-9.179,0.857,-3.733,-1.12,18.83,1.05
,-9.074,0.885,-3.623,-9.098,0.361,-3.625,-2.8,18.9,0.63
,-9.0,1.074,-3.668,-8.952,0.124,-3.69,-3.43,19.04,0.42
,-9.05,1.101,-3.75,-8.938,0.163,-3.647,-4.27,19.32,-0.07
16644.0,-9.11,0.754,-3.671,-8.902,-0.153,-3.903,2.03,21.77,-0.14
,-9.033,1.141,-3.869,-9.002,-0.215,-3.812,-1.75,21.49,-1.33
,-8.897,0.785,-3.879,-9.155,0.215,-3.68,-6.93,21.49,-1.89
,-8.94,0.213,-3.912,-9.203,0.309,-3.719,-8.47,21.91,-1.89
16720.0,-9.261,0.208,-3.807,-9.146,0.278,-4.192,4.2,26.25,0.14
,-9.359,0.091,-3.874,-9.15,0.469,-4.161,3.92,27.16,0.0
,-9.335,0.079,-4.001,-9.217,0.605,-4.13,4.76,28.0,-0.28
,-9.34,0.096,-4.089,-9.268,0.596,-4.192,5.81,28.7,-0.49
16796.0,-9.363,0.361,-4.183,-9.986,0.462,-4.188,8.82,32.48,-1.26
,-9.32,0.266,-4.171,-9.514,0.067,-4.243,11.83,33.88,-0.98
,-9.454,0.225,-4.257,-9.136,0.893,-4.228,15.75,35.28,-0.98
,-9.392,0.311,-4.276,-9.423,0.639,-4.408,18.97,36.68,-1.19
16872.0,-9.246,0.89,-4.647,-10.06,2.883,-5.097,24.36,41.58,-3.78
,-9.407,1.072,-4.913,-10.225,2.541,-5.212,21.7,41.65,-5.46
,-9.308,0.498,-4.944,-9.493,-0.584,-4.807,20.93,42.35,-6.51
,-9.442,0.95,-5.063,-9.179,-1.673,-4.396,24.01,42.77,-7.28
16948.0,-9.177,0.081,-4.19,-8.839,-0.957,-4.417,31.64,47.25,-9.73
,-9.213,0.972,-4.185,-8.942,-0.242,-4.537,30.94,48.65,-11.34
,-8.973,0.201,-4.233,-9.024,0.4,-4.561,22.47,49.84,-14.56
,-8.804,-0.78,-4.338,-8.981,0.347,-4.458,17.08,51.17,-16.38
17024.0,-8.88,-0.134,-4.288,-9.222,-0.498,-3.611,10.71,57.4,-22.61
,-8.926,-0.333,-4.073,-9.332,-0.689,-3.429,10.64,59.08,-21.98
,-9.143,-0.179,-3.934,-9.349,-0.838,-2.974,12.67,60.97,-21.21
,-9.256,-0.242,-3.793,-9.407,-0.761,-2.632,14.49,63.42,-20.16
17100.0,-9.507,-0.787,-2.508,-9.708,-2.142,-2.503,34.58,81.41,-8.05
,-9.433,-1.082,-2.517,-9.715,-2.077,-2.761,36.82,85.4,-5.18
,-9.543,-1.558,-2.419,-9.653,-1.79,-3.214,39.62,90.02,-0.91
,-9.6,-1.941,-2.393,-9.548,-1.4,-3.893,44.94,94.92,3.99
17176.0,-9.122,-0.845,-4.846,-9.454,-0.211,-7.906,70.21,110.39,20.09
,-8.964,-0.201,-5.671,-9.407,-0.203,-8.311,65.8,112.07,18.83
,-8.959,-0.031,-6.53,-8.796,0.007,-8.665,57.05,114.03,16.38
,-9.261,-0.062,-7.126,-8.165,0.151,-9.016,47.95,115.71,14.49
17252.0,-7.6,0.022,-9.323,-5.817,-1.555,-9.313,39.06,92.89,14.49
,-7.265,-0.184,-9.572,-5.231,-1.601,-9.591,39.41,82.81,15.68
,-6.693,-0.414,-9.684,-4.212,-1.852,-10.136,36.75,71.4,16.03
,-6.133,-0.964,-9.45,-3.498,-2.235,-9.505,34.79,59.57,16.87
17328.0,-4.599,-2.099,-8.823,-5.413,-0.184,-7.703,52.92,14.49,24.57
,-5.626,-1.158,-8.191,-5.233,-0.842,-7.887,59.64,1.96,25.06
,-6.001,-0.122,-7.858,-4.671,-1.098,-8.277,54.04,-15.4,24.57
,-5.791,0.266,-7.641,-4.568,-1.718,-8.086,38.01,-33.74,23.8
17404.0,-4.692,-2.185,-8.129,-5.382,-2.254,-8.399,-6.3,-98.56,26.25
,-4.611,-2.455,-8.236,-5.363,-2.395,-8.552,-7.28,-108.08,25.97
,-5.102,-2.462,-8.174,-4.982,-2.532,-8.49,-6.93,-117.11,24.71
,-5.427,-2.388,-8.358,-5.458,-2.568,-8.21,-8.19,-126.49,23.66
17480.0,-5.784,-2.536,-8.107,-6.691,-1.809,-8.019,-14.56,-149.31,31.15
,-6.317,-2.477,-7.784,-6.655,-1.828,-8.172,-14.56,-153.58,33.11
,-6.607,-2.297,-7.715,-6.525,-2.036,-8.16,-15.4,-159.32,35.0
,-6.667,-2.06,-7.767,-6.552,-1.984,-7.909,-16.87,-164.57,37.03
17556.0,-6.851,-1.737,-7.624,-7.054,-1.467,-7.602,-15.54,-177.17,37.8
,-7.09,-1.426,-7.643,-7.15,-1.536,-7.172,-15.68,-179.13,36.4
,-7.179,-1.371,-7.832,-7.7,-1.567,-6.557,-19.25,-181.79,35.0
,-7.023,-1.285,-7.688,-7.81,-1.4,-6.308,-21.49,-183.47,34.51
17632.0,-7.621,-1.091,-6.444,-8.686,-0.352,-4.764,-20.86,-194.25,22.12
,-7.593,-0.936,-6.463,-8.854,-0.536,-4.379,-22.54,-194.25,19.25
,-8.093,-0.826,-5.872,-8.921,-0.818,-3.872,-21.98,-192.57,16.66
,-8.622,-0.57,-5.286,-9.177,-1.084,-3.336,-23.1,-191.17,13.51
17708.0,-9.251,-1.175,-2.706,-9.198,-0.366,-0.711,-43.89,-172.76,1.12
,-9.191,-0.964,-2.137,-9.086,-0.077,-0.687,-43.12,-164.99,-0.77
,-9.055,-0.869,-1.618,-9.016,-0.182,-0.751,-42.49,-155.33,-2.45
,-9.081,-0.531,-0.976,-8.519,-0.342,-0.369,-40.46,-144.34,-4.06
17784.0,-8.356,-0.56,0.507,-8.21,-0.364,0.955,-46.41,-81.9,-10.85
,-8.543,-0.505,0.775,-7.961,-0.431,0.83,-42.56,-65.8,-9.87
,-8.574,-0.383,0.993,-8.033,-0.349,0.541,-39.48,-49.07,-8.4
,-8.524,-0.294,0.945,-8.078,-0.11,0.134,-38.92,-32.06,-6.65
17860.0,-8.256,-0.017,-0.347,-15.791,-5.162,0.426,-40.39,51.31,3.57
,-8.267,0.163,-0.794,-17.734,-5.853,4.111,-42.7,65.17,5.04
,-8.485,0.148,-1.287,-12.036,-0.144,0.007,-45.78,76.09,6.02
,-10.187,-1.024,-1.572,-7.865,3.202,0.002,-48.37,80.01,6.93
17936.0,-9.148,-1.161,1.216,-9.675,-1.326,1.512,-57.33,16.17,-5.74
,-9.765,-5.638,2.391,-10.534,-0.936,1.079,-59.43,21.84,1.68
,-9.83,-5.322,2.407,-11.807,0.871,-0.44,-20.09,33.67,6.58
,-9.122,-2.718,2.067,-11.074,3.331,-1.29,9.59,45.71,10.36
18012.0,-10.06,4.86,-2.455,-9.94,-2.673,-2.599,-1.75,63.63,11.9
,-8.832,4.7,-2.821,-9.459,-2.034,-2.754,-31.71,63.56,9.52
,-9.06,2.328,-3.058,-9.194,-0.912,-3.075,-54.53,64.61,9.1
,-9.789,-0.866,-2.644,-9.421,-1.01,-3.24,-57.4,63.84,10.22
18088.0,-9.55,-1.371,-3.695,-9.631,-0.567,-3.18,2.1,53.34,17.08
,-9.512,-2.022,-3.532,-9.753,0.572,-2.922,9.31,52.15,18.76
,-9.423,-2.383,-3.281,-9.957,1.591,-2.661,16.87,50.47,20.44
,-9.5,-1.754,-3.233,-9.919,2.326,-2.551,24.22,48.93,21.14
18164.0,-9.715,2.24,-2.596,-9.639,0.991,-2.91,-27.23,35.77,6.3
,-9.576,1.096,-2.838,-9.574,1.33,-2.632,-35.77,33.39,5.46
,-9.517,-0.053,-2.682,-9.569,1.371,-2.357,-28.91,32.2,6.58
,-9.452,0.208,-2.917,-9.718,0.976,-2.209,-12.6,30.38,8.68
18240.0,-9.809,0.615,-2.13,-9.591,0.677,-2.032,-20.09,22.12,6.65
,-9.627,0.51,-2.201,-9.588,0.567,-1.948,-25.69,21.7,4.62
,-9.677,0.294,-1.912,-9.682,0.373,-2.077,-28.42,21.7,3.64
,-9.72,0.488,-2.06,-9.581,0.33,-2.106,-26.25,21.84,3.29
18316.0,-9.696,0.581,-2.307,-9.378,0.704,-3.159,-7.98,23.38,6.3
,-9.703,0.739,-2.486,-9.502,0.445,-3.238,-7.84,22.68,6.02
,-9.703,0.869,-2.795,-9.593,0.481,-3.338,-8.47,21.56,5.46
,-9.485,0.95,-3.12,-9.555,0.507,-3.422,-11.06,20.44,4.97
18392.0,-9.6,0.514,-3.501,-9.55,0.335,-2.936,-5.25,15.82,5.32
,-9.502,0.553,-3.508,-9.648,0.491,-2.826,-3.01,15.05,5.39
,-9.483,0.565,-3.374,-9.825,0.768,-2.73,-2.94,14.07,5.25
,-9.474,0.426,-3.07,-9.562,0.89,-2.773,-3.71,13.23,5.18
18468.0,-9.361,0.522,-2.56,-9.643,1.003,-1.955,-9.59,8.75,4.06
,-9.32,-0.01,-2.266,-9.686,0.629,-1.931,-9.17,9.17,4.97
,-9.385,0.108,-2.094,-9.703,0.337,-2.254,-5.39,9.52,6.3
,-9.588,0.773,-2.118,-9.433,0.158,-2.453,-2.24,9.87,6.93
18544.0,-9.361,-0.156,-2.467,-9.742,1.57,-2.589,-4.27,12.04,7.49
,-9.464,-0.163,-2.458,-9.579,1.589,-2.826,1.19,13.16,8.4
,-9.572,0.316,-2.592,-9.512,0.967,-2.958,7.7,13.93,8.75
,-9.753,0.912,-2.467,-9.387,0.94,-3.163,9.8,14.21,8.33
18620.0,-9.332,0.653,-3.247,-9.514,0.842,-3.166,-2.1,10.99,5.88
,-9.387,0.589,-3.257,-9.34,0.835,-3.07,-0.56,10.29,6.23
,-9.256,0.739,-3.264,-9.56,1.041,-2.927,-0.63,9.59,6.51
,-9.619,0.397,-3.19,-9.605,1.067,-2.912,-1.26,8.82,6.51
18696.0,-9.184,0.168,-2.728,-9.591,0.313,-2.34,-11.27,7.56,4.62
,-9.287,-0.589,-2.532,-9.447,0.632,-2.477,-7.28,8.82,6.09
,-9.612,-0.629,-2.364,-9.351,0.821,-2.668,1.75,10.29,6.72
,-9.61,0.031,-2.357,-9.562,0.605,-2.673,9.03,11.55,7.14
18772.0,-9.505,0.089,-2.45,-9.234,0.223,-3.465,14.21,17.22,7.7
,-9.213,0.371,-2.458,-9.15,0.459,-3.881,18.34,17.99,8.19
,-9.409,0.383,-2.639,-9.361,0.66,-4.135,21.28,18.62,8.89
,-9.296,0.177,-3.072,-9.328,0.495,-4.051,22.61,19.53,9.66
18848.0,-9.459,0.57,-3.903,-9.143,0.627,-4.022,30.31,18.34,11.76
,-9.409,1.139,-3.778,-9.055,0.258,-3.972,33.39,17.99,12.04
,-9.38,1.531,-3.805,-9.162,0.412,-3.85,33.46,17.22,11.9
,-9.225,1.108,-3.896,-9.206,0.926,-3.68,31.78,16.87,11.9
18924.0,-9.232,0.986,-3.678,-9.545,0.794,-3.872,40.39,15.12,14.49
,-9.153,0.443,-3.601,-9.258,1.127,-4.082,38.71,15.33,14.56
,-9.246,0.235,-3.69,-9.28,0.543,-4.185,41.51,15.75,15.19
,-9.366,0.373,-3.793,-9.196,0.201,-4.204,46.55,16.03,15.82
19000.0,-9.308,0.663,-4.348,-9.016,0.512,-4.58,51.24,13.3,17.15
,-9.332,1.003,-4.527,-8.904,-0.098,-4.58,53.97,12.67,17.43
,-9.275,1.012,-4.621,-8.94,0.124,-4.448,54.95,12.25,17.71
,-9.031,0.821,-4.692,-9.036,0.663,-4.355,55.65,11.83,18.27
19076.0,-9.105,0.785,-4.257,-7.971,-0.419,-4.355,83.86,14.49,25.13
,-9.069,0.498,-4.168,-8.514,1.146,-4.14,86.1,15.61,25.69
,-8.38,0.168,-4.08,-8.665,3.156,-4.831,95.83,17.29,30.59
,-10.311,6.071,-4.389,-9.007,0.4,-4.704,99.75,14.56,40.25
19152.0,-8.536,-0.696,-4.47,-8.976,1.187,-3.9,86.03,12.74,31.15
,-8.557,0.297,-4.446,-9.493,0.704,-3.558,93.31,11.69,30.66
,-8.76,1.031,-4.295,-10.026,1.534,-3.841,93.45,11.62,30.17
,-8.863,1.352,-4.113,-9.835,1.594,-3.963,89.46,12.39,29.54
19228.0,-9.497,1.354,-4.178,-8.378,1.213,-5.104,71.33,11.97,25.2
,-9.222,0.802,-4.336,-8.033,1.584,-5.071,69.44,12.25,26.88
,-8.756,0.421,-4.57,-8.131,1.716,-5.157,72.87,12.46,28.56
,-8.428,0.617,-4.767,-7.978,1.823,-5.207,80.08,12.46,30.31
19304.0,-7.964,1.685,-5.138,-8.483,1.364,-4.671,88.97,11.62,35.98
,-8.098,1.663,-5.095,-8.703,1.299,-4.755,91.42,11.06,36.96
,-8.299,1.716,-4.932,-8.65,1.297,-4.757,93.03,10.29,37.94
,-8.346,1.608,-4.872,-8.701,0.876,-4.92,93.66,9.52,39.2
19380.0,-8.469,0.239,-4.939,-8.66,0.038,-5.066,95.41,8.47,43.26
,-8.435,0.055,-5.011,-8.811,0.129,-4.848,97.23,9.03,44.1
,-8.368,-0.074,-4.98,-8.938,0.625,-4.822,99.4,9.1,44.66
,-8.591,-0.199,-5.03,-8.981,0.761,-4.702,101.71,8.82,44.94
19456.0,-8.918,0.744,-4.616,-8.459,0.134,-5.083,98.84,6.58,42.91
,-8.871,0.581,-4.757,-8.174,-0.053,-5.365,96.81,6.23,42.63
,-8.646,0.481,-4.819,-8.09,-0.031,-5.458,95.69,6.23,42.35
,-8.579,0.218,-4.812,-8.181,0.412,-5.477,96.04,5.95,42.49
19532.0,-8.303,0.689,-5.516,-8.722,-0.01,-4.855,109.27,3.01,45.85
,-8.284,0.443,-5.552,-8.899,0.409,-4.616,107.87,2.31,46.55
,-8.339,0.112,-5.422,-9.1,0.916,-4.518,109.76,1.89,47.81
,-8.48,0.098,-5.169,-9.064,1.019,-4.369,114.31,1.75,49.56
19608.0,-9.083,0.955,-4.379,-8.27,0.519,-5.24,134.4,3.08,61.04
,-8.899,0.948,-4.525,-8.375,0.165,-5.317,137.97,3.36,63.14
,-8.693,0.869,-4.91,-8.449,0.756,-5.123,141.75,3.01,64.82
,-8.385,0.574,-5.018,-8.418,0.854,-5.085,145.67,2.73,66.36
19684.0,-8.485,0.785,-4.678,-8.744,0.632,-4.57,156.1,0.35,73.71
,-8.48,0.845,-4.575,-8.78,0.689,-4.319,157.29,0.63,74.69
,-8.543,0.876,-4.415,-8.926,0.445,-4.405,157.36,0.77,74.97
,-8.643,0.316,-4.444,-9.052,0.108,-4.451,156.59,1.05,75.18
19760.0,-9.043,-0.294,-4.757,-8.76,-0.651,-5.025,148.12,1.82,73.5
,-8.978,-0.057,-4.989,-8.631,-0.627,-4.853,147.7,1.19,73.22
,-8.949,-0.079,-5.08,-8.796,-0.412,-4.824,145.46,1.12,73.01
,-8.765,-0.67,-5.047,-8.894,0.323,-4.848,144.41,0.84,73.57
19836.0,-8.815,0.163,-4.917,-8.933,0.364,-4.491,151.55,-1.75,72.03
,-9.031,-0.302,-4.712,-9.043,-0.158,-4.518,146.93,-1.89,71.33
,-8.93,-0.053,-4.508,-9.119,-0.282,-4.427,145.67,-2.45,70.42
,-8.916,0.345,-4.441,-9.222,-0.366,-4.247,144.13,-3.22,68.67
19912.0,-9.225,-0.275,-4.015,-8.595,-0.787,-4.08,132.65,-3.36,61.74
,-9.093,-0.141,-3.754,-8.524,-1.129,-4.262,131.81,-3.01,60.69
,-8.88,0.077,-3.817,-8.454,-1.177,-4.346,128.94,-3.01,59.64
,-8.715,0.026,-3.941,-8.586,-0.969,-4.391,124.18,-2.94,58.66
19988.0,-8.844,-0.053,-4.58,-9.217,-1.048,-4.795,125.79,-3.01,57.89
,-9.052,0.22,-4.685,-9.062,-0.945,-4.848,121.24,-3.57,56.07
,-9.249,-0.038,-4.815,-9.04,-0.711,-4.673,114.52,-3.92,53.76
,-9.308,-0.806,-4.843,-8.873,-0.024,-4.771,108.78,-4.27,52.78
20064.0,-8.701,0.024,-4.87,-8.507,0.067,-4.793,113.54,-6.65,54.25
,-8.433,-0.022,-4.884,-8.519,-0.498,-4.769,110.11,-7.56,54.04
,-8.418,0.065,-4.743,-8.543,-0.479,-4.771,108.92,-8.33,54.11
,-8.402,0.153,-4.791,-8.507,-0.321,-4.657,108.85,-9.17,53.69
20140.0,-8.646,-0.055,-4.484,-8.516,0.103,-4.58,114.1,-12.18,55.58
,-8.564,0.361,-4.424,-8.543,-0.481,-4.57,114.17,-12.88,55.37
,-8.643,0.424,-4.427,-8.524,-0.402,-4.463,111.51,-13.44,54.81
,-8.617,0.38,-4.52,-8.77,-0.002,-4.463,107.8,-14.42,53.97
20216.0,-8.966,0.208,-4.137,-9.167,0.278,-3.9,106.4,-17.15,51.8
,-9.048,0.51,-4.133,-9.002,0.505,-3.683,101.92,-18.06,49.91
,-8.981,0.512,-4.087,-9.107,0.534,-3.635,94.92,-18.69,47.6
,-9.129,0.196,-3.915,-9.088,0.749,-3.577,89.04,-19.46,45.01
20292.0,-9.107,0.462,-3.53,-10.845,-0.976,-2.206,34.37,-26.81,18.34
,-9.119,0.203,-3.367,-10.895,-0.9,-2.032,18.62,-28.21,12.11
,-9.34,-0.34,-3.18,-10.447,-0.895,-1.96,5.39,-28.35,6.79
,-10.067,-0.737,-2.632,-9.983,-0.871,-2.106,-5.18,-27.58,2.94
20368.0,-9.605,-0.5,-2.28,-9.402,0.67,-3.85,-9.8,-22.47,4.97
,-9.411,0.232,-2.577,-9.289,0.701,-3.946,-3.92,-21.28,6.02
,-9.43,0.62,-3.206,-9.182,0.189,-3.869,-1.54,-19.18,6.51
,-9.49,0.634,-3.666,-8.882,-0.519,-3.51,-0.77,-17.64,6.51
20444.0,-8.83,-0.912,-3.333,-9.105,-2.249,-2.721,3.92,-13.23,10.64
,-8.949,-1.101,-3.285,-9.471,-2.271,-2.245,12.46,-10.29,12.46
,-9.117,-1.106,-2.943,-9.737,-1.029,-1.998,21.63,-7.63,14.07
,-9.117,-1.393,-2.938,-9.713,0.486,-1.89,28.77,-5.18,15.61
20520.0,-9.78,1.711,-1.709,-9.378,2.436,-1.737,60.97,2.66,19.04
,-9.773,2.546,-1.663,-9.679,1.431,-1.933,47.6,2.45,17.22
,-9.78,2.984,-1.515,-9.581,0.79,-2.146,30.17,2.24,14.77
,-9.512,3.147,-1.661,-9.466,0.514,-2.388,9.59,1.19,11.06
20596.0,-9.337,0.108,-2.747,-9.229,-0.584,-3.896,-22.54,4.69,4.13
,-9.299,-0.28,-3.02,-9.162,-0.481,-3.886,-20.51,4.97,4.27
,-9.38,-0.292,-3.393,-9.275,-0.704,-3.79,-15.96,5.53,4.83
,-9.397,-0.457,-3.762,-9.095,-0.452,-3.534,-11.76,5.95,5.74
20672.0,-9.284,-0.254,-3.417,-9.086,0.189,-2.68,-1.96,4.55,8.47
,-9.433,0.091,-3.25,-9.517,-0.11,-2.635,0.21,5.32,8.68
,-9.526,0.766,-3.092,-9.641,0.512,-2.86,1.47,5.32,8.54
,-9.354,0.945,-2.946,-9.579,1.443,-3.089,-1.05,5.32,8.4
20748.0,-9.447,1.835,-3.096,-9.536,1.094,-2.97,20.09,9.1,12.39
,-9.301,1.539,-3.08,-9.368,1.35,-3.149,17.29,10.15,11.76
,-9.11,1.048,-2.915,-9.282,1.129,-3.108,15.89,12.04,11.9
,-9.423,0.773,-2.788,-9.311,0.593,-3.161,15.54,12.74,11.34
20824.0,-9.407,0.294,-3.269,-9.323,1.328,-3.3,0.63,11.55,8.89
,-9.5,0.316,-3.262,-9.481,1.268,-3.197,4.69,11.69,8.96
,-9.45,0.727,-3.324,-9.363,1.342,-3.192,9.45,12.11,8.82
,-9.44,1.153,-3.415,-9.162,1.134,-3.108,10.92,11.9,8.33
20900.0,-9.359,0.814,-3.175,-9.34,0.605,-3.477,-1.12,11.9,5.53
,-9.363,0.735,-3.302,-9.27,0.574,-3.403,0.07,11.97,5.32
,-9.239,0.414,-3.372,-9.146,0.428,-3.376,1.75,12.67,5.67
,-9.217,0.455,-3.477,-9.134,0.105,-3.384,5.11,12.6,6.02
20976.0,-9.38,0.151,-3.549,-9.308,0.809,-4.104,8.47,15.47,6.37
,-9.344,0.345,-3.838,-9.119,0.983,-4.128,12.25,15.26,6.37
,-9.036,0.385,-3.917,-8.892,0.864,-3.951,14.35,15.33,6.79
,-9.074,0.359,-3.932,-9.028,0.725,-3.721,17.08,15.68,7.35
21052.0,-9.213,1.046,-3.513,-9.409,1.156,-3.214,15.54,14.84,6.86
,-9.251,1.307,-3.257,-9.105,1.034,-3.434,13.02,15.33,6.23
,-9.241,1.263,-3.056,-9.165,0.644,-3.683,9.66,15.75,5.39
,-9.325,1.163,-2.962,-8.947,0.658,-3.788,8.33,16.45,4.83
21128.0,-8.76,0.648,-3.754,-8.949,0.864,-3.774,6.3,18.2,3.85
,-8.981,0.711,-3.556,-8.928,0.988,-3.991,5.6,18.55,3.64
,-9.021,0.701,-3.408,-8.818,0.658,-4.19,4.13,19.32,3.57
,-9.112,0.732,-3.525,-8.873,0.519,-4.228,4.2,20.09,3.71
21204.0,-9.086,0.517,-4.255,-8.878,1.244,-4.262,8.19,22.33,4.55
,-9.086,0.124,-4.231,-8.842,1.194,-4.257,8.68,23.17,4.76
,-8.935,-0.108,-4.121,-9.009,0.735,-4.188,10.78,23.73,5.32
,-8.847,0.546,-4.089,-9.134,0.725,-4.185,13.51,23.87,5.32
21280.0,-9.136,0.828,-4.142,-8.906,0.445,-4.611,7.77,25.76,3.15
,-9.098,1.0,-4.207,-8.909,0.096,-4.671,9.59,26.39,3.29
,-9.024,1.055,-4.362,-8.909,0.383,-4.628,9.17,26.81,2.94
,-8.94,0.864,-4.468,-9.019,0.876,-4.736,8.12,27.3,2.52
21356.0,-9.074,1.18,-4.905,-8.203,-0.337,-5.205,12.25,28.21,2.17
,-9.048,0.818,-5.095,-8.961,0.651,-5.13,9.66,28.28,1.68
,-9.036,0.431,-5.173,-9.184,1.106,-5.162,10.5,28.42,1.82
,-10.469,1.048,-5.664,-9.088,-0.168,-4.879,15.47,30.03,0.91
21432.0,-8.993,0.991,-4.898,-9.454,1.101,-5.53,23.87,30.17,2.66
,-9.244,1.062,-4.98,-9.237,0.826,-5.58,24.15,30.87,2.31
,-9.27,1.448,-5.31,-9.002,-0.328,-5.36,22.33,30.8,0.84
,-9.215,1.263,-5.394,-8.885,-0.287,-5.262,20.37,31.22,-0.35
21508.0,-8.741,0.019,-5.114,-9.069,1.041,-4.688,32.2,33.74,-0.7
,-8.775,0.213,-4.963,-9.083,1.12,-4.518,34.51,34.79,-1.05
,-8.732,0.45,-4.882,-9.141,0.861,-4.257,34.79,35.63,-1.75
,-8.878,0.785,-4.819,-9.048,0.483,-4.08,34.3,36.54,-2.94
21584.0,-9.026,0.278,-3.908,-9.107,-0.488,-3.226,28.91,44.1,-6.16
,-9.155,0.194,-3.731,-9.313,-0.342,-3.331,30.31,46.55,-5.81
,-9.124,0.0,-3.609,-9.311,-0.141,-4.101,30.8,49.14,-5.39
,-9.134,-0.313,-3.439,-9.007,-0.701,-4.568,31.57,52.36,-4.69
21660.0,-8.65,-1.579,-4.812,-8.99,-1.086,-4.207,29.33,64.54,-2.94
,-8.61,-1.883,-4.85,-9.28,-1.134,-3.853,33.88,66.36,-1.4
,-8.624,-1.519,-4.685,-9.124,-1.304,-3.482,40.32,68.18,0.35
,-8.729,-1.163,-4.501,-9.15,-1.383,-3.309,44.38,69.79,1.89
21736.0,-9.107,-1.244,-3.285,-8.909,-0.584,-5.485,58.45,84.07,15.4
,-9.131,-0.933,-3.637,-8.758,-0.163,-6.138,63.91,87.15,17.78
,-9.103,-0.962,-4.145,-8.823,0.213,-6.7,66.99,89.67,19.53
,-9.031,-0.842,-4.635,-8.849,0.436,-7.38,70.0,91.7,20.23
21812.0,-8.926,0.78,-7.636,-7.94,0.254,-8.552,66.29,105.63,12.6
,-9.134,0.814,-8.126,-7.195,0.057,-8.614,61.53,105.77,12.81
,-8.887,0.572,-8.301,-6.801,-0.608,-8.66,55.16,102.76,13.37
,-8.476,0.275,-8.349,-6.286,-1.725,-8.512,44.52,95.06,12.67
21888.0,-6.217,-2.603,-8.636,-6.413,-1.144,-8.11,12.74,46.06,16.8
,-6.19,-3.154,-8.648,-5.822,-1.041,-7.952,25.69,37.73,22.96
,-6.542,-2.79,-8.294,-5.549,-1.366,-8.141,42.35,27.58,28.84
,-6.734,-1.917,-8.174,-5.578,-1.586,-7.983,54.81,14.0,32.97
21964.0,-5.69,-1.697,-7.782,-5.353,-1.713,-8.098,36.05,-55.02,37.73
,-5.872,-1.551,-7.743,-5.568,-1.859,-7.731,35.28,-69.72,39.06
,-5.662,-1.299,-7.93,-5.927,-1.63,-7.743,32.48,-85.33,40.18
,-4.92,-1.515,-8.323,-6.394,-1.29,-7.49,28.98,-96.11,41.44
22040.0,-6.315,-1.058,-7.7,-6.47,-1.462,-7.698,19.81,-137.2,41.09
,-6.269,-0.96,-7.999,-6.576,-1.436,-7.49,12.04,-144.97,40.88
,-6.291,-1.206,-8.016,-6.793,-1.29,-7.313,6.23,-150.99,41.02
,-6.365,-1.455,-7.851,-6.849,-1.017,-7.396,4.27,-154.84,41.37
22116.0,-6.884,-0.749,-7.562,-7.018,-1.184,-7.002,-5.11,-173.18,39.9
,-6.82,-0.794,-7.509,-7.2,-1.357,-6.913,-11.2,-175.42,38.92
,-6.846,-0.888,-7.43,-7.239,-1.333,-6.772,-16.94,-177.24,38.01
,-6.887,-1.039,-7.277,-7.27,-1.297,-6.619,-20.65,-178.36,36.89
22192.0,-7.04,-1.194,-6.537,-8.119,-0.833,-5.367,-23.66,-191.03,28.7
,-7.155,-1.12,-6.286,-8.179,-0.668,-4.937,-24.08,-193.13,26.53
,-7.291,-1.022,-6.226,-8.504,-0.787,-4.288,-23.87,-194.53,24.43
,-7.729,-0.936,-5.867,-8.689,-0.672,-3.553,-22.47,-195.58,22.26
22268.0,-9.055,-0.424,-3.061,-9.897,-0.371,-1.335,-16.73,-188.65,7.42
,-9.624,-0.184,-2.723,-9.584,-0.625,-1.182,-16.52,-182.98,3.01
,-9.873,-0.168,-1.967,-9.232,-1.196,-1.034,-18.48,-175.63,-1.12
,-10.048,-0.215,-1.61,-9.062,-1.783,-0.907,-22.89,-167.44,-4.2
22344.0,-8.653,-1.945,0.158,-8.423,-0.546,1.304,-42.28,-112.91,-9.38
,-8.55,-1.843,0.684,-8.452,-0.323,1.275,-35.63,-97.93,-8.05
,-8.349,-1.338,1.084,-8.533,-0.01,0.986,-29.19,-82.04,-7.7
,-8.349,-0.873,1.22,-8.65,0.103,0.634,-25.06,-65.38,-7.07
22420.0,-8.605,-0.038,0.273,-8.351,0.474,-1.261,-27.58,16.87,-5.81
,-8.787,-0.237,-0.091,-8.416,0.285,-1.543,-30.31,31.15,-4.2
,-8.904,-0.089,-0.302,-8.713,-0.17,-1.804,-31.92,44.59,-2.31
,-8.705,0.199,-0.749,-11.464,-2.388,-1.682,-34.79,56.91,-0.49
22496.0,-17.207,-7.645,3.455,-9.698,-2.491,1.929,-24.15,64.19,21.56
,-16.604,-5.214,3.699,-9.806,-4.518,1.802,33.74,41.44,29.54
,-10.16,1.084,0.041,-9.753,-2.728,2.276,49.63,32.2,11.62
,-8.196,1.754,1.156,-9.988,-1.515,1.098,8.47,31.5,-0.35
22572.0,-10.179,-0.711,-0.885,-9.299,3.319,-3.333,13.79,76.3,16.94
,-9.978,0.347,-2.146,-8.811,1.977,-3.719,8.4,76.86,15.54
,-9.899,1.778,-2.694,-9.476,-0.237,-3.204,2.8,72.17,12.95
,-9.555,3.104,-2.455,-9.873,-1.374,-3.36,-10.71,68.53,9.59
22648.0,-9.665,-0.859,-3.295,-9.485,-0.404,-3.295,-25.34,67.2,9.24
,-9.251,-0.457,-3.278,-9.438,0.067,-3.381,-15.54,64.26,11.9
,-9.15,-0.464,-3.312,-9.337,1.347,-3.396,-6.02,62.23,15.12
,-9.203,-0.493,-3.398,-9.423,2.414,-3.269,3.57,60.2,17.64
22724.0,-9.727,2.185,-3.07,-9.39,-1.452,-3.046,-19.11,47.04,9.1
,-9.452,1.34,-3.321,-9.445,-0.857,-2.895,-39.55,43.89,5.32
,-9.232,0.05,-3.364,-9.636,0.211,-2.678,-49.49,41.79,4.41
,-9.34,-1.108,-3.259,-9.718,1.278,-2.656,-47.18,40.32,5.32
22800.0,-9.679,1.385,-2.417,-9.67,0.869,-3.092,0.14,38.64,12.81
,-9.562,0.816,-2.228,-9.651,1.106,-3.434,-1.89,38.36,12.39
,-9.402,0.689,-2.575,-9.536,0.905,-3.702,-1.47,38.01,11.76
,-9.643,0.634,-2.809,-9.273,0.407,-3.836,0.28,38.01,11.2
22876.0,-9.265,0.12,-3.766,-9.509,0.838,-3.58,9.66,33.39,10.43
,-9.488,0.672,-3.869,-9.43,1.273,-3.697,14.49,31.99,9.8
,-9.466,1.129,-3.867,-9.414,1.457,-3.728,14.42,30.73,8.61
,-9.383,0.96,-3.752,-9.397,1.33,-3.707,10.57,29.54,7.91
22952.0,-9.237,1.151,-3.685,-9.344,0.72,-3.364,-2.1,22.19,3.36
,-9.342,0.986,-3.601,-9.395,0.491,-3.355,-3.22,21.42,2.73
,-9.373,0.857,-3.494,-9.318,0.199,-3.245,-4.13,21.07,2.38
,-9.304,0.699,-3.391,-9.258,-0.086,-3.364,-4.62,20.72,2.24
23028.0,-9.22,0.086,-3.491,-9.619,0.909,-3.632,2.17,21.63,3.01
,-9.177,0.325,-3.482,-9.507,1.962,-3.817,4.69,21.7,3.5
,-9.194,0.476,-3.451,-8.763,2.312,-4.18,5.04,21.7,3.5
,-9.258,0.67,-3.542,-8.918,1.493,-4.121,3.64,21.35,2.87
23104.0,-8.947,0.94,-4.082,-9.256,0.179,-3.36,-27.58,13.58,-2.03
,-9.182,0.421,-3.862,-9.16,0.069,-3.293,-23.1,13.86,-1.89
,-9.234,0.419,-3.707,-9.16,-0.01,-3.233,-18.2,14.28,-1.4
,-9.246,0.335,-3.52,-9.306,0.007,-3.223,-15.4,14.91,-0.98
23180.0,-9.32,0.005,-3.039,-9.203,0.354,-3.063,-7.56,20.51,-0.77
,-9.28,0.022,-2.905,-9.265,0.792,-3.278,-2.94,22.19,-0.14
,-9.225,0.108,-2.931,-9.273,0.692,-3.532,1.61,24.22,0.49
,-9.122,0.069,-2.893,-9.134,0.249,-3.778,4.48,26.11,0.98
23256.0,-9.143,0.455,-3.972,-8.775,0.27,-3.951,7.56,29.89,-0.28
,-8.911,0.584,-4.099,-8.871,0.486,-3.788,6.93,29.68,0.07
,-8.777,0.601,-4.145,-8.942,0.495,-3.58,4.41,29.19,0.21
,-8.732,0.414,-4.039,-9.069,0.778,-3.568,1.61,29.05,0.21
23332.0,-9.072,0.708,-3.582,-9.605,0.56,-4.216,-2.38,32.55,-0.7
,-9.167,0.543,-3.723,-9.689,0.543,-4.228,-2.31,34.02,-1.05
,-9.234,0.44,-3.879,-9.892,0.536,-4.295,-0.63,35.35,-1.4
,-9.363,0.457,-4.032,-9.868,0.536,-4.288,2.38,36.89,-1.47
23408.0,-10.12,0.455,-4.214,-9.093,0.751,-4.29,8.47,42.49,-2.17
,-9.722,0.479,-4.403,-9.241,0.687,-4.367,8.75,43.33,-2.59
,-9.055,0.584,-4.463,-9.186,0.936,-4.556,9.73,45.15,-3.01
,-9.854,-0.419,-4.31,-9.751,2.879,-4.748,12.25,45.92,-3.08
23484.0,-11.175,3.561,-5.231,-9.816,1.462,-4.149,14.07,50.33,-10.92
,-10.057,-0.103,-4.953,-9.328,0.249,-4.066,2.17,52.29,-13.86
,-9.608,-2.45,-4.444,-9.052,-0.981,-4.176,9.87,54.6,-11.13
,-9.758,0.148,-4.238,-8.981,-0.988,-4.274,26.11,56.0,-7.7
23560.0,-8.985,-0.55,-4.223,-9.021,-0.074,-4.168,12.6,64.4,-13.72
,-8.997,-0.347,-4.195,-9.301,-0.043,-4.197,13.37,66.15,-13.86
,-8.794,-0.447,-3.967,-9.308,-0.206,-4.176,14.0,68.32,-13.37
,-8.825,-0.22,-4.039,-9.471,-0.476,-3.953,16.8,70.63,-12.25
23636.0,-9.703,-0.826,-3.551,-10.062,-1.785,-1.692,30.73,83.3,-1.68
,-9.902,-1.249,-2.984,-10.148,-1.89,-1.555,38.15,88.06,3.57
,-9.993,-1.438,-2.376,-9.911,-1.953,-1.859,47.32,92.68,9.1
,-10.134,-1.61,-2.046,-9.478,-1.737,-2.501,57.12,97.3,15.33
23712.0,-9.115,-1.192,-3.422,-9.134,1.323,-7.964,109.2,116.06,40.11
,-8.698,-0.369,-4.63,-9.227,0.94,-8.703,112.7,116.27,40.11
,-8.586,0.852,-6.006,-9.072,0.591,-9.143,107.66,115.15,36.89
,-8.784,1.541,-7.229,-8.402,0.419,-9.296,89.74,113.4,31.78
23788.0,-7.746,-0.299,-9.904,-6.289,-0.574,-9.938,23.87,92.89,16.87
,-7.033,-0.627,-10.447,-6.03,-0.498,-10.282,35.0,88.2,17.85
,-6.959,-0.897,-10.517,-5.03,-0.66,-10.395,47.67,82.25,17.5
,-6.719,-0.72,-10.4,-4.779,-1.153,-9.83,53.41,72.73,15.05
23864.0,-4.934,-1.17,-9.318,-5.293,-0.847,-8.27,41.72,26.53,11.69
,-5.322,-0.756,-8.629,-4.882,-1.228,-8.119,42.21,15.96,12.25
,-6.14,-0.567,-8.504,-5.15,-1.536,-7.966,33.67,-0.84,11.27
,-5.82,-0.397,-8.576,-5.109,-1.881,-8.023,22.05,-17.43,11.76
23940.0,-4.889,-2.266,-8.311,-4.444,-2.134,-8.416,-8.19,-84.63,13.02
,-4.561,-2.367,-8.301,-4.621,-2.484,-8.04,-6.86,-94.29,14.77
,-4.637,-2.247,-8.308,-4.96,-2.266,-7.944,-7.7,-104.44,14.84
,-4.549,-1.95,-8.373,-5.15,-1.735,-7.877,-10.99,-114.8,14.42
24016.0,-5.176,-1.548,-7.827,-5.099,-2.285,-7.897,-16.73,-143.5,20.44
,-5.02,-1.462,-7.751,-5.427,-2.434,-7.521,-21.42,-149.52,21.84
,-5.2,-1.462,-7.916,-5.556,-2.044,-7.425,-26.81,-156.59,23.24
,-5.128,-1.826,-8.102,-5.619,-1.577,-7.444,-29.33,-163.31,24.85
24092.0,-5.982,-1.117,-7.449,-6.181,-0.237,-7.571,-4.2,-183.19,28.56
,-6.092,-0.814,-7.55,-6.348,-0.237,-7.602,-7.35,-187.81,28.7
,-6.025,-0.603,-7.595,-6.624,-0.347,-7.212,-12.6,-192.5,28.56
,-5.961,-0.342,-7.566,-7.03,-0.309,-7.045,-17.99,-196.14,27.79
24168.0,-7.365,-0.419,-6.88,-8.363,-0.665,-5.525,-29.12,-209.72,17.01
,-7.636,-0.534,-6.585,-9.007,-0.665,-4.949,-32.62,-213.78,13.93
,-7.849,-0.493,-6.262,-9.416,-0.5,-4.319,-35.56,-217.21,10.29
,-7.988,-0.634,-5.915,-9.895,-0.294,-3.647,-37.38,-218.68,6.65
24244.0,-9.887,-0.031,-3.104,-9.206,-1.474,-0.459,-38.43,-202.37,-4.41
,-9.947,0.361,-2.436,-9.378,-1.907,-0.378,-43.68,-195.51,-6.44
,-9.878,0.246,-1.924,-8.753,-1.079,0.72,-52.64,-187.81,-8.75
,-9.636,-0.431,-1.242,-8.918,-0.72,1.385,-60.06,-177.38,-9.94
24320.0,-8.373,-0.335,2.194,-7.777,-0.57,2.828,-29.96,-99.4,-9.38
,-7.81,-0.706,2.869,-8.133,0.531,1.96,-29.96,-77.21,-8.68
,-7.504,-0.988,3.096,-8.189,1.476,1.005,-27.3,-52.36,-6.09
,-7.53,-1.134,3.178,-8.378,1.251,0.108,-23.31,-25.97,-1.82
24396.0,-8.78,0.57,-0.5,-11.615,-1.481,0.895,-53.06,79.87,8.19
,-9.777,-0.424,-1.072,-7.55,3.269,0.694,-60.34,91.42,7.98
,-16.724,-4.74,0.493,-9.588,-1.304,1.553,-63.14,83.23,10.71
,-19.828,-7.636,3.958,-10.546,-5.695,1.704,-34.65,57.26,18.83
24472.0,-9.629,-3.388,1.161,-8.66,-0.857,-3.771,-40.39,77.07,9.66
,-8.598,-0.586,-0.038,-8.598,0.936,-3.783,-18.27,91.49,16.1
,-9.497,0.077,-1.967,-8.715,1.986,-3.549,-19.04,102.06,15.05
,-8.966,-2.02,-3.242,-9.131,2.785,-3.616,-25.06,104.02,13.86
24548.0,-8.997,3.793,-4.154,-9.686,-0.909,-3.683,-38.5,63.07,10.78
,-9.237,2.642,-4.578,-9.076,-1.692,-3.391,-46.9,66.01,12.6
,-10.239,0.014,-3.958,-9.069,-2.673,-3.295,-46.27,66.85,14.0
,-10.383,-1.053,-3.721,-9.634,-2.132,-3.396,-36.19,64.05,14.98
24624.0,-9.761,-0.641,-3.611,-9.328,1.656,-3.958,23.87,56.7,18.83
,-9.643,0.976,-3.939,-9.119,0.074,-3.668,25.2,53.9,16.03
,-9.404,2.398,-4.061,-9.215,-1.321,-3.69,10.08,50.12,12.81
,-9.407,2.481,-3.941,-9.526,-1.187,-3.723,-16.45,45.92,9.31
24700.0,-9.634,-0.488,-3.472,-9.672,1.33,-2.678,-11.55,34.93,10.01
,-9.744,0.034,-3.063,-9.641,1.189,-2.637,-0.7,34.09,12.18
,-9.782,0.364,-2.761,-9.698,1.153,-2.874,7.77,33.81,14.0
,-9.77,0.845,-2.67,-9.663,1.158,-3.36,13.16,33.53,14.84
24776.0,-9.351,0.692,-3.62,-9.615,0.962,-3.046,-9.31,26.88,8.61
,-9.392,0.299,-3.553,-9.608,1.161,-2.96,-7.49,25.34,8.89
,-9.45,0.625,-3.446,-9.576,1.182,-3.034,-4.06,23.52,8.75
,-9.598,0.615,-3.228,-9.507,0.302,-2.855,-0.77,22.75,8.75
24852.0,-9.442,-0.201,-2.814,-9.447,0.581,-2.745,-0.84,22.26,7.91
,-9.49,-0.227,-2.888,-9.5,0.617,-3.065,5.25,22.68,7.77
,-9.512,0.199,-2.723,-9.411,0.696,-3.276,9.59,23.17,7.28
,-9.548,0.529,-2.68,-9.359,0.818,-3.544,10.85,23.73,6.58
24928.0,-9.316,0.816,-3.814,-9.385,0.603,-3.204,6.3,21.77,5.88
,-9.225,1.046,-3.85,-9.407,0.632,-3.041,5.81,20.51,6.16
,-9.143,0.706,-3.798,-9.404,0.637,-2.819,4.48,19.88,6.72
,-9.366,0.431,-3.515,-9.505,0.648,-2.802,4.48,19.46,7.0
25004.0,-9.385,0.471,-2.687,-9.225,0.467,-2.867,-4.83,20.72,4.06
,-9.399,0.366,-2.706,-9.225,0.715,-2.941,-4.62,21.56,3.85
,-9.462,0.462,-2.783,-9.22,1.094,-3.084,-2.38,22.47,3.64
,-9.263,0.546,-2.867,-9.074,0.979,-3.209,-0.7,23.52,3.57
25080.0,-9.167,0.62,-3.273,-8.983,0.481,-3.735,-3.85,25.27,2.45
,-9.122,0.424,-3.434,-9.038,0.359,-3.649,-2.52,25.83,2.59
,-9.055,0.498,-3.51,-9.174,0.235,-3.544,-0.49,26.39,2.66
,-9.021,0.644,-3.585,-9.203,-0.098,-3.393,0.35,26.74,2.87
25156.0,-9.261,-0.194,-3.245,-9.251,0.062,-3.345,4.2,30.52,4.2
,-9.335,0.235,-3.111,-9.146,-0.196,-3.4,8.4,31.57,4.27
,-9.225,0.699,-3.12,-9.201,0.66,-3.731,8.89,32.76,4.13
,-9.335,0.61,-3.269,-9.162,1.084,-3.891,5.88,33.95,3.57
25232.0,-9.115,0.809,-4.042,-9.143,0.445,-4.618,4.13,38.15,2.8
,-9.105,0.187,-4.178,-9.136,0.608,-4.707,1.89,38.78,2.45
,-9.052,0.053,-4.295,-9.165,0.857,-4.874,4.13,39.41,2.73
,-9.143,0.306,-4.487,-9.328,0.95,-5.135,7.0,40.04,3.29
25308.0,-9.371,0.821,-5.465,-9.318,0.995,-5.016,8.68,41.16,-0.21
,-9.593,-0.036,-5.432,-9.45,0.526,-4.793,10.85,41.72,-0.56
,-8.823,-0.098,-5.508,-9.299,0.443,-4.7,16.87,42.63,0.28
,-9.892,0.168,-5.245,-9.34,0.622,-4.783,25.62,42.35,0.77
25384.0,-9.883,1.991,-4.917,-9.007,-1.182,-4.19,39.9,46.55,-2.31
,-10.646,2.807,-5.142,-9.261,1.01,-4.154,37.45,47.18,-6.65
,-9.911,-0.385,-4.877,-9.294,1.589,-3.953,30.59,48.58,-9.45
,-9.15,-2.737,-4.468,-8.873,1.137,-4.011,41.23,51.1,-6.86
25460.0,-8.993,0.637,-3.96,-9.055,0.309,-4.145,32.97,55.86,-12.81
,-9.265,0.821,-4.135,-9.086,0.002,-4.066,29.26,56.7,-15.54
,-9.261,0.804,-4.197,-9.153,-0.302,-4.015,25.69,57.96,-17.78
,-9.122,0.459,-4.178,-9.292,-0.696,-3.843,23.03,59.85,-18.69
25536.0,-9.239,-1.125,-3.697,-10.124,-1.586,-2.127,29.61,71.26,-12.18
,-9.361,-1.429,-3.424,-10.074,-1.914,-1.869,35.56,75.25,-8.54
,-9.619,-1.613,-2.845,-10.23,-2.23,-1.797,43.61,79.31,-4.76
,-9.866,-1.555,-2.448,-10.146,-2.29,-2.07,51.52,83.51,-0.98
25612.0,-10.0,-2.146,-2.309,-9.198,-0.45,-5.686,75.67,107.45,19.67
,-9.842,-1.764,-2.95,-9.249,0.103,-6.377,82.25,110.6,22.4
,-9.567,-1.441,-3.649,-9.517,0.101,-7.164,86.45,112.91,23.94
,-9.296,-1.053,-4.645,-9.538,0.201,-7.76,87.15,115.15,24.22
25688.0,-9.139,0.596,-8.315,-6.805,-0.34,-9.469,59.08,118.37,17.36
,-8.705,0.785,-9.033,-6.557,-1.151,-9.294,46.62,110.67,15.61
,-8.047,0.981,-9.564,-6.286,-1.653,-9.246,33.39,100.73,13.86
,-7.284,0.577,-9.655,-6.083,-1.663,-9.206,22.47,91.14,13.02
25764.0,-5.796,-1.101,-8.969,-5.92,-0.074,-8.378,39.76,31.22,17.08
,-5.829,-0.514,-8.672,-5.595,-0.503,-8.763,46.48,19.53,17.78
,-5.855,0.057,-8.569,-4.637,-0.644,-8.892,42.49,5.11,15.33
,-5.645,0.158,-8.397,-4.611,-0.995,-9.048,31.78,-10.99,11.97
25840.0,-4.477,-1.173,-8.655,-4.913,-1.01,-8.296,-2.1,-80.64,7.42
,-4.661,-1.342,-8.356,-4.477,-0.986,-8.356,-7.21,-91.77,7.14
,-4.767,-1.682,-8.334,-4.769,-1.307,-8.543,-9.94,-103.74,6.93
,-5.001,-1.539,-8.251,-5.111,-1.709,-8.334,-12.18,-115.43,6.65
25916.0,-5.564,-2.149,-8.138,-5.705,-3.171,-8.141,-46.2,-148.05,9.17
,-5.654,-2.405,-8.093,-5.8,-3.271,-8.007,-45.92,-154.7,10.99
,-5.477,-2.663,-7.944,-5.793,-2.977,-8.066,-44.24,-160.65,13.23
,-5.607,-2.946,-7.944,-5.954,-2.553,-7.988,-42.42,-166.25,15.61
25992.0,-6.088,-2.012,-7.782,-7.066,-0.802,-7.456,-7.35,-186.55,29.54
,-6.528,-1.39,-7.722,-7.468,-0.878,-7.363,-4.55,-189.84,31.22
,-6.652,-0.881,-8.081,-7.523,-1.036,-7.105,-5.6,-193.76,32.76
,-6.904,-0.756,-7.626,-7.88,-1.22,-6.669,-6.51,-195.37,34.16
26068.0,-8.023,-1.23,-6.523,-8.746,-0.467,-5.018,-4.83,-203.63,30.66
,-8.064,-1.06,-6.236,-8.71,-0.424,-4.75,-2.03,-204.4,28.63
,-8.399,-1.005,-5.877,-9.124,-0.361,-4.307,0.42,-204.33,27.02
,-8.77,-0.715,-5.473,-9.44,0.002,-3.592,0.42,-205.45,24.64
26144.0,-9.768,0.33,-3.24,-9.107,-0.713,-1.05,-22.12,-187.81,11.27
,-9.684,0.402,-2.563,-9.048,-1.129,-1.273,-33.74,-181.09,7.84
,-9.474,0.273,-1.977,-8.397,-1.106,-0.354,-46.34,-172.9,3.71
,-9.21,-0.189,-1.18,-8.157,-1.352,0.488,-54.74,-162.54,-0.77
26220.0,-8.153,-1.321,0.907,-7.854,-0.833,1.709,-44.03,-95.13,-7.77
,-7.865,-1.05,1.352,-8.009,0.0,1.079,-39.97,-76.93,-6.86
,-7.614,-0.924,1.632,-7.978,0.84,0.421,-36.82,-56.07,-4.83
,-7.602,-0.993,1.768,-8.002,1.01,-0.098,-33.88,-33.6,-2.1
26296.0,-7.906,0.926,-0.634,-19.653,-7.126,4.647,-56.07,63.21,4.62
,-7.865,0.794,-1.101,-19.057,-4.508,3.367,-63.84,78.26,4.48
,-8.334,0.629,-1.555,-9.773,2.484,0.964,-70.77,90.86,4.62
,-11.05,-1.096,-1.606,-7.772,1.237,1.201,-77.21,94.36,5.88
26372.0,-10.065,-4.826,1.778,-9.593,-2.273,-1.211,-105.14,43.96,-0.63
,-9.407,-7.04,1.177,-10.103,-2.283,-2.615,-72.73,55.09,7.77
,-8.734,-3.917,0.866,-9.88,0.701,-3.527,-29.12,66.99,10.5
,-8.77,-2.632,0.227,-8.985,2.233,-3.412,-6.51,80.08,17.57
26448.0,-8.598,3.544,-3.463,-10.581,0.053,-3.821,8.12,71.89,15.96
,-8.595,4.032,-4.061,-9.876,0.007,-3.451,-9.59,72.24,16.45
,-9.091,3.041,-3.905,-9.361,-0.304,-3.563,-22.19,74.83,17.01
,-10.167,1.015,-3.795,-9.239,-0.883,-3.915,-23.03,73.43,16.31
26524.0,-9.225,-1.591,-4.085,-9.832,1.847,-4.343,-2.94,57.54,15.47
,-9.217,-1.91,-4.101,-9.56,2.338,-4.149,5.39,54.67,16.03
,-9.294,-0.897,-4.379,-9.079,0.873,-3.977,14.49,52.08,16.66
,-9.742,0.495,-4.413,-9.258,-0.704,-3.606,15.12,48.51,15.54
26600.0,-9.605,-0.926,-3.405,-9.792,1.484,-2.376,-31.57,31.5,7.49
,-9.78,-0.065,-3.319,-9.696,2.314,-2.57,-14.63,29.68,9.31
,-9.466,0.45,-2.891,-9.617,1.977,-2.668,-4.62,28.77,11.41
,-9.672,0.761,-2.572,-9.655,1.141,-2.867,2.59,28.49,13.16
26676.0,-9.507,0.433,-3.24,-9.686,0.79,-2.943,-7.14,27.02,10.5
,-9.502,0.038,-3.321,-9.658,1.06,-2.828,-2.52,26.88,10.29
,-9.416,0.105,-3.252,-9.641,0.787,-2.709,3.5,26.74,10.64
,-9.514,0.273,-3.056,-9.584,0.577,-2.663,8.68,26.53,11.27
26752.0,-9.677,0.541,-2.826,-9.423,0.818,-3.247,16.52,25.9,9.31
,-9.476,0.79,-2.936,-9.292,0.751,-3.324,18.9,25.55,9.24
,-9.304,0.656,-3.003,-9.263,0.488,-3.336,19.25,25.13,9.38
,-9.39,0.747,-3.171,-9.227,0.531,-3.321,19.53,24.15,9.24
26828.0,-9.359,0.459,-3.178,-9.505,0.852,-2.919,9.94,20.72,6.44
,-9.447,0.397,-3.015,-9.311,0.95,-2.874,9.94,20.86,6.16
,-9.399,0.682,-3.008,-9.253,0.751,-2.769,9.94,20.65,6.02
,-9.328,0.804,-2.903,-9.34,0.625,-2.845,8.96,20.86,5.95
26904.0,-9.284,0.529,-2.828,-9.395,1.101,-2.984,3.29,22.47,4.69
,-9.213,0.376,-2.74,-9.378,1.053,-3.206,2.38,23.45,4.76
,-9.256,0.495,-2.797,-9.237,0.775,-3.333,3.08,24.29,4.55
,-9.299,0.869,-2.85,-9.232,0.78,-3.539,2.73,24.85,3.99
26980.0,-9.201,1.108,-3.836,-9.239,0.223,-3.738,-2.03,26.46,2.03
,-9.012,0.912,-3.944,-9.287,0.505,-3.69,-3.99,26.46,1.96
,-8.981,0.211,-3.946,-9.294,0.593,-3.57,-4.76,26.74,2.38
,-9.184,-0.201,-3.838,-9.311,0.318,-3.326,-1.19,26.67,2.73
27056.0,-9.38,0.426,-3.235,-8.899,0.483,-3.829,8.33,28.91,3.43
,-9.249,0.804,-3.379,-8.868,0.39,-3.879,9.38,29.47,3.15
,-9.074,0.656,-3.498,-8.894,0.646,-3.979,8.26,30.17,3.08
,-9.052,0.543,-3.637,-9.024,0.921,-4.073,8.33,31.01,3.15
27132.0,-8.964,0.933,-4.185,-8.973,0.833,-4.556,10.85,33.18,3.36
,-8.971,0.9,-4.312,-8.978,0.73,-4.664,10.08,33.04,3.22
,-8.835,0.878,-4.405,-9.083,0.479,-4.743,9.38,32.9,2.94
,-8.839,0.869,-4.396,-9.093,0.304,-4.774,8.75,32.83,2.73
27208.0,-9.072,0.237,-4.795,-9.399,0.536,-4.594,13.44,33.18,1.54
,-9.052,0.364,-4.812,-9.253,0.799,-4.649,16.03,33.53,1.4
,-9.165,0.428,-4.783,-9.27,0.646,-4.568,17.15,33.88,0.91
,-9.124,0.412,-4.724,-9.033,0.215,-4.491,17.5,34.3,0.21
27284.0,-9.1,0.242,-4.573,-9.832,3.297,-4.424,22.05,37.31,-1.61
,-9.15,0.62,-4.602,-10.438,3.606,-4.738,24.64,38.36,-1.75
,-9.251,0.371,-4.391,-9.643,0.191,-4.554,25.83,39.83,-2.24
,-9.493,1.082,-4.453,-9.213,-2.101,-4.377,27.58,40.25,-3.71
27360.0,-9.179,-0.165,-4.587,-8.686,-1.551,-5.157,30.59,46.27,-6.3
,-9.311,1.297,-4.879,-8.665,-0.859,-4.937,34.86,47.25,-7.21
,-9.055,0.5,-5.133,-8.713,0.311,-4.681,25.9,47.88,-10.22
,-8.732,-0.945,-5.303,-8.792,0.885,-4.429,19.32,48.37,-11.76
27436.0,-8.801,0.751,-4.118,-9.296,-0.337,-3.85,19.88,53.55,-19.04
,-8.825,0.531,-4.001,-9.459,-0.708,-3.687,14.56,55.02,-20.3
,-8.839,0.306,-3.829,-9.586,-1.091,-3.384,11.97,56.84,-20.44
,-9.026,0.014,-3.865,-9.756,-1.129,-3.273,12.46,59.29,-19.95
27512.0,-10.041,-1.218,-2.917,-10.261,-2.405,-2.024,34.86,78.47,-6.23
,-10.266,-1.385,-2.73,-10.007,-2.458,-2.082,38.92,82.53,-3.5
,-10.462,-1.577,-2.458,-9.988,-2.228,-2.359,42.14,87.08,-0.42
,-10.524,-2.087,-2.199,-9.933,-1.816,-2.788,44.87,92.05,2.94
27588.0,-9.837,-1.184,-3.63,-8.911,0.637,-7.892,73.36,109.48,16.24
,-9.634,-0.641,-4.508,-9.074,0.78,-8.77,73.29,109.9,16.17
,-9.612,-0.213,-5.714,-9.024,0.811,-9.423,69.23,108.78,14.28
,-9.198,0.294,-6.681,-8.557,0.749,-9.907,62.58,107.59,10.78
27664.0,-7.923,0.151,-9.832,-5.654,-0.498,-9.332,20.37,96.04,0.98
,-7.097,-0.203,-9.818,-5.3,-0.373,-9.196,20.44,89.32,0.63
,-6.368,-0.503,-10.0,-5.09,-0.323,-9.229,21.56,81.27,0.28
,-5.942,-0.641,-9.253,-4.91,-0.593,-9.055,27.3,73.64,0.63
27740.0,-5.128,-0.864,-8.614,-5.824,-0.235,-8.155,9.66,13.16,3.43
,-4.975,-0.581,-8.5,-5.714,-0.522,-8.071,12.25,1.05,3.57
,-4.937,-0.242,-8.638,-5.461,-1.07,-8.021,15.82,-8.96,3.43
,-5.176,-0.273,-8.586,-5.676,-1.505,-8.497,14.63,-17.78,1.89
27816.0,-5.205,-1.752,-8.368,-5.257,-2.065,-8.031,-5.88,-83.3,5.32
,-4.704,-1.615,-8.311,-5.097,-2.082,-8.308,-2.03,-93.1,9.94
,-4.499,-1.527,-8.222,-4.977,-1.919,-8.605,-1.19,-101.15,13.51
,-4.91,-1.933,-8.141,-5.097,-1.919,-8.557,-3.92,-110.25,15.05
27892.0,-5.343,-1.922,-8.311,-6.03,-1.192,-7.849,-5.04,-143.29,26.04
,-5.614,-1.754,-8.16,-6.114,-0.782,-7.983,-1.19,-148.54,27.86
,-5.518,-1.627,-8.133,-6.121,-0.603,-8.076,1.61,-153.51,29.54
,-5.686,-1.421,-7.988,-6.296,-0.648,-8.27,3.78,-157.92,31.15
27968.0,-6.155,-0.981,-8.569,-6.968,-1.156,-7.423,-13.72,-183.82,33.39
,-6.176,-1.498,-8.105,-7.131,-1.034,-7.37,-11.62,-184.66,33.6
,-6.58,-1.575,-7.648,-7.382,-0.931,-7.301,-7.21,-185.92,33.39
,-6.786,-1.374,-7.521,-7.389,-0.931,-7.035,-5.18,-189.0,33.18
28044.0,-7.413,-1.036,-6.604,-8.49,-0.785,-5.157,-17.08,-200.97,28.91
,-7.547,-1.072,-6.255,-8.787,-0.605,-4.798,-17.36,-201.32,26.88
,-7.976,-1.015,-5.987,-8.911,-0.538,-4.259,-17.57,-201.32,25.06
,-8.136,-0.854,-5.604,-9.215,-0.639,-3.68,-17.71,-201.18,23.1
28120.0,-9.28,-0.579,-2.836,-9.483,-0.529,-1.407,-27.02,-185.71,6.3
,-9.514,-0.409,-2.144,-9.354,-0.969,-1.072,-28.84,-178.85,1.89
,-9.493,-0.199,-1.847,-9.179,-0.931,-1.352,-33.46,-170.45,-2.1
,-9.591,-0.206,-1.706,-8.559,-0.902,-0.11,-38.71,-160.65,-5.25
28196.0,-8.581,-1.161,0.438,-7.717,-0.613,1.553,-39.62,-99.19,-9.45
,-8.464,-1.084,0.993,-7.583,-0.646,1.445,-35.14,-83.16,-8.89
,-8.32,-1.06,1.156,-7.76,-0.534,1.23,-31.64,-66.43,-7.14
,-8.009,-0.804,1.486,-7.873,-0.201,0.768,-29.96,-48.65,-5.25
28272.0,-7.966,0.165,0.175,-14.968,-3.874,-0.761,-33.32,42.7,3.92
,-7.906,0.184,-0.397,-19.651,-7.437,6.21,-39.27,57.61,4.69
,-8.107,0.038,-0.938,-14.125,-1.759,0.926,-44.87,70.21,5.39
,-9.146,-0.548,-1.424,-8.066,4.625,0.392,-48.86,78.96,6.16
28348.0,-8.222,1.977,1.062,-10.227,-0.902,2.345,-60.55,23.8,-9.17
,-9.806,-4.889,2.632,-11.201,0.859,1.431,-93.1,30.31,-2.17
,-10.491,-6.183,2.735,-11.235,2.094,0.16,-61.18,42.56,3.15
,-9.801,-3.743,2.63,-10.069,2.345,-1.529,-19.6,54.74,6.58
28424.0,-9.246,1.589,-2.886,-9.328,0.029,-2.307,-29.89,86.31,10.78
,-8.392,0.737,-2.386,-9.273,-0.175,-2.922,-33.67,85.96,11.83
,-8.614,0.955,-2.443,-9.129,-0.12,-3.848,-30.17,82.88,13.51
,-9.129,0.646,-2.082,-8.916,-0.048,-3.728,-28.28,79.1,14.35
28500.0,-9.124,-0.337,-3.745,-9.462,-0.352,-3.233,-7.21,62.23,18.06
,-9.488,-0.773,-3.79,-9.323,0.613,-3.314,-2.03,61.32,18.27
,-9.634,-1.237,-3.668,-9.356,1.316,-3.317,1.89,60.13,17.64
,-9.469,-1.113,-3.321,-9.471,1.876,-3.419,5.46,59.01,16.87
28576.0,-9.672,1.756,-3.305,-8.966,-1.869,-3.19,-39.83,46.2,3.5
,-9.725,1.613,-3.51,-9.672,-1.055,-2.79,-54.53,42.63,0.56
,-9.526,1.297,-3.451,-9.911,0.696,-2.594,-65.38,38.78,-0.07
,-8.851,-0.378,-3.434,-9.921,1.601,-2.797,-62.3,37.03,2.38
28652.0,-9.689,1.864,-2.864,-9.502,0.55,-3.948,-9.17,33.32,10.08
,-9.43,1.438,-3.077,-9.347,0.366,-3.867,-21.21,32.97,9.17
,-9.43,0.51,-3.338,-9.435,-0.077,-3.644,-28.14,32.13,8.4
,-9.471,0.285,-3.518,-9.483,-0.194,-3.53,-26.81,30.94,7.7
28728.0,-9.555,0.081,-3.501,-9.742,0.443,-3.24,-5.53,25.34,9.38
,-9.447,0.471,-3.434,-9.653,0.392,-3.345,-2.03,24.64,9.45
,-9.378,0.878,-3.443,-9.426,0.266,-3.419,-1.26,23.87,9.59
,-9.447,0.859,-3.403,-9.325,0.462,-3.508,-2.38,23.38,9.38
28804.0,-9.284,0.775,-3.769,-9.328,0.55,-3.408,5.81,20.93,8.33
,-9.239,0.548,-3.824,-9.402,0.72,-3.477,5.04,20.23,8.54
,-9.232,0.574,-3.62,-9.39,0.945,-3.527,4.83,19.11,8.68
,-9.27,0.644,-3.62,-9.241,1.089,-3.747,3.71,18.13,8.19
28880.0,-9.318,0.943,-3.81,-9.426,0.677,-3.551,2.38,15.26,7.35
,-9.203,0.675,-3.865,-9.409,0.835,-3.465,1.61,14.35,7.49
,-9.122,0.373,-3.762,-9.232,0.639,-3.403,2.31,13.79,7.91
,-9.268,0.452,-3.628,-9.191,0.227,-3.211,3.99,13.16,8.26
28956.0,-9.28,0.376,-3.139,-9.234,0.464,-3.187,7.0,13.58,8.89
,-9.521,0.814,-3.156,-9.182,0.424,-3.175,9.73,13.65,8.68
,-9.294,1.036,-3.187,-9.265,0.749,-3.19,9.03,13.79,8.33
,-9.179,0.749,-3.199,-9.229,1.266,-3.302,7.07,14.28,8.19
29032.0,-9.253,1.22,-3.297,-8.935,0.806,-4.058,4.97,14.98,7.07
,-9.445,1.256,-3.427,-8.906,0.991,-4.176,2.73,14.84,6.23
,-9.399,0.952,-3.644,-9.191,1.268,-4.104,3.08,15.26,5.6
,-9.194,0.79,-3.924,-9.359,1.091,-3.831,5.95,15.26,5.53
29108.0,-9.344,0.596,-3.625,-9.036,0.357,-3.68,7.42,14.42,4.13
,-9.34,0.357,-3.436,-9.241,0.519,-3.697,11.41,14.91,4.69
,-9.158,0.771,-3.587,-9.435,0.687,-3.745,15.68,15.12,5.32
,-9.019,0.572,-3.673,-9.301,0.546,-3.886,16.24,15.89,6.23
29184.0,-9.256,0.309,-4.022,-9.021,0.677,-4.568,19.6,17.22,8.05
,-9.081,0.419,-4.19,-9.014,0.424,-4.673,20.3,17.01,8.05
,-9.021,0.771,-4.381,-8.949,0.4,-4.671,20.02,16.73,7.91
,-9.167,0.938,-4.417,-8.966,0.646,-4.616,17.85,15.96,7.35
29260.0,-9.021,0.854,-4.539,-9.072,0.239,-4.649,24.85,14.07,8.89
,-8.782,0.38,-4.623,-8.863,0.39,-4.544,24.64,13.79,9.17
,-8.818,-0.16,-4.537,-8.923,0.948,-4.374,28.07,13.86,10.57
,-9.11,0.328,-4.606,-8.99,1.062,-4.35,34.79,13.72,12.25
29336.0,-9.007,1.077,-4.31,-8.993,0.141,-4.331,46.13,13.23,16.87
,-9.021,0.991,-4.429,-8.99,1.271,-4.338,47.11,13.44,17.71
,-8.016,1.146,-4.379,-9.32,1.182,-4.334,52.01,14.7,21.0
,-9.557,1.582,-4.195,-9.229,0.531,-4.135,56.28,15.05,23.24
29411.0,-9.036,0.933,-4.207,-9.21,1.058,-3.903,62.16,17.5,21.98
,-9.072,0.885,-4.168,-9.203,1.024,-4.003,60.97,17.99,21.35
,-9.079,0.754,-4.046,-9.122,0.931,-4.092,59.57,18.55,21.14
,-9.129,0.866,-3.963,-9.076,0.694,-4.348,59.85,19.53,21.07
29486.0,-8.959,0.538,-4.587,-8.961,1.012,-4.803,64.96,24.64,20.16
,-8.923,0.816,-4.602,-9.172,0.555,-5.181,67.76,25.2,20.09
,-8.928,1.187,-4.695,-9.016,0.043,-5.456,69.65,25.55,19.67
,-8.942,1.335,-4.769,-8.847,-0.689,-5.575,69.58,26.18,18.83
29561.0,-8.662,-0.804,-5.666,-7.459,-0.299,-5.803,75.81,27.72,19.25
,-8.368,-0.196,-5.822,-7.554,0.103,-5.597,80.01,26.95,19.88
,-8.016,-0.031,-5.937,-7.712,0.608,-5.585,80.64,26.39,20.23
,-7.681,-0.361,-5.827,-7.782,0.718,-5.434,80.92,26.53,21.0
29636.0,-7.837,0.55,-5.556,-8.028,1.05,-5.836,86.87,24.78,24.43
,-7.739,0.648,-5.396,-8.019,0.782,-5.879,86.59,24.15,25.2
,-7.755,0.792,-5.578,-8.038,0.251,-5.963,86.94,23.87,26.04
,-8.05,1.015,-5.717,-7.93,0.014,-6.049,85.89,23.38,26.32
29711.0,-7.918,-0.177,-6.171,-7.746,-0.373,-6.578,79.31,21.07,28.28
,-7.806,-0.223,-6.353,-7.81,-0.4,-6.456,82.18,20.72,28.56
,-7.796,-0.27,-6.466,-7.875,-0.333,-6.691,84.49,20.23,28.98
,-7.767,-0.273,-6.458,-7.813,-0.275,-6.609,86.66,19.53,29.68
29786.0,-7.624,-0.335,-6.628,-7.806,-0.364,-6.011,88.76,14.21,31.5
,-7.638,-0.459,-6.537,-7.751,-0.299,-5.949,88.62,13.58,31.78
,-7.66,-0.462,-6.403,-7.655,-0.304,-5.741,88.69,13.16,32.34
,-7.739,-0.488,-6.155,-7.667,-0.409,-5.824,88.27,12.53,32.34
29861.0,-7.751,-0.589,-5.848,-7.832,-0.861,-5.975,80.29,11.06,30.1
,-7.827,-0.704,-6.047,-7.854,-1.039,-5.903,79.24,10.57,29.19
,-7.904,-0.754,-6.068,-7.88,-1.003,-5.841,77.63,10.22,28.77
,-7.861,-0.794,-5.846,-8.007,-1.117,-6.004,75.88,10.08,28.49
29936.0,-7.935,-1.402,-6.102,-7.782,-1.285,-6.047,77.28,10.15,31.08
,-7.897,-1.498,-5.942,-7.741,-1.213,-6.145,79.73,10.71,33.18
,-7.887,-1.529,-6.097,-7.806,-1.065,-6.265,84.35,11.27,35.56
,-7.83,-1.333,-6.143,-7.851,-1.043,-6.269,89.11,11.9,37.94
30011.0,-7.909,-1.029,-6.305,-7.676,-1.194,-6.267,107.17,13.02,47.81
,-7.82,-0.9,-6.339,-7.681,-1.211,-6.272,108.85,12.88,49.21
,-7.729,-0.979,-6.219,-7.731,-1.218,-6.226,109.48,12.74,50.75
,-7.679,-1.072,-6.277,-7.686,-1.249,-6.171,110.04,12.25,52.22
30086.0,-7.617,-1.263,-6.064,-7.834,-1.333,-5.887,118.93,10.01,58.66
,-7.648,-1.225,-6.066,-7.83,-1.388,-5.75,120.33,9.52,59.71
,-7.708,-1.256,-6.102,-7.851,-1.383,-5.58,121.31,9.03,60.76
,-7.789,-1.28,-6.025,-7.882,-1.419,-5.497,122.08,8.54,61.74
30161.0,-7.944,-1.381,-5.444,-7.961,-1.534,-4.953,127.68,6.58,67.27
,-7.961,-1.455,-5.398,-7.949,-1.598,-4.898,128.73,6.37,68.32
,-7.995,-1.426,-5.284,-7.971,-1.608,-5.042,130.34,6.3,69.65
,-8.031,-1.433,-5.171,-8.023,-1.572,-5.24,131.6,6.37,70.98
30236.0,-8.189,-1.462,-5.252,-8.246,-1.481,-4.958,140.63,5.88,77.07
,-8.284,-1.417,-5.197,-8.399,-1.445,-4.944,141.54,5.46,77.91
,-8.193,-1.45,-5.095,-8.43,-1.371,-4.805,142.1,4.83,78.75
,-8.167,-1.515,-5.037,-8.5,-1.304,-4.633,142.87,4.76,79.73
30311.0,-8.679,-1.299,-4.702,-8.792,-1.91,-4.465,145.81,4.34,82.81
,-8.662,-1.39,-4.618,-8.981,-1.924,-4.621,144.34,4.2,83.23
,-8.591,-1.598,-4.446,-9.052,-1.795,-4.637,144.13,4.34,84.21
,-8.619,-1.84,-4.36,-9.002,-1.67,-4.535,145.6,4.76,85.19
30386.0,-8.921,-1.651,-4.286,-9.198,-1.381,-3.97,155.54,4.34,87.64
,-8.909,-1.57,-4.147,-9.067,-1.376,-3.884,154.07,4.2,87.57
,-9.009,-1.476,-4.178,-8.981,-1.383,-3.664,152.04,3.99,87.22
,-9.119,-1.448,-4.058,-8.94,-1.35,-3.515,148.75,3.64,86.66
30461.0,-8.959,-1.385,-3.484,-9.016,-0.926,-3.388,127.19,2.03,80.36
,-9.028,-1.342,-3.587,-9.072,-0.799,-3.355,122.78,1.26,78.26
,-9.067,-1.297,-3.556,-9.155,-0.909,-3.35,118.09,0.28,75.81
,-9.014,-1.058,-3.384,-9.155,-1.07,-3.36,112.98,-0.35,73.57
30536.0,-9.045,-1.364,-3.412,-8.969,-1.653,-3.455,81.83,-1.54,60.62
,-9.012,-1.663,-3.431,-8.959,-1.642,-3.532,79.52,-1.4,58.52
,-9.031,-1.689,-3.448,-9.016,-1.61,-3.544,80.01,-0.91,57.05
,-9.038,-1.649,-3.475,-9.005,-1.426,-3.506,80.99,0.14,55.79
30611.0,-9.009,-1.125,-3.637,-9.136,-0.969,-3.776,82.11,3.29,52.5
,-9.217,-1.05,-3.766,-9.043,-0.95,-3.783,80.78,2.59,51.59
,-9.337,-1.005,-3.857,-9.028,-0.806,-3.695,78.54,1.47,50.54
,-9.287,-1.017,-3.81,-8.949,-0.574,-3.769,76.44,0.7,50.05
30686.0,-8.981,-0.505,-3.754,-9.318,-0.05,-3.879,76.09,2.52,45.08
,-9.033,-0.282,-3.798,-9.241,-0.361,-3.805,74.41,2.94,43.19
,-9.155,-0.16,-3.891,-9.33,-0.62,-3.666,69.86,2.59,40.67
,-9.237,-0.074,-3.898,-9.296,-0.608,-3.482,64.61,2.1,38.22
30761.0,-9.368,-0.701,-3.561,-9.21,-0.708,-3.281,40.53,-0.7,29.54
,-9.311,-0.725,-3.601,-9.213,-0.579,-3.398,37.73,-0.49,28.14
,-9.261,-0.718,-3.455,-9.182,-0.464,-3.544,35.42,-0.28,26.88
,-9.258,-0.78,-3.427,-9.095,-0.498,-3.788,33.67,0.0,25.48
30836.0,-8.902,-0.603,-3.831,-9.304,-0.89,-3.36,13.93,-1.19,15.19
,-8.787,-0.749,-3.848,-9.399,-0.416,-3.178,9.31,-1.26,12.67
,-8.832,-0.735,-3.821,-9.636,-0.036,-3.317,6.93,-1.19,10.5
,-9.107,-0.9,-3.673,-9.777,0.103,-3.125,5.67,-0.84,9.45
30911.0,-9.787,0.163,-3.163,-9.447,0.158,-3.273,4.13,0.14,10.29
,-9.763,0.323,-3.228,-9.347,-0.01,-3.123,3.29,0.63,10.57
,-9.639,0.194,-3.104,-9.318,-0.005,-3.163,3.29,1.54,10.78
,-9.564,0.168,-3.238,-9.301,-0.077,-3.18,3.01,2.03,10.64
30986.0,-9.213,-0.206,-3.072,-9.363,-0.751,-3.367,-12.67,3.22,6.93
,-9.143,-0.373,-3.252,-9.397,-0.768,-3.496,-15.96,3.22,6.3
,-9.158,-0.397,-3.259,-9.313,-0.278,-3.642,-17.36,3.43,5.95
,-9.299,-0.603,-3.34,-9.22,0.206,-3.891,-16.94,4.27,6.3
31061.0,-9.162,0.517,-3.975,-9.1,-0.943,-3.551,-11.06,4.48,8.05
,-9.261,0.357,-4.039,-9.057,-1.412,-3.326,-17.22,3.78,7.56
,-9.28,-0.235,-4.006,-8.99,-1.359,-3.163,-22.33,3.29,7.98
,-9.076,-0.811,-3.759,-9.072,-0.861,-3.218,-22.12,3.22,8.96
31136.0,-9.471,0.273,-3.259,-9.533,0.491,-3.159,6.23,7.14,15.68
,-9.342,0.835,-3.352,-9.222,1.039,-3.221,0.84,7.21,14.91
,-9.184,0.687,-3.202,-9.215,1.192,-3.537,-6.23,7.42,14.63
,-9.318,0.227,-3.178,-9.158,1.053,-3.652,-9.17,7.91,14.56
31211.0,-8.997,0.369,-3.774,-9.043,-0.883,-4.429,-9.45,9.31,15.33
,-9.069,-0.651,-3.8,-9.213,-0.641,-4.621,-5.95,9.87,16.24
,-9.112,-0.981,-4.027,-9.435,0.069,-5.004,1.26,10.15,17.5
,-9.198,-0.909,-4.276,-9.21,0.632,-5.147,9.52,10.57,18.34
31286.0,-9.04,0.787,-5.178,-9.148,2.046,-3.829,24.99,8.47,18.62
,-9.002,0.333,-4.984,-9.225,2.582,-3.594,23.8,7.42,18.34
,-8.93,0.304,-4.506,-9.32,2.352,-3.563,26.67,6.65,18.48
,-9.016,1.067,-4.042,-9.275,2.024,-3.577,31.5,6.23,18.9
31361.0,-9.103,1.685,-3.575,-9.208,0.603,-3.597,18.76,5.95,12.18
,-9.052,1.445,-3.618,-9.036,0.567,-3.575,15.19,5.53,10.57
,-8.899,1.122,-3.719,-9.076,0.809,-3.659,9.03,5.18,9.24
,-9.093,0.603,-3.577,-9.033,0.926,-3.912,5.81,5.39,8.47
31436.0,-9.033,0.9,-4.054,-9.115,0.859,-4.125,11.97,7.77,8.89
,-9.064,0.694,-4.089,-9.036,1.05,-4.255,12.81,7.7,8.89
,-8.94,0.61,-4.14,-8.859,1.098,-4.185,13.44,7.56,8.89
,-8.966,0.57,-4.061,-9.083,1.283,-4.207,13.58,7.63,8.82
31511.0,-8.997,1.91,-4.293,-9.021,0.522,-3.891,4.97,4.76,5.53
,-8.909,1.938,-4.247,-9.206,0.352,-3.764,-1.19,4.06,4.41
,-8.985,1.472,-4.137,-9.282,0.297,-3.699,-6.23,3.64,3.64
,-9.038,0.902,-4.051,-9.241,0.455,-3.774,-7.56,3.71,3.22
31586.0,-9.088,0.479,-3.927,-9.031,0.682,-3.783,4.41,7.28,2.8
,-8.99,0.354,-3.896,-9.048,0.644,-3.719,4.69,8.12,2.73
,-8.978,0.213,-3.869,-9.122,0.632,-3.613,6.16,8.68,2.87
,-9.028,0.512,-3.819,-8.988,0.89,-3.644,8.4,9.31,2.94
31661.0,-8.99,0.969,-3.687,-8.715,0.658,-4.015,10.15,12.81,3.01
,-9.069,0.926,-3.795,-8.844,0.637,-3.967,10.08,13.3,3.08
,-9.052,0.775,-3.886,-8.854,0.491,-3.967,10.15,13.58,3.01
,-8.765,0.754,-3.977,-8.899,0.275,-3.891,10.08,14.14,3.15
31736.0,-8.973,0.242,-3.833,-8.93,0.574,-3.941,7.28,17.01,3.85
,-8.985,0.292,-3.86,-8.978,0.512,-4.073,9.03,18.06,4.13
,-9.031,0.593,-3.838,-8.949,0.376,-4.082,9.87,19.25,4.13
,-8.969,0.577,-3.874,-9.17,0.558,-4.235,9.1,20.23,3.92
31811.0,-8.906,0.993,-4.465,-8.768,1.034,-4.92,9.59,23.52,3.57
,-8.842,0.888,-4.578,-8.782,0.983,-5.027,7.56,23.66,3.36
,-8.83,0.943,-4.721,-8.866,0.675,-4.937,5.6,23.24,2.73
,-8.658,1.046,-4.882,-8.942,0.802,-4.882,4.27,22.96,2.17
31886.0,-9.005,0.878,-4.913,-9.182,0.452,-4.965,11.06,23.66,3.15
,-9.203,0.888,-4.846,-9.246,0.014,-4.886,11.34,24.01,3.01
,-9.567,0.687,-5.08,-9.179,0.019,-4.843,11.41,24.85,2.66
,-8.607,0.412,-4.975,-9.222,0.361,-4.781,11.34,25.2,2.94
31961.0,-9.179,0.012,-4.659,-10.167,2.912,-4.427,26.32,30.87,4.76
,-9.299,0.275,-4.659,-10.282,2.015,-4.558,29.47,32.27,4.48
,-9.373,0.392,-4.568,-9.438,-1.108,-4.336,31.57,33.67,3.99
,-9.529,1.115,-4.518,-9.201,-1.474,-4.118,33.53,34.79,3.15
32036.0,-9.215,0.498,-4.223,-8.77,-0.443,-4.826,37.31,42.14,1.68
,-9.261,1.354,-4.413,-8.715,-0.139,-4.771,34.72,43.12,-0.63
,-9.0,0.581,-4.673,-8.619,0.479,-4.87,24.99,44.45,-3.57
,-8.897,-0.38,-4.704,-8.567,0.787,-4.786,19.88,45.71,-5.11
32111.0,-8.583,0.78,-4.645,-8.33,0.022,-5.264,21.42,51.38,-7.56
,-8.646,0.763,-4.822,-8.253,-0.292,-5.288,19.81,52.36,-8.05
,-8.617,0.546,-4.934,-8.189,-0.529,-5.264,18.83,53.34,-8.19
,-8.531,0.28,-5.085,-8.1,-0.732,-5.039,19.04,53.9,-7.77
32186.0,-8.052,-0.79,-4.877,-8.346,-1.024,-4.188,30.87,60.06,-0.07
,-8.114,-0.873,-4.465,-8.342,-0.838,-4.269,34.72,62.02,2.24
,-8.294,-0.893,-4.42,-8.356,-1.005,-4.252,39.34,63.77,4.48
,-8.361,-0.849,-4.274,-8.461,-1.378,-4.276,43.4,65.94,6.65
32261.0,-8.512,-1.433,-4.408,-9.134,-2.166,-5.205,57.82,78.05,18.83
,-8.54,-1.723,-4.508,-8.772,-1.364,-5.58,61.53,80.01,21.0
,-8.605,-2.149,-4.625,-8.593,-0.692,-6.274,67.13,81.83,23.66
,-8.928,-2.431,-4.85,-8.251,0.096,-7.38,74.97,83.23,26.95
32336.0,-8.416,0.349,-8.16,-7.877,-0.014,-8.667,67.69,88.62,24.92
,-8.574,0.208,-8.457,-7.222,0.11,-8.942,61.11,93.45,24.99
,-8.789,-0.16,-8.368,-6.908,-0.266,-9.067,59.57,98.49,26.88
,-8.629,-0.263,-8.337,-6.506,-0.704,-8.777,59.5,100.45,27.37
32411.0,-6.269,-1.0,-9.026,-5.8,-2.35,-9.002,34.58,71.75,35.63
,-5.843,-1.424,-9.098,-5.492,-1.804,-8.954,30.03,62.02,37.73
,-5.662,-2.036,-8.957,-5.384,-1.302,-8.753,31.64,52.43,41.44
,-5.738,-2.391,-8.94,-5.642,-1.094,-8.299,37.87,43.12,45.15
32486.0,-5.968,-0.735,-7.887,-5.365,-0.763,-7.935,56.14,-0.7,47.11
,-6.456,-0.428,-7.612,-5.288,-1.175,-7.612,49.35,-13.23,45.5
,-6.368,-0.194,-7.684,-5.188,-1.397,-7.703,38.99,-28.77,43.47
,-5.767,-0.376,-8.035,-5.461,-1.766,-7.66,29.75,-43.82,42.28
32561.0,-5.554,-1.898,-7.722,-5.784,-2.036,-8.399,3.29,-102.13,45.5
,-5.339,-1.977,-8.055,-6.245,-1.95,-7.899,1.4,-112.35,45.43
,-5.468,-1.989,-7.997,-6.48,-1.732,-7.806,0.14,-119.91,45.29
,-5.475,-2.154,-8.145,-6.636,-1.51,-7.693,0.07,-125.86,44.59
32636.0,-6.494,-1.484,-7.631,-6.513,-2.575,-7.308,-3.08,-156.1,45.99
,-6.332,-1.919,-7.676,-6.731,-2.149,-7.176,-7.77,-163.17,46.9
,-6.169,-2.434,-7.674,-6.896,-1.634,-7.229,-8.96,-168.49,47.81
,-6.253,-2.687,-7.621,-6.837,-1.156,-7.552,-4.83,-172.41,48.44
32711.0,-6.882,-1.01,-7.37,-7.542,-0.598,-6.466,8.89,-189.14,42.14
,-7.119,-0.658,-7.205,-7.748,-1.048,-6.143,7.91,-190.19,39.27
,-7.392,-0.397,-6.779,-7.863,-1.496,-5.867,3.29,-192.15,35.7
,-7.519,-0.275,-6.717,-8.133,-1.692,-5.599,-4.41,-194.88,31.92
32786.0,-8.265,-1.61,-5.257,-9.165,-0.5,-3.719,-14.42,-199.15,16.87
,-8.447,-1.347,-4.91,-9.292,-0.309,-3.24,-9.31,-198.17,14.91
,-8.746,-0.993,-4.585,-9.488,-0.321,-2.639,-5.67,-196.21,12.46
,-8.866,-0.727,-4.111,-9.5,-0.258,-2.225,-4.48,-193.41,9.94
32861.0,-9.337,-0.184,-1.697,-9.093,-0.756,-0.969,-13.16,-165.2,-2.17
,-9.416,-0.11,-1.338,-8.837,-0.962,-0.809,-14.42,-155.47,-3.71
,-9.531,-0.23,-1.208,-8.48,-0.555,0.168,-17.64,-145.53,-5.11
,-9.244,-0.479,-1.007,-8.61,0.127,0.359,-20.44,-134.75,-5.67
32936.0,-8.32,0.316,0.524,-7.966,-0.333,0.711,-22.68,-72.87,-7.0
,-8.253,0.136,0.682,-8.033,-0.251,0.443,-29.26,-57.75,-7.14
,-8.222,-0.045,0.826,-8.114,-0.115,0.074,-34.3,-42.42,-7.21
,-8.088,-0.237,0.821,-8.026,0.029,-0.213,-37.87,-27.09,-7.28
33011.0,-8.086,-0.007,-0.514,-10.297,-0.816,-2.077,-52.64,44.45,-3.29
,-7.978,0.129,-0.95,-18.995,-7.26,1.5,-55.16,56.63,-1.82
,-7.897,0.163,-1.307,-20.294,-6.777,6.925,-56.77,67.62,-0.56
,-8.263,0.148,-1.663,-12.644,1.493,0.34,-57.68,76.86,0.56
33086.0,-7.985,5.403,1.335,-9.232,-3.173,2.747,-6.3,13.37,-10.64
,-9.794,-0.952,2.381,-9.722,-3.01,2.393,-73.92,18.13,-3.15
,-10.223,-5.791,2.929,-10.301,-2.498,1.776,-68.25,30.73,6.93
,-9.481,-3.759,3.061,-10.883,-0.452,0.431,-29.89,46.34,8.96
33161.0,-10.191,1.378,-1.113,-8.897,-0.053,-2.955,23.17,89.88,16.03
,-9.225,2.426,-2.414,-9.359,-1.675,-2.831,0.84,84.56,11.34
,-8.488,1.759,-3.013,-9.782,-1.766,-3.245,-21.84,78.82,9.45
,-8.404,0.835,-2.807,-9.873,-0.457,-4.054,-33.53,74.83,9.8
33236.0,-9.301,0.84,-3.996,-9.794,0.263,-3.692,9.94,66.92,17.22
,-8.763,0.969,-4.264,-9.914,1.218,-3.118,10.85,63.42,18.83
,-9.112,0.23,-4.518,-10.077,1.445,-2.714,13.72,59.78,19.11
,-9.39,0.084,-4.377,-9.514,1.275,-2.618,19.95,57.12,18.06
33311.0,-9.282,1.244,-2.747,-9.308,-0.526,-3.439,-17.08,44.17,6.72
,-9.395,1.041,-3.235,-9.459,0.005,-3.163,-28.0,41.37,4.27
,-9.304,0.445,-3.563,-9.651,0.577,-2.869,-32.48,39.62,3.57
,-9.335,-0.256,-3.69,-9.749,1.05,-2.802,-27.93,38.57,4.2
33386.0,-9.71,1.108,-2.888,-9.564,0.565,-2.828,-1.61,31.22,7.42
,-9.45,0.735,-2.931,-9.627,1.295,-2.714,-8.05,30.17,6.79
,-9.418,0.309,-2.912,-9.538,1.668,-2.812,-11.06,29.47,6.93
,-9.627,-0.069,-2.773,-9.507,1.151,-2.706,-9.52,28.98,7.0
33461.0,-9.603,0.51,-2.67,-9.316,0.94,-3.192,-5.53,27.44,6.44
,-9.629,0.589,-2.984,-9.474,0.648,-3.003,-1.68,26.95,6.02
,-9.596,0.677,-3.206,-9.579,0.558,-2.919,0.49,27.09,5.46
,-9.43,0.905,-3.183,-9.629,0.833,-3.197,1.4,27.09,5.18
33536.0,-9.466,0.948,-3.508,-9.208,1.003,-3.941,8.68,26.95,4.48
,-9.227,0.931,-3.635,-9.186,1.362,-3.788,8.33,26.25,4.27
,-9.32,0.809,-3.915,-9.177,1.689,-3.455,7.49,25.13,3.99
,-9.287,0.756,-3.979,-9.273,1.651,-3.3,6.09,23.87,3.64
33611.0,-9.404,1.436,-3.077,-9.347,-0.488,-3.02,-13.51,17.71,1.26
,-9.375,0.787,-3.094,-9.435,0.215,-2.924,-16.17,17.36,0.63
,-9.33,-0.254,-3.034,-9.421,0.89,-2.826,-13.72,18.34,0.77
,-9.481,-0.766,-3.053,-9.34,1.163,-2.869,-4.9,19.88,1.26
33686.0,-9.471,1.058,-2.977,-8.89,0.565,-3.905,-16.38,20.16,-2.73
,-9.598,1.101,-3.262,-9.048,0.419,-3.857,-22.82,19.32,-4.41
,-9.234,1.273,-3.618,-9.194,0.244,-3.769,-28.14,17.99,-5.25
,-8.796,0.928,-3.869,-9.227,0.347,-3.733,-29.82,17.71,-4.62
33761.0,-9.282,0.4,-3.697,-9.074,-0.203,-3.97,-17.92,19.18,-3.43
,-9.194,0.476,-3.74,-8.942,-0.464,-3.867,-18.83,19.32,-3.99
,-9.124,0.333,-3.805,-8.985,-0.134,-3.671,-19.46,19.46,-3.92
,-9.263,0.067,-3.958,-9.016,0.112,-3.446,-18.97,19.32,-3.85
33836.0,-9.112,0.45,-3.223,-9.177,0.019,-3.228,-1.61,22.96,0.14
,-9.182,0.416,-3.137,-9.005,0.189,-3.321,-2.8,23.8,-0.07
,-9.079,0.175,-3.233,-9.04,0.373,-3.23,-2.66,25.2,0.0
,-9.074,0.034,-3.233,-9.038,0.519,-3.307,-0.35,27.02,0.35
33911.0,-9.007,0.462,-3.352,-8.961,0.45,-3.963,3.64,33.11,0.84
,-9.105,0.558,-3.443,-9.007,0.369,-4.207,2.87,34.44,0.28
,-9.191,1.125,-3.711,-9.069,0.605,-4.343,1.54,34.65,-0.91
,-8.947,1.098,-3.927,-9.103,0.869,-4.549,-3.85,35.21,-1.82
33986.0,-9.153,0.869,-4.635,-9.273,0.634,-4.867,-1.4,38.43,-3.64
,-9.246,0.593,-4.683,-9.139,0.364,-4.781,-1.12,39.06,-4.41
,-9.416,0.617,-4.728,-9.797,-1.536,-4.939,1.19,39.97,-5.04
,-9.349,0.723,-4.781,-9.629,0.565,-4.836,2.73,40.53,-5.81
34061.0,-9.837,0.388,-4.657,-10.493,3.884,-4.903,5.18,43.89,-5.25
,-9.732,0.826,-4.834,-10.546,2.355,-4.855,10.71,44.45,-5.39
,-9.552,1.194,-4.81,-9.407,-1.993,-4.235,12.39,45.57,-5.88
,-9.698,1.247,-4.807,-9.318,-1.713,-3.944,12.74,46.48,-6.72
34136.0,-9.643,0.89,-3.754,-9.141,-0.797,-4.025,25.83,54.81,-7.84
,-9.545,1.22,-3.709,-9.206,-0.601,-3.967,21.49,56.91,-10.22
,-9.179,0.127,-3.96,-9.141,-0.239,-3.798,12.88,58.87,-13.51
,-9.079,-0.759,-3.977,-9.115,0.191,-3.829,8.68,60.76,-15.12
34211.0,-9.234,0.361,-3.838,-9.883,-0.756,-3.64,11.34,72.1,-16.38
,-9.471,0.189,-3.905,-10.098,-0.742,-3.171,10.64,74.41,-16.38
,-9.485,-0.261,-4.058,-10.144,-0.866,-2.493,10.5,77.07,-15.33
,-9.651,-0.72,-3.826,-10.278,-0.878,-2.395,14.35,80.36,-12.67
34286.0,-10.108,-1.115,-2.326,-9.45,-1.969,-2.977,53.69,99.75,7.49
,-9.856,-1.776,-2.218,-9.136,-1.749,-3.831,60.06,104.16,13.86
,-10.017,-2.161,-2.314,-8.545,-1.115,-5.15,70.35,108.71,20.72
,-9.732,-2.19,-2.374,-8.385,-0.467,-6.521,83.23,112.56,26.46
34361.0,-8.315,-0.074,-7.284,-8.815,0.608,-9.667,100.1,114.66,28.98
,-8.827,0.129,-7.899,-8.289,0.275,-9.665,89.95,115.57,24.92
,-9.442,0.436,-8.698,-7.825,0.007,-9.742,77.7,115.22,19.18
,-9.643,0.447,-9.263,-7.097,-0.366,-9.483,64.47,112.0,13.58
34436.0,-6.619,-0.861,-9.823,-4.678,-2.422,-9.737,43.75,68.25,16.38
,-5.762,-1.385,-9.962,-4.515,-2.659,-9.634,36.89,55.58,19.11
,-5.413,-1.919,-9.895,-4.858,-2.431,-9.074,32.06,43.19,22.68
,-5.073,-2.345,-9.655,-4.896,-1.816,-8.454,31.01,31.64,27.02
34511.0,-5.425,-1.29,-7.861,-5.212,-1.091,-8.174,48.58,-16.24,40.53
,-5.958,-0.505,-7.674,-4.819,-1.601,-8.232,41.65,-31.57,38.36
,-6.109,-0.11,-7.664,-4.336,-1.704,-8.301,26.04,-50.12,35.98
,-5.709,-0.38,-7.911,-3.96,-1.874,-8.382,10.01,-69.02,34.23
34586.0,-4.343,-2.276,-8.253,-4.951,-2.17,-8.186,-11.34,-123.34,35.56
,-4.788,-2.936,-7.952,-4.925,-2.166,-8.033,-10.99,-131.25,34.58
,-5.188,-2.903,-7.81,-5.226,-1.941,-7.758,-7.07,-140.21,33.81
,-5.185,-2.484,-8.069,-5.626,-1.61,-7.76,-4.83,-149.45,33.67
34661.0,-5.863,-1.436,-7.712,-5.966,-1.273,-7.746,-16.31,-172.97,35.91
,-6.174,-1.211,-7.595,-6.121,-1.182,-7.71,-19.53,-179.2,35.21
,-6.26,-1.122,-7.856,-6.308,-0.986,-7.858,-24.15,-186.2,34.23
,-5.889,-1.173,-7.889,-6.435,-0.916,-7.913,-26.74,-190.61,33.46
34736.0,-6.738,-0.79,-7.748,-7.798,-1.06,-6.64,-33.11,-206.36,23.87
,-6.899,-0.668,-7.854,-7.825,-0.931,-6.387,-35.21,-209.3,21.42
,-6.87,-0.718,-7.839,-7.94,-1.012,-6.222,-36.61,-212.17,19.11
,-7.21,-0.938,-7.14,-8.265,-0.979,-5.822,-34.65,-212.8,17.15
34811.0,-8.76,-0.943,-5.319,-9.765,-0.541,-2.51,-38.15,-218.19,7.21
,-9.296,-0.849,-4.74,-9.627,-0.428,-1.984,-37.87,-215.25,6.09
,-9.545,-0.629,-4.245,-9.548,-0.273,-1.548,-38.71,-211.19,4.76
,-9.787,-0.581,-3.458,-9.387,-0.364,-0.926,-40.11,-205.8,3.22
34886.0,-8.976,-0.637,-0.041,-8.093,-1.108,1.515,-55.09,-155.61,-4.76
,-9.095,-0.718,-0.512,-8.007,-1.295,1.855,-54.95,-142.17,-6.93
,-8.452,-0.699,0.026,-7.779,-0.806,2.321,-55.65,-127.82,-8.54
,-8.119,-1.103,1.445,-7.748,-0.354,2.24,-49.21,-109.83,-7.14
34961.0,-7.717,-0.081,1.969,-7.949,0.261,-0.409,-27.79,-5.81,3.36
,-7.784,0.287,1.402,-8.031,0.22,-1.039,-29.12,15.26,5.46
,-7.887,0.529,0.878,-7.954,0.335,-1.749,-32.83,34.72,6.79
,-7.906,0.366,0.29,-8.576,-0.098,-2.199,-38.85,52.78,7.7
35036.0,-15.094,-3.939,-1.433,-8.124,0.488,3.178,-62.3,93.17,11.9
,-23.101,-10.591,9.844,-8.538,-5.537,3.577,-24.29,48.79,24.78
,-16.657,-3.314,0.715,-9.313,-3.338,3.754,13.86,28.84,14.07
,-7.131,3.836,2.015,-7.681,-1.165,3.29,-12.32,31.78,-12.46
35111.0,-10.328,-2.185,3.367,-7.16,2.211,-3.678,-43.82,103.46,18.83
,-11.783,-1.893,0.512,-7.447,0.916,-4.654,-30.52,112.42,19.95
,-11.395,0.749,-2.974,-8.15,-0.208,-5.867,-22.47,110.88,15.47
,-8.313,2.668,-3.218,-8.595,-0.517,-5.954,-27.79,107.59,11.9
35186.0,-8.993,0.364,-5.305,-9.261,-1.129,-4.762,-15.96,84.28,20.51
,-9.253,1.579,-5.083,-9.502,-0.692,-4.456,-1.33,79.59,22.96
,-9.356,1.522,-5.226,-9.84,1.012,-4.432,-1.12,75.11,22.96
,-9.198,0.134,-4.865,-9.507,1.929,-4.484,0.42,71.68,23.31
35261.0,-9.215,2.312,-4.578,-9.49,-1.029,-4.989,-23.87,52.15,5.88
,-9.048,1.529,-4.791,-9.55,-0.292,-4.64,-49.98,48.09,4.06
,-9.076,-0.038,-4.877,-9.16,0.031,-3.9,-63.28,44.52,2.52
,-8.997,-0.94,-4.977,-9.411,-0.158,-2.876,-58.94,42.0,2.8
35336.0,-9.876,0.625,-2.438,-9.215,0.849,-3.319,-4.13,31.01,11.2
,-10.136,1.651,-2.405,-9.34,0.036,-3.604,-2.94,30.52,10.01
,-9.828,2.438,-2.599,-9.395,-0.06,-3.97,-10.99,29.19,8.54
,-9.189,2.151,-3.096,-9.538,0.299,-4.334,-21.98,28.84,8.19
35411.0,-9.282,0.782,-4.436,-9.459,0.744,-3.419,-9.03,23.45,6.93
,-9.337,0.763,-4.221,-9.505,0.579,-3.451,-6.65,22.75,7.14
,-9.43,1.0,-3.989,-9.464,0.254,-3.226,-7.0,21.49,6.3
,-9.378,0.964,-3.637,-9.457,0.091,-3.216,-9.73,20.79,5.67
35486.0,-9.347,0.352,-3.314,-9.165,0.438,-3.565,-7.91,19.74,3.71
,-9.244,0.352,-3.269,-9.232,-0.055,-3.549,-6.23,20.16,3.78
,-9.251,0.778,-3.367,-9.304,-0.232,-3.597,-5.67,19.74,3.85
,-9.237,0.84,-3.467,-9.229,-0.201,-3.575,-7.56,19.67,3.64
35561.0,-9.241,-0.089,-3.58,-9.225,0.357,-3.699,3.29,22.05,6.02
,-9.299,-0.024,-3.599,-8.926,0.268,-3.556,6.72,22.75,6.79
,-9.399,0.124,-3.637,-8.988,0.168,-3.391,9.24,23.31,7.07
,-9.447,0.251,-3.623,-9.16,0.034,-3.187,11.06,23.59,7.0
35636.0,-9.284,0.12,-3.075,-9.127,1.689,-2.979,22.12,28.7,9.03
,-9.423,0.28,-2.883,-8.928,0.976,-3.089,25.41,30.1,8.89
,-9.689,1.709,-3.013,-9.067,0.759,-3.166,22.26,28.21,6.86
,-8.93,2.436,-3.125,-9.115,1.101,-3.29,10.22,27.72,5.6
35711.0,-9.244,1.237,-3.592,-9.194,-0.026,-5.142,2.17,30.59,3.78
,-9.258,0.981,-3.917,-9.162,-0.089,-5.238,0.28,31.01,2.87
,-9.067,0.462,-4.353,-9.064,-0.108,-5.188,-0.98,31.36,2.45
,-9.172,-0.005,-4.815,-9.124,-0.098,-4.989,1.12,31.78,2.59
35786.0,-9.289,0.127,-4.69,-8.993,0.266,-3.723,13.51,31.08,4.97
,-9.172,0.34,-4.477,-9.366,0.562,-3.735,13.93,31.08,5.6
,-9.174,0.493,-4.13,-9.399,0.974,-3.79,13.51,31.5,6.23
,-9.162,0.304,-3.893,-9.526,0.773,-4.037,13.37,32.41,6.37
35861.0,-9.306,0.845,-4.13,-9.234,0.754,-4.657,11.83,37.66,4.9
,-9.313,0.524,-4.346,-9.244,1.232,-4.8,13.23,39.34,4.34
,-9.11,0.584,-4.515,-9.366,1.108,-4.712,15.33,40.67,4.06
,-9.11,0.603,-4.606,-9.316,0.857,-4.547,17.01,41.37,3.85
35936.0,-9.38,0.723,-4.499,-10.562,3.8,-4.133,25.9,46.97,0.7
,-9.375,0.637,-4.424,-10.546,2.527,-4.147,28.49,48.65,0.35
,-9.363,0.646,-4.279,-9.395,-1.778,-3.745,30.66,50.26,0.0
,-9.672,1.132,-4.286,-9.124,-2.032,-3.494,33.11,51.94,-0.84
36011.0,-9.481,0.316,-3.494,-9.043,-1.783,-3.699,36.54,62.3,-4.76
,-9.483,1.024,-3.592,-9.361,-0.696,-3.807,32.69,64.75,-6.3
,-9.115,-0.385,-3.647,-9.445,0.357,-3.939,23.73,67.62,-8.33
,-8.949,-1.682,-3.716,-9.483,0.457,-4.018,21.0,70.14,-8.68
36086.0,-9.421,-0.139,-3.936,-9.806,-1.5,-2.982,25.27,81.69,-9.66
,-9.402,-0.634,-3.934,-9.938,-1.34,-2.745,24.22,83.72,-8.19
,-9.591,-1.091,-3.903,-9.643,-1.125,-2.486,29.54,86.24,-5.18
,-9.77,-1.371,-3.321,-9.505,-0.711,-3.352,38.99,89.46,-1.12
36161.0,-8.787,-0.823,-4.209,-7.997,-2.173,-6.346,80.15,102.97,20.23
,-7.99,-1.608,-5.162,-8.751,-0.876,-7.035,78.26,104.44,21.0
,-7.463,-2.491,-6.353,-9.306,0.273,-6.877,78.12,105.56,21.56
,-7.325,-2.625,-6.872,-9.454,0.706,-6.966,81.62,108.5,21.07
36236.0,-9.244,0.979,-7.341,-7.765,0.347,-8.923,58.94,112.77,10.43
,-8.871,1.096,-7.806,-7.21,-0.335,-9.296,44.24,105.35,7.07
,-8.229,0.972,-8.39,-6.722,-1.015,-9.316,34.93,97.65,5.6
,-8.098,0.893,-8.904,-6.059,-1.371,-9.545,28.28,90.09,4.83
36311.0,-5.229,-1.682,-9.828,-5.961,-1.012,-8.729,12.6,36.61,10.01
,-4.58,-2.312,-10.067,-5.645,-0.665,-8.421,21.56,33.67,14.35
,-5.164,-2.838,-9.194,-5.688,-0.584,-7.892,33.46,30.94,17.64
,-6.042,-2.103,-8.619,-5.468,-0.692,-7.87,46.83,22.26,19.46
36386.0,-5.128,-1.065,-7.98,-4.731,-1.5,-8.461,24.15,-41.93,29.75
,-5.13,-1.29,-8.045,-4.111,-1.989,-8.71,21.91,-54.32,31.64
,-5.363,-1.421,-8.119,-4.556,-2.252,-8.284,20.86,-67.06,33.53
,-5.13,-1.378,-8.145,-5.41,-2.479,-7.82,19.32,-80.99,35.14
36461.0,-5.822,-1.938,-8.014,-5.406,-1.273,-8.452,23.17,-120.68,34.86
,-6.119,-1.254,-8.114,-5.425,-1.797,-8.531,18.34,-129.5,34.3
,-5.973,-0.976,-8.272,-5.456,-2.197,-8.332,7.91,-138.53,35.07
,-5.702,-1.027,-8.37,-5.587,-2.268,-8.102,-3.99,-146.3,36.82
36536.0,-5.817,-2.022,-8.04,-5.901,-1.048,-8.265,-12.32,-175.21,40.67
,-5.999,-1.711,-7.921,-6.159,-0.916,-8.004,-13.02,-180.11,40.88
,-6.109,-1.481,-7.861,-6.358,-0.732,-8.248,-16.03,-185.22,40.88
,-6.159,-1.173,-8.126,-6.25,-0.61,-8.234,-20.3,-190.54,40.04
36611.0,-6.741,-0.608,-8.014,-7.387,-0.754,-7.473,-28.56,-206.85,30.38
,-6.832,-0.639,-7.822,-7.432,-0.821,-7.246,-31.5,-210.77,27.65
,-7.054,-0.668,-7.753,-7.892,-0.876,-6.798,-33.88,-215.04,24.78
,-7.193,-0.672,-7.705,-8.562,-0.809,-6.332,-36.12,-218.75,21.56
36686.0,-8.827,-0.601,-5.961,-9.639,-0.517,-2.699,-41.02,-226.94,6.16
,-9.16,-0.318,-5.353,-8.662,-1.326,-0.491,-44.17,-225.47,3.85
,-9.701,-0.108,-4.817,-9.15,-1.251,-0.28,-50.61,-222.67,1.26
,-9.837,-0.239,-3.989,-9.426,-0.672,-0.983,-58.24,-217.14,-1.54
36761.0,-9.177,-0.438,-1.318,-7.174,-0.598,2.515,-50.12,-150.43,-7.98
,-7.94,-0.684,0.838,-6.779,-0.005,2.632,-46.27,-129.92,-6.93
,-7.775,-1.522,1.685,-6.822,0.05,2.568,-37.45,-107.24,-5.04
,-7.574,-1.304,1.972,-7.073,0.443,2.034,-27.72,-84.28,-3.01
36836.0,-7.246,1.043,1.151,-21.845,-9.21,6.071,-42.56,44.03,7.35
,-7.43,1.07,0.194,-19.672,-6.671,3.171,-53.55,66.08,7.35
,-8.098,0.457,-0.663,-8.263,1.799,1.443,-65.38,84.56,6.93
,-10.759,-1.153,-1.445,-5.98,1.761,1.876,-76.58,94.22,6.65
36911.0,-9.624,-4.786,2.838,-12.261,-0.017,-0.189,-93.66,53.27,-0.77
,-10.033,-5.736,2.575,-11.077,1.524,-1.917,-66.01,65.45,4.48
,-8.945,-2.477,2.216,-8.808,3.08,-3.173,-35.91,78.82,9.94
,-10.861,-1.184,1.926,-7.133,2.946,-4.549,-24.01,93.52,13.93
36986.0,-7.621,0.912,-5.75,-9.217,1.586,-5.793,-54.11,101.85,10.22
,-8.344,-0.294,-6.243,-9.545,0.445,-5.839,-48.58,96.25,12.6
,-8.418,-0.048,-6.104,-9.619,-1.431,-5.116,-33.53,88.27,13.93
,-8.696,0.897,-5.609,-9.574,-2.347,-4.319,-19.53,81.41,14.77
37061.0,-9.608,-1.859,-4.274,-9.469,1.785,-3.64,8.96,62.93,17.57
,-9.39,-0.38,-4.192,-9.469,1.352,-3.317,18.13,60.2,14.7
,-9.284,1.094,-3.941,-9.462,1.079,-3.168,15.89,56.7,11.27
,-9.387,1.819,-3.879,-9.363,0.519,-3.013,0.63,52.5,8.05
37136.0,-9.361,-0.014,-3.269,-9.452,0.543,-3.082,-57.19,36.96,0.42
,-9.495,-0.464,-3.336,-9.658,1.146,-3.197,-42.77,36.82,2.73
,-9.615,-0.103,-3.458,-9.713,1.543,-3.446,-26.53,35.63,6.3
,-9.495,0.215,-3.331,-9.524,1.596,-3.477,-11.97,34.86,10.29
37211.0,-9.155,0.974,-3.412,-9.593,1.548,-3.664,-14.07,29.75,8.47
,-9.529,0.294,-3.52,-9.39,1.385,-3.74,-17.64,28.98,7.28
,-9.761,0.79,-3.582,-9.366,0.747,-3.716,-18.06,26.46,5.32
,-9.488,1.46,-3.776,-9.507,0.438,-3.707,-17.57,24.64,4.41
37286.0,-9.213,0.258,-3.666,-9.299,0.108,-3.814,-15.4,19.74,1.75
,-9.361,0.103,-3.585,-9.256,-0.177,-3.754,-14.28,19.32,2.1
,-9.555,0.347,-3.707,-9.337,0.007,-3.881,-14.0,18.41,1.68
,-9.418,0.447,-3.81,-9.402,0.258,-3.831,-15.96,17.99,1.4
37361.0,-9.232,0.349,-3.934,-9.237,0.349,-3.348,-5.18,15.05,3.15
,-9.287,0.275,-3.836,-9.268,0.383,-3.168,-3.29,14.77,3.43
