Timestamp,AccX,AccY,AccZ,GyroX,GyroY,GyroZ,MagnX,MagnY,MagnZ
0.0,-9.746,1.015,-1.685,-9.734,0.895,-1.553,1.82,2.03,0.56
,-9.732,1.108,-1.723,-9.72,0.873,-1.634,1.68,2.24,0.63
,-9.701,0.993,-1.594,-9.753,0.916,-1.656,0.84,2.24,0.49
,-9.749,0.931,-1.594,-9.749,1.003,-1.756,1.26,2.52,0.63
76.0,-9.734,1.039,-1.754,-9.694,1.094,-1.804,3.92,2.94,1.05
,-9.72,0.993,-1.704,-9.689,1.089,-1.847,3.85,2.8,0.84
,-9.72,1.015,-1.689,-9.667,1.079,-1.857,3.99,2.73,0.84
,-9.639,1.024,-1.783,-9.742,1.053,-1.845,4.2,2.8,0.77
152.0,-9.706,0.964,-1.84,-9.66,1.027,-1.866,2.52,2.31,0.63
,-9.672,0.988,-2.005,-9.701,1.122,-1.89,2.87,2.17,0.98
,-9.665,0.957,-1.895,-9.689,1.027,-1.78,3.22,1.82,1.05
,-9.701,0.995,-1.919,-9.701,1.012,-1.855,3.5,1.68,1.12
227.0,-9.675,1.048,-1.821,-9.713,0.957,-1.622,3.22,1.4,0.91
,-9.686,1.094,-1.802,-9.732,0.967,-1.646,3.15,1.47,0.91
,-9.682,1.022,-1.653,-9.837,0.835,-1.536,2.45,1.54,0.77
,-9.753,0.988,-1.709,-9.787,0.912,-1.68,2.38,1.82,0.7
302.0,-9.708,0.94,-1.665,-9.71,0.998,-1.792,4.27,2.03,1.4
,-9.646,1.084,-1.749,-9.756,0.9,-1.737,4.48,1.96,1.33
,-9.672,1.199,-1.756,-9.732,0.967,-1.728,4.13,2.24,1.19
,-9.672,1.101,-1.665,-9.696,1.041,-1.852,3.15,2.45,1.12
378.0,-9.665,1.039,-1.816,-9.708,0.909,-1.96,4.2,2.59,1.26
,-9.679,1.084,-1.807,-9.682,0.981,-1.933,3.78,2.66,1.19
,-9.732,1.137,-1.943,-9.706,1.129,-1.922,3.5,2.52,1.05
,-9.675,0.979,-1.821,-9.694,1.163,-1.991,2.87,2.31,1.05
453.0,-9.61,1.096,-1.991,-9.682,1.036,-1.969,2.03,1.68,0.7
,-9.663,1.127,-2.048,-9.703,0.991,-1.833,1.12,1.54,0.49
,-9.71,0.957,-1.993,-9.73,0.981,-1.759,0.49,1.4,0.35
,-9.703,0.936,-1.924,-9.777,0.921,-1.701,0.98,1.12,0.49
529.0,-9.701,0.914,-1.656,-9.713,1.096,-1.498,2.1,0.63,1.26
,-9.763,0.952,-1.653,-9.703,1.067,-1.498,2.66,0.56,1.33
,-9.727,0.991,-1.61,-9.746,1.046,-1.546,2.94,0.63,1.26
,-9.672,1.098,-1.517,-9.684,1.01,-1.56,2.8,1.12,1.12
605.0,-9.727,0.921,-1.579,-9.631,1.208,-1.721,2.94,2.52,0.7
,-9.777,0.94,-1.661,-9.665,1.158,-1.711,3.85,2.59,1.12
,-9.751,0.945,-1.608,-9.708,1.005,-1.57,4.55,2.73,1.4
,-9.684,1.079,-1.661,-9.746,0.852,-1.531,5.46,3.01,1.61
681.0,-9.746,0.852,-1.498,-9.639,1.141,-1.704,3.29,4.34,0.91
,-9.746,0.988,-1.555,-9.672,1.082,-1.697,4.34,4.27,1.12
,-9.667,1.129,-1.651,-9.698,1.065,-1.701,5.04,4.62,1.19
,-9.694,1.175,-1.63,-9.756,0.991,-1.589,4.9,5.04,1.19
757.0,-9.727,1.041,-1.658,-9.753,1.053,-1.802,4.76,6.44,0.56
,-9.665,1.039,-1.61,-9.634,1.137,-1.768,5.04,6.51,0.63
,-9.694,1.017,-1.63,-9.663,1.041,-1.871,5.46,6.72,0.84
,-9.715,1.058,-1.639,-9.696,0.976,-1.785,6.16,6.93,0.98
832.0,-9.722,0.95,-1.63,-9.627,1.139,-1.847,5.53,8.47,0.63
,-9.686,1.048,-1.737,-9.648,0.993,-1.814,6.23,8.82,0.7
,-9.629,1.141,-1.677,-9.675,0.89,-1.697,6.09,9.24,0.42
,-9.658,1.156,-1.783,-9.665,0.893,-1.718,5.53,9.59,0.21
908.0,-9.701,1.015,-1.804,-9.631,1.015,-1.91,5.74,11.69,-0.49
,-9.576,1.031,-1.864,-9.576,0.952,-1.986,5.74,12.32,-0.77
,-9.576,1.077,-1.831,-9.579,0.912,-1.924,5.46,12.67,-0.91
,-9.66,1.074,-1.905,-9.605,0.909,-2.003,4.9,13.09,-0.91
984.0,-9.694,0.888,-2.063,-9.591,0.885,-2.436,6.16,14.14,-0.21
,-9.629,0.938,-2.175,-9.55,0.9,-2.429,6.79,13.86,0.07
,-9.598,0.883,-2.28,-9.593,0.845,-2.465,7.0,14.0,0.28
,-9.598,0.931,-2.338,-9.586,0.842,-2.474,7.14,14.07,0.56
1060.0,-9.586,0.928,-2.505,-9.552,0.835,-2.453,8.61,12.53,1.82
,-9.591,0.964,-2.493,-9.533,0.888,-2.541,8.82,12.25,1.96
,-9.545,0.948,-2.472,-9.579,0.976,-2.632,8.54,12.11,2.03
,-9.636,0.854,-2.462,-9.457,1.017,-2.563,8.4,11.97,2.24
1135.0,-9.407,1.101,-2.606,-9.493,0.962,-2.735,9.03,11.06,2.17
,-9.464,1.07,-2.563,-9.454,0.933,-2.754,8.26,11.2,2.1
,-9.545,1.024,-2.62,-9.426,0.859,-2.67,8.19,11.2,2.1
,-9.541,0.964,-2.611,-9.521,0.928,-2.74,8.33,11.13,2.31
1211.0,-9.572,0.926,-2.795,-9.435,0.787,-2.907,7.91,10.71,2.17
,-9.497,0.885,-2.845,-9.447,0.893,-2.96,7.21,10.64,2.1
,-9.526,0.873,-2.862,-9.421,0.928,-2.907,6.58,10.5,1.96
,-9.509,0.845,-2.929,-9.375,0.993,-2.843,6.44,10.5,2.17
1286.0,-9.462,0.909,-2.793,-9.447,1.053,-2.627,5.46,9.73,2.31
,-9.474,0.948,-2.757,-9.426,1.034,-2.678,4.97,9.87,2.1
,-9.529,0.893,-2.661,-9.442,1.022,-2.69,4.9,9.94,1.89
,-9.447,0.943,-2.572,-9.385,0.955,-2.613,4.97,10.36,1.96
1362.0,-9.462,0.974,-2.594,-9.45,0.751,-2.702,2.31,12.39,1.12
,-9.462,0.945,-2.678,-9.442,0.847,-2.635,2.1,12.74,1.05
,-9.493,0.823,-2.663,-9.469,0.969,-2.678,1.54,12.88,1.12
,-9.572,0.723,-2.718,-9.344,0.976,-2.783,2.31,12.74,1.33
1438.0,-9.375,0.964,-2.864,-9.304,1.024,-3.135,6.44,13.79,2.24
,-9.392,0.962,-2.938,-9.299,1.019,-3.257,6.65,14.0,2.24
,-9.332,0.933,-2.991,-9.251,1.072,-3.254,6.86,14.14,2.31
,-9.323,1.017,-3.029,-9.237,1.017,-3.276,7.21,14.28,2.24
1514.0,-9.277,0.96,-3.295,-9.155,1.117,-3.671,5.95,13.93,1.26
,-9.284,0.919,-3.396,-9.206,1.117,-3.764,6.16,13.72,1.33
,-9.335,0.936,-3.489,-9.189,1.058,-3.757,6.79,13.44,1.33
,-9.318,1.022,-3.616,-9.28,0.988,-3.716,7.42,13.09,1.47
1590.0,-9.234,0.991,-3.692,-9.332,0.816,-3.23,3.85,10.99,1.26
,-9.15,1.06,-3.542,-9.397,0.684,-3.178,3.15,11.06,1.19
,-9.15,1.125,-3.477,-9.426,0.641,-3.089,1.89,11.13,0.77
,-9.277,1.019,-3.302,-9.387,0.756,-3.235,0.35,11.2,0.42
1665.0,-9.284,0.95,-3.278,-9.261,0.972,-3.477,7.84,10.78,1.96
,-9.184,1.065,-3.429,-9.251,0.861,-3.582,8.47,10.57,2.1
,-9.167,1.067,-3.405,-9.177,0.873,-3.661,8.12,10.78,2.1
,-9.203,1.024,-3.448,-9.21,0.9,-3.697,7.77,10.85,2.1
1741.0,-9.091,1.015,-3.719,-9.21,0.905,-3.862,8.26,10.43,1.89
,-9.076,1.12,-3.788,-9.179,0.763,-3.843,7.28,10.57,1.68
,-9.134,1.065,-3.81,-9.165,0.766,-3.814,5.81,10.43,1.33
,-9.244,0.976,-3.893,-9.136,0.905,-3.819,4.69,10.15,1.33
1817.0,-9.131,0.928,-3.817,-9.139,0.828,-3.814,7.14,8.54,2.8
,-9.143,0.857,-3.75,-9.11,0.943,-3.793,6.79,8.54,2.59
,-9.139,0.806,-3.802,-9.107,1.01,-3.814,6.65,8.33,2.38
,-9.141,0.778,-3.795,-9.081,1.094,-3.838,7.0,7.98,2.17
1893.0,-9.088,1.06,-3.917,-9.048,0.991,-4.073,6.51,7.7,1.33
,-9.112,0.948,-3.982,-9.074,0.938,-4.078,6.16,7.56,1.26
,-9.112,0.981,-4.015,-9.131,0.873,-4.109,6.23,7.21,1.26
,-9.04,0.969,-4.03,-9.141,0.759,-4.07,6.44,6.86,1.26
1968.0,-9.127,0.79,-3.987,-9.002,0.979,-4.032,4.55,5.88,0.84
,-9.148,0.821,-3.999,-9.064,1.031,-3.92,4.55,5.67,0.77
,-9.136,0.9,-4.001,-9.043,0.983,-3.874,4.55,5.46,0.77
,-8.966,0.967,-3.886,-9.124,0.857,-3.915,4.2,5.46,0.63
2044.0,-9.074,0.916,-3.97,-9.024,0.924,-4.022,3.99,4.69,0.91
,-9.081,0.986,-4.015,-9.05,0.876,-3.946,4.13,4.55,0.91
,-9.019,0.991,-4.037,-9.033,0.883,-3.855,3.85,4.2,0.63
,-8.995,0.979,-4.022,-9.005,0.89,-3.831,3.5,4.2,0.63
2119.0,-9.062,0.926,-3.771,-9.016,0.981,-3.865,4.62,3.99,0.98
,-9.124,0.955,-3.824,-9.074,0.885,-3.853,4.62,4.06,1.05
,-9.095,0.969,-3.776,-9.091,0.83,-3.836,4.62,3.99,0.84
,-9.074,0.955,-3.807,-9.055,0.857,-3.929,4.41,4.34,0.7
2195.0,-9.036,0.883,-3.903,-9.05,0.811,-4.118,4.06,4.69,0.77
,-8.976,0.945,-3.979,-9.002,0.861,-4.123,3.99,4.69,0.77
,-9.012,0.861,-3.96,-9.038,0.893,-4.066,3.71,4.62,0.7
,-9.081,0.859,-4.075,-9.036,0.885,-4.058,3.64,4.55,0.63
2271.0,-9.036,0.885,-3.984,-8.961,0.969,-4.006,4.62,3.85,1.19
,-8.988,0.883,-3.939,-8.983,0.979,-4.099,4.76,3.78,1.12
,-9.043,0.964,-3.922,-8.942,0.979,-3.991,4.76,3.85,1.05
,-9.028,1.007,-4.008,-9.0,0.864,-4.164,4.83,3.92,0.98
2347.0,-8.993,0.861,-4.168,-9.026,0.9,-4.25,3.71,3.5,0.84
,-8.952,0.864,-4.252,-9.033,0.823,-4.312,4.27,3.43,1.05
,-8.993,1.007,-4.255,-9.024,0.778,-4.2,4.13,3.01,1.05
,-9.024,1.034,-4.302,-8.959,0.802,-4.219,3.5,2.66,0.84
2422.0,-8.997,0.897,-4.149,-8.973,0.873,-4.013,3.36,1.61,1.05
,-8.945,1.029,-4.106,-9.021,0.89,-4.006,2.94,1.54,0.91
,-8.947,0.983,-4.089,-9.04,0.859,-4.03,2.24,1.54,0.63
,-9.021,0.919,-4.02,-8.99,0.931,-4.013,2.03,1.54,0.35
2498.0,-8.947,1.01,-4.02,-9.019,0.869,-4.003,3.08,1.12,0.42
,-8.983,1.086,-4.082,-9.062,0.833,-3.97,2.66,1.4,0.28
,-8.969,1.046,-4.013,-9.024,0.811,-3.989,1.82,1.68,0.07
,-8.961,1.015,-3.982,-9.007,0.83,-4.027,1.12,1.82,-0.07
2574.0,-9.069,0.83,-4.037,-8.906,1.182,-4.106,1.96,1.68,0.14
,-9.06,0.782,-4.006,-8.99,0.883,-4.13,2.45,1.54,0.21
,-9.002,0.914,-4.018,-9.021,0.632,-4.161,3.43,1.26,0.35
,-8.902,1.139,-4.073,-9.007,0.751,-4.063,3.71,1.47,0.28
2650.0,-8.983,0.775,-3.975,-9.016,0.696,-3.927,3.36,1.19,0.91
,-9.055,0.72,-3.987,-9.052,0.888,-4.022,2.94,1.19,0.56
,-9.141,0.651,-3.91,-8.923,1.115,-4.018,2.24,1.26,0.21
,-9.057,0.613,-3.879,-8.933,1.031,-3.972,2.31,1.19,0.07
2726.0,-9.021,0.852,-3.927,-8.985,0.775,-3.802,0.28,1.82,-0.07
,-9.088,0.713,-3.867,-9.067,0.768,-3.774,1.05,1.96,0.21
,-9.131,0.677,-3.869,-9.16,0.684,-3.814,2.38,1.89,0.42
,-9.062,0.66,-3.872,-9.438,0.519,-3.759,3.71,2.03,0.77
2801.0,-9.268,0.079,-3.814,-9.04,0.546,-4.015,8.47,0.91,3.57
,-9.024,0.074,-3.915,-9.055,0.61,-4.02,11.97,0.28,4.2
,-9.172,0.29,-4.003,-9.177,0.785,-4.025,14.91,-0.14,4.41
,-9.057,0.438,-3.967,-9.239,0.969,-4.089,16.52,-0.42,4.55
2877.0,-8.818,1.113,-4.18,-9.15,0.78,-4.216,21.35,-2.03,6.65
,-8.581,1.653,-4.329,-9.048,0.955,-4.334,22.05,-1.82,6.44
,-8.66,1.706,-4.245,-8.595,1.515,-4.491,18.9,-1.61,5.67
,-8.99,1.194,-4.238,-8.476,1.79,-4.381,15.89,-1.47,5.81
2952.0,-9.418,0.787,-4.142,-8.746,1.326,-4.13,14.42,-2.66,6.65
,-9.521,-0.615,-3.989,-8.502,2.587,-4.331,14.91,-3.99,7.63
,-9.447,-0.962,-3.75,-8.485,2.596,-4.535,22.33,-4.83,8.82
,-8.993,0.014,-3.886,-9.064,1.601,-4.556,31.57,-5.39,10.22
3028.0,-9.411,0.414,-4.377,-9.16,1.223,-4.178,2.8,-1.61,5.18
,-9.179,-0.043,-4.271,-9.485,0.392,-4.044,5.46,-1.96,6.02
,-8.878,0.799,-4.279,-9.447,-0.196,-3.903,10.08,-1.96,6.72
,-8.837,1.548,-4.355,-9.301,-0.321,-3.86,8.19,-1.05,6.3
3104.0,-9.213,0.089,-3.927,-9.28,0.471,-4.307,3.29,-0.49,7.56
,-9.323,0.242,-4.133,-9.134,0.373,-4.223,1.75,-0.42,7.98
,-9.368,0.182,-4.216,-8.954,0.404,-4.147,-0.98,-0.49,7.98
,-9.237,0.304,-4.245,-9.253,0.644,-4.087,-2.59,-0.42,7.63
3180.0,-9.036,1.098,-4.087,-9.103,1.058,-3.283,-1.05,-3.78,9.73
,-8.667,1.682,-4.08,-9.103,0.928,-3.075,-1.19,-4.06,9.1
,-8.715,1.811,-3.908,-9.079,1.201,-3.027,-3.78,-3.85,8.26
,-8.904,1.534,-3.604,-9.139,1.144,-3.013,-6.58,-3.36,7.84
3255.0,-9.261,0.893,-3.075,-9.366,0.68,-3.625,-4.06,-0.49,7.21
,-9.359,0.574,-2.903,-9.174,0.967,-3.967,-3.78,0.14,7.49
,-9.411,0.254,-3.171,-9.002,1.098,-4.133,-1.47,0.35,8.61
,-9.438,0.366,-3.319,-8.76,1.644,-4.255,1.75,0.56,9.52
3331.0,-8.66,2.209,-4.379,-9.256,0.601,-3.601,1.05,1.75,10.29
,-8.796,1.941,-4.147,-9.225,0.78,-3.477,-3.92,2.59,10.22
,-9.127,1.35,-3.946,-9.395,0.785,-3.3,-7.63,2.94,10.43
,-9.206,0.763,-3.711,-9.409,0.483,-3.242,-8.47,3.22,10.71
3407.0,-9.366,0.223,-3.068,-8.928,1.589,-3.551,-5.88,5.32,13.79
,-9.383,0.232,-3.061,-8.88,1.776,-3.745,-3.08,5.74,15.19
,-9.469,0.414,-3.185,-8.868,1.699,-3.927,-0.35,6.23,16.45
,-9.107,1.201,-3.482,-8.878,1.579,-4.03,1.96,6.58,17.01
3483.0,-8.964,1.503,-4.13,-9.227,0.627,-3.944,-9.87,9.87,18.48
,-9.129,1.364,-4.116,-9.067,0.864,-3.857,-12.39,10.15,18.76
,-9.162,1.062,-4.128,-8.942,1.211,-3.685,-14.77,9.66,19.39
,-9.16,0.706,-4.044,-9.028,1.4,-3.616,-15.33,9.17,20.3
3559.0,-9.127,1.254,-3.542,-9.036,1.125,-4.075,-15.4,10.64,24.99
,-9.28,0.84,-3.606,-9.005,1.417,-4.116,-16.87,10.92,25.97
,-9.292,0.51,-3.699,-9.143,1.117,-4.13,-15.75,10.71,27.37
,-9.179,0.608,-3.805,-9.17,0.845,-4.013,-12.46,10.5,28.84
3634.0,-9.198,0.61,-3.843,-8.66,2.984,-4.312,-7.91,8.54,35.0
,-9.153,0.864,-3.857,-8.691,3.187,-4.451,-2.31,7.63,37.24
,-8.892,1.474,-4.056,-8.638,3.209,-4.654,2.73,6.86,38.92
,-8.713,2.166,-4.039,-8.588,3.235,-4.671,4.62,6.93,39.76
3710.0,-8.495,3.161,-4.549,-8.679,4.243,-4.269,-10.08,7.56,36.89
,-8.547,3.597,-4.424,-9.038,4.415,-4.513,-10.01,7.63,36.4
,-8.516,4.075,-4.269,-9.215,4.573,-4.592,-11.41,7.56,35.21
,-8.564,4.168,-4.147,-9.548,4.726,-4.654,-14.14,7.49,33.81
3785.0,-9.978,4.673,-4.63,-9.801,3.518,-4.125,-29.75,10.15,23.31
,-10.364,4.314,-4.59,-9.282,3.125,-3.781,-35.28,10.43,20.3
,-10.589,3.618,-4.231,-9.162,2.788,-3.731,-39.2,10.36,18.13
,-10.656,3.247,-4.259,-9.134,2.845,-3.721,-36.75,9.73,17.92
3861.0,-8.71,2.836,-3.604,-8.016,2.893,-3.573,-27.44,6.16,12.46
,-8.445,2.623,-3.597,-7.779,2.639,-3.374,-24.64,5.74,10.92
,-8.488,2.501,-3.561,-7.686,2.24,-3.065,-20.58,5.53,9.45
,-8.337,2.771,-3.623,-7.42,1.998,-2.795,-17.43,5.67,8.19
3937.0,-7.26,1.527,-2.69,-7.294,2.446,-4.551,-18.97,11.41,-1.61
,-7.349,1.199,-3.089,-7.267,3.123,-5.461,-19.39,14.49,-3.36
,-7.327,0.907,-3.412,-7.258,2.479,-5.535,-19.74,17.22,-5.6
,-7.334,1.251,-3.948,-7.533,1.594,-5.406,-18.55,20.3,-8.68
4013.0,-7.822,0.581,-4.98,-7.952,0.967,-4.279,-26.39,19.53,-35.98
,-7.729,0.246,-4.731,-8.031,0.833,-4.068,-17.99,16.31,-39.06
,-7.935,0.424,-4.468,-8.277,0.955,-4.111,-7.56,13.44,-42.0
,-8.081,0.859,-4.403,-8.399,0.995,-4.032,0.0,11.06,-43.75
4088.0,-8.478,0.759,-3.769,-7.729,4.791,-4.188,16.38,4.83,-42.84
,-8.349,1.335,-3.563,-7.729,5.039,-4.439,26.81,3.92,-40.18
,-7.779,2.647,-3.678,-8.035,4.85,-4.59,37.31,3.71,-39.27
,-7.693,3.769,-3.86,-8.334,4.192,-4.642,40.74,4.27,-40.67
4164.0,-8.536,3.211,-4.726,-8.703,2.484,-4.867,8.68,9.17,-52.01
,-8.619,2.479,-4.965,-8.445,3.094,-4.984,7.14,9.17,-50.82
,-9.005,1.943,-4.872,-8.617,3.206,-5.02,8.68,8.96,-48.58
,-9.06,1.752,-4.8,-8.715,2.685,-4.8,13.3,8.12,-45.57
4240.0,-8.612,2.936,-4.573,-8.583,3.005,-4.635,29.4,4.34,-36.89
,-8.076,3.802,-4.609,-8.861,2.438,-4.573,35.28,5.04,-36.05
,-8.083,4.154,-4.755,-8.82,1.589,-4.413,34.3,5.39,-35.7
,-8.251,3.783,-4.805,-8.861,1.251,-4.446,29.12,5.53,-35.56
4316.0,-8.658,1.579,-4.381,-8.507,2.874,-4.547,47.39,2.1,-18.27
,-8.595,2.462,-4.48,-8.471,2.91,-4.652,55.65,1.89,-13.65
,-8.547,3.082,-4.561,-8.327,3.027,-4.683,58.94,1.4,-10.15
,-8.552,3.089,-4.547,-8.334,3.24,-4.85,59.43,0.84,-7.49
4392.0,-8.296,3.384,-4.958,-8.162,2.96,-5.001,61.25,1.4,-2.66
,-8.263,3.3,-4.877,-8.239,2.86,-5.042,55.86,1.75,-3.29
,-8.239,3.192,-4.812,-8.258,2.697,-5.111,50.61,1.96,-3.85
,-8.196,3.084,-4.874,-8.337,2.465,-5.264,45.36,1.89,-4.62
4467.0,-8.392,2.632,-5.238,-8.873,3.448,-4.781,21.49,-4.62,-6.93
,-8.485,3.118,-4.97,-9.136,3.3,-4.587,17.01,-6.79,-7.07
,-8.679,3.352,-4.889,-9.538,2.627,-4.183,10.22,-9.59,-7.35
,-8.775,3.448,-4.879,-9.765,1.015,-4.101,1.96,-13.16,-6.93
4543.0,-9.442,-0.424,-3.994,-9.05,2.395,-4.302,-3.22,-25.76,6.93
,-9.072,-1.318,-3.8,-9.895,3.111,-3.977,15.68,-22.12,11.34
,-9.119,-0.983,-4.456,-10.031,2.422,-3.319,38.22,-17.85,16.24
,-8.832,0.744,-4.752,-9.921,1.45,-3.101,54.11,-15.75,20.3
4618.0,-9.696,0.708,-3.087,-8.899,1.062,-4.259,10.15,-8.68,3.36
,-9.296,0.514,-3.558,-9.033,1.814,-4.314,5.32,-6.44,1.89
,-8.586,0.782,-3.733,-8.509,2.807,-4.547,6.09,-5.25,2.66
,-8.502,0.902,-3.912,-8.638,2.369,-4.566,9.94,-4.62,4.62
4694.0,-9.684,1.153,-4.276,-9.217,0.108,-3.953,0.28,-1.05,5.74
,-9.624,-0.424,-4.147,-9.351,0.084,-3.896,-3.36,-1.33,4.69
,-9.215,-0.888,-4.097,-9.292,-0.136,-3.664,1.33,-1.68,4.27
,-9.095,-0.359,-4.075,-9.165,-0.101,-3.771,7.63,-1.75,4.55
4770.0,-9.172,0.077,-3.762,-9.21,0.388,-4.18,7.84,-2.1,6.72
,-9.131,0.404,-3.841,-9.107,0.342,-4.264,8.82,-1.47,6.65
,-9.026,0.639,-4.032,-9.06,0.572,-4.252,7.98,-0.98,6.65
,-9.148,0.598,-4.145,-9.072,0.641,-4.341,5.74,-0.42,6.65
4846.0,-8.827,0.883,-4.403,-8.926,0.83,-3.991,2.52,-0.14,6.58
,-8.88,1.082,-4.441,-8.99,0.802,-3.989,0.91,0.0,6.16
,-8.983,1.129,-4.379,-9.014,0.986,-3.793,-0.98,0.0,6.09
,-8.899,1.067,-4.322,-8.959,0.928,-3.673,-2.38,0.14,6.02
4921.0,-8.875,1.01,-3.527,-9.21,0.491,-3.321,0.84,1.19,6.51
,-8.971,0.94,-3.372,-9.177,0.538,-3.446,0.63,1.96,6.44
,-9.131,0.644,-3.343,-9.155,0.749,-3.716,0.63,2.38,6.58
,-9.296,0.548,-3.285,-9.038,0.883,-3.888,2.38,2.8,7.07
4997.0,-8.997,0.916,-3.967,-9.026,0.751,-3.908,8.19,5.18,10.29
,-8.978,0.84,-3.977,-9.019,0.639,-3.965,7.07,5.6,10.29
,-9.062,0.842,-3.881,-9.0,0.565,-4.001,6.51,6.23,10.22
,-9.031,0.871,-3.915,-8.988,0.687,-4.156,6.09,6.65,10.43
5073.0,-9.026,0.744,-4.111,-8.854,1.208,-4.042,4.48,8.12,11.48
,-9.15,0.766,-4.171,-9.036,0.931,-3.879,3.43,8.19,11.62
,-8.969,1.01,-4.214,-9.227,0.476,-3.857,3.92,8.05,12.39
,-8.78,1.18,-4.145,-9.048,0.318,-3.888,4.13,8.19,13.16
5149.0,-9.014,0.438,-3.941,-8.842,1.007,-4.312,4.83,10.5,15.33
,-8.82,0.907,-4.097,-8.875,1.003,-4.429,5.04,10.99,15.4
,-8.892,1.017,-4.164,-8.823,0.991,-4.47,2.66,11.48,15.54
,-8.835,1.036,-4.29,-8.854,0.881,-4.472,0.63,11.9,15.96
5224.0,-8.894,1.019,-4.535,-8.78,1.469,-4.341,-3.64,11.9,18.2
,-8.708,1.307,-4.558,-8.815,1.175,-4.264,-3.15,11.97,18.97
,-8.619,1.742,-4.594,-8.763,0.995,-4.128,-3.92,12.53,19.11
,-8.686,1.716,-4.494,-8.741,1.165,-4.03,-7.07,12.95,19.04
5300.0,-8.775,1.421,-4.032,-8.789,1.189,-3.891,-8.26,14.56,21.77
,-8.734,1.484,-3.967,-8.705,1.33,-4.051,-9.52,15.4,21.98
,-8.875,1.292,-3.896,-8.737,1.503,-4.149,-10.85,15.96,22.61
,-8.861,1.28,-3.917,-8.734,1.519,-4.152,-11.27,16.45,23.1
5376.0,-8.557,1.522,-4.283,-8.638,1.165,-4.42,-12.53,22.54,24.99
,-8.827,1.464,-4.078,-8.612,1.433,-4.475,-12.95,24.22,25.34
,-9.134,1.414,-4.078,-8.799,1.721,-4.532,-13.65,25.48,25.83
,-8.835,1.156,-4.257,-8.847,2.146,-4.623,-14.28,25.62,26.74
5451.0,-8.806,2.216,-5.078,-8.071,5.195,-7.009,-12.18,26.81,31.99
,-8.837,1.998,-5.346,-8.978,4.446,-6.277,-13.86,26.11,33.46
,-8.734,1.701,-5.702,-9.316,3.927,-6.001,-14.21,25.48,35.28
,-9.366,0.814,-7.401,-10.201,3.944,-5.288,-2.03,22.61,42.35
5527.0,-9.33,2.785,-5.063,-9.012,1.886,-5.296,-19.67,19.81,40.81
,-9.189,2.541,-4.975,-8.844,2.132,-5.384,-21.07,20.93,37.87
,-9.445,2.352,-5.197,-8.586,2.546,-5.561,-21.63,21.7,35.56
,-9.45,1.974,-5.157,-8.291,2.876,-5.686,-22.05,21.49,34.79
5603.0,-8.153,2.972,-5.872,-7.504,3.51,-6.111,-16.52,16.66,33.95
,-7.856,3.228,-5.97,-7.507,3.441,-5.86,-16.73,15.4,32.83
,-7.755,3.281,-6.076,-7.437,3.539,-5.76,-17.36,13.72,31.57
,-7.614,3.36,-6.059,-7.303,3.75,-5.82,-17.71,11.97,30.59
5679.0,-7.241,3.776,-5.709,-7.009,3.336,-5.329,-17.78,4.83,23.87
,-7.346,3.833,-5.796,-6.726,3.8,-5.312,-19.11,4.06,21.56
,-7.286,3.798,-5.583,-6.241,4.305,-4.7,-20.65,3.5,19.11
,-7.227,3.448,-5.288,-6.533,4.681,-5.379,-23.38,3.29,16.03
5754.0,-6.899,3.877,-5.712,-6.839,3.151,-5.767,-62.72,13.79,-6.86
,-7.078,3.032,-6.025,-6.655,3.455,-4.267,-75.18,14.77,-12.53
,-7.315,2.565,-6.379,-6.705,3.125,-3.017,-81.76,14.91,-17.29
,-7.521,2.728,-6.334,-6.607,2.831,-2.826,-80.99,14.14,-21.49
5830.0,-6.889,2.946,-3.077,-8.088,0.648,-4.166,-75.81,22.12,-57.68
,-7.009,2.572,-2.843,-8.447,-0.12,-3.506,-75.46,24.99,-62.09
,-6.951,2.082,-3.35,-7.877,0.68,-3.668,-71.89,29.4,-66.15
,-7.219,1.546,-4.104,-6.868,2.187,-4.231,-66.43,33.95,-70.7
5906.0,-6.614,3.494,-5.049,-6.944,2.123,-5.683,-9.1,36.68,-72.17
,-6.992,4.238,-5.523,-7.246,1.225,-5.602,-13.72,38.78,-75.18
,-7.629,4.216,-5.427,-7.997,0.639,-5.138,-22.89,39.06,-77.56
,-7.315,3.23,-5.453,-8.114,0.605,-5.169,-31.01,37.73,-78.47
5982.0,-7.897,0.5,-5.123,-7.784,2.702,-5.528,12.11,28.28,-60.83
,-8.198,0.364,-4.989,-7.32,3.877,-5.76,26.53,24.15,-52.85
,-8.38,0.323,-5.008,-7.729,3.685,-5.939,41.51,18.55,-44.24
,-8.215,1.117,-5.465,-8.086,2.938,-6.25,60.27,13.23,-37.1
6057.0,-8.454,2.101,-6.25,-8.32,1.539,-6.75,85.4,-4.76,-19.25
,-8.607,1.685,-6.207,-8.052,2.29,-7.042,92.19,-9.03,-13.44
,-8.435,1.357,-6.324,-7.901,3.003,-6.901,101.22,-14.56,-7.56
,-8.385,1.194,-6.427,-7.724,3.542,-6.695,112.63,-19.95,-3.36
6133.0,-7.265,4.597,-6.743,-7.279,4.704,-6.48,135.38,-35.84,-0.84
,-6.829,5.169,-6.609,-7.617,4.168,-6.109,127.26,-35.98,-4.34
,-6.932,5.075,-6.676,-7.779,3.678,-5.872,114.38,-36.4,-8.75
,-7.16,4.874,-6.693,-7.717,3.364,-5.463,100.94,-36.68,-12.74
6208.0,-7.873,3.527,-5.628,-7.538,5.195,-5.839,53.34,-34.93,-14.7
,-7.59,3.994,-5.827,-8.148,4.74,-5.13,48.79,-34.3,-12.81
,-7.643,4.133,-5.8,-8.478,4.178,-4.817,42.77,-33.46,-11.06
,-7.834,4.475,-5.963,-8.894,4.362,-5.037,40.04,-33.25,-9.03
6284.0,-8.756,5.614,-5.365,-9.105,0.78,-5.078,18.48,-30.87,-4.27
,-8.102,7.014,-5.111,-8.923,0.163,-4.678,12.18,-29.61,-1.33
,-8.492,5.516,-4.413,-10.031,0.785,-4.41,-6.79,-29.26,-0.77
,-9.373,2.34,-4.652,-10.239,3.147,-4.302,-16.66,-29.05,4.34
6360.0,-10.136,4.563,-4.14,-8.102,-1.46,-3.357,52.85,-23.52,23.52
,-10.026,3.075,-3.714,-8.167,-1.165,-3.077,27.72,-20.16,16.1
,-9.471,0.469,-3.58,-9.115,-0.704,-2.958,5.11,-16.52,8.82
,-8.88,-1.405,-3.506,-10.043,0.124,-3.032,-2.87,-14.35,4.97
6436.0,-9.868,1.603,-3.443,-9.198,0.802,-3.386,37.52,-12.67,10.15
,-8.964,2.402,-3.685,-9.478,-0.012,-3.29,33.95,-10.5,9.52
,-8.614,2.338,-3.606,-9.586,0.057,-3.441,21.91,-7.63,7.63
,-8.918,1.855,-3.63,-9.206,0.596,-3.604,10.92,-4.55,5.74
6512.0,-8.827,1.079,-3.747,-8.933,0.112,-4.678,7.77,3.22,3.43
,-8.949,0.823,-3.845,-8.844,0.359,-4.98,2.45,4.55,2.8
,-9.282,0.45,-4.219,-8.808,0.648,-5.087,-1.82,4.9,2.45
,-9.191,0.093,-4.451,-8.911,0.641,-5.049,-3.43,4.41,2.03
6587.0,-8.806,0.665,-4.946,-9.069,-0.012,-3.764,-9.03,3.5,1.61
,-8.899,0.459,-4.59,-9.15,0.0,-3.781,-10.36,3.36,1.61
,-9.002,0.263,-4.295,-8.993,0.431,-3.831,-9.31,3.01,2.52
,-9.05,0.132,-3.97,-8.945,0.804,-3.877,-6.23,2.52,3.64
6663.0,-9.067,0.682,-3.891,-8.744,1.352,-4.121,2.94,2.45,6.02
,-8.971,0.663,-3.86,-8.856,1.137,-4.207,2.38,3.01,6.51
,-8.911,0.646,-3.915,-9.131,0.689,-4.104,3.01,3.64,6.51
,-8.918,1.113,-4.13,-9.026,0.443,-4.166,3.85,4.2,6.65
6739.0,-8.961,0.44,-4.171,-9.1,0.306,-3.896,-1.26,6.44,7.63
,-8.909,0.474,-4.042,-9.026,0.524,-3.979,-2.03,6.86,7.7
,-8.969,0.505,-3.979,-8.875,0.84,-4.025,-3.15,7.35,7.91
,-9.105,0.34,-3.936,-8.916,0.866,-4.001,-3.5,7.56,8.47
6815.0,-8.868,0.821,-4.063,-9.1,0.464,-3.9,-0.77,9.31,11.9
,-8.973,0.763,-4.097,-9.143,0.438,-4.046,-1.19,9.66,11.9
,-8.751,0.67,-4.044,-8.875,0.495,-4.204,-1.61,10.22,12.04
,-8.885,0.519,-3.915,-8.765,0.696,-4.398,-1.75,10.71,12.39
6890.0,-8.772,0.725,-4.448,-8.746,1.558,-4.336,-0.56,12.04,14.42
,-8.751,0.854,-4.46,-8.981,1.12,-4.178,-1.89,12.25,14.49
,-8.495,1.445,-4.48,-8.933,0.677,-4.075,-2.66,12.95,14.28
,-8.562,1.713,-4.482,-8.93,0.392,-4.085,-5.53,13.58,13.93
6966.0,-8.928,0.512,-4.231,-8.605,0.902,-4.714,-6.44,15.68,17.71
,-8.904,0.653,-4.434,-8.614,1.086,-4.841,-6.02,15.89,18.34
,-8.806,0.706,-4.618,-8.588,1.295,-4.716,-6.86,15.89,18.83
,-8.705,0.802,-4.769,-8.49,1.364,-4.695,-7.14,16.03,19.6
7041.0,-8.624,1.256,-4.661,-8.825,1.563,-4.468,-10.08,16.1,22.75
,-8.6,1.364,-4.74,-8.83,1.548,-4.664,-10.71,16.17,22.75
,-8.454,1.46,-4.496,-8.502,1.369,-4.762,-10.64,16.87,23.45
,-8.531,1.658,-4.46,-8.631,1.271,-4.786,-10.99,17.57,24.43
7117.0,-8.729,1.177,-5.085,-8.528,1.78,-5.7,-19.11,19.67,25.69
,-8.729,1.316,-5.346,-8.253,1.78,-5.767,-18.27,19.6,26.46
,-8.425,1.531,-5.568,-8.327,1.773,-5.793,-17.36,19.39,27.3
,-8.519,1.855,-5.657,-8.224,1.385,-5.595,-17.36,18.97,28.21
7193.0,-8.641,1.536,-7.145,-9.392,3.19,-5.587,-10.01,11.55,38.57
,-7.621,3.92,-6.463,-8.825,2.773,-5.564,-3.15,9.38,44.45
,-8.421,3.343,-6.066,-9.134,2.383,-5.351,-3.43,8.26,46.9
,-8.88,2.73,-5.781,-9.304,2.467,-5.14,-6.23,8.61,42.56
7269.0,-9.021,2.618,-4.934,-8.471,2.161,-4.817,-15.26,8.4,35.84
,-8.54,2.73,-4.92,-8.464,2.694,-4.891,-16.38,8.96,34.86
,-8.48,2.685,-4.834,-8.351,3.654,-5.049,-17.99,9.38,33.39
,-8.411,2.453,-4.848,-8.349,4.386,-5.327,-19.18,9.24,32.76
7345.0,-8.318,4.472,-5.348,-8.603,3.364,-5.437,-20.72,9.17,29.75
,-8.397,4.204,-5.487,-8.533,3.087,-5.243,-26.95,9.59,27.09
,-8.531,3.953,-5.528,-8.356,3.116,-5.111,-31.99,9.45,24.71
,-8.576,3.704,-5.451,-8.179,3.209,-4.92,-35.84,9.17,22.75
7420.0,-8.05,3.273,-5.075,-7.387,3.709,-4.884,-37.38,5.74,16.45
,-8.064,3.494,-5.092,-7.255,3.922,-4.783,-36.54,4.97,14.28
,-7.935,3.503,-5.063,-7.083,4.111,-4.745,-35.77,3.85,12.39
,-7.562,3.515,-4.92,-7.059,4.279,-4.719,-35.28,3.57,10.22
7496.0,-7.224,4.216,-4.597,-7.1,4.133,-4.468,-44.52,5.67,-4.97
,-7.251,3.917,-4.52,-7.703,3.039,-5.092,-49.14,6.37,-8.82
,-7.069,3.786,-4.35,-8.332,2.123,-5.528,-53.55,7.98,-12.74
,-6.798,4.008,-3.699,-7.59,1.596,-5.791,-59.15,11.27,-17.01
7572.0,-7.437,1.374,-5.348,-6.837,0.804,-2.544,-89.53,12.32,-32.34
,-7.583,0.893,-4.312,-6.999,1.807,-4.202,-77.49,8.54,-35.91
,-7.298,0.407,-3.053,-7.602,1.859,-4.578,-62.51,7.28,-39.55
,-7.059,0.397,-2.659,-8.232,1.512,-3.891,-47.81,8.96,-42.56
7648.0,-8.244,0.957,-3.235,-8.404,2.268,-3.948,-24.85,25.48,-60.13
,-7.705,0.651,-3.314,-7.729,2.393,-4.089,-16.17,26.95,-62.44
,-7.748,0.993,-3.795,-7.454,1.448,-4.81,-6.79,29.12,-65.8
,-8.1,1.551,-4.051,-8.059,-0.139,-5.032,-0.91,31.22,-68.74
7723.0,-8.818,-0.859,-4.953,-8.696,0.577,-5.721,13.23,30.94,-74.27
,-9.292,-0.668,-5.049,-8.806,0.852,-6.068,29.54,27.09,-70.42
,-8.825,-0.395,-5.145,-8.65,1.103,-6.346,45.99,22.54,-65.87
,-8.294,-0.089,-5.339,-8.375,1.838,-6.214,58.03,19.88,-61.95
7799.0,-7.617,3.259,-6.42,-7.868,3.175,-6.198,106.12,0.42,-50.54
,-7.368,4.456,-6.633,-7.815,2.515,-6.114,107.66,-2.94,-51.45
,-7.693,4.503,-6.557,-8.294,2.515,-6.04,100.31,-7.14,-52.71
,-7.942,4.293,-6.346,-8.971,2.745,-6.049,94.5,-11.83,-53.69
7874.0,-8.928,3.357,-5.724,-7.834,5.398,-6.047,100.24,-29.12,-28.49
,-8.143,4.051,-5.719,-7.863,5.815,-5.889,104.58,-30.94,-22.47
,-7.909,4.714,-5.662,-7.72,6.157,-5.839,106.19,-32.06,-17.71
,-7.916,5.111,-5.899,-7.485,6.195,-5.8,103.25,-33.11,-13.93
7950.0,-7.408,6.09,-6.301,-8.045,6.351,-5.257,58.52,-23.31,-9.38
,-7.475,5.669,-6.214,-8.308,6.052,-4.752,43.54,-20.58,-10.99
,-7.997,5.281,-5.31,-8.847,6.265,-4.281,31.15,-18.9,-12.04
,-7.988,5.812,-5.42,-8.428,6.315,-2.797,25.69,-19.95,-12.6
8026.0,-8.629,2.57,-1.883,-12.204,6.736,-3.888,-5.25,-36.82,16.59
,-8.648,-0.828,-3.367,-14.202,5.305,-2.546,14.77,-31.08,29.33
,-8.196,-1.986,-4.362,-14.077,-1.584,-2.029,52.57,-21.84,36.96
,-10.519,1.565,-4.322,-8.93,-3.044,-3.288,88.41,-16.8,38.08
8102.0,-5.745,-1.318,-4.298,-9.531,1.455,-4.819,-7.0,-1.82,11.9
,-7.102,-1.196,-4.348,-8.591,2.264,-4.958,6.23,-2.59,18.2
,-9.737,-1.491,-4.475,-8.696,1.814,-4.865,24.57,-6.44,19.67
,-10.354,-0.548,-4.357,-8.801,1.144,-5.02,42.14,-8.47,17.36
8178.0,-8.772,0.952,-4.848,-8.938,0.615,-4.676,3.64,-3.29,9.45
,-8.961,0.981,-4.628,-8.804,0.132,-4.774,3.43,-2.52,8.19
,-9.167,1.106,-4.724,-8.777,0.196,-4.75,2.45,-1.96,8.19
,-9.026,1.0,-4.695,-8.825,0.617,-4.592,0.21,-2.1,8.33
8253.0,-8.916,0.811,-4.401,-9.682,0.096,-3.235,-1.4,-3.64,6.58
,-8.935,0.995,-4.152,-9.232,-0.321,-3.601,-4.69,-2.94,5.88
,-9.074,0.596,-3.628,-8.938,-0.144,-3.676,-8.19,-2.38,5.53
,-9.392,0.273,-3.47,-9.007,0.512,-3.881,-7.91,-2.03,6.51
8329.0,-8.971,1.091,-3.991,-8.66,1.869,-4.111,6.16,-2.03,9.38
,-8.94,1.347,-4.044,-8.66,1.833,-3.929,2.94,-1.26,9.38
,-8.825,1.225,-3.917,-9.16,1.249,-3.805,-0.21,-0.63,9.03
,-8.904,1.254,-4.018,-9.311,0.589,-3.692,-0.28,-0.14,9.45
8405.0,-9.179,0.093,-3.568,-8.698,1.273,-4.219,-8.26,4.48,9.1
,-9.227,0.014,-3.57,-8.923,0.893,-4.365,-4.83,4.48,9.66
,-9.146,0.357,-3.743,-9.124,0.639,-4.369,-2.59,4.69,9.87
,-9.131,1.086,-4.113,-9.093,0.249,-4.245,-1.19,4.69,10.29
8481.0,-9.052,0.268,-4.267,-9.057,1.259,-4.018,-8.75,5.32,10.99
,-8.88,0.95,-4.271,-8.658,1.299,-3.857,-5.74,4.83,11.62
,-8.794,1.307,-4.075,-9.009,0.919,-3.831,-6.02,4.97,12.18
,-9.079,1.11,-4.011,-9.313,0.663,-3.802,-7.63,4.83,12.95
8556.0,-9.203,0.421,-3.683,-8.653,1.491,-4.13,-6.51,7.0,14.91
,-9.014,0.297,-3.774,-9.392,0.938,-4.104,-5.67,7.21,15.33
,-9.174,0.732,-4.054,-9.354,0.263,-3.967,-4.48,7.28,15.61
,-8.655,1.469,-4.286,-9.273,-0.053,-4.032,-4.62,7.7,15.54
8632.0,-9.11,0.39,-4.331,-8.727,1.421,-5.138,-7.14,7.91,18.97
,-8.784,1.122,-4.625,-8.404,2.056,-5.063,-7.7,8.19,18.41
,-8.83,1.338,-4.922,-8.234,2.603,-4.874,-11.55,8.05,18.13
,-8.88,1.261,-5.123,-8.354,2.467,-4.532,-14.63,7.56,18.41
8707.0,-8.823,1.962,-4.243,-8.748,1.718,-3.695,-21.07,5.32,20.16
,-8.928,1.362,-3.967,-8.882,1.718,-3.695,-20.93,5.18,20.16
,-8.885,1.055,-3.807,-8.938,1.268,-3.745,-18.62,4.97,20.3
,-8.765,1.275,-3.781,-9.036,1.134,-3.869,-16.03,5.81,20.23
8783.0,-8.918,1.362,-4.089,-8.574,2.067,-4.625,-14.14,7.21,20.65
,-8.863,1.606,-4.293,-8.703,2.072,-4.755,-12.53,7.07,21.42
,-8.748,1.826,-4.47,-8.715,2.271,-4.826,-12.32,7.0,21.77
,-8.607,1.962,-4.566,-8.612,2.481,-4.853,-13.09,6.65,21.91
8859.0,-8.435,2.515,-4.791,-8.777,2.218,-4.348,-17.5,4.69,19.74
,-8.447,2.462,-4.752,-8.667,2.271,-4.212,-19.39,4.48,18.62
,-8.626,2.371,-4.635,-8.792,2.357,-4.149,-20.93,3.78,17.36
,-8.739,2.261,-4.393,-8.859,2.525,-4.142,-21.28,3.36,16.24
8935.0,-8.938,2.615,-4.03,-8.804,3.151,-4.135,-18.55,2.59,10.92
,-8.964,2.656,-4.025,-8.555,3.233,-4.269,-18.34,2.73,9.24
,-9.093,2.809,-4.099,-9.177,2.936,-4.073,-17.71,2.94,7.63
,-8.985,2.984,-4.087,-9.555,2.273,-3.984,-17.08,3.22,6.02
9010.0,-9.576,1.402,-3.144,-7.504,4.056,-2.898,-29.4,5.39,-12.25
,-9.287,0.579,-2.505,-7.301,4.441,-3.747,-26.81,4.83,-15.61
,-8.512,0.878,-2.161,-8.67,3.57,-3.819,-23.31,6.86,-18.2
,-7.868,2.144,-1.922,-9.04,2.335,-4.379,-21.28,13.16,-21.56
9086.0,-8.562,0.534,-4.283,-8.942,-1.302,-4.625,-92.12,44.24,-51.03
,-8.497,-0.591,-4.369,-8.808,-0.983,-4.853,-80.36,46.06,-54.88
,-8.892,-1.103,-4.405,-8.748,-0.302,-5.063,-62.3,45.78,-55.44
,-8.964,-1.283,-4.585,-8.655,0.201,-5.075,-43.54,43.61,-54.32
9162.0,-8.421,0.246,-5.24,-8.466,1.199,-5.434,23.38,26.81,-45.01
,-8.253,0.026,-5.181,-8.306,1.445,-5.604,27.51,23.17,-42.56
,-8.442,0.124,-5.142,-8.301,1.493,-5.619,34.3,19.88,-39.69
,-8.366,0.546,-5.482,-8.449,0.706,-5.042,41.93,16.66,-37.1
9238.0,-8.543,-0.017,-5.193,-7.897,3.338,-5.501,64.96,-8.54,-23.1
,-8.342,0.232,-5.233,-8.1,3.446,-5.451,79.17,-13.72,-17.71
,-8.031,1.378,-5.193,-8.179,3.453,-5.341,93.66,-17.36,-12.04
,-7.873,2.678,-5.48,-8.157,3.393,-5.312,101.92,-20.58,-7.21
9314.0,-8.189,3.482,-5.355,-7.578,4.14,-5.681,84.56,-28.42,0.42
,-7.985,4.238,-5.688,-8.031,2.874,-5.465,82.88,-29.26,0.91
,-7.734,4.657,-5.374,-7.93,2.106,-4.673,75.39,-30.17,0.0
,-7.291,4.822,-5.434,-7.892,2.407,-3.896,63.7,-30.59,-2.38
9389.0,-8.143,3.436,-2.259,-10.206,9.464,-4.87,43.4,-35.63,6.09
,-9.155,6.104,-2.003,-10.06,5.765,-4.355,52.57,-24.22,8.33
,-10.79,8.394,-4.025,-9.581,1.764,-3.934,54.46,-7.42,10.22
,-11.407,9.809,-5.674,-8.741,-1.027,-3.898,40.6,3.71,10.22
9465.0,-8.591,-0.869,-4.219,-9.081,-0.94,-4.355,-5.53,3.01,6.3
,-8.591,0.17,-4.568,-9.378,-1.141,-4.29,6.09,4.83,8.61
,-7.736,0.445,-4.736,-9.045,-0.189,-4.159,1.05,6.09,8.82
,-8.208,-0.165,-4.573,-8.815,1.388,-4.121,-7.49,6.51,4.83
9540.0,-8.622,2.67,-4.154,-9.56,1.498,-3.226,-0.49,5.18,-4.69
,-8.947,3.058,-4.204,-9.268,1.721,-2.711,-8.54,6.16,-5.95
,-8.938,2.551,-4.037,-8.588,2.726,-3.049,-14.98,6.65,-5.67
,-9.136,1.74,-3.616,-8.516,3.781,-3.68,-14.77,7.21,-4.76
9616.0,-8.459,4.506,-4.156,-8.693,3.116,-5.48,4.69,15.19,1.4
,-8.629,5.047,-4.752,-9.196,2.23,-5.494,-7.35,19.81,-1.54
,-8.26,4.609,-5.059,-9.033,1.622,-5.43,-23.87,22.82,-6.44
,-8.081,3.886,-5.427,-9.964,1.747,-5.329,-39.48,25.69,-11.97
9692.0,-8.976,4.022,-5.535,-8.935,3.632,-4.984,-52.29,31.5,-11.13
,-7.645,6.442,-5.377,-8.973,2.383,-4.996,-55.09,34.86,-8.4
,-8.263,7.03,-4.405,-9.045,2.225,-5.197,-72.24,37.31,-10.15
,-9.337,5.674,-4.405,-8.904,2.678,-5.532,-90.65,35.63,-12.6
9768.0,-8.918,3.479,-5.879,-7.988,4.276,-5.975,-50.89,20.09,14.63
,-9.119,4.044,-5.604,-8.557,4.594,-5.666,-45.5,16.24,19.95
,-8.851,4.161,-5.884,-8.722,4.752,-5.3,-44.03,11.83,24.5
,-8.27,4.135,-5.98,-7.775,4.161,-5.157,-43.96,8.05,28.14
9843.0,-7.672,3.685,-5.274,-8.557,1.919,-4.96,-57.82,-6.3,39.69
,-8.114,3.527,-5.492,-8.241,1.948,-5.068,-59.29,-6.3,40.6
,-8.808,3.376,-5.272,-8.138,2.718,-5.372,-62.23,-7.21,40.95
,-9.06,2.733,-5.054,-8.497,2.812,-5.413,-65.1,-9.45,42.21
9919.0,-8.782,2.266,-5.327,-7.705,1.67,-4.547,-61.25,-13.51,41.37
,-8.703,1.261,-5.037,-7.765,1.809,-4.171,-63.77,-16.1,41.23
,-8.555,0.66,-4.728,-7.662,1.804,-3.898,-59.01,-18.9,41.65
,-8.014,1.192,-4.788,-7.978,2.012,-4.087,-49.84,-20.51,41.86
9994.0,-8.241,2.175,-4.585,-7.822,0.235,-3.654,-45.99,-17.85,33.88
,-8.327,1.417,-4.446,-7.815,-0.404,-3.312,-48.51,-18.27,31.78
,-8.404,0.409,-4.145,-7.777,-0.66,-3.262,-45.01,-19.25,31.15
,-8.11,0.428,-4.207,-7.897,-0.251,-2.927,-33.53,-20.58,30.8
10070.0,-7.588,0.885,-3.07,-7.6,0.292,-3.379,29.75,-15.82,31.15
,-7.468,1.23,-2.668,-7.272,1.835,-3.628,34.93,-13.09,29.12
,-7.818,0.94,-3.183,-6.557,3.932,-4.066,37.94,-10.85,27.86
,-7.593,0.574,-3.458,-7.004,4.848,-4.018,42.0,-8.61,25.34
10146.0,-7.619,4.771,-4.307,-8.528,3.683,-4.365,36.54,11.13,5.39
,-7.284,4.743,-4.585,-8.303,2.8,-4.056,27.02,13.3,-2.73
,-7.432,5.056,-4.621,-8.287,2.74,-3.891,18.2,15.26,-11.97
,-8.457,4.602,-4.556,-8.057,3.515,-4.042,7.49,14.35,-18.97
10222.0,-8.16,5.073,-4.259,-8.681,2.831,-3.19,21.07,9.59,-21.63
,-8.425,5.815,-4.362,-8.765,2.678,-3.384,14.84,9.31,-21.84
,-8.428,4.972,-3.9,-8.595,2.891,-3.565,4.13,9.1,-22.82
,-8.722,3.601,-3.312,-8.411,3.084,-3.702,-0.7,9.1,-23.52
10298.0,-8.402,3.211,-4.044,-9.158,0.634,-4.757,7.42,15.19,-31.5
,-8.497,3.075,-4.2,-9.105,0.215,-5.226,0.56,17.15,-35.84
,-8.756,2.491,-4.503,-9.06,-0.337,-5.485,-7.14,18.34,-40.39
,-9.019,1.419,-4.547,-8.945,-0.005,-5.899,-12.25,18.48,-43.4
10373.0,-8.689,0.943,-6.21,-9.031,3.656,-6.049,23.59,1.68,-30.8
,-8.648,2.223,-6.48,-9.679,3.927,-5.535,33.32,-2.45,-27.23
,-8.703,3.295,-6.621,-10.246,4.554,-4.85,37.24,-6.3,-25.13
,-8.756,3.632,-6.458,-10.278,4.769,-4.597,35.77,-9.87,-24.43
10449.0,-9.366,3.769,-4.424,-9.258,1.134,-3.948,36.61,-17.43,-19.32
,-8.402,2.539,-4.293,-9.158,1.357,-3.893,35.91,-17.5,-17.99
,-8.119,1.307,-4.178,-9.404,1.103,-3.577,37.45,-17.99,-17.29
,-8.705,0.773,-3.999,-9.337,0.909,-3.664,40.32,-18.69,-17.64
10525.0,-8.99,1.074,-3.513,-8.866,1.764,-3.642,33.88,-18.2,-19.11
,-8.957,1.895,-3.695,-8.993,1.122,-3.594,38.22,-17.92,-17.01
,-8.794,2.649,-3.707,-9.299,0.847,-3.254,38.57,-16.8,-15.82
,-8.765,2.498,-3.848,-9.739,0.546,-2.871,32.69,-15.12,-15.96
10601.0,-9.538,-0.062,-2.68,-9.165,1.074,-3.369,25.62,-13.02,-11.9
,-9.562,0.026,-2.733,-8.947,1.462,-3.362,30.03,-12.46,-10.08
,-9.416,0.579,-3.032,-9.196,1.357,-3.264,33.39,-11.48,-9.03
,-9.304,0.907,-3.173,-9.627,0.44,-3.204,32.41,-10.22,-8.47
10676.0,-9.617,-0.699,-3.238,-8.653,3.087,-4.513,26.81,-8.12,-4.2
,-9.208,-0.577,-3.448,-8.591,2.742,-4.566,34.86,-8.05,-3.08
,-8.866,1.201,-3.888,-8.624,2.211,-4.621,41.86,-6.79,-2.94
,-8.6,2.651,-4.295,-8.705,1.881,-4.503,38.22,-5.04,-3.99
10752.0,-8.926,1.572,-4.436,-9.306,1.084,-3.745,12.81,-2.03,-6.72
,-9.012,1.077,-4.314,-9.584,0.127,-3.259,11.06,-2.59,-7.0
,-8.995,0.883,-4.192,-9.567,-0.584,-3.218,10.78,-2.94,-7.42
,-9.186,1.05,-4.034,-9.337,-0.179,-3.147,11.48,-3.01,-7.35
10827.0,-9.189,0.541,-3.295,-9.057,1.335,-3.917,29.4,-4.55,-0.35
,-9.241,1.115,-3.357,-9.273,0.845,-3.97,29.12,-3.71,-0.21
,-9.052,1.61,-3.551,-9.17,0.546,-3.941,27.09,-2.59,-0.63
,-8.916,1.663,-3.865,-9.095,0.756,-3.896,23.45,-2.24,-0.91
10903.0,-9.105,1.225,-3.967,-8.844,1.352,-3.929,27.44,-3.15,2.24
,-9.095,1.438,-4.001,-8.899,1.433,-3.589,25.83,-3.01,2.1
,-9.021,1.223,-4.068,-8.801,1.788,-3.163,23.31,-2.73,1.75
,-8.914,1.275,-4.061,-8.83,1.981,-2.804,22.4,-2.1,1.54
10979.0,-9.005,1.737,-2.584,-9.009,1.275,-3.597,12.74,4.55,-2.8
,-9.033,1.62,-2.807,-9.131,0.675,-3.683,10.08,6.44,-4.2
,-8.902,1.594,-3.08,-9.349,0.215,-3.802,8.12,7.91,-5.39
,-8.902,1.517,-3.376,-9.397,-0.045,-4.066,6.58,9.31,-6.23
11055.0,-9.469,-0.141,-3.958,-8.574,2.752,-3.881,5.6,10.78,-5.25
,-9.189,0.802,-4.106,-8.768,2.489,-3.865,8.54,10.99,-4.48
,-8.15,2.048,-4.034,-8.765,2.089,-3.721,5.81,12.67,-7.07
,-8.227,2.584,-3.817,-8.686,1.644,-3.486,-3.99,15.61,-11.27
11131.0,-8.902,1.417,-3.436,-9.928,1.271,-4.168,-36.89,26.81,-23.1
,-9.016,1.019,-3.171,-9.789,1.754,-4.688,-39.76,28.0,-23.03
,-9.213,0.68,-3.049,-9.567,2.084,-5.118,-40.04,29.75,-22.19
,-9.615,0.785,-3.561,-9.217,1.804,-4.941,-37.94,31.29,-21.21
11206.0,-9.213,1.63,-4.788,-8.043,4.039,-6.09,-29.12,21.63,-16.1
,-8.847,1.737,-4.836,-8.339,4.049,-6.32,-23.03,18.41,-13.51
,-8.375,2.343,-5.004,-8.947,3.376,-6.609,-18.34,18.55,-12.25
,-8.208,3.271,-5.468,-8.871,2.443,-5.415,-16.38,21.07,-11.34
11282.0,-8.693,1.998,-6.389,-7.698,4.934,-5.571,-54.11,27.86,-14.35
,-9.873,1.548,-5.934,-8.571,5.47,-5.549,-53.27,24.64,-12.11
,-9.481,2.211,-5.262,-8.612,5.116,-5.552,-47.6,22.4,-5.25
,-8.107,3.589,-5.413,-8.746,4.058,-5.135,-39.9,21.7,0.84
11358.0,-8.598,3.348,-5.173,-8.957,3.281,-4.862,-73.99,18.2,7.56
,-8.65,2.812,-5.31,-8.416,3.352,-4.647,-71.82,17.43,11.9
,-9.055,2.706,-5.248,-8.863,3.257,-4.353,-65.38,15.96,16.24
,-9.17,3.101,-5.185,-8.94,3.417,-4.357,-58.24,13.58,20.79
11434.0,-8.708,3.599,-4.688,-8.478,4.121,-4.805,-38.01,-0.56,41.65
,-8.447,3.714,-4.862,-8.344,4.078,-4.893,-35.56,-2.52,43.96
,-8.559,3.774,-4.779,-8.514,3.738,-4.946,-35.42,-2.94,45.71
,-8.681,3.865,-4.654,-8.801,3.046,-4.956,-35.49,-3.22,47.25
11509.0,-8.878,2.527,-5.044,-9.081,2.127,-4.946,-50.68,-4.27,48.3
,-8.938,2.139,-5.042,-8.557,2.379,-4.886,-50.4,-5.46,48.86
,-9.072,2.118,-5.09,-8.299,2.871,-4.896,-48.16,-7.21,49.42
,-9.105,2.144,-5.073,-8.193,2.73,-4.956,-47.18,-9.66,49.28
11585.0,-8.217,2.525,-4.977,-8.5,0.964,-4.068,-48.44,-21.07,42.21
,-8.315,2.309,-4.463,-8.478,1.144,-4.099,-52.64,-22.82,40.04
,-8.473,1.874,-4.35,-8.346,1.51,-3.752,-54.46,-25.13,38.92
,-8.385,1.232,-4.106,-8.203,1.29,-3.664,-53.13,-28.49,38.99
11660.0,-8.148,0.739,-3.417,-7.499,2.898,-3.75,-15.96,-40.32,35.42
,-8.296,0.469,-3.297,-7.59,3.324,-3.609,-5.95,-42.14,36.4
,-7.918,1.074,-3.443,-7.413,2.898,-3.376,7.28,-42.84,37.03
,-7.571,2.022,-3.455,-7.684,2.146,-2.931,16.66,-42.35,35.84
11736.0,-7.887,1.529,-2.84,-7.413,2.371,-2.517,5.18,-32.69,22.33
,-8.189,1.046,-2.967,-7.341,2.338,-2.237,11.2,-31.92,21.56
,-8.078,1.225,-3.08,-7.107,2.661,-2.833,21.7,-31.22,21.0
,-7.516,1.902,-2.522,-6.825,3.36,-2.962,30.8,-29.05,19.32
11812.0,-6.937,3.843,-3.156,-7.645,5.116,-3.762,46.55,1.96,10.78
,-7.1,4.173,-3.448,-8.155,5.197,-3.678,43.82,9.24,6.02
,-7.167,3.948,-3.518,-8.39,4.506,-3.498,39.2,14.28,1.12
,-7.095,4.314,-3.664,-8.339,3.836,-2.994,37.1,17.22,-3.64
11888.0,-8.179,4.101,-2.575,-7.77,5.329,-3.685,8.33,14.49,-22.75
,-7.851,4.673,-2.493,-8.047,4.482,-3.58,13.44,16.45,-23.8
,-7.581,5.482,-2.848,-8.212,4.212,-3.204,15.61,19.46,-25.9
,-7.566,5.882,-3.427,-8.686,3.955,-2.828,11.27,22.33,-28.98
11964.0,-8.72,3.259,-2.912,-9.497,1.094,-3.508,1.75,22.96,-35.0
,-8.516,2.962,-3.278,-9.524,1.381,-4.532,5.74,24.08,-38.92
,-9.198,2.673,-3.01,-9.158,1.658,-5.401,7.14,25.97,-44.8
,-9.466,1.529,-3.02,-9.148,1.644,-5.762,5.04,26.46,-48.37
12039.0,-9.663,2.381,-6.006,-10.78,6.303,-5.489,16.38,15.05,-44.94
,-10.177,4.013,-5.887,-8.528,3.288,-5.52,26.74,10.64,-38.43
,-11.11,6.052,-5.245,-6.59,1.158,-5.662,38.01,6.86,-30.73
,-11.792,7.578,-5.281,-6.849,0.615,-5.578,45.92,4.55,-22.89
12115.0,-7.904,1.46,-5.363,-9.225,-0.069,-3.967,48.58,-2.87,-26.67
,-8.753,1.704,-5.023,-9.39,0.9,-4.066,41.23,-3.92,-29.89
,-9.524,0.974,-4.697,-9.502,1.926,-4.391,31.64,-5.6,-31.78
,-9.56,0.045,-4.31,-8.849,2.185,-4.398,29.4,-7.21,-30.94
12191.0,-8.679,1.85,-4.401,-8.739,1.436,-4.145,45.43,-11.55,-20.79
,-9.016,1.548,-4.372,-8.99,1.563,-4.082,40.67,-11.55,-20.72
,-9.117,1.405,-4.267,-9.05,1.472,-4.231,38.22,-11.9,-20.16
,-8.815,1.378,-4.204,-8.847,1.223,-4.202,38.5,-12.74,-19.46
12267.0,-8.748,1.56,-4.154,-9.117,0.345,-3.467,31.43,-10.57,-17.43
,-9.079,1.807,-4.094,-9.009,1.271,-3.573,28.63,-10.36,-17.15
,-9.328,1.055,-3.857,-8.906,1.862,-3.74,24.5,-10.99,-15.47
,-9.344,0.175,-3.623,-8.854,1.723,-3.766,25.27,-11.69,-13.37
12342.0,-8.854,1.342,-3.781,-9.476,-0.041,-3.575,18.83,-5.95,-13.44
,-8.947,1.472,-3.764,-9.117,0.031,-3.695,18.9,-4.83,-13.02
,-9.06,1.23,-3.733,-8.921,0.928,-3.867,17.99,-4.2,-12.39
,-9.342,0.503,-3.609,-9.095,1.747,-4.178,17.29,-3.92,-11.06
12418.0,-8.99,1.859,-4.295,-8.842,1.443,-4.221,21.14,-2.66,-7.98
,-8.918,1.405,-4.24,-8.799,1.687,-4.288,15.61,-2.1,-8.26
,-9.086,0.916,-4.324,-9.019,1.543,-4.235,14.49,-2.31,-7.98
,-8.866,1.122,-4.298,-8.985,1.287,-4.305,17.29,-2.59,-7.63
12493.0,-8.947,1.015,-4.369,-8.622,2.233,-4.247,10.57,-1.96,-7.28
,-9.026,1.201,-4.413,-8.851,1.725,-4.011,9.31,-1.68,-8.33
,-8.748,1.737,-4.446,-9.005,0.893,-3.872,7.49,-1.47,-9.45
,-8.536,2.123,-4.398,-9.189,0.392,-3.774,4.34,-1.4,-10.15
12569.0,-9.052,0.512,-3.656,-9.196,0.854,-3.029,3.08,0.21,-10.01
,-9.1,0.751,-3.434,-9.194,0.952,-3.111,4.55,0.98,-10.36
,-9.139,0.998,-3.206,-9.062,1.146,-3.25,4.34,1.61,-10.08
,-9.191,0.969,-3.001,-8.827,1.469,-3.448,3.85,2.59,-9.73
12645.0,-8.775,1.35,-3.415,-9.416,0.005,-3.604,0.28,8.05,-11.41
,-8.985,1.046,-3.305,-9.375,-0.251,-3.879,-2.03,8.82,-11.76
,-9.208,0.603,-3.137,-9.158,-0.065,-4.032,-2.87,9.94,-11.83
,-9.409,0.242,-3.257,-9.093,0.034,-4.109,-2.1,10.85,-11.76
12721.0,-9.273,0.567,-4.099,-9.679,-0.091,-2.852,-6.51,11.13,-14.49
,-9.04,0.483,-3.726,-9.474,0.28,-2.934,-7.21,10.64,-13.93
,-9.024,0.168,-3.35,-9.349,1.062,-3.173,-6.16,10.71,-12.11
,-9.581,-0.043,-3.049,-9.225,1.747,-3.405,-2.94,11.69,-10.08
12796.0,-9.177,2.103,-3.695,-9.074,2.57,-4.972,-3.85,21.14,-13.37
,-8.988,2.216,-3.989,-9.452,2.862,-4.542,-9.73,23.24,-14.63
,-9.179,2.237,-4.274,-9.354,2.74,-4.472,-13.3,24.15,-15.47
,-9.299,2.4,-4.625,-9.474,2.405,-3.874,-14.14,24.43,-14.77
12872.0,-9.316,3.032,-3.893,-9.782,2.496,-4.563,-11.2,20.51,-13.58
,-8.047,4.499,-4.724,-9.234,1.019,-5.334,-12.25,22.82,-14.98
,-8.088,5.664,-4.999,-9.069,0.352,-5.25,-23.52,29.26,-18.62
,-8.583,4.764,-4.63,-8.835,0.988,-5.537,-44.03,34.02,-24.15
12948.0,-8.409,1.835,-5.731,-8.308,7.547,-5.889,-25.9,28.63,-5.39
,-8.337,3.293,-5.91,-8.904,6.76,-5.65,-20.37,27.23,0.07
,-8.239,5.051,-5.76,-9.289,4.685,-5.554,-21.28,26.11,4.76
,-8.102,6.667,-5.994,-9.442,2.541,-5.226,-30.24,25.41,7.63
13024.0,-9.361,1.196,-5.114,-9.014,3.245,-5.229,-84.77,7.42,20.93
,-9.387,0.991,-5.047,-8.76,3.996,-5.284,-68.95,3.01,27.09
,-9.292,1.546,-5.351,-8.638,4.295,-4.963,-52.57,-0.91,33.39
,-9.122,2.429,-5.315,-8.145,4.267,-4.819,-41.72,-3.78,39.2
13100.0,-7.973,4.185,-4.939,-9.201,1.936,-4.628,-49.98,-16.66,52.71
,-8.428,3.979,-5.066,-8.89,0.885,-4.441,-54.67,-17.29,53.06
,-9.086,3.656,-5.066,-8.77,0.481,-4.673,-59.36,-19.53,53.34
,-9.287,3.175,-4.879,-8.801,0.967,-4.776,-61.39,-22.61,54.04
13175.0,-8.555,1.881,-4.915,-8.138,1.424,-4.085,-12.81,-38.08,67.55
,-8.423,2.3,-4.836,-8.208,1.077,-4.106,-7.14,-39.76,67.13
,-8.725,2.46,-4.712,-8.303,1.397,-4.068,-5.81,-41.51,66.43
,-8.229,2.089,-4.652,-8.425,1.766,-3.697,-5.46,-43.33,66.5
13251.0,-8.5,2.094,-3.75,-7.973,1.307,-2.881,8.61,-43.33,65.24
,-8.466,1.831,-3.63,-7.837,1.443,-3.221,8.82,-42.21,62.65
,-8.708,1.457,-3.625,-7.545,0.955,-2.74,10.85,-41.72,59.71
,-8.15,1.424,-3.264,-7.688,0.165,-2.702,14.42,-40.53,56.84
13326.0,-7.703,-0.182,-2.627,-7.353,1.646,-3.18,42.56,-27.93,43.75
,-7.664,0.311,-2.613,-7.399,0.95,-3.185,57.75,-24.64,42.7
,-7.145,1.637,-3.467,-7.124,1.084,-3.209,71.61,-18.69,42.49
,-6.803,2.24,-3.149,-6.985,2.405,-3.534,73.99,-12.32,39.62
13402.0,-7.038,4.097,-3.872,-7.59,3.999,-4.049,80.64,7.42,18.55
,-7.387,5.138,-3.781,-8.038,3.295,-3.999,65.73,9.24,9.66
,-7.897,4.944,-3.721,-7.698,2.402,-4.46,47.04,9.24,0.49
,-7.832,4.405,-4.061,-7.741,2.132,-4.901,30.66,9.8,-8.96
13478.0,-7.997,2.625,-4.867,-8.483,3.79,-4.532,10.5,17.78,-31.92
,-8.157,3.446,-4.635,-8.765,0.983,-4.252,14.7,16.8,-35.21
,-8.098,5.023,-4.697,-9.005,0.168,-4.274,12.6,17.64,-40.39
,-8.102,5.48,-4.721,-8.794,1.005,-4.585,-1.05,19.04,-44.87
13554.0,-8.375,2.517,-5.173,-9.076,3.061,-5.963,18.2,11.83,-36.33
,-8.294,3.527,-5.674,-9.634,2.029,-5.793,21.98,10.22,-35.07
,-8.334,4.02,-6.131,-10.021,1.263,-5.365,19.25,8.68,-37.1
,-8.696,3.848,-6.286,-10.074,1.316,-5.202,11.41,7.14,-40.39
13629.0,-10.223,2.187,-5.042,-10.074,2.388,-3.431,30.59,-10.71,-31.15
,-10.459,2.927,-4.587,-8.782,2.654,-3.245,37.38,-12.74,-27.3
,-10.658,2.948,-3.924,-7.564,3.333,-3.228,39.76,-13.23,-24.36
,-10.802,2.73,-3.668,-7.755,2.922,-3.017,42.35,-13.16,-21.63
13705.0,-8.985,1.776,-3.013,-8.949,1.57,-4.862,37.03,-6.16,-22.82
,-9.395,0.761,-3.089,-8.799,1.938,-5.26,34.44,-5.25,-22.75
,-9.438,0.763,-3.522,-8.528,2.139,-5.53,37.24,-5.25,-22.47
,-9.227,1.048,-4.082,-8.626,1.828,-5.494,39.13,-5.67,-22.68
13781.0,-9.093,1.213,-5.202,-9.153,0.931,-4.295,24.22,-9.66,-20.86
,-9.136,0.663,-4.91,-9.052,1.103,-4.197,23.24,-10.92,-19.67
,-9.05,0.273,-4.48,-9.371,1.067,-4.116,24.5,-11.83,-18.48
,-9.16,0.459,-4.401,-9.442,0.565,-4.087,26.25,-12.53,-17.29
13857.0,-8.899,0.333,-3.946,-8.902,1.522,-3.857,22.26,-14.07,-12.39
,-8.997,0.727,-3.807,-8.765,1.287,-3.781,25.76,-13.93,-11.34
,-9.177,1.115,-3.807,-9.057,1.395,-3.632,26.53,-13.65,-10.36
,-9.22,1.527,-3.896,-9.174,1.022,-3.245,25.55,-13.44,-9.66
13933.0,-9.088,0.713,-3.08,-8.971,1.627,-3.254,16.31,-9.03,-8.61
,-9.177,0.79,-2.989,-9.136,0.924,-3.051,19.53,-7.91,-7.84
,-8.995,1.452,-3.099,-9.395,0.519,-2.898,21.98,-6.65,-7.7
,-9.0,2.06,-3.266,-9.378,0.388,-2.965,20.02,-5.25,-7.63
14008.0,-9.284,0.699,-3.314,-8.54,1.73,-4.642,20.58,-0.35,-3.92
,-9.261,1.065,-3.707,-8.77,1.864,-4.57,21.35,0.0,-3.78
,-9.146,1.445,-4.185,-8.873,1.577,-4.403,20.16,-0.14,-3.85
,-8.662,1.558,-4.547,-9.074,0.986,-4.066,17.5,-0.21,-4.34
14084.0,-9.325,0.412,-3.975,-9.002,1.5,-3.719,5.46,0.28,-6.02
,-9.213,0.467,-3.697,-8.99,1.326,-3.697,9.17,0.07,-5.67
,-9.048,0.928,-3.711,-9.083,0.926,-3.709,11.76,0.21,-5.53
,-9.067,1.347,-3.735,-9.165,0.629,-3.776,11.13,0.77,-5.11
14159.0,-9.215,0.464,-3.776,-9.421,0.524,-3.364,8.05,2.52,-4.76
,-9.009,0.94,-3.92,-9.301,0.022,-3.12,10.99,2.17,-4.48
,-8.717,1.496,-3.769,-9.15,-0.055,-2.934,11.2,2.66,-4.83
,-9.038,1.232,-3.532,-9.249,0.337,-2.804,7.28,3.5,-5.25
14235.0,-9.277,0.689,-2.661,-9.514,-0.263,-2.139,14.07,6.93,-4.34
,-9.349,0.455,-2.503,-9.438,0.321,-2.596,11.9,8.26,-4.62
,-9.332,-0.065,-2.352,-9.308,0.682,-2.946,10.85,9.59,-4.76
,-9.301,-0.323,-2.012,-9.251,0.603,-3.223,12.25,11.06,-4.76
14311.0,-9.337,0.524,-3.795,-8.748,0.771,-5.284,14.49,16.94,-1.82
,-9.105,0.345,-4.238,-8.519,1.505,-5.468,13.72,17.01,-0.84
,-9.009,0.251,-4.551,-8.416,2.115,-5.678,14.7,17.29,0.07
,-9.002,0.364,-4.958,-8.634,2.599,-5.815,16.94,17.08,0.84
14387.0,-8.947,2.793,-5.683,-9.043,1.721,-4.223,-5.95,19.32,-4.27
,-8.756,2.802,-5.53,-8.33,1.642,-4.783,-11.06,17.85,-5.04
,-9.196,2.804,-5.044,-8.162,2.302,-4.946,-13.09,15.33,-5.88
,-9.404,2.257,-4.563,-8.311,3.415,-5.382,-13.02,10.71,-6.58
14462.0,-8.473,3.9,-5.473,-9.119,2.673,-5.379,-8.82,15.68,-7.56
,-8.234,3.798,-5.793,-9.153,2.532,-5.666,-20.3,18.41,-9.38
,-8.399,3.731,-5.846,-8.856,2.716,-5.626,-31.01,21.42,-11.83
,-9.088,3.484,-5.853,-9.06,2.383,-4.793,-40.95,22.82,-14.28
14538.0,-10.641,2.276,-4.391,-9.153,3.774,-4.549,-61.46,19.81,-18.2
,-9.33,3.463,-4.69,-8.811,3.345,-4.824,-56.28,17.85,-9.94
,-8.502,4.259,-4.523,-8.794,3.379,-4.499,-57.82,18.06,-4.55
,-8.961,4.269,-4.082,-9.052,3.434,-4.042,-63.14,16.87,-2.87
14614.0,-9.182,2.998,-4.365,-8.626,3.147,-4.499,-60.97,10.64,11.48
,-9.057,2.539,-4.475,-8.713,3.599,-4.408,-55.02,6.58,17.08
,-8.775,2.467,-4.448,-8.5,4.044,-4.63,-45.85,3.01,23.03
,-8.679,2.67,-4.513,-8.32,4.063,-4.647,-37.03,0.49,28.63
14690.0,-8.344,3.924,-4.86,-8.78,2.283,-4.968,-25.27,-7.7,45.78
,-8.607,3.532,-4.836,-8.658,2.769,-5.02,-28.35,-8.75,47.81
,-8.658,2.876,-4.721,-8.497,3.79,-5.173,-31.01,-10.43,49.49
,-8.875,2.359,-4.786,-8.332,4.274,-5.257,-30.03,-12.39,52.43
14766.0,-8.413,4.355,-5.059,-9.139,1.732,-4.133,-26.81,-15.75,58.8
,-8.15,4.53,-5.262,-8.842,1.551,-4.19,-33.39,-16.03,57.19
,-8.459,3.687,-4.75,-8.808,1.742,-4.006,-41.44,-16.52,55.37
,-9.024,2.575,-4.245,-8.811,2.175,-3.9,-47.11,-18.9,55.72
14841.0,-8.772,2.364,-3.855,-7.82,3.18,-4.015,-14.49,-25.34,63.14
,-8.653,2.737,-3.709,-8.229,2.331,-3.829,-10.71,-25.62,63.56
,-7.999,3.778,-4.195,-8.392,1.862,-3.673,-4.06,-24.5,61.11
,-7.648,3.798,-4.276,-8.399,1.601,-3.36,-7.14,-22.54,56.77
14917.0,-8.536,1.551,-3.228,-7.571,3.061,-3.118,-6.16,-21.63,49.49
,-8.37,1.596,-3.116,-7.413,3.123,-2.9,0.77,-21.28,47.88
,-8.133,1.838,-3.089,-7.609,2.453,-2.804,6.02,-21.07,45.43
,-7.844,2.62,-3.175,-7.688,1.73,-3.001,9.38,-20.02,42.49
14992.0,-7.629,1.151,-2.819,-6.882,1.933,-2.915,0.77,-12.53,23.94
,-7.638,0.474,-2.556,-7.229,2.321,-3.029,8.12,-12.25,21.63
,-7.31,-0.045,-2.101,-6.963,2.979,-3.472,20.93,-10.99,21.07
,-7.121,0.928,-2.974,-6.413,4.128,-3.831,42.98,-6.58,23.45
15068.0,-6.485,5.501,-4.046,-8.751,1.022,-2.946,56.63,17.71,-4.2
,-7.286,5.729,-4.221,-8.411,0.763,-2.907,39.27,20.72,-13.86
,-7.918,4.422,-4.149,-8.253,1.228,-3.039,17.85,21.14,-21.63
,-8.586,2.613,-3.58,-8.409,2.247,-3.587,2.45,20.09,-27.23
15144.0,-8.406,3.903,-4.058,-8.26,2.692,-3.171,50.61,17.36,-22.26
,-8.112,5.305,-3.984,-8.404,0.723,-2.979,45.78,17.08,-25.97
,-8.112,5.602,-3.463,-8.61,-0.254,-3.01,32.97,17.71,-29.68
,-8.275,4.719,-3.364,-8.693,0.546,-3.85,20.44,18.97,-33.04
15220.0,-8.433,2.905,-4.523,-7.822,5.705,-7.597,64.75,13.02,-26.04
,-8.346,4.903,-5.511,-8.299,5.288,-7.688,69.51,11.83,-26.74
,-8.052,7.117,-6.908,-9.079,4.783,-6.937,63.35,12.18,-30.66
,-7.863,6.894,-7.028,-9.093,3.128,-6.652,43.05,12.6,-34.93
15295.0,-9.564,2.158,-6.178,-10.311,2.077,-4.338,15.26,-2.17,-34.37
,-9.672,1.91,-5.688,-11.041,1.694,-4.24,22.33,-4.62,-34.02
,-9.375,2.187,-5.267,-10.84,1.524,-4.539,24.71,-5.46,-35.98
,-9.696,2.386,-4.769,-9.459,1.371,-5.188,21.77,-5.25,-39.55
15371.0,-8.143,1.651,-5.552,-8.066,2.489,-5.296,30.1,-10.15,-28.49
,-7.502,2.264,-6.231,-8.603,1.543,-4.709,36.68,-11.55,-26.11
,-7.772,2.532,-6.157,-9.107,0.68,-4.271,35.49,-12.74,-27.16
,-8.162,2.737,-5.954,-9.026,0.536,-4.097,29.68,-13.86,-29.54
15447.0,-8.636,1.113,-3.853,-9.158,0.792,-3.305,31.64,-17.08,-23.87
,-8.473,2.07,-3.628,-9.002,0.318,-3.242,36.68,-15.47,-22.96
,-8.83,2.491,-3.549,-9.127,0.708,-3.429,31.92,-13.72,-23.52
,-9.189,1.922,-3.47,-9.21,1.144,-3.726,21.77,-12.39,-24.36
15523.0,-9.079,1.199,-3.843,-8.892,0.806,-4.647,8.19,-5.11,-23.59
,-9.06,0.751,-4.013,-8.739,1.658,-4.822,3.5,-4.2,-23.24
,-9.165,0.235,-4.145,-8.67,1.905,-4.748,2.03,-3.78,-22.12
,-9.296,0.16,-4.365,-8.708,1.845,-4.573,4.62,-4.27,-20.79
15598.0,-8.382,1.945,-4.159,-9.098,-0.019,-3.91,-7.77,-0.56,-20.58
,-8.557,1.843,-3.924,-8.806,0.237,-4.039,-10.64,1.05,-20.65
,-9.098,1.503,-3.927,-8.696,1.115,-4.054,-13.93,2.38,-20.16
,-9.433,0.689,-3.951,-8.897,1.653,-3.97,-15.61,2.66,-19.67
15674.0,-9.249,1.292,-4.078,-9.438,0.084,-3.606,-11.27,4.97,-17.29
,-9.103,0.581,-3.929,-9.165,0.426,-3.936,-14.07,4.69,-16.45
,-8.957,-0.235,-3.723,-9.06,0.952,-4.29,-10.43,4.2,-14.56
,-9.356,-0.189,-3.537,-8.772,0.914,-4.439,-1.33,3.5,-11.48
15750.0,-8.89,0.811,-4.53,-9.404,0.684,-3.515,3.71,1.89,-9.94
,-9.019,0.715,-4.357,-9.407,0.457,-3.355,3.01,0.98,-9.87
,-8.921,0.61,-4.03,-9.263,0.144,-3.278,4.9,0.56,-8.89
,-9.215,0.548,-3.716,-9.124,0.246,-3.345,8.19,0.77,-6.93
15826.0,-8.873,0.579,-3.384,-8.997,0.883,-4.037,17.57,4.27,-4.13
,-8.957,0.797,-3.455,-8.882,0.656,-4.267,17.15,4.9,-4.06
,-8.99,0.94,-3.53,-8.72,0.586,-4.561,16.24,5.81,-3.57
,-9.005,0.969,-3.702,-8.588,0.751,-4.707,15.47,6.72,-3.15
15902.0,-8.847,0.684,-4.846,-8.921,0.146,-4.692,12.6,6.79,-1.82
,-8.981,0.517,-4.843,-8.873,0.266,-4.659,11.62,6.3,-1.33
,-8.88,0.371,-4.762,-8.794,0.419,-4.477,11.48,5.74,-1.05
,-8.909,0.163,-4.745,-8.947,0.651,-4.245,11.55,5.11,-1.05
15977.0,-9.002,1.151,-4.063,-8.557,1.519,-3.101,4.69,5.81,-5.32
,-8.76,1.383,-3.915,-8.799,1.543,-2.943,1.47,6.16,-7.0
,-8.567,1.4,-3.721,-9.148,1.62,-2.984,-1.26,6.79,-7.84
,-8.497,1.328,-3.451,-9.215,1.429,-3.096,-1.75,7.91,-7.98
16053.0,-9.146,1.12,-3.058,-9.471,2.675,-4.228,-7.28,21.0,-9.03
,-9.789,1.374,-3.525,-8.799,2.467,-4.59,-7.14,22.61,-8.75
,-10.043,1.759,-4.03,-8.37,3.044,-5.307,-5.39,22.68,-7.49
,-9.744,2.548,-4.525,-8.289,3.405,-5.408,-3.78,21.98,-7.77
16128.0,-8.806,3.977,-5.492,-9.016,3.343,-5.602,-19.11,22.61,-10.99
,-9.098,3.52,-5.123,-8.483,3.848,-5.803,-24.92,23.03,-11.48
,-9.04,2.9,-4.783,-8.284,3.879,-5.867,-30.24,23.52,-11.97
,-8.981,2.694,-4.87,-8.801,3.362,-5.796,-31.43,25.06,-12.25
16204.0,-8.885,3.209,-6.061,-9.325,4.728,-5.714,-48.44,25.62,-7.35
,-8.332,4.384,-6.415,-9.474,3.175,-5.391,-50.12,26.88,-4.41
,-8.021,5.64,-6.018,-9.294,1.785,-4.958,-57.68,29.47,-2.87
,-8.933,5.698,-5.573,-9.179,1.486,-5.152,-72.94,28.0,-1.68
16280.0,-8.995,1.931,-5.418,-8.536,3.946,-5.051,-53.34,5.04,29.12
,-9.076,2.977,-5.705,-8.157,3.922,-4.795,-38.15,1.05,34.86
,-8.875,3.778,-5.848,-7.497,3.819,-5.013,-32.06,-2.24,40.11
,-8.792,4.02,-5.623,-7.624,3.929,-5.2,-32.41,-5.67,45.85
16356.0,-8.564,3.845,-4.901,-7.846,2.958,-4.855,-34.37,-21.21,59.71
,-9.229,3.053,-4.8,-8.129,2.883,-4.759,-38.92,-22.82,60.9
,-9.033,2.259,-4.602,-8.509,2.249,-4.726,-37.38,-24.5,63.35
,-8.114,2.491,-4.783,-8.949,1.735,-4.807,-29.4,-24.08,64.89
16431.0,-8.488,1.417,-4.85,-7.612,2.991,-4.664,-19.11,-25.9,64.19
,-7.672,1.517,-4.568,-7.889,3.319,-4.563,-12.53,-26.11,64.26
,-7.547,1.462,-4.279,-8.208,2.704,-4.513,-6.09,-25.62,64.47
,-7.511,2.187,-4.59,-8.308,1.831,-4.539,0.49,-24.92,64.75
16507.0,-8.141,1.175,-4.649,-7.837,1.156,-3.683,-7.14,-24.36,53.76
,-8.186,0.646,-4.202,-7.837,1.661,-3.685,1.12,-25.76,52.57
,-8.155,0.493,-3.991,-7.739,1.933,-4.051,11.13,-27.79,53.41
,-7.921,0.646,-3.845,-7.253,1.721,-3.534,21.35,-29.33,55.16
16582.0,-7.466,1.665,-3.74,-7.076,2.62,-3.285,47.46,-27.86,45.92
,-7.318,1.886,-3.592,-6.815,3.577,-3.53,51.17,-26.6,42.98
,-7.2,2.027,-3.374,-6.729,3.735,-3.69,52.57,-24.57,38.64
,-7.045,2.225,-3.283,-6.923,3.635,-4.152,51.17,-22.12,34.02
16658.0,-6.777,3.726,-4.527,-8.378,2.86,-3.996,36.12,15.47,-0.14
,-6.791,4.2,-4.826,-8.567,2.948,-3.506,25.83,19.6,-9.94
,-7.492,4.484,-4.688,-8.21,2.709,-3.094,14.28,19.74,-17.71
,-8.086,3.422,-4.48,-7.767,2.749,-3.592,2.17,16.73,-23.38
16734.0,-7.71,3.398,-4.219,-8.174,2.726,-3.472,2.03,19.18,-33.74
,-7.746,4.197,-4.432,-8.256,1.493,-3.367,2.87,20.44,-37.24
,-7.81,4.369,-4.054,-8.346,0.909,-3.451,-2.45,21.14,-41.51
,-7.947,3.826,-3.642,-8.311,1.46,-3.733,-11.34,22.68,-44.59
16810.0,-8.603,2.398,-4.539,-9.287,2.328,-6.466,3.5,24.99,-49.14
,-8.658,2.051,-5.106,-9.39,3.046,-6.377,1.75,22.96,-48.02
,-9.012,1.51,-5.647,-9.725,3.644,-6.178,3.22,20.02,-45.57
,-9.222,1.821,-6.145,-9.739,3.917,-5.841,10.01,16.73,-42.35
16886.0,-10.098,3.903,-5.437,-8.777,1.981,-5.013,37.66,0.56,-27.58
,-10.402,3.333,-4.841,-8.086,1.943,-5.446,37.31,-0.63,-27.58
,-10.713,2.938,-4.477,-7.576,2.099,-5.915,38.92,-1.68,-26.67
,-10.132,2.429,-4.678,-7.767,2.005,-6.04,40.95,-2.52,-25.27
16961.0,-8.241,1.735,-6.169,-8.665,1.706,-5.587,31.92,-6.02,-27.58
,-8.27,1.637,-6.083,-8.701,1.464,-5.497,29.19,-7.7,-28.07
,-8.172,1.711,-5.865,-8.48,1.519,-5.135,27.3,-8.61,-28.35
,-8.411,1.768,-5.757,-8.746,1.661,-4.874,25.34,-9.45,-28.07
17037.0,-8.942,1.479,-4.678,-9.136,0.608,-4.063,20.65,-10.64,-23.73
,-8.878,1.108,-4.503,-9.15,0.433,-4.025,17.36,-10.29,-23.66
,-8.681,0.79,-4.178,-9.064,0.692,-4.104,15.33,-9.59,-23.24
,-8.923,0.641,-4.046,-8.674,0.96,-4.046,14.63,-8.75,-22.05
17113.0,-8.94,1.091,-4.223,-8.545,1.187,-5.183,15.96,-5.53,-16.87
,-9.15,1.036,-4.377,-8.689,1.642,-5.145,13.37,-5.53,-15.96
,-9.05,0.548,-4.592,-8.55,1.665,-4.884,11.62,-5.81,-15.33
,-8.713,0.715,-4.972,-8.693,1.292,-4.518,13.51,-6.23,-14.63
17189.0,-9.064,0.914,-4.29,-8.892,0.11,-4.001,6.44,-6.23,-11.55
,-9.342,0.199,-4.314,-9.136,0.5,-3.821,7.21,-6.86,-10.08
,-9.124,-0.306,-4.228,-9.474,0.33,-3.711,10.22,-7.49,-8.68
,-8.921,-0.361,-4.128,-9.363,-0.239,-3.635,15.47,-7.98,-7.21
17264.0,-9.263,-0.522,-3.733,-8.447,2.539,-4.898,30.45,-10.92,1.68
,-8.997,-0.06,-4.075,-8.461,2.393,-5.018,37.66,-11.76,3.36
,-8.78,0.955,-4.176,-8.452,2.101,-5.078,42.28,-11.41,3.92
,-8.569,2.036,-4.602,-8.691,1.711,-5.121,41.44,-10.43,3.64
17340.0,-8.689,1.407,-4.815,-8.856,1.129,-3.958,12.81,-7.77,-1.96
,-8.681,1.395,-4.58,-8.782,1.211,-3.934,13.37,-7.84,-1.75
,-8.854,1.479,-4.317,-8.607,1.596,-4.022,13.37,-7.35,-1.61
,-8.842,1.285,-4.018,-8.641,1.737,-4.056,11.83,-6.44,-2.24
17415.0,-8.839,1.474,-3.965,-9.139,0.246,-3.865,0.91,-2.31,-6.79
,-8.988,0.983,-3.786,-9.201,0.22,-4.015,-0.63,-1.68,-7.0
,-9.072,0.627,-3.702,-9.06,0.299,-4.109,0.7,-1.05,-6.72
,-9.167,0.421,-3.776,-9.146,0.189,-4.202,2.66,-0.77,-6.3
17491.0,-9.124,0.297,-4.178,-8.643,1.608,-3.396,9.87,-1.61,-3.85
,-8.839,0.818,-4.123,-8.787,1.551,-3.173,12.6,-1.33,-3.71
,-8.746,1.01,-3.91,-8.93,1.515,-2.979,12.04,-0.56,-4.27
,-8.851,1.268,-3.745,-8.957,1.438,-2.697,10.57,0.63,-4.83
17567.0,-8.832,1.39,-2.4,-9.311,0.94,-2.927,-8.33,12.95,-13.72
,-8.923,1.364,-2.283,-9.107,0.766,-3.24,-11.48,16.38,-14.91
,-9.155,1.271,-2.333,-9.05,1.034,-3.848,-14.28,19.25,-15.96
,-9.32,1.103,-2.522,-8.873,1.67,-4.365,-16.38,21.91,-16.31
17643.0,-8.902,2.41,-4.621,-9.28,1.606,-4.372,-10.01,27.44,-14.7
,-8.839,2.723,-5.018,-8.78,1.737,-4.197,-11.06,27.44,-13.72
,-8.988,2.864,-4.817,-8.145,2.383,-4.319,-14.77,27.58,-14.0
,-9.351,2.364,-4.391,-8.421,3.439,-4.755,-19.46,25.55,-14.07
17719.0,-8.875,3.735,-4.829,-9.373,2.86,-5.793,-23.45,29.4,-11.76
,-8.421,3.697,-5.753,-9.383,2.383,-5.853,-32.97,32.76,-12.81
,-8.631,3.515,-5.817,-9.471,2.17,-5.659,-39.97,35.98,-14.77
,-8.835,3.403,-6.253,-8.701,3.123,-5.788,-45.36,37.59,-16.52
17794.0,-8.512,4.092,-5.966,-9.263,2.723,-5.202,-53.13,31.36,-3.36
,-8.533,4.831,-5.887,-9.093,1.783,-5.164,-57.75,30.66,-1.12
,-8.789,5.016,-5.803,-8.933,1.977,-5.272,-64.54,28.63,1.12
,-9.057,4.13,-5.489,-8.583,3.049,-5.599,-72.24,25.41,3.78
17870.0,-8.425,4.063,-5.693,-8.48,3.704,-5.159,-31.78,7.14,29.12
,-8.15,4.53,-5.875,-8.272,3.386,-5.181,-33.18,4.06,31.85
,-8.133,4.472,-5.832,-8.124,3.525,-5.346,-38.85,1.47,34.51
,-8.662,4.25,-5.403,-8.303,4.19,-5.47,-42.77,-3.5,38.22
17946.0,-8.636,4.771,-5.451,-8.473,2.776,-5.195,-35.0,-17.99,49.98
,-8.588,4.408,-5.351,-8.71,2.551,-5.097,-40.74,-19.39,50.19
,-8.433,3.53,-5.118,-8.631,2.422,-5.104,-46.2,-20.72,51.03
,-8.466,3.084,-5.166,-8.732,2.383,-4.96,-45.15,-21.98,52.5
18022.0,-8.727,2.091,-4.637,-7.985,2.8,-4.329,-29.61,-30.38,60.55
,-8.471,2.63,-4.721,-8.437,2.625,-4.264,-22.12,-33.6,62.16
,-7.87,3.056,-4.594,-8.526,2.46,-4.257,-18.48,-35.77,62.02
,-7.818,3.022,-4.432,-8.32,2.307,-4.188,-19.25,-36.96,61.25
18097.0,-8.167,2.328,-3.922,-7.71,2.659,-3.872,-14.49,-41.09,57.47
,-7.758,3.013,-4.221,-7.696,1.989,-3.381,-9.73,-40.74,56.07
,-7.605,3.257,-4.149,-7.875,1.175,-2.955,-10.43,-40.04,53.55
,-7.763,3.252,-4.068,-8.119,0.567,-2.84,-14.21,-38.78,51.24
18173.0,-7.988,-0.086,-2.556,-7.394,1.85,-3.199,8.4,-32.55,45.78
,-7.956,0.098,-2.668,-7.411,1.271,-3.305,26.04,-30.45,46.48
,-7.504,1.661,-3.171,-7.078,1.137,-3.257,43.26,-27.51,46.69
,-7.057,2.386,-2.778,-6.801,1.45,-3.285,48.37,-22.96,43.19
18248.0,-6.863,1.716,-3.357,-6.205,5.252,-3.798,61.95,-8.82,28.28
,-6.729,1.843,-2.989,-6.559,4.654,-4.302,61.25,-5.39,24.29
,-6.257,3.475,-3.496,-7.121,4.609,-4.377,65.1,-0.56,21.14
,-5.843,5.008,-3.738,-7.205,4.702,-4.855,62.37,6.3,14.0
18324.0,-7.365,4.054,-4.807,-8.576,1.737,-4.396,6.09,23.45,-30.87
,-8.196,3.309,-4.614,-8.492,3.254,-5.008,-1.26,22.26,-34.79
,-8.751,2.345,-4.393,-8.636,4.515,-5.128,-4.55,20.02,-35.84
,-8.65,1.326,-4.2,-8.545,5.083,-5.044,1.05,17.5,-34.58
18400.0,-8.693,5.027,-4.757,-9.438,1.536,-4.905,15.33,12.95,-36.05
,-8.887,4.42,-4.989,-9.55,1.201,-4.98,6.72,13.3,-40.53
,-9.081,3.975,-5.03,-9.543,0.773,-4.786,0.07,13.72,-45.5
,-9.206,2.781,-4.891,-9.471,0.483,-4.767,-5.74,14.0,-49.84
18476.0,-9.323,1.094,-5.15,-9.653,5.336,-5.279,20.86,3.99,-43.68
,-9.038,2.264,-5.619,-10.55,5.793,-4.671,31.15,0.21,-38.43
,-9.016,3.408,-5.86,-10.601,4.819,-4.305,38.22,-3.43,-33.95
,-9.057,4.298,-5.793,-9.469,2.991,-4.204,41.86,-5.95,-30.8
18552.0,-7.983,1.914,-4.252,-9.921,0.68,-3.092,37.59,-9.1,-24.85
,-7.042,2.027,-4.14,-9.876,-0.081,-3.044,41.44,-7.63,-25.76
,-7.901,2.223,-3.903,-9.591,-0.309,-3.312,39.55,-6.09,-28.14
,-9.165,1.759,-3.553,-8.957,0.909,-3.915,32.48,-5.25,-30.31
18627.0,-8.373,1.917,-4.228,-9.033,0.268,-4.704,48.58,-5.39,-22.75
,-8.684,2.328,-4.547,-8.88,0.696,-4.776,44.17,-4.83,-21.14
,-9.091,1.788,-4.587,-8.552,1.618,-4.748,38.29,-4.97,-19.81
,-9.134,0.881,-4.549,-8.354,2.651,-4.649,36.26,-5.32,-18.83
18703.0,-8.334,2.637,-4.348,-8.787,1.642,-4.389,38.78,-7.07,-15.33
,-8.902,1.74,-4.063,-8.739,2.079,-4.427,32.76,-6.79,-14.49
,-8.981,1.036,-4.011,-8.918,1.61,-4.566,33.11,-6.58,-13.44
,-8.662,1.117,-4.156,-9.232,0.581,-4.666,35.77,-5.39,-13.79
18779.0,-9.273,-0.191,-4.704,-8.638,1.369,-5.446,18.2,-3.01,-13.79
,-9.016,-0.043,-5.051,-8.815,1.249,-5.377,24.22,-3.99,-11.69
,-8.808,0.668,-5.274,-8.945,0.948,-5.212,27.65,-4.9,-10.78
,-8.67,1.17,-5.382,-8.981,0.828,-4.956,26.81,-5.88,-9.87
18855.0,-8.804,0.799,-4.752,-9.481,-0.093,-3.518,18.62,-10.08,-5.95
,-8.77,1.395,-4.585,-9.28,-0.593,-3.441,19.11,-10.43,-5.88
,-8.882,1.594,-4.286,-9.112,0.093,-3.455,17.08,-10.57,-5.67
,-9.155,1.086,-3.869,-8.964,0.974,-3.451,13.58,-10.36,-4.48
18930.0,-9.033,1.196,-3.467,-8.54,2.063,-4.255,28.21,-10.78,0.21
,-9.234,0.969,-3.592,-8.313,2.395,-4.255,25.76,-10.15,0.84
,-9.093,0.83,-3.819,-8.918,2.206,-4.31,25.83,-9.24,0.91
,-8.871,1.17,-4.111,-9.158,1.9,-4.413,26.88,-8.54,0.84
19006.0,-8.789,1.649,-4.319,-8.674,1.457,-4.913,10.99,-4.83,-2.45
,-8.672,1.266,-4.204,-8.507,1.804,-4.996,10.57,-4.27,-2.8
,-9.05,1.046,-4.322,-8.356,2.331,-4.788,9.94,-4.2,-2.94
,-9.083,1.283,-4.781,-8.504,2.347,-4.274,9.8,-5.11,-3.71
19081.0,-8.837,1.673,-3.783,-9.081,0.651,-2.4,-1.82,-5.67,-6.72
,-9.107,0.814,-3.357,-9.581,0.309,-2.257,-0.84,-5.53,-6.3
,-9.201,0.304,-2.924,-9.801,-0.364,-2.467,3.57,-5.18,-6.58
,-8.94,0.45,-2.661,-9.651,-0.684,-3.001,8.68,-3.92,-7.0
19157.0,-9.313,-0.206,-3.419,-8.715,1.967,-4.343,19.04,1.19,-5.74
,-8.744,1.165,-3.798,-8.021,2.637,-4.238,22.05,2.17,-5.32
,-8.818,1.797,-4.015,-8.646,1.866,-3.932,18.34,3.43,-4.9
,-9.086,1.608,-4.307,-9.579,0.495,-3.81,12.11,3.99,-4.97
19233.0,-9.672,-0.443,-3.731,-9.012,0.672,-4.645,-9.87,9.94,-8.96
,-9.859,-0.881,-3.826,-8.935,0.586,-4.807,-4.83,9.03,-7.7
,-9.0,-0.799,-4.231,-9.172,0.16,-4.645,1.26,7.56,-6.51
,-8.82,0.103,-4.346,-9.234,-0.249,-4.645,3.57,7.35,-6.37
19309.0,-8.842,0.302,-4.681,-9.098,0.172,-4.027,3.43,2.31,0.56
,-8.622,1.247,-4.803,-9.11,-0.062,-3.948,6.3,2.24,1.26
,-8.789,1.481,-4.642,-9.174,-0.069,-3.972,2.52,2.59,0.98
,-9.124,0.912,-4.367,-9.316,0.158,-4.056,-2.73,2.8,0.7
19384.0,-9.162,0.256,-4.207,-9.15,0.517,-3.544,9.24,0.98,4.69
,-8.918,0.514,-4.221,-9.246,0.129,-3.513,8.26,1.05,4.76
,-9.04,0.531,-3.963,-9.273,0.199,-3.546,6.51,1.33,5.04
,-9.208,0.617,-3.745,-9.072,0.51,-3.652,5.53,1.61,5.67
19460.0,-9.055,0.586,-3.743,-9.115,0.603,-4.056,7.07,3.92,7.56
,-9.012,0.73,-3.788,-9.033,0.794,-4.338,5.39,4.62,7.42
,-8.99,0.718,-3.821,-8.885,0.842,-4.537,3.08,5.39,7.14
,-9.067,0.653,-3.896,-8.957,0.885,-4.726,1.26,6.09,7.21
19536.0,-8.949,0.96,-4.963,-8.787,0.931,-4.396,-2.17,5.18,7.84
,-8.751,1.015,-5.027,-8.863,0.9,-4.223,-2.87,4.69,7.77
,-8.763,0.924,-4.896,-9.014,1.036,-4.168,-3.64,4.13,7.77
,-8.837,0.861,-4.7,-8.887,1.251,-4.192,-3.85,3.36,8.26
19612.0,-8.701,1.268,-4.089,-8.827,1.362,-3.721,-0.7,2.24,8.54
,-8.801,1.113,-3.989,-8.887,1.235,-3.656,-0.84,2.66,8.68
,-8.88,1.05,-3.843,-9.15,1.062,-3.817,-0.91,2.94,8.54
,-8.926,1.12,-3.812,-9.06,0.727,-3.81,-0.98,3.64,8.19
19688.0,-9.074,0.45,-3.929,-8.732,1.249,-4.228,-6.3,6.44,8.05
,-9.119,0.392,-3.896,-8.741,1.567,-4.226,-5.74,6.93,8.68
,-9.15,0.388,-3.91,-8.902,1.469,-4.166,-5.95,7.35,9.03
,-9.05,0.632,-4.161,-8.954,1.144,-4.068,-5.46,7.42,9.38
19763.0,-8.899,0.952,-4.027,-8.935,0.727,-4.257,-14.0,10.85,11.55
,-8.971,0.857,-3.865,-8.799,0.878,-4.389,-13.65,11.34,11.83
,-9.186,0.646,-3.896,-8.866,1.034,-4.53,-13.86,11.48,12.11
,-9.129,0.629,-4.018,-8.815,1.127,-4.551,-14.14,11.13,12.46
19839.0,-8.787,1.216,-4.527,-8.564,1.85,-4.539,-12.81,10.99,15.75
,-8.873,1.151,-4.434,-8.588,1.905,-4.515,-13.79,10.92,16.31
,-8.653,1.316,-4.427,-8.801,1.685,-4.319,-13.58,10.85,16.59
,-8.588,1.515,-4.47,-8.748,1.512,-4.226,-13.44,11.06,17.08
19914.0,-8.997,1.433,-4.097,-8.849,0.447,-4.776,-22.05,14.63,19.46
,-9.06,1.101,-4.267,-8.789,1.01,-4.944,-23.66,14.63,20.02
,-9.153,0.558,-4.381,-8.753,1.39,-5.054,-24.29,14.35,20.51
,-9.11,0.158,-4.563,-8.863,1.393,-5.15,-22.4,13.65,21.77
19990.0,-8.705,1.33,-5.202,-8.698,2.316,-4.791,-21.42,12.39,25.55
,-8.605,1.405,-5.142,-8.536,2.694,-4.716,-20.79,11.41,26.95
,-8.636,1.541,-5.14,-8.502,2.441,-4.558,-19.88,10.15,28.14
,-8.658,1.697,-4.901,-8.638,2.036,-4.633,-19.25,9.38,29.4
20066.0,-8.698,2.032,-4.688,-8.497,3.762,-5.197,-18.83,6.44,29.89
,-8.727,2.261,-4.783,-8.555,3.745,-5.205,-14.49,5.53,31.15
,-8.801,2.742,-5.013,-8.629,3.714,-5.138,-10.92,4.62,32.41
,-8.598,3.357,-5.123,-8.667,3.632,-4.996,-10.15,4.13,32.62
20142.0,-8.83,3.491,-4.848,-8.906,3.525,-4.547,-23.1,3.64,29.12
,-8.899,3.369,-4.671,-8.849,3.269,-4.578,-24.36,3.22,28.49
,-9.026,3.283,-4.685,-8.811,3.187,-4.568,-25.27,3.01,28.14
,-9.117,3.288,-4.645,-8.564,3.206,-4.487,-24.85,2.52,28.21
20217.0,-8.349,3.02,-4.489,-8.215,3.41,-4.597,-24.85,-0.42,28.07
,-8.256,3.075,-4.48,-8.399,3.833,-4.728,-23.17,-1.12,28.07
,-8.37,3.132,-4.621,-8.536,4.027,-4.733,-21.14,-2.03,28.14
,-8.212,3.125,-4.592,-8.758,4.058,-4.759,-19.67,-3.22,28.49
20293.0,-8.899,3.807,-4.719,-8.131,3.625,-3.898,-23.17,-6.23,20.79
,-8.914,3.64,-4.415,-8.191,3.551,-3.786,-24.43,-6.3,17.99
,-8.514,3.489,-4.125,-8.239,3.266,-3.738,-24.43,-6.23,14.77
,-8.239,3.618,-3.953,-8.256,2.826,-3.683,-25.06,-5.46,11.62
20368.0,-8.021,2.97,-3.53,-8.691,0.424,-2.855,-33.67,-2.45,-3.85
,-7.992,3.616,-3.599,-7.923,-0.416,-2.206,-35.56,0.07,-5.67
,-8.301,3.118,-3.891,-7.365,0.06,-2.209,-46.41,1.4,-5.74
,-8.229,1.637,-3.262,-7.617,1.907,-3.429,-53.48,1.89,-8.12
20444.0,-7.006,4.058,-5.092,-6.75,1.271,-4.628,18.55,17.08,-20.44
,-7.327,5.138,-5.444,-7.406,1.024,-4.429,7.91,21.07,-33.39
,-7.332,4.348,-5.36,-8.131,0.034,-3.58,-9.03,21.14,-41.44
,-6.676,2.273,-4.98,-8.524,-0.471,-2.216,-21.07,20.23,-47.95
20520.0,-8.768,-0.761,-1.788,-7.612,3.877,-4.147,-1.89,17.64,-49.28
,-8.234,-0.34,-2.587,-7.526,5.099,-4.592,18.13,16.45,-43.26
,-7.983,0.433,-3.128,-7.521,5.181,-4.915,37.38,16.1,-39.2
,-7.885,2.103,-3.503,-7.921,4.532,-5.162,56.77,16.45,-38.36
20596.0,-8.038,3.601,-5.171,-7.416,3.642,-5.7,32.41,21.56,-53.97
,-8.062,2.718,-5.2,-7.243,4.7,-5.647,28.98,21.98,-55.58
,-8.078,1.821,-5.08,-7.463,4.934,-5.76,30.03,21.07,-54.6
,-7.88,2.065,-5.066,-7.511,4.391,-5.836,36.61,20.3,-52.5
20672.0,-7.724,3.872,-5.803,-8.131,3.247,-5.092,14.91,16.17,-62.79
,-7.966,3.532,-5.932,-8.09,2.974,-5.109,9.59,15.33,-63.21
,-8.222,3.369,-5.796,-8.449,2.572,-4.879,5.81,14.63,-62.79
,-8.272,3.551,-5.602,-8.808,2.099,-4.688,6.09,13.72,-61.46
20747.0,-8.921,1.881,-4.791,-9.232,3.044,-4.52,15.4,5.81,-45.92
,-8.871,2.175,-4.755,-9.117,2.527,-4.427,23.66,4.55,-40.53
,-8.861,2.86,-4.822,-8.751,2.175,-4.417,30.8,3.92,-35.42
,-8.959,3.355,-4.893,-8.737,2.261,-4.264,32.34,2.38,-30.87
20823.0,-8.89,3.032,-4.594,-8.758,2.974,-4.271,51.17,-10.43,-7.91
,-8.72,3.75,-4.843,-8.524,3.549,-4.142,52.43,-12.53,-4.06
,-8.595,3.656,-5.008,-8.191,4.649,-3.922,48.3,-14.91,-0.84
,-8.672,3.087,-4.654,-8.476,5.095,-3.57,44.59,-17.36,2.1
20899.0,-8.67,5.621,-3.503,-9.397,-1.979,-3.728,35.63,-19.32,13.79
,-9.179,4.647,-3.46,-8.811,-1.888,-4.539,25.97,-21.21,18.27
,-9.043,2.395,-2.536,-8.985,1.29,-5.396,21.91,-21.91,22.4
,-9.342,-0.206,-2.733,-9.816,4.654,-5.508,27.65,-20.02,27.93
20975.0,-10.354,4.602,-4.649,-7.703,-1.646,-4.003,58.45,-6.93,17.85
,-10.854,2.13,-4.137,-7.607,-0.689,-4.092,12.11,-2.66,2.73
,-10.84,-0.103,-4.137,-8.478,1.259,-4.281,-17.15,-1.12,-4.9
,-9.191,-1.256,-4.319,-9.928,3.24,-4.515,-24.64,-1.4,-4.69
21050.0,-10.089,3.467,-4.484,-8.906,-0.625,-4.69,39.83,-0.77,19.46
,-8.854,2.067,-4.681,-9.057,-0.658,-4.511,27.65,-0.07,18.41
,-8.545,1.043,-4.745,-8.871,0.227,-4.496,18.55,1.54,15.12
,-8.722,0.227,-4.702,-8.775,1.06,-4.561,13.44,2.45,12.39
21126.0,-8.861,1.397,-4.637,-8.748,0.498,-4.786,20.79,2.66,11.83
,-8.985,1.184,-4.676,-8.588,0.598,-4.977,17.92,2.66,12.81
,-8.942,0.797,-4.609,-8.574,0.89,-5.008,17.01,2.87,13.51
,-8.949,0.617,-4.7,-8.447,1.259,-4.953,17.36,2.8,14.07
21201.0,-8.641,1.393,-4.968,-8.492,0.835,-4.932,8.75,2.31,10.5
,-8.861,1.345,-4.927,-8.547,0.924,-4.934,6.02,2.59,10.08
,-8.926,1.22,-4.891,-8.674,1.022,-4.908,4.13,2.52,9.87
,-8.72,0.936,-4.92,-8.725,0.979,-4.724,3.5,1.82,10.08
21277.0,-8.775,0.84,-4.664,-8.77,1.007,-4.558,1.82,0.56,9.59
,-8.885,0.936,-4.63,-8.894,0.708,-4.52,2.31,0.49,9.73
,-8.804,1.019,-4.585,-8.806,0.572,-4.501,2.52,0.42,9.73
,-8.574,1.115,-4.642,-8.804,0.617,-4.477,1.96,0.77,9.52
21353.0,-8.878,0.94,-4.664,-8.957,1.137,-4.468,0.07,0.21,10.78
,-8.696,1.28,-4.834,-8.88,0.912,-4.329,-0.56,0.14,10.57
,-8.526,1.472,-4.834,-8.787,0.802,-4.24,-2.45,0.07,10.29
,-8.583,1.491,-4.657,-8.83,0.72,-4.178,-4.9,0.35,10.36
21429.0,-8.892,1.031,-4.319,-8.973,1.251,-4.362,-6.93,1.47,11.06
,-8.61,1.285,-4.293,-8.849,1.151,-4.389,-7.77,1.82,10.99
,-8.777,1.388,-4.231,-8.696,1.177,-4.324,-9.1,2.1,11.62
,-9.005,1.426,-4.362,-8.485,1.445,-4.348,-9.52,2.52,12.81
21505.0,-8.488,1.665,-4.295,-8.861,0.742,-4.159,-9.87,4.27,14.35
,-8.65,1.529,-4.116,-8.815,0.943,-4.228,-11.83,4.97,14.28
,-8.94,1.094,-4.027,-8.873,1.098,-4.434,-13.51,5.39,14.77
,-8.885,0.792,-4.066,-8.801,1.275,-4.554,-13.58,5.67,15.47
21580.0,-8.643,1.321,-4.628,-8.576,1.682,-4.484,-13.79,7.0,17.92
,-8.681,1.352,-4.58,-8.452,2.017,-4.355,-14.91,7.42,18.48
,-8.789,1.292,-4.515,-8.591,2.132,-4.326,-15.75,7.28,19.39
,-8.799,1.275,-4.453,-8.847,1.783,-4.259,-15.82,7.35,20.23
21656.0,-8.847,1.39,-4.429,-8.626,1.637,-5.039,-21.07,8.89,23.17
,-8.744,1.141,-4.57,-8.48,1.701,-5.078,-20.51,9.1,23.66
,-8.811,1.23,-4.738,-8.543,1.732,-5.121,-20.02,9.1,24.15
,-8.885,1.369,-4.86,-8.595,1.895,-5.202,-20.3,8.82,24.85
21732.0,-8.605,1.96,-5.226,-8.794,2.331,-4.757,-24.01,6.44,28.21
,-8.492,2.111,-5.173,-8.882,2.216,-4.671,-23.45,5.95,28.56
,-8.598,2.173,-4.996,-8.83,2.455,-4.547,-23.66,5.39,29.19
,-8.746,2.419,-4.963,-8.875,2.367,-4.365,-23.8,5.11,29.4
21808.0,-8.945,2.625,-4.518,-9.586,4.18,-4.642,-19.88,5.11,29.61
,-9.026,3.24,-4.523,-9.801,4.422,-4.764,-17.5,5.04,30.24
,-9.15,3.857,-4.537,-9.825,3.585,-4.456,-17.43,5.11,30.24
,-9.409,4.176,-4.642,-9.66,3.185,-4.53,-20.09,5.6,29.68
21883.0,-9.536,3.355,-4.704,-9.232,2.699,-5.054,-24.15,4.13,29.75
,-9.488,3.451,-4.855,-9.093,2.639,-4.965,-22.96,3.57,29.89
,-9.229,3.312,-5.059,-8.916,2.491,-4.647,-22.75,2.45,29.82
,-9.165,3.163,-5.147,-8.729,2.582,-4.508,-22.19,0.91,29.75
21959.0,-8.509,2.936,-4.386,-7.578,3.41,-4.276,-6.86,-7.7,31.5
,-8.373,3.18,-4.396,-7.538,3.35,-4.307,-6.02,-8.47,30.24
,-8.244,3.396,-4.389,-7.629,3.061,-4.039,-6.79,-8.75,28.07
,-7.906,3.518,-4.341,-7.514,3.046,-3.793,-8.75,-8.75,25.13
22034.0,-6.875,3.005,-3.233,-7.755,-0.311,-2.776,-28.0,-1.47,6.44
,-7.356,2.446,-3.434,-7.425,1.096,-3.498,-36.47,1.61,3.22
,-7.172,0.864,-2.96,-6.829,3.647,-4.949,-44.31,4.55,0.07
,-7.899,-0.617,-2.601,-6.607,5.205,-5.319,-42.49,5.67,-1.96
22110.0,-7.133,5.047,-4.963,-7.758,1.876,-3.745,-20.37,19.04,-39.9
,-7.016,3.848,-4.415,-7.715,1.397,-3.482,-36.61,19.46,-50.05
,-6.994,2.86,-4.104,-7.937,-0.593,-2.663,-43.19,20.3,-59.57
,-7.31,2.084,-3.908,-8.299,-0.979,-2.936,-44.87,21.28,-67.34
22186.0,-8.629,-0.967,-3.479,-7.461,3.597,-4.164,-9.1,17.85,-59.08
,-9.222,-0.713,-3.575,-7.274,4.496,-4.489,9.31,15.33,-52.99
,-9.342,-0.065,-3.429,-7.571,4.977,-4.652,30.17,11.48,-46.27
,-8.469,1.855,-3.814,-7.404,4.867,-4.652,54.46,8.47,-41.93
22262.0,-7.66,4.561,-4.752,-8.789,1.969,-4.558,43.26,11.41,-50.12
,-8.1,3.81,-4.994,-8.933,1.965,-4.494,34.3,11.76,-50.12
,-8.751,2.898,-4.834,-8.545,3.496,-4.743,30.66,10.92,-49.84
,-8.83,2.41,-4.673,-7.545,4.795,-5.011,33.67,10.15,-48.72
22338.0,-7.717,5.53,-5.257,-8.909,2.335,-4.972,57.26,9.73,-42.28
,-8.138,4.999,-4.949,-9.165,1.931,-4.934,47.04,10.22,-43.61
,-8.433,3.984,-4.858,-8.995,1.965,-5.042,37.45,9.66,-42.84
,-8.562,3.099,-4.905,-8.614,2.316,-5.145,33.11,9.1,-40.04
22413.0,-8.437,2.941,-5.243,-8.162,3.017,-5.528,65.87,0.91,-17.64
,-8.43,3.551,-5.482,-8.22,2.644,-5.281,67.76,-0.84,-15.26
,-8.37,3.843,-5.654,-8.253,2.649,-5.252,65.24,-2.73,-13.72
,-8.411,3.551,-5.494,-7.997,3.19,-5.274,61.67,-5.74,-12.6
22489.0,-7.734,3.537,-5.037,-8.234,3.788,-4.865,67.13,-20.16,-4.34
,-7.796,3.585,-5.092,-8.748,2.977,-4.317,62.93,-21.0,-3.29
,-7.755,3.759,-5.159,-9.098,2.123,-3.855,56.98,-20.72,-2.8
,-7.992,3.92,-5.097,-9.15,2.941,-4.202,49.28,-19.18,-2.94
22565.0,-8.39,5.152,-5.116,-8.325,0.242,-5.922,45.5,-23.03,10.01
,-7.731,6.951,-4.886,-8.1,-0.347,-5.262,40.18,-21.42,9.31
,-8.547,5.092,-5.044,-8.827,1.223,-5.635,19.04,-19.53,7.35
,-8.854,2.137,-5.575,-8.437,3.927,-5.451,10.43,-17.15,12.04
22641.0,-9.158,4.882,-4.97,-9.04,-0.177,-3.814,55.79,-20.79,25.41
,-9.945,3.23,-4.271,-7.959,0.136,-3.235,25.2,-15.82,12.39
,-11.345,0.792,-3.836,-8.911,0.189,-3.039,-3.85,-10.71,0.7
,-11.158,-0.447,-3.551,-9.88,0.421,-2.96,-19.11,-8.82,-4.48
22716.0,-10.268,0.574,-3.068,-8.799,0.191,-3.848,12.88,-4.9,8.75
,-9.744,0.706,-3.309,-9.076,0.302,-3.733,16.17,-3.99,10.71
,-8.94,0.5,-3.472,-9.16,0.294,-3.568,12.95,-2.66,11.27
,-8.753,0.249,-3.728,-9.206,0.287,-3.482,8.75,-1.12,10.08
22792.0,-9.203,0.744,-3.666,-9.115,0.493,-4.537,8.96,3.36,8.4
,-9.201,1.158,-3.879,-9.143,0.203,-4.8,10.36,4.2,8.96
,-9.15,1.366,-4.111,-8.964,0.313,-5.111,9.45,4.76,9.1
,-8.928,1.031,-4.374,-8.856,0.625,-5.197,6.86,4.83,8.75
22867.0,-8.842,1.094,-5.231,-8.827,0.603,-4.527,7.14,1.33,10.64
,-8.832,1.28,-5.169,-8.691,0.926,-4.547,4.83,0.84,10.64
,-8.894,0.869,-4.87,-8.813,1.218,-4.444,1.89,-0.07,10.57
,-8.969,0.56,-4.748,-8.933,1.17,-4.226,1.96,-0.98,11.34
22943.0,-9.048,0.864,-4.082,-9.009,1.096,-3.86,2.45,-2.03,10.64
,-9.009,0.732,-3.936,-9.021,1.005,-3.874,3.08,-1.75,10.85
,-8.887,0.861,-3.96,-8.942,1.139,-3.85,4.83,-1.47,10.71
,-8.859,1.115,-3.944,-8.93,1.278,-3.731,4.83,-1.33,10.43
23019.0,-9.007,1.242,-3.817,-8.887,1.309,-3.695,0.56,1.68,11.06
,-9.012,1.113,-3.769,-9.021,1.297,-3.525,-0.42,2.24,11.34
,-9.005,1.0,-3.723,-9.141,0.993,-3.36,-0.98,3.01,11.55
,-8.918,1.163,-3.733,-9.11,0.749,-3.4,-1.26,4.06,11.69
23095.0,-9.014,0.727,-3.276,-8.909,0.852,-3.915,-4.34,8.54,14.07
,-9.158,0.742,-3.34,-8.727,1.184,-4.097,-3.22,9.59,14.98
,-9.289,0.632,-3.465,-8.804,1.311,-4.156,-3.36,10.5,15.68
,-9.153,0.615,-3.711,-8.923,1.302,-4.367,-2.87,10.92,16.24
23170.0,-8.801,1.113,-4.597,-8.277,2.515,-4.953,-3.5,13.02,18.55
,-8.701,1.24,-4.913,-8.562,2.132,-4.697,-2.8,12.88,18.76
,-8.457,1.613,-4.97,-8.949,1.347,-4.477,-2.38,13.09,19.04
,-8.373,2.314,-5.157,-9.182,0.715,-4.369,-3.22,12.95,19.04
23246.0,-9.127,0.38,-4.458,-9.112,0.828,-4.547,-15.54,13.72,20.3
,-9.11,0.455,-4.568,-9.155,0.5,-4.523,-13.09,14.14,20.65
,-8.973,0.993,-4.704,-9.064,0.424,-4.685,-11.76,14.7,20.93
,-8.935,1.072,-4.535,-8.89,0.639,-4.994,-13.86,15.12,21.0
23322.0,-8.897,1.005,-5.104,-8.598,1.838,-5.152,-14.0,11.62,29.12
,-8.756,1.474,-5.303,-8.576,1.9,-5.106,-13.86,10.78,30.03
,-8.476,1.802,-5.427,-8.466,2.3,-4.999,-14.07,9.66,31.15
,-8.562,1.917,-5.331,-8.454,2.594,-5.135,-14.63,9.1,31.64
23398.0,-8.437,2.611,-5.099,-8.717,3.247,-4.614,-8.19,3.99,32.48
,-8.677,2.572,-5.004,-8.983,3.058,-4.759,-7.14,3.15,32.97
,-8.705,2.742,-4.917,-9.34,3.92,-4.606,-5.6,2.24,33.39
,-8.751,3.037,-4.764,-9.677,3.273,-4.185,-4.97,2.03,33.32
23474.0,-9.67,3.422,-4.312,-9.44,2.915,-3.86,-16.38,3.71,26.95
,-9.804,3.695,-4.269,-9.026,3.396,-3.869,-19.11,5.04,24.5
,-9.844,3.223,-3.984,-8.746,3.592,-3.81,-23.38,5.67,22.47
,-9.617,2.73,-3.888,-8.378,3.757,-3.759,-23.73,5.88,20.79
23549.0,-8.031,3.836,-3.924,-7.973,4.195,-4.472,-18.2,7.28,13.72
,-7.997,3.733,-3.989,-7.997,4.389,-4.484,-19.88,7.21,12.25
,-7.966,3.664,-4.113,-8.04,4.477,-4.506,-21.07,6.93,10.99
,-7.985,3.912,-4.262,-8.22,4.535,-4.515,-21.42,6.72,10.36
23625.0,-8.251,4.372,-4.276,-7.791,1.036,-2.998,-38.99,8.4,1.54
,-7.849,3.893,-3.874,-7.681,0.73,-3.467,-43.26,8.82,-0.49
,-7.1,3.34,-2.876,-7.717,0.672,-4.834,-47.04,10.92,-3.71
,-7.478,2.364,-2.967,-7.298,0.993,-5.384,-51.59,12.39,-6.44
23701.0,-7.571,2.0,-5.781,-7.743,-0.546,-4.434,-13.51,15.33,-19.18
,-7.854,2.369,-5.319,-7.971,-0.249,-4.027,-10.64,13.79,-21.91
,-7.617,1.508,-5.142,-7.901,0.782,-3.984,-12.18,10.22,-24.5
,-7.492,0.311,-4.838,-7.803,1.531,-4.011,-11.13,6.65,-25.83
23777.0,-7.98,1.957,-4.14,-7.588,3.479,-4.47,32.41,-4.06,-25.27
,-7.82,2.802,-4.238,-7.772,2.931,-4.566,33.95,-4.9,-27.37
,-7.169,3.434,-4.353,-7.923,2.532,-4.578,32.9,-3.92,-31.29
,-7.344,3.673,-4.494,-7.949,1.912,-4.506,26.04,-2.24,-35.77
23852.0,-7.882,1.017,-4.377,-8.579,1.017,-4.472,4.76,1.96,-49.42
,-8.428,0.622,-4.573,-8.569,1.189,-4.496,11.06,2.94,-49.7
,-8.756,0.562,-4.496,-8.399,1.467,-4.745,19.67,3.01,-49.56
,-8.775,0.782,-4.441,-8.454,2.029,-4.989,28.7,2.87,-48.65
23928.0,-8.677,2.422,-5.145,-8.344,2.233,-4.405,42.84,9.94,-51.73
,-8.693,2.527,-4.874,-7.827,3.106,-4.75,39.13,11.76,-53.41
,-8.536,2.163,-4.702,-7.753,3.939,-4.996,35.28,12.88,-54.11
,-8.394,1.955,-4.58,-8.028,4.022,-4.987,35.0,13.23,-53.69
24003.0,-8.361,3.618,-4.989,-8.67,3.546,-5.453,36.33,12.53,-47.53
,-8.478,3.199,-5.238,-8.674,3.855,-5.367,34.02,10.92,-43.89
,-8.586,3.053,-5.245,-8.626,3.97,-5.446,34.79,9.38,-39.55
,-8.705,3.173,-5.377,-8.437,3.96,-5.401,37.52,7.0,-34.58
24079.0,-8.464,3.563,-4.819,-8.634,2.41,-4.803,31.85,-7.84,-14.63
,-8.373,3.175,-5.032,-8.612,2.546,-4.63,32.55,-11.62,-10.15
,-8.306,2.795,-4.929,-8.265,2.824,-4.561,34.86,-14.84,-5.53
,-8.634,2.599,-4.972,-8.22,3.381,-4.456,38.43,-18.34,-0.42
24155.0,-8.89,4.29,-5.123,-8.665,2.603,-5.918,52.15,-24.22,15.75
,-8.023,5.899,-5.896,-9.028,1.914,-5.851,51.8,-22.26,20.02
,-7.65,5.942,-5.169,-10.23,1.919,-4.716,39.48,-17.71,16.73
,-8.571,4.276,-5.717,-9.615,2.513,-4.477,26.39,-12.46,15.54
24231.0,-9.887,3.001,-4.147,-8.782,-0.596,-3.671,19.53,-8.89,4.06
,-9.978,2.51,-4.255,-9.562,-1.115,-3.142,-0.84,-6.3,-1.61
,-9.203,1.357,-4.159,-10.132,-1.11,-3.314,-18.83,-3.85,-4.27
,-8.703,0.158,-3.92,-9.639,-0.414,-3.745,-24.92,-2.03,-3.01
24307.0,-8.878,0.44,-4.176,-9.241,0.038,-4.913,14.21,0.77,4.48
,-8.39,0.682,-4.513,-8.564,0.72,-4.956,8.47,1.89,3.22
,-8.78,0.364,-4.511,-8.545,1.376,-5.305,-0.07,2.8,1.89
,-9.325,-0.187,-4.671,-8.734,1.551,-5.379,-4.69,2.87,1.33
24382.0,-8.78,1.414,-5.305,-8.681,0.529,-4.781,-5.95,2.03,0.49
,-8.739,0.94,-5.066,-8.808,0.505,-4.539,-11.13,2.24,-0.42
,-8.894,0.483,-5.025,-9.016,0.459,-4.427,-14.7,1.96,-1.19
,-8.863,0.455,-4.925,-8.997,0.378,-4.259,-15.68,1.61,-1.68
24458.0,-9.0,0.378,-4.338,-9.009,-0.036,-4.075,-19.81,2.38,-1.19
,-8.94,0.543,-4.391,-9.045,0.146,-4.104,-19.46,2.52,-1.05
,-8.921,0.543,-4.341,-9.002,0.5,-4.216,-19.53,2.24,-0.56
,-8.954,0.108,-4.259,-8.99,0.644,-4.204,-18.9,1.47,0.28
24534.0,-8.928,0.459,-4.178,-9.282,0.526,-4.008,-8.12,0.91,4.83
,-8.952,0.352,-4.137,-9.172,0.61,-4.101,-7.7,0.91,5.53
,-8.871,0.407,-4.03,-8.713,0.419,-3.922,-5.74,0.84,6.44
,-8.969,0.464,-3.996,-8.832,0.447,-3.829,-3.57,0.98,7.07
24610.0,-9.072,0.739,-3.743,-8.988,0.452,-4.334,0.56,1.75,10.08
,-9.038,0.723,-3.745,-8.904,0.634,-4.491,-0.14,2.45,10.43
,-9.072,0.558,-3.85,-8.859,0.885,-4.523,-1.19,3.08,10.92
,-9.158,0.373,-4.101,-8.839,0.912,-4.319,-0.84,3.36,11.69
24685.0,-8.856,0.799,-4.233,-8.562,1.541,-4.685,-2.73,4.13,13.58
,-8.959,0.684,-4.231,-8.399,1.761,-4.463,-2.87,4.06,14.14
,-8.964,0.692,-4.259,-8.804,1.508,-4.324,-2.03,4.13,14.77
,-8.892,1.05,-4.616,-9.162,0.991,-4.168,0.14,4.2,15.26
24761.0,-9.184,0.44,-4.073,-8.698,1.385,-4.068,-8.33,5.81,16.52
,-8.969,0.237,-4.066,-8.911,1.213,-3.886,-5.6,5.81,17.08
,-9.036,0.603,-4.13,-9.141,0.713,-3.891,-2.73,6.23,17.71
,-8.77,1.156,-4.145,-9.0,0.335,-4.039,-1.4,6.65,18.48
24836.0,-8.914,0.242,-4.269,-8.423,1.615,-4.427,0.35,7.7,23.38
,-8.859,0.603,-4.566,-8.875,1.405,-4.389,3.57,7.91,24.29
,-8.818,1.17,-4.812,-9.091,1.05,-4.463,3.99,7.91,25.06
,-8.466,1.467,-4.721,-8.906,0.861,-4.633,2.38,7.98,25.41
24912.0,-8.686,0.806,-4.649,-8.691,1.45,-4.896,-0.35,8.82,29.05
,-8.674,0.888,-4.7,-8.629,1.371,-4.934,1.12,8.61,29.96
,-8.892,1.168,-4.697,-8.598,1.163,-4.91,2.31,8.05,30.73
,-8.693,1.326,-4.764,-8.801,0.902,-4.819,2.94,8.05,31.22
24988.0,-8.835,0.914,-4.846,-8.624,2.747,-5.339,5.53,5.04,38.64
,-8.634,1.177,-5.087,-8.406,2.343,-5.224,9.03,3.57,40.95
,-8.409,1.661,-5.315,-8.595,2.108,-5.205,11.13,3.57,42.35
,-8.461,2.369,-5.386,-8.612,2.304,-5.219,10.01,4.48,41.58
25064.0,-8.804,1.658,-5.205,-9.385,4.142,-5.145,-15.54,4.48,38.01
,-8.114,2.958,-5.219,-9.794,3.623,-4.764,-11.97,3.01,43.61
,-7.71,4.673,-5.437,-9.529,3.173,-4.633,-7.0,1.68,47.88
,-8.66,4.535,-5.341,-9.722,2.831,-4.391,-8.75,1.89,45.57
25140.0,-9.887,2.649,-4.424,-9.366,2.02,-4.334,-32.62,6.65,29.4
,-9.787,2.635,-4.401,-9.249,2.139,-4.269,-35.77,7.77,26.81
,-9.586,2.161,-4.441,-8.928,2.091,-4.133,-38.36,8.05,24.71
,-9.543,1.962,-4.484,-8.665,2.728,-4.08,-38.78,7.7,23.45
25215.0,-8.102,3.848,-4.207,-7.822,4.532,-4.609,-18.69,1.33,27.09
,-7.875,4.724,-4.566,-7.574,4.982,-4.69,-18.55,0.98,26.32
,-8.064,4.92,-4.714,-7.521,5.305,-4.762,-23.17,0.28,25.06
,-8.076,4.391,-4.628,-7.755,5.389,-4.977,-26.04,-0.7,24.71
25291.0,-7.937,5.315,-4.994,-8.576,0.026,-3.632,-35.21,-1.47,14.7
,-8.031,4.893,-4.714,-8.291,-0.735,-3.223,-44.1,-0.07,12.39
,-8.306,4.034,-4.81,-7.664,-0.261,-3.022,-55.02,0.98,10.85
,-8.488,2.072,-4.482,-7.186,1.735,-3.427,-64.75,0.35,9.31
25367.0,-6.53,3.513,-3.912,-6.487,3.697,-5.252,5.74,0.07,-3.22
,-6.451,3.975,-5.061,-6.272,2.056,-3.79,4.06,6.86,-13.3
,-6.265,5.083,-5.999,-6.662,1.223,-2.948,-3.29,12.11,-25.13
,-6.7,5.26,-6.109,-7.162,1.247,-2.551,-19.25,14.28,-38.36
25443.0,-7.583,-0.349,-2.611,-7.947,0.778,-3.525,-38.71,21.35,-71.26
,-8.035,-0.572,-2.998,-7.463,2.017,-3.963,-36.26,22.26,-67.34
,-8.282,-0.067,-3.297,-7.507,3.297,-4.068,-25.69,22.82,-64.33
,-8.105,0.115,-3.245,-7.724,3.731,-4.135,-14.77,23.31,-60.9
25518.0,-7.42,4.051,-4.35,-8.512,2.661,-4.618,15.26,21.7,-47.95
,-7.356,3.699,-4.733,-8.402,2.252,-4.372,12.6,22.33,-50.05
,-7.858,3.156,-4.776,-8.007,1.886,-4.183,10.78,22.12,-52.5
,-8.138,2.704,-4.781,-7.909,2.094,-4.508,12.32,21.0,-54.74
25594.0,-8.528,2.355,-4.652,-8.674,1.646,-4.903,38.01,16.24,-48.58
,-8.878,2.352,-4.678,-8.705,2.3,-4.953,39.55,14.56,-45.85
,-8.911,2.036,-4.649,-8.208,2.675,-4.91,42.0,12.32,-43.4
,-8.866,1.608,-4.657,-8.263,2.903,-4.877,48.72,9.73,-41.3
25669.0,-8.648,3.522,-4.75,-8.366,3.719,-5.276,80.15,3.5,-33.32
,-7.932,4.681,-5.181,-8.753,3.202,-5.205,81.41,3.78,-32.62
,-7.875,4.91,-5.15,-8.655,3.07,-5.164,75.18,3.64,-33.74
,-8.045,4.472,-5.403,-8.662,3.01,-5.15,66.5,2.1,-34.65
25745.0,-8.662,3.19,-5.367,-8.155,4.015,-5.284,58.17,-2.94,-20.79
,-8.622,3.374,-5.279,-7.849,4.08,-5.518,57.19,-3.57,-16.52
,-8.77,3.616,-5.083,-8.189,4.032,-5.336,55.72,-4.83,-12.53
,-8.488,4.046,-5.327,-8.342,4.247,-4.889,54.18,-6.79,-8.82
25821.0,-8.514,4.166,-4.212,-8.504,5.008,-4.396,42.7,-13.09,-1.33
,-8.906,4.774,-4.2,-9.009,2.661,-4.645,39.48,-14.98,1.4
,-9.596,6.052,-5.475,-8.478,0.103,-4.858,35.14,-20.02,8.54
,-8.562,6.439,-5.477,-7.554,-1.146,-5.705,25.69,-23.73,13.3
25897.0,-8.258,0.567,-5.939,-11.397,0.938,-3.647,65.38,-17.15,30.45
,-8.89,3.496,-6.001,-11.481,-0.218,-3.532,75.53,-18.13,32.55
,-9.119,4.384,-5.03,-9.842,-0.139,-3.542,61.53,-18.34,28.14
,-9.938,3.044,-4.14,-8.291,-0.129,-3.259,33.11,-15.33,16.31
25972.0,-8.949,-0.493,-2.96,-8.454,2.338,-3.824,-2.45,-7.42,8.61
,-9.722,-1.0,-3.032,-8.26,2.434,-4.13,15.33,-8.33,13.37
,-9.825,-0.337,-3.245,-8.818,1.347,-4.212,32.97,-6.72,14.49
,-9.49,1.24,-3.518,-8.976,0.491,-4.472,42.14,-4.62,15.05
26048.0,-9.105,0.529,-4.575,-8.957,0.907,-4.513,9.59,2.31,8.05
,-8.861,1.024,-4.664,-8.899,0.723,-4.568,13.16,2.87,8.26
,-8.641,1.352,-4.702,-8.911,0.883,-4.503,12.81,3.15,8.19
,-8.753,1.335,-4.63,-8.861,0.804,-4.475,8.96,3.85,7.7
26124.0,-8.938,0.436,-4.456,-8.619,1.237,-4.475,-1.4,4.97,5.81
,-9.016,-0.055,-4.377,-8.847,1.12,-4.372,-1.12,4.34,6.09
,-9.064,0.089,-4.408,-8.981,0.658,-4.329,2.52,3.85,6.72
,-8.772,0.782,-4.448,-8.717,0.541,-4.262,5.11,3.92,7.0
26200.0,-8.729,0.586,-4.283,-8.88,0.833,-4.329,2.52,4.62,7.14
,-8.746,0.845,-4.424,-8.844,0.821,-4.362,3.5,4.76,7.0
,-8.765,1.029,-4.429,-8.827,1.007,-4.42,2.59,5.46,7.0
,-8.815,1.005,-4.432,-8.806,0.983,-4.36,0.84,6.09,6.79
26276.0,-8.739,1.005,-4.36,-8.801,0.749,-4.214,-1.12,7.77,8.12
,-8.789,0.897,-4.35,-8.926,0.797,-4.171,-2.31,8.33,8.4
,-9.009,0.56,-4.295,-8.983,0.799,-4.173,-3.43,8.4,8.68
,-8.995,0.426,-4.204,-8.686,0.713,-4.269,-2.1,8.33,9.31
26351.0,-8.586,0.727,-4.317,-8.595,1.077,-4.652,0.63,10.85,12.6
,-8.744,0.759,-4.343,-8.677,1.034,-4.697,0.07,11.48,12.81
,-8.856,0.967,-4.451,-8.796,0.921,-4.767,-1.05,11.9,12.81
,-8.658,1.043,-4.549,-8.648,0.871,-4.795,-1.96,12.39,13.09
26427.0,-8.689,0.737,-4.788,-8.758,1.062,-4.91,-3.92,12.32,16.17
,-8.775,0.792,-4.815,-8.689,0.952,-4.913,-3.99,12.11,16.73
,-8.514,1.062,-4.882,-8.641,0.809,-5.085,-4.27,12.53,17.01
,-8.485,1.177,-4.905,-8.526,0.96,-5.226,-6.09,12.88,17.01
26502.0,-8.485,1.125,-5.394,-8.691,1.034,-4.992,-12.95,12.32,19.74
,-8.495,1.244,-5.343,-8.775,0.972,-4.855,-14.91,11.9,20.23
,-8.526,1.149,-5.205,-8.811,0.778,-4.86,-16.87,11.55,21.35
,-8.72,1.07,-5.044,-8.808,0.761,-4.944,-16.52,11.2,22.96
26578.0,-8.679,0.787,-5.013,-8.698,1.173,-5.176,-12.18,11.55,28.56
,-8.672,0.938,-4.994,-8.658,1.117,-5.389,-11.83,11.83,29.26
,-8.732,1.106,-4.972,-8.66,1.323,-5.698,-11.9,11.83,29.96
,-8.789,1.096,-4.999,-8.538,1.618,-5.899,-11.83,11.34,31.15
26654.0,-8.392,1.876,-5.977,-8.519,2.819,-5.755,-9.52,8.19,36.12
,-8.354,1.369,-5.846,-8.729,2.991,-5.535,-13.44,7.42,36.33
,-8.49,1.409,-6.322,-8.976,3.281,-5.391,-10.92,5.18,39.34
,-8.227,2.773,-5.942,-8.82,3.049,-5.176,-6.79,3.01,42.35
26730.0,-8.854,2.9,-4.944,-8.959,2.986,-4.276,-16.31,1.68,35.84
,-8.988,2.965,-4.759,-8.964,3.197,-4.207,-16.45,2.1,34.51
,-9.007,2.938,-4.484,-8.88,3.587,-4.269,-16.87,2.52,33.88
,-8.904,2.91,-4.262,-8.777,4.078,-4.432,-16.31,2.87,33.74
26805.0,-8.727,4.448,-4.451,-8.725,3.664,-4.635,-15.61,6.72,29.61
,-8.71,4.446,-4.494,-8.607,3.628,-4.805,-20.79,8.05,26.67
,-8.717,4.18,-4.482,-8.5,3.829,-4.87,-26.25,8.89,23.45
,-8.76,3.865,-4.518,-8.227,4.042,-4.977,-30.38,9.45,20.72
26881.0,-7.985,4.044,-4.975,-7.502,4.056,-5.183,-42.21,9.31,8.61
,-7.851,3.963,-5.061,-7.143,4.111,-5.154,-46.27,9.17,5.81
,-7.904,4.013,-5.243,-6.695,4.025,-4.46,-50.12,9.24,3.08
,-7.784,3.984,-5.229,-6.557,3.553,-4.444,-54.18,9.1,-0.14
26957.0,-7.423,2.206,-4.829,-6.911,0.969,-3.41,-95.41,15.61,-18.48
,-7.542,0.998,-5.018,-6.506,1.57,-4.082,-98.77,14.35,-21.21
,-7.442,0.665,-4.745,-7.052,2.668,-4.85,-91.35,12.11,-23.59
,-7.15,0.771,-3.673,-7.509,2.584,-3.97,-77.84,10.5,-25.69
27033.0,-7.406,1.608,-3.209,-7.66,2.063,-3.518,-51.52,24.01,-53.06
,-7.265,0.519,-3.022,-7.272,3.07,-3.781,-47.39,25.48,-55.65
,-7.475,0.01,-3.099,-7.461,3.185,-3.922,-39.41,27.86,-57.12
,-7.858,0.581,-3.262,-7.894,2.398,-3.865,-26.53,30.38,-58.66
27109.0,-8.306,1.094,-3.62,-8.543,1.519,-4.544,-27.93,42.21,-69.02
,-8.732,0.337,-3.496,-8.6,2.07,-4.848,-19.18,41.23,-65.73
,-8.612,0.44,-3.786,-8.136,2.986,-5.147,-3.36,40.18,-62.16
,-8.452,0.905,-4.262,-7.727,3.3,-5.252,12.04,39.2,-59.78
27184.0,-7.777,3.276,-5.391,-8.351,2.422,-5.693,39.69,32.06,-56.49
,-7.7,3.9,-5.592,-8.576,1.613,-5.631,39.83,30.31,-55.58
,-7.693,3.85,-5.532,-8.899,1.005,-5.604,38.29,27.58,-55.23
,-7.93,3.293,-5.508,-9.182,0.838,-5.666,34.3,24.22,-53.06
27260.0,-9.067,0.981,-5.769,-8.866,2.589,-6.04,75.18,-5.32,-28.7
,-8.808,1.45,-5.944,-8.804,2.936,-5.867,90.02,-12.04,-23.73
,-8.301,1.972,-6.1,-8.502,3.295,-5.867,101.01,-17.43,-19.39
,-8.466,2.35,-6.277,-8.15,3.477,-5.973,105.21,-21.63,-14.84
27335.0,-8.064,3.635,-5.738,-7.894,3.989,-5.614,115.22,-37.87,-2.45
,-8.002,3.944,-5.788,-7.82,3.999,-5.707,112.91,-38.22,-0.56
,-7.992,4.013,-5.628,-7.669,4.195,-5.872,106.68,-37.59,1.33
,-8.035,3.977,-5.638,-7.629,4.369,-5.922,99.68,-36.75,3.22
27411.0,-7.53,4.647,-5.875,-7.341,3.544,-5.592,68.74,-26.6,6.44
,-7.239,4.685,-5.906,-7.789,3.034,-5.355,59.43,-23.94,5.6
,-7.251,4.369,-5.934,-7.916,3.077,-5.439,49.56,-21.0,4.2
,-7.418,4.003,-5.863,-7.789,3.637,-5.31,42.7,-19.25,3.08
27487.0,-8.045,4.089,-4.932,-8.753,1.95,-5.726,24.85,-16.66,-0.91
,-8.66,3.984,-4.915,-8.155,2.187,-5.683,20.44,-17.64,2.45
,-8.617,3.338,-5.169,-7.856,3.022,-5.736,16.8,-17.01,4.2
,-8.691,2.324,-4.922,-8.471,3.594,-5.343,13.02,-13.65,2.66
27563.0,-9.139,2.716,-4.642,-8.435,0.45,-4.786,11.2,-9.87,10.29
,-9.407,0.565,-4.24,-8.681,1.608,-5.011,8.54,-12.88,13.02
,-9.251,-1.053,-4.223,-9.146,0.876,-4.238,19.11,-14.7,14.56
,-8.732,-0.792,-4.671,-9.876,-0.345,-4.171,36.68,-14.63,15.33
27638.0,-9.859,-0.976,-3.556,-10.067,1.251,-4.209,0.14,-8.26,-2.1
,-9.347,-0.148,-4.025,-9.612,1.232,-4.25,6.37,-7.49,-1.75
,-8.729,1.022,-4.066,-8.993,1.034,-4.334,11.62,-5.88,-0.77
,-9.387,1.259,-3.991,-8.957,0.421,-4.032,10.43,-4.48,0.0
27714.0,-9.28,-0.258,-4.049,-9.036,0.598,-4.161,-2.38,2.38,0.14
,-9.287,-0.546,-3.96,-8.878,0.249,-4.085,-2.1,2.59,-0.56
,-9.093,-0.177,-3.999,-8.882,-0.007,-3.975,-0.21,3.5,-0.91
,-9.04,0.335,-4.08,-8.995,0.146,-4.104,-1.26,4.83,-1.26
27789.0,-9.0,0.299,-4.104,-8.978,-0.031,-4.446,-4.9,6.65,0.21
,-8.923,0.409,-4.216,-8.947,0.01,-4.53,-5.11,7.07,0.14
,-8.882,0.357,-4.238,-8.787,0.108,-4.676,-6.93,7.63,-0.07
,-8.938,0.132,-4.329,-8.696,0.124,-4.566,-7.77,7.91,0.14
27865.0,-8.847,0.139,-4.52,-8.911,0.151,-4.549,-1.82,6.51,2.45
,-8.859,0.242,-4.618,-8.906,0.153,-4.647,-0.77,6.23,3.22
,-8.851,0.124,-4.582,-8.863,0.172,-4.645,-0.28,6.09,3.64
,-8.863,0.086,-4.575,-8.909,0.067,-4.652,0.35,5.88,4.06
27941.0,-8.76,0.258,-4.767,-8.813,-0.127,-4.465,3.01,4.48,7.07
,-8.751,0.383,-4.642,-8.995,0.108,-4.319,2.94,4.34,7.42
,-8.918,0.555,-4.642,-8.844,0.211,-4.24,2.45,3.99,7.91
,-8.863,0.038,-4.609,-8.871,0.474,-4.223,1.4,3.15,8.68
28017.0,-8.739,0.505,-4.111,-8.83,-0.227,-4.427,6.02,3.64,11.76
,-8.849,0.483,-4.235,-8.76,0.117,-4.649,5.53,4.55,11.97
,-9.167,0.213,-4.235,-8.768,0.68,-4.889,5.46,4.27,12.46
,-8.969,-0.311,-4.31,-8.586,1.113,-5.09,6.3,3.71,13.16
28093.0,-8.232,1.208,-5.212,-8.849,0.325,-4.343,8.75,3.29,13.72
,-8.581,0.972,-5.135,-9.031,0.352,-4.283,6.23,3.08,13.51
,-8.737,0.852,-4.956,-9.246,0.328,-4.18,4.97,2.59,13.23
,-8.72,0.567,-4.635,-8.77,0.096,-4.092,4.13,2.73,12.88
28168.0,-8.93,0.282,-4.156,-8.859,1.225,-4.073,7.35,3.99,14.49
,-8.713,0.94,-4.446,-9.165,0.67,-4.034,8.96,4.48,14.91
,-8.413,1.577,-4.53,-9.019,0.127,-4.25,8.12,5.53,14.42
,-8.545,1.642,-4.329,-8.854,0.187,-4.503,4.34,6.93,14.28
28244.0,-8.634,0.68,-4.805,-8.763,1.225,-4.783,5.95,8.61,17.85
,-8.433,0.955,-4.999,-8.617,1.139,-4.774,3.64,9.52,17.43
,-8.552,1.036,-4.932,-8.658,0.974,-4.779,0.35,9.73,17.22
,-8.607,1.132,-4.841,-8.626,0.861,-4.922,-2.03,10.08,17.29
28320.0,-8.504,0.835,-4.97,-8.67,0.869,-4.647,-2.45,9.87,20.51
,-8.567,0.962,-4.97,-8.823,0.991,-4.661,-2.73,10.22,20.51
,-8.538,1.019,-4.831,-8.643,1.12,-4.759,-4.13,10.5,20.3
,-8.581,1.003,-4.688,-8.579,1.235,-4.704,-5.46,10.5,20.79
28396.0,-8.696,1.24,-4.805,-8.576,1.321,-5.042,-6.02,12.04,23.94
,-8.65,1.189,-4.956,-8.655,1.455,-5.2,-7.07,12.39,23.94
,-8.497,1.311,-4.982,-8.43,1.721,-5.238,-8.61,12.88,23.52
,-8.531,1.357,-5.059,-8.368,1.981,-5.307,-10.57,13.23,23.59
28471.0,-8.54,2.015,-5.398,-8.1,2.163,-6.004,-17.01,13.09,25.13
,-8.49,1.732,-5.501,-8.155,2.455,-5.908,-19.67,12.81,25.13
,-8.416,1.553,-5.642,-8.327,2.28,-5.875,-21.63,12.67,25.2
,-8.705,1.027,-5.932,-8.684,2.264,-5.69,-21.28,11.62,26.32
28547.0,-8.416,1.878,-5.475,-8.626,2.493,-4.836,-30.8,9.52,26.53
,-8.562,1.517,-5.279,-8.777,2.422,-4.74,-31.92,9.24,26.39
,-8.871,1.826,-5.274,-8.947,2.292,-4.628,-28.98,9.17,26.32
,-8.72,2.352,-5.095,-8.804,2.462,-4.652,-26.53,9.1,26.11
28622.0,-8.77,2.563,-4.64,-8.452,2.8,-4.824,-24.92,10.57,25.62
,-8.808,2.678,-4.602,-8.303,2.821,-4.882,-23.73,10.99,25.2
,-8.799,2.79,-4.654,-8.098,2.972,-4.953,-23.59,11.2,24.57
,-8.674,2.776,-4.673,-7.978,3.132,-5.19,-23.45,11.13,24.71
28698.0,-7.978,3.29,-5.264,-8.016,3.388,-5.142,-19.25,9.66,25.13
,-7.968,3.348,-5.185,-8.105,3.216,-4.999,-19.39,9.1,24.85
,-7.932,3.343,-5.245,-8.186,3.393,-5.018,-19.32,8.19,24.99
,-8.047,3.412,-5.236,-8.09,3.695,-4.807,-18.9,7.56,25.13
28774.0,-8.023,3.946,-4.848,-8.674,3.542,-4.975,-12.6,3.5,28.77
,-8.047,4.039,-4.896,-8.904,3.23,-4.939,-13.44,3.64,28.91
,-8.212,3.967,-4.958,-8.873,2.998,-4.86,-14.84,3.71,28.35
,-8.373,3.838,-5.039,-8.67,2.965,-4.752,-16.17,3.71,27.37
28850.0,-8.402,3.202,-4.695,-7.624,4.135,-4.748,-14.7,2.8,20.16
,-8.2,3.563,-4.783,-7.509,3.982,-4.702,-14.7,3.01,17.64
,-8.019,3.9,-4.841,-7.246,3.955,-4.547,-16.24,3.64,14.35
,-7.796,4.178,-4.824,-6.578,4.221,-3.874,-20.09,4.48,10.36
28926.0,-6.87,4.527,-4.956,-7.035,1.421,-5.693,-54.04,16.31,-8.61
,-7.502,3.281,-5.425,-7.236,1.476,-5.384,-71.26,17.71,-11.62
,-7.387,2.082,-5.566,-7.071,1.931,-5.111,-81.62,17.08,-14.98
,-7.253,1.615,-5.721,-6.872,2.173,-4.654,-80.22,15.05,-17.92
29001.0,-6.746,2.24,-4.149,-8.162,0.22,-4.099,-44.94,4.9,-36.89
,-6.624,2.273,-3.984,-8.631,-0.304,-3.384,-43.4,6.44,-42.14
,-7.164,1.893,-4.147,-8.315,-0.696,-2.85,-42.28,8.26,-46.27
,-7.753,1.122,-4.465,-7.877,-0.297,-2.919,-38.5,8.33,-48.23
29077.0,-7.667,0.706,-3.551,-8.22,2.871,-4.429,39.97,3.01,-44.87
,-8.212,2.355,-4.104,-7.743,3.216,-4.661,49.0,4.62,-46.34
,-8.557,3.245,-4.298,-7.511,2.848,-4.444,47.88,5.46,-48.23
,-8.394,2.979,-4.432,-7.48,2.213,-4.724,42.0,6.02,-50.12
29153.0,-8.052,1.933,-5.183,-7.77,3.223,-6.035,31.29,15.96,-48.79
,-8.531,1.965,-5.236,-7.956,3.443,-6.176,37.94,14.56,-45.85
,-8.256,2.575,-5.398,-7.887,3.867,-5.93,49.07,13.37,-43.68
,-7.904,2.974,-5.707,-7.124,4.98,-6.004,58.1,11.97,-42.63
29229.0,-6.619,5.154,-5.717,-8.294,2.077,-6.214,57.54,16.52,-49.84
,-6.911,4.544,-5.772,-8.098,2.029,-6.384,46.76,16.38,-50.12
,-7.48,3.494,-5.836,-7.691,2.749,-6.645,39.2,14.7,-48.79
,-8.074,2.723,-6.25,-7.528,3.812,-6.312,38.64,11.9,-46.69
29304.0,-7.368,4.346,-6.126,-7.921,3.372,-6.009,65.94,0.35,-36.47
,-7.069,4.173,-6.033,-7.885,3.281,-6.183,56.42,-1.96,-34.16
,-7.215,3.695,-5.908,-7.825,3.367,-6.162,48.79,-4.27,-30.24
,-7.722,3.544,-5.932,-7.775,3.922,-6.42,46.41,-6.93,-25.34
29380.0,-7.55,5.162,-6.729,-7.641,4.64,-5.489,64.82,-19.74,-5.11
,-7.138,6.052,-6.473,-8.559,4.48,-5.631,59.85,-21.35,-4.83
,-6.461,6.418,-6.324,-9.189,4.893,-5.657,46.55,-21.21,-7.35
,-6.884,5.346,-5.944,-10.036,4.625,-5.123,28.49,-21.42,-10.15
29455.0,-10.256,2.929,-4.369,-9.481,0.134,-5.252,-16.45,-40.6,0.0
,-9.715,1.268,-3.565,-9.768,4.252,-4.872,-11.2,-43.12,5.04
,-9.713,-0.761,-3.544,-10.388,6.65,-4.317,1.82,-39.41,9.38
,-10.132,-1.799,-4.508,-10.364,5.698,-3.884,29.19,-33.46,15.19
29531.0,-10.493,2.321,-3.683,-8.21,-0.644,-3.544,-21.42,-15.89,1.96
,-9.926,0.335,-3.632,-8.325,0.034,-3.436,-33.39,-12.81,-1.54
,-9.249,-0.34,-3.427,-8.703,0.864,-3.558,-31.08,-10.64,-0.7
,-8.562,-0.759,-3.496,-8.806,1.429,-3.757,-21.63,-10.08,2.38
29607.0,-8.681,1.575,-3.884,-8.971,1.192,-3.996,10.08,-7.98,6.72
,-8.586,1.663,-4.018,-9.196,0.979,-4.082,6.51,-6.79,5.18
,-8.531,1.732,-4.125,-9.136,0.962,-4.118,2.59,-5.6,3.5
,-8.696,1.455,-4.087,-8.959,0.95,-4.02,-0.84,-4.55,2.24
29683.0,-8.827,1.017,-3.994,-8.961,0.933,-3.427,3.43,-2.03,2.59
,-8.756,1.149,-3.857,-9.246,0.95,-3.467,2.8,-1.26,2.38
,-8.655,1.117,-3.656,-9.234,1.067,-3.601,0.63,0.0,1.82
,-8.717,1.034,-3.448,-9.139,1.314,-3.723,-1.96,1.26,0.91
29758.0,-8.983,1.46,-3.881,-9.423,1.381,-3.475,-6.3,6.37,-2.66
,-9.198,1.515,-4.097,-9.328,0.419,-2.883,-7.84,7.14,-3.08
,-9.646,1.778,-4.156,-8.394,0.505,-2.675,-6.86,6.79,-1.68
,-9.351,1.835,-4.094,-8.064,2.058,-3.068,-5.6,6.02,0.07
29834.0,-8.346,3.702,-3.831,-9.182,3.302,-6.047,20.79,8.19,5.6
,-8.555,4.547,-4.822,-9.237,2.599,-6.035,9.73,12.18,2.17
,-8.899,4.413,-5.334,-9.256,2.242,-6.31,-6.37,15.05,-2.59
,-9.088,3.776,-5.652,-9.043,2.182,-6.243,-22.61,16.94,-7.14
29910.0,-8.997,2.453,-6.583,-8.246,4.405,-5.24,-49.42,18.06,-7.42
,-8.973,3.269,-6.528,-8.282,4.106,-4.965,-47.95,17.71,-4.06
,-8.825,4.106,-5.841,-8.124,4.109,-4.721,-48.02,16.94,-1.12
,-8.497,4.602,-5.561,-7.767,4.051,-4.597,-50.61,16.1,0.84
29986.0,-7.571,3.833,-4.858,-7.633,3.257,-4.432,-54.88,14.28,12.46
,-7.944,3.52,-5.123,-7.629,3.525,-4.243,-53.41,14.49,14.77
,-8.593,3.058,-4.764,-8.126,3.848,-4.235,-49.98,12.53,18.83
,-8.224,2.903,-4.609,-8.002,3.886,-4.379,-43.82,9.66,24.01
30062.0,-8.021,4.087,-4.554,-8.301,3.139,-5.147,-31.64,5.67,36.33
,-8.232,4.389,-4.783,-8.433,3.132,-5.212,-33.67,6.3,35.77
,-8.222,4.042,-4.898,-8.562,2.632,-4.949,-39.41,5.95,35.35
,-8.232,3.448,-5.066,-8.696,2.45,-4.987,-44.8,5.46,35.0
30137.0,-8.622,2.175,-5.035,-8.114,2.874,-4.625,-54.32,-0.63,35.63
,-9.016,2.091,-4.676,-8.327,3.632,-4.707,-50.61,-3.92,36.75
,-8.526,2.242,-4.525,-8.737,3.539,-4.499,-45.57,-6.72,37.59
,-8.148,2.477,-4.731,-8.995,2.68,-4.329,-42.14,-6.65,37.87
30213.0,-8.863,1.835,-4.343,-8.435,1.706,-3.503,-55.79,-4.41,34.93
,-8.813,1.493,-4.109,-8.459,1.871,-3.273,-49.56,-4.69,34.86
,-8.88,1.232,-3.597,-8.311,2.283,-3.455,-40.67,-5.11,35.84
,-8.76,1.505,-3.676,-8.263,2.536,-3.295,-27.93,-5.67,37.24
30288.0,-8.057,3.113,-3.494,-8.54,1.625,-3.104,12.6,-1.33,35.07
,-7.631,3.482,-3.716,-8.265,1.242,-2.967,13.44,1.33,33.81
,-7.818,3.041,-3.297,-8.215,1.017,-2.876,8.33,3.57,31.92
,-8.354,2.391,-3.216,-8.318,1.383,-3.154,5.81,4.13,31.92
30364.0,-7.944,2.374,-3.398,-7.088,2.948,-3.585,56.84,-3.92,37.38
,-7.66,3.08,-3.525,-7.373,2.149,-3.632,60.69,-3.92,36.05
,-7.37,3.46,-3.709,-7.487,1.977,-3.671,59.57,-3.5,33.6
,-7.145,3.625,-3.716,-7.076,3.202,-4.221,53.55,-2.59,30.24
30440.0,-6.925,3.86,-4.369,-6.585,4.396,-5.126,45.64,-0.63,13.37
,-6.858,4.058,-4.561,-7.337,4.3,-5.111,39.06,1.47,7.42
,-6.317,4.128,-4.597,-7.349,3.317,-5.334,33.53,6.3,2.03
,-6.195,3.999,-4.97,-7.621,2.515,-4.927,29.12,12.6,-4.06
30516.0,-8.519,1.89,-4.458,-7.655,4.865,-5.116,11.2,11.76,-18.55
,-8.413,2.027,-4.563,-7.691,3.831,-4.922,20.79,9.87,-16.59
,-7.911,3.642,-5.027,-7.77,3.419,-5.039,29.54,10.22,-17.29
,-7.7,5.224,-5.255,-7.863,3.252,-5.252,27.79,11.13,-18.2
30591.0,-7.775,2.843,-5.162,-8.555,2.235,-4.728,8.54,11.9,-29.68
,-7.911,2.577,-4.743,-8.473,1.709,-4.884,8.89,11.83,-31.43
,-8.241,2.515,-4.714,-8.469,1.606,-5.104,11.41,11.62,-31.64
,-8.399,2.489,-4.628,-8.346,1.878,-5.418,13.51,11.76,-33.11
30667.0,-8.315,2.668,-5.698,-8.459,3.699,-6.004,30.45,5.6,-27.23
,-8.361,3.711,-5.966,-8.497,2.912,-5.676,33.88,4.41,-26.6
,-8.38,4.453,-6.169,-8.801,2.477,-5.25,31.15,3.36,-27.65
,-8.404,4.405,-6.123,-8.882,2.369,-4.989,23.66,2.8,-29.4
30743.0,-8.997,2.745,-5.051,-8.818,1.359,-5.607,18.06,-1.96,-33.25
,-8.88,2.912,-5.166,-8.619,0.876,-5.65,17.08,-2.17,-34.23
,-8.748,2.603,-5.279,-8.392,1.086,-5.954,13.79,-2.1,-35.56
,-8.772,2.032,-5.422,-8.198,1.689,-6.056,11.41,-2.66,-36.19
30819.0,-8.16,2.347,-6.123,-8.064,3.168,-5.492,35.91,-13.09,-20.16
,-7.952,2.558,-6.097,-8.906,2.467,-4.889,36.47,-14.7,-19.04
,-8.014,2.534,-5.858,-9.466,1.864,-4.503,34.23,-15.33,-19.67
,-7.865,3.168,-5.748,-9.421,1.965,-4.36,31.78,-15.33,-21.7
30895.0,-9.237,2.003,-4.391,-8.873,0.041,-4.929,14.63,-10.43,-26.6
,-9.27,1.4,-4.405,-8.914,-0.127,-5.066,10.78,-8.82,-26.18
,-9.263,0.488,-4.575,-8.859,-0.129,-5.307,7.42,-8.05,-25.27
,-8.916,0.156,-4.712,-8.737,0.187,-5.54,7.35,-7.7,-24.15
30970.0,-8.559,0.297,-5.444,-8.536,1.431,-5.642,6.65,-9.17,-18.69
,-8.658,0.797,-5.53,-8.399,0.998,-5.458,8.68,-9.8,-16.17
,-8.473,1.606,-5.65,-8.67,1.031,-5.231,9.03,-9.73,-14.63
,-8.471,1.886,-5.652,-8.957,0.723,-4.951,4.62,-9.24,-14.98
31046.0,-8.844,0.261,-4.645,-8.969,-0.041,-3.831,-4.62,-11.9,-13.02
,-9.076,0.156,-4.417,-8.935,0.211,-3.762,-1.12,-12.32,-11.27
,-9.206,0.168,-4.264,-9.667,0.325,-3.515,3.15,-13.58,-9.24
,-9.002,0.151,-3.884,-9.366,-0.481,-3.781,7.0,-14.63,-6.72
31121.0,-8.847,-0.22,-3.697,-9.15,-0.495,-3.721,36.82,-20.44,6.23
,-9.088,0.61,-3.592,-9.074,-0.007,-4.042,43.61,-20.51,7.49
,-9.182,0.514,-3.714,-9.098,1.082,-4.413,44.03,-21.07,8.61
,-9.409,-0.227,-3.618,-8.696,2.288,-4.788,44.03,-22.05,9.8
31197.0,-8.263,2.871,-4.927,-8.71,1.905,-4.681,41.58,-17.78,6.72
,-8.114,3.044,-4.968,-8.653,1.723,-4.527,32.2,-16.38,4.55
,-8.217,2.776,-4.898,-8.734,1.46,-4.353,23.94,-15.05,2.73
,-8.559,2.204,-4.714,-8.878,1.436,-4.269,18.55,-14.14,1.68
31273.0,-8.83,1.484,-4.279,-8.837,1.342,-4.085,8.82,-12.11,-3.92
,-8.679,1.613,-4.279,-8.751,1.639,-4.003,6.65,-11.41,-5.53
,-8.772,1.517,-4.221,-9.043,1.508,-3.905,3.57,-10.64,-6.65
,-8.849,1.316,-4.137,-9.201,0.876,-3.896,1.75,-10.29,-7.07
31349.0,-9.134,0.447,-3.872,-8.598,2.075,-3.077,-0.77,-8.89,-8.05
,-8.985,0.526,-3.817,-8.897,1.661,-2.69,1.82,-8.47,-8.26
,-9.148,0.735,-3.707,-9.387,0.766,-2.3,3.22,-8.33,-8.26
,-8.959,1.479,-3.453,-9.672,-0.208,-2.158,5.25,-7.84,-8.4
31424.0,-9.464,-0.445,-2.06,-9.256,1.153,-1.429,2.66,0.28,-10.08
,-9.194,-0.12,-2.06,-9.464,1.481,-1.271,5.74,2.73,-10.85
,-9.062,0.318,-1.811,-9.158,1.553,-1.352,4.34,6.23,-12.32
,-9.22,0.871,-1.615,-8.696,1.445,-1.522,0.07,10.15,-14.0
31500.0,-8.72,1.225,-1.804,-9.107,2.716,-4.171,0.42,25.41,-12.74
,-9.064,1.228,-2.41,-8.885,3.262,-4.379,1.47,29.05,-13.58
,-9.478,1.314,-2.972,-8.923,2.979,-4.405,1.19,31.99,-14.21
,-9.694,1.771,-3.661,-9.153,2.855,-4.602,-1.05,34.16,-14.0
31576.0,-8.447,2.833,-5.035,-8.693,2.948,-6.205,-27.23,32.48,-19.95
,-7.973,3.465,-5.372,-9.17,2.86,-6.205,-31.57,37.03,-20.58
,-8.471,3.743,-5.319,-9.206,2.682,-6.475,-39.97,41.79,-21.91
,-9.162,3.113,-5.195,-9.488,1.721,-6.332,-49.35,43.12,-22.26
31652.0,-9.708,1.601,-6.178,-8.547,7.428,-5.616,-57.05,30.38,-14.84
,-9.43,2.879,-6.298,-8.863,6.26,-5.595,-50.4,28.0,-6.51
,-8.839,4.987,-6.195,-9.182,4.274,-5.575,-45.92,27.93,-0.77
,-8.303,7.088,-6.123,-9.435,2.56,-5.284,-51.52,28.91,0.63
31728.0,-9.655,1.582,-5.324,-8.169,4.817,-5.772,-93.73,17.85,8.75
,-9.584,1.551,-5.315,-7.897,5.013,-5.872,-77.35,14.14,17.01
,-9.201,2.405,-5.599,-8.301,4.456,-5.765,-60.97,11.13,24.92
,-8.938,3.69,-5.602,-8.787,3.661,-5.523,-48.79,7.49,31.92
31803.0,-8.804,2.922,-5.695,-8.607,1.993,-5.535,-58.73,-4.2,45.36
,-8.691,2.35,-5.425,-8.507,2.024,-5.628,-54.11,-6.44,49.07
,-8.447,2.154,-5.384,-8.301,1.73,-5.408,-46.83,-8.33,53.34
,-8.421,2.161,-5.549,-7.956,1.804,-5.243,-39.62,-9.87,57.19
31879.0,-7.641,2.034,-5.075,-8.088,2.3,-5.224,-12.32,-19.53,65.31
,-7.782,1.984,-5.054,-7.932,2.259,-5.26,-9.1,-19.95,66.43
,-7.784,2.008,-5.24,-7.581,2.051,-5.085,-8.89,-19.53,66.29
,-7.999,2.154,-5.226,-7.552,1.512,-4.649,-10.92,-18.69,65.17
31954.0,-7.497,0.912,-4.611,-7.341,0.464,-4.511,-22.61,-11.9,53.48
,-7.545,0.249,-4.47,-7.176,0.627,-4.238,-18.97,-11.48,52.01
,-7.26,-0.012,-4.436,-7.241,0.007,-4.135,-11.06,-11.13,51.52
,-7.282,0.179,-4.518,-7.16,-0.459,-4.314,-1.47,-10.78,50.68
32030.0,-7.133,-0.794,-4.544,-6.782,-0.129,-4.056,47.88,-6.86,45.5
,-6.992,-1.12,-4.544,-6.571,1.859,-5.111,60.55,-7.7,44.52
,-6.887,-1.18,-4.312,-6.841,3.788,-4.982,73.43,-7.77,43.54
,-6.741,-0.66,-4.178,-7.492,4.917,-5.08,84.63,-7.0,43.05
32106.0,-7.253,5.142,-4.817,-7.296,4.365,-4.843,57.96,-6.86,11.69
,-7.112,5.066,-4.427,-7.27,3.817,-5.016,38.99,-7.0,1.19
,-7.698,5.166,-4.168,-7.808,3.233,-4.999,23.59,-4.34,-9.87
,-7.885,4.815,-4.264,-8.294,2.891,-4.795,11.41,0.0,-19.53
32182.0,-8.559,2.907,-4.539,-8.514,3.309,-4.867,-2.38,5.88,-34.58
,-8.624,3.314,-4.446,-8.241,3.47,-5.03,0.14,4.76,-33.95
,-8.593,3.589,-4.582,-7.913,4.212,-5.296,0.07,4.27,-31.99
,-8.526,3.479,-4.614,-7.882,4.319,-5.554,0.35,3.92,-30.03
32257.0,-8.059,3.044,-5.133,-9.16,2.391,-5.384,-12.25,4.55,-36.47
,-8.686,1.754,-4.951,-9.241,2.012,-5.415,-15.12,3.64,-38.78
,-9.107,1.491,-4.877,-9.217,1.467,-5.698,-9.73,2.17,-39.83
,-9.129,2.008,-5.2,-9.225,1.01,-5.698,-3.64,1.33,-40.67
32333.0,-9.184,0.95,-5.82,-9.103,3.302,-5.616,9.24,-8.33,-33.95
,-8.804,1.347,-6.006,-10.031,3.81,-5.032,18.06,-11.27,-29.61
,-8.638,2.027,-6.15,-10.701,4.085,-4.654,24.85,-14.07,-26.67
,-8.725,2.812,-6.135,-10.12,3.64,-4.731,27.93,-16.17,-25.41
32409.0,-8.622,2.694,-4.903,-8.942,1.268,-4.247,15.19,-17.36,-27.51
,-7.609,1.881,-5.066,-8.911,1.225,-3.991,14.21,-17.43,-27.02
,-7.846,1.405,-4.86,-8.923,1.34,-3.927,15.19,-17.43,-26.53
,-8.603,1.225,-4.57,-8.765,1.333,-3.752,17.36,-17.85,-26.18
32485.0,-8.875,1.261,-3.628,-8.902,1.548,-3.281,15.61,-17.08,-24.71
,-8.871,1.467,-3.506,-8.99,1.17,-3.245,17.08,-16.52,-23.73
,-8.782,1.567,-3.434,-9.103,0.873,-3.147,18.13,-15.33,-22.96
,-9.002,1.651,-3.257,-9.033,0.888,-3.061,17.85,-13.65,-22.68
32560.0,-9.158,1.003,-3.403,-9.002,0.558,-4.714,15.82,-6.23,-19.81
,-9.191,1.084,-3.766,-8.966,0.613,-4.929,14.7,-4.97,-18.9
,-9.05,1.103,-4.149,-8.99,0.689,-5.008,12.04,-3.64,-19.04
,-8.99,0.814,-4.343,-9.081,0.725,-5.025,8.05,-2.94,-19.25
32636.0,-8.818,0.754,-4.982,-9.007,1.015,-4.322,5.18,-6.09,-14.56
,-8.835,0.983,-4.963,-9.119,0.727,-4.202,5.39,-6.79,-13.79
,-8.897,0.938,-4.755,-9.136,0.536,-4.142,5.6,-8.05,-12.67
,-8.806,1.046,-4.482,-8.966,0.945,-4.319,7.14,-8.89,-11.48
32712.0,-8.626,1.45,-4.274,-9.141,0.278,-4.372,11.2,-9.1,-8.68
,-8.82,1.491,-4.219,-8.899,0.68,-4.413,7.42,-8.4,-9.38
,-9.186,1.079,-4.183,-8.837,1.182,-4.422,3.01,-8.12,-9.45
,-9.251,0.481,-4.247,-8.66,1.907,-4.405,2.52,-8.54,-8.68
32787.0,-8.658,2.067,-4.164,-8.715,1.007,-3.29,8.96,-9.45,-5.46
,-9.052,1.668,-3.934,-8.801,1.378,-3.104,3.64,-8.75,-5.95
,-9.296,1.106,-3.754,-8.99,1.957,-2.938,0.7,-8.4,-5.88
,-9.028,0.931,-3.623,-8.859,2.134,-2.699,2.1,-7.63,-5.81
32863.0,-9.016,1.644,-2.558,-9.306,0.33,-3.008,-6.44,1.68,-10.22
,-9.222,1.058,-2.513,-9.332,0.464,-3.331,-9.73,3.64,-10.92
,-9.325,0.727,-2.56,-9.397,0.584,-3.62,-10.57,5.04,-11.34
,-9.335,0.404,-2.783,-9.186,0.802,-3.9,-9.66,6.16,-11.13
32939.0,-8.787,1.263,-3.965,-9.074,0.503,-3.738,-5.46,7.7,-9.59
,-8.737,1.405,-4.042,-9.026,0.316,-3.424,-7.07,7.7,-9.94
,-8.868,1.237,-3.927,-9.189,0.275,-3.137,-9.31,8.05,-10.15
,-9.117,0.902,-3.869,-9.395,0.452,-2.958,-10.71,8.19,-10.22
33015.0,-9.244,0.771,-2.697,-9.414,0.838,-2.982,-3.15,12.95,-10.57
,-8.947,1.0,-2.522,-9.368,0.727,-3.386,-3.29,14.91,-11.27
,-8.854,0.857,-2.283,-9.217,0.498,-3.699,-4.34,17.43,-11.62
,-9.117,0.821,-2.56,-9.143,0.426,-4.068,-5.18,20.23,-11.48
33090.0,-9.043,0.739,-4.494,-8.971,1.598,-5.54,-2.1,22.47,-10.08
,-9.028,1.031,-4.786,-8.574,2.125,-5.657,-3.29,22.96,-10.64
,-9.172,1.115,-5.071,-8.55,2.515,-5.628,-6.58,22.96,-10.64
,-9.162,1.326,-5.329,-8.885,2.647,-5.575,-9.38,22.89,-10.36
33166.0,-8.725,2.347,-5.303,-8.198,1.993,-4.343,-29.19,22.47,-14.63
,-9.05,1.96,-4.676,-8.306,2.532,-4.41,-32.2,21.14,-15.4
,-8.978,1.663,-4.499,-8.815,2.819,-4.551,-31.5,18.69,-15.12
,-8.904,1.797,-4.393,-9.184,2.278,-4.53,-28.84,15.33,-14.91
33242.0,-8.959,1.89,-4.86,-9.438,0.658,-4.647,-42.28,19.04,-14.56
,-9.347,1.491,-4.587,-9.055,0.881,-4.625,-40.6,18.27,-14.07
,-9.265,0.816,-4.654,-8.564,1.364,-4.843,-38.29,17.78,-13.3
,-9.385,0.565,-4.637,-8.117,2.548,-5.061,-32.2,17.71,-11.34
33318.0,-7.997,4.125,-5.365,-9.206,3.994,-4.75,-11.69,18.48,-0.98
,-7.99,5.231,-5.463,-9.024,2.938,-4.563,-23.38,20.86,-2.59
,-8.473,5.544,-5.432,-8.969,2.228,-4.391,-41.93,22.26,-4.76
,-8.911,5.087,-5.185,-8.904,2.295,-4.532,-60.48,22.05,-5.95
33393.0,-8.897,2.745,-4.755,-9.0,4.427,-5.52,-58.59,8.61,8.4
,-9.033,3.329,-5.063,-8.543,4.085,-5.427,-54.88,6.79,12.53
,-9.021,3.874,-5.36,-8.603,3.443,-5.116,-54.74,5.53,16.1
,-9.158,4.257,-5.465,-9.177,2.936,-4.673,-57.19,3.78,19.11
33469.0,-8.83,2.706,-4.793,-8.978,1.809,-4.566,-59.01,-10.57,34.93
,-8.727,2.496,-4.896,-8.842,1.345,-4.563,-52.22,-14.28,38.22
,-8.892,2.41,-4.726,-8.794,1.307,-4.623,-44.87,-17.57,41.3
,-8.93,2.261,-4.7,-8.935,1.62,-4.484,-37.94,-20.58,44.24
33545.0,-8.71,2.467,-4.63,-8.272,2.242,-4.298,0.7,-29.61,63.77
,-8.433,2.994,-4.815,-8.313,1.563,-4.123,4.97,-29.26,64.12
,-8.318,3.221,-4.664,-8.337,1.362,-4.216,4.76,-28.84,63.07
,-8.291,3.008,-4.403,-8.457,1.776,-4.228,2.24,-28.63,61.67
33620.0,-8.193,2.613,-4.35,-7.916,2.615,-4.214,14.56,-29.4,62.58
,-7.698,3.202,-4.35,-7.983,2.044,-4.168,14.7,-28.42,60.83
,-7.554,3.252,-4.192,-8.071,1.644,-4.159,10.43,-26.74,57.33
,-7.662,3.139,-4.2,-8.174,1.67,-4.061,6.16,-24.99,53.48
33696.0,-8.22,1.917,-3.798,-7.813,3.089,-3.427,18.34,-28.7,49.7
,-7.98,2.426,-3.872,-8.098,2.659,-2.934,25.27,-29.4,49.42
,-7.657,2.936,-3.965,-8.282,2.209,-2.699,29.96,-29.47,47.6
,-7.542,3.238,-3.757,-8.133,2.06,-2.728,29.19,-28.56,44.59
33772.0,-7.906,1.974,-2.388,-7.262,2.498,-2.434,38.64,-23.8,35.98
,-7.655,1.589,-2.156,-7.219,2.635,-2.247,45.22,-21.56,34.3
,-7.423,1.517,-2.187,-7.145,3.161,-2.946,52.57,-17.92,32.76
,-7.411,1.941,-2.379,-6.803,3.656,-3.163,60.13,-13.65,30.87
33848.0,-6.973,3.695,-3.577,-8.193,4.798,-4.365,64.61,14.77,10.92
,-6.947,3.793,-4.046,-7.844,3.412,-4.549,58.24,18.97,3.5
,-7.047,4.786,-4.446,-8.064,2.575,-4.597,52.92,21.21,-3.71
,-7.497,5.317,-4.381,-8.11,1.95,-4.592,43.54,21.84,-12.18
33923.0,-7.784,1.713,-4.604,-8.138,5.099,-5.638,16.17,16.59,-31.64
,-7.614,2.204,-5.233,-8.368,4.558,-5.343,25.48,16.59,-32.2
,-7.763,3.69,-5.7,-8.801,3.431,-5.425,30.8,17.01,-33.88
,-8.112,4.917,-5.901,-9.213,2.065,-5.453,25.27,16.8,-37.59
33999.0,-9.43,0.943,-5.42,-9.464,3.305,-5.686,-6.72,10.64,-48.23
,-9.581,0.881,-5.267,-9.476,3.515,-5.717,4.83,7.21,-43.89
,-9.584,1.586,-5.331,-9.517,2.967,-5.41,17.36,3.85,-39.2
,-9.502,2.642,-5.525,-9.751,2.596,-5.14,26.67,1.26,-35.49
34075.0,-10.036,2.869,-5.073,-8.172,2.134,-5.202,30.31,-6.09,-30.94
,-9.574,2.982,-5.142,-8.358,1.926,-5.099,33.18,-7.28,-29.12
,-8.832,2.754,-5.197,-8.38,1.802,-4.944,33.46,-8.05,-27.72
,-8.334,2.517,-5.351,-8.189,2.245,-4.877,32.97,-8.89,-26.81
34151.0,-8.16,2.558,-4.511,-8.954,0.648,-4.063,23.52,-10.99,-28.98
,-8.78,2.178,-4.389,-8.969,0.62,-3.886,16.66,-10.71,-29.61
,-9.292,1.503,-4.142,-9.095,0.986,-3.74,11.76,-11.06,-29.12
,-9.141,0.866,-4.097,-8.763,1.567,-3.52,12.32,-11.06,-27.58
34226.0,-8.899,1.505,-3.467,-8.93,0.651,-3.958,19.53,-7.98,-22.96
,-9.28,1.015,-3.561,-8.911,1.515,-4.286,16.1,-7.35,-22.26
,-9.304,0.318,-3.673,-8.933,2.027,-4.451,15.61,-6.86,-20.79
,-9.127,0.124,-3.85,-8.808,1.984,-4.657,19.39,-6.72,-19.04
34302.0,-8.765,1.484,-4.69,-8.634,1.474,-4.922,11.69,-3.29,-16.87
,-9.016,0.957,-4.748,-8.701,1.737,-4.874,9.45,-3.15,-16.31
,-9.002,0.67,-4.917,-8.741,1.61,-4.642,10.22,-3.92,-15.33
,-8.815,0.912,-4.922,-8.744,1.35,-4.336,13.09,-4.55,-14.21
34377.0,-8.839,1.216,-4.219,-9.012,0.998,-4.058,6.93,-3.78,-11.83
,-8.863,1.357,-4.188,-8.856,1.175,-3.989,6.86,-3.22,-11.76
,-8.801,1.244,-3.975,-8.713,1.333,-3.857,4.62,-2.24,-11.9
,-8.933,0.962,-4.015,-8.873,1.553,-3.709,2.66,-1.54,-11.55
34453.0,-9.048,1.486,-3.585,-9.115,0.447,-3.874,-0.35,2.59,-10.92
,-9.141,1.0,-3.558,-8.837,0.991,-4.018,-3.57,3.29,-11.06
,-9.289,0.292,-3.479,-8.55,1.675,-4.061,-4.62,3.71,-10.08
,-9.251,0.144,-3.647,-8.839,1.9,-4.02,-1.82,3.57,-8.89
34529.0,-9.277,1.512,-4.027,-8.677,1.452,-4.348,-5.04,6.16,-7.77
,-9.21,0.89,-4.14,-8.71,1.508,-4.135,-6.86,6.3,-7.42
,-8.906,0.459,-4.255,-9.036,0.9,-3.8,-4.41,6.37,-6.93
,-8.617,0.885,-4.343,-9.179,0.302,-3.64,-0.49,6.44,-6.79
34605.0,-9.217,0.0,-3.585,-8.856,0.821,-4.188,-3.29,6.65,-5.53
,-9.119,-0.005,-3.515,-8.94,0.773,-4.381,2.59,6.72,-3.92
,-9.306,0.196,-3.711,-8.904,0.589,-4.489,7.7,6.16,-2.24
,-8.985,0.615,-3.989,-8.801,0.562,-4.554,10.57,6.09,-1.54
34681.0,-8.751,0.675,-4.401,-9.009,1.007,-3.326,8.19,4.76,-2.66
,-8.722,0.656,-4.145,-8.969,0.778,-3.053,10.08,4.06,-2.1
,-8.827,0.943,-3.853,-9.086,0.66,-2.86,12.53,4.27,-1.19
,-9.009,1.074,-3.628,-9.0,0.95,-2.67,13.58,5.11,-0.91
34756.0,-8.66,1.62,-2.666,-9.148,1.302,-3.235,13.37,14.42,-6.16
,-8.705,1.878,-2.575,-9.162,1.261,-3.814,9.73,17.57,-8.26
,-8.988,1.843,-2.563,-9.311,1.448,-4.489,4.41,20.44,-9.17
,-9.127,1.517,-2.773,-9.32,1.644,-4.927,0.21,23.24,-9.8
34832.0,-9.459,1.713,-5.226,-9.328,1.23,-5.374,-8.96,30.45,-11.06
,-9.026,1.555,-5.353,-9.574,1.546,-5.336,-12.46,30.38,-11.27
,-9.081,1.436,-5.334,-9.273,1.723,-5.274,-15.12,29.96,-11.62
,-9.251,1.352,-5.506,-8.437,2.254,-5.674,-15.54,28.0,-11.13
34908.0,-8.591,2.424,-5.458,-8.229,2.079,-5.753,-19.74,24.85,-10.99
,-8.65,2.19,-5.458,-8.05,1.759,-6.052,-25.41,25.76,-11.9
,-8.689,2.017,-5.542,-8.033,1.292,-6.351,-27.79,26.11,-11.48
,-8.409,1.986,-5.372,-8.284,1.077,-6.363,-28.7,27.37,-11.2
34984.0,-8.131,1.299,-6.604,-7.973,3.802,-5.853,-19.81,17.36,-3.85
,-7.995,1.711,-6.554,-8.454,3.494,-5.406,-16.87,14.21,-1.05
,-7.865,2.615,-6.499,-8.619,2.862,-5.154,-15.12,10.08,1.61
,-7.789,3.369,-6.143,-8.437,2.915,-4.85,-16.31,6.86,4.06
35059.0,-8.15,3.384,-5.061,-8.744,2.422,-5.027,-28.98,-6.23,13.23
,-8.236,3.367,-5.152,-8.612,2.446,-4.85,-29.96,-7.0,13.79
,-8.689,3.113,-5.118,-8.641,3.238,-4.819,-31.92,-7.91,14.7
,-8.902,2.759,-5.051,-8.047,3.91,-5.056,-32.34,-9.31,16.87
35135.0,-7.995,4.329,-4.984,-8.899,2.704,-4.666,-22.96,-14.49,29.82
,-8.236,4.192,-4.915,-8.65,2.965,-4.69,-28.77,-14.49,31.08
,-8.708,3.539,-4.767,-8.43,3.458,-4.999,-33.95,-14.98,33.11
,-8.89,2.946,-4.669,-8.325,3.412,-5.097,-34.79,-16.03,35.98
35210.0,-8.583,3.12,-4.996,-8.169,2.426,-4.223,-17.64,-16.66,40.88
,-8.428,2.737,-4.748,-8.021,2.556,-4.506,-17.99,-16.87,41.65
,-8.605,2.568,-4.575,-8.011,2.917,-4.927,-16.03,-17.99,43.82
,-8.696,2.474,-4.324,-8.272,3.154,-4.759,-11.83,-21.56,47.11
35286.0,-8.44,3.405,-4.523,-8.447,2.027,-4.317,-11.34,-19.88,50.4
,-8.26,3.216,-4.343,-8.55,2.137,-4.247,-16.38,-19.46,48.93
,-8.186,2.644,-4.243,-8.449,2.527,-4.202,-21.21,-18.97,47.39
,-8.39,2.211,-4.329,-8.413,2.728,-3.991,-22.47,-18.83,45.99
35362.0,-8.614,2.532,-3.754,-8.311,1.651,-3.891,-15.33,-20.58,39.55
,-8.246,1.78,-3.63,-8.162,2.316,-4.001,-15.33,-21.7,39.76
,-7.961,1.007,-3.496,-8.129,2.264,-3.893,-11.48,-21.42,40.18
,-8.22,1.034,-3.687,-8.033,2.089,-3.862,-2.52,-20.86,41.02
35438.0,-7.844,2.307,-4.006,-8.119,2.599,-3.034,22.75,-25.34,41.09
,-7.779,2.656,-3.848,-8.107,1.634,-2.496,26.11,-25.62,39.2
,-7.921,3.037,-3.68,-8.04,0.845,-2.51,26.67,-25.06,37.03
,-7.992,3.135,-3.587,-7.93,0.888,-2.752,24.92,-24.71,34.72
35514.0,-7.803,1.783,-3.027,-7.124,2.211,-3.384,56.0,-19.11,31.78
,-7.834,2.553,-3.364,-7.076,3.163,-3.697,60.76,-16.31,28.91
,-7.794,2.388,-3.084,-7.408,3.623,-4.262,59.71,-14.0,25.48
,-7.449,1.766,-2.618,-7.002,4.635,-4.652,59.22,-10.92,23.59
35589.0,-6.947,5.456,-5.25,-8.332,2.051,-4.145,63.91,19.67,0.0
,-7.198,6.188,-5.092,-7.954,1.565,-3.888,49.56,21.35,-8.26
,-8.349,5.482,-5.181,-7.861,2.469,-4.389,29.61,18.9,-15.68
,-8.337,3.551,-4.949,-7.921,4.635,-5.43,14.35,14.21,-20.72
35665.0,-7.722,5.963,-5.829,-8.593,3.293,-4.884,39.69,11.76,-20.86
,-7.827,5.372,-5.513,-8.603,2.69,-4.932,22.33,11.48,-24.92
,-7.854,4.319,-5.116,-8.698,2.288,-5.24,9.31,10.85,-29.47
,-8.315,3.853,-4.879,-8.887,1.192,-5.176,2.87,11.62,-33.6
35741.0,-9.095,0.809,-5.279,-9.686,2.553,-5.386,-1.96,9.24,-44.03
,-9.268,1.048,-5.568,-9.914,3.551,-5.133,5.81,6.58,-40.6
,-9.213,1.196,-5.628,-10.148,4.202,-5.19,13.79,3.43,-36.75
,-9.38,1.627,-5.461,-9.852,3.874,-5.626,22.82,0.56,-32.76
35817.0,-8.926,2.328,-5.934,-7.911,2.757,-5.432,30.45,-7.21,-23.8
,-8.124,1.297,-6.126,-8.15,2.852,-4.817,32.48,-9.31,-21.77
,-7.638,1.455,-6.25,-8.677,2.505,-4.307,38.71,-11.48,-20.09
,-7.667,2.044,-5.944,-8.799,2.099,-4.087,42.49,-12.95,-19.81
35892.0,-8.882,1.701,-3.92,-8.461,1.84,-4.049,20.58,-12.88,-26.39
,-9.143,1.362,-4.08,-8.748,2.137,-3.946,20.44,-12.74,-25.55
,-9.067,1.237,-4.145,-8.914,1.814,-3.853,21.42,-12.46,-24.36
,-8.765,1.474,-4.18,-9.043,1.096,-3.776,22.89,-12.11,-23.94
35968.0,-9.141,0.4,-3.69,-9.227,0.625,-3.352,6.09,-7.35,-23.59
,-9.165,0.067,-3.678,-9.361,0.278,-3.396,9.8,-7.0,-22.19
,-9.067,0.354,-3.599,-9.201,0.436,-3.707,14.49,-6.51,-20.58
,-9.093,0.577,-3.355,-9.007,0.835,-3.965,16.17,-5.81,-19.18
36043.0,-9.007,1.201,-4.149,-9.229,0.476,-4.286,21.98,-3.01,-13.3
,-8.847,1.06,-4.252,-9.258,0.364,-4.372,19.81,-3.08,-12.53
,-8.827,0.782,-4.101,-8.911,0.115,-4.499,18.34,-3.01,-11.55
,-9.088,0.522,-4.133,-8.737,0.577,-4.551,19.67,-3.15,-10.08
36119.0,-8.667,1.33,-4.451,-8.892,0.916,-4.159,29.47,-5.04,-5.67
,-8.796,1.713,-4.334,-9.024,0.785,-4.078,26.04,-4.55,-5.95
,-8.99,1.488,-4.223,-8.983,0.682,-3.999,21.49,-3.99,-5.6
,-9.014,1.091,-4.2,-8.973,0.842,-3.905,19.6,-3.85,-4.9
36195.0,-9.005,0.826,-3.896,-8.538,1.318,-4.745,23.38,-1.75,-2.59
,-9.072,0.866,-4.068,-8.6,2.063,-4.865,21.63,-1.19,-2.38
,-9.208,0.692,-4.42,-8.82,2.106,-4.86,20.65,-1.68,-1.89
,-8.76,0.663,-4.585,-8.93,1.455,-4.738,21.91,-2.45,-1.26
36271.0,-8.897,0.914,-4.956,-8.574,2.032,-4.805,14.0,-2.66,-1.61
,-8.753,0.988,-5.03,-8.677,1.697,-4.549,16.24,-3.08,-2.24
,-8.454,1.658,-5.166,-8.708,1.374,-4.104,17.43,-3.64,-3.22
,-8.296,2.091,-5.063,-8.703,1.168,-3.838,14.91,-4.06,-4.27
36346.0,-8.923,1.091,-3.649,-8.978,0.704,-3.41,7.91,-2.17,-7.56
,-9.048,1.259,-3.546,-9.239,0.122,-3.491,7.0,-1.19,-8.26
,-8.959,1.22,-3.544,-9.225,-0.168,-3.747,4.9,-0.21,-9.1
,-8.918,1.11,-3.513,-9.062,0.019,-4.111,3.57,0.91,-9.66
36422.0,-8.94,0.402,-4.343,-8.899,2.182,-4.202,6.79,4.76,-10.08
,-8.897,1.17,-4.18,-8.923,1.522,-4.281,5.6,5.53,-10.71
,-8.299,2.261,-4.245,-8.693,0.969,-4.171,3.36,6.93,-11.97
,-8.476,2.539,-4.204,-8.748,0.711,-3.946,-4.2,8.82,-13.79
36498.0,-9.04,0.51,-3.503,-8.847,1.969,-3.336,-26.18,16.17,-19.18
,-9.328,0.23,-3.137,-8.636,2.453,-3.549,-28.28,18.55,-18.62
,-9.545,0.311,-3.029,-8.6,2.556,-3.652,-28.14,20.51,-17.64
,-9.229,1.062,-3.137,-8.739,2.252,-3.652,-25.55,23.38,-16.73
36574.0,-8.638,1.665,-3.609,-9.615,1.194,-3.891,-42.35,35.49,-18.83
,-8.815,1.249,-3.542,-10.021,1.316,-4.025,-41.23,36.61,-18.69
,-9.301,1.196,-3.654,-9.634,1.498,-4.566,-36.96,37.1,-17.78
,-9.356,1.285,-3.836,-8.847,1.737,-4.709,-33.11,37.1,-17.57
36650.0,-8.598,2.374,-5.296,-9.016,0.909,-5.707,-22.75,28.35,-14.98
,-8.746,2.568,-5.504,-8.583,0.828,-6.009,-26.88,30.59,-15.47
,-9.141,2.29,-5.695,-8.39,1.137,-6.296,-33.18,31.22,-15.61
,-9.093,1.5,-5.745,-8.447,1.618,-6.487,-38.01,30.52,-13.93
36725.0,-8.406,2.527,-6.511,-8.78,4.465,-5.982,-14.35,20.86,-1.89
,-7.88,3.597,-6.595,-8.811,3.762,-5.817,-19.74,19.88,0.35
,-7.868,4.499,-6.64,-8.844,2.503,-5.566,-30.73,19.74,1.82
,-8.591,4.671,-6.312,-8.887,1.517,-5.403,-44.38,17.85,2.73
36801.0,-8.672,1.496,-5.377,-8.526,3.68,-5.686,-54.6,-1.05,16.1
,-8.681,2.376,-5.485,-8.471,3.479,-5.394,-43.19,-3.64,20.93
,-8.653,3.285,-5.65,-8.576,3.108,-5.095,-36.75,-6.44,25.34
,-8.684,3.625,-5.623,-8.492,2.587,-4.891,-35.35,-9.38,29.05
36876.0,-8.203,2.536,-4.984,-8.373,2.747,-4.891,-28.0,-24.36,45.08
,-8.373,2.929,-4.862,-8.339,2.422,-4.987,-21.7,-25.55,48.58
,-8.559,3.228,-4.728,-8.777,2.225,-4.884,-18.62,-27.37,51.45
,-8.579,3.116,-4.841,-8.739,1.957,-4.783,-18.2,-29.05,53.55
36952.0,-8.555,1.96,-4.738,-7.988,4.125,-4.793,-6.86,-30.1,58.87
,-8.232,2.312,-4.86,-7.825,3.539,-4.633,-2.94,-29.61,60.06
,-8.114,3.151,-4.934,-8.172,2.733,-4.298,-0.07,-28.42,59.29
,-8.064,3.946,-4.982,-8.693,2.108,-4.188,-1.68,-27.51,56.56
37028.0,-8.849,1.469,-4.001,-7.918,1.905,-3.752,-26.39,-26.81,48.93
,-8.863,1.027,-3.908,-7.492,3.254,-4.085,-20.23,-27.37,48.72
,-8.832,0.916,-3.879,-7.337,4.267,-4.173,-9.87,-27.86,49.7
,-8.478,1.283,-3.743,-7.7,4.202,-4.013,1.68,-27.93,50.61
37104.0,-8.057,2.955,-3.62,-7.885,0.672,-3.147,-14.7,-13.58,35.63
,-8.189,1.508,-3.398,-7.956,1.017,-3.343,-17.43,-12.39,32.62
,-8.15,0.713,-3.35,-7.839,1.287,-3.606,-10.78,-11.55,30.8
,-8.038,0.45,-3.314,-7.837,1.527,-3.843,0.91,-10.64,29.89
37179.0,-7.499,1.687,-3.601,-7.028,1.508,-3.594,33.74,-5.6,24.85
,-7.133,1.407,-3.111,-7.181,2.106,-4.209,35.07,-3.64,22.33
,-7.231,1.079,-3.218,-7.37,2.137,-4.372,38.36,-1.26,20.65
,-7.207,0.883,-3.297,-6.736,3.886,-4.781,43.82,1.82,18.34
37255.0,-6.195,5.815,-5.083,-7.085,5.133,-4.733,56.63,16.94,-4.97
,-6.994,6.013,-5.054,-7.968,3.628,-4.125,36.26,20.44,-15.05
,-8.014,4.606,-4.389,-8.117,1.764,-4.2,16.52,19.81,-22.82
,-7.322,4.436,-4.805,-8.366,2.056,-4.58,5.88,18.83,-29.4
37331.0,-8.507,3.967,-4.901,-8.32,3.025,-4.989,12.46,17.99,-32.34
,-8.311,4.609,-5.006,-8.342,2.307,-5.236,11.9,16.59,-31.92
,-8.234,4.066,-4.819,-8.449,2.379,-5.317,5.74,15.68,-32.76
,-8.26,3.678,-4.767,-8.547,2.639,-5.432,0.49,15.4,-33.53
37407.0,-8.629,2.496,-5.604,-9.014,1.541,-5.937,-2.94,13.23,-40.74
,-8.851,2.036,-5.642,-9.06,1.278,-5.966,-5.46,11.9,-42.49
,-9.028,1.584,-5.753,-9.174,1.0,-5.808,-5.04,9.87,-42.91
,-8.923,1.515,-5.762,-9.184,1.094,-5.76,-1.82,7.84,-42.0
37483.0,-9.107,1.663,-5.887,-9.414,4.178,-5.425,35.14,-9.17,-22.54
,-9.172,2.479,-5.848,-8.954,3.434,-5.456,42.14,-11.41,-20.3
,-9.27,3.369,-5.762,-8.346,2.151,-5.374,43.89,-12.67,-20.02
,-9.371,4.075,-5.571,-8.2,0.96,-5.214,40.67,-12.6,-21.35
37558.0,-8.291,0.768,-5.056,-8.787,2.089,-4.592,24.01,-16.31,-22.54
,-8.385,1.555,-4.891,-8.997,1.158,-4.312,31.85,-16.73,-21.42
,-8.617,2.376,-4.846,-9.04,0.474,-4.123,33.53,-16.31,-22.47
,-8.66,2.548,-4.771,-8.916,0.67,-3.975,27.51,-15.96,-24.36
37634.0,-8.894,1.103,-3.869,-9.191,0.237,-3.532,23.52,-15.33,-21.77
,-9.002,1.402,-3.9,-9.253,0.244,-3.592,22.68,-14.63,-21.0
,-9.112,1.196,-3.771,-9.148,0.589,-3.661,17.43,-13.72,-20.51
,-9.062,0.708,-3.635,-9.16,0.811,-3.79,13.3,-12.81,-20.09
37709.0,-9.136,1.091,-3.927,-9.363,0.584,-4.037,17.08,-9.87,-14.0
,-8.815,1.546,-4.204,-9.622,-0.108,-3.955,15.96,-8.96,-13.58
,-8.722,1.639,-4.276,-9.605,-0.565,-3.807,12.18,-8.26,-13.93
,-9.009,1.393,-4.216,-9.33,-0.61,-3.932,7.84,-7.56,-13.44
37785.0,-8.995,0.041,-4.027,-9.05,0.871,-3.754,30.94,-15.61,-2.94
,-8.928,0.761,-4.073,-9.117,0.845,-3.494,33.18,-15.05,-2.45
,-8.928,1.275,-3.944,-9.095,0.558,-3.403,31.43,-14.49,-2.03
,-8.985,1.132,-3.891,-9.124,0.349,-3.472,28.07,-13.79,-1.68
37861.0,-9.256,0.656,-3.577,-8.916,1.759,-3.836,31.71,-10.99,0.28
,-9.028,1.247,-3.821,-9.189,0.991,-3.862,32.34,-9.52,0.07
,-8.612,2.032,-3.855,-9.04,0.818,-4.02,30.24,-8.19,-0.56
