Timestamp,AccX,AccY,AccZ,GyroX,GyroY,GyroZ,MagnX,MagnY,MagnZ
0.0,-9.308,-0.924,-3.209,-9.354,-0.919,-3.273,2.45,1.19,0.84
,-9.344,-0.924,-3.228,-9.337,-0.914,-3.273,2.38,1.26,0.84
,-9.335,-0.955,-3.257,-9.347,-0.9,-3.29,2.31,1.26,0.91
,-9.311,-0.909,-3.209,-9.325,-0.912,-3.273,2.24,1.12,0.84
75.0,-9.366,-0.912,-3.302,-9.32,-0.876,-3.259,2.31,1.19,0.91
,-9.349,-0.94,-3.259,-9.318,-0.89,-3.305,2.45,1.19,0.91
,-9.337,-0.909,-3.329,-9.323,-0.938,-3.266,2.45,1.05,0.91
,-9.34,-0.881,-3.269,-9.363,-0.945,-3.281,2.66,1.19,0.98
151.0,-9.349,-0.878,-3.211,-9.344,-0.9,-3.151,2.66,0.91,0.91
,-9.351,-0.928,-3.211,-9.371,-0.876,-3.104,2.59,1.05,0.84
,-9.335,-0.869,-3.178,-9.356,-0.9,-3.159,2.38,1.19,0.84
,-9.349,-0.919,-3.139,-9.395,-0.955,-3.116,2.31,1.19,0.91
227.0,-9.407,-0.972,-3.084,-9.313,-0.94,-3.209,2.1,1.89,1.12
,-9.347,-0.952,-3.142,-9.375,-0.924,-3.262,2.52,2.1,1.26
,-9.301,-0.967,-3.154,-9.311,-0.916,-3.297,2.73,2.31,1.33
,-9.335,-0.964,-3.175,-9.294,-0.955,-3.348,2.87,2.45,1.4
302.0,-9.325,-0.952,-3.35,-9.325,-0.919,-3.417,3.08,2.45,1.61
,-9.277,-0.933,-3.415,-9.323,-0.912,-3.391,3.22,2.24,1.61
,-9.318,-0.883,-3.393,-9.301,-0.89,-3.355,3.08,1.96,1.61
,-9.368,-0.909,-3.405,-9.32,-0.849,-3.345,3.08,1.75,1.54
378.0,-9.332,-0.902,-3.319,-9.33,-0.955,-3.149,3.29,1.19,1.68
,-9.351,-0.897,-3.312,-9.304,-0.995,-3.147,3.08,1.05,1.75
,-9.363,-0.914,-3.238,-9.258,-0.972,-3.13,2.8,0.98,1.82
,-9.34,-0.919,-3.233,-9.337,-0.926,-3.125,2.45,0.84,1.82
453.0,-9.304,-0.895,-3.262,-9.359,-0.945,-3.271,1.12,1.33,2.1
,-9.316,-0.885,-3.216,-9.332,-0.955,-3.3,0.28,1.47,2.17
,-9.277,-0.976,-3.23,-9.268,-0.905,-3.352,-0.42,1.33,2.17
,-9.332,-0.974,-3.254,-9.27,-0.909,-3.364,-0.07,1.47,2.31
529.0,-9.33,-0.871,-3.345,-9.361,-0.936,-3.338,0.77,1.05,2.94
,-9.292,-0.916,-3.34,-9.344,-0.897,-3.309,0.56,0.77,3.01
,-9.265,-0.909,-3.302,-9.34,-0.893,-3.321,0.49,0.7,3.08
,-9.344,-0.931,-3.355,-9.253,-0.893,-3.312,0.42,0.56,3.01
605.0,-9.284,-0.866,-3.307,-9.359,-0.821,-3.276,-0.07,0.07,3.71
,-9.335,-0.861,-3.254,-9.378,-0.804,-3.24,-0.14,0.14,3.85
,-9.344,-0.83,-3.297,-9.325,-0.802,-3.226,-0.49,-0.21,3.78
,-9.359,-0.811,-3.319,-9.34,-0.785,-3.264,-0.91,-0.07,3.78
681.0,-9.342,-0.794,-3.197,-9.361,-0.802,-3.19,-2.38,-0.35,3.92
,-9.337,-0.78,-3.159,-9.349,-0.761,-3.161,-2.52,-0.35,4.06
,-9.349,-0.806,-3.173,-9.342,-0.754,-3.235,-2.73,-0.35,3.99
,-9.383,-0.809,-3.149,-9.354,-0.754,-3.226,-2.87,-0.28,4.13
757.0,-9.332,-0.754,-3.185,-9.349,-0.826,-3.218,-5.11,-0.35,4.2
,-9.457,-0.706,-3.312,-9.347,-0.627,-3.283,-5.67,-0.63,4.2
,-9.392,-0.782,-3.173,-9.34,-0.524,-3.197,-6.79,-0.35,3.99
,-9.332,-0.849,-3.197,-9.351,-0.644,-3.242,-6.79,-0.49,4.13
832.0,-9.38,-0.816,-3.204,-9.172,-1.005,-3.235,-4.41,-0.14,5.32
,-9.337,-0.711,-3.18,-9.141,-1.658,-3.142,-2.52,0.14,5.6
,-9.39,-0.629,-3.23,-9.27,-1.895,-3.051,-1.89,0.07,5.74
,-9.378,-0.629,-3.283,-9.44,-1.314,-3.106,-2.8,-0.07,5.74
908.0,-9.464,-0.455,-3.195,-9.426,-0.692,-3.242,14.56,2.45,10.15
,-9.399,0.175,-3.156,-9.454,-0.852,-3.252,11.13,2.1,9.59
,-9.378,0.105,-3.202,-9.43,-0.45,-3.202,3.92,1.75,8.33
,-9.39,-0.342,-3.106,-9.296,-0.048,-3.156,-1.4,1.54,7.56
984.0,-9.028,-0.787,-2.974,-9.679,-0.227,-2.52,-0.84,2.1,7.49
,-9.067,-0.931,-2.73,-9.438,0.555,-2.819,-1.61,2.31,8.54
,-9.45,-0.737,-2.687,-9.158,0.924,-3.013,-1.54,2.73,9.03
,-9.368,-0.692,-2.534,-9.596,0.644,-3.099,-5.88,3.78,9.73
1060.0,-9.684,0.28,-3.269,-9.476,1.419,-3.979,-22.96,3.71,0.49
,-9.5,0.172,-3.455,-9.34,0.747,-3.908,-21.49,3.92,-0.07
,-9.428,0.512,-3.637,-9.383,-0.024,-3.841,-17.15,3.71,-0.49
,-9.61,1.158,-3.857,-9.442,-0.397,-3.659,-14.28,2.73,-1.47
1135.0,-9.411,-0.232,-3.501,-9.282,-0.471,-3.137,-14.42,-0.28,-4.48
,-9.507,0.29,-3.41,-9.361,-0.689,-3.051,-11.76,-0.49,-4.62
,-9.433,0.455,-3.29,-9.428,-0.546,-2.962,-13.09,-0.49,-5.25
,-9.378,0.12,-3.199,-9.411,-0.249,-2.943,-15.75,-0.63,-5.81
1211.0,-9.368,0.0,-2.989,-9.459,0.048,-2.91,-4.27,1.47,-4.41
,-9.442,0.074,-2.998,-9.493,0.144,-2.974,-4.97,1.68,-4.83
,-9.43,0.043,-2.943,-9.457,0.101,-3.049,-5.18,2.31,-5.25
,-9.38,-0.019,-2.924,-9.447,0.101,-2.989,-3.99,2.94,-5.39
1286.0,-9.347,-0.101,-3.082,-9.488,0.498,-3.25,1.05,4.9,-7.56
,-9.28,-0.388,-3.053,-9.363,0.469,-3.216,-1.33,5.04,-8.05
,-9.404,-0.373,-3.132,-9.299,-0.306,-3.226,-2.1,5.25,-8.4
,-9.476,-0.024,-3.08,-9.304,-0.849,-3.305,-2.94,5.11,-9.31
1362.0,-9.457,-0.938,-3.41,-9.16,-1.429,-3.331,-8.96,4.83,-11.34
,-9.273,-0.656,-3.453,-9.418,-1.122,-3.305,-6.3,5.32,-11.2
,-9.184,-0.493,-3.525,-9.323,-0.596,-3.307,-6.23,5.39,-10.99
,-9.124,-0.945,-3.424,-9.251,-0.036,-3.379,-7.98,5.88,-10.85
1438.0,-9.387,0.256,-3.57,-9.459,-0.625,-3.666,3.01,7.84,-10.36
,-9.39,0.055,-3.721,-9.239,-0.144,-3.58,1.82,7.91,-11.06
,-9.234,-0.558,-3.826,-9.296,0.507,-3.522,3.36,8.26,-11.06
,-9.323,-1.019,-3.814,-9.409,0.577,-3.422,9.66,8.75,-10.64
1514.0,-9.301,0.172,-3.374,-9.217,-1.163,-3.333,7.0,5.95,-15.47
,-9.306,-0.292,-3.463,-9.375,-0.486,-3.396,5.11,5.88,-16.45
,-9.294,-0.526,-3.484,-9.318,-0.227,-3.403,6.65,6.16,-17.08
,-9.182,-1.084,-3.419,-9.232,-0.4,-3.429,10.5,6.86,-16.87
1589.0,-9.232,-0.55,-3.644,-9.206,-0.522,-3.927,14.56,7.14,-20.37
,-9.217,-0.45,-3.75,-9.27,-0.132,-3.862,14.0,6.79,-21.35
,-9.201,-0.421,-3.877,-9.294,0.206,-3.664,13.86,6.65,-22.47
,-9.083,-0.629,-3.934,-9.273,0.17,-3.405,14.63,6.3,-23.17
1665.0,-9.28,-0.16,-3.235,-9.325,-0.692,-2.809,16.24,5.11,-30.24
,-9.316,-0.696,-3.029,-9.275,-0.68,-2.757,18.48,5.53,-31.43
,-9.265,-0.756,-2.965,-9.337,-1.089,-2.479,23.45,6.44,-32.27
,-9.208,-0.711,-2.938,-9.634,-0.972,-2.302,28.14,7.63,-33.11
1741.0,-10.024,-0.342,-2.338,-9.541,-3.872,-3.783,48.79,13.58,-38.29
,-10.117,-0.256,-2.556,-9.533,-4.156,-4.2,50.68,14.49,-39.62
,-9.95,-1.39,-2.888,-9.809,-4.283,-4.396,49.91,15.82,-39.9
,-9.598,-2.958,-3.305,-10.06,-4.262,-4.439,50.82,16.45,-38.85
1817.0,-10.268,-4.214,-4.298,-10.033,-2.883,-4.152,54.32,13.93,-29.19
,-10.433,-3.979,-4.058,-9.804,-2.285,-4.085,57.26,13.44,-28.35
,-10.457,-3.542,-4.099,-9.562,-2.132,-3.927,59.71,12.67,-27.93
,-10.433,-3.23,-4.07,-9.658,-2.491,-3.898,59.5,11.83,-27.86
1893.0,-9.608,-2.132,-3.831,-8.732,-0.878,-2.991,46.83,5.6,-23.8
,-9.421,-1.709,-3.604,-8.588,-1.005,-2.903,45.64,5.11,-21.0
,-9.167,-1.101,-3.345,-8.394,-1.086,-3.01,42.28,5.46,-17.57
,-9.038,-0.95,-3.159,-8.277,-1.225,-3.142,38.22,5.67,-14.14
1968.0,-8.208,-1.302,-3.242,-7.727,-1.596,-3.984,42.84,8.82,9.31
,-8.138,-1.106,-3.491,-7.667,-1.912,-3.831,46.48,9.03,14.63
,-7.93,-1.249,-3.589,-7.751,-2.168,-3.85,49.28,9.38,19.95
,-7.849,-1.4,-3.802,-7.54,-2.01,-3.862,52.57,9.59,25.06
2044.0,-8.088,-1.653,-3.735,-8.705,0.756,-4.078,79.24,14.35,44.94
,-8.521,-0.313,-3.829,-8.449,-1.627,-3.707,80.15,13.44,46.83
,-8.811,1.223,-3.776,-8.605,-3.594,-3.618,71.54,11.41,48.58
,-8.899,1.673,-3.915,-8.21,-3.824,-3.448,48.16,9.87,49.0
2119.0,-7.715,-1.96,-2.946,-9.78,0.826,-2.867,1.12,6.72,73.01
,-7.746,0.426,-2.388,-9.6,0.663,-2.967,9.1,6.37,71.33
,-8.662,1.122,-2.79,-9.56,0.048,-3.597,2.45,5.39,62.58
,-9.474,0.936,-2.953,-9.598,-1.125,-3.819,-14.14,7.0,51.94
2195.0,-9.765,-1.943,-3.585,-9.696,-2.065,-4.243,-104.51,3.01,39.48
,-9.581,-2.264,-3.771,-9.67,-0.821,-4.269,-104.86,3.01,43.19
,-9.574,-2.584,-4.403,-9.555,0.079,-4.453,-102.27,5.18,46.9
,-9.758,-3.058,-4.692,-9.651,0.287,-4.535,-98.35,6.58,49.91
2271.0,-9.708,-0.065,-4.405,-9.722,-2.575,-5.061,-111.3,-2.66,34.3
,-9.677,-0.593,-4.365,-9.686,-3.369,-5.08,-124.11,-4.48,33.67
,-9.509,-1.23,-4.554,-9.344,-4.111,-5.14,-135.1,-6.93,33.25
,-9.665,-1.881,-4.635,-9.064,-4.001,-5.004,-140.84,-9.03,33.53
2347.0,-8.985,-3.58,-5.118,-8.758,-3.195,-4.968,-89.25,-16.24,35.35
,-9.024,-3.037,-5.255,-8.72,-3.814,-4.678,-75.81,-19.46,34.16
,-8.746,-2.496,-5.355,-8.612,-4.195,-4.501,-69.23,-23.17,32.69
,-8.689,-2.558,-5.188,-8.397,-4.542,-4.319,-67.13,-26.18,31.22
2422.0,-8.248,-4.999,-3.886,-7.803,-19.227,-3.893,-16.17,-31.5,24.85
,-8.215,-5.157,-3.458,-6.779,-14.386,-2.795,6.16,-28.7,24.64
,-8.153,-6.786,-3.972,-5.915,-4.515,-3.204,20.86,-25.48,21.7
,-8.126,-13.57,-4.166,-8.672,2.28,-1.905,31.5,-21.28,6.51
2498.0,-12.556,7.375,-4.176,-10.129,-0.184,-2.663,101.15,-0.98,15.54
,-14.434,8.753,-4.386,-9.007,0.043,-2.374,14.0,-5.32,-1.26
,-15.489,6.415,-3.944,-9.6,1.235,-2.417,-54.32,-7.49,-10.71
,-12.192,2.027,-3.534,-9.361,3.259,-2.757,-69.93,-5.81,-6.23
2574.0,-9.028,3.195,-2.809,-9.234,-2.766,-2.764,47.53,-3.64,-4.13
,-9.093,1.0,-2.711,-9.361,-2.544,-2.721,16.45,-4.48,-5.39
,-8.926,-1.302,-2.601,-9.421,-1.797,-2.852,-8.82,-5.11,-7.28
,-9.024,-2.345,-2.728,-9.55,-0.864,-2.946,-22.82,-5.11,-8.54
2650.0,-9.703,0.11,-2.888,-9.574,1.189,-2.527,-5.04,-1.68,0.77
,-9.655,0.605,-2.632,-9.442,1.091,-2.565,-2.66,-0.91,1.82
,-9.581,1.01,-2.51,-9.641,0.613,-2.582,-2.03,-0.49,2.31
,-9.569,1.067,-2.541,-9.856,0.089,-2.709,-1.68,-0.21,1.82
2726.0,-10.103,-0.215,-2.79,-10.325,-0.613,-2.383,-4.13,1.4,0.49
,-10.024,-0.302,-2.594,-10.526,-0.871,-2.072,-1.61,2.24,1.05
,-9.708,-0.294,-2.57,-10.342,-1.077,-1.646,-0.49,3.08,1.61
,-9.94,-0.38,-2.472,-10.096,-1.766,-1.259,0.56,3.57,2.1
2801.0,-10.27,-2.345,-1.12,-9.368,-3.049,-3.116,-6.65,4.9,7.14
,-10.153,-1.878,-1.34,-8.693,-3.436,-3.745,-2.03,6.51,8.96
,-10.17,-1.584,-2.127,-8.478,-3.302,-4.604,-2.17,8.26,9.45
,-10.177,-1.814,-2.522,-8.538,-2.943,-5.03,-5.46,10.92,8.89
2877.0,-8.926,-3.051,-5.451,-8.576,-6.726,-5.248,31.15,22.68,10.85
,-9.119,-4.573,-5.922,-8.72,-4.941,-4.937,42.84,23.8,3.36
,-8.277,-6.234,-6.064,-8.873,-3.841,-4.506,54.6,24.5,-3.64
,-8.174,-7.327,-5.621,-9.019,-3.606,-4.166,74.83,24.15,-6.37
2952.0,-8.933,-3.977,-3.955,-9.842,-3.35,-4.903,110.74,14.77,-26.53
,-8.815,-4.501,-3.977,-9.899,-2.778,-5.059,107.24,15.33,-30.52
,-9.036,-4.64,-4.202,-9.639,-2.984,-4.779,111.02,16.38,-33.25
,-9.502,-4.271,-4.611,-9.675,-3.525,-4.424,118.09,16.45,-36.19
3028.0,-10.318,-4.171,-3.812,-10.603,-1.766,-4.121,123.83,-1.19,-49.42
,-9.974,-3.211,-3.18,-10.845,-1.479,-3.967,122.64,-9.87,-50.89
,-9.06,-1.898,-3.838,-10.34,-0.517,-3.774,117.88,-14.14,-51.8
,-9.567,-1.795,-4.281,-9.777,-0.469,-3.759,109.76,-13.23,-51.87
3104.0,-9.641,-1.383,-3.857,-9.95,-1.893,-3.223,68.39,-25.41,-61.95
,-9.653,-2.328,-3.735,-10.158,-0.732,-3.338,65.31,-25.76,-61.95
,-9.641,-2.941,-3.561,-10.062,-0.457,-3.178,70.56,-26.04,-61.11
,-9.828,-2.8,-3.62,-9.636,-0.175,-2.737,79.73,-26.39,-59.92
3180.0,-9.45,0.28,-2.307,-8.315,-0.345,-1.986,63.0,-40.53,-62.23
,-9.189,-0.235,-2.369,-8.251,-0.06,-1.881,43.96,-42.77,-62.86
,-8.696,-0.854,-2.161,-8.334,0.017,-1.871,27.02,-43.05,-62.65
,-8.402,-0.895,-1.783,-8.342,-0.622,-1.448,17.5,-42.0,-60.97
3255.0,-8.124,-1.357,-1.28,-7.889,-2.886,-0.443,-41.86,-35.91,-57.75
,-8.153,-1.618,-0.577,-7.801,-2.702,-0.412,-48.3,-33.11,-54.81
,-8.267,-1.536,-1.187,-7.7,-2.075,-0.235,-54.11,-31.22,-53.13
,-8.009,-2.089,-0.78,-7.743,-1.369,-0.031,-60.55,-28.14,-50.96
3331.0,-7.784,-0.761,-0.036,-6.959,-2.809,-1.653,-52.5,-5.95,-27.09
,-7.629,-0.227,-0.105,-7.289,-4.606,-2.056,-64.12,-1.54,-25.06
,-7.736,-0.646,-0.354,-7.521,-3.9,-2.974,-79.24,2.45,-24.08
,-7.418,-1.479,-0.811,-7.408,-3.563,-4.104,-91.28,7.91,-22.4
3406.0,-7.674,-4.637,-5.209,-9.404,-2.273,-3.972,-81.34,36.89,3.29
,-7.942,-6.887,-5.631,-9.261,-1.388,-3.613,-74.06,37.66,8.4
,-8.906,-7.396,-5.212,-9.395,-1.488,-3.47,-47.6,35.14,14.63
,-9.16,-5.482,-4.513,-9.519,-1.086,-3.582,-15.47,29.82,19.81
3482.0,-9.641,-0.936,-3.281,-10.036,-1.254,-3.075,-51.52,20.58,39.13
,-9.691,-0.926,-2.843,-10.388,-1.766,-4.637,-43.68,21.63,46.9
,-9.921,-0.349,-2.63,-11.644,-3.285,-5.822,-30.24,22.33,55.86
,-10.036,-0.546,-2.491,-12.644,-4.645,-5.946,-17.08,23.52,65.45
3558.0,-16.679,-10.203,-5.398,-5.102,-2.733,-3.472,3.08,5.25,59.15
,-16.896,-12.352,-5.741,-8.102,-7.909,-3.034,-21.49,-0.7,35.98
,-9.859,-0.187,-5.272,-9.636,-2.084,-3.101,-58.52,-1.19,31.22
,-4.798,5.324,-3.776,-10.584,3.692,-3.381,-135.24,-4.76,36.54
3634.0,-9.947,3.125,-3.513,-9.012,-4.264,-4.427,-9.03,-4.62,51.03
,-8.782,1.141,-4.104,-8.78,-3.862,-4.049,-23.8,-5.53,45.15
,-9.033,-0.328,-4.542,-8.811,-1.438,-3.654,-40.18,-8.68,39.83
,-9.115,-2.29,-4.757,-9.083,-0.34,-2.797,-59.99,-10.92,36.61
3710.0,-9.514,-0.179,-2.278,-9.237,-1.548,-3.106,-39.97,-10.5,32.76
,-9.277,0.029,-2.324,-9.256,-0.744,-3.273,-39.2,-9.59,31.71
,-9.177,-0.833,-2.477,-9.414,0.065,-3.386,-38.29,-8.12,31.36
,-9.222,-1.431,-2.778,-9.43,0.376,-3.565,-33.67,-6.58,30.66
3785.0,-9.404,0.256,-3.74,-8.933,-0.876,-4.14,-25.83,-2.52,25.41
,-9.354,-0.392,-4.001,-9.062,-1.196,-4.006,-21.14,-2.31,25.13
,-9.186,-0.598,-4.152,-9.103,-1.11,-3.927,-14.0,-1.96,24.92
,-9.478,-0.627,-4.288,-9.088,-0.443,-3.893,-10.08,-3.36,23.87
3861.0,-9.361,-0.019,-3.977,-9.27,-0.127,-3.525,-4.41,-5.95,22.47
,-9.493,-0.522,-4.051,-9.428,0.055,-3.439,-5.53,-6.3,21.77
,-9.143,-0.689,-3.874,-9.38,0.014,-3.305,-1.61,-6.16,21.7
,-9.024,-0.55,-3.731,-9.375,0.141,-3.113,3.99,-6.16,21.91
3937.0,-9.529,0.756,-3.214,-9.457,-0.392,-2.895,2.8,-6.44,16.31
,-9.227,0.548,-3.015,-8.978,-0.433,-2.876,-4.83,-7.0,14.84
,-9.222,-0.141,-2.714,-9.356,-0.383,-3.001,-9.66,-6.65,14.42
,-9.794,-0.29,-2.886,-9.385,-0.036,-3.089,-9.1,-6.65,13.37
4013.0,-9.39,0.01,-3.319,-9.505,0.347,-3.221,-1.47,-3.01,12.25
,-9.332,-0.455,-3.362,-9.43,0.646,-3.214,-1.19,-2.66,11.83
,-9.268,-0.225,-3.374,-9.538,0.392,-3.142,2.17,-2.52,11.9
,-9.423,0.089,-3.381,-9.452,-0.122,-2.994,4.97,-2.31,11.48
4088.0,-9.378,-0.426,-2.958,-9.378,-0.172,-2.831,3.85,-0.49,8.75
,-9.354,-0.706,-2.91,-9.493,0.122,-2.781,7.07,0.07,9.38
,-9.383,-0.553,-2.848,-9.572,0.402,-2.965,10.36,0.77,9.73
,-9.342,-0.266,-2.881,-9.442,0.483,-3.049,11.76,1.47,10.01
4164.0,-9.519,0.974,-3.247,-9.177,-0.098,-2.781,14.98,3.5,9.17
,-9.375,1.302,-3.271,-8.928,-0.385,-2.745,9.52,2.1,8.4
,-9.447,1.07,-3.039,-9.725,-0.115,-2.668,3.43,1.68,7.84
,-9.44,0.579,-2.96,-10.261,1.776,-2.501,-0.49,1.61,7.21
4239.0,-9.933,2.446,-2.261,-9.055,-0.457,-4.118,-33.53,2.38,-0.7
,-9.646,0.651,-2.185,-9.014,-0.371,-4.58,-41.72,4.27,-2.66
,-9.45,0.404,-2.771,-8.94,-0.699,-4.826,-34.51,4.83,-2.1
,-9.203,0.211,-3.57,-9.079,-1.407,-5.016,-25.62,5.18,-0.98
4315.0,-9.057,-1.378,-5.02,-8.918,-2.273,-3.69,-18.27,0.84,-3.99
,-8.969,-1.101,-4.795,-9.39,-0.603,-3.257,-13.51,0.07,-2.73
,-8.667,-1.57,-4.57,-9.567,1.405,-3.056,-8.75,0.42,0.07
,-8.536,-2.587,-4.03,-9.787,1.914,-2.627,1.75,1.33,4.69
4391.0,-9.318,0.246,-2.266,-9.677,1.589,-2.714,13.44,2.73,7.42
,-8.851,-2.139,-1.797,-9.512,1.725,-2.809,7.63,4.62,8.05
,-9.292,-1.721,-2.091,-9.481,0.888,-3.082,18.55,5.6,9.66
,-9.883,0.019,-2.647,-9.349,0.675,-3.321,27.72,6.65,9.03
4467.0,-9.359,0.558,-3.613,-9.385,1.515,-3.92,-16.17,5.04,-2.38
,-9.466,0.648,-3.912,-9.562,1.555,-3.692,-16.38,4.55,-3.43
,-9.562,0.591,-4.156,-9.569,1.103,-3.422,-14.7,3.99,-4.76
,-9.344,1.189,-4.013,-9.464,0.39,-3.19,-13.51,3.01,-5.95
4542.0,-9.366,-0.201,-2.967,-9.268,0.172,-2.979,-17.22,1.89,-9.38
,-9.49,-0.079,-2.852,-9.217,-0.302,-3.118,-8.05,2.73,-8.75
,-9.536,0.558,-2.883,-9.174,-0.67,-3.273,-1.82,3.5,-8.75
,-9.399,0.591,-2.9,-9.182,-0.699,-3.388,-0.7,4.41,-8.89
4618.0,-9.294,-0.38,-3.47,-9.249,-0.153,-3.307,15.75,7.42,-6.16
,-9.244,0.175,-3.51,-9.179,-0.208,-3.254,15.96,7.35,-6.37
,-9.337,0.302,-3.362,-9.258,-0.024,-3.396,12.39,7.21,-6.72
,-9.325,0.144,-3.29,-9.371,0.124,-3.431,9.66,7.21,-7.28
4694.0,-9.306,0.199,-3.482,-9.349,-0.239,-3.704,3.78,7.56,-9.52
,-9.208,0.177,-3.515,-9.253,0.022,-3.668,1.47,7.63,-10.15
,-9.162,-0.309,-3.601,-9.232,0.414,-3.766,-1.19,7.49,-10.64
,-9.227,-0.459,-3.58,-9.38,0.505,-3.802,-0.84,7.49,-10.71
4770.0,-9.292,0.443,-3.841,-9.33,-0.361,-3.491,-4.2,6.44,-14.49
,-9.249,0.141,-3.92,-9.363,0.002,-3.386,-3.57,6.23,-15.12
,-9.33,-0.292,-3.831,-9.433,0.333,-3.58,-0.77,6.44,-15.19
,-9.227,-0.519,-3.632,-9.124,0.105,-3.664,4.41,6.86,-15.12
4846.0,-8.954,-0.294,-3.723,-9.311,-0.129,-3.649,9.8,7.07,-17.57
,-9.21,-0.558,-3.879,-9.277,-0.022,-3.668,12.95,7.35,-17.78
,-9.265,-0.692,-3.764,-9.091,0.014,-3.589,16.31,7.77,-18.06
,-9.239,-0.421,-3.683,-9.083,-0.483,-3.687,19.04,7.98,-18.27
4921.0,-9.33,-0.792,-3.611,-9.289,0.692,-3.35,17.99,8.4,-22.89
,-9.301,-0.467,-3.53,-9.186,0.06,-3.398,20.44,8.68,-23.38
,-9.332,-0.069,-3.396,-9.122,-0.479,-3.556,23.52,8.82,-23.66
,-9.45,0.562,-3.283,-9.045,-0.773,-3.733,24.22,8.75,-25.27
4997.0,-8.918,-1.019,-3.731,-9.153,-0.715,-3.422,25.55,10.92,-31.36
,-9.002,-1.043,-3.692,-9.093,-1.01,-3.575,27.93,11.2,-32.13
,-8.933,-0.888,-3.611,-9.012,-1.115,-3.687,28.77,11.69,-33.46
,-8.947,-0.766,-3.472,-9.031,-1.139,-3.867,27.72,11.97,-35.07
5072.0,-9.141,-1.204,-3.807,-9.586,-1.027,-3.58,30.24,13.37,-41.37
,-9.32,-1.182,-3.635,-9.445,-1.933,-3.8,32.83,13.58,-42.49
,-9.423,-0.816,-3.46,-9.521,-2.513,-4.011,33.6,13.51,-43.54
,-9.627,-0.759,-3.477,-9.485,-2.876,-4.238,31.01,13.02,-44.87
5148.0,-9.722,-3.161,-4.243,-11.074,-2.948,-4.274,31.57,12.95,-45.71
,-9.811,-3.273,-4.092,-10.569,-3.74,-4.657,36.33,12.95,-45.15
,-9.986,-2.828,-4.192,-11.098,-3.142,-4.803,39.2,12.39,-45.36
,-10.62,-2.455,-4.183,-11.211,-2.726,-4.762,39.83,11.69,-46.76
5224.0,-10.749,-2.56,-4.654,-9.359,-2.635,-4.03,45.01,7.91,-40.11
,-10.165,-2.63,-4.41,-9.284,-2.548,-4.039,41.72,6.79,-39.06
,-9.749,-2.795,-4.212,-8.916,-2.393,-3.977,38.5,5.46,-37.52
,-9.574,-2.73,-4.216,-8.449,-2.472,-3.893,36.47,4.48,-34.44
5300.0,-8.023,-2.812,-3.872,-7.806,-2.419,-4.121,44.8,-0.63,-12.11
,-7.885,-2.759,-4.015,-7.7,-2.395,-4.106,49.84,-1.61,-7.14
,-7.901,-2.601,-4.171,-7.296,-1.953,-4.085,53.83,-2.94,-1.75
,-7.861,-2.465,-4.154,-6.808,-1.711,-4.267,57.61,-3.99,4.41
5375.0,-6.43,-2.113,-4.116,-8.105,0.132,-3.285,81.62,-3.78,41.37
,-6.686,-2.039,-4.259,-7.961,3.199,-3.479,89.74,-0.21,50.4
,-7.21,-3.077,-5.13,-7.71,4.049,-3.484,97.72,6.58,57.12
,-7.7,-2.934,-3.893,-7.753,2.316,-3.343,116.55,12.04,62.09
5451.0,-7.765,-0.562,-2.912,-8.571,-2.264,-2.977,-3.71,8.4,59.5
,-7.782,-2.532,-2.51,-8.641,-1.5,-3.111,-15.61,10.92,63.35
,-8.04,-3.168,-2.448,-8.689,-0.428,-3.352,-11.76,12.67,66.5
,-8.497,-2.84,-2.74,-8.909,0.536,-3.644,-4.76,13.09,67.62
5526.0,-9.265,1.278,-3.802,-8.332,-6.487,-4.145,-26.74,15.26,54.04
,-9.713,1.653,-3.743,-8.354,-6.892,-3.458,-48.72,12.46,47.74
,-9.689,0.421,-4.212,-8.93,-4.843,-3.163,-82.67,7.77,42.77
,-8.212,-3.841,-4.733,-9.533,-1.33,-3.597,-117.95,9.8,46.06
5602.0,-9.742,1.192,-3.86,-9.899,-0.699,-4.257,-32.97,7.91,58.03
,-9.739,2.072,-3.975,-9.746,-1.311,-4.748,-54.46,7.35,45.29
,-10.048,1.522,-3.551,-9.964,-1.606,-4.769,-84.98,6.51,34.79
,-9.763,0.481,-3.8,-10.093,-1.701,-4.776,-114.94,4.69,29.4
5678.0,-10.089,-1.953,-5.023,-9.785,-3.415,-5.255,-172.27,-5.6,25.97
,-10.28,-2.458,-5.126,-9.596,-3.029,-5.382,-172.76,-5.88,23.24
,-10.074,-3.159,-5.118,-9.395,-2.654,-5.513,-168.63,-7.21,21.49
,-9.904,-3.62,-4.917,-9.246,-2.699,-5.556,-158.06,-8.61,21.42
5754.0,-9.325,-3.065,-5.312,-9.088,-5.106,-4.611,-111.58,-28.07,22.61
,-9.284,-3.553,-5.336,-9.069,-5.152,-4.532,-103.95,-33.53,20.93
,-9.083,-4.08,-5.233,-8.815,-5.027,-4.099,-92.82,-37.87,19.74
,-8.959,-4.736,-5.023,-8.332,-5.264,-3.398,-77.21,-40.39,19.81
5830.0,-7.956,-6.454,-5.355,-6.619,-6.372,-4.463,30.38,-37.45,28.63
,-5.949,-13.491,-6.138,-5.674,4.228,-5.745,30.73,-27.51,21.28
,-7.554,-25.073,-3.671,-9.825,11.194,-4.996,82.53,-2.8,9.52
,-8.784,-19.261,-3.74,-12.338,12.529,-3.599,168.0,15.4,-1.4
5905.0,-12.804,7.27,-2.434,-11.572,1.189,-2.379,-94.78,-16.17,-20.72
,-10.383,2.28,-2.558,-9.098,3.005,-1.991,-126.49,-16.73,-24.15
,-11.713,-0.893,-2.816,-8.945,3.259,-2.218,-79.87,-10.57,-11.9
,-12.915,-0.258,-2.826,-9.296,1.764,-2.182,-4.76,-5.46,2.38
5981.0,-9.289,0.105,-2.446,-9.213,-2.517,-2.812,10.36,-4.83,-4.27
,-9.222,-2.111,-2.539,-9.201,-1.78,-2.812,-19.95,-5.32,-6.86
,-9.215,-3.506,-2.565,-9.366,-1.01,-2.663,-32.9,-4.9,-8.75
,-9.182,-3.233,-2.589,-9.639,-0.211,-2.551,-31.85,-3.78,-7.49
6057.0,-10.105,0.388,-2.28,-9.844,0.637,-1.785,8.26,3.15,6.02
,-10.211,0.771,-2.137,-9.99,0.694,-1.809,14.0,5.11,6.86
,-9.964,0.794,-1.981,-9.904,1.024,-1.472,16.31,6.86,7.07
,-9.847,0.66,-1.843,-9.249,0.981,-1.505,15.61,8.19,6.79
6133.0,-9.131,-0.191,-2.027,-8.727,-2.759,-3.994,-37.38,3.5,-0.21
,-9.294,-2.201,-2.86,-8.622,-2.292,-4.408,-35.98,8.61,2.03
,-9.622,-3.721,-3.343,-9.423,-2.541,-4.511,-23.38,13.16,5.39
,-9.67,-3.798,-3.412,-9.868,-3.41,-4.726,-6.79,13.02,8.47
6208.0,-9.213,-4.391,-4.86,-9.031,-3.934,-4.161,51.94,21.84,9.03
,-8.851,-5.047,-4.829,-9.325,-3.151,-3.81,63.49,22.75,6.51
,-8.93,-5.544,-4.726,-9.507,-2.493,-4.271,77.14,24.01,6.09
,-9.194,-4.908,-4.456,-9.215,-2.852,-4.618,91.28,23.45,4.06
6284.0,-9.057,-4.056,-4.752,-9.514,-4.515,-4.872,59.08,24.71,-26.88
,-9.155,-4.872,-4.623,-9.629,-3.795,-4.972,54.67,24.01,-29.75
,-9.124,-5.264,-4.853,-9.521,-3.577,-4.937,57.19,23.45,-32.48
,-9.072,-5.09,-5.023,-9.33,-3.807,-4.391,63.7,23.66,-35.7
6359.0,-9.17,-4.202,-4.238,-10.105,-3.345,-4.793,77.21,15.05,-51.73
,-9.593,-3.917,-4.197,-9.969,-3.422,-4.64,82.81,12.88,-53.34
,-9.809,-3.86,-4.499,-10.321,-2.989,-4.448,88.34,10.64,-55.65
,-10.091,-3.601,-4.678,-10.199,-2.362,-4.513,92.89,8.54,-58.17
6435.0,-9.943,-2.446,-4.558,-9.926,-1.996,-3.903,104.51,-7.84,-65.03
,-10.048,-2.582,-4.362,-9.842,-1.941,-4.113,103.11,-10.15,-64.75
,-10.036,-2.467,-4.145,-9.572,-1.11,-3.723,104.86,-13.93,-63.63
,-9.99,-1.926,-3.881,-9.438,-0.292,-3.393,107.59,-19.39,-63.0
6511.0,-9.505,-0.069,-3.594,-8.772,-0.838,-2.481,71.89,-44.17,-65.87
,-9.457,-0.402,-3.451,-8.586,-0.572,-1.498,58.38,-45.78,-66.43
,-9.337,-0.586,-2.328,-8.591,-0.034,-1.754,50.82,-45.71,-64.61
,-9.079,-0.72,-2.436,-8.363,0.136,-1.85,42.7,-46.97,-63.28
6587.0,-8.117,-0.306,-1.902,-7.638,-0.634,-1.235,-10.08,-40.53,-58.87
,-7.753,-0.928,-1.697,-7.806,-0.447,-1.689,-21.07,-35.77,-56.7
,-7.626,-0.983,-1.61,-7.519,0.201,-1.345,-25.2,-30.52,-53.34
,-7.662,-0.565,-1.802,-7.155,0.646,-1.761,-30.87,-24.99,-50.26
6663.0,-6.533,-0.28,-1.823,-7.356,-1.96,-3.18,-84.14,2.59,-33.04
,-6.801,-1.845,-2.19,-7.741,-2.869,-3.542,-93.52,11.27,-28.49
,-7.078,-2.745,-2.381,-7.724,-4.07,-3.597,-88.69,18.34,-19.67
,-7.241,-2.022,-2.781,-7.846,-4.03,-4.006,-77.77,22.33,-9.38
6738.0,-7.849,-2.814,-4.47,-9.229,-2.895,-5.901,-10.43,27.79,25.13
,-7.892,-1.637,-4.975,-9.696,-3.831,-5.092,-7.77,28.07,29.26
,-7.999,-1.421,-5.726,-9.909,-3.807,-4.463,-17.5,27.37,33.53
,-8.593,-2.091,-5.963,-10.328,-2.072,-4.192,-26.46,25.55,37.87
6814.0,-10.634,-0.871,-3.821,-10.368,-0.756,-1.936,30.17,15.61,66.64
,-10.976,-1.395,-3.001,-10.297,-1.096,-1.969,32.27,15.47,71.47
,-11.029,-2.108,-2.204,-10.354,-2.02,-2.314,36.26,15.05,74.62
,-10.622,-1.388,-1.955,-10.258,-3.218,-3.022,40.53,14.63,75.67
6890.0,-10.275,-4.384,-3.922,-10.979,-3.374,-4.508,-46.9,4.55,45.43
,-11.038,-5.98,-4.616,-9.162,-1.467,-3.927,-62.65,0.07,36.96
,-12.087,-6.403,-4.992,-8.088,-0.806,-3.352,-75.81,-4.55,30.8
,-12.101,-5.506,-4.877,-8.203,-0.371,-3.154,-83.79,-7.14,28.42
6966.0,-8.954,0.593,-3.223,-9.5,-1.938,-3.613,-46.41,-7.0,39.06
,-9.371,1.086,-3.29,-9.308,-1.744,-3.881,-38.92,-7.21,39.76
,-9.301,-0.364,-3.278,-8.868,-1.546,-3.996,-39.48,-7.07,39.06
,-9.378,-1.639,-3.408,-8.954,-1.61,-4.097,-38.92,-7.07,37.52
7041.0,-9.337,-1.354,-4.267,-9.32,-0.541,-3.544,-46.69,-10.5,28.0
,-9.32,-0.864,-4.101,-9.454,-0.148,-3.276,-42.56,-10.85,27.72
,-9.225,-0.318,-4.042,-9.495,0.29,-3.183,-38.99,-11.83,27.58
,-9.06,-0.519,-3.869,-9.485,0.124,-2.831,-36.12,-12.53,27.72
7117.0,-9.249,-0.349,-2.52,-9.538,-0.297,-2.864,-49.42,-13.93,19.53
,-9.359,-0.766,-2.57,-9.256,-0.534,-3.025,-47.95,-13.02,18.83
,-9.462,-0.505,-2.627,-9.38,-1.33,-3.13,-42.84,-11.97,17.99
,-9.347,-0.357,-2.714,-9.265,-1.345,-3.448,-38.36,-10.36,17.64
7193.0,-9.237,-1.199,-3.841,-9.361,-0.383,-4.238,-13.16,-5.53,18.13
,-9.203,-0.866,-4.233,-9.241,-0.483,-3.752,-9.73,-5.46,17.85
,-9.22,-1.06,-4.525,-9.471,-0.098,-3.168,-6.72,-5.18,17.57
,-9.294,-0.632,-4.535,-9.433,0.787,-2.63,-0.28,-5.18,17.71
7269.0,-9.325,0.878,-2.218,-9.404,-0.136,-2.111,-6.37,-10.15,13.79
,-9.627,0.644,-2.046,-9.749,0.101,-2.285,-15.47,-10.43,12.39
,-9.581,0.431,-2.084,-9.701,0.108,-2.539,-21.49,-9.94,11.06
,-9.438,-0.034,-2.082,-9.229,-0.034,-2.888,-24.01,-8.75,10.22
7344.0,-9.256,-0.45,-3.135,-9.289,-0.797,-3.01,-19.53,-3.15,8.26
,-9.105,-1.314,-3.35,-9.538,-0.136,-2.881,-17.5,-2.24,8.96
,-9.275,-1.541,-3.391,-9.564,0.077,-2.781,-11.27,-1.75,10.15
,-9.366,-1.34,-3.281,-9.469,0.16,-2.869,-4.41,-0.84,10.78
7420.0,-9.361,-0.034,-3.139,-9.347,-0.215,-3.264,0.63,-0.07,10.92
,-9.165,-0.486,-3.221,-9.476,0.335,-3.214,2.31,0.14,11.55
,-9.268,-0.658,-3.269,-9.675,1.031,-3.412,4.83,0.7,12.18
,-9.433,-0.412,-3.319,-9.787,0.287,-3.156,6.93,0.91,12.25
7495.0,-8.861,-0.818,-3.546,-10.256,-0.665,-3.037,6.09,-1.05,5.04
,-7.877,-0.16,-3.156,-10.62,-1.474,-3.281,13.65,-0.91,5.18
,-10.323,3.204,-2.924,-9.213,-0.302,-3.415,16.03,-1.68,11.9
,-10.261,3.238,-3.221,-8.035,-0.196,-3.384,-1.68,-0.56,13.72
7571.0,-8.976,-0.692,-3.384,-9.536,1.096,-2.953,0.63,1.05,6.72
,-9.619,-0.723,-3.044,-9.201,0.196,-3.025,1.68,1.26,7.56
,-9.742,0.05,-2.874,-8.973,-1.402,-3.034,8.61,2.1,7.7
,-9.756,0.73,-2.766,-9.27,-1.625,-3.13,14.91,3.15,6.79
7647.0,-9.655,0.096,-3.206,-9.162,-1.663,-2.986,37.87,5.6,10.01
,-9.49,1.529,-3.281,-9.598,-1.563,-3.101,30.87,4.83,8.47
,-9.418,1.476,-3.187,-9.787,-0.043,-3.372,15.4,4.27,7.07
,-9.191,-0.12,-3.139,-9.624,1.132,-3.36,2.87,4.2,6.65
7723.0,-9.663,0.926,-3.369,-9.368,1.388,-3.57,24.36,5.39,7.84
,-9.734,0.474,-3.482,-9.5,1.828,-3.522,15.33,4.06,6.09
,-9.598,0.227,-3.506,-9.409,1.639,-3.178,12.18,2.8,5.11
,-9.143,0.562,-3.558,-9.423,1.235,-2.804,12.88,1.89,4.48
7799.0,-9.655,0.95,-2.623,-9.385,0.081,-2.716,-5.6,0.0,-4.62
,-9.694,1.055,-2.553,-9.316,-0.371,-2.804,-5.04,0.0,-5.95
,-9.507,0.945,-2.534,-9.351,-0.675,-2.907,-4.34,0.28,-6.58
,-9.447,0.656,-2.627,-9.414,-0.359,-2.86,-3.36,1.12,-6.93
7874.0,-9.347,0.213,-2.85,-9.287,0.266,-2.895,8.61,3.22,-6.02
,-9.378,0.361,-2.867,-9.304,0.206,-2.888,5.95,3.57,-6.44
,-9.335,0.237,-2.793,-9.435,0.304,-2.857,3.85,4.2,-6.72
,-9.342,0.22,-2.843,-9.507,0.526,-2.934,4.06,4.83,-6.93
7950.0,-9.323,0.39,-2.824,-9.45,0.347,-2.915,1.54,6.86,-8.54
,-9.299,0.158,-2.778,-9.426,0.562,-3.254,-1.47,7.21,-9.1
,-9.375,0.129,-2.745,-9.414,0.467,-3.506,-2.73,7.49,-9.73
,-9.442,0.352,-2.795,-9.356,0.419,-3.821,-3.22,8.05,-10.5
8026.0,-9.323,0.129,-4.001,-9.366,-0.187,-3.723,-5.46,8.19,-13.58
,-9.213,-0.558,-4.049,-9.416,0.086,-3.522,-3.85,7.91,-13.44
,-9.143,-0.72,-4.02,-9.39,0.172,-3.319,1.12,7.49,-13.02
,-9.273,-0.548,-3.922,-9.351,0.065,-3.173,5.67,7.07,-13.02
8102.0,-9.45,-0.127,-3.374,-9.378,-0.376,-3.187,12.74,7.21,-14.84
,-9.299,-0.144,-3.391,-9.433,0.005,-3.144,16.1,7.56,-15.05
,-9.165,-0.165,-3.367,-9.371,0.23,-3.228,17.85,7.98,-15.12
,-9.347,-0.297,-3.305,-9.258,-0.117,-3.357,17.5,8.05,-15.75
8177.0,-9.131,-0.883,-3.345,-9.474,0.613,-3.173,11.97,8.47,-18.97
,-9.139,-0.988,-3.262,-9.44,0.294,-3.13,17.08,9.31,-18.83
,-9.28,-0.373,-3.221,-9.318,-0.139,-3.319,22.4,9.52,-19.39
,-9.435,0.426,-3.139,-9.086,-0.749,-3.422,21.77,9.59,-21.07
8253.0,-9.129,-1.027,-3.453,-9.165,0.043,-3.412,12.46,10.22,-27.44
,-9.332,-0.785,-3.51,-9.258,-0.282,-3.417,16.45,10.36,-28.49
,-9.435,-0.239,-3.46,-9.172,-0.416,-3.525,16.87,10.22,-30.03
,-9.237,0.05,-3.443,-9.107,-0.656,-3.709,13.37,9.66,-31.5
8328.0,-9.115,-0.857,-3.685,-9.464,-0.538,-2.747,17.64,10.85,-37.24
,-9.158,-1.029,-3.506,-9.275,-0.517,-2.795,21.21,11.34,-38.36
,-9.043,-1.089,-3.247,-9.244,-0.94,-3.154,23.52,11.62,-39.27
,-9.244,-0.993,-2.891,-9.098,-1.302,-3.549,26.74,12.6,-40.04
8404.0,-9.134,-1.721,-3.795,-9.825,-1.996,-4.173,27.58,14.77,-46.13
,-9.39,-1.838,-3.924,-9.852,-2.503,-4.484,31.5,14.28,-47.18
,-9.478,-1.723,-3.951,-9.94,-3.192,-4.803,33.74,13.93,-47.81
,-9.569,-1.575,-3.97,-10.306,-3.563,-4.867,33.46,13.72,-48.16
8480.0,-10.586,-3.465,-4.728,-10.833,-2.324,-4.547,46.2,10.85,-45.15
,-10.816,-3.597,-4.47,-10.713,-2.673,-4.436,50.47,10.22,-44.45
,-10.859,-3.051,-4.223,-10.342,-3.369,-4.424,52.01,9.52,-45.29
,-10.787,-2.934,-4.408,-9.868,-2.994,-4.403,49.21,6.86,-47.6
8556.0,-9.907,-2.398,-4.231,-8.837,-1.716,-3.625,30.52,-2.8,-48.51
,-9.521,-2.216,-4.271,-8.631,-1.862,-3.486,27.16,-3.78,-45.71
,-9.462,-2.127,-4.125,-8.571,-1.869,-3.429,25.2,-5.04,-41.72
,-9.143,-1.986,-3.9,-8.418,-1.417,-3.434,25.34,-6.79,-37.66
8632.0,-8.064,-1.094,-3.403,-7.471,-2.077,-3.266,30.31,-11.55,-13.72
,-7.995,-1.228,-3.331,-7.016,-2.649,-3.34,28.21,-12.25,-7.63
,-8.026,-1.345,-3.24,-7.143,-2.91,-3.58,26.88,-13.02,-1.68
,-7.82,-1.536,-3.257,-6.975,-2.96,-3.884,27.3,-12.88,5.95
8707.0,-7.447,-3.317,-4.125,-8.133,3.362,-2.477,64.05,6.3,48.93
,-7.437,-2.761,-3.508,-8.244,3.063,-2.946,76.51,13.23,55.65
,-7.71,-0.759,-2.678,-8.358,1.436,-3.166,89.67,16.8,63.63
,-7.937,1.694,-1.953,-8.299,-0.945,-2.905,90.93,17.71,68.32
8783.0,-8.373,-2.678,-2.917,-8.938,-1.364,-3.132,-40.04,13.44,68.81
,-8.464,-3.147,-2.979,-9.107,0.278,-3.518,-32.62,14.77,71.61
,-8.643,-2.919,-3.242,-9.387,1.486,-3.924,-22.19,15.33,72.87
,-8.665,-2.276,-3.352,-9.77,1.804,-4.116,-14.91,15.47,73.5
8859.0,-9.268,-0.883,-4.75,-9.622,-1.304,-3.599,-88.27,5.6,59.29
,-8.863,-4.274,-4.137,-9.753,0.201,-3.944,-108.43,7.84,64.12
,-9.112,-5.185,-3.302,-10.132,0.859,-3.929,-98.42,7.98,71.82
,-9.139,-3.795,-3.321,-9.727,0.754,-4.226,-77.35,4.27,73.22
8935.0,-9.663,-0.498,-4.346,-9.466,-3.285,-5.482,-137.55,-4.9,35.98
,-9.727,-1.785,-4.58,-9.411,-4.221,-5.116,-155.47,-6.02,33.39
,-10.053,-2.355,-4.606,-9.265,-4.853,-5.109,-162.96,-8.4,31.64
,-9.911,-2.477,-5.056,-9.265,-4.712,-5.056,-166.53,-11.06,29.4
9010.0,-9.462,-3.867,-4.843,-9.143,-2.879,-5.343,-120.47,-9.45,28.21
,-9.435,-2.702,-5.248,-8.739,-4.231,-5.133,-107.45,-11.41,26.46
,-9.366,-1.948,-5.396,-8.437,-5.166,-5.293,-103.6,-12.53,23.66
,-9.397,-1.977,-5.296,-8.533,-5.832,-5.138,-105.49,-13.72,20.79
9086.0,-8.394,-5.753,-5.073,-8.361,-4.221,-3.776,-56.21,-27.51,20.44
,-8.133,-5.43,-4.587,-7.916,-4.925,-4.659,-33.25,-28.35,22.4
,-8.437,-4.96,-4.547,-8.275,-7.365,-4.113,-9.87,-28.84,24.71
,-8.433,-4.563,-4.223,-9.375,-9.655,-3.317,11.62,-28.42,26.11
9161.0,-10.364,-9.844,-3.719,-9.909,3.369,-4.937,130.41,-4.34,21.28
,-11.814,-9.296,-3.781,-10.213,4.159,-4.216,148.26,4.13,8.89
,-11.938,-5.384,-4.829,-10.354,3.125,-3.403,149.1,13.3,5.04
,-10.28,-0.232,-4.913,-9.792,0.584,-3.139,126.14,16.94,5.39
9237.0,-9.325,-1.46,-3.084,-9.426,4.858,-3.546,-34.02,-1.47,-14.91
,-8.897,-0.483,-3.319,-9.112,3.8,-3.317,3.78,0.0,-10.92
,-8.971,2.158,-3.623,-8.875,1.687,-2.898,33.25,-1.19,-4.62
,-9.387,4.164,-3.697,-8.82,-0.156,-2.582,41.86,-3.99,-0.35
9313.0,-9.014,-1.031,-2.618,-9.507,-1.938,-2.307,1.75,-7.63,-0.28
,-9.44,-1.347,-2.592,-9.45,-1.756,-2.405,6.02,-7.14,0.42
,-9.691,-1.481,-2.496,-9.643,-1.292,-2.254,7.7,-6.02,1.05
,-9.739,-1.649,-2.52,-9.861,-0.694,-2.07,6.09,-4.62,0.91
9389.0,-9.988,-0.287,-1.855,-10.06,-0.12,-2.008,7.0,2.1,3.85
,-10.002,-0.239,-1.847,-10.385,0.06,-2.132,4.97,4.06,3.85
,-10.057,-0.287,-1.699,-10.117,0.579,-2.254,4.69,6.02,4.27
,-10.096,-0.39,-1.766,-9.933,0.773,-2.19,6.16,7.42,4.2
9464.0,-9.481,-0.014,-2.41,-9.21,-2.003,-4.166,-23.38,7.07,2.8
,-9.497,-0.972,-2.857,-8.899,-2.659,-4.441,-26.6,8.68,2.8
,-9.631,-1.74,-3.056,-8.555,-2.52,-4.482,-24.85,10.85,2.8
,-9.275,-1.658,-3.513,-8.382,-2.304,-4.618,-22.4,11.69,2.38
9540.0,-8.567,-2.661,-4.752,-8.404,-4.487,-5.224,-2.87,15.54,-6.37
,-8.866,-2.881,-4.858,-8.516,-5.556,-5.128,0.42,16.8,-10.85
,-8.926,-3.041,-4.989,-8.782,-5.607,-5.071,1.47,17.01,-15.68
,-8.569,-3.477,-5.073,-8.871,-5.315,-5.296,0.7,17.92,-19.74
9616.0,-8.961,-4.719,-5.202,-9.311,-3.831,-5.109,52.99,24.36,-28.35
,-9.019,-4.264,-5.324,-9.533,-3.829,-5.178,62.09,23.94,-31.43
,-9.028,-4.027,-5.36,-9.66,-3.783,-5.231,67.48,23.52,-34.3
,-9.076,-3.75,-5.159,-9.844,-3.714,-5.075,72.38,23.1,-36.68
9692.0,-9.78,-3.558,-4.704,-10.036,-3.317,-4.353,86.8,9.1,-49.28
,-9.225,-3.912,-4.625,-10.096,-3.321,-4.195,89.18,7.35,-50.4
,-9.457,-3.888,-4.367,-10.081,-3.101,-4.216,94.71,6.37,-50.47
,-9.935,-3.472,-4.164,-10.096,-2.723,-3.917,103.04,4.13,-50.54
9768.0,-10.103,-2.565,-3.888,-9.983,-2.565,-3.829,120.12,-3.85,-51.73
,-10.067,-2.381,-3.783,-9.859,-2.324,-3.702,121.52,-5.6,-52.29
,-10.007,-2.534,-3.845,-9.959,-1.78,-3.369,120.89,-8.19,-52.5
,-9.88,-2.757,-3.781,-9.823,-1.4,-3.4,120.54,-10.15,-51.8
9843.0,-9.639,-0.888,-3.18,-8.897,-0.474,-2.745,118.16,-26.6,-53.27
,-9.356,-0.103,-2.587,-8.938,-0.56,-2.032,109.55,-29.12,-52.92
,-9.349,0.053,-2.649,-8.88,-0.677,-2.261,93.66,-32.41,-53.9
,-9.198,-0.369,-2.623,-8.471,-0.687,-2.57,73.92,-34.02,-54.18
9919.0,-8.205,-0.675,-2.513,-7.825,-0.122,-2.094,4.34,-33.88,-49.56
,-8.078,-0.077,-2.108,-7.468,-0.486,-1.754,-3.36,-32.34,-46.97
,-8.062,-0.366,-2.486,-7.227,-0.89,-1.491,-16.38,-31.71,-46.76
,-7.801,-0.27,-1.472,-7.05,-1.235,-1.582,-28.0,-29.4,-47.04
9994.0,-7.05,-1.61,-1.287,-7.449,-2.481,-2.079,-70.91,-1.4,-37.52
,-7.351,-1.508,-1.345,-7.619,-3.161,-2.434,-68.74,6.16,-30.94
,-7.463,-1.082,-1.594,-7.995,-2.984,-2.563,-70.42,12.95,-25.2
,-7.315,-1.352,-1.838,-8.715,-2.223,-2.831,-75.04,19.04,-19.88
10070.0,-8.591,-1.735,-2.922,-7.54,-1.287,-4.755,-28.77,24.92,18.76
,-8.26,-3.699,-2.903,-8.2,-1.297,-5.31,-25.97,24.29,21.49
,-7.533,-4.078,-3.391,-8.65,-2.309,-5.669,-15.19,25.62,24.22
,-7.6,-2.654,-4.111,-9.631,-3.625,-5.262,-10.01,28.21,29.33
10146.0,-10.333,-4.006,-4.779,-10.871,-0.414,-3.91,0.42,22.4,54.74
,-10.16,-2.793,-4.771,-10.364,-2.101,-2.965,25.27,19.95,59.78
,-10.534,-0.443,-5.365,-9.916,-1.826,-2.898,37.52,17.15,64.26
,-10.995,0.782,-4.975,-9.99,-1.85,-2.647,31.15,14.7,68.53
10222.0,-10.021,-2.156,-2.089,-12.991,-5.489,-2.752,15.05,6.23,63.7
,-10.084,-2.692,-1.977,-13.35,-4.7,-3.412,-2.8,6.02,59.43
,-10.593,-4.3,-1.689,-11.553,-3.092,-4.094,-20.37,5.67,53.62
,-11.462,-5.494,-1.969,-9.072,-1.816,-4.499,-32.9,3.71,46.9
10297.0,-7.583,-1.098,-4.7,-9.349,0.976,-4.891,-90.51,-4.13,30.1
,-7.595,-0.572,-4.893,-9.584,-0.902,-4.46,-81.69,-6.23,30.45
,-8.435,0.481,-4.992,-9.801,-2.919,-3.927,-66.99,-8.68,32.97
,-9.237,1.5,-5.018,-9.682,-3.123,-3.697,-55.3,-11.48,35.49
10373.0,-9.452,-1.984,-3.506,-9.117,-0.665,-3.333,-12.39,-11.69,36.33
,-9.076,-0.373,-3.525,-9.076,-1.338,-3.23,-15.33,-11.41,34.16
,-9.342,-0.177,-3.527,-9.325,-1.383,-3.18,-25.9,-11.83,32.27
,-9.344,-0.366,-3.403,-9.378,-0.5,-3.297,-32.41,-12.46,30.45
10448.0,-9.316,0.246,-3.379,-9.397,-1.043,-3.403,3.99,-9.94,29.26
,-9.371,0.232,-3.532,-9.485,-0.909,-3.345,-0.77,-10.43,27.23
,-9.249,-0.237,-3.64,-9.325,-0.986,-3.173,-7.42,-11.34,25.41
,-9.332,-0.852,-3.539,-9.313,-1.007,-2.984,-10.01,-11.41,24.08
10524.0,-9.409,-0.493,-2.893,-10.098,0.495,-2.127,11.55,-9.1,23.24
,-9.282,0.345,-2.647,-9.799,1.426,-1.943,10.85,-8.82,22.05
,-9.304,0.615,-2.575,-9.452,1.553,-2.015,3.71,-8.4,20.44
,-9.569,0.359,-2.367,-9.646,0.512,-1.768,-3.5,-8.33,18.13
10600.0,-9.615,0.436,-1.63,-9.433,-1.144,-2.051,-31.71,-10.08,6.86
,-9.402,-0.012,-1.938,-9.655,-0.737,-2.414,-36.89,-9.52,6.23
,-9.012,-0.495,-1.692,-9.603,-0.237,-2.804,-42.14,-8.26,6.86
,-9.086,-0.806,-1.855,-9.727,0.093,-3.039,-43.33,-6.65,7.91
10676.0,-9.536,0.708,-3.436,-9.512,-0.931,-3.4,-36.75,-4.2,6.58
,-9.418,0.409,-3.704,-9.464,-0.239,-3.132,-39.9,-4.76,6.3
,-9.371,-0.534,-3.697,-9.416,-0.199,-2.955,-40.32,-4.41,6.44
,-9.318,-1.235,-3.642,-9.423,-0.479,-2.876,-33.04,-3.5,6.65
10752.0,-9.435,-0.828,-2.826,-9.421,-1.424,-3.436,-21.7,-1.12,7.14
,-9.395,-0.919,-2.907,-9.392,-0.713,-3.661,-16.87,-0.14,7.84
,-9.457,-0.864,-3.185,-9.16,-0.538,-3.716,-10.92,0.63,8.75
,-9.201,-1.345,-3.427,-9.476,-0.909,-3.979,-5.11,2.03,9.94
10827.0,-9.749,-2.546,-2.57,-10.885,5.331,-2.4,21.91,8.19,14.56
,-8.811,-0.909,-4.506,-9.962,1.773,-1.567,42.49,3.57,10.5
,-6.671,-0.402,-4.216,-10.718,-1.749,-0.873,53.97,1.96,7.77
,-9.22,4.13,-2.905,-10.495,0.275,-1.414,47.11,-0.63,12.88
10903.0,-9.947,2.446,-1.706,-9.488,-0.96,-2.668,12.11,6.44,11.48
,-9.464,2.079,-1.866,-9.691,-0.577,-3.35,-2.52,7.63,7.0
,-9.229,1.129,-2.032,-9.505,0.462,-3.946,-13.3,7.91,4.27
,-9.306,-0.558,-2.142,-9.622,0.962,-4.417,-12.74,9.17,4.55
10979.0,-9.402,0.256,-4.396,-9.56,0.206,-3.206,17.78,7.91,3.01
,-8.765,-1.125,-4.08,-9.564,0.938,-3.056,9.38,6.58,2.73
,-9.033,-1.709,-3.687,-9.387,0.572,-3.094,7.84,5.32,3.99
,-9.445,-0.957,-3.415,-9.225,-0.179,-3.077,12.6,4.2,5.46
11055.0,-9.351,-0.39,-3.175,-9.481,1.089,-3.233,13.44,5.39,5.67
,-9.418,-0.086,-3.192,-9.32,0.498,-3.159,18.48,5.88,6.09
,-9.562,0.711,-3.159,-9.249,0.345,-3.3,20.58,6.09,5.53
,-9.548,1.354,-3.295,-9.311,0.701,-3.35,17.43,5.81,3.99
11130.0,-9.593,0.775,-3.295,-9.32,0.263,-2.807,4.83,3.15,-0.98
,-9.722,0.885,-3.077,-9.182,0.146,-2.886,2.31,2.52,-2.45
,-9.495,0.589,-2.821,-9.249,0.187,-2.982,0.07,2.38,-3.71
,-9.366,0.536,-2.747,-9.44,0.318,-2.895,-0.07,2.45,-4.34
11206.0,-9.459,0.337,-2.723,-9.483,1.218,-2.857,-1.12,4.55,-5.46
,-9.524,0.392,-2.613,-9.43,0.995,-2.912,-0.56,4.97,-6.02
,-9.495,0.859,-2.632,-9.438,0.794,-3.015,-0.84,5.04,-6.58
,-9.478,1.153,-2.773,-9.507,0.562,-3.108,-2.66,5.18,-7.07
11281.0,-9.576,0.11,-3.154,-9.268,-0.737,-3.439,-12.88,5.6,-11.06
,-9.165,0.093,-3.283,-9.342,-0.488,-3.484,-14.07,5.11,-11.69
,-9.139,-0.526,-3.35,-9.349,-0.17,-3.417,-14.35,5.25,-11.06
,-9.292,-0.883,-3.379,-9.407,0.074,-3.252,-11.69,5.67,-10.5
11357.0,-9.344,0.203,-3.276,-9.32,-0.038,-3.503,-5.6,6.65,-11.13
,-9.328,-0.012,-3.333,-9.33,0.148,-3.673,-5.6,6.93,-11.13
,-9.366,0.093,-3.355,-9.572,0.23,-3.764,-3.36,6.86,-10.99
,-9.378,0.136,-3.525,-9.361,0.28,-3.738,-1.33,7.0,-11.06
11433.0,-9.263,0.153,-3.587,-9.524,0.165,-3.12,5.11,6.51,-12.95
,-9.423,0.079,-3.458,-9.378,-0.268,-3.101,8.33,6.58,-13.09
,-9.38,0.074,-3.283,-9.203,-0.739,-3.101,10.08,6.58,-13.65
,-9.301,0.294,-3.185,-9.225,-0.622,-3.113,10.64,6.65,-14.35
11509.0,-9.313,-0.206,-3.218,-9.239,0.151,-3.185,9.31,7.84,-17.64
,-9.301,-0.39,-3.089,-9.428,0.361,-3.269,6.3,8.26,-18.27
,-9.251,-0.388,-3.106,-9.454,0.309,-3.496,5.6,8.54,-18.9
,-9.318,-0.129,-3.163,-9.239,-0.148,-3.738,5.67,9.03,-19.67
11585.0,-9.026,-0.766,-3.824,-9.464,0.105,-3.388,3.85,9.38,-24.29
,-9.098,-0.723,-3.898,-9.239,0.325,-3.36,9.45,9.52,-24.36
,-9.306,-0.227,-3.853,-9.292,0.031,-3.355,12.95,9.66,-24.92
,-9.373,0.031,-3.518,-9.174,-0.345,-3.561,12.25,9.52,-26.18
11660.0,-9.033,-0.715,-3.666,-9.186,-0.132,-2.946,7.63,9.38,-32.62
,-9.038,-0.931,-3.609,-9.146,-0.471,-2.907,13.23,10.5,-33.18
,-9.16,-0.818,-3.384,-9.141,-0.995,-2.972,18.97,11.34,-33.95
,-9.213,-0.412,-3.161,-9.112,-1.321,-3.247,22.54,11.55,-35.42
11736.0,-9.11,-1.395,-3.374,-9.222,-1.735,-3.259,29.4,15.61,-41.16
,-9.174,-0.909,-3.343,-9.447,-2.137,-3.486,33.74,16.03,-41.86
,-9.217,-0.713,-3.34,-9.6,-2.472,-3.795,33.25,16.38,-43.05
,-9.273,-1.275,-3.226,-9.835,-2.522,-4.092,31.08,17.01,-43.68
11812.0,-9.943,-2.627,-4.405,-10.703,-3.47,-3.903,44.38,18.41,-43.47
,-9.962,-2.85,-4.475,-10.778,-3.429,-3.965,44.24,17.85,-43.05
,-10.1,-3.051,-4.381,-10.534,-3.443,-4.058,43.96,16.94,-42.84
,-10.459,-3.307,-4.133,-10.347,-3.13,-4.171,43.47,15.89,-42.91
11888.0,-10.299,-3.147,-4.176,-10.225,-2.4,-4.757,32.06,12.46,-47.18
,-10.345,-3.357,-4.527,-9.737,-2.525,-4.539,31.43,11.13,-48.3
,-10.203,-2.989,-4.659,-9.531,-2.608,-4.453,32.62,9.17,-48.3
,-10.273,-2.424,-4.807,-9.15,-1.898,-4.322,31.5,7.14,-47.11
11963.0,-9.117,-1.173,-4.161,-8.26,-2.23,-2.879,30.17,-3.5,-31.92
,-8.89,-1.149,-3.821,-8.028,-2.302,-2.797,22.4,-5.6,-29.4
,-8.636,-1.467,-3.558,-7.911,-2.369,-2.69,15.54,-7.42,-26.53
,-8.445,-1.89,-3.202,-7.624,-2.398,-2.663,11.27,-8.54,-22.89
12039.0,-7.246,-1.993,-2.58,-7.272,-2.716,-3.984,25.69,-6.72,6.09
,-7.102,-1.718,-2.57,-7.818,-3.049,-4.544,29.26,-5.25,13.79
,-6.904,-1.639,-2.816,-7.303,-1.756,-4.537,32.55,-2.94,21.07
,-6.99,-1.881,-3.388,-7.499,-0.261,-4.59,36.4,0.35,28.0
12114.0,-7.602,1.512,-4.357,-8.366,-0.294,-3.448,66.71,13.93,60.69
,-7.602,2.556,-3.999,-8.402,-1.328,-3.52,53.41,11.97,60.9
,-7.657,2.324,-3.254,-8.485,-1.828,-3.805,32.13,9.66,58.66
,-8.184,1.237,-3.329,-8.741,-1.764,-3.685,8.4,7.84,56.98
12190.0,-8.792,-1.189,-4.094,-8.701,-0.452,-4.424,-31.08,9.52,66.22
,-8.397,-0.78,-4.087,-8.871,-0.828,-4.343,-38.15,8.12,64.96
,-8.461,-0.672,-4.185,-9.275,-1.553,-4.353,-47.88,6.37,64.12
,-8.717,-0.548,-4.25,-8.892,-3.197,-4.465,-59.29,2.8,62.02
12266.0,-8.703,-4.334,-4.482,-9.253,-1.251,-4.53,-99.05,-3.5,62.3
,-8.71,-4.563,-4.066,-9.538,-0.617,-5.111,-86.31,-3.71,65.31
,-8.964,-3.853,-4.283,-9.643,-0.723,-5.178,-70.21,-5.46,65.24
,-8.983,-2.673,-4.346,-9.89,-1.311,-5.19,-56.91,-7.42,61.95
12342.0,-10.081,-1.962,-5.169,-9.608,-3.195,-5.126,-92.33,-16.38,45.85
,-9.94,-2.479,-5.195,-9.73,-3.132,-4.807,-96.6,-18.9,45.15
,-9.847,-2.659,-5.243,-9.658,-2.915,-4.963,-97.58,-20.58,44.94
,-9.667,-3.034,-5.3,-9.265,-2.692,-4.826,-94.99,-20.02,45.29
12417.0,-8.942,-2.522,-5.085,-8.452,-3.936,-4.623,-59.29,-15.26,42.91
,-8.751,-2.651,-5.138,-8.287,-3.994,-4.702,-56.84,-14.42,42.35
,-8.753,-3.305,-5.114,-8.251,-4.032,-4.424,-52.99,-14.07,41.44
,-8.725,-3.747,-4.764,-8.229,-3.793,-4.092,-45.78,-15.26,40.18
12493.0,-8.069,-3.015,-3.74,-8.823,-9.507,-3.884,20.51,-15.47,31.29
,-8.272,-2.19,-3.451,-10.416,-11.33,-2.857,30.8,-15.61,30.59
,-8.66,-2.338,-3.996,-12.094,-11.247,-2.922,30.24,-17.5,27.51
,-8.885,-5.839,-4.207,-13.149,-8.995,-3.192,18.76,-20.09,20.58
12569.0,-12.362,-3.52,-3.034,-9.548,1.534,-1.57,113.75,5.81,-1.4
,-11.012,1.496,-3.101,-9.232,-1.46,-1.737,79.31,5.46,7.07
,-10.325,4.42,-2.807,-9.014,-1.553,-2.089,27.09,-2.31,4.76
,-9.978,4.683,-1.977,-9.11,0.684,-2.58,-30.17,-7.42,-5.32
12645.0,-9.557,2.824,-3.159,-8.787,0.742,-3.422,28.14,1.4,-2.45
,-9.543,4.046,-3.36,-9.04,-0.751,-3.573,27.51,-0.07,-0.49
,-9.031,4.238,-3.46,-9.282,-1.35,-3.616,14.35,-0.49,0.07
,-8.689,2.927,-3.34,-9.349,-1.491,-3.625,-2.59,-0.63,-0.21
12721.0,-9.404,-1.658,-3.47,-9.677,-0.613,-2.922,-0.35,-1.26,0.28
,-9.56,-1.962,-3.3,-9.876,-0.081,-2.852,0.77,-0.98,0.77
,-9.739,-1.9,-3.197,-10.086,-0.05,-2.699,3.92,-0.63,1.61
,-9.751,-1.388,-3.137,-10.237,-0.05,-2.608,7.35,-0.07,2.52
12796.0,-10.261,-0.057,-2.393,-9.701,-1.019,-2.118,3.57,3.08,4.06
,-9.976,0.153,-2.527,-9.61,-1.314,-2.297,1.4,2.17,3.57
,-9.928,-0.211,-2.233,-9.545,-1.541,-2.855,-1.54,1.75,3.43
,-9.584,-0.677,-2.149,-8.935,-1.965,-3.374,-0.91,2.94,4.06
12872.0,-8.82,-2.639,-4.128,-9.488,-1.575,-5.037,11.2,14.84,9.45
,-9.033,-2.958,-4.262,-8.459,-2.448,-5.274,19.53,17.71,11.06
,-9.17,-2.764,-4.41,-8.509,-3.41,-5.056,30.38,19.25,12.11
,-9.706,-2.044,-4.633,-8.713,-4.221,-4.913,39.27,20.44,10.43
12947.0,-8.734,-4.283,-4.896,-8.473,-4.623,-4.8,24.15,25.27,-17.01
,-8.591,-4.434,-4.862,-8.646,-4.886,-4.781,26.88,26.04,-21.0
,-8.727,-4.836,-4.719,-9.107,-4.783,-4.702,29.12,27.3,-25.55
,-8.667,-4.855,-4.731,-9.256,-4.027,-4.616,33.46,27.65,-30.1
13023.0,-9.311,-3.319,-4.795,-9.804,-4.652,-4.413,62.02,20.93,-44.52
,-9.318,-3.226,-4.542,-9.938,-3.855,-4.444,61.25,18.34,-47.67
,-9.395,-3.632,-4.432,-9.981,-3.259,-4.334,60.34,15.75,-50.19
,-9.485,-4.704,-4.535,-10.098,-2.871,-4.245,59.92,13.65,-51.52
13099.0,-9.957,-3.183,-4.269,-10.424,-1.933,-4.267,89.25,2.59,-54.46
,-9.988,-3.372,-4.168,-10.376,-1.642,-4.176,92.68,1.82,-54.6
,-10.115,-3.001,-4.137,-10.246,-1.541,-3.812,99.75,0.0,-55.02
,-10.294,-2.335,-4.106,-10.29,-1.938,-3.587,105.63,-2.94,-56.21
13175.0,-10.098,-2.113,-3.664,-9.694,-1.225,-2.848,96.04,-20.65,-54.95
,-9.497,-1.869,-3.898,-9.919,-0.581,-3.352,95.41,-25.97,-53.9
,-9.182,-1.577,-3.728,-9.584,-0.084,-2.972,97.65,-30.03,-52.64
,-9.359,-1.508,-3.159,-9.251,0.464,-2.62,100.94,-33.11,-51.31
13250.0,-8.811,0.749,-2.429,-8.579,-0.163,-1.553,63.28,-51.24,-48.02
,-8.725,0.584,-2.252,-8.074,0.412,-1.742,46.13,-51.59,-48.51
,-8.792,0.524,-1.646,-7.576,0.83,-1.649,33.53,-49.98,-46.62
,-8.737,0.208,-1.792,-7.633,0.505,-1.314,21.07,-48.51,-45.22
13326.0,-8.021,0.179,-0.909,-6.633,-1.273,-2.173,-48.93,-29.05,-37.8
,-7.854,1.101,-1.302,-6.384,-4.614,-2.565,-63.7,-24.71,-36.4
,-7.44,1.464,-1.357,-7.425,-6.633,-2.68,-82.46,-20.09,-35.91
,-7.167,0.775,-1.28,-7.241,-3.821,-3.611,-101.71,-14.49,-34.58
13402.0,-7.88,-2.134,-4.245,-8.547,-0.275,-3.257,-53.76,32.62,3.57
,-8.15,-3.841,-4.07,-8.196,-0.916,-3.187,-49.42,33.39,7.07
,-8.435,-3.812,-3.714,-8.234,-1.426,-3.305,-30.38,30.73,11.69
,-8.772,-1.098,-3.585,-8.263,-0.66,-4.19,-14.63,25.13,15.68
13478.0,-8.449,-0.634,-4.755,-9.643,-2.474,-4.939,-41.44,23.31,34.23
,-8.366,-2.017,-4.666,-10.055,-1.436,-4.822,-42.7,21.42,37.87
,-8.93,-3.616,-4.331,-10.27,-1.424,-4.714,-34.65,19.74,41.72
,-8.947,-3.527,-4.702,-10.459,-2.491,-4.451,-19.67,17.43,45.78
13554.0,-10.804,-3.924,-4.094,-12.134,-3.766,-2.883,-19.11,6.72,53.48
,-10.96,-3.896,-3.896,-13.781,-4.965,-2.465,-7.63,5.18,56.14
,-11.127,-2.692,-3.757,-13.896,-4.893,-2.304,2.73,3.85,57.54
,-11.194,-2.895,-3.297,-11.417,-2.458,-2.491,2.94,2.38,55.44
13629.0,-8.311,-0.177,-2.651,-8.693,0.01,-4.408,-61.88,1.47,37.24
,-7.37,-0.768,-2.864,-8.784,-0.266,-5.004,-69.3,1.12,34.72
,-8.181,-1.57,-3.388,-8.832,-1.082,-5.207,-60.83,0.7,34.09
,-8.66,-1.029,-3.975,-9.031,-1.091,-5.331,-45.01,0.0,36.89
13705.0,-9.189,-1.089,-5.039,-8.973,-1.496,-3.388,-29.54,-7.91,34.02
,-9.227,-0.9,-4.774,-9.718,-1.117,-3.106,-31.22,-9.94,32.48
,-9.189,-1.031,-4.429,-9.753,-0.364,-2.795,-32.06,-11.41,31.36
,-8.653,-1.266,-3.884,-9.399,0.139,-2.563,-32.76,-12.39,30.59
13780.0,-9.385,-0.258,-2.29,-9.454,0.285,-2.857,-26.25,-9.45,27.02
,-9.241,-0.115,-2.094,-9.261,-0.761,-3.211,-28.42,-8.96,26.04
,-9.576,-0.022,-2.067,-9.15,-1.625,-3.546,-27.93,-8.26,25.34
,-9.78,0.34,-2.345,-9.186,-1.706,-3.867,-28.91,-7.77,23.31
13856.0,-9.256,-1.149,-4.08,-9.323,-0.546,-4.386,-11.55,-4.48,21.63
,-9.17,-0.462,-4.173,-9.208,-0.57,-4.417,-9.31,-4.62,21.14
,-9.232,-0.357,-4.161,-9.165,-0.51,-4.508,-9.73,-4.83,20.72
,-9.368,-0.352,-4.245,-9.294,-0.744,-4.322,-7.91,-5.32,20.16
13932.0,-9.294,-0.352,-4.094,-9.6,0.294,-1.699,17.71,-7.56,20.86
,-9.476,0.687,-3.262,-9.488,0.28,-1.572,20.09,-8.12,20.37
,-9.466,1.163,-2.776,-9.751,0.756,-1.852,13.23,-9.1,17.64
,-9.634,1.141,-2.199,-9.548,0.531,-1.977,1.89,-9.52,14.49
14008.0,-8.842,-0.285,-2.091,-9.421,0.395,-3.125,-24.36,-7.84,10.29
,-9.543,-1.103,-2.101,-9.433,-0.12,-3.597,-20.79,-6.09,10.15
,-9.497,-0.414,-2.515,-9.344,-0.493,-3.905,-16.24,-4.69,9.87
,-9.593,0.122,-2.747,-9.378,-0.605,-3.975,-16.03,-3.36,9.24
14083.0,-9.442,-0.285,-3.953,-9.064,-1.218,-3.111,-0.28,-1.4,9.52
,-9.452,-0.22,-3.738,-9.129,-0.972,-3.015,2.66,-1.33,9.8
,-9.521,-0.754,-3.434,-9.215,-0.45,-2.941,3.64,-1.54,9.59
,-9.225,-1.132,-3.24,-9.392,-0.072,-2.836,6.51,-0.7,10.43
14159.0,-9.423,0.261,-2.666,-9.311,0.189,-2.659,14.7,2.31,14.0
,-9.45,0.263,-2.525,-9.251,0.208,-2.639,13.51,3.15,13.79
,-9.43,0.474,-2.486,-9.694,0.632,-2.735,14.07,4.27,13.79
,-9.514,0.682,-2.582,-9.639,0.759,-3.429,14.35,4.9,13.44
14234.0,-10.139,-0.201,-2.867,-9.823,0.055,-2.443,6.79,4.83,5.18
,-9.127,0.019,-2.704,-10.29,0.268,-2.979,5.46,3.29,3.29
,-9.548,3.333,-2.563,-9.574,1.661,-3.384,1.89,3.36,8.19
,-9.112,3.489,-2.338,-9.194,0.713,-3.144,-15.89,1.82,9.24
14310.0,-9.253,-0.751,-3.183,-9.411,-0.51,-3.51,-8.33,4.83,1.96
,-9.483,-0.651,-3.264,-9.485,-0.364,-3.637,-0.49,5.11,1.96
,-9.194,-0.124,-3.283,-8.966,-0.976,-3.594,2.31,5.25,2.24
,-9.316,-0.302,-3.384,-8.667,-1.144,-3.635,1.26,5.53,2.1
14386.0,-9.091,-0.225,-3.754,-9.416,0.227,-3.197,7.42,4.97,4.76
,-9.497,0.948,-3.671,-9.246,-0.239,-3.19,7.7,4.41,5.11
,-9.462,1.12,-3.491,-9.287,-0.206,-3.369,3.71,3.99,5.18
,-9.418,0.663,-3.25,-9.45,0.34,-3.587,1.89,3.85,4.83
14462.0,-9.414,0.091,-3.537,-9.593,1.819,-3.553,3.92,3.71,3.78
,-9.158,-0.598,-3.269,-9.359,1.015,-3.537,1.26,3.71,4.27
,-9.33,-0.371,-3.238,-9.323,0.27,-3.57,5.53,3.92,4.55
,-9.517,0.974,-3.35,-9.323,0.175,-3.661,8.54,3.29,3.64
14538.0,-9.299,0.598,-3.589,-9.375,0.077,-2.529,2.87,1.19,-0.63
,-9.418,1.07,-3.403,-9.344,0.127,-2.316,0.14,0.7,-1.96
,-9.435,0.981,-3.051,-9.495,0.529,-2.417,-7.28,0.14,-3.64
,-9.418,0.536,-2.747,-9.418,0.778,-2.503,-14.0,0.14,-4.55
14613.0,-9.474,0.558,-2.599,-9.438,0.512,-2.91,-0.84,5.25,-4.48
,-9.617,0.538,-2.618,-9.395,0.641,-3.065,0.77,6.09,-4.62
,-9.584,0.543,-2.723,-9.414,0.491,-3.211,2.24,6.93,-5.25
,-9.593,0.459,-2.783,-9.366,0.22,-3.235,3.71,8.26,-5.88
14689.0,-9.442,-0.041,-3.455,-9.074,-0.084,-3.582,6.58,9.66,-7.49
,-9.292,-0.012,-3.515,-9.143,-0.483,-3.498,8.61,10.08,-7.7
,-9.244,0.304,-3.666,-9.313,-0.227,-3.448,10.01,9.59,-8.12
,-9.143,0.342,-3.721,-9.39,0.354,-3.415,8.26,9.24,-8.54
14765.0,-9.404,0.804,-3.379,-9.203,-0.242,-3.609,8.68,9.1,-8.89
,-9.361,0.852,-3.422,-9.292,-0.352,-3.609,4.55,8.96,-10.08
,-9.246,0.426,-3.451,-9.258,-0.081,-3.609,1.4,8.75,-10.85
,-9.11,0.01,-3.484,-9.356,0.407,-3.618,1.82,9.03,-10.92
14841.0,-9.306,0.447,-3.635,-9.155,0.134,-3.79,7.42,9.31,-12.88
,-9.213,0.256,-3.678,-9.27,0.299,-3.68,4.76,8.82,-13.58
,-9.198,0.014,-3.845,-9.411,0.692,-3.338,4.2,8.47,-14.14
,-9.1,-0.05,-3.862,-9.38,0.83,-3.384,5.11,8.12,-14.84
14916.0,-9.206,0.337,-3.309,-9.237,-0.83,-3.597,-3.22,6.51,-19.88
,-9.11,-0.029,-3.312,-9.316,-0.12,-3.604,-3.43,6.65,-20.23
,-9.112,-0.433,-3.549,-9.265,0.352,-3.795,-3.64,6.79,-20.86
,-8.985,-0.871,-3.508,-9.277,0.069,-3.814,-2.17,7.63,-20.86
14992.0,-9.107,-0.17,-4.085,-9.16,-0.828,-4.532,-1.75,6.44,-24.22
,-9.038,-0.294,-4.353,-9.191,-0.44,-4.451,1.54,6.23,-24.5
,-9.079,-0.701,-4.506,-9.031,-0.5,-4.255,3.99,6.23,-24.57
,-8.997,-0.797,-4.657,-9.064,-0.57,-3.941,7.42,5.74,-24.64
15068.0,-9.134,-0.366,-3.865,-9.203,-0.782,-3.343,14.07,3.08,-27.79
,-9.22,-0.622,-3.831,-9.062,-0.565,-3.142,14.49,3.36,-28.56
,-8.997,-0.833,-3.716,-9.124,-0.737,-2.871,15.4,3.92,-28.84
,-9.124,-0.967,-3.58,-9.289,-0.495,-2.917,19.18,4.69,-29.05
15144.0,-9.244,-0.39,-3.005,-9.368,-0.845,-2.891,26.32,8.96,-33.95
,-9.273,-0.543,-2.9,-9.179,-1.003,-2.974,25.55,9.8,-35.28
,-9.184,-0.68,-2.86,-9.182,-0.933,-3.441,25.97,11.13,-36.54
,-9.287,-0.778,-2.852,-9.428,-0.747,-3.831,29.05,12.32,-37.73
15219.0,-9.512,-0.763,-4.319,-9.911,-1.673,-4.434,33.25,14.21,-43.33
,-9.433,-1.141,-4.568,-10.208,-1.721,-4.448,32.2,14.14,-44.1
,-9.576,-1.531,-4.602,-10.522,-2.249,-4.343,33.74,13.86,-44.17
,-9.713,-1.582,-4.714,-10.61,-2.936,-4.357,36.75,13.23,-44.03
15295.0,-10.636,-3.386,-4.283,-10.687,-3.24,-4.31,41.3,9.8,-40.6
,-10.605,-3.463,-4.413,-10.514,-3.125,-4.625,45.08,9.73,-39.76
,-10.476,-2.807,-4.331,-10.299,-2.359,-4.499,49.21,8.96,-37.59
,-10.715,-2.436,-4.312,-9.82,-2.35,-4.36,49.77,8.19,-36.96
15370.0,-9.397,-2.431,-4.302,-8.478,-1.989,-3.886,43.68,0.07,-28.14
,-9.026,-2.35,-4.116,-8.466,-1.89,-3.709,43.05,-1.75,-26.53
,-8.67,-2.374,-3.934,-8.413,-1.941,-3.656,42.14,-3.99,-24.43
,-8.454,-2.218,-3.905,-8.105,-1.907,-3.278,41.65,-6.37,-22.26
15446.0,-7.741,-2.029,-2.852,-7.227,-2.919,-3.915,21.91,-15.82,-3.57
,-7.298,-2.041,-2.596,-8.215,-4.401,-4.716,19.74,-15.82,3.08
,-7.325,-1.878,-2.587,-8.423,-3.802,-4.537,20.58,-13.65,10.92
,-7.301,-2.144,-3.025,-7.483,-0.849,-4.135,21.91,-8.75,18.62
15522.0,-7.282,1.711,-3.719,-8.038,-1.354,-2.883,81.97,7.14,54.95
,-7.588,2.304,-3.137,-7.861,-2.347,-3.008,62.02,5.81,55.02
,-7.978,0.976,-3.118,-7.947,-2.8,-2.836,34.23,4.69,53.69
,-8.191,-0.495,-2.998,-8.174,-2.268,-2.888,16.52,4.41,53.9
15598.0,-8.212,-1.182,-3.12,-8.624,-1.658,-3.673,1.26,4.27,52.78
,-8.418,-0.23,-3.386,-8.648,-2.673,-3.515,-8.89,2.94,48.72
,-8.43,-0.232,-3.592,-9.052,-2.879,-3.522,-27.3,2.59,45.71
,-8.567,-0.589,-3.549,-8.911,-4.049,-3.549,-46.27,3.01,43.75
15674.0,-8.538,-4.503,-3.13,-9.885,-0.371,-3.343,-73.57,3.29,47.6
,-8.421,-3.783,-3.022,-10.002,0.431,-3.618,-61.95,4.9,49.91
,-8.954,-2.991,-3.161,-9.993,0.421,-4.034,-50.47,6.02,49.77
,-9.562,-1.797,-3.147,-9.732,-0.313,-4.573,-44.59,7.0,46.9
15749.0,-9.698,-1.402,-4.587,-9.811,-3.565,-4.946,-115.08,1.26,31.22
,-9.727,-2.357,-4.733,-9.418,-3.46,-4.963,-119.49,0.98,32.9
,-9.809,-3.068,-4.673,-9.158,-2.907,-5.135,-116.48,1.19,35.14
,-9.77,-3.386,-4.515,-9.098,-2.673,-4.915,-107.45,1.4,37.59
15825.0,-9.031,-2.486,-4.671,-9.026,-1.299,-4.216,-47.74,-6.23,46.27
,-9.005,-2.254,-4.403,-8.873,-1.481,-4.118,-41.37,-7.98,46.2
,-9.069,-1.919,-4.228,-9.182,-2.18,-3.781,-37.03,-9.66,45.22
,-9.201,-1.438,-4.331,-8.997,-2.692,-3.769,-36.19,-11.97,43.33
15901.0,-8.873,-2.994,-3.771,-8.464,-2.673,-3.637,-45.29,-17.5,31.29
,-8.808,-3.171,-3.845,-8.265,-2.776,-3.568,-39.41,-15.96,30.8
,-8.926,-3.211,-3.735,-8.366,-2.891,-3.75,-31.71,-14.7,30.52
,-8.794,-2.888,-3.661,-8.5,-3.132,-3.824,-24.57,-13.93,29.4
15977.0,-8.646,-5.427,-4.704,-7.487,-3.171,-4.678,5.04,-8.68,19.32
,-9.529,-12.831,-5.738,-8.631,2.221,-3.446,2.94,-5.18,-0.49
,-9.952,-17.542,-4.223,-11.402,4.669,-4.757,49.28,2.66,-18.62
,-8.691,-12.127,-3.431,-11.725,3.766,-4.121,105.56,2.03,-17.43
16052.0,-12.367,1.936,-3.826,-9.864,1.551,-2.838,-22.68,2.03,-3.5
,-11.082,1.024,-3.565,-9.801,2.357,-3.082,-21.49,0.0,-2.38
,-10.316,0.548,-3.171,-9.665,3.149,-3.606,6.51,-0.35,3.08
,-10.1,1.01,-2.95,-9.519,2.871,-3.769,39.34,0.28,6.37
16128.0,-9.222,1.692,-3.68,-8.916,-1.625,-2.656,28.35,-5.18,-3.36
,-8.837,0.045,-3.333,-9.179,-1.424,-2.58,4.62,-6.16,-4.55
,-8.72,-1.225,-3.063,-9.332,-1.168,-2.615,-10.5,-6.93,-5.81
,-8.744,-1.668,-2.821,-9.335,-0.744,-2.637,-18.69,-7.21,-7.0
16203.0,-9.308,-0.333,-2.627,-9.933,0.266,-2.979,-15.75,-2.8,-0.84
,-9.418,-0.096,-2.63,-9.77,0.23,-3.08,-10.36,-1.05,0.63
,-9.564,-0.007,-2.659,-9.507,0.306,-3.216,-4.62,0.35,1.61
,-9.809,0.144,-2.771,-9.351,0.44,-3.34,2.1,1.54,2.45
16279.0,-9.519,0.426,-3.348,-9.828,-0.632,-3.34,8.05,2.52,2.52
,-9.727,0.211,-3.408,-9.828,-0.412,-3.199,4.2,1.96,1.89
,-9.866,-0.168,-3.458,-9.811,-0.108,-2.917,0.0,1.75,1.68
,-9.847,-0.589,-3.479,-9.615,0.074,-2.568,-2.59,1.75,2.03
16355.0,-9.509,-0.491,-2.273,-9.495,-0.438,-2.525,-20.09,0.7,3.22
,-10.045,-1.462,-2.044,-9.306,-0.148,-3.403,-20.02,2.03,3.78
,-9.785,-1.378,-2.123,-9.194,-1.184,-4.003,-15.75,2.52,4.97
,-9.655,-0.9,-2.412,-9.002,-2.577,-4.463,-15.61,3.29,5.32
16431.0,-9.332,-3.798,-4.637,-9.074,-3.238,-4.276,-18.83,13.65,2.94
,-9.536,-4.18,-4.786,-8.94,-2.984,-3.912,-2.8,13.58,2.1
,-9.342,-3.714,-4.673,-8.772,-2.824,-3.936,12.11,11.83,-2.45
,-9.122,-3.458,-4.491,-8.71,-2.809,-3.893,21.07,11.13,-8.47
16507.0,-8.662,-2.881,-4.116,-8.981,-4.133,-4.587,5.6,13.58,-27.44
,-8.516,-3.185,-4.324,-9.265,-3.757,-4.537,0.63,14.91,-32.27
,-8.6,-3.652,-4.422,-8.976,-3.348,-4.393,-0.21,16.59,-36.54
,-8.732,-4.109,-4.537,-8.885,-3.381,-4.381,3.43,17.43,-39.83
16582.0,-9.107,-3.932,-4.245,-9.591,-3.331,-4.195,28.84,12.88,-47.11
,-9.325,-4.326,-4.145,-9.797,-2.888,-4.13,36.54,11.97,-47.6
,-9.392,-4.164,-4.209,-9.648,-2.97,-4.14,48.16,10.92,-47.53
,-9.447,-3.656,-4.156,-9.471,-3.453,-4.168,59.71,10.43,-47.39
16658.0,-9.675,-3.75,-4.092,-9.813,-1.871,-3.757,82.81,7.91,-49.56
,-10.029,-3.597,-3.932,-9.854,-2.012,-3.671,91.42,6.72,-49.49
,-10.06,-2.816,-3.659,-9.974,-2.127,-3.599,98.77,4.62,-50.19
,-9.966,-2.132,-3.783,-9.696,-2.661,-3.604,100.24,2.59,-51.31
16734.0,-9.502,-3.027,-3.594,-9.856,-1.098,-3.319,76.23,-6.02,-55.93
,-9.586,-3.245,-3.405,-9.782,-0.548,-3.439,78.4,-6.58,-53.69
,-9.686,-3.178,-3.343,-9.555,-0.79,-3.391,83.23,-7.42,-51.52
,-9.797,-2.242,-3.075,-9.349,-1.058,-3.297,88.62,-9.1,-50.75
16810.0,-9.251,-1.33,-3.058,-8.397,-0.495,-2.582,46.41,-22.82,-54.81
,-9.17,-1.385,-2.905,-8.088,-0.871,-2.223,42.77,-25.13,-53.41
,-9.031,-1.168,-2.759,-8.04,-1.005,-1.881,39.34,-28.28,-52.64
,-8.744,-0.507,-2.522,-8.031,-0.943,-2.134,33.46,-30.66,-52.08
16885.0,-7.834,-0.804,-1.649,-7.432,-1.922,-1.12,-3.08,-20.93,-38.08
,-7.909,-0.467,-1.809,-7.172,-1.173,-1.278,-8.61,-17.99,-34.93
,-7.894,-0.593,-1.567,-7.016,0.041,-2.108,-16.59,-15.05,-32.13
,-7.708,-1.464,-1.34,-6.492,-0.072,-2.407,-24.29,-10.99,-28.7
16961.0,-6.803,-1.184,-3.084,-7.633,-2.56,-4.403,-49.0,22.61,-8.12
,-7.452,-2.489,-2.69,-7.471,-3.96,-4.288,-48.93,29.47,2.59
,-7.724,-2.149,-3.355,-8.021,-3.149,-4.216,-34.72,31.5,13.79
,-7.265,-1.969,-3.96,-7.976,-2.333,-4.58,-21.63,33.25,20.37
17036.0,-8.064,-2.187,-4.834,-9.84,-2.596,-4.446,28.07,36.89,48.37
,-8.294,-1.831,-5.164,-9.976,-3.805,-4.257,24.71,34.23,51.52
,-8.887,-1.067,-5.47,-10.16,-3.656,-4.405,18.27,31.22,53.34
,-9.799,-1.211,-5.128,-10.378,-1.752,-4.384,2.59,27.93,52.5
17112.0,-10.184,-0.493,-4.08,-9.847,-3.558,-2.776,-16.87,9.8,46.69
,-9.902,-0.861,-3.716,-9.952,-3.187,-2.979,-32.55,7.14,44.8
,-9.83,-1.673,-3.269,-10.38,-3.259,-3.326,-42.84,5.6,44.52
,-9.572,-2.905,-2.989,-10.816,-3.161,-3.561,-44.94,4.9,45.22
17188.0,-10.735,-2.503,-3.917,-10.419,-2.924,-4.245,-21.7,2.8,48.51
,-10.818,-2.515,-4.231,-9.541,-2.637,-4.054,-28.56,0.49,44.8
,-10.921,-2.546,-4.372,-8.725,-2.417,-3.934,-38.78,-2.17,40.53
,-10.794,-2.869,-4.403,-8.224,-1.572,-3.807,-50.61,-4.13,37.59
17264.0,-8.342,-0.818,-3.726,-9.517,0.069,-3.999,-42.56,-5.81,37.1
,-9.49,-0.357,-3.609,-8.863,-1.385,-3.994,-37.87,-6.3,37.1
,-10.467,0.136,-3.573,-8.978,-1.984,-4.104,-35.63,-7.21,36.75
,-10.366,0.778,-3.836,-9.43,-1.28,-4.104,-36.54,-7.7,35.56
17339.0,-9.45,0.175,-4.379,-9.155,-0.593,-3.709,-12.53,-7.28,31.5
,-9.277,0.73,-4.338,-9.416,-0.038,-3.496,-16.17,-7.98,30.45
,-9.213,0.062,-4.152,-9.411,0.51,-3.522,-20.86,-8.96,29.26
,-9.079,-0.715,-3.946,-9.311,0.148,-3.443,-20.51,-9.94,28.0
17415.0,-9.253,-0.797,-3.276,-9.507,-0.345,-3.357,-19.81,-10.99,22.19
,-9.201,-0.864,-3.388,-9.512,0.333,-3.166,-15.54,-10.43,21.77
,-9.318,-0.699,-3.34,-8.906,1.208,-3.19,-9.52,-9.94,21.42
,-9.282,-0.242,-3.455,-9.124,0.565,-2.749,-5.67,-9.38,21.14
17491.0,-9.399,0.223,-2.379,-9.476,-1.484,-2.948,-29.33,-12.88,14.63
,-9.897,-0.081,-2.34,-9.086,-2.245,-3.008,-29.26,-11.76,13.72
,-9.61,0.187,-2.462,-9.371,-1.737,-3.061,-30.59,-11.76,12.46
,-9.057,0.05,-2.704,-9.261,-0.692,-2.989,-35.21,-11.06,12.25
17567.0,-9.684,0.208,-3.111,-9.234,-0.05,-3.74,-4.55,-3.22,14.28
,-9.55,0.476,-3.431,-9.227,0.096,-3.637,-6.09,-2.66,13.79
,-8.983,0.017,-3.561,-9.28,-0.036,-3.431,-7.0,-2.17,13.86
,-9.172,-0.316,-3.726,-9.342,-0.179,-3.166,-3.36,-2.03,14.07
17643.0,-9.526,-0.041,-2.907,-9.258,-0.78,-2.733,-2.31,-1.12,11.83
,-9.619,0.445,-2.797,-9.421,-0.967,-2.883,-0.49,-0.35,11.06
,-9.639,0.38,-2.726,-9.481,-0.653,-3.072,-0.42,0.21,10.57
,-9.375,-0.203,-2.666,-9.428,-0.048,-3.262,0.56,1.47,10.78
17718.0,-9.395,0.108,-3.36,-9.383,0.749,-3.319,17.5,6.02,13.09
,-9.294,0.124,-3.369,-9.598,1.086,-3.288,16.24,5.81,13.37
,-9.225,0.057,-3.35,-9.536,0.835,-3.266,16.87,5.6,13.44
,-9.246,0.237,-3.329,-9.342,0.419,-3.111,18.27,5.18,13.37
17794.0,-8.969,-0.287,-2.936,-10.378,5.463,-2.733,9.66,3.64,12.32
,-9.124,-0.416,-3.094,-8.751,7.004,-1.957,13.65,3.5,12.11
,-8.698,-3.376,-1.926,-9.277,-1.376,-1.642,9.94,6.02,6.79
,-9.624,-1.584,-2.773,-10.727,-1.732,-2.522,24.01,5.25,5.6
17869.0,-10.007,2.989,-3.204,-9.292,-1.776,-3.242,21.35,7.21,7.91
,-9.562,4.233,-3.003,-9.485,0.321,-3.764,0.42,7.0,5.25
,-8.969,0.658,-2.895,-9.438,0.983,-4.099,-26.04,6.72,1.89
,-9.165,-2.656,-3.034,-9.304,0.237,-4.3,-24.92,8.12,1.61
17945.0,-9.196,-0.455,-4.123,-8.904,0.55,-4.109,-8.89,6.23,-0.42
,-9.131,-0.311,-4.238,-8.854,-0.17,-3.831,-2.94,5.53,-0.28
,-9.005,0.251,-4.257,-9.081,-0.081,-3.415,2.24,4.69,0.28
,-9.105,0.629,-4.238,-9.385,0.306,-3.271,3.92,3.78,0.91
18021.0,-9.521,0.246,-3.13,-9.366,0.78,-3.558,1.4,1.4,3.01
,-9.409,-0.251,-3.12,-9.557,1.01,-3.649,1.19,2.24,3.36
,-9.191,-0.62,-3.242,-9.564,0.747,-3.716,3.78,3.22,3.99
,-9.232,-0.182,-3.364,-9.263,0.278,-3.711,7.7,3.43,4.13
18097.0,-9.155,0.641,-4.025,-9.172,-0.01,-3.829,7.21,2.03,1.12
,-9.189,1.117,-4.202,-9.234,0.213,-3.625,6.86,1.26,0.14
,-9.258,1.012,-4.24,-9.292,0.498,-3.427,2.24,0.56,-0.77
,-9.34,0.498,-4.082,-9.287,0.742,-3.247,-1.61,-0.28,-1.47
18172.0,-9.397,0.581,-3.173,-9.328,0.847,-2.948,5.11,-0.7,-2.59
,-9.378,0.424,-3.046,-9.409,0.914,-2.931,3.71,-0.28,-2.94
,-9.447,0.684,-3.068,-9.438,0.859,-2.895,3.57,-0.35,-3.57
,-9.217,0.907,-2.982,-9.502,0.713,-2.948,2.45,-0.07,-4.27
18248.0,-9.418,0.369,-3.087,-9.416,0.4,-3.104,-2.87,1.68,-7.0
,-9.452,0.215,-3.19,-9.344,0.428,-3.029,-1.33,2.31,-7.07
,-9.407,0.055,-3.238,-9.237,0.017,-2.994,0.84,2.73,-7.21
,-9.39,0.112,-3.151,-9.177,-0.002,-3.049,3.15,3.43,-7.35
18323.0,-9.191,0.345,-3.343,-9.241,0.139,-3.448,7.14,5.67,-7.7
,-9.296,0.359,-3.479,-9.158,0.17,-3.422,6.16,5.74,-7.84
,-9.251,0.115,-3.498,-9.284,0.208,-3.427,4.69,5.81,-7.98
,-9.328,-0.124,-3.501,-9.409,0.292,-3.513,5.32,6.09,-8.12
18399.0,-9.301,0.045,-3.599,-9.311,-0.036,-3.709,6.86,6.16,-8.61
,-9.146,-0.122,-3.702,-9.227,-0.065,-3.565,7.35,6.23,-8.89
,-9.208,0.177,-3.738,-9.16,0.388,-3.534,8.12,5.95,-9.31
,-9.296,0.244,-3.833,-9.284,0.675,-3.472,5.81,5.6,-9.8
18475.0,-9.277,0.457,-3.463,-9.32,0.653,-3.434,1.4,5.39,-11.83
,-9.332,-0.101,-3.429,-9.402,0.694,-3.398,1.33,6.02,-12.11
,-9.313,-0.156,-3.403,-9.351,0.285,-3.364,4.76,6.37,-12.39
,-9.287,0.397,-3.465,-9.174,0.062,-3.336,8.05,6.44,-12.74
18551.0,-9.22,-0.11,-3.307,-9.397,-0.005,-3.561,3.15,6.44,-17.01
,-9.222,-0.39,-3.309,-9.186,-0.287,-3.57,2.73,6.86,-17.43
,-9.107,-0.263,-3.269,-9.165,-0.426,-3.702,3.36,7.35,-18.13
,-9.246,-0.036,-3.321,-9.253,-0.491,-3.728,3.36,7.7,-19.25
18627.0,-9.229,-0.55,-3.766,-9.323,0.378,-3.862,4.97,8.05,-22.54
,-9.189,-0.428,-3.745,-9.196,0.096,-3.872,6.09,7.77,-22.68
,-9.165,-0.349,-3.683,-9.074,-0.316,-3.9,7.7,7.84,-23.31
,-9.261,0.266,-3.795,-9.11,-0.464,-3.932,6.72,7.42,-24.85
18702.0,-9.146,-0.132,-3.912,-9.225,-0.074,-3.331,9.52,7.28,-29.19
,-9.265,0.182,-3.946,-9.268,-0.153,-3.032,11.06,7.35,-30.38
,-9.292,0.141,-3.845,-9.22,-0.189,-2.843,9.8,7.28,-32.06
,-9.165,0.134,-3.687,-9.153,-0.244,-2.759,8.61,7.7,-33.46
18778.0,-9.165,-0.715,-2.826,-9.261,-1.022,-3.4,20.23,13.86,-38.5
,-9.093,-0.902,-3.128,-9.296,-1.299,-3.542,22.33,14.91,-39.62
,-9.182,-1.302,-3.293,-9.581,-1.661,-3.733,25.48,15.89,-40.39
,-9.313,-1.067,-3.331,-9.797,-1.522,-4.171,29.75,16.94,-41.37
18854.0,-9.95,-1.85,-4.678,-10.79,-2.242,-4.597,35.14,17.15,-44.45
,-10.124,-2.548,-5.018,-10.73,-2.508,-4.214,37.94,16.87,-43.61
,-10.249,-2.812,-5.114,-10.689,-2.522,-3.924,44.03,16.38,-42.14
,-10.567,-2.45,-4.956,-10.672,-2.419,-3.821,50.4,15.26,-41.44
18930.0,-10.325,-3.094,-3.757,-10.103,-2.508,-4.592,45.64,12.46,-45.15
,-10.313,-3.013,-4.14,-9.773,-2.393,-4.745,49.14,12.11,-45.99
,-10.301,-2.125,-4.439,-9.289,-2.02,-4.621,48.58,11.13,-45.71
,-10.167,-2.371,-4.508,-8.832,-1.644,-4.48,44.45,9.45,-45.43
19005.0,-8.39,-1.646,-4.551,-8.016,-2.259,-4.334,34.93,-2.31,-37.94
,-8.16,-1.833,-4.496,-7.806,-2.144,-4.164,30.31,-4.9,-35.91
,-8.074,-2.087,-4.501,-7.827,-1.991,-4.202,27.58,-7.91,-33.53
,-8.052,-2.268,-4.405,-7.791,-2.386,-4.147,26.95,-10.57,-30.73
19081.0,-7.638,-2.728,-3.934,-6.877,-0.524,-3.195,28.98,-19.39,-10.64
,-7.559,-2.735,-3.685,-7.042,-0.902,-3.618,31.71,-19.25,-3.78
,-7.519,-2.376,-3.429,-7.574,-1.747,-4.216,35.21,-18.34,3.43
,-7.222,-1.412,-3.218,-7.834,-1.67,-4.805,35.7,-16.31,10.5
19156.0,-8.083,-1.424,-4.977,-7.937,-1.338,-3.506,14.28,6.51,36.47
,-7.868,-0.806,-4.087,-8.224,-3.094,-3.168,12.6,4.83,44.17
,-7.291,-0.529,-2.91,-8.39,-4.46,-2.831,12.11,5.25,52.71
,-7.715,-0.538,-3.467,-8.21,-4.42,-2.491,11.41,3.99,56.63
19232.0,-7.854,-2.936,-2.654,-8.842,-0.089,-3.979,62.23,15.33,77.21
,-7.961,-1.251,-2.907,-8.619,-0.909,-4.015,66.15,16.52,77.56
,-8.394,0.23,-3.192,-8.186,-1.799,-3.939,59.08,16.73,75.95
,-8.995,0.677,-4.015,-8.052,-2.245,-4.269,38.36,15.75,71.89
19308.0,-8.045,-3.001,-4.02,-9.665,-1.335,-3.542,-58.17,11.9,58.31
,-8.167,-3.709,-3.9,-9.679,-0.364,-3.676,-63.07,12.95,56.98
,-8.638,-3.431,-3.685,-9.694,-0.079,-3.991,-60.9,13.93,55.23
,-9.153,-2.374,-3.47,-9.622,-0.732,-4.326,-57.61,14.35,51.8
19384.0,-9.083,-1.833,-4.97,-9.354,-2.781,-5.401,-135.8,8.12,28.91
,-9.287,-3.022,-4.97,-9.15,-2.324,-5.181,-144.34,8.82,28.91
,-9.45,-3.585,-5.09,-9.239,-1.991,-5.08,-142.03,8.54,29.19
,-9.667,-3.46,-5.104,-9.301,-1.725,-5.006,-134.68,6.79,27.93
19460.0,-8.914,-1.716,-5.169,-8.995,-2.9,-5.272,-129.29,-3.22,14.84
,-8.784,-2.041,-5.056,-8.794,-3.372,-5.406,-134.61,-4.69,13.79
,-9.296,-2.484,-5.051,-8.753,-4.075,-5.202,-137.06,-7.98,12.67
,-9.234,-2.781,-5.269,-8.763,-4.298,-4.987,-135.59,-11.55,11.62
19535.0,-8.564,-4.209,-4.908,-8.94,-3.623,-3.723,-77.28,-23.73,12.53
,-8.679,-4.015,-4.506,-8.897,-3.307,-3.53,-58.66,-25.2,14.63
,-8.933,-3.977,-4.228,-8.878,-3.13,-3.498,-40.95,-25.62,16.8
,-9.095,-3.841,-3.963,-9.143,-2.903,-3.439,-24.08,-26.46,18.76
19611.0,-9.261,-2.692,-3.522,-11.031,-10.62,-4.764,49.35,-13.58,25.97
,-9.0,-3.317,-4.396,-10.627,-7.885,-4.815,56.91,-10.15,25.62
,-9.091,-5.599,-4.19,-9.11,-2.594,-4.75,65.66,-7.28,26.39
,-10.634,-8.916,-4.422,-8.739,1.893,-4.676,79.45,-1.96,22.68
19687.0,-9.619,4.336,-4.41,-9.256,-1.242,-3.077,49.91,3.5,8.96
,-10.237,4.283,-3.534,-9.112,-0.711,-3.139,-7.14,-2.1,0.07
,-10.275,2.216,-3.053,-9.318,1.158,-3.546,-47.74,-4.34,-10.78
,-9.864,-0.034,-3.092,-9.261,2.876,-3.81,-57.82,-3.57,-16.38
19763.0,-9.15,3.486,-3.81,-8.952,-1.024,-3.604,22.61,-3.43,0.91
,-9.014,2.766,-3.709,-9.103,-1.4,-3.704,10.92,-3.57,0.98
,-8.873,1.254,-3.589,-9.237,-1.551,-3.673,1.4,-3.78,0.07
,-8.911,-0.223,-3.587,-9.301,-1.785,-3.558,-2.1,-4.27,-0.77
19838.0,-9.313,-1.953,-3.477,-9.761,-0.112,-3.041,1.12,-3.01,0.07
,-9.335,-1.732,-3.314,-9.981,-0.041,-3.001,3.22,-2.17,0.91
,-9.476,-1.268,-3.173,-9.825,-0.215,-3.037,6.16,-1.68,1.96
,-9.641,-0.625,-3.151,-9.612,-0.431,-2.922,7.91,-1.19,2.66
19914.0,-9.435,-0.321,-2.895,-10.124,1.091,-2.917,12.32,4.76,5.67
,-10.091,-0.328,-3.106,-9.399,0.711,-2.678,12.81,3.92,4.69
,-9.88,0.369,-3.113,-8.713,-0.529,-3.013,11.27,3.92,4.76
,-10.263,0.842,-2.972,-8.698,-1.661,-3.302,4.13,2.8,5.11
19989.0,-8.361,-2.946,-4.185,-8.921,-2.015,-4.795,-29.54,6.86,2.45
,-9.074,-3.838,-3.987,-8.978,-2.108,-5.068,-16.1,9.8,4.76
,-9.428,-3.644,-4.015,-9.0,-2.288,-5.252,0.0,10.22,7.49
,-8.976,-2.637,-4.482,-8.737,-2.044,-5.145,13.58,10.43,6.79
20065.0,-8.576,-2.067,-5.339,-8.61,-4.07,-4.582,4.9,11.06,-18.34
,-8.442,-2.946,-5.197,-8.622,-3.848,-4.592,-3.78,9.94,-23.03
,-8.313,-3.577,-5.03,-8.71,-3.561,-4.85,-6.79,10.36,-26.53
,-8.459,-3.9,-4.781,-8.935,-3.309,-4.793,-3.5,11.34,-28.98
20141.0,-9.131,-2.776,-4.783,-9.497,-3.64,-4.544,33.88,13.79,-38.08
,-9.201,-2.608,-4.614,-9.442,-3.963,-4.518,36.19,12.81,-39.76
,-9.16,-2.881,-4.487,-9.239,-3.848,-4.432,36.47,12.32,-40.67
,-9.311,-3.429,-4.52,-9.421,-3.333,-4.353,38.92,12.39,-40.46
20217.0,-9.639,-2.994,-4.439,-9.56,-5.138,-4.396,83.02,7.63,-38.01
,-9.636,-2.474,-4.226,-9.564,-4.872,-4.594,88.55,6.44,-39.76
,-9.562,-2.45,-4.221,-9.84,-4.063,-4.59,89.46,5.18,-41.3
,-9.404,-4.161,-4.499,-9.818,-3.496,-4.556,84.63,5.25,-41.02
20292.0,-9.916,-2.97,-4.518,-9.514,-3.391,-4.214,135.87,0.98,-38.99
,-9.756,-3.197,-4.475,-9.509,-3.374,-3.915,135.66,-0.14,-41.3
,-9.72,-3.235,-4.195,-9.641,-2.812,-3.802,137.13,-1.26,-42.84
,-9.665,-3.128,-4.374,-9.828,-2.134,-3.731,139.09,-4.62,-44.38
20368.0,-9.806,-1.665,-3.501,-9.026,-0.531,-2.606,140.77,-21.21,-47.67
,-9.71,-1.086,-3.264,-8.844,-0.809,-2.603,131.39,-25.48,-48.65
,-9.536,-0.916,-2.972,-8.753,-1.048,-2.426,116.97,-29.61,-49.14
,-9.139,-0.744,-2.56,-8.631,-0.871,-1.826,101.64,-32.13,-48.51
20444.0,-8.665,-0.416,-1.687,-7.971,-0.613,-1.831,42.14,-33.11,-44.31
,-8.536,-0.282,-2.044,-8.081,-0.416,-2.158,27.23,-33.04,-45.08
,-8.346,-0.644,-2.623,-8.016,-0.074,-1.962,8.12,-32.76,-45.36
,-7.98,-0.964,-2.3,-8.05,0.117,-1.529,-5.04,-31.57,-43.26
20520.0,-8.04,0.139,-1.989,-7.124,-0.826,-0.943,-58.66,-22.26,-35.42
,-7.748,-0.244,-1.388,-7.227,-1.302,-1.271,-69.72,-18.62,-33.6
,-7.44,-0.278,-1.271,-7.016,-2.46,-1.591,-76.79,-14.0,-30.24
,-7.212,-0.412,-1.058,-7.37,-3.417,-2.331,-83.86,-8.47,-26.46
20596.0,-7.188,-3.807,-2.934,-8.555,-3.692,-4.121,-80.57,32.97,3.29
,-7.49,-4.073,-3.302,-8.057,-4.903,-3.888,-69.79,37.8,11.9
,-7.904,-3.604,-3.649,-7.966,-6.119,-3.869,-55.23,39.48,21.42
,-8.394,-3.398,-3.97,-7.452,-5.958,-3.984,-41.51,39.9,28.14
20671.0,-7.808,-4.405,-4.398,-8.875,-4.836,-4.161,-4.2,32.9,36.26
,-7.837,-3.74,-4.642,-9.184,-4.022,-4.458,-4.13,31.15,37.52
,-8.229,-3.769,-4.609,-9.947,-2.051,-4.925,-8.75,29.61,37.52
,-8.619,-4.398,-4.398,-10.237,-0.211,-5.15,-13.09,27.51,37.59
20747.0,-10.311,-0.392,-4.898,-9.619,-0.648,-3.735,-2.52,18.48,58.17
,-10.115,-0.802,-4.554,-9.612,-0.761,-3.489,2.03,17.36,61.81
,-9.926,-0.567,-4.202,-9.799,-1.747,-3.422,8.96,15.61,64.26
,-9.538,0.017,-4.027,-9.873,-3.111,-3.898,10.92,13.16,64.96
20822.0,-9.983,-4.657,-4.369,-9.627,-2.369,-5.095,-42.56,2.8,49.77
,-9.598,-5.15,-4.64,-9.615,-1.51,-4.951,-45.01,0.7,46.97
,-9.512,-5.13,-4.92,-9.603,-1.46,-4.678,-42.98,-0.56,44.87
,-9.928,-4.537,-5.051,-9.426,-1.565,-4.142,-39.62,-2.59,42.98
20898.0,-9.45,-1.773,-3.649,-10.129,1.039,-3.216,-62.72,-11.34,37.66
,-9.785,-2.343,-3.173,-9.943,1.01,-3.534,-48.86,-9.8,42.07
,-10.017,-1.371,-2.857,-9.531,0.325,-3.838,-26.46,-7.77,45.01
,-10.182,0.16,-3.022,-8.801,-0.849,-4.111,-10.36,-6.44,44.59
20974.0,-8.959,-1.12,-4.214,-9.079,-0.436,-3.941,-30.59,-6.16,33.46
,-9.411,-0.031,-4.527,-9.11,-1.464,-3.597,-18.76,-6.93,32.48
,-9.282,0.739,-4.63,-9.172,-1.165,-3.542,-15.96,-7.63,30.59
,-9.179,0.498,-4.233,-9.368,-0.488,-3.537,-18.76,-8.05,29.33
21050.0,-9.27,0.038,-3.606,-9.201,0.172,-3.118,-1.33,-6.58,25.48
,-9.184,-0.196,-3.537,-9.342,0.529,-2.931,-5.25,-6.09,24.57
,-9.122,-0.701,-3.429,-9.284,0.78,-3.089,-6.16,-5.46,24.01
,-9.249,-0.759,-3.149,-9.222,0.304,-3.214,-3.08,-5.18,23.38
21125.0,-9.194,-0.081,-3.326,-9.574,-0.074,-3.427,-23.66,-7.42,16.87
,-9.28,-0.404,-3.431,-9.091,0.089,-3.587,-23.24,-6.72,16.73
,-9.306,-0.584,-3.348,-9.258,-0.675,-3.563,-20.86,-6.09,16.38
,-9.229,-0.287,-3.472,-9.17,-0.919,-3.565,-17.71,-5.25,16.03
21201.0,-9.349,-0.723,-3.632,-9.342,-0.519,-3.721,-14.49,-4.69,13.3
,-9.548,-0.23,-3.74,-9.026,-0.677,-3.482,-11.2,-4.34,13.16
,-9.284,-0.251,-3.776,-8.959,0.074,-3.597,-10.99,-3.78,12.95
,-9.268,-0.302,-3.743,-9.139,0.503,-3.515,-9.17,-3.29,12.95
21276.0,-9.452,0.51,-3.312,-9.351,0.359,-2.886,-7.42,-3.36,11.9
,-9.284,0.503,-3.163,-9.418,0.869,-3.089,-10.36,-3.36,10.92
,-9.337,0.402,-3.017,-9.538,0.644,-3.305,-11.13,-2.94,10.36
,-9.306,0.23,-2.96,-9.61,-0.034,-3.479,-9.59,-2.24,10.43
21352.0,-9.383,-0.517,-3.714,-9.251,-0.215,-4.219,-4.55,-0.21,8.4
,-9.268,-0.452,-3.941,-9.313,-0.184,-4.137,1.54,0.49,8.82
,-9.22,-0.232,-4.082,-8.894,-0.57,-4.078,5.74,0.63,9.45
,-9.323,-0.342,-4.219,-8.672,-0.668,-3.716,7.56,0.35,9.73
21428.0,-9.055,0.06,-3.46,-9.325,1.079,-3.539,18.9,-0.84,11.48
,-9.392,0.538,-3.326,-9.612,-0.026,-3.058,19.18,-0.21,11.83
,-9.363,0.488,-3.168,-8.976,0.414,-3.525,18.13,0.42,11.69
,-9.445,0.62,-3.135,-10.036,3.448,-3.271,18.62,0.84,11.27
21504.0,-9.483,3.46,-2.804,-9.354,0.263,-3.276,-10.36,-2.24,7.07
,-9.56,0.56,-2.666,-10.014,1.682,-3.738,-10.99,-0.84,4.06
,-9.107,-2.063,-2.946,-9.959,1.474,-3.788,-2.8,0.63,4.13
,-8.488,-1.642,-2.881,-9.505,0.866,-3.618,10.36,1.61,8.19
21580.0,-9.06,0.577,-3.812,-8.847,-0.136,-4.413,4.13,1.4,1.47
,-9.203,0.893,-4.168,-9.215,0.153,-4.271,12.95,0.21,0.56
,-9.079,0.995,-4.422,-9.088,0.098,-3.898,14.14,-1.26,0.56
,-8.744,0.318,-4.415,-9.095,-0.139,-3.259,12.25,-2.24,0.49
21655.0,-9.256,-0.232,-2.8,-9.71,0.39,-2.134,0.77,-6.02,0.35
,-9.335,-0.383,-2.3,-9.706,0.514,-2.297,0.14,-5.25,1.33
,-9.5,-0.239,-2.046,-9.33,-0.235,-2.522,0.98,-3.99,1.82
,-9.648,-0.017,-1.996,-9.088,-0.739,-2.843,2.66,-2.52,1.82
21731.0,-9.265,-0.124,-3.187,-9.177,-0.007,-3.833,-3.08,2.52,0.21
,-9.619,0.995,-3.577,-9.194,-0.098,-4.161,-4.41,2.24,-0.84
,-9.526,1.237,-3.747,-9.06,0.278,-4.302,-11.13,1.82,-1.96
,-9.318,0.459,-3.802,-9.28,0.481,-4.389,-15.19,1.68,-2.38
21807.0,-9.543,0.242,-4.006,-9.483,0.802,-2.781,-8.68,-3.08,-3.43
,-9.375,0.27,-3.589,-9.349,0.237,-2.663,-9.8,-3.85,-4.13
,-9.378,0.857,-3.211,-9.416,0.189,-2.73,-10.22,-4.55,-5.04
,-9.423,1.103,-2.936,-9.643,0.371,-2.871,-12.88,-4.76,-6.16
21883.0,-9.552,0.38,-2.757,-9.402,-0.036,-3.139,-5.53,-0.42,-6.93
,-9.49,0.493,-2.788,-9.325,-0.096,-3.317,-4.83,0.21,-7.35
,-9.363,0.392,-2.821,-9.287,0.002,-3.496,-5.6,0.91,-7.84
,-9.438,0.127,-2.922,-9.296,0.132,-3.623,-5.67,1.4,-8.05
21958.0,-9.318,0.17,-3.561,-9.423,0.443,-2.752,7.14,2.17,-6.02
,-9.373,0.278,-3.41,-9.347,0.062,-2.704,7.42,1.96,-6.3
,-9.402,0.428,-3.163,-9.256,-0.177,-2.831,6.16,1.68,-7.0
,-9.359,0.608,-2.915,-9.227,-0.246,-2.929,3.15,1.47,-7.7
22034.0,-9.344,-0.045,-2.936,-9.562,0.459,-3.046,9.66,4.9,-6.16
,-9.459,0.101,-2.879,-9.323,-0.318,-3.056,11.34,5.67,-6.23
,-9.514,0.316,-2.848,-9.323,-0.139,-3.206,11.62,6.37,-6.72
,-9.531,0.627,-2.893,-9.344,0.436,-3.362,10.29,6.93,-7.42
22109.0,-9.349,0.613,-3.455,-9.311,0.034,-3.781,9.24,7.7,-10.15
,-9.373,0.66,-3.553,-9.17,-0.263,-3.733,6.37,7.07,-11.34
,-9.426,0.526,-3.687,-9.119,-0.517,-3.726,4.2,6.72,-12.6
,-9.344,0.369,-3.757,-9.277,-0.325,-3.573,2.31,6.09,-13.58
22185.0,-9.438,0.129,-3.542,-9.237,-0.043,-3.41,11.48,5.6,-15.26
,-9.488,0.278,-3.513,-9.129,-0.388,-3.228,10.5,5.67,-16.59
,-9.442,0.316,-3.396,-9.292,-0.294,-3.273,7.49,5.04,-18.2
,-9.399,0.431,-3.372,-9.423,-0.273,-3.096,4.97,4.62,-19.25
22261.0,-9.445,-0.067,-3.051,-9.208,-0.735,-3.257,8.12,6.44,-22.05
,-9.399,-0.11,-2.955,-9.124,-0.754,-3.46,6.16,6.65,-23.17
,-9.165,0.129,-2.97,-9.356,-0.383,-3.501,5.95,7.21,-23.8
,-9.332,-0.328,-3.163,-9.328,-0.079,-3.293,6.3,7.98,-24.43
22337.0,-9.263,-0.057,-2.888,-9.323,0.069,-2.783,12.95,10.57,-28.49
,-9.153,-0.519,-2.477,-9.256,-0.479,-3.111,13.09,11.48,-28.91
,-9.287,-0.438,-2.35,-9.093,-1.28,-3.187,16.66,12.32,-29.4
,-9.249,-0.12,-2.462,-9.072,-1.374,-3.348,19.04,13.72,-30.31
22413.0,-9.002,-1.491,-3.465,-9.182,-1.261,-4.606,32.06,19.11,-34.16
,-9.153,-0.68,-3.678,-9.241,-1.364,-4.807,36.82,18.62,-34.65
,-9.258,-0.156,-4.082,-9.373,-1.168,-4.728,35.28,17.71,-36.68
,-9.136,-0.335,-4.475,-9.557,-0.699,-4.597,29.47,16.94,-38.92
22488.0,-9.593,-0.514,-4.355,-10.395,-2.821,-4.255,36.05,12.04,-44.31
,-9.552,-1.027,-4.089,-10.524,-3.017,-4.197,30.8,11.06,-45.78
,-9.83,-1.596,-4.113,-10.677,-3.08,-3.999,28.56,10.43,-46.97
,-10.086,-2.178,-4.185,-10.672,-2.922,-3.886,29.05,9.8,-47.32
22564.0,-10.529,-3.051,-3.967,-10.603,-3.092,-4.525,39.69,8.05,-45.5
,-10.498,-3.465,-4.039,-10.5,-2.192,-4.295,37.59,7.42,-46.48
,-10.428,-3.666,-4.245,-10.196,-2.127,-4.082,36.82,6.51,-46.9
,-10.481,-3.766,-4.415,-9.792,-2.3,-3.747,39.62,5.32,-46.83
22640.0,-9.32,-2.417,-3.386,-8.483,-1.304,-3.364,29.54,-2.24,-38.5
,-8.985,-2.201,-3.01,-8.189,-1.984,-3.525,31.29,-3.15,-35.77
,-8.646,-1.838,-2.95,-7.952,-2.726,-3.623,32.13,-4.27,-33.25
,-8.634,-1.362,-3.173,-7.935,-3.159,-3.695,29.82,-5.6,-30.66
22716.0,-7.363,-2.345,-3.628,-7.239,-1.036,-3.774,24.92,-10.43,-11.13
,-7.073,-1.036,-3.271,-7.329,-1.783,-4.738,24.22,-10.71,-4.62
,-6.722,-0.608,-3.128,-7.904,-3.156,-5.24,18.27,-9.87,1.12
,-6.889,-0.424,-3.293,-8.05,-2.285,-5.075,11.97,-7.21,6.72
22791.0,-7.782,-0.371,-4.96,-8.227,-1.969,-3.226,36.4,1.05,35.21
,-7.607,0.651,-4.197,-8.014,-1.989,-2.953,32.2,-2.87,40.18
,-7.734,0.491,-3.764,-7.87,-1.297,-2.967,18.55,-6.02,42.7
,-8.105,-0.711,-3.537,-7.949,-0.885,-2.898,4.69,-8.33,45.15
22867.0,-8.488,-0.495,-3.027,-8.165,-3.893,-3.585,-10.57,-7.63,54.18
,-8.787,-0.225,-3.087,-8.234,-5.461,-3.501,-19.32,-6.86,53.06
,-8.914,-0.019,-3.187,-8.011,-5.937,-3.35,-32.55,-6.72,51.87
,-8.442,-1.584,-3.429,-8.368,-4.87,-3.321,-52.01,-4.34,52.64
22943.0,-8.538,-2.96,-3.486,-9.028,-0.153,-3.501,7.7,12.74,72.73
,-8.83,-1.579,-3.601,-9.287,-0.392,-3.446,11.76,13.72,68.32
,-9.258,-0.821,-3.235,-9.696,-0.943,-3.781,3.85,15.19,63.7
,-9.452,-0.287,-3.329,-9.895,-1.692,-4.061,-12.39,14.91,58.73
23019.0,-9.935,-2.558,-4.247,-10.005,-1.797,-4.618,-85.4,17.15,52.57
,-9.782,-3.094,-4.305,-9.83,-0.914,-4.999,-83.79,18.34,53.13
,-9.883,-3.137,-4.57,-10.019,-0.452,-4.951,-74.97,19.53,53.76
,-10.079,-2.781,-4.58,-9.813,-0.246,-5.097,-65.1,19.39,53.62
23094.0,-9.624,-0.725,-5.027,-8.866,-2.742,-5.597,-87.36,3.85,47.18
,-9.658,-1.67,-4.889,-9.155,-2.95,-5.485,-94.5,1.26,45.15
,-9.45,-2.606,-5.111,-9.244,-2.718,-5.47,-95.83,-2.52,42.84
,-9.064,-2.745,-5.499,-8.808,-2.63,-5.401,-90.65,-6.51,40.25
23170.0,-8.212,-2.661,-5.219,-8.064,-4.542,-3.836,-84.21,-26.81,19.6
,-8.289,-3.192,-5.027,-7.882,-4.786,-3.396,-84.77,-27.79,15.47
,-8.366,-3.845,-4.707,-7.856,-5.958,-5.906,-80.5,-28.0,11.62
,-8.299,-4.226,-4.226,-8.002,-16.767,-4.743,-70.98,-27.44,8.33
23245.0,-8.825,-22.326,-4.7,-12.426,7.674,-4.128,23.8,-5.25,-17.22
,-8.315,-13.317,-3.171,-12.752,4.92,-2.843,115.5,0.14,-10.22
,-7.44,-2.436,-5.164,-13.094,1.314,-2.474,163.52,-3.43,9.17
,-9.361,5.209,-5.676,-12.493,0.859,-2.584,147.77,-2.8,17.43
23321.0,-10.766,1.732,-2.137,-9.244,2.151,-2.079,27.72,-7.28,3.64
,-9.261,1.663,-1.768,-9.215,0.392,-1.993,47.39,-5.95,3.85
,-9.026,1.821,-1.993,-9.131,-1.333,-1.866,60.55,-4.83,0.84
,-9.186,2.632,-2.257,-8.954,-1.96,-1.78,58.17,-4.2,-1.19
23397.0,-8.904,-1.871,-1.969,-9.402,-0.787,-3.051,-17.43,-1.33,-5.53
,-9.05,-1.452,-2.369,-9.538,-0.404,-3.302,-18.69,0.14,-4.13
,-9.308,-1.225,-2.745,-9.71,0.337,-3.525,-18.48,1.61,-2.45
,-9.356,-0.988,-2.96,-9.682,0.883,-3.68,-15.75,2.87,-0.63
23473.0,-9.739,1.129,-3.867,-9.179,0.474,-4.039,12.39,4.76,3.15
,-9.552,1.024,-4.018,-9.203,0.469,-3.944,9.66,3.78,2.1
,-9.474,0.66,-4.068,-9.378,0.366,-3.872,8.05,2.8,1.33
,-9.306,0.447,-4.097,-9.344,0.12,-3.654,7.91,1.96,1.12
23549.0,-9.177,-0.074,-3.475,-9.617,-0.414,-3.068,9.24,-1.75,1.75
,-9.148,-0.115,-3.376,-9.452,-0.519,-2.943,10.71,-2.1,2.38
,-9.306,-0.165,-3.293,-9.34,-0.345,-2.709,11.34,-2.24,2.8
,-9.512,-0.261,-3.161,-9.519,-0.045,-2.682,10.92,-2.17,3.22
23624.0,-9.751,-0.007,-2.73,-9.952,-0.385,-2.245,7.0,0.42,6.23
,-10.036,-0.206,-2.62,-9.622,-0.201,-2.314,4.27,1.12,6.16
,-10.361,-0.625,-2.618,-9.765,-0.469,-2.302,0.49,1.61,5.6
,-10.036,-0.598,-2.472,-9.99,-0.495,-2.17,-0.35,3.15,6.16
23700.0,-9.952,0.108,-2.254,-8.882,-3.465,-4.195,-16.73,1.82,4.41
,-9.533,0.079,-2.541,-9.186,-3.242,-4.116,-27.44,0.14,2.73
,-9.057,-0.842,-3.072,-9.275,-2.249,-4.089,-36.89,0.98,1.54
,-9.026,-2.178,-3.601,-9.564,-1.606,-4.357,-35.84,4.97,2.38
23776.0,-9.287,-1.756,-4.305,-9.165,-3.25,-4.3,12.53,8.12,-1.75
,-8.686,-2.661,-4.197,-8.906,-3.482,-4.573,7.7,9.45,-8.05
,-8.71,-2.862,-4.094,-8.686,-3.922,-4.762,6.44,10.99,-11.62
,-9.016,-3.003,-4.154,-8.722,-4.824,-4.901,6.72,11.13,-14.35
23852.0,-8.837,-5.384,-4.752,-9.493,-2.596,-4.867,19.46,15.82,-31.64
,-8.765,-5.269,-4.625,-9.509,-2.843,-4.841,34.51,15.82,-32.34
,-8.985,-4.346,-4.422,-9.483,-3.611,-4.724,51.38,16.24,-32.83
,-9.442,-3.151,-4.582,-9.366,-3.975,-4.393,61.81,15.05,-35.07
23927.0,-9.086,-4.159,-4.417,-9.617,-3.247,-4.362,73.64,10.36,-43.54
,-9.129,-4.164,-4.338,-9.789,-2.938,-4.346,83.58,10.64,-44.03
,-9.407,-3.824,-4.281,-9.83,-2.35,-4.24,93.52,9.94,-44.87
,-9.531,-3.695,-4.42,-9.938,-1.893,-4.276,100.59,10.01,-45.57
24003.0,-9.789,-1.84,-4.281,-9.615,-3.204,-3.924,109.48,8.4,-50.4
,-9.844,-2.178,-4.042,-9.368,-1.888,-4.034,105.28,8.12,-51.45
,-9.593,-2.793,-3.929,-9.371,-1.208,-3.989,101.15,7.84,-50.96
,-9.864,-3.546,-4.068,-9.581,-1.56,-4.013,97.86,6.44,-49.77
24078.0,-9.392,-1.96,-4.032,-9.399,-1.268,-3.307,84.63,-4.69,-53.2
,-9.354,-1.711,-3.609,-9.483,-1.685,-2.922,81.55,-7.49,-53.06
,-9.495,-1.115,-3.893,-9.201,-2.063,-2.931,78.4,-12.18,-54.46
,-9.407,-1.113,-4.089,-8.705,-2.065,-2.666,69.65,-17.15,-56.63
24154.0,-8.531,-1.493,-2.479,-8.37,-0.782,-1.878,43.4,-29.61,-51.87
,-8.638,-1.005,-2.843,-8.133,-0.433,-1.653,38.78,-31.71,-52.22
,-8.531,-1.129,-2.544,-7.976,-0.361,-2.163,31.5,-32.06,-52.01
,-8.32,-1.046,-2.18,-7.875,-1.117,-1.965,26.46,-31.29,-49.98
24230.0,-7.865,-1.476,-1.783,-7.463,-0.048,-1.292,-21.0,-19.39,-38.92
,-7.712,-1.508,-1.749,-7.473,0.302,-1.397,-23.59,-16.59,-36.54
,-7.542,-1.134,-1.419,-7.31,0.27,-1.196,-29.89,-13.44,-33.67
,-7.356,-0.711,-1.161,-6.923,-0.869,-1.725,-37.1,-9.52,-30.03
24306.0,-6.782,-3.324,-2.168,-8.11,-4.037,-3.955,-95.69,20.44,-13.86
,-7.392,-5.932,-1.761,-8.057,-4.489,-4.156,-84.42,28.98,-2.52
,-7.471,-4.353,-2.513,-8.361,-3.723,-4.078,-57.89,35.7,12.81
,-7.758,-3.12,-3.582,-7.916,-2.386,-4.551,-41.72,40.88,22.05
24382.0,-8.416,-1.426,-5.238,-9.603,-1.764,-5.441,-18.69,26.67,31.99
,-8.734,-3.101,-5.188,-9.818,-0.084,-4.838,-39.62,24.85,33.11
,-9.005,-3.955,-5.621,-10.203,0.165,-4.57,-38.71,21.7,34.02
,-9.304,-3.733,-5.757,-10.538,-0.787,-4.35,-22.89,18.55,37.45
24457.0,-10.359,-1.799,-3.879,-9.445,-0.921,-3.944,-14.98,9.38,58.1
,-10.144,-2.065,-3.8,-9.383,-2.022,-3.778,2.52,9.59,63.98
,-10.024,-1.508,-4.003,-9.928,-3.735,-3.963,20.16,10.01,68.04
,-9.835,-1.165,-3.941,-10.471,-5.154,-4.267,24.78,8.68,68.53
24533.0,-10.675,-5.554,-4.279,-10.251,-2.462,-3.463,-28.91,-2.94,49.14
,-10.725,-5.324,-4.561,-9.325,-2.376,-2.996,-29.61,-5.25,44.73
,-11.237,-4.111,-4.41,-8.39,-1.651,-2.498,-35.84,-8.26,40.53
,-11.038,-3.137,-4.02,-8.521,-0.089,-2.146,-47.67,-10.08,37.59
24609.0,-9.34,1.204,-2.022,-9.564,-0.273,-3.46,-39.69,-5.95,38.64
,-10.093,1.486,-2.17,-9.203,-0.392,-4.456,-41.65,-4.41,37.94
,-10.335,0.359,-2.261,-8.911,-1.484,-4.958,-45.08,-2.31,37.31
,-9.981,-0.428,-2.694,-8.813,-1.91,-5.185,-40.95,-0.7,36.82
24685.0,-9.048,-1.127,-5.255,-8.844,-0.127,-3.731,-21.07,-2.73,30.24
,-9.165,-0.034,-5.035,-8.954,-0.371,-3.46,-21.07,-5.11,28.49
,-9.033,0.407,-4.637,-9.1,-0.572,-3.192,-24.99,-7.0,27.44
,-8.887,0.194,-4.106,-9.296,-0.804,-3.18,-27.3,-8.12,26.67
24760.0,-9.526,-1.12,-3.149,-9.253,0.744,-3.419,-19.39,-6.58,23.38
,-9.158,-1.024,-3.106,-9.249,0.926,-3.427,-17.43,-5.95,22.75
,-9.289,-0.761,-3.147,-9.239,0.153,-3.613,-15.75,-5.25,22.19
,-9.591,0.089,-3.24,-9.349,-1.228,-3.776,-16.31,-5.67,20.37
24836.0,-9.136,-1.84,-3.905,-9.127,-1.036,-4.556,-24.78,-5.32,17.71
,-9.239,-1.421,-4.111,-8.921,-1.067,-4.654,-14.0,-4.69,17.99
,-9.452,-0.581,-4.374,-9.091,-0.972,-4.446,-8.61,-4.97,17.36
,-9.536,-0.67,-4.582,-8.902,-0.392,-4.29,-11.06,-5.81,16.31
24911.0,-9.253,-0.29,-4.073,-8.813,-0.754,-3.376,21.0,-3.92,20.86
,-9.485,0.134,-3.977,-9.06,-1.163,-3.254,22.75,-4.27,20.02
,-9.689,0.246,-3.769,-9.289,-0.979,-2.989,21.21,-4.55,18.9
,-9.292,-0.203,-3.611,-9.359,0.148,-2.828,17.85,-3.99,18.13
24987.0,-9.342,0.998,-2.661,-9.43,1.443,-2.603,29.33,0.49,17.85
,-9.359,1.168,-2.584,-9.296,0.938,-2.706,20.86,0.56,15.82
,-9.55,1.019,-2.462,-9.306,0.608,-2.84,15.33,1.05,14.14
,-9.631,1.141,-2.481,-9.39,0.653,-2.982,13.16,1.05,12.39
25063.0,-9.493,0.735,-3.199,-9.107,-0.378,-3.431,7.0,2.45,7.77
,-9.457,0.467,-3.36,-9.186,-0.306,-3.546,5.95,2.45,7.21
,-9.39,0.397,-3.364,-9.241,-0.313,-3.53,6.44,2.52,6.79
,-9.277,0.038,-3.503,-9.148,-0.369,-3.506,5.53,2.38,6.44
25139.0,-9.38,-0.357,-3.453,-9.1,0.409,-3.486,4.27,2.59,6.16
,-9.407,0.026,-3.393,-9.036,0.34,-3.659,6.09,2.38,6.3
,-9.172,0.206,-3.235,-9.22,0.625,-3.628,6.02,2.17,6.23
,-9.079,0.328,-3.367,-8.878,0.45,-3.79,5.6,2.17,6.23
25214.0,-8.873,-3.104,-4.326,-9.72,-1.34,-2.733,-12.46,-1.12,-7.49
,-9.713,-1.484,-4.19,-10.502,1.766,-2.903,-5.6,-0.63,-4.69
,-10.156,5.463,-3.422,-9.593,4.3,-2.795,-15.26,-3.57,4.55
,-8.526,3.096,-2.716,-8.969,1.254,-2.608,-37.17,-2.31,3.5
25290.0,-9.426,-1.307,-2.946,-9.308,-1.498,-3.905,-7.07,2.94,-0.49
,-9.557,-0.68,-3.305,-9.246,-0.309,-4.145,0.42,2.8,-0.14
,-9.119,-1.357,-3.376,-8.954,0.093,-4.145,-0.77,3.08,-0.21
,-9.148,-2.175,-3.501,-8.815,-0.019,-4.049,1.61,4.62,-0.7
25366.0,-8.99,0.139,-3.946,-9.361,0.603,-3.087,4.48,3.57,0.28
,-9.155,0.792,-3.685,-9.383,0.136,-3.18,8.47,2.87,1.05
,-9.44,1.094,-3.422,-9.328,-0.498,-3.192,7.84,2.03,1.12
,-9.371,0.912,-3.19,-9.33,-0.553,-3.192,4.41,1.61,0.35
25442.0,-9.457,-0.266,-3.345,-9.292,0.459,-3.47,-3.78,2.59,-1.4
,-9.361,0.117,-3.396,-9.514,0.914,-3.58,-3.43,3.01,-1.4
,-9.184,0.179,-3.379,-9.189,0.605,-3.747,-5.95,3.36,-1.47
,-9.083,0.261,-3.293,-9.11,-0.108,-3.802,-7.28,3.64,-1.54
25518.0,-8.973,-0.639,-3.843,-8.775,-1.29,-3.039,-12.88,1.96,-4.41
,-8.899,-0.747,-3.793,-9.344,-0.385,-3.017,-8.96,2.03,-3.85
,-9.06,-1.213,-3.532,-9.579,0.452,-3.144,-7.84,2.17,-3.22
,-8.792,-1.582,-3.209,-9.708,0.787,-3.4,-8.33,2.66,-1.75
25593.0,-9.586,0.522,-3.673,-9.576,1.496,-4.164,-7.77,6.02,-1.4
,-9.105,-0.098,-3.936,-9.588,1.151,-3.912,-3.08,6.93,-1.12
,-9.098,0.012,-4.054,-9.627,1.019,-3.884,6.51,7.56,0.07
,-9.277,0.756,-4.185,-9.89,0.852,-3.908,14.14,6.93,-0.35
25669.0,-9.457,0.426,-3.934,-9.055,0.225,-3.743,6.23,4.34,-8.47
,-9.289,0.426,-3.991,-9.095,0.12,-3.726,8.05,4.34,-9.38
,-9.258,0.536,-3.915,-9.122,0.105,-3.582,8.82,3.71,-9.87
,-9.119,0.562,-3.821,-9.112,0.165,-3.367,7.84,3.29,-10.5
25744.0,-9.124,0.397,-3.216,-9.313,-0.122,-2.831,12.04,2.73,-10.57
,-9.153,0.352,-3.049,-9.43,0.065,-2.845,9.31,2.66,-10.92
,-9.174,-0.038,-2.962,-9.261,-0.146,-2.838,6.16,3.08,-11.41
,-9.182,-0.273,-2.881,-9.225,-0.069,-3.106,5.6,3.71,-11.41
25820.0,-9.241,0.177,-3.549,-9.081,-0.199,-4.491,-0.21,6.58,-14.42
,-9.27,0.201,-3.915,-8.954,-0.543,-4.331,-1.89,6.58,-15.19
,-9.194,0.036,-4.207,-9.194,-0.897,-4.147,-2.24,6.16,-16.03
,-9.251,0.177,-4.501,-9.189,-0.443,-3.96,-2.52,5.32,-16.94
25896.0,-9.246,0.235,-3.963,-9.158,-0.486,-3.74,4.06,2.8,-17.99
,-9.363,0.39,-3.92,-9.093,-0.376,-3.565,3.36,2.59,-18.69
,-9.098,0.036,-3.841,-9.141,-0.402,-3.357,3.29,3.01,-19.25
,-9.103,-0.227,-3.79,-9.404,-0.318,-3.216,6.72,3.01,-19.67
25972.0,-9.404,0.043,-3.307,-9.031,-0.538,-3.884,15.82,4.76,-22.61
,-9.294,0.055,-3.436,-9.005,-0.912,-3.879,13.65,5.18,-23.8
,-9.153,0.105,-3.604,-9.021,-1.433,-3.857,12.32,5.32,-25.06
,-9.146,-0.081,-3.819,-9.131,-1.275,-3.743,11.97,5.39,-26.18
26047.0,-9.194,-0.933,-3.58,-9.165,-0.785,-3.247,29.54,8.12,-28.07
,-9.16,-0.821,-3.345,-9.086,-0.759,-3.312,30.87,9.24,-28.56
,-9.083,-0.933,-3.084,-9.15,-0.905,-3.381,32.48,10.08,-28.98
,-9.165,-0.969,-3.128,-9.081,-1.402,-3.228,35.7,11.13,-29.82
26123.0,-9.371,-1.51,-3.185,-9.61,-1.254,-3.867,44.45,14.49,-36.47
,-9.533,-0.993,-3.183,-9.619,-1.637,-3.967,47.11,14.84,-37.52
,-9.794,-0.345,-3.384,-9.739,-1.735,-4.149,46.2,14.77,-38.71
,-9.569,-0.665,-3.549,-10.129,-1.898,-4.185,41.86,15.05,-40.18
26198.0,-10.421,-2.075,-4.257,-10.754,-3.544,-4.496,42.77,13.23,-43.47
,-10.591,-2.606,-4.245,-10.555,-3.793,-4.429,41.37,12.6,-44.59
,-10.744,-3.07,-4.36,-10.392,-3.092,-4.475,41.16,11.9,-45.57
,-10.715,-3.484,-4.499,-10.318,-2.716,-4.3,42.63,11.41,-46.48
26274.0,-10.208,-2.783,-4.369,-9.241,-1.922,-5.319,42.63,4.69,-51.66
,-10.117,-2.754,-4.654,-9.045,-1.586,-5.121,40.32,2.59,-52.29
,-9.799,-2.553,-4.968,-8.815,-1.249,-4.929,39.2,0.07,-51.87
,-9.471,-2.266,-5.171,-8.636,-0.905,-4.527,38.22,-2.45,-50.82
26350.0,-8.43,-0.998,-4.125,-7.961,-1.622,-3.63,21.28,-15.54,-39.48
,-8.215,-1.445,-3.766,-7.873,-1.886,-3.64,17.22,-16.87,-35.91
,-8.002,-1.682,-3.589,-7.614,-2.077,-3.527,17.85,-17.57,-31.64
,-7.988,-1.431,-3.616,-7.375,-1.773,-3.396,18.83,-18.13,-26.81
26426.0,-7.296,-1.089,-3.36,-7.222,-1.819,-3.905,17.22,-15.19,6.02
,-7.375,-0.55,-3.288,-7.48,-3.283,-4.341,15.05,-14.28,13.51
,-7.327,0.031,-3.197,-8.246,-3.139,-3.575,9.03,-12.6,20.37
,-7.231,-0.704,-3.156,-7.985,-1.773,-2.783,-1.96,-8.26,25.76
26502.0,-8.119,-0.23,-2.465,-8.631,-0.591,-2.737,34.23,4.62,56.84
,-8.253,0.601,-2.469,-8.449,-1.419,-2.757,24.36,3.99,60.48
,-8.634,0.483,-2.24,-8.272,-2.19,-2.946,10.29,4.9,63.07
,-8.861,0.223,-2.675,-8.526,-2.46,-3.063,-5.95,5.32,63.77
26577.0,-8.787,-1.764,-3.393,-8.184,-3.285,-4.02,-27.58,13.37,74.97
,-8.875,-1.304,-4.011,-8.251,-2.218,-3.774,-29.26,12.18,75.11
,-8.825,-1.905,-4.389,-9.067,-0.914,-3.884,-38.64,11.2,75.18
,-8.44,-3.238,-4.209,-9.569,-0.318,-4.185,-46.97,12.25,76.93
26653.0,-9.464,-1.519,-4.697,-9.574,-2.465,-4.53,-71.19,6.72,56.84
,-9.124,-3.376,-4.585,-9.617,-1.29,-4.755,-91.84,7.84,56.07
,-9.15,-4.056,-4.252,-9.964,-1.082,-5.123,-94.92,6.02,56.77
,-9.162,-3.716,-4.353,-9.763,-1.929,-5.305,-89.39,1.68,54.81
26729.0,-9.445,-2.984,-5.324,-9.301,-3.151,-5.274,-125.16,-1.54,28.77
,-9.141,-3.654,-5.475,-9.127,-2.802,-5.346,-127.68,-3.85,27.02
,-9.088,-3.81,-5.53,-8.808,-3.144,-5.556,-123.48,-5.74,26.53
,-9.275,-3.599,-5.358,-8.842,-3.898,-5.482,-115.78,-7.0,26.25
26805.0,-9.045,-4.429,-5.358,-9.27,-3.264,-4.867,-95.34,-13.16,21.7
,-9.179,-4.432,-5.039,-8.966,-3.242,-4.798,-81.2,-15.26,23.45
,-9.148,-3.915,-5.233,-8.595,-3.649,-4.575,-66.92,-17.71,24.78
,-8.94,-3.515,-4.783,-8.303,-3.939,-4.429,-54.74,-18.2,26.18
26880.0,-8.411,-4.073,-3.929,-8.813,-2.245,-3.01,-1.89,-26.18,24.29
,-8.636,-3.716,-3.814,-9.471,-1.969,-3.087,13.65,-26.46,24.08
,-8.67,-3.293,-3.458,-9.887,-2.496,-3.032,27.3,-25.55,23.52
,-8.634,-2.793,-3.116,-9.828,-3.472,-3.731,38.57,-23.17,23.24
26956.0,-9.797,-5.745,-3.8,-10.258,-0.402,-3.64,50.12,-13.93,13.72
,-9.785,-6.911,-3.278,-10.615,1.783,-3.51,65.66,-7.91,11.41
,-9.873,-5.848,-3.379,-10.787,2.69,-3.075,81.9,-2.31,5.81
,-10.096,-3.278,-3.498,-10.335,1.866,-2.438,84.35,1.05,0.42
27031.0,-9.873,0.239,-2.036,-9.194,2.094,-2.694,-42.21,-6.93,-9.87
,-9.517,-0.744,-2.029,-9.316,2.74,-2.893,-30.24,-4.69,-9.59
,-9.27,-0.27,-2.235,-9.438,2.412,-3.001,-6.93,-2.73,-7.42
,-9.162,1.034,-2.503,-9.416,1.381,-3.015,12.39,-1.26,-4.41
27107.0,-9.445,-0.041,-3.171,-9.337,-0.859,-3.537,-6.16,-2.38,-2.17
,-9.299,-1.132,-3.245,-9.445,-0.725,-3.448,-6.79,-2.17,-2.87
,-9.232,-1.486,-3.321,-9.509,-0.737,-3.19,-3.5,-1.96,-2.8
,-9.186,-1.225,-3.4,-9.466,-0.653,-3.022,-0.14,-1.61,-2.1
27183.0,-9.414,-0.436,-2.783,-9.49,0.376,-2.642,2.38,-0.42,1.61
,-9.514,-0.077,-2.711,-9.447,0.282,-2.632,7.14,0.35,2.52
,-9.706,0.256,-2.788,-9.543,0.203,-2.718,9.8,0.7,2.94
,-9.701,0.402,-2.745,-9.84,0.065,-2.888,10.43,1.26,3.22
27259.0,-10.103,-0.309,-3.015,-9.447,-0.012,-2.328,6.23,3.5,4.27
,-10.383,-0.536,-3.125,-9.6,-1.232,-2.008,1.82,2.94,3.5
,-9.94,-0.213,-2.97,-9.682,-2.142,-2.137,-2.03,2.73,3.43
,-9.923,0.007,-2.532,-10.0,-1.831,-1.759,-8.12,1.68,4.2
27335.0,-9.289,-1.503,-2.029,-9.411,-2.773,-4.288,-10.36,8.89,4.9
,-9.847,-1.936,-2.661,-9.555,-2.29,-4.465,-10.99,11.9,4.9
,-9.627,-2.422,-3.549,-9.194,-2.28,-4.81,-8.82,15.12,5.11
,-9.921,-2.845,-4.027,-8.959,-2.637,-5.049,-2.38,17.64,5.11
27410.0,-8.995,-2.998,-4.905,-8.703,-4.499,-4.633,19.46,17.36,-12.67
,-8.78,-3.47,-4.898,-8.67,-4.757,-4.599,18.62,15.89,-16.24
,-8.591,-3.939,-4.791,-8.705,-4.697,-4.535,19.25,14.91,-19.04
,-8.641,-4.314,-4.666,-8.947,-4.326,-4.549,23.03,14.49,-21.28
27486.0,-9.062,-3.556,-4.611,-9.225,-3.52,-4.164,60.69,14.35,-32.41
,-9.012,-2.826,-4.575,-9.275,-4.298,-3.965,64.96,12.74,-36.12
,-9.33,-2.395,-4.451,-9.567,-4.197,-3.752,64.54,10.5,-39.97
,-9.39,-2.615,-4.262,-9.677,-2.936,-3.735,60.9,7.63,-43.61
27562.0,-9.758,-2.3,-3.884,-9.643,-3.601,-3.587,80.22,-0.77,-50.4
,-9.73,-2.852,-3.723,-9.916,-3.015,-3.747,75.88,0.28,-52.01
,-9.658,-3.601,-3.577,-10.179,-2.465,-3.733,74.62,1.4,-52.36
,-9.481,-4.092,-3.599,-10.292,-2.417,-3.597,77.91,1.4,-52.36
27638.0,-10.234,-2.692,-3.676,-9.629,-2.656,-3.728,90.72,0.63,-59.85
,-10.108,-2.852,-3.659,-9.823,-2.84,-3.625,89.67,0.07,-59.57
,-10.029,-2.931,-3.601,-9.902,-2.474,-3.766,89.39,-1.61,-59.43
,-9.756,-2.737,-3.676,-9.734,-1.866,-3.183,89.6,-3.5,-59.5
27713.0,-9.792,-1.33,-3.396,-8.983,-0.34,-2.881,92.54,-11.9,-57.61
,-9.502,-0.888,-3.118,-8.949,-0.464,-1.912,81.48,-16.24,-59.08
,-9.481,-0.519,-3.001,-8.689,-0.838,-2.434,68.6,-19.88,-59.78
,-9.246,-0.345,-3.037,-8.263,-1.096,-2.651,54.25,-23.66,-60.34
27789.0,-7.995,-1.369,-2.405,-7.461,1.163,-2.28,-3.78,-30.1,-56.35
,-7.93,-1.161,-2.517,-7.308,0.955,-1.883,-6.86,-30.45,-53.69
,-7.98,-0.486,-1.598,-7.389,0.596,-1.697,-8.75,-30.1,-51.94
,-7.877,0.61,-2.201,-7.286,0.074,-1.627,-21.56,-29.75,-51.45
27864.0,-7.03,-0.847,-1.632,-7.657,-2.718,-2.312,-92.82,-6.86,-38.01
,-7.03,-1.431,-1.575,-7.801,-3.166,-2.525,-94.5,1.33,-30.24
,-6.999,-1.4,-1.73,-7.923,-2.28,-3.338,-91.7,9.31,-19.88
,-7.097,-1.639,-2.314,-7.995,-2.498,-3.692,-88.48,17.43,-9.59
27940.0,-7.997,-3.771,-4.212,-8.837,-1.007,-6.267,-9.24,35.42,35.63
,-7.846,-3.549,-4.657,-9.17,-2.958,-5.755,3.5,37.03,42.77
,-7.868,-2.228,-5.267,-9.21,-5.504,-5.13,10.99,37.87,49.0
,-8.181,-1.115,-5.927,-9.342,-5.224,-5.276,8.05,36.61,51.66
28016.0,-9.897,-3.13,-5.406,-10.079,-1.936,-2.493,32.48,17.15,60.27
,-10.182,-0.969,-4.975,-10.072,-2.448,-2.084,29.4,13.72,61.18
,-10.242,-0.615,-4.02,-10.05,-1.756,-1.933,15.75,10.43,60.13
,-10.096,-1.232,-3.113,-9.864,-1.644,-2.235,2.17,7.98,57.33
28092.0,-10.211,-3.111,-2.728,-10.223,-2.759,-5.162,-40.88,4.62,44.8
,-10.419,-3.989,-3.412,-10.124,-2.924,-5.434,-48.02,4.27,42.0
,-10.435,-4.525,-3.898,-9.569,-2.9,-5.305,-47.53,3.71,41.09
,-10.455,-3.728,-4.53,-9.22,-2.58,-4.996,-42.35,2.45,40.18
28167.0,-9.414,-2.075,-4.669,-9.83,-2.175,-3.163,-33.11,-7.35,40.04
,-9.603,-1.534,-4.357,-10.136,-1.34,-2.855,-28.91,-9.1,40.46
,-9.483,-1.309,-4.037,-9.852,-0.11,-2.871,-30.59,-10.36,39.69
,-9.502,-1.816,-3.52,-9.44,0.505,-3.008,-35.14,-10.78,38.57
28243.0,-9.21,0.62,-3.19,-9.311,-0.019,-3.939,-32.41,-7.84,33.74
,-9.134,0.349,-3.577,-8.811,-0.275,-3.759,-33.88,-8.47,31.64
,-9.158,-0.127,-3.833,-9.007,-0.519,-3.513,-34.72,-9.1,29.75
,-9.407,-0.361,-3.843,-9.318,-0.285,-3.565,-33.81,-9.52,28.35
28319.0,-9.306,-0.191,-3.764,-9.162,-1.613,-3.833,-35.21,-12.18,21.49
,-9.402,-0.651,-3.812,-9.375,-1.469,-3.666,-34.79,-11.9,20.65
,-9.392,-0.928,-3.874,-9.311,-0.459,-3.678,-29.61,-11.27,20.16
,-9.299,-1.122,-3.953,-9.373,0.055,-3.436,-23.38,-10.92,19.81
28395.0,-9.275,-0.103,-3.307,-9.507,-0.33,-3.084,-0.49,-8.4,18.34
,-9.239,-0.369,-3.324,-9.289,0.211,-2.864,-1.82,-8.26,17.78
,-9.385,-0.45,-3.281,-9.359,0.804,-2.938,0.7,-7.77,17.08
,-9.409,-0.337,-3.319,-9.45,0.467,-2.962,2.38,-7.35,16.52
28471.0,-9.251,-0.175,-2.927,-9.112,-1.046,-2.955,-20.44,-10.08,10.64
,-9.514,-0.699,-3.087,-9.201,-1.307,-2.718,-19.11,-9.52,10.71
,-9.368,-0.613,-3.139,-9.509,-1.18,-2.757,-14.91,-8.75,10.78
,-8.978,-0.529,-3.221,-9.407,-1.06,-2.766,-13.65,-8.19,11.41
28546.0,-9.313,-0.615,-2.931,-9.55,-0.096,-2.915,-2.1,-2.87,13.44
,-9.351,-0.263,-3.113,-9.514,0.503,-2.73,-0.21,-2.1,13.65
,-9.239,-0.333,-3.171,-9.6,0.787,-2.481,0.0,-1.33,14.0
,-9.359,-0.416,-3.156,-9.552,1.055,-2.472,2.17,-0.98,14.14
28622.0,-9.421,0.514,-2.599,-9.478,0.522,-3.235,-4.13,0.77,10.5
,-9.438,0.041,-2.733,-9.529,0.919,-3.475,-4.27,1.19,10.22
,-9.435,-0.256,-2.912,-9.454,1.012,-3.592,-1.96,1.89,10.08
,-9.454,-0.062,-3.027,-9.445,0.84,-3.738,0.98,2.45,9.8
28697.0,-9.062,0.139,-5.238,-7.222,-2.431,-2.68,-6.02,0.42,6.23
,-10.28,-1.139,-4.154,-10.115,-3.223,-2.58,4.06,1.96,6.93
,-8.528,-0.124,-3.766,-10.737,1.103,-2.711,9.52,-0.14,7.84
,-8.921,0.139,-3.309,-10.005,3.465,-2.716,4.9,-1.4,8.26
28773.0,-9.787,2.051,-2.467,-9.658,1.512,-2.355,-3.64,2.31,7.42
,-9.576,0.469,-2.247,-9.619,0.883,-2.525,-7.21,3.01,5.39
,-9.698,0.498,-2.213,-9.433,-0.06,-2.718,1.26,3.29,4.55
,-9.61,1.443,-2.257,-9.452,-0.675,-2.907,8.26,3.71,3.85
28849.0,-9.287,-1.223,-3.144,-9.112,-0.153,-3.888,-2.03,5.32,-1.75
,-9.026,-1.347,-3.343,-9.155,-0.103,-3.941,-1.89,5.67,-1.26
,-9.11,-0.926,-3.676,-9.196,-0.029,-3.85,-1.75,5.46,-0.49
,-9.124,-0.436,-3.843,-9.239,0.041,-3.783,-3.01,5.32,0.7
28925.0,-9.289,0.077,-3.699,-9.423,0.388,-2.927,5.11,3.29,3.78
,-9.347,-0.309,-3.403,-9.445,0.641,-2.91,6.86,3.29,4.13
,-9.418,-0.151,-3.163,-9.378,0.361,-3.027,9.8,3.71,4.62
,-9.452,0.127,-2.97,-9.064,-0.744,-3.061,10.22,3.71,4.27
29000.0,-9.083,-1.208,-2.977,-8.997,-0.419,-3.046,-5.11,4.97,2.94
,-9.435,-0.5,-3.039,-8.947,-1.072,-3.123,3.64,5.46,3.43
,-9.608,0.766,-3.001,-9.1,-1.661,-3.374,5.74,5.53,2.87
,-9.292,0.672,-3.015,-9.567,-1.11,-3.632,-1.47,5.53,1.96
29076.0,-9.765,0.522,-4.008,-9.383,0.562,-4.032,8.82,6.72,4.62
,-9.533,1.761,-4.25,-9.325,-0.065,-3.716,7.07,5.88,2.66
,-9.385,2.12,-4.279,-9.368,0.194,-3.58,-1.05,4.55,1.05
,-9.404,1.881,-4.336,-9.485,0.885,-3.372,-8.4,3.08,-0.42
29151.0,-9.466,1.402,-3.175,-9.375,0.601,-3.139,3.22,0.98,-3.71
,-9.55,1.314,-3.084,-9.404,0.663,-3.154,-1.89,0.98,-4.76
,-9.576,0.967,-3.089,-9.423,0.349,-3.23,-5.11,1.05,-5.95
,-9.55,0.596,-3.08,-9.397,0.067,-3.233,-3.85,1.68,-6.86
29227.0,-9.373,-0.038,-3.408,-9.244,-0.285,-3.063,10.5,2.87,-7.42
,-9.198,0.041,-3.372,-9.261,-0.218,-2.989,11.34,3.08,-7.0
,-9.316,0.0,-3.297,-9.368,0.05,-3.063,11.69,3.22,-6.86
,-9.366,-0.031,-3.269,-9.325,0.172,-3.094,11.2,3.29,-7.21
29303.0,-9.172,0.211,-2.994,-9.411,0.491,-2.843,5.6,4.27,-7.91
,-9.273,0.23,-2.967,-9.294,-0.069,-2.898,3.71,4.34,-8.4
,-9.397,0.392,-2.828,-9.083,-0.534,-3.056,1.26,4.69,-9.45
,-9.435,0.512,-2.812,-9.287,-0.467,-3.175,-2.87,4.97,-10.64
29379.0,-9.34,0.017,-3.221,-9.421,0.546,-3.398,-5.39,7.14,-11.83
,-9.495,-0.022,-3.211,-9.351,0.648,-3.542,-6.23,7.77,-12.53
,-9.426,0.249,-3.168,-9.227,0.067,-3.697,-7.91,7.98,-13.51
,-9.284,0.424,-3.254,-9.103,-0.732,-3.632,-8.12,8.12,-14.21
29455.0,-9.15,-0.632,-3.532,-9.383,0.436,-3.329,2.31,9.31,-15.75
,-9.39,0.019,-3.455,-9.182,0.593,-3.57,6.23,9.8,-16.24
,-9.43,0.201,-3.307,-9.239,0.333,-3.793,5.04,10.22,-16.94
,-9.347,0.172,-3.211,-9.313,-0.187,-3.888,3.08,10.29,-17.99
29530.0,-9.186,-0.419,-3.881,-9.153,-0.845,-3.855,3.71,10.64,-22.05
,-9.177,-0.139,-3.917,-9.311,-0.175,-4.046,8.4,10.57,-22.61
,-9.074,-0.287,-3.948,-9.076,-0.352,-4.137,8.33,10.64,-23.31
,-8.887,-0.948,-3.865,-8.971,-0.579,-3.977,7.77,11.13,-23.59
29606.0,-9.105,-0.354,-3.967,-9.17,-0.586,-3.12,14.21,10.5,-28.77
,-9.172,-0.321,-3.762,-9.127,-1.134,-3.008,15.96,10.78,-29.75
,-9.074,-0.479,-3.396,-9.239,-0.962,-3.195,17.22,11.27,-30.31
,-9.198,-0.325,-3.218,-9.273,-0.488,-3.472,18.55,11.76,-31.36
29682.0,-9.294,-0.33,-3.781,-9.407,-1.022,-4.3,29.12,15.19,-35.98
,-9.263,-0.847,-3.888,-9.418,-1.249,-4.475,26.95,15.47,-37.31
,-9.153,-1.35,-3.96,-9.485,-1.603,-4.637,28.28,15.47,-38.15
,-9.392,-1.266,-4.027,-9.579,-1.85,-4.767,32.9,15.54,-38.43
29758.0,-9.651,-2.106,-4.728,-10.414,-1.936,-3.833,40.53,12.88,-39.13
,-9.911,-2.225,-4.463,-10.457,-2.472,-3.759,42.35,12.18,-38.85
,-10.194,-1.996,-4.164,-10.51,-2.982,-3.872,42.77,11.13,-38.57
,-10.349,-1.843,-3.927,-10.328,-2.852,-3.874,40.46,10.22,-38.92
29833.0,-10.297,-3.001,-4.092,-9.421,-2.74,-4.537,34.23,10.29,-40.25
,-10.026,-2.809,-4.295,-9.206,-3.092,-4.458,36.75,10.36,-39.83
,-9.883,-2.369,-4.329,-8.966,-2.891,-4.463,36.82,9.52,-38.99
,-9.655,-2.436,-4.384,-8.851,-2.467,-4.405,34.58,7.98,-38.99
29909.0,-8.698,-2.161,-4.274,-8.291,-2.69,-3.922,34.65,-0.77,-31.5
,-8.681,-1.816,-4.233,-8.035,-2.97,-3.776,32.83,-2.59,-29.19
,-8.646,-1.73,-4.142,-7.858,-2.852,-3.561,30.1,-4.62,-26.81
,-8.442,-2.113,-4.003,-7.885,-2.522,-3.431,27.44,-5.74,-23.94
29984.0,-7.806,-1.728,-3.326,-7.262,-1.089,-3.455,57.61,-5.32,4.48
,-7.818,-1.161,-3.295,-7.387,-1.11,-3.905,59.57,-4.48,10.85
,-7.808,-1.046,-3.305,-8.028,-1.546,-4.714,58.66,-3.01,16.31
,-7.653,-1.216,-3.271,-8.272,-0.859,-4.367,57.33,-0.63,21.63
30060.0,-8.244,1.12,-3.754,-8.22,0.584,-3.381,63.56,13.23,47.39
,-8.126,2.568,-2.776,-8.679,-0.902,-3.47,48.23,11.83,49.77
,-8.014,2.941,-3.183,-8.648,-1.424,-3.262,16.8,9.38,49.0
,-7.889,2.029,-3.501,-8.691,-1.405,-3.156,-15.75,7.49,49.07
30136.0,-8.72,-0.835,-3.044,-9.507,0.512,-4.056,-37.73,9.38,64.47
,-8.851,-0.055,-2.998,-9.82,-0.232,-4.496,-38.57,8.75,63.49
,-8.983,0.447,-3.4,-9.237,-2.12,-4.776,-46.13,7.7,61.95
,-9.22,0.768,-3.802,-8.966,-3.872,-4.369,-56.28,8.4,61.11
30212.0,-8.318,-5.197,-4.489,-8.744,-1.697,-4.707,-89.18,10.71,74.9
,-8.638,-5.027,-4.348,-9.34,-0.742,-4.853,-70.91,9.24,79.1
,-8.679,-4.118,-4.362,-9.533,0.081,-5.154,-51.87,5.74,79.38
,-8.574,-2.888,-4.714,-9.524,0.187,-5.592,-38.01,6.02,76.93
30288.0,-9.217,-0.488,-6.054,-9.074,-4.216,-5.504,-87.22,-9.03,40.95
,-9.115,-1.752,-5.949,-8.796,-4.499,-5.434,-103.74,-11.97,35.56
,-9.335,-2.977,-5.788,-8.842,-4.53,-5.463,-110.18,-14.21,31.85
,-9.428,-3.85,-5.425,-9.201,-4.214,-5.264,-109.55,-17.36,28.91
30363.0,-9.328,-3.362,-5.018,-9.016,-2.326,-4.482,-64.47,-21.98,27.86
,-9.1,-2.462,-4.53,-9.201,-2.67,-4.353,-57.54,-21.84,29.4
,-8.851,-2.166,-4.389,-8.914,-3.113,-4.525,-55.23,-20.86,30.31
,-8.947,-2.154,-4.525,-8.593,-3.448,-4.384,-53.2,-20.51,29.75
30439.0,-8.521,-3.606,-4.403,-10.158,-9.15,-4.75,-6.44,-17.71,22.61
,-8.547,-3.391,-4.07,-11.091,-12.211,-4.183,10.64,-17.85,22.12
,-8.614,-3.197,-5.604,-9.753,-10.651,-4.743,23.03,-19.25,20.23
,-8.318,-5.456,-5.623,-9.009,-5.867,-4.274,27.86,-20.51,22.19
30515.0,-7.856,-0.402,-4.36,-11.151,1.285,-1.895,149.73,-5.53,2.03
,-9.493,4.106,-4.013,-10.558,-1.709,-1.335,108.15,-1.61,10.99
,-11.421,6.013,-3.491,-10.067,-1.816,-1.424,35.49,-7.63,6.23
,-11.783,4.563,-2.704,-9.883,0.325,-1.85,-32.9,-16.73,-8.26
30591.0,-9.727,2.032,-2.015,-8.753,-0.237,-2.639,48.09,-3.85,1.26
,-9.581,3.25,-2.467,-8.818,-1.531,-2.678,51.31,-3.36,0.42
,-9.323,3.08,-2.702,-9.04,-1.814,-2.747,33.67,-2.66,-2.1
,-8.916,1.484,-2.565,-9.229,-1.601,-2.843,9.52,-2.59,-4.97
30666.0,-9.38,-1.213,-3.082,-9.586,0.407,-3.075,-9.87,-0.98,-3.15
,-9.524,-0.94,-3.171,-9.526,0.548,-2.946,-5.11,-0.42,-1.19
,-9.734,-0.476,-3.293,-9.469,0.572,-2.912,0.63,0.28,0.49
,-9.718,0.069,-3.216,-9.512,0.627,-2.95,5.25,0.56,1.75
30742.0,-9.459,0.57,-2.91,-9.631,-0.067,-2.91,10.01,2.03,2.94
,-9.536,0.479,-2.946,-9.919,-0.261,-3.02,7.98,2.03,2.38
,-9.619,0.187,-2.938,-10.234,-0.617,-3.077,5.6,2.17,1.89
,-9.586,-0.105,-2.919,-10.084,-0.328,-3.211,3.92,2.66,1.82
30818.0,-9.84,0.17,-2.917,-9.308,-0.763,-2.056,-9.1,0.42,2.24
,-9.696,0.704,-2.635,-8.887,-1.491,-2.309,-19.53,-3.29,1.4
,-9.32,0.337,-2.398,-9.44,-2.056,-2.687,-29.54,-5.74,0.35
,-9.378,-0.273,-2.221,-9.253,-2.74,-2.874,-36.05,-6.58,0.07
30894.0,-9.378,-2.776,-3.099,-9.201,-2.539,-4.602,-14.28,16.1,5.6
,-9.301,-2.395,-3.412,-9.107,-4.228,-5.219,-3.01,20.86,7.35
,-9.277,-2.082,-3.599,-8.923,-5.367,-5.561,6.44,24.64,7.42
,-9.349,-2.022,-4.011,-8.722,-5.497,-5.559,12.67,27.65,4.9
30969.0,-8.794,-4.903,-5.513,-8.708,-3.786,-4.582,50.75,33.39,-13.58
,-8.787,-4.599,-5.461,-8.763,-3.848,-4.508,56.56,31.78,-18.06
,-8.799,-4.24,-5.106,-9.048,-3.805,-4.659,58.73,30.87,-22.4
,-8.763,-3.793,-4.654,-9.17,-3.714,-4.903,58.59,29.68,-26.67
31045.0,-9.411,-3.637,-5.02,-9.536,-4.089,-4.937,49.07,26.18,-47.53
,-9.536,-4.221,-5.049,-10.084,-2.965,-4.922,48.79,24.71,-50.19
,-9.442,-5.049,-5.037,-10.05,-2.577,-4.958,51.03,22.96,-51.59
,-9.349,-4.968,-4.992,-10.053,-2.474,-4.714,60.55,19.39,-51.87
31120.0,-9.849,-3.049,-4.436,-10.038,-2.142,-4.271,78.33,4.97,-58.94
,-9.742,-3.623,-4.389,-10.002,-2.113,-4.267,80.22,3.64,-58.03
,-9.684,-3.568,-4.298,-9.957,-2.17,-4.214,88.34,1.68,-57.61
,-9.899,-2.711,-4.183,-9.799,-2.338,-4.145,99.4,-0.63,-57.75
31196.0,-9.792,-2.393,-3.85,-9.916,-0.526,-3.532,108.5,-14.42,-59.36
,-10.007,-2.048,-3.525,-9.737,-0.335,-3.137,112.63,-18.83,-59.43
,-10.206,-1.539,-3.661,-9.591,-0.45,-2.986,113.68,-24.5,-59.43
,-10.043,-1.115,-3.594,-9.505,-0.457,-3.118,109.2,-29.33,-58.94
31272.0,-9.268,-0.182,-2.666,-8.557,0.854,-2.426,55.23,-46.27,-56.42
,-9.115,-0.146,-2.58,-8.358,0.503,-2.362,42.77,-47.39,-55.3
,-8.538,0.098,-2.268,-8.124,0.132,-2.233,30.87,-47.88,-54.88
,-8.507,0.675,-1.862,-7.997,-0.282,-1.929,20.02,-47.11,-54.32
31348.0,-7.93,-0.78,-1.618,-7.222,0.294,-1.326,-53.83,-30.38,-48.16
,-7.856,-0.914,-1.656,-7.21,0.201,-1.634,-59.78,-25.48,-47.25
,-7.461,-0.744,-1.491,-6.609,-1.414,-2.132,-66.08,-19.95,-45.15
,-7.205,-0.316,-1.237,-6.937,-3.472,-2.644,-71.96,-14.35,-40.74
31424.0,-7.167,-4.805,-2.706,-7.322,-3.386,-4.156,-83.51,24.29,-7.84
,-7.363,-4.252,-3.077,-7.475,-3.807,-4.592,-55.09,29.33,4.83
,-7.289,-2.474,-3.51,-7.363,-3.187,-5.059,-34.02,32.76,14.07
,-7.483,-2.489,-3.764,-7.468,-2.706,-5.394,-26.53,34.72,19.81
31499.0,-7.516,-2.472,-5.647,-8.806,-4.295,-4.582,-10.36,32.06,37.87
,-7.82,-3.391,-5.757,-9.328,-1.436,-4.494,-19.95,29.4,37.45
,-8.076,-4.317,-5.497,-9.6,0.931,-4.087,-22.54,25.97,36.82
,-8.241,-5.001,-5.13,-9.684,1.082,-3.692,-14.56,22.96,38.43
31575.0,-9.591,-0.641,-3.195,-10.706,-2.934,-3.01,-50.26,8.19,37.17
,-9.545,-2.28,-2.639,-10.708,-2.462,-3.606,-55.23,7.98,37.8
,-9.844,-3.087,-2.429,-10.9,-2.271,-4.393,-48.02,9.03,42.07
,-10.569,-3.721,-2.615,-10.77,-2.874,-4.968,-34.58,9.8,47.39
31651.0,-10.569,-4.106,-5.267,-9.742,-3.329,-4.748,-21.91,7.0,53.13
,-10.089,-3.778,-5.578,-9.763,-3.096,-4.35,-20.16,4.69,51.1
,-9.895,-3.147,-5.437,-9.478,-3.489,-3.903,-22.54,1.61,46.76
,-9.545,-2.857,-5.059,-9.222,-3.199,-3.537,-34.79,-1.89,40.39
31727.0,-9.552,-2.082,-3.475,-9.505,-0.55,-4.247,-33.74,-4.76,39.97
,-9.416,-0.249,-3.695,-9.016,-1.512,-4.314,-22.05,-4.55,41.44
,-9.174,0.483,-3.826,-8.777,-1.627,-4.465,-21.84,-4.55,41.09
,-9.232,0.244,-4.034,-8.923,-1.441,-4.661,-27.09,-5.04,39.27
31802.0,-8.971,-1.685,-4.64,-9.155,-0.127,-4.305,-32.69,-8.96,33.18
,-9.203,-1.546,-4.434,-9.119,0.56,-4.386,-29.54,-9.03,33.18
,-9.294,-1.362,-4.338,-9.081,0.483,-4.47,-22.82,-9.03,32.97
,-9.287,-0.854,-4.3,-9.244,-0.034,-4.398,-14.07,-8.82,32.97
31878.0,-9.416,-0.4,-4.245,-9.194,-0.055,-4.142,-4.13,-9.45,27.44
,-9.273,-0.246,-4.212,-9.122,-0.275,-3.975,1.4,-9.45,26.39
,-9.194,-0.179,-4.188,-9.11,-0.342,-3.652,5.53,-9.45,25.62
,-9.16,-0.012,-4.08,-9.191,-0.51,-3.338,7.98,-9.45,25.06
31953.0,-9.038,-0.584,-3.197,-9.363,-0.854,-3.465,6.44,-9.24,20.72
,-8.995,-0.711,-2.97,-9.206,-1.417,-3.465,5.74,-8.75,20.09
,-9.273,-0.105,-3.087,-9.002,-1.474,-3.391,5.18,-8.61,18.76
,-9.5,0.031,-3.35,-8.775,-0.601,-3.333,0.63,-8.19,16.94
32029.0,-9.062,0.165,-3.226,-8.94,-0.213,-3.278,11.41,-5.74,17.5
,-9.526,0.792,-3.379,-8.94,0.261,-3.183,4.97,-6.23,15.33
,-9.689,0.275,-3.412,-9.148,0.514,-3.058,-4.2,-6.23,13.72
,-9.155,-0.409,-3.245,-9.533,0.383,-2.931,-7.21,-5.39,13.3
32105.0,-9.418,0.0,-2.797,-9.555,0.371,-3.128,-11.06,-3.71,10.57
,-9.246,-0.258,-2.651,-9.399,-0.213,-3.41,-10.22,-2.24,10.08
,-9.438,0.235,-2.788,-9.014,-0.78,-3.527,-8.05,-1.68,9.59
,-9.56,0.584,-2.955,-9.177,-0.723,-3.632,-8.96,-1.19,8.75
32181.0,-9.409,-0.263,-3.762,-9.261,-0.397,-3.606,-0.07,0.56,9.17
,-9.402,0.158,-3.778,-9.284,-0.184,-3.379,0.21,0.7,8.96
,-9.299,-0.144,-3.685,-9.261,0.101,-3.151,-1.68,0.63,8.82
,-9.263,-0.419,-3.637,-9.366,0.419,-3.077,-0.28,0.77,9.03
32257.0,-9.471,0.524,-3.144,-9.06,0.507,-3.687,3.36,2.03,8.82
,-9.457,0.392,-3.297,-9.32,1.225,-3.829,2.1,2.66,8.61
,-9.234,0.019,-3.427,-9.337,1.192,-3.506,3.43,2.8,8.89
,-9.062,0.404,-3.582,-8.897,-0.656,-3.326,6.65,2.24,9.03
32332.0,-9.174,-3.264,-3.314,-9.744,0.979,-2.565,-18.06,-0.56,-3.92
,-8.988,0.014,-3.482,-9.928,1.46,-2.826,-11.83,-0.35,-1.68
,-9.761,4.135,-3.178,-9.569,1.488,-3.096,-20.09,-1.54,4.27
,-9.672,2.931,-2.615,-9.375,-0.103,-3.264,-33.32,-0.7,3.43
32408.0,-9.483,-0.988,-3.774,-9.005,-1.072,-4.731,2.38,4.9,-0.49
,-9.407,-1.007,-4.35,-8.957,0.347,-4.611,2.94,4.06,-1.26
,-9.17,-1.802,-4.566,-8.971,1.235,-4.422,-0.21,3.85,-1.4
,-8.971,-2.108,-4.618,-9.002,1.374,-4.051,2.1,3.64,-0.63
32484.0,-8.897,0.945,-3.821,-9.299,-0.663,-3.08,0.42,-2.87,0.0
,-9.127,0.536,-3.544,-9.378,-0.718,-2.879,2.59,-3.43,-0.07
,-9.172,0.323,-3.362,-9.402,-0.445,-2.788,3.64,-4.06,-0.14
,-9.304,-0.122,-3.252,-9.198,-0.471,-2.632,1.96,-3.78,-0.28
32560.0,-9.191,-0.474,-2.513,-9.055,-0.256,-3.446,-7.49,0.28,-0.28
,-9.497,0.153,-2.623,-9.182,-0.392,-3.527,-8.68,0.91,-0.28
,-9.627,0.725,-2.895,-9.383,0.505,-3.752,-11.62,1.61,-1.12
,-9.304,0.414,-3.235,-9.251,1.158,-3.922,-16.73,2.1,-1.82
32635.0,-9.055,0.357,-4.133,-9.873,0.809,-3.979,-19.53,-0.28,-3.08
,-8.512,-1.137,-3.999,-9.373,0.857,-3.795,-23.66,-0.07,-2.1
,-8.76,-2.051,-3.874,-9.091,-0.134,-3.513,-15.75,0.14,0.07
,-9.574,-0.751,-3.922,-9.261,-0.436,-3.46,-1.61,-0.14,1.26
32711.0,-9.536,0.206,-3.348,-9.663,0.816,-2.618,-2.45,0.28,-1.26
,-9.646,1.184,-3.151,-9.787,1.716,-2.778,-0.56,0.91,-1.89
,-9.505,1.084,-3.027,-9.655,1.814,-3.106,-4.9,1.89,-2.87
,-9.464,0.558,-2.759,-9.392,1.077,-3.486,-6.09,2.87,-3.22
32786.0,-9.253,0.12,-3.798,-9.241,0.821,-3.623,-1.26,5.39,-8.26
,-9.256,-0.335,-3.924,-9.141,0.529,-3.498,7.7,5.81,-7.56
,-9.328,0.002,-3.86,-9.143,0.117,-3.458,16.87,5.88,-7.42
,-9.368,0.732,-3.728,-9.172,-0.294,-3.386,19.04,5.53,-7.98
32862.0,-9.146,-0.445,-3.283,-9.308,0.067,-2.757,7.28,4.06,-10.29
,-9.246,-0.096,-3.113,-9.332,0.141,-2.84,9.73,4.41,-10.08
,-9.483,0.292,-2.938,-9.32,0.115,-3.099,8.68,5.04,-10.71
,-9.304,0.297,-2.781,-9.217,-0.172,-3.276,5.11,5.74,-11.34
32938.0,-9.206,-0.318,-3.443,-9.143,0.127,-3.845,1.75,8.61,-13.51
,-9.306,0.12,-3.609,-9.186,-0.141,-3.826,4.13,8.75,-14.14
,-9.241,0.335,-3.539,-9.258,-0.124,-3.903,3.57,9.03,-14.7
,-9.296,0.23,-3.735,-9.294,-0.349,-3.939,1.47,8.75,-15.75
33014.0,-9.072,-0.328,-3.798,-9.311,0.12,-3.427,3.22,8.4,-18.06
,-9.11,-0.232,-3.743,-9.294,0.235,-3.333,5.25,8.4,-18.48
,-9.177,-0.244,-3.628,-9.263,0.249,-3.443,5.11,8.33,-19.25
,-9.234,-0.124,-3.374,-9.06,-0.144,-3.52,5.67,8.75,-19.67
33089.0,-9.198,-0.266,-3.611,-9.1,0.141,-4.147,7.14,10.85,-23.94
,-9.217,-0.261,-3.848,-9.079,0.0,-4.202,10.01,10.92,-24.99
,-9.117,-0.112,-3.917,-9.057,-0.244,-4.233,10.99,11.13,-25.69
,-9.136,0.017,-4.034,-9.124,-0.493,-4.085,11.62,10.92,-26.53
33165.0,-9.024,-0.244,-3.958,-9.105,-0.94,-3.573,15.89,10.08,-31.71
,-9.072,-0.445,-3.891,-9.112,-0.866,-3.116,15.82,10.22,-32.97
,-8.961,-0.905,-3.762,-9.213,-0.861,-2.453,16.31,10.57,-33.74
,-9.064,-0.952,-3.862,-9.32,-0.79,-2.063,19.25,10.99,-34.58
33241.0,-9.591,-0.558,-2.139,-9.598,-1.998,-4.807,29.26,16.73,-41.37
,-9.476,-0.948,-2.589,-9.809,-2.18,-5.355,28.77,18.55,-42.21
,-9.478,-1.402,-3.297,-9.914,-2.324,-5.552,30.38,20.23,-42.21
,-9.481,-1.898,-4.101,-10.246,-2.496,-5.635,33.04,21.07,-42.07
33317.0,-10.505,-2.742,-5.513,-10.11,-2.357,-4.448,47.74,16.94,-39.2
,-10.641,-3.089,-5.341,-10.055,-1.953,-4.219,52.01,16.03,-37.94
,-10.644,-3.08,-5.035,-9.94,-1.833,-4.058,56.49,16.1,-36.75
,-10.244,-3.281,-4.812,-9.84,-1.811,-3.958,60.83,14.91,-36.54
33393.0,-9.732,-1.993,-3.869,-8.959,-2.008,-4.166,51.38,10.08,-35.35
,-9.596,-2.02,-3.814,-9.139,-1.522,-4.377,49.35,9.17,-34.51
,-9.414,-2.087,-3.936,-9.127,-1.565,-4.444,48.16,7.84,-33.6
,-9.148,-2.012,-4.039,-8.942,-1.979,-4.384,46.9,6.51,-32.13
33468.0,-8.65,-2.448,-4.374,-7.899,-2.012,-3.821,36.75,-3.15,-18.48
,-8.502,-2.843,-4.338,-7.535,-1.414,-3.553,41.79,-4.62,-13.3
,-8.402,-2.888,-4.305,-7.313,-1.378,-3.565,49.42,-5.39,-6.51
,-8.198,-2.575,-4.204,-7.236,-1.541,-3.726,56.42,-6.72,0.28
33544.0,-7.066,-2.41,-4.458,-7.813,2.907,-4.075,68.18,-0.14,37.38
,-7.569,-3.223,-5.027,-7.676,3.209,-4.142,76.23,5.32,44.1
,-7.552,-2.45,-3.393,-7.818,1.821,-3.831,94.43,9.1,51.24
,-7.542,0.282,-2.699,-7.83,0.007,-3.714,107.52,10.85,55.3
33619.0,-7.765,-1.85,-3.372,-7.693,-2.527,-3.254,-27.65,2.59,48.3
,-7.789,-2.692,-3.154,-8.057,-3.307,-3.226,-26.67,2.87,50.61
,-8.011,-2.103,-3.24,-8.37,-3.338,-3.034,-22.82,1.33,50.47
,-8.007,-1.914,-3.128,-8.906,-2.819,-3.281,-26.74,-0.21,49.35
33695.0,-9.048,-3.005,-3.482,-8.897,-2.091,-3.489,-21.0,9.17,58.17
,-8.813,-3.149,-3.106,-9.306,-1.388,-3.498,-23.31,10.29,59.99
,-8.55,-2.682,-3.46,-9.438,-0.268,-3.419,-23.94,10.08,61.04
,-8.402,-2.4,-3.558,-9.34,0.4,-3.613,-24.29,10.71,61.25
33771.0,-9.481,0.483,-4.073,-9.462,-2.879,-4.925,-75.74,6.44,37.31
,-9.452,0.007,-4.7,-9.629,-2.946,-4.855,-97.93,4.48,32.41
,-9.521,-1.034,-4.944,-9.359,-2.745,-4.721,-116.48,3.5,30.1
,-9.627,-2.206,-5.145,-9.493,-2.474,-4.707,-128.38,2.87,29.68
33847.0,-9.555,-2.34,-4.654,-9.227,-1.735,-4.58,-103.53,-4.9,33.74
,-9.428,-1.895,-4.456,-9.344,-2.221,-4.654,-98.21,-6.23,33.81
,-9.344,-1.551,-4.401,-9.165,-2.589,-5.106,-95.34,-7.77,33.81
,-9.399,-1.472,-4.57,-9.095,-2.958,-4.819,-95.2,-9.87,33.6
33922.0,-9.074,-3.252,-4.75,-8.756,-3.003,-4.585,-80.85,-18.13,31.99
,-9.122,-3.467,-4.783,-9.064,-2.886,-4.637,-71.96,-20.09,30.38
,-8.794,-3.405,-4.908,-9.072,-3.063,-4.499,-63.0,-22.19,28.63
,-8.653,-3.271,-4.566,-9.445,-3.278,-4.556,-53.62,-24.01,27.65
33998.0,-9.586,-3.692,-4.159,-8.392,-11.895,-3.47,-10.57,-30.59,25.2
,-9.605,-3.91,-3.47,-9.603,-16.047,-3.697,8.4,-27.93,25.2
,-9.284,-4.099,-4.188,-9.306,-12.252,-3.336,27.44,-25.55,26.95
,-8.433,-5.87,-4.783,-7.55,-3.719,-4.52,37.17,-23.66,30.31
34073.0,-7.932,4.456,-5.319,-10.246,-1.048,-2.218,147.28,10.57,2.17
,-10.318,7.454,-4.779,-10.28,-2.175,-2.123,49.35,3.99,2.17
,-10.809,6.08,-3.738,-10.974,-0.625,-2.716,-48.23,-7.84,-9.66
,-10.392,2.62,-2.804,-10.866,1.697,-3.142,-105.63,-11.83,-19.88
34149.0,-9.588,3.281,-3.235,-8.928,-0.469,-3.235,70.0,1.61,5.18
,-9.186,3.022,-3.218,-9.088,-1.218,-3.159,66.01,1.12,1.82
,-9.098,1.673,-3.104,-9.253,-1.323,-3.123,47.04,0.28,-2.24
,-8.916,0.536,-3.161,-9.318,-1.208,-3.166,23.73,-1.26,-3.92
34225.0,-9.392,-0.964,-3.147,-9.641,0.543,-3.068,-11.2,-2.03,-3.92
,-9.55,-0.474,-3.123,-9.43,0.5,-2.989,-3.92,-1.4,-2.03
,-9.694,0.136,-3.171,-9.354,0.383,-2.989,3.71,-1.12,-0.84
,-9.737,0.467,-3.166,-9.497,0.282,-3.044,8.89,-0.35,-0.07
34301.0,-9.643,0.237,-3.18,-9.576,0.06,-3.056,7.0,0.42,-0.42
,-9.55,0.081,-3.151,-9.782,0.232,-3.19,4.06,0.56,-0.28
,-9.342,0.01,-3.075,-9.873,0.055,-3.29,2.24,0.56,-0.28
,-9.342,-0.022,-3.072,-9.725,-0.395,-3.329,1.4,1.12,-0.21
34377.0,-9.476,-0.648,-3.374,-10.012,-0.321,-3.147,-6.58,0.77,0.98
,-9.497,-0.689,-3.467,-9.768,-0.163,-2.838,-3.57,0.84,2.24
,-9.739,-0.653,-3.376,-9.548,-0.421,-2.553,-1.82,0.56,3.01
,-10.045,-0.617,-3.24,-9.488,-0.677,-2.503,-2.66,0.14,3.36
34452.0,-9.682,-1.017,-2.479,-9.215,-1.792,-3.295,-13.51,-0.84,2.73
,-9.198,-1.366,-2.637,-9.043,-1.85,-3.659,-13.58,1.33,1.33
,-9.428,-1.519,-2.67,-9.213,-1.689,-3.908,-13.65,3.08,1.89
,-9.335,-1.582,-3.053,-9.136,-1.795,-4.178,-13.23,4.9,2.87
34528.0,-9.265,-2.706,-4.247,-8.847,-3.338,-4.506,17.01,12.25,-0.42
,-8.971,-3.592,-4.379,-8.782,-3.199,-4.393,24.22,13.3,-4.48
,-9.067,-3.953,-4.618,-8.863,-3.12,-4.135,33.25,13.16,-7.21
,-9.081,-3.8,-4.625,-9.036,-3.034,-4.068,40.32,10.85,-9.24
34604.0,-9.045,-3.12,-4.054,-9.368,-4.202,-3.702,38.64,5.04,-29.47
,-8.911,-3.568,-3.984,-9.404,-3.601,-3.855,36.26,5.6,-33.39
,-9.028,-4.13,-3.888,-9.646,-3.23,-3.896,37.38,6.86,-35.84
,-9.196,-4.353,-3.829,-9.739,-3.218,-3.965,42.7,7.49,-37.31
34680.0,-9.557,-3.388,-3.929,-9.837,-3.348,-3.754,70.84,6.72,-44.66
,-9.574,-3.482,-3.757,-10.031,-2.726,-3.879,76.09,6.3,-45.64
,-9.564,-3.728,-3.757,-10.122,-2.46,-3.853,81.97,5.81,-46.13
,-9.708,-3.683,-3.728,-10.12,-2.501,-3.8,88.62,5.81,-46.27
34755.0,-10.06,-2.773,-3.642,-10.249,-2.28,-3.53,104.02,1.68,-48.93
,-9.94,-2.948,-3.53,-9.636,-1.969,-3.161,105.35,0.07,-48.86
,-10.012,-2.702,-3.412,-9.273,-1.893,-3.173,108.36,-2.45,-49.07
,-10.232,-2.374,-3.613,-9.363,-2.558,-2.84,109.69,-5.74,-49.98
34831.0,-9.859,-2.326,-2.819,-9.387,-1.333,-3.017,85.47,-10.64,-48.65
,-9.974,-1.089,-3.113,-9.215,-2.044,-2.809,84.91,-12.81,-50.54
,-9.78,-0.318,-3.331,-9.067,-2.347,-2.584,73.92,-15.33,-53.13
,-9.608,-0.565,-3.23,-8.988,-2.106,-2.572,57.12,-17.36,-54.67
34906.0,-9.069,-1.228,-2.659,-8.174,-1.357,-2.067,34.86,-25.27,-50.19
,-9.167,-0.797,-2.67,-7.851,-1.479,-1.651,29.19,-27.09,-50.54
,-9.007,-0.747,-2.264,-8.088,-1.015,-2.003,21.21,-27.65,-50.26
,-8.488,-0.835,-2.12,-8.162,-0.933,-2.065,11.34,-27.51,-49.63
34982.0,-7.837,-0.797,-1.821,-7.643,0.416,-1.385,-24.57,-16.8,-40.11
,-7.59,-0.342,-1.876,-7.631,0.773,-1.56,-35.35,-13.23,-38.22
,-7.425,-0.235,-1.886,-7.59,0.503,-2.173,-45.36,-9.52,-36.4
,-7.53,0.146,-1.637,-6.779,-1.773,-2.362,-54.39,-5.25,-33.81
35058.0,-7.107,-4.212,-2.857,-7.574,-3.563,-4.044,-105.84,21.35,-14.21
,-7.638,-5.949,-2.541,-7.806,-4.056,-3.922,-82.81,26.32,-1.05
,-7.724,-4.965,-2.948,-8.095,-3.568,-4.056,-44.94,28.77,12.32
,-7.767,-3.372,-3.508,-7.648,-2.601,-4.736,-17.57,30.24,18.55
35134.0,-7.956,-1.962,-5.217,-8.729,-3.714,-4.36,-0.91,33.11,33.67
,-8.217,-2.213,-5.489,-8.904,-3.877,-4.111,-13.58,30.38,35.56
,-8.593,-2.197,-5.415,-9.749,-2.053,-4.161,-22.89,26.53,34.93
,-8.863,-2.587,-5.016,-10.079,-0.278,-3.795,-28.49,23.1,34.72
35210.0,-10.177,-0.213,-3.273,-9.356,-1.297,-3.419,-17.29,13.09,49.14
,-10.096,-1.452,-2.907,-9.416,-1.653,-3.671,-22.96,12.39,50.05
,-9.916,-2.221,-2.821,-9.751,-1.998,-4.496,-20.23,11.62,50.61
,-9.488,-2.017,-2.967,-10.263,-3.34,-4.987,-13.23,11.13,51.17
35285.0,-10.531,-5.42,-5.461,-11.503,-3.963,-4.503,-44.31,0.84,45.08
,-11.46,-6.748,-5.738,-7.449,-0.438,-3.798,-34.93,-1.82,44.45
,-13.652,-7.782,-5.102,-6.341,-0.766,-3.269,-23.94,-4.55,42.63
,-14.489,-7.162,-4.661,-7.997,-1.728,-2.907,-19.74,-6.02,38.85
35361.0,-9.512,0.127,-2.898,-8.897,-0.883,-3.453,-22.33,-7.28,38.43
,-9.887,1.747,-2.824,-9.194,-0.663,-3.941,-18.06,-6.72,40.95
,-10.06,0.842,-2.702,-9.256,-0.897,-4.106,-22.47,-5.53,40.88
,-9.555,-0.507,-3.096,-8.945,-0.955,-4.099,-23.31,-4.76,39.06
35437.0,-9.05,-1.094,-3.977,-9.282,-0.287,-3.108,-45.29,-9.45,27.16
,-8.859,-1.259,-3.699,-9.28,-0.397,-2.982,-47.67,-10.22,26.18
,-9.098,-1.043,-3.379,-9.476,-0.538,-2.864,-43.47,-10.15,26.39
,-9.34,-0.62,-3.209,-9.493,-0.316,-2.883,-36.33,-9.38,25.62
35513.0,-9.258,-0.007,-2.924,-9.459,0.223,-3.458,-28.07,-5.74,20.93
,-9.418,-0.079,-2.855,-9.062,-0.426,-3.592,-29.12,-4.83,19.74
,-9.452,0.055,-2.962,-9.131,-0.821,-3.671,-28.56,-3.92,18.27
,-9.507,0.304,-3.247,-9.347,-0.684,-3.972,-27.58,-3.29,17.01
35588.0,-9.359,0.223,-4.125,-9.115,-1.24,-4.13,-17.08,-4.13,13.93
,-9.146,0.663,-4.413,-9.215,-0.979,-4.164,-21.77,-5.04,13.09
,-9.275,-0.096,-4.295,-9.194,-0.718,-3.982,-26.11,-5.74,12.04
,-9.153,-0.866,-4.283,-9.239,-0.512,-3.857,-23.66,-5.81,11.48
35664.0,-9.335,-0.512,-3.781,-9.225,-0.62,-3.75,-3.57,-5.81,11.83
,-9.28,-0.409,-3.814,-9.294,-0.156,-3.496,-2.03,-5.74,11.69
,-9.11,-0.488,-3.766,-9.351,0.402,-3.281,0.21,-5.6,12.04
,-9.095,-0.498,-3.831,-9.567,0.5,-2.915,3.43,-5.6,12.46
35739.0,-9.569,0.581,-2.747,-9.347,-0.83,-2.838,-7.07,-6.93,8.4
,-9.402,0.263,-2.742,-9.34,-0.531,-2.986,-10.22,-6.44,7.91
,-9.335,-0.321,-2.687,-9.287,-0.522,-2.962,-9.52,-5.67,7.91
,-9.304,-0.744,-2.871,-9.292,-0.474,-2.9,-5.11,-4.62,8.33
35815.0,-9.363,-0.443,-2.912,-9.359,-0.103,-2.862,1.47,-0.77,9.66
,-9.323,-0.409,-2.857,-9.284,0.244,-2.86,1.89,-0.28,10.08
,-9.172,-0.419,-2.819,-9.454,0.747,-2.883,3.01,0.56,10.71
,-9.313,-0.297,-2.828,-9.435,1.046,-3.041,4.55,1.05,10.99
35891.0,-8.818,-0.184,-3.388,-10.285,0.05,-3.362,-7.42,-0.28,3.08
,-8.997,-1.012,-3.398,-10.189,-1.407,-3.175,-8.4,-1.54,0.98
,-9.631,2.271,-3.47,-9.213,-0.017,-3.19,-6.3,-2.31,5.6
,-9.49,3.709,-3.594,-9.167,0.378,-3.137,-20.93,-2.66,8.47
35967.0,-9.567,0.112,-3.281,-9.167,-0.928,-3.766,9.1,3.92,4.69
,-9.39,-0.512,-3.307,-9.325,0.352,-3.963,6.09,4.34,4.83
,-9.174,-1.161,-3.343,-9.366,1.108,-4.085,5.04,4.62,5.11
,-9.146,-1.675,-3.58,-9.268,1.122,-4.003,7.14,4.06,4.83
36042.0,-9.296,0.584,-3.936,-9.337,-0.022,-3.029,-3.85,-0.63,2.94
,-9.04,-0.335,-3.659,-9.576,0.335,-2.74,-0.49,-0.49,3.36
,-9.15,-0.871,-3.446,-9.407,0.165,-2.716,7.91,-0.35,4.13
,-9.232,-0.601,-3.23,-9.299,-0.304,-2.726,14.21,-0.28,4.48
36118.0,-9.227,-0.761,-2.907,-9.636,0.577,-3.156,-4.76,1.19,2.31
,-9.088,-0.349,-3.089,-9.636,0.66,-3.195,-3.29,1.47,2.8
,-9.371,0.309,-3.281,-9.402,1.175,-3.482,-2.87,2.1,2.87
,-9.526,0.711,-3.297,-9.172,0.972,-3.731,-6.72,2.59,2.03
36194.0,-9.179,0.361,-3.649,-9.375,1.046,-2.745,-15.75,1.19,-2.38
,-9.454,0.06,-3.527,-9.605,0.804,-2.735,-13.58,0.98,-2.73
,-9.521,0.471,-3.259,-9.682,0.952,-2.948,-8.96,0.91,-3.71
,-9.514,1.103,-3.003,-9.273,0.95,-3.185,-7.7,1.26,-4.62
36270.0,-9.435,0.651,-3.489,-9.282,0.084,-3.477,-6.37,2.38,-7.84
,-9.373,0.273,-3.625,-9.435,0.062,-3.537,-4.62,2.59,-8.12
,-9.229,-0.024,-3.594,-9.227,-0.323,-3.422,-0.91,3.15,-8.26
,-9.296,0.045,-3.565,-9.203,-0.519,-3.348,2.66,3.36,-8.05
36346.0,-9.383,0.01,-3.398,-9.203,-0.151,-2.893,11.41,3.99,-7.7
,-9.186,0.22,-3.269,-9.337,0.05,-2.91,9.73,4.13,-7.91
,-9.349,0.156,-3.128,-9.387,0.179,-2.986,7.28,3.99,-8.19
,-9.383,-0.096,-3.049,-9.273,-0.266,-3.01,5.67,4.13,-8.61
36421.0,-9.217,-0.404,-2.965,-9.457,0.208,-3.171,1.61,6.79,-9.94
,-9.351,-0.299,-2.967,-9.409,0.345,-3.285,3.57,7.42,-10.08
,-9.442,-0.005,-3.082,-9.294,-0.055,-3.501,3.5,7.77,-10.64
,-9.411,0.043,-3.07,-9.134,-0.323,-3.697,2.45,8.4,-11.13
36497.0,-9.21,-0.364,-3.833,-9.526,0.378,-3.654,4.62,8.54,-12.88
,-9.217,-0.196,-3.877,-9.383,0.565,-3.879,5.81,8.19,-13.23
,-9.244,-0.22,-3.798,-9.189,0.101,-3.869,6.51,8.4,-13.58
,-9.275,-0.024,-3.673,-9.119,-0.201,-3.877,8.47,8.47,-14.0
36572.0,-9.265,0.002,-3.879,-9.371,-0.189,-3.656,14.56,7.14,-17.64
,-9.225,0.213,-3.786,-9.119,-0.4,-3.637,13.93,6.51,-18.41
,-9.17,0.017,-3.659,-9.127,-0.428,-3.719,10.99,6.37,-19.53
,-9.316,-0.081,-3.546,-9.103,-0.744,-3.812,9.73,6.23,-20.65
36648.0,-9.076,-0.924,-3.75,-9.158,-0.026,-3.836,10.92,6.51,-23.94
,-9.213,-0.778,-3.673,-9.124,-0.644,-3.788,15.19,6.58,-24.5
,-9.284,-0.069,-3.733,-9.1,-0.943,-3.714,18.06,6.51,-25.48
,-9.28,0.383,-3.783,-8.988,-1.206,-3.611,16.73,5.95,-26.67
36724.0,-9.15,-0.955,-3.405,-9.27,-0.548,-3.36,25.27,7.21,-30.03
,-9.177,-0.462,-3.345,-9.241,-0.725,-3.419,26.25,7.42,-31.64
,-9.093,-0.132,-3.271,-9.091,-0.718,-3.288,23.17,7.7,-33.32
,-9.215,-0.292,-3.262,-9.251,-0.878,-2.994,19.39,8.05,-34.86
36800.0,-9.284,-0.682,-2.85,-9.375,-2.285,-3.4,32.97,11.9,-41.65
,-9.246,-0.711,-2.735,-9.775,-2.3,-3.778,30.24,12.18,-42.49
,-9.284,-1.376,-2.922,-9.938,-2.532,-4.066,27.37,12.81,-43.33
,-9.438,-2.029,-3.132,-10.081,-3.262,-4.221,28.21,14.0,-44.17
36875.0,-10.254,-3.874,-4.391,-10.648,-3.209,-4.365,36.82,14.7,-40.81
,-10.404,-4.247,-4.393,-10.316,-3.077,-4.228,41.58,14.77,-38.43
,-10.577,-4.099,-4.343,-10.146,-3.096,-4.118,47.39,14.28,-36.33
,-10.696,-3.829,-4.226,-10.074,-3.087,-4.235,51.66,13.37,-35.77
36951.0,-10.144,-3.443,-4.446,-9.179,-2.247,-4.824,26.88,5.04,-44.45
,-10.065,-3.618,-4.759,-9.019,-1.395,-4.654,25.55,3.15,-44.24
,-9.684,-3.659,-4.901,-8.839,-1.649,-4.417,25.13,0.84,-42.42
