session_id,Timestamp,AccX,AccY,AccZ,GyroX,GyroY,GyroZ,MagnX,MagnY,MagnZ,AccX_corr,GyroX_corr,MagnX_corr,AccY_corr,GyroY_corr,MagnY_corr,AccZ_corr,GyroZ_corr,MagnZ_corr,AccNorm,GyroNorm,AccNorm_filt,GyroNorm_filt,KneeAngle_fused_deg,KneeAngle_fused_filt_deg,KneeValgus_fused_deg,KneeValgus_filt_deg
H1_walk_20251205_050754,63661.0,-9.356,0.077,-3.362,-9.337,0.057,-3.343,3.29,1.12,0.42,0.16979230769230824,0.18818461538461406,0.707673076923077,0.38478269230769235,0.36922499999999997,-0.45944230769230754,-0.6124019230769226,-0.5987153846153848,-0.32011538461538463,0.742915381076034,0.7281487910225514,0.7148930091238743,0.7100714281879287,0.0,-0.2879166001556544,0.0,0.5940784190507393
H1_walk_20251205_050754,,-9.323,0.062,-3.319,-9.33,0.077,-3.302,3.22,1.19,0.42,0.20279230769230772,0.19518461538461374,0.6376730769230772,0.36978269230769234,0.389225,-0.3894423076923077,-0.5694019230769225,-0.5577153846153848,-0.32011538461538463,0.7085778077199388,0.7075588915026976,0.7145493523341697,0.7078514351880244,-0.04922850838253121,-0.3131808707219982,0.09849053126370413,0.6428078357328281
H1_walk_20251205_050754,,-9.318,0.101,-3.36,-9.32,0.045,-3.3,2.87,1.19,0.21,0.2077923076923085,0.20518461538461352,0.2876730769230771,0.4087826923076924,0.35722499999999996,-0.3894423076923077,-0.6104019230769224,-0.5557153846153846,-0.5301153846153847,0.7634601760160287,0.691758639782516,0.7168967744184597,0.7064986365095695,-0.09570103563950594,-0.33811288616920804,0.19869434303219113,0.6917380776062049
H1_walk_20251205_050754,,-9.335,0.105,-3.374,-9.325,0.014,-3.314,2.87,1.19,0.21,0.19079230769230726,0.20018461538461452,0.2876730769230771,0.4127826923076923,0.326225,-0.3894423076923077,-0.6244019230769227,-0.5697153846153848,-0.5301153846153847,0.7724435366326151,0.686347033452569,0.7160673817725555,0.7045503167304135,-0.13875863886296763,-0.3628072133274749,0.30064954368254604,0.7408391874783173
H1_walk_20251205_050754,63737.0,-9.366,0.053,-3.238,-9.363,-0.007,-3.202,2.59,1.47,0.35,0.15979230769230846,0.16218461538461426,0.007673076923076838,0.36078269230769233,0.30522499999999997,-0.10944230769230767,-0.48840192307692254,-0.45771538461538475,-0.39011538461538464,0.6278806981677783,0.5735586486193586,0.7129569087808288,0.7062463554830674,-0.18040647690358125,-0.38716607725925545,0.4029668258007295,0.7901427679918556
H1_walk_20251205_050754,,-9.337,-0.002,-3.204,-9.356,0.012,-3.204,2.52,1.68,0.28,0.18879230769230837,0.16918461538461393,-0.062326923076923,0.30578269230769234,0.324225,0.10055769230769229,-0.45440192307692273,-0.45971538461538497,-0.4601153846153846,0.5793329768403778,0.5874380984920122,0.7091376485468429,0.7059264610550113,-0.23514915885493057,-0.4120624884703673,0.49834986494914624,0.8391577608091354
H1_walk_20251205_050754,,-9.344,0.041,-3.214,-9.344,0.036,-3.254,2.24,1.75,0.28,0.1817923076923087,0.1811846153846144,-0.3423269230769228,0.3487826923076923,0.34822499999999995,0.17055769230769235,-0.4644019230769225,-0.5097153846153848,-0.4601153846153846,0.6085778140443844,0.6433492743375718,0.7069005432208276,0.7071816439759767,-0.28267766955671486,-0.4372037693468158,0.5978151553951145,0.8880399344536954
H1_walk_20251205_050754,,-9.397,0.026,-3.187,-9.371,0.036,-3.355,1.82,1.82,0.28,0.12879230769230787,0.15418461538461337,-0.762326923076923,0.33378269230769236,0.34822499999999995,0.24055769230769242,-0.4374019230769224,-0.6107153846153848,-0.4601153846153846,0.5650829908219426,0.7197269115798147,0.7077357782221425,0.7066380728105544,-0.3188941266504568,-0.46249482922518653,0.7021282252077231,0.9368582807566319
H1_walk_20251205_050754,63813.0,-9.294,0.019,-3.408,-9.311,0.057,-3.431,1.68,2.31,0.28,0.23179230769230763,0.21418461538461386,-0.9023269230769231,0.32678269230769236,0.36922499999999997,0.7305576923076924,-0.6584019230769225,-0.6867153846153848,-0.4601153846153846,0.7707189463147892,0.8085667378515584,0.7083635762590403,0.708792678068604,-0.3790218569891923,-0.48776295425120175,0.7940684709389793,0.98570639799567
H1_walk_20251205_050754,,-9.32,0.041,-3.424,-9.306,0.065,-3.396,1.82,2.38,0.42,0.20579230769230783,0.21918461538461464,-0.762326923076923,0.3487826923076923,0.377225,0.8005576923076922,-0.6744019230769225,-0.6517153846153847,-0.32011538461538463,0.7866497277750619,0.7842662422868144,0.7075053872134182,0.7124906068669706,-0.4312932559207639,-0.513265511638563,0.8910980865146731,1.0344222413579507
H1_walk_20251205_050754,,-9.33,0.017,-3.446,-9.34,0.05,-3.463,2.38,2.24,0.56,0.19579230769230804,0.18518461538461395,-0.20232692307692313,0.32478269230769236,0.36222499999999996,0.6605576923076926,-0.6964019230769227,-0.7187153846153849,-0.18011538461538457,0.7929653608067307,0.8258644540619169,0.7091231014110804,0.7126309371450883,-0.48457914604565766,-0.5388335469433677,0.9872758942321725,1.0831202153199906
H1_walk_20251205_050754,,-9.294,0.014,-3.496,-9.335,0.043,-3.415,2.8,2.03,0.49,0.23179230769230763,0.19018461538461295,0.2176730769230768,0.32178269230769235,0.35522499999999996,0.45055769230769216,-0.7464019230769225,-0.6707153846153848,-0.25011538461538463,0.8452145323804132,0.7824411260368135,0.7118448552980992,0.7155219533330177,-0.5454602153639886,-0.564881877821856,1.0785272894459874,1.1315407721168664
H1_walk_20251205_050754,63888.0,-9.323,0.007,-3.376,-9.34,0.029,-3.317,2.87,1.47,0.49,0.20279230769230772,0.18518461538461395,0.2876730769230771,0.31478269230769235,0.341225,-0.10944230769230767,-0.6264019230769224,-0.572715384615385,-0.25011538461538463,0.7297891700142703,0.6919037174168786,0.7137375735623305,0.7153300121462527,-0.6017457128532164,-0.5915372300016734,1.1729552171966442,1.1795622359002051
H1_walk_20251205_050754,,-9.395,0.0,-3.376,-9.33,0.005,-3.312,2.94,1.54,0.49,0.13079230769230854,0.19518461538461374,0.3576730769230769,0.30778269230769234,0.317225,-0.03944230769230761,-0.6264019230769224,-0.5677153846153846,-0.25011538461538463,0.7100818140680113,0.6789915261892697,0.7149303958658427,0.7146843809309639,-0.6416163880844675,-0.6184659527464623,1.2762902525999822,1.2274264380697977
H1_walk_20251205_050754,,-9.351,0.048,-3.386,-9.366,-0.014,-3.343,2.87,1.47,0.49,0.17479230769230725,0.15918461538461415,0.2876730769230771,0.3557826923076923,0.29822499999999996,-0.10944230769230767,-0.6364019230769227,-0.5987153846153848,-0.25011538461538463,0.7497606835985184,0.687559455011198,0.7152660275264998,0.7128614882588729,-0.687161102430146,-0.6702592179679239,1.3767614638334793,1.3243158622455147
H1_walk_20251205_050754,,-9.335,0.074,-3.309,-9.318,0.002,-3.305,2.59,1.4,0.42,0.19079230769230726,0.2071846153846142,0.007673076923076838,0.38178269230769235,0.314225,-0.17944230769230773,-0.5594019230769227,-0.560715384615385,-0.32011538461538463,0.703626492083993,0.6753255200430749,0.7156508967808912,0.7120240730498383,-0.7332221207014781,-0.7231296213545824,1.477355835560005,1.4203583994247662
H1_walk_20251205_050754,63963.0,-9.373,0.014,-3.309,-9.311,0.038,-3.352,2.03,1.75,0.49,0.15279230769230878,0.21418461538461386,-0.5523269230769232,0.32178269230769235,0.35022499999999995,0.17055769230769235,-0.5594019230769227,-0.6077153846153847,-0.25011538461538463,0.6631893409132021,0.7333829755255298,0.7112231622279109,0.7100397449239166,-0.7769079001677437,-0.7757482640666181,1.579000056208467,1.5165087879174322
H1_walk_20251205_050754,,-9.318,0.0,-3.276,-9.308,0.012,-3.326,2.03,1.82,0.56,0.2077923076923085,0.21718461538461398,-0.5523269230769232,0.30778269230769234,0.324225,0.24055769230769242,-0.5264019230769224,-0.5817153846153849,-0.18011538461538457,0.6442102245690833,0.7004882557780593,0.7043243384392684,0.7085613373651116,-0.8353014790592692,-0.8289577347181736,1.6724126387028928,1.6123247303250163
H1_walk_20251205_050754,,-9.342,-0.01,-3.317,-9.347,0.024,-3.367,1.89,1.82,0.7,0.1837923076923076,0.17818461538461428,-0.6923269230769231,0.29778269230769233,0.336225,0.24055769230769242,-0.5674019230769227,-0.6227153846153848,-0.040115384615384664,0.6666326473525519,0.7297749365533525,0.7052625623150146,0.7129906519100783,-0.8897468251228896,-0.8829784523525681,1.7679190600557781,1.707682684806368
H1_walk_20251205_050754,,-9.335,0.014,-3.369,-9.351,-0.031,-3.357,1.96,1.82,0.7,0.19079230769230726,0.17418461538461294,-0.622326923076923,0.32178269230769235,0.28122499999999995,0.24055769230769242,-0.6194019230769228,-0.612715384615385,-0.040115384615384664,0.7236052432471266,0.6963102206675302,0.7089409641790255,0.7154939022823767,-0.9430249669142289,-0.9365123426795404,1.8644068605124229,1.8033143968848306
H1_walk_20251205_050754,64039.0,-9.354,0.005,-3.376,-9.356,-0.034,-3.422,2.45,1.96,0.98,0.1717923076923089,0.16918461538461393,-0.13232692307692284,0.31278269230769234,0.27822499999999994,0.3805576923076923,-0.6264019230769224,-0.6777153846153849,0.23988461538461536,0.7209195369969967,0.7518847832295975,0.7143289988761676,0.7234707477093512,-0.9931254547715074,-0.9900414348762013,1.9626687427764318,1.8989383310519705
H1_walk_20251205_050754,,-9.347,-0.024,-3.352,-9.368,-0.024,-3.463,2.73,1.75,0.98,0.17879230769230858,0.15718461538461348,0.14767307692307696,0.2837826923076923,0.28822499999999995,0.17055769230769235,-0.6024019230769224,-0.7187153846153849,0.23988461538461536,0.689483417255352,0.7901471116326689,0.7233916188683959,0.7282695429182872,-1.048819216773149,-1.0437434731994233,2.0574549519658474,1.9945091513202537
H1_walk_20251205_050754,,-9.354,-0.014,-3.412,-9.332,-0.017,-3.367,2.73,1.68,1.19,0.1717923076923089,0.19318461538461307,0.14767307692307696,0.29378269230769233,0.29522499999999996,0.10055769230769229,-0.6624019230769225,-0.6227153846153848,0.4498846153846153,0.7447128137596467,0.715718203263678,0.7220326367197025,0.7286476504565548,-1.1013303236490724,-1.0971017729046193,2.1544756424848686,2.0902786342075865
H1_walk_20251205_050754,,-9.32,-0.031,-3.443,-9.287,-0.019,-3.429,2.8,1.47,1.19,0.20579230769230783,0.238184615384613,0.2176730769230768,0.27678269230769237,0.29322499999999996,-0.10944230769230767,-0.6934019230769226,-0.6847153846153846,0.4498846153846153,0.7744451946995311,0.7820153256553928,0.7227584852127673,0.7307526180580936,-1.1639934880270848,-1.1502329047376145,2.2452135784450054,2.1861567711196086
H1_walk_20251205_050754,64115.0,-9.263,0.012,-3.386,-9.342,-0.055,-3.381,3.29,1.19,1.61,0.2627923076923082,0.18318461538461328,0.707673076923077,0.31978269230769235,0.257225,-0.3894423076923077,-0.6364019230769227,-0.6367153846153846,0.8698846153846155,0.759162811903883,0.7107234236638932,0.7228990520793748,0.7262362112937313,-1.2312656823172907,-1.2032556147694855,2.3320773667003354,2.2820902928437996
H1_walk_20251205_050754,,-9.328,-0.026,-3.41,-9.344,-0.041,-3.362,3.22,1.05,1.75,0.1977923076923087,0.1811846153846144,0.6376730769230772,0.2817826923076923,0.271225,-0.5294423076923076,-0.6604019230769227,-0.6177153846153849,1.0098846153846153,0.7447509534536483,0.6985436005487442,0.718958847040835,0.7241850433687469,-1.291684021366187,-1.2556009607605345,2.424031492309614,2.378404654820643
H1_walk_20251205_050754,,-9.354,-0.036,-3.429,-9.325,0.067,-3.273,3.08,0.98,1.82,0.1717923076923089,0.20018461538461452,0.49767307692307705,0.27178269230769236,0.379225,-0.5994423076923077,-0.6794019230769224,-0.5287153846153849,1.0798846153846156,0.751641804253121,0.6807535815481843,0.7204313555658654,0.7255384438581568,-1.3466248957579992,-1.3074579795733168,2.519125028568637,2.4749550374463465
H1_walk_20251205_050754,,-9.306,-0.105,-3.403,-9.335,0.057,-3.29,3.08,0.84,1.96,0.21979230769230895,0.19018461538461295,0.49767307692307705,0.20278269230769236,0.36922499999999997,-0.7394423076923077,-0.6534019230769226,-0.5457153846153848,1.2198846153846152,0.7185844083341132,0.6857860960677976,0.71861028459512,0.7269523082824635,-1.423858996435652,-1.3594494144413356,2.5955964979242525,2.5713944852143547
H1_walk_20251205_050754,64191.0,-9.373,0.043,-3.273,-9.325,0.069,-3.218,2.38,0.77,2.03,0.15279230769230878,0.20018461538461452,-0.20232692307692313,0.3507826923076923,0.381225,-0.8094423076923076,-0.5234019230769227,-0.47371538461538476,1.289884615384615,0.6483390776385418,0.6401661085085557,0.7119217668629084,0.7285230792303211,-1.4637857461524353,-1.4110830847873619,2.6986044438415,2.667956066655578
H1_walk_20251205_050754,,-9.332,-0.019,-3.23,-9.342,-0.034,-3.3,2.03,0.77,2.1,0.19379230769230738,0.18318461538461328,-0.5523269230769232,0.2887826923076923,0.27822499999999994,-0.8094423076923076,-0.48040192307692253,-0.5557153846153846,1.3598846153846154,0.593074118127907,0.6479084369236393,0.7074586781346347,0.7326517982757252,-1.5222048758034092,-1.4630197072829072,2.7918640462797373,2.7642839224270737
H1_walk_20251205_050754,,-9.313,-0.024,-3.297,-9.289,0.007,-3.307,2.17,0.84,2.17,0.2127923076923075,0.2361846153846141,-0.4123269230769231,0.2837826923076923,0.319225,-0.7394423076923077,-0.5474019230769227,-0.5627153846153847,1.4298846153846152,0.6522745189371828,0.688720826788488,0.7064861673483069,0.7342691457632158,-1.5849451353978414,-1.5146494401367963,2.882273642315868,2.8607132642967477
H1_walk_20251205_050754,,-9.387,0.002,-3.333,-9.332,-0.055,-3.312,2.38,0.91,2.31,0.13879230769230766,0.19318461538461307,-0.20232692307692313,0.30978269230769234,0.257225,-0.6694423076923076,-0.5834019230769227,-0.5677153846153846,1.5698846153846153,0.6749714253046645,0.6525226081717743,0.706763283396717,0.7352836421071126,-1.6270303073562087,-1.5653038326593114,2.9847743789891785,2.957600725319668
H1_walk_20251205_050754,64266.0,-9.349,0.026,-3.396,-9.34,0.065,-3.484,2.66,0.91,2.59,0.17679230769230792,0.18518461538461395,0.07767307692307712,0.33378269230769236,0.377225,-0.6694423076923076,-0.6464019230769225,-0.7397153846153848,1.8498846153846151,0.7486667161700772,0.8507472554389077,0.7080282756370772,0.7384507978688273,-1.6744340666698994,-1.6147101630005294,3.0840374437407485,3.054974680658396
H1_walk_20251205_050754,,-9.349,0.086,-3.424,-9.287,0.084,-3.451,2.31,0.77,2.66,0.17679230769230792,0.238184615384613,-0.27232692307692297,0.39378269230769236,0.396225,-0.8094423076923076,-0.6744019230769225,-0.7067153846153849,1.9198846153846154,0.8007111106198774,0.844495587012145,0.709408271397752,0.744262776211118,-1.7151471230542255,-1.6629095636648932,3.1869695521830876,3.1528138246989283
H1_walk_20251205_050754,,-9.325,0.034,-3.369,-9.313,0.117,-3.408,2.31,0.7,2.73,0.20079230769230882,0.2121846153846132,-0.27232692307692297,0.3417826923076923,0.42922499999999997,-0.8794423076923077,-0.6194019230769228,-0.6637153846153847,1.9898846153846153,0.7353854104487576,0.818397533846519,0.7132872302205497,0.7420923214711629,-1.7663376493242957,-1.7104802186485772,3.2840750260096323,3.2509074326751843
H1_walk_20251205_050754,,-9.34,0.048,-3.448,-9.308,0.11,-3.436,2.31,0.84,2.73,0.18579230769230826,0.21718461538461398,-0.27232692307692297,0.3557826923076923,0.42222499999999996,-0.7394423076923077,-0.6984019230769225,-0.6917153846153847,1.9898846153846153,0.8055217885947512,0.8389953999268246,0.7161088937481319,0.7373014678129669,-1.812702683578636,-1.757361307408168,3.3839296462272546,3.349341015137862
H1_walk_20251205_050754,64342.0,-9.294,0.096,-3.396,-9.313,0.096,-3.283,2.38,0.21,2.87,0.23179230769230763,0.2121846153846132,-0.20232692307692313,0.40378269230769237,0.40822499999999995,-1.3694423076923077,-0.6464019230769225,-0.5387153846153847,2.1298846153846154,0.7966200993385225,0.7084378781884958,0.7140871826960802,0.7375245109581106,-1.8631696068743016,-1.8042877371641868,3.4815474590611286,3.4476860557207405
H1_walk_20251205_050754,,-9.349,0.057,-3.372,-9.323,0.127,-3.29,2.17,0.0,2.87,0.17679230769230792,0.2021846153846134,-0.4123269230769231,0.36478269230769234,0.439225,-1.5794423076923076,-0.6224019230769224,-0.5457153846153848,2.1298846153846154,0.7427692013783767,0.72911075998722,0.7099589115147776,0.7345629502173925,-1.906439211131267,-1.8498112126925375,3.5827007008439176,3.546660521793698
H1_walk_20251205_050754,,-9.354,0.041,-3.412,-9.351,0.16,-3.269,2.45,-0.07,3.01,0.1717923076923089,0.17418461538461294,-0.13232692307692284,0.3487826923076923,0.472225,-1.6494423076923077,-0.6624019230769225,-0.5247153846153849,2.269884615384615,0.7680743916650629,0.7270921301415364,0.7095560687056366,0.7308184421342999,-1.9500282019855513,-1.893581710812137,3.683265165464929,3.646444902069295
H1_walk_20251205_050754,,-9.354,0.043,-3.285,-9.373,0.158,-3.262,2.59,-0.07,3.15,0.1717923076923089,0.15218461538461447,0.007673076923076838,0.3507826923076923,0.470225,-1.6494423076923077,-0.5354019230769227,-0.5177153846153848,2.409884615384615,0.6627339688286312,0.7157520012212463,0.7124993953631158,0.7352758162831166,-1.9933936946529502,-1.9359114923063834,3.7837158945682026,3.7468207419301356
H1_walk_20251205_050754,64418.0,-9.383,0.041,-3.185,-9.356,0.189,-3.245,1.47,0.0,3.36,0.142792307692309,0.16918461538461393,-1.112326923076923,0.3487826923076923,0.501225,-1.5794423076923076,-0.4354019230769226,-0.5007153846153849,2.619884615384615,0.5758592225610178,0.728399499655493,0.7127914187846925,0.737131077945791,-2.029636531426836,-1.9770883133904218,3.8873625813052914,3.847666536493895
H1_walk_20251205_050754,,-9.328,0.005,-3.206,-9.378,0.148,-3.36,1.61,0.0,3.43,0.1977923076923087,0.1471846153846137,-0.9723269230769229,0.31278269230769234,0.460225,-1.5794423076923076,-0.4564019230769225,-0.6157153846153847,2.6898846153846154,0.5875861851488772,0.7826722152235811,0.7154723945625048,0.7368035686976669,-2.083574305585659,-2.0160624880913867,3.98188008561889,3.9497456632996206
H1_walk_20251205_050754,,-9.38,0.06,-3.25,-9.342,0.112,-3.367,2.1,-0.14,3.57,0.14579230769230733,0.18318461538461328,-0.48232692307692293,0.36778269230769234,0.42422499999999996,-1.7194423076923075,-0.5004019230769226,-0.6227153846153848,2.829884615384615,0.6379040604686769,0.7754340102002847,0.720532824932567,0.7387544976794673,-2.119280954368854,-2.0544187572623858,4.086162944819987,4.05201848984868
H1_walk_20251205_050754,,-9.38,0.093,-3.242,-9.349,0.079,-3.331,2.03,-0.14,3.57,0.14579230769230733,0.1761846153846136,-0.5523269230769232,0.40078269230769237,0.391225,-1.7194423076923075,-0.49240192307692254,-0.5867153846153847,2.829884615384615,0.6514152418277472,0.7268651607193752,0.7264306479637579,0.7407135776571011,-2.152315684644667,-2.091854614139847,4.191486625298829,4.1546947792395965
H1_walk_20251205_050754,64494.0,-9.409,0.127,-3.285,-9.351,0.27,-3.283,0.7,0.0,3.85,0.11679230769230742,0.17418461538461294,-1.882326923076923,0.43478269230769234,0.582225,-1.5794423076923076,-0.5354019230769227,-0.5387153846153847,3.1098846153846154,0.6995224456019171,0.8121209863579363,0.727802365965268,0.745902303294063,-2.1743114139945576,-2.1278047870285155,4.299641898862685,4.257998107081281
H1_walk_20251205_050754,,-9.383,0.239,-3.257,-9.332,0.182,-3.405,0.35,-0.07,3.92,0.142792307692309,0.19318461538461307,-2.232326923076923,0.5467826923076924,0.49422499999999997,-1.6494423076923077,-0.5074019230769227,-0.6607153846153846,3.179884615384615,0.7594851330246715,0.8474216575670913,0.7306712668468239,0.7469273714509946,-2.1962093841876844,-2.1626088118850735,4.408224605566261,4.361611471112005
H1_walk_20251205_050754,,-9.308,0.28,-3.281,-9.368,0.062,-3.309,-0.21,-0.21,3.78,0.21779230769230828,0.15718461538461348,-2.792326923076923,0.5877826923076923,0.374225,-1.7894423076923076,-0.5314019230769227,-0.564715384615385,3.039884615384615,0.8217724663897373,0.695452959990761,0.7321859181329475,0.7375737712785977,-2.2299624843472925,-2.196242704483542,4.51310255015911,4.465617388774136
H1_walk_20251205_050754,,-9.316,0.206,-3.273,-9.359,0.002,-3.307,-0.84,-0.21,3.92,0.2097923076923074,0.16618461538461382,-3.422326923076923,0.5137826923076924,0.314225,-1.7894423076923076,-0.5234019230769227,-0.5627153846153847,3.179884615384615,0.7628466689724912,0.6655849165195771,0.7318652274514784,0.7321894877352446,-2.267727524522513,-2.2288064906927967,4.616728095995456,4.569887984026534
H1_walk_20251205_050754,64570.0,-9.356,-0.045,-3.367,-9.284,0.278,-3.082,-1.19,-0.56,4.34,0.16979230769230824,0.2411846153846131,-3.772326923076923,0.26278269230769236,0.590225,-2.139442307692308,-0.6174019230769225,-0.33771538461538464,3.599884615384615,0.6921483264062993,0.721517325037411,0.7346571333991326,0.7369372823421412,-2.3214174973055646,-2.260032944903912,4.711446697639707,4.674591166364554
H1_walk_20251205_050754,,-9.402,0.096,-3.266,-9.34,0.227,-3.159,-0.14,-0.49,4.55,0.12379230769230887,0.18518461538461395,-2.722326923076923,0.40378269230769237,0.539225,-2.0694423076923076,-0.5164019230769226,-0.4147153846153846,3.809884615384615,0.6671101439856688,0.7050147463967217,0.7385913231194088,0.7358879911194998,-2.3476038517641946,-2.2899565824955173,4.818549696341913,4.779689073590057
H1_walk_20251205_050754,,-9.399,0.187,-3.297,-9.397,0.17,-3.101,0.35,-0.35,4.69,0.12679230769230898,0.12818461538461356,-2.232326923076923,0.49478269230769234,0.482225,-1.9294423076923075,-0.5474019230769227,-0.35671538461538477,3.9498846153846157,0.7486888988662133,0.6133662135034854,0.7442995704636742,0.7325832005809907,-2.3692986334268844,-2.3184493213763746,4.926471253865857,4.885247793627104
H1_walk_20251205_050754,,-9.359,0.285,-3.293,-9.395,0.28,-3.288,-0.14,-0.35,4.76,0.16679230769230813,0.13018461538461423,-2.722326923076923,0.5927826923076923,0.592225,-1.9294423076923075,-0.5434019230769227,-0.5437153846153846,4.0198846153846155,0.8212774465481075,0.8144353284179755,0.7522870814917959,0.7325634270898808,-2.3922583402165887,-2.3457282497424776,5.03380332869146,4.9911139357555685
H1_walk_20251205_050754,64645.0,-9.349,0.29,-3.183,-9.351,0.22,-3.211,-2.52,-0.21,4.9,0.17679230769230792,0.17418461538461294,-5.102326923076923,0.5977826923076923,0.532225,-1.7894423076923076,-0.4334019230769224,-0.46671538461538464,4.159884615384616,0.7592344132141136,0.7289903847777225,0.7548258500230708,0.7414554360297123,-2.417222243942999,-2.3714009155691436,5.141115687226384,5.097401043947437
H1_walk_20251205_050754,,-9.373,0.323,-3.197,-9.371,0.172,-3.192,-2.73,0.0,5.04,0.15279230769230878,0.15418461538461337,-5.312326923076923,0.6307826923076923,0.48422499999999996,-1.5794423076923076,-0.4474019230769226,-0.44771538461538496,4.299884615384616,0.7882897785572325,0.6772708556165717,0.7680122515801445,0.7446589365348846,-2.4371875386607313,-2.3961076087420605,5.249653794873119,5.203987630489123
H1_walk_20251205_050754,,-9.361,0.28,-3.235,-9.316,0.177,-3.185,-3.22,-0.21,4.97,0.16479230769230746,0.20918461538461308,-5.802326923076923,0.5877826923076923,0.48922499999999997,-1.7894423076923076,-0.4854019230769224,-0.44071538461538484,4.2298846153846155,0.7799102672601573,0.6908902620353649,0.7839207116389443,0.7504718767962264,-2.461048744598419,-2.4200866681479924,5.357697934117056,5.310728121030739
H1_walk_20251205_050754,,-9.304,0.258,-3.183,-9.392,0.184,-3.218,-3.22,0.07,5.11,0.22179230769230784,0.13318461538461435,-5.802326923076923,0.5657826923076923,0.49622499999999997,-1.5094423076923076,-0.4334019230769224,-0.47371538461538476,4.369884615384616,0.7464175169388743,0.6988445163421185,0.7994470948949256,0.7601734592005697,-2.4955371546173963,-2.442124792486425,5.461447570443545,5.4180612216675605
H1_walk_20251205_050754,64721.0,-9.368,0.215,-3.168,-9.387,0.371,-3.183,-3.64,0.28,5.81,0.1577923076923078,0.13818461538461335,-6.222326923076923,0.5227826923076924,0.683225,-1.2994423076923076,-0.4184019230769227,-0.4387153846153846,5.069884615384615,0.6879391869764436,0.8236276933495001,0.8138889294990643,0.7582096836396851,-2.5196496305032223,-2.463223895808076,5.5681601661996885,5.525613172356433
H1_walk_20251205_050754,,-9.414,0.321,-3.142,-9.292,0.263,-3.02,-3.92,0.49,6.16,0.11179230769230841,0.233184615384614,-6.502326923076923,0.6287826923076923,0.575225,-1.0894423076923077,-0.39240192307692245,-0.2757153846153848,5.419884615384616,0.7495628482251164,0.6791743802519938,0.8240972434626875,0.7637745057248803,-2.5319349536267217,-2.4838292097848234,5.678721843787989,5.633223907016399
H1_walk_20251205_050754,,-9.373,0.402,-3.056,-9.328,0.175,-3.049,-4.55,0.49,6.09,0.15279230769230878,0.1971846153846144,-7.132326923076922,0.7097826923076924,0.48722499999999996,-1.0894423076923077,-0.3064019230769226,-0.3047153846153847,5.349884615384616,0.7880476496092949,0.6075536509565885,0.8253733511059866,0.7710510032135799,-2.548915274230082,-2.5054161466699774,5.78819130295618,5.740342274528474
H1_walk_20251205_050754,,-9.395,0.409,-3.061,-9.366,0.218,-3.18,-5.88,0.49,5.95,0.13079230769230854,0.15918461538461415,-8.462326923076922,0.7167826923076923,0.530225,-1.0894423076923077,-0.3114019230769225,-0.43571538461538495,5.209884615384616,0.7923731529016799,0.7045042148849645,0.8226633498897409,0.7701855971144854,-2.5618055644948403,-2.5283731528439692,5.898005028745402,5.846823968223295
H1_walk_20251205_050754,64796.0,-9.368,0.34,-3.206,-9.368,0.56,-3.063,-7.49,1.05,6.37,0.1577923076923078,0.15718461538461348,-10.072326923076924,0.6477826923076924,0.872225,-0.5294423076923076,-0.4564019230769225,-0.31871538461538496,5.629884615384616,0.8079749650877677,0.9418401936258304,0.8201107652946243,0.802340371587811,-2.578225458813299,-2.551278957870008,6.0063577667981605,5.953181152084337
H1_walk_20251205_050754,,-9.373,0.493,-3.149,-9.311,0.361,-3.144,-8.4,1.12,6.44,0.15279230769230878,0.21418461538461386,-10.982326923076924,0.8007826923076924,0.673225,-0.45944230769230754,-0.39940192307692257,-0.3997153846153849,5.699884615384616,0.9078107213219293,0.8117138281381439,0.8234258487102053,0.8302613817540123,-2.5907172609603784,-2.5729831114751702,6.1164752340903386,6.059828788250714
H1_walk_20251205_050754,,-9.375,0.507,-3.204,-9.368,0.235,-2.996,-9.59,0.98,6.37,0.15079230769230811,0.15718461538461348,-12.172326923076923,0.8147826923076924,0.547225,-0.5994423076923077,-0.45440192307692273,-0.2517153846153848,5.629884615384616,0.9450345302894223,0.6225133241872658,0.842576506310594,0.8612498726431864,-2.6039808177765886,-2.5926384153884916,6.22607418002434,6.167024099339866
H1_walk_20251205_050754,,-9.371,0.543,-3.144,-9.421,0.349,-3.032,-10.78,1.05,6.3,0.15479230769230767,0.10418461538461443,-13.362326923076923,0.8507826923076924,0.661225,-0.5294423076923076,-0.3944019230769227,-0.2877153846153848,5.5598846153846155,0.9504444881095426,0.7285966492183579,0.8775311280606775,0.9129737562270288,-2.615691348649934,-2.610760884859445,6.335220396184003,6.274284146571923
H1_walk_20251205_050754,64872.0,-9.447,0.424,-3.142,-9.294,0.512,-3.175,-12.88,0.91,6.51,0.07879230769230894,0.23118461538461332,-15.462326923076924,0.7317826923076923,0.824225,-0.6694423076923076,-0.39240192307692245,-0.4307153846153846,5.7698846153846155,0.8340823734782082,0.9582843625771582,0.9420353633145434,0.9425308007038922,-2.6175175134788775,-2.6275242762830593,6.4467299784535195,6.381635207049514
H1_walk_20251205_050754,,-9.311,0.553,-3.223,-9.351,0.433,-2.974,-13.37,1.12,6.65,0.21479230769230817,0.17418461538461294,-15.952326923076923,0.8607826923076924,0.745225,-0.45944230769230754,-0.4734019230769224,-0.229715384615385,5.909884615384616,1.0055804093125498,0.7990430143557229,1.0037567456955971,0.9733784352376426,-2.6357677171487945,-2.642997921707587,6.554967144652039,6.4891446125704615
H1_walk_20251205_050754,,-9.299,0.598,-3.077,-9.409,0.526,-2.984,-14.07,1.19,6.58,0.22679230769230863,0.11618461538461311,-16.652326923076924,0.9057826923076924,0.838225,-0.3894423076923077,-0.3274019230769225,-0.23971538461538477,5.839884615384616,0.9894791840898128,0.8795359464503838,1.0534124439654895,1.0136259091537214,-2.653092075981065,-2.6573377417980675,6.6626153353872795,6.596756822568541
H1_walk_20251205_050754,,-9.409,0.558,-3.218,-9.411,0.668,-3.056,-14.84,1.05,6.51,0.11679230769230742,0.11418461538461422,-17.422326923076923,0.8657826923076923,0.980225,-0.5294423076923076,-0.4684019230769225,-0.31171538461538484,5.7698846153846155,0.9912721498043865,1.0349133577365062,1.0819910989925614,1.0567890194117977,-2.6565655383849087,-2.6706853617326844,6.772540702176277,6.704460628165242
H1_walk_20251205_050754,64948.0,-9.361,0.637,-3.077,-9.344,0.28,-3.12,-13.02,1.4,7.56,0.16479230769230746,0.1811846153846144,-15.602326923076923,0.9447826923076923,0.592225,-0.17944230769230773,-0.3274019230769225,-0.3757153846153849,6.819884615384615,1.0133917601762878,0.7243758456172854,1.1141753508715586,1.1088064423654382,-2.667857640731779,-2.682734768275107,6.882513662730669,6.812297438857772
H1_walk_20251205_050754,,-9.294,0.538,-3.017,-9.426,0.464,-3.128,-12.53,1.47,7.84,0.23179230769230763,0.09918461538461365,-15.112326923076923,0.8457826923076923,0.7762249999999999,-0.10944230769230767,-0.26740192307692245,-0.3837153846153849,7.099884615384616,0.91683140488195,0.8715505349344502,1.142877526082904,1.161681879616012,-2.6880538480400937,-2.693211577961524,6.989365726457907,6.92044083318884
H1_walk_20251205_050754,,-9.191,0.254,-3.08,-9.363,0.586,-3.156,-12.32,1.75,8.33,0.3347923076923074,0.16218461538461426,-14.902326923076924,0.5617826923076923,0.8982249999999999,0.17055769230769235,-0.3304019230769226,-0.4117153846153849,7.589884615384616,0.7327012443276922,1.0013099210641276,1.1761462945040306,1.2038618526321458,-2.7355717730085645,-2.7024090304206956,7.084719454176654,7.028775628031737
H1_walk_20251205_050754,,-9.182,0.175,-3.101,-9.177,0.354,-3.084,-11.34,1.82,9.17,0.34379230769230773,0.3481846153846142,-13.922326923076923,0.48278269230769233,0.666225,0.24055769230769242,-0.35140192307692253,-0.33971538461538486,8.429884615384616,0.6890251014022826,0.824921098990631,1.2146680003053478,1.2465529991446593,-2.793091544711467,-2.7106808879137025,7.1767486416316,7.1371965864738005
H1_walk_20251205_050754,65024.0,-9.249,0.28,-3.135,-9.256,1.122,-3.209,-10.64,2.66,11.27,0.27679230769230756,0.2691846153846136,-13.222326923076924,0.5877826923076923,1.434225,1.0805576923076925,-0.38540192307692234,-0.46471538461538486,10.529884615384615,0.7554052669167076,1.5314770962972275,1.2546646300355997,1.2970145884366675,-2.825513415024298,-2.7186006458840235,7.27838933054623,7.245620019981019
H1_walk_20251205_050754,,-9.387,0.419,-3.166,-9.174,0.972,-3.149,-6.86,2.94,11.97,0.13879230769230766,0.3511846153846143,-9.442326923076923,0.7267826923076923,1.284225,1.3605576923076923,-0.4164019230769225,-0.4047153846153848,11.229884615384616,0.8490388377775973,1.3915311808408097,1.2998591028845694,1.343124201162565,-2.832035518256742,-2.725997546014731,7.389566636321247,7.3540877689755195
H1_walk_20251205_050754,,-9.354,0.806,-3.132,-9.469,1.168,-3.116,-3.08,3.01,12.6,0.1717923076923089,0.05618461538461439,-5.6623269230769235,1.1137826923076923,1.480225,1.4305576923076921,-0.38240192307692267,-0.3717153846153849,11.859884615384615,1.1900654240164066,1.5272180881559387,1.345036957724894,1.377275809606501,-2.8324553990519012,-2.7326993656001646,7.498524785957662,7.462655443923926
H1_walk_20251205_050754,,-9.411,1.201,-3.19,-9.569,1.721,-3.001,-1.19,2.8,12.74,0.11479230769230853,-0.04381538461538703,-3.772326923076923,1.5087826923076924,2.033225,1.2205576923076922,-0.4404019230769225,-0.2567153846153847,11.999884615384616,1.5759303094878359,2.049835719576625,1.384486219611778,1.4173918152647274,-2.8187880580089826,-2.739011451822371,7.607310924375391,7.571213219745949
H1_walk_20251205_050754,65099.0,-9.466,2.111,-2.924,-9.426,1.062,-2.85,5.46,3.64,11.97,0.05979230769230881,0.09918461538461365,2.877673076923077,2.4187826923076927,1.374225,2.0605576923076923,-0.17440192307692248,-0.10571538461538488,11.229884615384616,2.425799015466729,1.3818493699019343,1.4212341448110175,1.465613115246831,-2.8051468104408768,-2.744625432971073,7.717598826283218,7.679807445633975
H1_walk_20251205_050754,,-9.359,2.106,-2.927,-9.292,1.273,-2.958,4.69,3.78,11.34,0.16679230769230813,0.233184615384614,2.1076730769230774,2.4137826923076924,1.5852249999999999,2.200557692307692,-0.1774019230769226,-0.21371538461538497,10.599884615384616,2.4260333884555028,1.6164738262954867,1.457619946320653,1.5053379343753264,-2.7945731212542917,-2.749920021154398,7.829047872236095,7.788459172291727
H1_walk_20251205_050754,,-9.251,1.721,-2.86,-9.375,1.436,-3.015,3.43,4.27,10.78,0.27479230769230867,0.1501846153846138,0.8476730769230771,2.0287826923076926,1.748225,2.690557692307692,-0.11040192307692243,-0.2707153846153849,10.039884615384615,2.050282568231315,1.7754247065957711,1.495057737670904,1.5278260400293724,-2.790057566295514,-2.7552002340293815,7.939033147176454,7.897135402672329
H1_walk_20251205_050754,,-9.335,1.211,-2.793,-9.287,1.455,-2.986,4.9,4.83,10.57,0.19079230769230726,0.238184615384613,2.3176730769230773,1.5187826923076924,1.767225,3.2505576923076926,-0.0434019230769227,-0.241715384615385,9.829884615384616,1.5313348092611014,1.7995117223265538,1.5279604880728568,1.5586887175116344,-2.7842256569607517,-2.7597070984443985,8.049952740387345,8.00595162338146
H1_walk_20251205_050754,65175.0,-9.351,1.295,-2.869,-9.253,1.656,-3.221,5.11,6.58,8.33,0.17479230769230725,0.2721846153846137,2.5276730769230773,1.6027826923076922,1.968225,5.000557692307693,-0.11940192307692277,-0.4767153846153849,7.589884615384616,1.6167008161140897,2.0433432588300144,1.5604993818502493,1.5945717076991774,-2.774333314701424,-2.7636623606368502,8.161455012122847,8.11486181830335
H1_walk_20251205_050754,,-9.32,1.17,-2.793,-9.198,1.62,-3.422,4.2,7.21,8.19,0.20579230769230783,0.3271846153846134,1.6176730769230772,1.4777826923076922,1.932225,5.6305576923076925,-0.0434019230769227,-0.6777153846153849,7.449884615384615,1.4926740724338559,2.073605884857042,1.5961482544454653,1.614111131178016,-2.7679342064642363,-2.767624692488082,8.27317582305129,8.223847160388333
H1_walk_20251205_050754,,-9.373,1.237,-2.793,-9.258,1.39,-3.592,5.04,7.7,8.05,0.15279230769230878,0.2671846153846147,2.457673076923077,1.5447826923076924,1.7022249999999999,6.120557692307693,-0.0434019230769227,-0.8477153846153849,7.309884615384616,1.5529271659257295,1.9203069917689812,1.6337232309479586,1.649212806343497,-2.7587833944416777,-2.7712019695783665,8.38486483211504,8.332877373934577
H1_walk_20251205_050754,,-9.421,1.426,-2.972,-9.17,1.211,-3.613,5.53,7.7,7.56,0.10479230769230874,0.3551846153846139,2.9476730769230772,1.7337826923076922,1.523225,6.120557692307693,-0.22240192307692253,-0.8687153846153848,6.819884615384615,1.7511271990593666,1.7891441895773443,1.671456763391722,1.6924029087950478,-2.7470032484448943,-2.7737606358881175,8.497666763281616,8.442142165743347
H1_walk_20251205_050754,65250.0,-9.131,1.287,-3.551,-9.189,1.429,-3.479,2.38,7.7,5.67,0.3947923076923079,0.33618461538461375,-0.20232692307692313,1.5947826923076922,1.741225,6.120557692307693,-0.8014019230769227,-0.7347153846153849,4.929884615384616,1.8279600225958386,1.9195549725488024,1.7225583731447414,1.7291855128355853,-2.754828981458424,-2.7746293667808604,8.607200574143887,8.552043055385138
H1_walk_20251205_050754,,-9.229,1.45,-3.582,-9.215,1.426,-3.455,2.38,7.28,5.25,0.2967923076923089,0.31018461538461395,-0.20232692307692313,1.7577826923076922,1.738225,5.700557692307693,-0.8324019230769224,-0.7107153846153849,4.509884615384616,1.9674294469749007,1.9033541457582965,1.7719950311790553,1.7711444803829457,-2.7541249678932385,-2.7736944424559917,8.718166502602422,8.662639068492988
H1_walk_20251205_050754,,-9.244,1.498,-3.518,-9.232,1.385,-3.362,1.61,7.07,4.9,0.28179230769230834,0.2931846153846145,-0.9723269230769229,1.8057826923076923,1.697225,5.490557692307693,-0.7684019230769223,-0.6177153846153849,4.159884615384616,1.9825991909362028,1.829782013168169,1.8140842504759276,1.78090838291142,-2.7524727680345817,-2.7718062530890397,8.829117315456708,8.773602617695982
H1_walk_20251205_050754,,-9.186,1.438,-3.508,-9.268,1.414,-3.372,1.26,7.28,5.04,0.33979230769230817,0.2571846153846131,-1.322326923076923,1.7457826923076922,1.726225,5.700557692307693,-0.7584019230769226,-0.6277153846153847,4.299884615384616,1.933491530380915,1.8547299752520234,1.8549800872653017,1.7902344569052135,-2.7548315027377415,-2.769917145058876,8.938977405462936,8.884557424921253
H1_walk_20251205_050754,65326.0,-9.284,1.486,-3.329,-9.296,1.476,-3.264,8.75,7.14,4.69,0.24179230769230742,0.22918461538461443,6.1676730769230765,1.7937826923076923,1.788225,5.560557692307692,-0.5794019230769227,-0.5197153846153846,3.9498846153846157,1.900480585469644,1.876267123721969,1.8722233245924564,1.7878507093776395,-2.749944327642833,-2.768620735256858,9.04952405311301,8.995476476639157
H1_walk_20251205_050754,,-9.179,1.467,-3.321,-9.177,1.311,-3.333,8.54,7.49,4.69,0.34679230769230784,0.3481846153846142,5.957673076923076,1.7747826923076924,1.623225,5.910557692307693,-0.5714019230769227,-0.588715384615385,3.9498846153846157,1.8964753273600747,1.7614419465592308,1.8803132951382158,1.7594695627889325,-2.7533506414163975,-2.7683944755381966,9.16016528928555,9.106412705474828
H1_walk_20251205_050754,,-9.258,1.402,-3.271,-9.093,1.062,-3.297,8.54,7.63,4.48,0.267792307692309,0.43218461538461383,5.957673076923076,1.7097826923076922,1.374225,6.0505576923076925,-0.5214019230769225,-0.5527153846153849,3.7398846153846157,1.807464948584737,1.5429751095823547,1.8556214120554189,1.7587166872827982,-2.754803048228455,-2.7691420197490277,9.27231196834917,9.217326890656624
H1_walk_20251205_050754,,-9.289,1.46,-3.281,-9.155,1.132,-3.329,8.4,7.63,3.85,0.2367923076923084,0.37018461538461445,5.817673076923077,1.7677826923076922,1.4442249999999999,6.0505576923076925,-0.5314019230769227,-0.584715384615385,3.1098846153846154,1.8610519197633186,1.601472628894535,1.8245267673178935,1.7519581772926007,-2.7529461919392264,-2.7709525336402825,9.38418888308945,9.328088117998032
H1_walk_20251205_050754,65402.0,-9.189,1.402,-3.326,-9.22,1.376,-3.329,11.27,8.54,3.85,0.33679230769230806,0.30518461538461317,8.687673076923076,1.7097826923076922,1.6882249999999999,6.960557692307692,-0.5764019230769226,-0.584715384615385,3.1098846153846154,1.8354904223020139,1.8124936913265026,1.8085597735261483,1.7414470999710263,-2.7559288929848154,-2.7735725661076973,9.494280403356447,9.438790006565704
H1_walk_20251205_050754,,-9.208,1.512,-3.266,-9.081,1.031,-3.36,10.08,8.75,3.57,0.31779230769230793,0.4441846153846143,7.497673076923077,1.8197826923076923,1.343225,7.170557692307693,-0.5164019230769226,-0.6157153846153847,2.829884615384615,1.918142837280003,1.542938368186315,1.8134626200552928,1.7299061528402766,-2.7595861665169314,-2.776855132745308,9.606159596385796,9.549456997412102
H1_walk_20251205_050754,,-9.215,1.591,-3.259,-9.177,1.139,-3.417,7.84,9.1,3.29,0.31079230769230826,0.3481846153846142,5.257673076923076,1.8987826923076923,1.451225,7.520557692307692,-0.5094019230769224,-0.6727153846153846,2.5498846153846153,1.9903411492411107,1.6370193999197922,1.8123707974656635,1.7220325952116686,-2.7608668450791725,-2.7806736193395705,9.717299214933025,9.660056794339582
H1_walk_20251205_050754,,-9.296,1.517,-3.218,-9.048,1.46,-3.525,5.67,9.38,2.87,0.22979230769230874,0.47718461538461376,3.087673076923077,1.8247826923076922,1.772225,7.800557692307693,-0.4684019230769225,-0.7807153846153847,2.1298846153846154,1.897903248419799,1.9944931986747685,1.8131828921813533,1.7351402975402375,-2.7545791720936204,-2.7847659866731003,9.83025031348592,9.770617588738837
H1_walk_20251205_050754,65478.0,-9.143,1.531,-3.599,-9.002,1.424,-3.482,2.03,9.17,2.45,0.38279230769230743,0.5231846153846131,-0.5523269230769232,1.8387826923076922,1.736225,7.5905576923076925,-0.8494019230769227,-0.737715384615385,1.7098846153846154,2.0613430979061933,1.9576576261181042,1.8551553072325389,1.7446761745140358,-2.758158776219867,-2.789676286370651,9.942142584863225,9.881062999294828
H1_walk_20251205_050754,,-9.064,1.397,-3.632,-9.019,1.402,-3.434,-0.28,9.38,2.38,0.46179230769230806,0.5061846153846137,-2.862326923076923,1.7047826923076923,1.7142249999999999,7.800557692307693,-0.8824019230769227,-0.689715384615385,1.6398846153846152,1.9743782102944467,1.9158542552219928,1.8863246381609369,1.7681728862249995,-2.7687835122648905,-2.7953304772448577,10.052244982435704,9.991386365226104
H1_walk_20251205_050754,,-9.162,1.275,-3.635,-9.016,1.256,-3.429,-1.68,9.59,2.1,0.3637923076923073,0.5091846153846138,-4.262326923076923,1.5827826923076922,1.568225,8.010557692307692,-0.8854019230769223,-0.6847153846153846,1.3598846153846154,1.8497249686353896,1.7853385620375681,1.9017387558277978,1.79294739128129,-2.776420491483552,-2.801102606617553,10.163441609824066,10.10161662407515
H1_walk_20251205_050754,,-9.182,1.352,-3.635,-9.093,1.117,-3.408,-2.31,9.73,2.03,0.34379230769230773,0.43218461538461383,-4.892326923076923,1.6597826923076924,1.429225,8.150557692307693,-0.8854019230769223,-0.6637153846153847,1.289884615384615,1.9123305943013322,1.6340091046794367,1.9068298515160818,1.8153125096800906,-2.7829187094724674,-2.8073459798940514,10.274391624178314,10.211717903669891
H1_walk_20251205_050754,65554.0,-9.122,1.125,-3.434,-9.189,0.993,-3.319,-1.47,11.41,3.57,0.4037923076923082,0.33618461538461375,-4.052326923076923,1.4327826923076923,1.305225,9.830557692307693,-0.6844019230769227,-0.5747153846153847,2.829884615384615,1.638389594522423,1.465240652439015,1.914643010929446,1.84200434928233,-2.7987487441994485,-2.8141213559851197,10.382420130623142,10.32175759884758
H1_walk_20251205_050754,,-9.122,1.292,-3.434,-9.139,0.866,-3.173,-0.77,11.69,3.57,0.4037923076923082,0.38618461538461446,-3.352326923076923,1.5997826923076923,1.1782249999999999,10.110557692307692,-0.6844019230769227,-0.42871538461538483,2.829884615384615,1.7862695436775824,1.3119259082702344,1.9208278614483694,1.8645843347343338,-2.8129053053237834,-2.8211569297565218,10.491652874102865,10.431811100561516
H1_walk_20251205_050754,,-9.146,1.314,-3.388,-9.134,0.916,-3.185,-0.91,12.46,3.57,0.3797923076923073,0.39118461538461347,-3.492326923076923,1.6217826923076923,1.2282250000000001,10.880557692307693,-0.6384019230769225,-0.44071538461538484,2.829884615384615,1.7838100553140035,1.3622746067424492,1.9404124929556057,1.8835426439537715,-2.824582959922473,-2.8285543864549605,10.601367641009892,10.541873700846185
H1_walk_20251205_050754,,-9.098,1.153,-3.297,-9.196,0.998,-3.245,-1.26,13.16,3.71,0.42779230769230736,0.3291846153846141,-3.8423269230769233,1.4607826923076923,1.310225,11.580557692307693,-0.5474019230769227,-0.5007153846153849,2.9698846153846152,1.6175726252798461,1.44075256655036,1.972159775718816,1.9187062330910747,-2.8416464824269245,-2.836297209296466,10.708839783112706,10.651896309903195
H1_walk_20251205_050754,65629.0,-9.1,1.158,-3.336,-9.103,1.015,-3.307,8.12,17.15,5.6,0.42579230769230847,0.42218461538461405,5.537673076923076,1.4657826923076922,1.3272249999999999,15.570557692307691,-0.5864019230769224,-0.5627153846153847,4.859884615384615,1.635140729645935,1.5021366962348315,2.000040456419934,1.9546609678127014,-2.8581784104482866,-2.843129180928106,10.81728224993593,10.761853113449812
H1_walk_20251205_050754,,-9.165,1.206,-3.324,-9.095,0.94,-3.448,8.75,17.99,5.6,0.36079230769230897,0.43018461538461317,6.1676730769230765,1.5137826923076922,1.252225,16.41055769230769,-0.5744019230769224,-0.7037153846153847,4.859884615384615,1.6588088190188568,1.4994470969270595,1.9982003393200058,2.006427625356907,-2.869572389538642,-2.8474253659885767,10.927294502393698,10.871355246438519
H1_walk_20251205_050754,,-9.225,1.196,-3.163,-9.222,1.208,-3.733,9.1,19.11,5.67,0.30079230769230847,0.3031846153846143,6.517673076923076,1.5037826923076922,1.520225,17.530557692307692,-0.41340192307692236,-0.9887153846153849,4.929884615384616,1.5883134287837313,1.8386307604862007,2.011535280611042,2.0804111692055196,-2.8736139661522424,-2.852367081826365,11.037049732237296,10.979928423061645
H1_walk_20251205_050754,,-9.217,1.113,-3.171,-9.086,1.718,-3.975,8.96,20.09,5.67,0.3087923076923076,0.4391846153846135,6.377673076923077,1.4207826923076923,2.0302249999999997,18.510557692307692,-0.42140192307692237,-1.2307153846153849,4.929884615384616,1.5137885350417886,2.4144061453998424,2.019736091867661,2.100871806759223,-2.8743357571360164,-2.855996643049162,11.147756477431928,11.088253987702823
H1_walk_20251205_050754,65705.0,-8.856,1.943,-3.965,-9.074,1.429,-3.955,13.72,22.96,5.46,0.6697923076923082,0.45118461538461396,11.137673076923077,2.2507826923076926,1.741225,21.380557692307693,-1.2154019230769224,-1.2107153846153849,4.719884615384616,2.6442099572565594,2.1682397930877344,1.9836538066903846,2.0921529103030583,-2.8864511865779967,-2.858403207683718,11.256445506570788,11.188422472673412
H1_walk_20251205_050754,,-8.933,1.857,-3.984,-9.052,1.62,-4.087,11.06,23.31,4.69,0.5927923076923083,0.4731846153846142,8.477673076923077,2.1647826923076923,1.932225,21.73055769230769,-1.2344019230769225,-1.3427153846153845,3.9498846153846157,2.5615298031977134,2.4000586940624027,1.9395157143002053,2.068787337413516,-2.8940122111742683,-2.857787058156466,11.366074277494812,11.287520578732998
H1_walk_20251205_050754,,-8.945,1.515,-3.893,-9.179,1.718,-4.271,10.22,23.66,4.06,0.5807923076923078,0.34618461538461354,7.637673076923077,1.8227826923076922,2.0302249999999997,22.080557692307693,-1.1434019230769223,-1.5267153846153847,3.319884615384615,2.2287270819342235,2.563692104012355,1.9285766872672387,2.058016276587327,-2.9049043451485144,-2.8559843302303642,11.473187304219127,11.386461278418004
H1_walk_20251205_050754,,-9.014,1.374,-3.898,-9.186,1.45,-4.463,11.9,24.15,4.27,0.5117923076923088,0.33918461538461386,9.317673076923077,1.6817826923076924,1.762225,22.57055769230769,-1.1484019230769227,-1.7187153846153849,3.529884615384615,2.0997979348702827,2.484847224127113,1.9265453664407621,2.0512870679977726,-2.9164526730821847,-2.853558533004259,11.580799772065673,11.485332479207415
H1_walk_20251205_050754,65781.0,-9.115,0.979,-4.468,-8.978,1.546,-4.362,18.97,25.83,3.78,0.4107923076923079,0.547184615384614,16.387673076923075,1.2867826923076924,1.858225,24.25055769230769,-1.7184019230769225,-1.6177153846153849,3.039884615384615,2.1857413356836783,2.523769842826384,1.9215834714603788,2.0485705821775655,-2.9286325464023606,-2.8508611458633264,11.690149390076574,11.584269659523416
H1_walk_20251205_050754,,-9.198,0.89,-4.436,-9.036,1.357,-4.458,23.38,26.04,4.06,0.3277923076923077,0.4891846153846142,20.797673076923076,1.1977826923076924,1.669225,24.46055769230769,-1.6864019230769225,-1.713715384615385,3.319884615384615,2.094297643872918,2.4418095970041254,1.913240084564884,2.051564802256247,-2.9377564207941935,-2.8483837130875114,11.8003684500253,11.683252849021471
H1_walk_20251205_050754,,-9.155,1.417,-4.391,-9.117,1.165,-4.551,26.46,25.76,4.13,0.37079230769230875,0.4081846153846129,23.877673076923077,1.7247826923076923,1.477225,24.180557692307694,-1.6414019230769226,-1.806715384615385,3.389884615384615,2.4096810046577906,2.3691831634273455,1.9110347219466215,2.0602651513020405,-2.9422782018022473,-2.846386725530319,11.911151660514397,11.782279853416558
H1_walk_20251205_050754,,-8.942,1.725,-4.463,-9.06,1.043,-5.004,25.69,25.62,3.85,0.5837923076923079,0.4651846153846133,23.107673076923078,2.0327826923076926,1.355225,24.040557692307694,-1.7134019230769226,-2.2597153846153843,3.1098846153846154,2.7219046792035386,2.675695264129117,1.909197627150051,2.077797215247387,-2.9546640352955267,-2.8453679041174316,12.020753124767836,11.881173901544653
H1_walk_20251205_050754,65857.0,-9.488,1.251,-4.745,-9.368,1.876,-3.896,26.46,28.84,3.99,0.03779230769230857,0.15718461538461348,23.877673076923077,1.5587826923076922,2.188225,27.260557692307692,-1.9954019230769227,-1.1517153846153847,3.2498846153846155,2.5323626468138025,2.477798212344656,1.909828474085724,2.062545536943086,-2.932434310651091,-2.8471780154458863,12.131188860561235,11.978550271201742
H1_walk_20251205_050754,,-9.895,0.749,-4.176,-9.708,2.493,-3.63,29.12,29.12,3.85,-0.36920769230769146,-0.18281538461538638,26.537673076923078,1.0567826923076924,2.805225,27.540557692307694,-1.4264019230769227,-0.8857153846153847,3.1098846153846154,1.813208875165189,2.947405725043882,1.912825583371195,2.037176972257235,-2.864647003511472,-2.8518313437885734,12.231244340795831,12.074246089191954
H1_walk_20251205_050754,,-8.835,0.912,-4.422,-10.366,3.142,-3.893,33.81,29.47,4.34,0.6907923076923073,-0.8408153846153859,31.22767307692308,1.2197826923076924,3.454225,27.89055769230769,-1.6724019230769223,-1.1487153846153846,3.599884615384615,2.1821988958689476,3.73606583139042,1.9080540902797263,2.00045556793622,-2.8844135047673127,-2.8597404742316255,12.317182995557712,12.167621444634575
H1_walk_20251205_050754,,-9.675,1.311,-4.128,-9.809,1.244,-4.087,35.84,31.08,3.85,-0.1492076923076926,-0.28381538461538547,33.25767307692308,1.6187826923076922,1.556225,29.50055769230769,-1.3784019230769227,-1.3427153846153845,3.1098846153846154,2.131363929952106,2.074914944582601,1.8853883528121995,1.9633185936960966,-2.853954758309666,-2.871095483612781,12.422624277056372,12.25852324934274
H1_walk_20251205_050754,65932.0,-9.603,-0.759,-3.697,-9.179,0.878,-3.417,24.29,41.09,-2.1,-0.07720769230769164,0.34618461538461354,21.707673076923076,-0.45121730769230767,1.1902249999999999,39.51055769230769,-0.9474019230769226,-0.6727153846153846,-2.840115384615385,1.0522017346319217,1.4103280920595098,1.8531021144490554,1.9965619267094143,-2.823437525577614,-2.8862119663918913,12.32167982416842,12.344373869985986
H1_walk_20251205_050754,,-9.861,0.115,-3.271,-9.251,0.845,-3.458,34.3,42.28,0.35,-0.33520769230769254,0.27418461538461436,31.717673076923074,0.42278269230769233,1.157225,40.70055769230769,-0.5214019230769225,-0.713715384615385,-0.39011538461538464,0.7503128462751404,1.3869883035466795,1.8388686271570218,2.024657027110084,-2.7385592843850763,-2.9050832135219884,12.406801071035158,12.425303503043533
H1_walk_20251205_050754,,-9.66,1.385,-3.273,-9.526,1.029,-3.752,39.69,43.68,0.21,-0.13420769230769203,-0.0008153846153859945,37.10767307692308,1.6927826923076923,1.341225,42.10055769230769,-0.5234019230769227,-1.0077153846153846,-0.5301153846153847,1.776928395049068,1.6776100446371924,1.8001916974704113,2.0698897800361102,-2.711287850141235,-2.9262081169309675,12.51460077667332,12.499468826116553
H1_walk_20251205_050754,,-9.356,1.508,-3.355,-9.509,0.857,-4.034,35.0,46.62,-2.45,0.16979230769230824,0.016184615384613465,32.41767307692308,1.8157826923076923,1.169225,45.04055769230769,-0.6054019230769225,-1.2897153846153846,-3.190115384615385,1.9215638688060532,1.7408948318935746,1.8006230555458602,2.1379558122715117,-2.705712784386144,-2.949184157005038,12.62289620296043,12.566447966859283
H1_walk_20251205_050754,66008.0,-9.423,0.598,-4.209,-9.069,0.467,-4.202,16.87,58.1,-10.85,0.10279230769230807,0.45618461538461297,14.287673076923078,0.9057826923076924,0.7792250000000001,56.52055769230769,-1.4594019230769222,-1.4577153846153847,-11.590115384615384,1.7207156991454167,1.714709930712185,1.8989075171166232,2.3097547859150915,-2.7062884258192956,-2.9692788884912744,12.73580829804003,12.633892862601678
H1_walk_20251205_050754,,-9.351,0.498,-4.231,-8.969,0.436,-4.18,15.89,60.13,-10.29,0.17479230769230725,0.5561846153846144,13.307673076923077,0.8057826923076923,0.7482249999999999,58.55055769230769,-1.4814019230769224,-1.4357153846153845,-11.030115384615383,1.6954025350184656,1.7118588267251575,2.0223201049440367,2.474680738979438,-2.7185054573012737,-2.9878298546160766,12.847954551127799,12.702124076832607
H1_walk_20251205_050754,,-9.27,0.376,-4.152,-8.808,0.416,-4.092,15.75,61.95,-9.66,0.25579230769230854,0.717184615384614,13.167673076923077,0.6837826923076924,0.7282249999999999,60.37055769230769,-1.4024019230769227,-1.3477153846153844,-10.400115384615384,1.5810501664475938,1.691449727629636,2.170757901669595,2.6652589369342534,-2.7468270677124513,-3.0057524705380194,12.957122244895421,12.771305797565143
H1_walk_20251205_050754,,-9.122,0.491,-4.24,-8.622,0.455,-4.056,17.15,63.28,-9.45,0.4037923076923082,0.9031846153846139,14.567673076923075,0.7987826923076924,0.767225,61.70055769230769,-1.4904019230769228,-1.3117153846153848,-10.190115384615384,1.7385050789667527,1.7677595708492544,2.3247295193436783,2.86674501031919,-2.7864159485887097,-3.0256826452021026,13.062898125433216,12.840221666896214
H1_walk_20251205_050754,66083.0,-8.466,0.503,-3.958,-8.772,-0.007,-3.266,18.13,71.96,-5.46,1.0597923076923088,0.7531846153846136,15.547673076923076,0.8107826923076924,0.30522499999999997,70.38055769230769,-1.2084019230769227,-0.5217153846153848,-6.200115384615384,1.8002120756415074,0.9657309708306175,2.5275901954306876,3.027591646749514,-2.871645854462297,-3.049219149421054,13.1331532520943,12.906242864388522
H1_walk_20251205_050754,,-8.449,0.431,-3.831,-8.921,-0.246,-3.235,18.83,74.06,-4.55,1.0767923076923083,0.6041846153846144,16.247673076923075,0.7387826923076923,0.06622499999999998,72.4805576923077,-1.0814019230769225,-0.49071538461538466,-5.290115384615384,1.6954974667020872,0.7811698847182215,2.7354815787834053,3.164063412053472,-2.962633019336801,-3.075931954301972,13.196931050858208,12.968528955229479
H1_walk_20251205_050754,,-8.461,0.232,-3.676,-9.174,-0.522,-3.108,19.95,76.65,-3.22,1.0647923076923078,0.3511846153846143,17.367673076923076,0.5397826923076924,-0.20977500000000004,75.0705576923077,-0.9264019230769227,-0.3637153846153849,-3.960115384615385,1.511081909267751,0.5473801838884532,2.925204143070547,3.2996081059451856,-3.0638158019676283,-3.1072809567367443,13.245041491444077,13.027025585296364
H1_walk_20251205_050754,,-8.725,0.077,-3.345,-9.148,-0.38,-3.116,22.05,79.1,-1.4,0.8007923076923085,0.3771846153846141,19.467673076923077,0.38478269230769235,-0.06777500000000003,77.52055769230769,-0.5954019230769227,-0.3717153846153849,-2.1401153846153846,1.0694996448631606,0.5338857666838505,3.1288213771200595,3.4203545042832664,-3.1648026334486694,-3.145128853060133,13.290741424805947,13.082537859056199
H1_walk_20251205_050754,66159.0,-9.191,-0.385,-3.415,-9.177,-0.433,-5.422,45.29,92.4,13.72,0.3347923076923074,0.3481846153846142,42.70767307692308,-0.07721730769230767,-0.12077500000000002,90.8205576923077,-0.6654019230769226,-2.6777153846153845,12.979884615384616,0.7488712313419817,2.7029574188324625,3.2975144772839835,3.5350654196483617,-3.2666425184091294,-3.1865797129851194,13.26916586896171,13.135653795885549
H1_walk_20251205_050754,,-9.158,-0.366,-3.831,-9.653,0.01,-5.87,51.03,94.99,17.71,0.36779230769230864,-0.12781538461538666,48.44767307692308,-0.05821730769230765,0.322225,93.41055769230769,-1.0814019230769225,-3.125715384615385,16.969884615384615,1.143717865448923,3.1448787558172544,3.4748586038877654,3.7025179831617785,-3.364988182518531,-3.2334586957457243,13.25192693692819,13.185297199948865
H1_walk_20251205_050754,,-9.194,-0.562,-4.334,-9.978,0.567,-5.939,55.93,98.42,21.98,0.3317923076923073,-0.45281538461538595,53.34767307692308,-0.2542173076923077,0.8792249999999999,96.8405576923077,-1.5844019230769222,-3.194715384615385,21.239884615384614,1.638609785404677,3.344291369164416,3.706630903937728,3.9026944782870165,-3.4356986752114613,-3.2854415039211866,13.184743906469294,13.239044524700416
H1_walk_20251205_050754,,-9.122,-0.687,-5.262,-10.301,1.242,-6.535,61.67,102.9,25.62,0.4037923076923082,-0.7758153846153863,59.08767307692308,-0.3792173076923077,1.554225,101.3205576923077,-2.512401923076922,-3.790715384615385,24.879884615384615,2.5727451131593853,4.16977553218284,3.945987790520606,4.116646005114655,-3.4913892531001056,-3.3442825092118516,13.107531936805799,13.289510388212761
H1_walk_20251205_050754,66235.0,-10.175,1.534,-7.117,-8.126,0.682,-9.562,76.02,112.0,23.52,-0.6492076923076926,1.3991846153846144,73.43767307692308,1.8417826923076923,0.994225,110.4205576923077,-4.3674019230769225,-6.817715384615385,22.779884615384614,4.784123082774068,7.030465418745425,4.132570981542776,4.282595019969384,-3.4273673637906525,-3.4078569758857706,13.226754593521415,13.336755384039524
H1_walk_20251205_050754,,-9.55,1.551,-7.722,-7.909,0.799,-9.227,65.45,106.68,22.54,-0.024207692307692597,1.616184615384614,62.86767307692308,1.8587826923076922,1.1112250000000001,105.1005576923077,-4.972401923076923,-6.4827153846153855,21.799884615384613,5.3085252183830285,6.772922003800126,4.301017478040377,4.449941429441018,-3.3987777923270586,-3.4753923168566505,13.354811342069807,13.380872978724325
H1_walk_20251205_050754,,-9.167,1.307,-8.564,-7.095,0.814,-9.727,55.02,98.63,22.12,0.3587923076923083,2.430184615384614,52.43767307692308,1.6147826923076922,1.1262249999999998,97.05055769230769,-5.814401923076923,-6.9827153846153855,21.379884615384615,6.045124050548199,7.478802989651583,4.464915901202537,4.608326808178569,-3.394620560372857,-3.5468327277250697,13.488874129122522,13.421819867466784
H1_walk_20251205_050754,,-8.043,0.972,-8.524,-6.573,0.325,-9.806,48.79,91.07,22.4,1.4827923076923089,2.9521846153846134,46.20767307692308,1.2797826923076923,0.6372249999999999,89.49055769230769,-5.774401923076922,-7.061715384615384,21.659884615384613,6.097559703399078,7.680447505012466,4.625846016712431,4.768579040470483,-3.4559409620603616,-3.6218410949348065,13.592181052633155,13.459614725301039
H1_walk_20251205_050754,66311.0,-6.418,-0.263,-9.777,-6.167,-0.433,-8.368,31.64,39.62,19.18,3.107792307692308,3.358184615384614,29.057673076923077,0.04478269230769233,-0.12077500000000002,38.04055769230769,-7.027401923076922,-5.623715384615386,18.439884615384614,7.6840585829200325,6.5511957106157865,4.779625951354342,4.884096061017216,-3.5542273114949796,-3.699167517481414,13.62770279531439,13.492740336960006
H1_walk_20251205_050754,,-6.03,-0.986,-10.055,-6.217,-0.261,-8.016,32.9,28.07,23.03,3.495792307692308,3.308184615384614,30.317673076923075,-0.6782173076923077,0.051224999999999965,26.490557692307693,-7.305401923076922,-5.271715384615385,22.289884615384615,8.127080646374202,6.223961162032022,4.909932044328427,4.992582549921826,-3.649196962199397,-3.778198644142073,13.640191486632656,13.521239723702175
H1_walk_20251205_050754,,-5.994,-1.027,-9.287,-6.121,-0.565,-7.681,39.13,17.36,29.33,3.5317923076923083,3.4041846153846134,36.54767307692308,-0.7192173076923076,-0.25277499999999997,15.780557692307692,-6.537401923076923,-4.936715384615384,28.589884615384612,7.46514931827948,6.0019602535292185,5.027176189611173,5.134607321076687,-3.747508373955182,-3.857170895764272,13.652101242300281,13.546881654534278
H1_walk_20251205_050754,,-6.19,-0.651,-9.016,-6.138,-0.696,-7.787,44.59,4.06,34.58,3.3357923076923077,3.387184615384614,42.00767307692308,-0.3432173076923077,-0.383775,2.480557692307692,-6.266401923076923,-5.042715384615384,33.83988461538461,7.107256960452526,6.086812081833963,5.147928604185134,5.276989102517613,-3.848692307919556,-3.936026513050066,13.674563458551505,13.57091714649357
H1_walk_20251205_050754,66386.0,-5.619,-0.847,-8.002,-5.528,-2.094,-7.842,8.82,-78.61,41.09,3.9067923076923083,3.9971846153846142,6.237673076923077,-0.5392173076923077,-1.7817749999999999,-80.1894423076923,-5.252401923076923,-5.097715384615384,40.34988461538462,6.568219500130983,6.718549630882905,5.251261682886433,5.321732183120323,-3.9621358628169716,-4.014494288256506,13.698197353120822,13.595615458997283
H1_walk_20251205_050754,,-5.453,-1.146,-8.057,-5.662,-1.907,-7.629,3.85,-91.42,42.56,4.072792307692308,3.863184615384614,1.267673076923077,-0.8382173076923076,-1.594775,-92.9994423076923,-5.307401923076923,-4.884715384615385,41.819884615384616,6.7423112216504215,6.4286815959314385,5.3307886544944685,5.348463470444015,-4.072808310085387,-4.09259725948864,13.713352782702573,13.620993826575905
H1_walk_20251205_050754,,-5.358,-1.642,-8.313,-5.516,-1.424,-7.887,0.56,-103.88,42.63,4.1677923076923085,4.009184615384614,-2.022326923076923,-1.3342173076923076,-1.111775,-105.4594423076923,-5.563401923076923,-5.142715384615384,41.88988461538462,7.078281535930942,6.614916965315697,5.398648468046861,5.275477969459912,-4.174990538139642,-4.170675942692504,13.719110267708825,13.648866967654975
H1_walk_20251205_050754,,-5.19,-1.996,-7.944,-5.48,-0.888,-8.366,1.4,-114.1,43.33,4.335792307692308,4.045184615384613,-1.182326923076923,-1.6882173076923077,-0.575775,-115.6794423076923,-5.1944019230769225,-5.621715384615385,42.58988461538461,6.973591897429967,6.949728001065269,5.4406592744047355,5.194315269905375,-4.268425421942367,-4.249205171684865,13.7189135223561,13.678419601027858
H1_walk_20251205_050754,66462.0,-5.901,-0.536,-8.294,-6.375,-0.093,-7.837,-0.14,-164.85,33.67,3.6247923076923083,3.150184615384614,-2.722326923076923,-0.2282173076923077,0.21922499999999998,-166.4294423076923,-5.544401923076923,-5.092715384615385,32.929884615384616,6.628091361625512,5.992284430860165,5.433299858234097,5.200052696442776,-4.364223983663125,-4.325668211399812,13.742970668169159,13.706660231707263
H1_walk_20251205_050754,,-6.363,-0.436,-8.198,-6.396,-0.282,-7.971,-6.3,-171.36,33.74,3.1627923076923077,3.129184615384614,-8.882326923076922,-0.12821730769230766,0.030225000000000002,-172.93944230769233,-5.448401923076923,-5.226715384615385,32.999884615384616,6.301172777743664,6.091901478156053,5.408174060792187,5.195582680649024,-4.461631649629024,-4.401013677043915,13.769953664765255,13.734027439721697
H1_walk_20251205_050754,,-6.743,-0.306,-8.045,-6.54,-0.715,-7.739,-12.39,-178.15,34.72,2.782792307692308,2.9851846153846138,-14.972326923076924,0.0017826923076923462,-0.402775,-179.72944230769232,-5.2954019230769225,-4.994715384615384,33.97988461538461,5.98207470136157,5.832729777888531,5.3144794500984505,5.072554952534606,-4.563739108398196,-4.480438053850379,13.80042740534399,13.75325853509747
H1_walk_20251205_050754,,-6.518,-0.23,-7.801,-6.834,-1.065,-7.916,-21.42,-184.73,34.72,3.0077923076923083,2.691184615384614,-24.002326923076925,0.07778269230769233,-0.752775,-186.3094423076923,-5.051401923076923,-5.171715384615386,33.97988461538461,5.879585538275712,5.878416866314884,5.223070715750072,4.9790459019768045,-4.668723004754439,-4.562944350544699,13.830620854818408,13.76412696693607
H1_walk_20251205_050754,66538.0,-6.789,-1.216,-7.526,-7.322,0.256,-6.851,-33.18,-208.81,21.84,2.7367923076923084,2.2031846153846137,-35.76232692307692,-0.9082173076923077,0.568225,-210.38944230769232,-4.776401923076922,-4.106715384615384,21.099884615384614,5.579328467137294,4.694892261844688,5.175279084844221,4.844366067096998,-4.75731405392423,-4.649143651605764,13.818388148028518,13.767564509053706
H1_walk_20251205_050754,,-7.222,-1.177,-7.246,-7.152,0.668,-6.547,-24.15,-211.05,17.99,2.3037923076923077,2.3731846153846137,-26.732326923076922,-0.8692173076923078,0.980225,-212.62944230769233,-4.496401923076923,-3.8027153846153845,17.249884615384612,5.126463496292933,4.5884082823691426,5.133119853758685,4.683537028467637,-4.841225241765863,-4.736205105026128,13.803882180729694,13.764603262242396
H1_walk_20251205_050754,,-7.341,-0.895,-7.038,-7.102,1.094,-6.466,-17.64,-213.29,13.58,2.184792307692308,2.4231846153846135,-20.222326923076924,-0.5872173076923077,1.406225,-214.8694423076923,-4.288401923076923,-3.721715384615385,12.839884615384616,4.848559852992921,4.658375020857007,5.027146084538813,4.543582255581752,-4.924924396639469,-4.822126421744939,13.799843453728924,13.757350518388733
H1_walk_20251205_050754,,-7.31,-0.328,-7.047,-7.203,1.146,-6.291,-15.75,-215.11,9.31,2.2157923076923085,2.3221846153846135,-18.332326923076923,-0.020217307692307673,1.4582249999999999,-216.68944230769233,-4.297401923076922,-3.546715384615385,8.569884615384616,4.83506024562507,4.483096202182309,4.887566300407942,4.389947685751131,-5.012879068767427,-4.907125340618972,13.82185384179979,13.746719118495106
H1_walk_20251205_050754,66614.0,-7.239,1.012,-6.013,-8.217,-0.067,-3.819,-51.66,-213.64,-14.28,2.2867923076923082,1.3081846153846133,-54.24232692307692,1.3197826923076923,0.24522499999999997,-215.2194423076923,-3.2634019230769225,-1.0747153846153847,-15.020115384615384,4.19774195550153,1.7107002795589248,4.65943000847248,4.5143626893313975,-5.103977957335075,-4.994799027701688,13.887197616540655,13.732928449113151
H1_walk_20251205_050754,,-7.904,0.646,-5.26,-8.492,-0.06,-3.36,-55.72,-210.0,-19.25,1.6217923076923082,1.033184615384613,-58.30232692307692,0.9537826923076924,0.252225,-211.57944230769232,-2.5104019230769223,-0.6157153846153847,-19.990115384615386,3.1372009066720548,1.2288992370998209,4.418557427677518,4.780574762909677,-5.195479885484143,-5.08554681767643,13.950578981850086,13.713703065625955
H1_walk_20251205_050754,,-8.239,0.191,-4.85,-8.842,-0.045,-2.412,-60.34,-207.83,-25.2,1.2867923076923073,0.6831846153846133,-62.92232692307692,0.49878269230769234,0.267225,-209.40944230769233,-2.100401923076922,0.3322846153846153,-25.940115384615385,2.5132263837042292,0.8053343932457645,4.18827905752267,4.790453455813051,-5.296688281709591,-5.174988648462489,13.993867537017561,13.687620775126987
H1_walk_20251205_050754,,-8.162,0.055,-4.484,-9.244,-0.416,-1.754,-62.72,-205.31,-30.31,1.3637923076923073,0.28118461538461403,-65.30232692307692,0.36278269230769233,-0.103775,-206.88944230769232,-1.7344019230769225,0.9902846153846152,-31.050115384615385,2.235998830753642,1.034648567399312,4.007211222174828,4.643579088149574,-5.406748136319939,-5.256989538524366,14.020295404623143,13.657268651466117
H1_walk_20251205_050754,66690.0,-9.395,-0.457,-1.316,-8.629,-1.318,0.479,-59.08,-165.76,-40.11,0.13079230769230854,0.8961846153846142,-61.66232692307692,-0.14921730769230768,-1.005775,-167.3394423076923,1.4335980769230774,3.2232846153846153,-40.850115384615385,1.4472649649680482,3.4934644591368347,3.8522602365368286,4.469506746185896,-5.423737707800052,-5.33831041947823,13.91900030413376,13.629297208131446
H1_walk_20251205_050754,,-9.294,-0.364,-0.845,-8.447,-0.967,1.108,-55.72,-154.56,-39.27,0.23179230769230763,1.0781846153846146,-58.30232692307692,-0.05621730769230765,-0.654775,-156.13944230769232,1.9045980769230775,3.8522846153846153,-40.01011538461539,1.9194743796697527,4.053555121545291,3.671162939349643,4.323642467459859,-5.450371359846814,-5.420133187721725,13.819079345181061,13.60065279781805
H1_walk_20251205_050754,,-9.06,-0.44,-0.452,-8.203,0.086,0.83,-52.43,-142.1,-36.75,0.4657923076923076,1.3221846153846144,-55.01232692307692,-0.13221730769230766,0.39822499999999994,-143.6794423076923,2.2975980769230775,3.5742846153846153,-37.490115384615386,2.3480632047369063,3.8317444877705387,3.4868680884915477,4.242528671911237,-5.492401160758688,-5.496754133987154,13.726763073291558,13.567990631181752
H1_walk_20251205_050754,,-8.789,-0.67,0.065,-8.145,0.017,1.359,-48.65,-128.24,-33.25,0.7367923076923084,1.3801846153846142,-51.23232692307692,-0.3622173076923077,0.329225,-129.81944230769233,2.8145980769230774,4.103284615384615,-33.990115384615386,2.9318981253252145,4.341686689297311,3.3065931855721526,4.173954734293009,-5.543941506379404,-5.5663521196427785,13.637390569873443,13.532216094531293
H1_walk_20251205_050754,66765.0,-7.861,-0.139,1.752,-8.373,0.151,1.034,-27.3,-45.5,-13.23,1.6647923076923083,1.1521846153846145,-29.882326923076924,0.16878269230769233,0.463225,-47.07944230769231,4.501598076923077,3.7782846153846155,-13.970115384615385,4.802541646996064,3.9771272827766104,3.2438406982971038,4.067739068566296,-5.635802387960536,-5.634385323688748,13.578250224181012,13.497459371339714
H1_walk_20251205_050754,,-7.679,-0.366,1.898,-8.306,0.431,0.45,-30.38,-26.04,-9.8,1.8467923076923078,1.2191846153846146,-32.96232692307692,-0.05821730769230765,0.743225,-27.619442307692307,4.647598076923077,3.1942846153846154,-10.540115384615385,5.0014196951751115,3.4988925006490796,3.1865042708987725,3.938857073869776,-5.719538750989826,-5.699460093182032,13.51518863553912,13.464995801383076
H1_walk_20251205_050754,,-8.031,-0.445,1.945,-8.337,0.38,-0.177,-31.92,-6.23,-5.88,1.4947923076923075,1.188184615384614,-34.50232692307692,-0.13721730769230767,0.692225,-7.809442307692308,4.694598076923078,2.567284615384615,-6.620115384615384,4.9287405832034095,2.9123716155827735,3.1281447524213806,3.854454514419084,-5.788181546184073,-5.760785328467601,13.439131455119169,13.437066098778741
H1_walk_20251205_050754,,-8.339,-0.146,1.586,-8.514,0.213,-0.828,-30.31,13.09,-2.24,1.1867923076923077,1.0111846153846145,-32.89232692307692,0.16178269230769235,0.5252249999999999,11.510557692307692,4.335598076923078,1.9162846153846154,-2.980115384615385,4.498006258971529,2.2294623464358607,3.0629615082449395,3.7826835438434783,-5.859168852924266,-5.816735929836607,13.363775089398372,13.413917373883681
H1_walk_20251205_050754,66841.0,-8.737,-0.065,-1.457,-14.817,-5.24,3.003,-46.27,84.21,10.01,0.788792307692308,-5.291815384615386,-48.85232692307692,0.24278269230769234,-4.9277750000000005,82.63055769230769,1.2925980769230774,5.747284615384615,9.269884615384616,1.5336057279574715,9.236750346616162,2.951321514827652,3.6792202412299355,-6.0270242381057555,-5.869502501194087,13.293543838369455,13.395053490407783
H1_walk_20251205_050754,,-8.844,-0.337,-2.252,-17.973,-6.566,4.92,-44.66,92.61,13.86,0.6817923076923087,-8.447815384615385,-47.24232692307692,-0.02921730769230768,-6.253775,91.0305576923077,0.49759807692307767,7.664284615384615,13.119884615384615,0.8445698597835088,13.008325994869235,2.8419308854567116,3.5585710971984197,-6.208134847262876,-5.918580828242742,13.174703487884388,13.37954304687841
H1_walk_20251205_050754,,-9.146,-0.73,-2.627,-16.212,-1.721,-1.345,-38.71,98.98,18.76,0.3797923076923073,-6.686815384615386,-41.29232692307692,-0.42221730769230764,-1.408775,97.4005576923077,0.12259807692307767,1.3992846153846152,18.019884615384616,0.5809818761049487,6.975395646370612,2.7688713868916603,3.5308816267834158,-6.287623463254532,-5.963234682886986,13.020057800147677,13.365620707985093
H1_walk_20251205_050754,,-10.641,-1.876,-2.089,-10.191,2.209,-2.635,-30.03,99.82,23.87,-1.115207692307692,-0.6658153846153869,-32.61232692307692,-1.5682173076923076,2.5212250000000003,98.24055769230769,0.6605980769230775,0.10928461538461542,23.129884615384615,2.0345475026065194,2.609948036681056,2.740587215752218,3.5190025615149025,-6.204831451694167,-6.003531149363141,12.924197567519942,13.353432011305859
H1_walk_20251205_050754,66916.0,-7.473,1.85,-2.094,-10.383,-1.34,-4.348,6.37,69.79,19.74,2.0527923076923082,-0.8578153846153853,3.787673076923077,2.1577826923076926,-1.027775,68.2105576923077,0.6555980769230776,-1.6037153846153847,18.999884615384612,3.049555909342963,2.089036074260067,2.679678920986574,3.573973141484699,-6.289333442940095,-6.0408606915043865,12.991852741007317,13.343351881623011
H1_walk_20251205_050754,,-7.638,-0.292,-1.498,-9.232,-0.928,-5.827,-14.07,74.55,30.31,1.8877923076923082,0.2931846153846145,-16.652326923076924,0.01578269230769236,-0.6157750000000001,72.9705576923077,1.2515980769230775,-3.0827153846153847,29.569884615384613,2.265062170563156,3.1572567541882943,2.641369994315013,3.6218936255876697,-6.395817396273244,-6.0738425767700654,12.97415885420784,13.336396023562381
H1_walk_20251205_050754,,-9.806,-1.529,-1.407,-7.504,0.079,-6.037,-15.61,79.59,31.15,-0.28020769230769105,2.0211846153846142,-18.192326923076923,-1.2212173076923076,0.391225,78.0105576923077,1.3425980769230774,-3.2927153846153847,30.409884615384613,1.8364252393150111,3.8833257465959887,2.656311453790661,3.572061139102807,-6.356368586564268,-6.10512130591299,12.893754335625399,13.337543225491533
H1_walk_20251205_050754,,-10.562,-1.541,-2.647,-6.719,1.019,-5.731,4.27,87.71,33.81,-1.0362076923076913,2.8061846153846135,1.6876730769230766,-1.2332173076923076,1.3312249999999999,86.13055769230769,0.10259807692307765,-2.9867153846153847,33.069884615384616,1.614025301839413,4.30897910008212,2.666281800493877,3.493716006087818,-6.271179276675275,-6.134221474943278,12.839815711853339,13.346730394147723
H1_walk_20251205_050754,66992.0,-7.279,1.426,-6.047,-10.505,2.01,-4.499,27.51,69.58,26.11,2.246792307692308,-0.979815384615387,24.927673076923078,1.7337826923076922,2.3222249999999995,68.0005576923077,-3.2974019230769223,-1.7547153846153845,25.369884615384613,4.350510032210296,3.071122468994018,2.6526508984930106,3.4383804267904994,-6.332602413593426,-6.161232633563748,12.896752602362916,13.363888210079349
H1_walk_20251205_050754,,-8.375,1.821,-6.411,-10.27,1.773,-3.963,16.38,64.47,19.25,1.1507923076923081,-0.7448153846153858,13.797673076923076,2.1287826923076922,2.085225,62.89055769230769,-3.661401923076922,-1.2187153846153849,18.509884615384614,4.38883842591909,2.527485004205364,2.619368673095395,3.3382005791912235,-6.360667011579823,-6.185777071191112,12.986568035945835,13.388836732523327
H1_walk_20251205_050754,,-9.064,2.331,-5.803,-9.746,2.079,-3.441,7.91,61.88,17.92,0.46179230769230806,-0.22081538461538663,5.327673076923077,2.6387826923076925,2.3912250000000004,60.30055769230769,-3.0534019230769225,-0.6967153846153846,17.179884615384616,4.061980986725107,2.500425716126677,2.5337107630518707,3.2436785661053054,-6.351770171348994,-6.206241063781177,13.092215880315875,13.42031076462835
H1_walk_20251205_050754,,-10.091,2.247,-4.97,-9.019,2.335,-3.128,-0.28,58.8,18.97,-0.5652076923076912,0.5061846153846137,-2.862326923076923,2.5547826923076924,2.6472249999999997,57.220557692307686,-2.2204019230769223,-0.3837153846153849,18.229884615384613,3.431699147705466,2.7223630474034137,2.447412774722326,3.1588223688196533,-6.295940877360035,-6.223424704961867,13.202015333458023,13.458418825164234
H1_walk_20251205_050754,67068.0,-9.115,1.493,-3.362,-9.385,1.627,-3.051,-33.53,46.48,10.29,0.4107923076923079,0.14018461538461402,-36.11232692307692,1.8007826923076924,1.939225,44.900557692307686,-0.6124019230769226,-0.30671538461538495,9.549884615384615,1.9459200241434451,1.9683291529048936,2.3099149889636847,3.12178200189481,-6.296855251933957,-6.237420831408555,13.309382483355622,13.503684949250886
H1_walk_20251205_050754,,-9.359,1.438,-3.692,-9.423,1.0,-3.027,-24.78,45.85,7.56,0.16679230769230813,0.10218461538461376,-27.362326923076925,1.7457826923076922,1.312225,44.27055769230769,-0.9424019230769227,-0.2827153846153849,6.819884615384615,1.99090388198062,1.3462184573628926,2.201773540332395,3.1023423181620995,-6.288915572032435,-6.247671789082559,13.418582310036104,13.55605948912204
H1_walk_20251205_050754,,-9.658,1.888,-3.415,-9.641,0.625,-3.044,-21.07,43.61,7.07,-0.13220769230769136,-0.11581538461538621,-23.652326923076924,2.1957826923076924,0.937225,42.03055769230769,-0.6654019230769226,-0.29971538461538483,6.329884615384616,2.298194992810186,0.9907740487688188,2.2136711129160362,2.8043291173779368,-6.264978178085411,-6.250951209049601,13.525216805314363,13.615371447943167
H1_walk_20251205_050754,,-9.629,2.058,-3.151,-9.474,0.479,-3.211,-21.49,40.18,8.47,-0.10320769230769145,0.05118461538461361,-24.072326923076922,2.3657826923076923,0.791225,38.60055769230769,-0.40140192307692235,-0.46671538461538464,7.729884615384616,2.4018124570465456,0.9200435401184865,2.2542285580642547,2.355810151221353,-6.243188013864195,-6.247254604391757,13.633672868190066,13.683384292935093
H1_walk_20251205_050754,67144.0,-9.16,0.455,-3.135,-9.493,1.802,-3.467,-11.41,34.93,10.64,0.36579230769230797,0.03218461538461348,-13.992326923076924,0.7627826923076924,2.1142250000000002,33.35055769230769,-0.38540192307692234,-0.7227153846153849,9.899884615384616,0.9296107197974999,2.2345694724604606,2.2980141977944553,2.154729150752493,-6.267256377381964,-6.239745699462995,13.731784165263504,13.761556292490988
H1_walk_20251205_050754,,-9.273,0.845,-3.13,-9.404,1.809,-3.573,-10.36,34.16,11.06,0.2527923076923084,0.12118461538461389,-12.942326923076923,1.1527826923076923,2.121225,32.580557692307686,-0.38040192307692244,-0.8287153846153847,10.319884615384616,1.2399667372930594,2.2805811540765526,2.29715280819601,2.107426013254358,-6.264277153227573,-6.2353090779540565,13.839443095046747,13.847611622319256
H1_walk_20251205_050754,,-9.517,1.421,-3.367,-9.438,1.692,-3.642,-8.89,33.11,10.15,0.008792307692308654,0.0871846153846132,-11.472326923076924,1.7287826923076923,2.004225,31.530557692307692,-0.6174019230769225,-0.8977153846153847,9.409884615384616,1.8357429113348829,2.1978198105304063,2.2576879877482643,2.067552556268926,-6.236984665516108,-6.227074760040343,13.948827554291704,13.935277530927067
H1_walk_20251205_050754,,-9.6,1.737,-3.498,-9.452,1.426,-3.764,-9.66,31.99,9.31,-0.07420769230769153,0.07318461538461385,-12.242326923076924,2.0447826923076926,1.738225,30.41055769230769,-0.7484019230769228,-1.0197153846153846,8.569884615384616,2.1787033939533775,2.0165816631555726,2.258890379400009,1.9839484157034268,-6.206975754634286,-6.214596408813223,14.05794573024202,14.027772392458806
H1_walk_20251205_050754,67219.0,-9.373,1.328,-3.879,-8.976,1.074,-4.616,-6.51,26.46,8.19,0.15279230769230878,0.5491846153846129,-9.092326923076923,1.6357826923076924,1.386225,24.880557692307693,-1.1294019230769226,-1.8717153846153844,7.449884615384615,1.993659752714388,2.3930194260402615,2.227959877864093,1.8649617569810202,-6.194691284890939,-6.203781929265083,14.172866287513756,14.127604591018876
H1_walk_20251205_050754,,-9.45,1.307,-4.037,-9.143,0.67,-4.125,-3.43,24.78,7.98,0.07579230769230882,0.3821846153846131,-6.012326923076923,1.6147826923076922,0.982225,23.200557692307694,-1.2874019230769225,-1.3807153846153848,7.239884615384616,2.0665602649871992,1.73701065171613,2.2085519829082365,1.7283121825848216,-6.182096884690896,-6.196789088170225,14.286052153416941,14.233698101570948
H1_walk_20251205_050754,,-9.49,1.548,-4.535,-9.418,0.567,-3.979,-0.77,22.33,6.93,0.0357923076923079,0.10718461538461455,-3.352326923076923,1.8557826923076923,0.8792249999999999,20.75055769230769,-1.7854019230769227,-1.2347153846153849,6.189884615384615,2.5754359858644325,1.5195549425427386,2.0796093455757183,1.6405585518564294,-6.167866195302175,-6.188347590709295,14.396575058911653,14.341676091008592
H1_walk_20251205_050754,,-9.284,1.517,-4.803,-9.407,0.761,-3.455,-0.77,20.16,6.09,0.24179230769230742,0.11818461538461378,-3.352326923076923,1.8247826923076922,1.0732249999999999,18.580557692307693,-2.0534019230769225,-0.7107153846153849,5.349884615384616,2.757671998606956,1.2926313712221298,1.9455074446318543,1.5730882071943222,-6.166313421687782,-6.180568342012373,14.505998209472027,14.449860337171687
H1_walk_20251205_050754,67295.0,-9.397,1.0,-3.075,-9.261,1.589,-3.084,3.71,14.91,5.39,0.12879230769230787,0.2641846153846146,1.127673076923077,1.3077826923076923,1.901225,13.330557692307693,-0.32540192307692273,-0.33971538461538486,4.649884615384615,1.3537981534787327,1.9493220755368508,1.825751514482287,1.5512938121776192,-6.152080833797932,-6.172720324280178,14.616050681372183,14.558190727055724
H1_walk_20251205_050754,,-9.555,1.338,-3.116,-9.311,1.378,-3.008,4.27,14.21,5.11,-0.029207692307691602,0.21418461538461386,1.6876730769230766,1.6457826923076924,1.6902249999999999,12.630557692307693,-0.36640192307692265,-0.2637153846153848,4.369884615384616,1.6863285945580015,1.724030569385385,1.7500912801224844,1.5192731558982413,-6.125693752448381,-6.1664600535815035,14.725513126048355,14.666449154015263
H1_walk_20251205_050754,,-9.397,1.515,-2.989,-9.237,1.146,-2.821,3.29,14.14,4.9,0.12879230769230787,0.2881846153846137,0.707673076923077,1.8227826923076922,1.4582249999999999,12.560557692307693,-0.23940192307692243,-0.07671538461538496,4.159884615384616,1.8429426151321473,1.4884071262279228,1.7465505777729171,1.520614477193594,-6.1122891572488545,-6.159976633856373,14.835654767718722,14.774647284320688
H1_walk_20251205_050754,,-9.217,1.553,-2.97,-9.409,1.027,-2.661,3.08,14.56,5.46,0.3087923076923076,0.11618461538461311,0.49767307692307705,1.8607826923076922,1.3392249999999999,12.980557692307693,-0.22040192307692275,0.08328461538461518,4.719884615384616,1.8990634336371732,1.34683287479807,1.746873611309709,1.5451504342986533,-6.112023126158932,-6.153624366950156,14.943037457674503,14.88268399407235
H1_walk_20251205_050754,67371.0,-9.457,1.388,-2.474,-9.215,1.338,-2.261,4.55,16.31,5.46,0.06879230769230738,0.31018461538461395,1.9676730769230768,1.6957826923076922,1.650225,14.730557692307691,0.27559807692307725,0.4832846153846151,4.719884615384616,1.7194085090901627,1.7472896341802513,1.7323507162606842,1.577057175414981,-6.0923919351067015,-6.146436664129,15.05252978860093,14.990542653609593
H1_walk_20251205_050754,,-9.237,1.642,-2.345,-9.217,0.979,-2.367,3.01,17.01,5.18,0.288792307692308,0.3081846153846133,0.42767307692307677,1.9497826923076922,1.2912249999999998,15.430557692307694,0.40459807692307725,0.3772846153846152,4.439884615384615,2.0121513730469522,1.3800664617295353,1.7225678813028726,1.6283842971952953,-6.089479292461811,-6.138113816076986,15.16163614305491,15.09825813331894
H1_walk_20251205_050754,,-9.45,1.649,-2.24,-9.222,0.613,-2.345,-0.28,18.2,5.18,0.07579230769230882,0.3031846153846143,-2.862326923076923,1.9567826923076923,0.925225,16.620557692307692,0.5095980769230772,0.399284615384615,4.439884615384615,2.0234705777015796,1.0523261926388396,1.7698193478908522,1.62653927021258,-6.075241177183532,-6.1287484467173465,15.271166364810448,15.206308261243311
H1_walk_20251205_050754,,-9.275,1.95,-2.414,-9.39,0.601,-2.405,-3.36,18.69,5.11,0.25079230769230776,0.13518461538461324,-5.942326923076923,2.2577826923076922,0.913225,17.110557692307694,0.3355980769230773,0.3392846153846154,4.369884615384616,2.296324353508509,0.983549099485314,1.7905043731160974,1.6087710144739131,-6.071380264368093,-6.118474685881375,15.37902525403301,15.314240010415755
H1_walk_20251205_050754,67447.0,-9.363,0.608,-2.302,-9.1,0.349,-2.819,0.14,28.07,5.39,0.16279230769230857,0.42518461538461416,-2.442326923076923,0.9157826923076924,0.661225,26.490557692307693,0.4475980769230774,-0.07471538461538474,4.649884615384615,1.0322321993812003,0.7896726198134181,1.7894421508062526,1.7269919525621171,-6.075192118312654,-6.105835911000744,15.489391498187272,15.421209587619561
H1_walk_20251205_050754,,-9.273,0.715,-2.402,-9.103,0.285,-2.936,0.7,30.24,5.88,0.2527923076923084,0.42218461538461405,-1.882326923076923,1.0227826923076924,0.5972249999999999,28.66055769230769,0.3475980769230773,-0.19171538461538473,5.139884615384616,1.109420032987144,0.7560901657809598,1.7778269902467905,1.8395977940666586,-6.089365408208975,-6.091064190066633,15.598246986207128,15.527041687026601
H1_walk_20251205_050754,,-9.225,0.608,-2.491,-9.134,0.342,-2.95,0.14,32.13,6.16,0.30079230769230847,0.39118461538461347,-2.442326923076923,0.9157826923076924,0.6542250000000001,30.550557692307695,0.25859807692307735,-0.20571538461538497,5.419884615384616,0.9980014615648134,0.7895280700558175,1.7741224152415884,1.7818061972525716,-6.1131234796092215,-6.075260043305528,15.704180327741698,15.632148432980223
H1_walk_20251205_050754,,-9.098,0.481,-2.656,-9.284,0.397,-2.936,-0.35,33.95,6.16,0.42779230769230736,0.2411846153846131,-2.932326923076923,0.7887826923076924,0.709225,32.37055769230769,0.09359807692307731,-0.19171538461538473,5.419884615384616,0.9021890013786357,0.7732560429905794,1.788563245687783,1.784529541197197,-6.158406545459862,-6.058946711136977,15.799358436186338,15.736603827276912
H1_walk_20251205_050754,67522.0,-9.404,0.622,-2.891,-9.251,1.534,-3.25,3.5,42.42,7.98,0.1217923076923082,0.27418461538461436,0.917673076923077,0.9297826923076924,1.846225,40.84055769230769,-0.14140192307692256,-0.5057153846153848,7.239884615384616,0.9483268028363486,1.9337714456924056,1.7444845348166464,1.7890622079449334,-6.1477217103119015,-6.040418545162633,15.908806017300757,15.83328124956694
H1_walk_20251205_050754,,-9.39,1.12,-3.046,-9.462,1.45,-3.424,3.99,43.19,8.05,0.13579230769230755,0.06318461538461406,1.4076730769230772,1.4277826923076924,1.762225,41.61055769230769,-0.29640192307692237,-0.6797153846153847,7.309884615384616,1.4645330543506019,1.8898259841395826,1.7021316871648946,1.8226007610930581,-6.1331738391945185,-6.0180456874132755,16.016734434406107,15.926602257369172
H1_walk_20251205_050754,,-9.206,1.469,-3.171,-9.593,1.464,-3.668,2.87,44.45,8.54,0.3197923076923086,-0.06781538461538617,0.2876730769230771,1.7767826923076924,1.776225,42.87055769230769,-0.42140192307692237,-0.9237153846153849,7.799884615384615,1.8538617630546979,2.003203506584062,1.7037399941943474,1.8732192708600803,-6.128286339080557,-5.99252211111577,16.122533871296632,16.015480026981557
H1_walk_20251205_050754,,-9.191,1.613,-3.192,-9.713,1.275,-3.92,1.4,45.99,8.75,0.3347923076923074,-0.18781538461538538,-1.182326923076923,1.9207826923076923,1.5872249999999999,44.41055769230769,-0.4424019230769227,-1.1757153846153847,8.009884615384616,1.9993027539372037,1.9841533420944377,1.6875710844690652,1.9656850037070017,-6.123756632470819,-5.964495524285523,16.227536763579337,16.09858138535255
H1_walk_20251205_050754,67598.0,-9.854,1.031,-4.087,-9.83,0.579,-4.302,9.1,52.99,7.7,-0.3282076923076911,-0.30481538461538626,6.517673076923076,1.3387826923076922,0.8912249999999999,51.41055769230769,-1.3374019230769223,-1.5577153846153844,6.959884615384616,1.9205997215355477,1.8203493177933407,1.7883954902156043,1.9862432895594753,-6.078097904735335,-5.933794885172655,16.32954195328267,16.174527756263892
H1_walk_20251205_050754,,-9.864,1.072,-4.36,-9.56,1.199,-4.417,11.2,55.23,7.77,-0.33820769230769265,-0.03481538461538669,8.617673076923076,1.3797826923076923,1.511225,53.650557692307686,-1.6104019230769229,-1.6727153846153846,7.029884615384615,2.147458748143445,2.254548706406653,1.8719693197800862,2.0118195532174843,-6.026793964511849,-5.899586075921688,16.434275340633054,16.24384052870587
H1_walk_20251205_050754,,-9.27,1.161,-4.31,-9.627,1.117,-4.396,12.53,54.74,10.64,0.25579230769230854,-0.10181538461538686,9.947673076923076,1.4687826923076923,1.429225,53.16055769230769,-1.5604019230769222,-1.6517153846153847,9.899884615384616,2.158148851084963,2.186598770909864,1.942229109239953,2.0591223089111867,-6.02375677403131,-5.862246397445931,16.541087491297162,16.30659534883622
H1_walk_20251205_050754,,-9.612,0.866,-4.082,-9.943,0.61,-4.255,15.26,55.93,9.73,-0.08620769230769199,-0.4178153846153858,12.677673076923076,1.1737826923076924,0.922225,54.35055769230769,-1.3324019230769224,-1.5107153846153847,8.989884615384616,1.777777393149433,1.8186065048712194,1.9776830939987518,2.1914230522546148,-5.997159371492321,-5.820362836014516,16.64566857353033,16.362864316126736
H1_walk_20251205_050754,67674.0,-9.871,0.732,-4.188,-11.201,4.625,-3.522,20.37,63.63,2.94,-0.3452076923076923,-1.6758153846153867,17.787673076923078,1.0397826923076923,4.937225,62.05055769230769,-1.4384019230769223,-0.7777153846153846,2.199884615384615,1.8081251312789233,5.271564200823705,2.1594835888253274,2.439169830083824,-5.9083765186197175,-5.774767160954483,16.730036561590634,16.418812377906956
H1_walk_20251205_050754,,-9.94,0.9,-4.125,-11.641,4.075,-3.594,24.43,65.59,3.08,-0.4142076923076914,-2.115815384615386,21.847673076923076,1.2077826923076924,4.387225,64.0105576923077,-1.3754019230769226,-0.8497153846153847,2.3398846153846153,1.876709219407359,4.944333542273642,2.357163123032815,2.7090332341539534,-5.822911010347378,-5.725204083740129,16.809580314825084,16.47474572117001
H1_walk_20251205_050754,,-9.883,1.125,-3.941,-10.249,0.175,-2.922,27.51,67.62,3.29,-0.357207692307691,-0.7238153846153867,24.927673076923078,1.4327826923076923,0.48722499999999996,66.0405576923077,-1.1914019230769224,-0.17771538461538494,2.5498846153846153,1.8973408025791398,0.8904379088740071,2.622245118167485,3.0009715773468293,-5.78378346910223,-5.672242218844961,16.905641682307905,16.531239125931286
H1_walk_20251205_050754,,-10.191,1.799,-3.79,-9.859,-1.869,-1.888,30.66,69.72,3.01,-0.6652076923076926,-0.3338153846153862,28.077673076923077,2.1067826923076924,-1.556775,68.1405576923077,-1.0404019230769226,0.8562846153846153,2.269884615384615,2.4420218565882523,1.8078175942763963,2.9025741687152586,3.3388678136910124,-5.7579502483085285,-5.616810886179146,17.001892405130825,16.58908797919916
H1_walk_20251205_050754,67750.0,-10.093,-0.723,-1.505,-10.675,0.237,-1.716,32.55,88.41,-2.94,-0.5672076923076919,-1.149815384615387,29.967673076923074,-0.41521730769230764,0.549225,86.83055769230769,1.2445980769230776,1.0282846153846152,-3.6801153846153847,1.4293895032148825,1.6374042779838816,3.245815427844828,3.5906911653925944,-5.686133879969263,-5.563530769897181,16.91018803845242,16.64388484724189
H1_walk_20251205_050754,,-10.505,0.524,-1.704,-11.031,-0.053,-1.211,41.3,91.14,-1.89,-0.9792076923076927,-1.5058153846153868,38.71767307692308,0.8317826923076923,0.259225,89.5605576923077,1.0455980769230775,1.5332846153846151,-2.6301153846153844,1.656497959661414,2.164633753073377,3.598895583621613,3.830771980080542,-5.584619120204461,-5.511439409832126,16.932344412330053,16.69580898171263
H1_walk_20251205_050754,,-10.263,0.196,-1.677,-11.601,-0.936,-0.302,38.71,96.67,-2.1,-0.7372076923076918,-2.075815384615387,36.12767307692308,0.5037826923076923,-0.6237750000000001,95.0905576923077,1.0725980769230774,2.442284615384615,-2.840115384615385,1.3956141362445078,3.265403329479424,3.9173794382217153,4.038384619989592,-5.488467850062829,-5.462807328349834,16.926872691294133,16.744564490851193
H1_walk_20251205_050754,,-10.184,-0.06,-1.697,-12.127,-1.208,0.333,36.4,102.2,-1.33,-0.6582076923076912,-2.601815384615387,33.81767307692308,0.24778269230769234,-0.895775,100.6205576923077,1.0525980769230774,3.0772846153846154,-2.070115384615385,1.265936941700662,4.128139623405336,4.1528777773473715,4.277589137998414,-5.397002494861925,-5.418158173207963,16.886148443694243,16.791242689065204
H1_walk_20251205_050754,67826.0,-12.28,-1.218,0.644,-11.402,-1.067,-2.754,67.62,129.43,18.06,-2.7542076923076912,-1.8768153846153854,65.03767307692308,-0.9102173076923077,-0.754775,127.8505576923077,3.3935980769230776,-0.009715384615384792,17.319884615384613,4.464377164542161,2.022922558392244,4.421602524234765,4.551599227707825,-5.314072540314292,-5.378045227619468,16.810260411413566,16.83619743058487
H1_walk_20251205_050754,,-12.111,-1.163,0.278,-10.491,-0.713,-4.463,79.31,134.33,25.34,-2.5852076923076925,-0.9658153846153859,76.72767307692308,-0.8552173076923077,-0.400775,132.7505576923077,3.0275980769230775,-1.7187153846153849,24.599884615384614,4.071983002313696,2.0118157299062895,4.703165469385613,4.8027827125384235,-5.222594085633786,-5.342546212945718,16.74516954116596,16.878799776008567
H1_walk_20251205_050754,,-11.917,-1.173,-0.278,-10.127,-0.017,-5.645,89.25,138.74,32.97,-2.3912076923076917,-0.6018153846153869,86.66767307692308,-0.8652173076923078,0.29522499999999996,137.1605576923077,2.4715980769230774,-2.9007153846153844,32.22988461538461,3.5461630350467046,2.977161282216525,4.963939099118365,5.045255816530801,-5.121560294737068,-5.313048414632732,16.68415511198999,16.91875470514097
H1_walk_20251205_050754,,-11.905,-1.187,-1.275,-10.498,1.409,-7.14,101.29,141.26,38.99,-2.3792076923076912,-0.9728153846153855,98.70767307692309,-0.8792173076923078,1.721225,139.68055769230767,1.4745980769230775,-4.395715384615384,38.249884615384616,2.933954976775724,4.819885788658665,5.225964058463722,5.2960256289626395,-5.000506695244975,-5.2893035411667455,16.624629292608343,16.9558908512709
H1_walk_20251205_050754,67901.0,-11.199,2.383,-8.71,-8.825,2.809,-9.521,132.93,141.19,28.28,-1.6732076923076917,0.7001846153846145,130.3476730769231,2.6907826923076925,3.121225,139.61055769230768,-5.960401923076923,-6.776715384615386,27.539884615384615,6.750283443192541,7.493742416198275,5.460143296772605,5.491889102264532,-4.889753625622674,-5.26887310081251,16.725815971096225,16.99011284398432
H1_walk_20251205_050754,,-11.266,2.907,-9.225,-8.55,2.831,-10.036,120.61,137.55,21.7,-1.740207692307692,0.9751846153846131,118.02767307692308,3.2147826923076925,3.143225,135.9705576923077,-6.475401923076922,-7.291715384615385,20.959884615384613,7.43599224290318,7.999997605308674,5.682044363997694,5.709789071975062,-4.782740256794931,-5.252716901177151,16.83329217887238,17.021629642929746
H1_walk_20251205_050754,,-10.775,3.276,-9.706,-7.595,1.974,-10.572,104.37,129.64,16.17,-1.2492076923076922,1.930184615384614,101.78767307692308,3.5837826923076923,2.286225,128.06055769230767,-6.956401923076922,-7.827715384615384,15.429884615384617,7.924364072882643,8.380069542828199,5.913098969423957,5.76996382845386,-4.698183631038254,-5.243533619602714,16.958220021980427,17.051591591386973
H1_walk_20251205_050754,,-10.077,3.393,-10.268,-6.32,0.072,-11.723,84.35,111.79,10.22,-0.5512076923076918,3.2051846153846135,81.76767307692307,3.7007826923076923,0.384225,110.2105576923077,-7.518401923076923,-8.978715384615386,9.479884615384616,8.397975347229242,9.54139231072972,6.136115235727943,5.830080708523446,-4.648150758897787,-5.241161656934819,17.10231717117191,17.080452039706998
H1_walk_20251205_050754,67977.0,-5.437,-0.55,-11.787,-6.47,0.849,-9.313,14.14,31.71,10.92,4.088792307692308,3.055184615384614,11.557673076923077,-0.2422173076923077,1.161225,30.130557692307693,-9.037401923076924,-6.568715384615386,10.179884615384616,9.922274198933628,7.336935214296954,6.340299947442891,5.9729969838130526,-4.727840456278157,-5.243541702757825,17.12889889685265,17.10757017610733
H1_walk_20251205_050754,,-5.489,-0.859,-11.972,-6.229,1.287,-8.727,19.53,21.35,12.6,4.036792307692308,3.2961846153846137,16.947673076923078,-0.5512173076923077,1.599225,19.770557692307694,-9.222401923076923,-5.9827153846153855,11.859884615384615,10.08227305157504,7.015357224877207,6.490223007958154,6.069162432407273,-4.804031183768398,-5.25019328118635,17.149385932425538,17.13235555870856
H1_walk_20251205_050754,,-5.731,-0.83,-11.146,-5.537,0.938,-8.768,21.49,7.21,14.77,3.7947923076923082,3.988184615384614,18.907673076923075,-0.5222173076923076,1.250225,5.6305576923076925,-8.396401923076922,-6.023715384615386,14.029884615384615,9.228907022439003,7.331700083327714,6.661505882880499,6.150288105069251,-4.883287591772343,-5.262886031953875,17.176449254903392,17.162149366117884
H1_walk_20251205_050754,,-6.147,-0.249,-9.543,-4.463,-0.053,-9.074,22.4,-8.05,19.67,3.378792307692308,5.062184615384614,19.817673076923075,0.05878269230769234,0.259225,-9.629442307692308,-6.793401923076922,-6.329715384615385,18.929884615384616,7.587489871617679,8.10914345236896,6.8087256793503785,6.174675991106366,-4.972295805505845,-5.282796898495866,17.23036758797036,17.192582955984744
H1_walk_20251205_050754,68052.0,-3.716,-0.546,-9.409,-2.776,-2.496,-8.488,-47.53,-120.47,25.62,5.809792307692308,6.749184615384614,-50.11232692307692,-0.2382173076923077,-2.183775,-122.0494423076923,-6.659401923076923,-5.743715384615385,24.879884615384615,8.840705182126905,9.127465839028751,6.825948855711443,6.151873493409709,-5.085349753779716,-5.310198249121745,17.29135715080805,17.226070221507364
H1_walk_20251205_050754,,-2.943,-1.314,-9.27,-3.218,-2.778,-7.906,-55.65,-133.14,28.91,6.5827923076923085,6.307184615384614,-58.23232692307692,-1.0062173076923078,-2.465775,-134.7194423076923,-6.520401923076922,-5.161715384615384,28.169884615384614,9.319939327859265,8.514923947689992,6.801998519492494,6.105789380309236,-5.20078225095329,-5.342289333890325,17.335197744595387,17.25732405565108
H1_walk_20251205_050754,,-3.154,-1.706,-8.507,-3.573,-2.41,-7.861,-59.99,-146.09,31.43,6.371792307692308,5.952184615384613,-62.57232692307692,-1.3982173076923077,-2.0977750000000004,-147.66944230769232,-5.757401923076922,-5.116715384615384,30.689884615384614,8.700714094587124,8.124650021595148,6.682094111518757,6.160367170683051,-5.311155148597709,-5.377281970104938,17.36837011072514,17.28788712414656
H1_walk_20251205_050754,,-2.95,-2.003,-8.595,-3.439,-1.563,-8.94,-61.81,-160.79,33.81,6.575792307692308,6.086184615384614,-64.39232692307692,-1.6952173076923078,-1.250775,-162.3694423076923,-5.845401923076923,-6.195715384615385,33.069884615384616,8.960107691122706,8.774563829634445,6.6056145853979995,6.234550969243634,-5.409427254396197,-5.415594522052931,17.399815140011317,17.31739652499347
H1_walk_20251205_050754,68128.0,-3.707,-0.914,-8.562,-5.056,0.677,-8.404,-19.6,-232.26,28.63,5.818792307692308,4.469184615384614,-22.182326923076925,-0.6062173076923076,0.989225,-233.8394423076923,-5.812401923076922,-5.659715384615385,27.889884615384613,8.246809047115931,7.279049076759106,6.625815606400248,6.282773291067515,-5.492565324821186,-5.460440664127587,17.43085930184608,17.346696394154637
H1_walk_20251205_050754,,-4.422,-0.648,-8.299,-5.243,0.447,-8.835,-20.02,-241.64,28.0,5.103792307692308,4.2821846153846135,-22.602326923076923,-0.3402173076923077,0.759225,-243.2194423076923,-5.549401923076922,-6.090715384615386,27.259884615384614,7.547205141001696,7.484005717344972,6.688705456219713,6.238599177410847,-5.577098180972992,-5.513540940706767,17.465105346111383,17.376971711711192
H1_walk_20251205_050754,,-4.616,-0.007,-8.823,-5.738,-0.239,-8.435,-21.49,-250.88,26.88,4.9097923076923085,3.7871846153846134,-24.072326923076922,0.30078269230769233,0.07322499999999998,-252.4594423076923,-6.073401923076923,-5.690715384615386,26.139884615384613,7.815544872361804,6.836107869272481,6.621209245618759,6.081517440364264,-5.669611197684364,-5.574722078530533,17.50904722147853,17.40326422466638
H1_walk_20251205_050754,,-4.683,0.507,-8.648,-6.188,-0.218,-8.33,-30.8,-258.44,26.32,4.842792307692308,3.337184615384614,-33.382326923076924,0.8147826923076924,0.09422499999999998,-260.0194423076923,-5.898401923076922,-5.585715384615385,25.579884615384614,7.675132143310987,6.507372424082838,6.516217357246861,5.878202552115789,-5.761239980982103,-5.643819571275217,17.559951971145683,17.42566387624855
H1_walk_20251205_050754,68204.0,-6.147,0.546,-9.057,-7.145,0.9,-6.497,-57.4,-279.72,5.04,3.378792307692308,2.3801846153846142,-59.98232692307692,0.8537826923076923,1.212225,-281.29944230769235,-6.307401923076923,-3.7527153846153847,4.299884615384616,7.206143307167805,4.606261066403814,6.295729348752449,6.297649163847471,-5.845664660500385,-5.724052508273671,17.61071322871657,17.439730133673603
H1_walk_20251205_050754,,-6.262,0.158,-8.165,-7.456,1.137,-6.234,-63.49,-277.83,0.42,3.2637923076923085,2.0691846153846134,-66.07232692307693,0.4657826923076923,1.449225,-279.4094423076923,-5.415401923076922,-3.4897153846153848,-0.32011538461538463,6.340021429985084,4.308119257726122,6.065699181079152,6.209691560289223,-5.930891287450156,-5.810528425358494,17.64631235276289,17.446390100961185
H1_walk_20251205_050754,,-6.569,0.323,-7.796,-7.892,1.139,-5.788,-65.31,-275.17,-6.51,2.956792307692308,1.6331846153846135,-67.89232692307692,0.6307826923076923,1.451225,-276.74944230769233,-5.046401923076923,-3.043715384615385,-7.250115384615384,5.882744251195849,3.746671767195302,5.766424254083363,6.043520821778044,-6.0161453999249614,-5.894296755207228,17.68482703109483,17.448709190130426
H1_walk_20251205_050754,,-6.712,0.603,-7.368,-8.916,0.938,-5.173,-65.17,-272.02,-14.98,2.8137923076923084,0.6091846153846134,-67.75232692307692,0.9107826923076923,1.250225,-273.5994423076923,-4.618401923076923,-2.428715384615385,-15.720115384615385,5.48421266787825,2.798718790038355,5.843463276088964,5.898576709756541,-6.10230165029622,-5.972168833947403,17.723617748868357,17.44873435481586
H1_walk_20251205_050754,68280.0,-8.978,0.203,-4.434,-9.392,-1.768,-0.507,-74.55,-236.46,-42.14,0.5477923076923084,0.13318461538461435,-77.13232692307692,0.5107826923076924,-1.455775,-238.03944230769233,-1.6844019230769227,2.237284615384615,-42.88011538461539,1.8434167216321966,2.6725383893663404,5.585801350026987,5.789101805909179,-6.200902966335648,-6.047136726992722,17.797541594882194,17.44422414438695
H1_walk_20251205_050754,,-9.445,-0.845,-3.094,-8.842,-1.259,-0.057,-73.85,-222.81,-43.12,0.08079230769230783,0.6831846153846133,-76.43232692307691,-0.5372173076923077,-0.9467749999999999,-224.38944230769232,-0.3444019230769224,2.6872846153846153,-43.86011538461538,0.6432282000079773,2.929952682793028,5.3396517195814726,5.741428290040081,-6.231370698845019,-6.118156064481648,17.698748131430822,17.435368883970582
H1_walk_20251205_050754,,-9.816,-1.601,-2.51,-8.44,-1.07,0.433,-69.65,-209.65,-44.45,-0.2902076923076926,1.0851846153846143,-72.23232692307693,-1.2932173076923077,-0.7577750000000001,-211.22944230769232,0.23959807692307766,3.177284615384615,-45.19011538461539,1.3468625572250252,3.4419451081114314,5.066587569661244,5.655211769877316,-6.223881081894222,-6.179110058602548,17.604900192296185,17.42494379029176
H1_walk_20251205_050754,,-9.773,-1.704,-1.223,-8.145,-0.995,0.883,-63.14,-195.23,-42.91,-0.24720769230769157,1.3801846153846142,-65.72232692307692,-1.3962173076923077,-0.682775,-196.8094423076923,1.5265980769230774,3.627284615384615,-43.65011538461538,2.0835153231740073,3.9405944924814698,4.875173537373586,5.54315207718708,-6.2187204362816,-6.230130156930504,17.51241396318561,17.414295262485535
H1_walk_20251205_050754,68355.0,-7.882,-0.644,0.96,-7.377,0.912,0.689,-37.38,-84.21,-13.93,1.6437923076923084,2.148184615384614,-39.96232692307692,-0.3362173076923077,1.2242250000000001,-85.7894423076923,3.7095980769230774,3.4332846153846153,-14.670115384615384,4.071389581105161,4.230941649637446,4.714403579852742,5.3362761855002345,-6.28755998867812,-6.275641520468365,17.44595171018027,17.40672028465132
H1_walk_20251205_050754,,-7.291,0.067,1.218,-7.547,1.067,0.024,-34.58,-57.96,-8.26,2.2347923076923077,1.978184615384614,-37.16232692307692,0.37478269230769234,1.379225,-59.53944230769231,3.9675980769230774,2.7682846153846152,-9.000115384615384,4.569091072081822,3.67135883358526,4.511315133774197,5.065506420623182,-6.381113886303649,-6.314814653164264,17.411787549078785,17.4020099663548
H1_walk_20251205_050754,,-6.992,0.72,1.431,-7.449,1.34,-0.603,-33.11,-31.57,-3.22,2.533792307692308,2.076184615384614,-35.69232692307692,1.0277826923076923,1.652225,-33.14944230769231,4.1805980769230775,2.141284615384615,-3.960115384615385,4.9953819675677344,3.409617252987144,4.316879062179291,4.8127232081366484,-6.480463209040602,-6.3483909087049035,17.40942130793114,17.399677523044865
H1_walk_20251205_050754,,-7.081,0.811,1.113,-7.607,1.208,-1.572,-35.0,-5.95,-0.07,2.4447923076923077,1.9181846153846136,-37.58232692307692,1.1187826923076925,1.520225,-7.529442307692308,3.8625980769230774,1.1722846153846151,-0.8101153846153846,4.706203145233808,2.713810510848293,4.138687996115366,4.539587267519199,-6.57927506815671,-6.377014809544774,17.41568312000877,17.399862276300368
H1_walk_20251205_050754,68431.0,-7.789,1.01,-2.525,-24.24,-10.163,4.896,-58.94,95.9,13.93,1.7367923076923084,-14.714815384615385,-61.52232692307692,1.3177826923076923,-9.850775,94.3205576923077,0.22459807692307754,7.640284615384616,13.189884615384615,2.1916758520279473,19.285681447851967,3.881962414587129,4.361561234552989,-6.784239992998035,-6.40059653035171,17.323942715031883,17.40227960977095
H1_walk_20251205_050754,,-7.286,0.395,-3.326,-16.743,-0.704,-2.13,-60.13,108.85,20.23,2.2397923076923085,-7.217815384615385,-62.71232692307692,0.7027826923076923,-0.391775,107.27055769230769,-0.5764019230769226,0.6142846153846153,19.489884615384614,2.41719098772349,7.254494618215232,3.6368266917392975,4.190672627056627,-6.896524603103233,-6.41832851339575,17.275476320648977,17.406618025286228
H1_walk_20251205_050754,,-9.289,-0.948,-4.779,-8.713,2.592,-2.673,-55.79,117.18,30.17,0.2367923076923084,0.8121846153846146,-58.37232692307692,-0.6402173076923077,2.9042250000000003,115.6005576923077,-2.0294019230769225,0.07128461538461517,29.429884615384616,2.1411260970431765,3.016496013006314,3.4447170621728316,4.096297904337515,-6.905817032345214,-6.43097324460499,17.1891952152529,17.413076295164988
H1_walk_20251205_050754,,-18.928,-5.87,2.419,-6.738,-0.55,-1.096,-50.68,95.2,30.45,-9.402207692307693,2.7871846153846134,-53.26232692307692,-5.562217307692308,-0.23777500000000007,93.6205576923077,5.168598076923077,1.6482846153846151,29.709884615384613,12.08528762372062,3.2468103123181193,3.3108021269080377,4.015811305340872,-6.828705231012942,-6.438928012437424,17.150040214246843,17.422273760816292
H1_walk_20251205_050754,68506.0,-8.586,-2.292,-1.493,-8.78,1.5,-6.779,-36.12,86.87,22.54,0.9397923076923078,0.7451846153846144,-38.70232692307692,-1.9842173076923075,1.812225,85.2905576923077,1.2565980769230773,-4.034715384615385,21.799884615384613,2.529696944827605,4.485352583296322,3.1871227364480896,3.961094243400993,-6.832452810950641,-6.442313917102539,17.059183783751745,17.434140783664848
H1_walk_20251205_050754,,-9.17,-0.845,-1.752,-5.355,3.123,-6.987,-11.2,96.88,30.38,0.3557923076923082,4.170184615384613,-13.782326923076923,-0.5372173076923077,3.435225,95.30055769230769,0.9975980769230774,-4.242715384615385,29.639884615384613,1.1875994800343306,6.869632039772407,3.071258003141771,3.947912541270237,-6.818798580217951,-6.441439448272193,17.000130817144804,17.448698749685395
H1_walk_20251205_050754,,-10.993,-0.495,-3.668,-5.798,2.881,-7.574,19.88,103.81,40.32,-1.4672076923076922,3.7271846153846138,17.297673076923076,-0.18721730769230766,3.193225,102.2305576923077,-0.9184019230769227,-4.829715384615385,39.579884615384614,1.7410372842009472,6.885836314796866,3.0896867083011417,3.9376355479160563,-6.670153600923114,-6.435930166193208,17.020304715158606,17.46464488461626
H1_walk_20251205_050754,,-11.687,0.218,-6.48,-8.318,2.149,-7.629,32.69,105.28,43.12,-2.1612076923076913,1.2071846153846142,30.107673076923074,0.5257826923076924,2.4612249999999998,103.7005576923077,-3.730401923076923,-4.884715384615385,42.37988461538461,4.343174488380161,5.60137193774387,3.15223262648288,3.9100317232144457,-6.527304807480113,-6.428175009170612,17.058336021633593,17.488616082219497
H1_walk_20251205_050754,68582.0,-9.564,1.859,-6.717,-8.952,2.371,-2.852,0.21,73.29,12.74,-0.03820769230769194,0.5731846153846138,-2.372326923076923,2.1667826923076925,2.683225,71.7105576923077,-3.967401923076922,-0.10771538461538466,11.999884615384616,4.520695199045177,2.745876837737164,3.1823269822417126,3.874387223805454,-6.494450600582098,-6.419969648364567,17.171420687035592,17.5203504568403
H1_walk_20251205_050754,,-10.715,2.247,-5.116,-8.301,0.916,-2.783,-2.8,66.5,14.84,-1.1892076923076917,1.2241846153846137,-5.382326923076922,2.5547826923076924,1.2282250000000001,64.9205576923077,-2.366401923076922,-0.03871538461538471,14.099884615384616,3.6798080930805184,1.7345499428310769,3.184506404503433,3.815372312966544,-6.42792870448958,-6.4113743090167095,17.277346864301713,17.55973585854373
H1_walk_20251205_050754,,-11.031,2.434,-3.384,-8.938,-0.613,-2.491,-6.93,60.76,17.08,-1.5052076923076925,0.5871846153846132,-9.512326923076923,2.7417826923076927,-0.300775,59.18055769230769,-0.6344019230769224,0.2532846153846151,16.339884615384612,3.191471185648394,0.7066855521092168,3.117356319092186,3.7226754584725055,-6.365547968877792,-6.399647174672045,17.37021577578784,17.605781252402174
H1_walk_20251205_050754,,-10.282,2.496,-2.994,-9.5,-0.002,-2.522,-11.62,57.68,14.21,-0.7562076923076919,0.025184615384613807,-14.202326923076923,2.8037826923076925,0.310225,56.10055769230769,-0.24440192307692277,0.2222846153846154,13.469884615384617,2.914237423339628,0.38247126129129927,3.035101139831791,3.6322988183067553,-6.321319602809644,-6.384075878052135,17.46990893075447,17.657239741028125
H1_walk_20251205_050754,68658.0,-9.488,0.471,-1.917,-9.708,1.852,-2.35,-12.46,49.28,17.08,0.03779230769230857,-0.18281538461538638,-15.042326923076924,0.7787826923076924,2.164225,47.70055769230769,0.8325980769230774,0.3942846153846151,16.339884615384612,1.1406797526276753,2.2074310121510172,2.8828658345287415,3.556660389473053,-6.282735938664703,-6.363653843021894,17.571897891713647,17.712952372297817
H1_walk_20251205_050754,,-9.651,0.689,-1.922,-9.375,1.706,-3.151,-2.94,47.46,17.5,-0.1252076923076917,0.1501846153846138,-5.522326923076923,0.9967826923076923,2.018225,45.88055769230769,0.8275980769230775,-0.4067153846153846,16.759884615384614,1.3016033492673433,2.0642686291774295,2.741716334724834,3.4991101931655018,-6.222271540127126,-6.338981766176668,17.672750774542845,17.7725998388315
H1_walk_20251205_050754,,-9.763,1.833,-2.249,-9.316,1.682,-3.527,3.43,46.41,15.75,-0.2372076923076918,0.20918461538461308,0.8476730769230771,2.1407826923076922,1.994225,44.830557692307686,0.5005980769230773,-0.7827153846153849,15.009884615384616,2.21129293843968,2.152518275706903,2.7078923814214417,2.797820662004475,-6.174427671940658,-6.306117941881766,17.778628245564338,17.839948822726708
H1_walk_20251205_050754,,-9.648,2.546,-2.852,-9.445,1.704,-3.659,2.31,46.62,15.75,-0.12220769230769157,0.08018461538461352,-0.27232692307692297,2.8537826923076923,2.016225,45.04055769230769,-0.10240192307692242,-0.9147153846153846,15.009884615384616,2.858233113100463,2.215467683813386,2.670912280754368,2.563468338151957,-6.13771525109343,-6.268987958655222,17.88544645969688,17.913268964063963
H1_walk_20251205_050754,68734.0,-9.627,1.941,-4.18,-9.476,1.524,-4.168,5.18,38.99,12.11,-0.10120769230769255,0.04918461538461294,2.5976730769230767,2.2487826923076923,1.836225,37.41055769230769,-1.4304019230769223,-1.423715384615385,11.369884615384615,2.6670800992371864,2.3240281567584473,2.648723080524433,2.5310823342253577,-6.104178921217941,-6.230693766712514,17.993369625157182,17.994151262763918
H1_walk_20251205_050754,,-9.442,1.689,-4.204,-9.421,1.737,-4.094,4.55,37.59,11.62,0.08379230769230794,0.10418461538461443,1.9676730769230768,1.9967826923076923,2.049225,36.01055769230769,-1.4544019230769223,-1.349715384615385,10.879884615384615,2.471729601913973,2.4559945346387266,2.253765079252016,2.47776709435644,-6.079565460707207,-6.194703988416636,18.102124865402633,18.08075707350261
H1_walk_20251205_050754,,-9.418,1.486,-4.221,-9.282,1.723,-4.003,5.39,36.19,11.41,0.10779230769230885,0.24318461538461378,2.8076730769230767,1.7937826923076923,2.035225,34.61055769230769,-1.4714019230769226,-1.258715384615385,10.669884615384616,2.322563055775824,2.405336562157616,2.2301074386568365,2.3624608248390393,-6.057661632282064,-6.158219236818004,18.212141103084708,18.17510814691773
H1_walk_20251205_050754,,-9.531,1.436,-4.202,-9.268,1.649,-3.735,8.12,34.51,10.71,-0.005207692307692469,0.2571846153846131,5.537673076923076,1.7437826923076922,1.961225,32.93055769230769,-1.4524019230769225,-0.9907153846153847,9.969884615384617,2.2694220727331835,2.2122532405511675,2.2643719779863742,2.142663812997016,-6.029736616257545,-6.122262617562029,18.32199926911495,18.275869699965128
H1_walk_20251205_050754,68810.0,-9.33,1.622,-3.628,-9.325,2.142,-3.257,14.42,27.3,8.4,0.19579230769230804,0.20018461538461452,11.837673076923076,1.9297826923076924,2.454225,25.720557692307693,-0.8784019230769227,-0.5127153846153849,7.659884615384616,2.1293158069546756,2.515188123477643,2.2304386754330405,1.9169720395965382,-6.01054170093707,-6.094028544333232,18.429993932437053,18.379202809768078
H1_walk_20251205_050754,,-9.27,1.699,-3.448,-9.445,2.041,-3.24,14.77,26.32,7.63,0.25579230769230854,0.08018461538461352,12.187673076923076,2.0067826923076924,2.353225,24.740557692307693,-0.6984019230769225,-0.495715384615385,6.889884615384616,2.1401803019787398,2.4062068106698056,2.089945057704267,1.7273093970373297,-5.995241613237258,-6.073182349457342,18.536434407474786,18.48454415353707
H1_walk_20251205_050754,,-9.299,1.89,-3.475,-9.433,1.486,-3.015,14.14,25.62,6.79,0.22679230769230863,0.09218461538461398,11.557673076923077,2.197782692307692,1.798225,24.040557692307694,-0.7254019230769226,-0.2707153846153849,6.049884615384616,2.3254873604127257,1.8208234327924453,1.9554534485542674,1.648903839420657,-5.98265449571682,-6.054930630568877,18.643131950499843,18.5893171671672
H1_walk_20251205_050754,,-9.251,2.039,-3.319,-9.428,0.991,-2.941,12.81,24.92,6.02,0.27479230769230867,0.09718461538461298,10.227673076923077,2.3467826923076927,1.3032249999999999,23.340557692307694,-0.5694019230769225,-0.19671538461538463,5.279884615384615,2.430456411311568,1.3215661892757522,1.8660100254984222,1.6383833488472648,-5.976260174186026,-6.039918708237194,18.749708253353514,18.69379906237755
H1_walk_20251205_050754,68885.0,-9.557,0.72,-2.886,-9.241,1.065,-3.068,1.33,23.52,4.55,-0.03120769230769227,0.28418461538461415,-1.252326923076923,1.0277826923076923,1.377225,21.940557692307692,-0.13640192307692267,-0.32371538461538485,3.809884615384615,1.0372640296884408,1.4430181033109,1.8427901581155892,1.6601787162964237,-5.949490298254344,-6.026365942564649,18.857949720943136,18.798549696150406
H1_walk_20251205_050754,,-9.457,0.708,-2.943,-9.251,0.845,-3.005,4.2,23.66,4.34,0.06879230769230738,0.27418461538461436,1.6176730769230772,1.0157826923076922,1.157225,22.080557692307693,-0.1934019230769226,-0.2607153846153847,3.599884615384615,1.036316150332199,1.21750540685196,1.8184453417478978,1.7236503604294535,-5.937801070180838,-6.0135712142888345,18.9665172498845,18.903314261531655
H1_walk_20251205_050754,,-9.418,0.983,-2.96,-9.237,0.689,-2.891,6.51,23.73,4.55,0.10779230769230885,0.2881846153846137,3.9276730769230768,1.2907826923076924,1.0012249999999998,22.150557692307693,-0.21040192307692251,-0.1467153846153848,3.809884615384615,1.3122530661397578,1.0521536376652498,1.826208502252777,1.7368453306380494,-5.929780561330582,-6.000377078740128,19.075016296307258,19.007881535762166
H1_walk_20251205_050754,,-9.299,1.094,-3.07,-9.306,0.828,-2.721,6.02,24.15,4.97,0.22679230769230863,0.21918461538461464,3.4376730769230766,1.4017826923076924,1.140225,22.57055769230769,-0.3204019230769224,0.023284615384615126,4.2298846153846155,1.455708370379588,1.1613341980497736,1.8127804749060936,1.7115275742615714,-5.9311450392130665,-5.986317663311576,19.18179999541762,19.111677468270997
H1_walk_20251205_050754,68961.0,-9.442,1.254,-2.726,-8.94,1.752,-2.391,5.88,26.88,5.81,0.08379230769230794,0.5851846153846143,3.297673076923077,1.5617826923076923,2.064225,25.30055769230769,0.02359807692307747,0.3532846153846152,5.069884615384615,1.5642068910648406,2.1744599109147296,1.784350553315386,1.6957864561784606,-5.910168041834835,-5.97099702244488,19.292134981451838,19.214500281263916
H1_walk_20251205_050754,,-9.414,1.5,-2.613,-9.005,1.429,-2.345,4.97,27.44,5.53,0.11179230769230841,0.520184615384613,2.3876730769230767,1.8077826923076923,1.741225,25.860557692307694,0.13659807692307746,0.399284615384615,4.789884615384616,1.8163795906377895,1.8606140757262581,1.7333774540954445,1.7749161135115088,-5.892970995320116,-5.954171677372494,19.40179129345277,19.316503274571396
H1_walk_20251205_050754,,-9.356,1.586,-2.525,-8.906,0.952,-2.264,2.24,28.35,5.18,0.16979230769230824,0.6191846153846132,-0.3423269230769228,1.8937826923076924,1.264225,26.770557692307694,0.22459807692307754,0.4802846153846154,4.439884615384615,1.9145982893529379,1.4873895758439144,1.6814346721631397,1.8626877824931032,-5.883849269386177,-5.93406266482169,19.512311692544866,19.4165211727312
H1_walk_20251205_050754,,-9.237,1.732,-2.474,-9.165,0.692,-2.302,-1.19,28.84,4.62,0.288792307692308,0.36018461538461466,-3.772326923076923,2.0397826923076923,1.004225,27.260557692307692,0.27559807692307725,0.44228461538461517,3.8798846153846154,2.078477502602317,1.1549097318798034,1.640734995028245,1.8297217289361334,-5.883926479562627,-5.9118384540325,19.61993119637711,19.515185400965812
H1_walk_20251205_050754,69037.0,-9.139,0.352,-2.359,-9.328,0.608,-3.132,-0.28,37.03,5.11,0.38679230769230877,0.1971846153846144,-2.862326923076923,0.6597826923076924,0.920225,35.45055769230769,0.39059807692307746,-0.3877153846153849,4.369884615384616,0.8587714178142721,1.0178502063844337,1.6088123520534994,1.7748288604723863,-5.936067696974357,-5.888353410452629,19.706965570035294,19.606034662190698
H1_walk_20251205_050754,,-9.189,0.294,-2.718,-9.426,0.34,-2.862,2.73,38.71,5.39,0.33679230769230806,0.09918461538461365,0.14767307692307696,0.6017826923076923,0.652225,37.13055769230769,0.03159807692307748,-0.11771538461538489,4.649884615384615,0.6903404274320328,0.6701432312044506,1.5636643899814031,1.7430102212580985,-5.985303740707023,-5.86217847800824,19.797210959627414,19.691089318232795
H1_walk_20251205_050754,,-9.15,0.62,-2.965,-9.39,0.335,-2.493,3.71,40.18,5.74,0.37579230769230776,0.13518461538461324,1.127673076923077,0.9277826923076924,0.6472249999999999,38.60055769230769,-0.2154019230769224,0.25128461538461533,4.999884615384616,1.023913361145198,0.7073323397036784,1.556480515900746,1.7453530747602444,-6.019905909481981,-5.834356849042694,19.895519041418893,19.774411708008504
H1_walk_20251205_050754,,-9.146,0.926,-3.159,-9.734,1.079,-2.35,2.31,41.65,6.16,0.3797923076923073,-0.20881538461538618,-0.27232692307692297,1.2337826923076924,1.391225,40.07055769230769,-0.40940192307692236,0.3942846153846151,5.419884615384616,1.3542790936285434,1.461017187922875,1.5318792918246158,1.801516882264414,-6.037618723865824,-5.804839800562765,19.993876139770894,19.855617653704954
H1_walk_20251205_050754,69113.0,-9.627,2.273,-2.589,-10.1,0.189,-3.764,6.16,50.68,6.16,-0.10120769230769255,-0.5748153846153858,3.577673076923077,2.5807826923076926,0.501225,49.10055769230769,0.16059807692307748,-1.0197153846153846,5.419884615384616,2.587754633694737,1.2733651057873525,1.60528423767636,1.8589899735933346,-6.013176061391627,-5.772996795422174,20.09373225388212,19.929342957775972
H1_walk_20251205_050754,,-9.457,1.972,-2.795,-10.129,1.256,-3.888,0.21,53.13,5.6,0.06879230769230738,-0.6038153846153858,-2.372326923076923,2.2797826923076925,1.568225,51.55055769230769,-0.04540192307692248,-1.1437153846153847,4.859884615384615,2.281272197779657,2.0327340087500736,1.670342506376348,1.8891038890868257,-5.988656667638436,-5.737969294318584,20.193787630666886,19.99627158955015
H1_walk_20251205_050754,,-9.698,0.948,-3.192,-10.234,1.957,-3.668,-3.43,55.65,5.04,-0.17220769230769228,-0.7088153846153862,-6.012326923076923,1.2557826923076922,2.269225,54.07055769230769,-0.4424019230769227,-0.9237153846153849,4.299884615384616,1.3425219257545318,2.550500237574505,1.7862746357949049,1.8929114688201163,-5.939688414398338,-5.700473415553978,20.290647021706974,20.056627277005134
H1_walk_20251205_050754,,-9.895,0.215,-3.455,-9.818,0.524,-3.836,-0.14,57.68,5.46,-0.36920769230769146,-0.2928153846153858,-2.722326923076923,0.5227826923076924,0.836225,56.10055769230769,-0.7054019230769226,-1.0917153846153846,4.719884615384616,0.9524746382535709,1.406006963389006,1.8958126049298882,1.9560893283402763,-5.8567267389848,-5.659486020208576,20.37144501977252,20.110500257865333
H1_walk_20251205_050754,69188.0,-10.06,0.56,-3.812,-10.239,0.871,-3.807,15.75,68.32,2.45,-0.5342076923076924,-0.713815384615387,13.167673076923077,0.8677826923076923,1.183225,66.74055769230769,-1.0624019230769224,-1.0627153846153847,1.7098846153846154,1.4721149770812878,1.7432492055460223,2.0433220071840466,2.243715197285444,-5.77609100940652,-5.614310116403798,20.45202138338021,20.163818115062327
H1_walk_20251205_050754,,-9.823,0.78,-3.788,-11.096,3.527,-3.769,16.87,70.42,2.66,-0.2972076923076923,-1.5708153846153863,14.287673076923078,1.0877826923076923,3.839225,68.8405576923077,-1.0384019230769224,-1.024715384615385,1.9198846153846154,1.532932533381977,4.272838774472639,2.254518414769827,2.5262603421655854,-5.7002562792114055,-5.564606556635149,20.537524285691347,20.2171394146743
H1_walk_20251205_050754,,-10.065,0.316,-3.776,-11.567,3.601,-4.061,18.06,72.94,2.45,-0.5392076923076914,-2.0418153846153864,15.477673076923075,0.6237826923076923,3.9132249999999997,71.3605576923077,-1.0264019230769224,-1.3167153846153847,1.7098846153846154,1.3165677689972604,4.606091550279903,2.4826594772080646,2.7219341272408775,-5.581344594897055,-5.512203265459651,20.593834977312174,20.27073909847057
H1_walk_20251205_050754,,-10.045,0.457,-3.819,-10.675,0.459,-3.544,22.4,75.74,2.31,-0.5192076923076918,-1.149815384615387,19.817673076923075,0.7647826923076924,0.771225,74.16055769230769,-1.0694019230769225,-0.7997153846153848,1.5698846153846153,1.4135379964067118,1.598877142157509,2.7402547350716016,3.0128832285936458,-5.501735980188275,-5.456333153116615,20.667394799502503,20.32507766658733
H1_walk_20251205_050754,69264.0,-10.388,-1.479,-2.414,-10.211,-0.22,-2.053,15.12,92.96,-5.18,-0.8622076923076918,-0.6858153846153865,12.537673076923076,-1.1712173076923078,0.09222499999999997,91.38055769230769,0.3355980769230773,0.6912846153846153,-5.920115384615384,1.4925743384324417,0.9781219821001909,3.1071858776409913,3.2584369762780168,-5.447050499205397,-5.403785636544929,20.574221894931632,20.377587278877645
H1_walk_20251205_050754,,-10.268,-0.225,-1.948,-10.514,-0.586,-1.814,28.28,94.99,-2.31,-0.7422076923076926,-0.9888153846153855,25.697673076923078,0.08278269230769233,-0.273775,93.41055769230769,0.8015980769230775,0.9302846153846152,-3.050115384615385,1.0955750588586783,1.3849686209796863,3.4855776486195253,3.5304036123941853,-5.349188372703427,-5.3534691926182685,20.533420326209498,20.42703073386126
