Timestamp,AccX,AccY,AccZ,GyroX,GyroY,GyroZ,MagnX,MagnY,MagnZ
0.0,3.927,1.687,8.717,-10.29,-27.02,47.53,-47.797,-25.106,-197.727
,4.003,1.74,8.607,-3.57,-15.54,8.12,-47.883,-26.444,-199.926
,4.106,2.335,8.83,-1.61,-3.5,-26.95,-44.431,-27.538,-197.9
,4.015,2.127,8.849,-3.85,4.48,-54.95,-47.673,-22.999,-197.074
76.0,3.783,2.422,8.734,-12.18,0.07,-79.59,-45.103,-28.203,-196.752
,4.006,3.099,9.799,-20.16,-32.9,-133.21,-46.668,-26.102,-198.332
,2.398,4.082,9.024,-8.19,-16.31,-138.39,-47.534,-24.369,-198.72
,2.635,2.517,9.141,13.79,-6.58,-103.04,-45.322,-22.331,-196.27
152.0,3.728,2.324,9.112,14.35,-22.82,-79.03,-43.042,-22.997,-197.245
,3.075,3.439,8.796,30.1,-44.38,-104.86,-44.327,-22.235,-196.26
,2.814,3.412,8.39,18.62,-35.35,-105.28,-43.561,-20.789,-197.27
,3.108,3.975,8.641,8.68,-9.1,-104.3,-40.961,-20.427,-196.383
228.0,2.871,3.484,9.146,-5.25,16.87,-104.16,-38.43,-18.96,-192.915
,2.663,3.434,9.684,25.97,-15.47,-113.68,-38.136,-15.296,-192.548
,2.254,3.915,8.375,39.69,-36.26,-93.31,-37.054,-12.822,-191.836
,2.505,4.226,8.275,26.32,-25.27,-64.82,-38.153,-13.699,-192.265
303.0,2.699,3.867,8.514,16.73,-12.46,-54.46,-39.362,-12.441,-192.875
,2.623,3.443,8.461,12.11,7.0,-59.22,-38.005,-10.827,-193.579
,2.735,3.62,8.914,7.98,16.52,-70.91,-36.736,-9.433,-191.939
,2.077,4.386,8.796,26.32,-7.98,-94.08,-39.352,-7.158,-194.041
379.0,2.357,4.494,8.368,26.67,-7.07,-82.67,-38.509,-8.616,-193.184
,2.041,5.104,8.282,13.23,-11.13,-69.44,-38.303,-8.651,-193.191
,1.941,4.941,7.882,-5.67,-4.62,-52.15,-38.603,-4.877,-192.1
,1.871,4.901,8.277,-38.36,19.67,-21.84,-39.001,-3.482,-191.99
454.0,1.649,4.63,8.32,-50.75,43.19,16.31,-36.851,-7.297,-192.26
,1.673,4.666,8.588,-45.78,43.12,35.63,-42.419,-5.582,-194.582
,1.606,4.886,8.72,-43.75,39.06,49.14,-41.406,-11.043,-193.735
,1.737,4.329,9.174,-50.61,27.16,63.07,-43.712,-8.022,-195.427
530.0,1.716,3.888,9.734,-38.78,8.89,70.63,-45.329,-11.211,-197.103
,1.658,3.417,9.418,-17.08,-14.91,84.42,-42.801,-16.424,-198.044
,2.252,3.008,9.234,-0.77,-16.73,100.1,-42.479,-13.795,-195.337
,5.788,0.306,13.259,106.05,-79.31,-65.31,-41.937,-15.998,-194.61
606.0,-0.165,6.133,4.85,138.53,-135.38,-62.65,-42.822,-18.509,-195.61
,3.977,4.865,6.138,38.85,-29.96,-21.28,-37.787,-13.5,-192.512
,2.02,4.36,9.67,-6.79,19.18,-13.16,-38.029,-7.632,-192.732
,2.982,4.056,8.794,18.41,1.4,-4.69,-37.384,-9.613,-193.929
682.0,2.565,4.805,8.524,32.27,-2.24,24.43,-37.783,-9.539,-193.492
,2.977,4.441,7.662,7.63,-0.35,1.47,-37.815,-9.266,-193.304
,2.656,4.279,8.026,-20.37,16.66,-11.76,-38.683,-8.854,-193.365
,1.843,4.996,9.519,2.8,11.83,0.77,-39.22,-6.65,-193.952
757.0,3.163,4.267,7.937,20.44,3.57,5.81,-39.465,-12.183,-194.791
,2.812,3.888,8.402,9.1,8.61,-7.91,-39.526,-7.396,-194.222
,2.649,3.774,8.198,7.14,12.95,-26.46,-39.842,-4.944,-193.225
,2.656,4.618,8.574,4.13,15.4,-34.72,-39.552,-10.042,-194.271
833.0,2.97,4.716,8.136,-2.45,13.23,-31.92,-39.109,-8.506,-192.6
,2.754,4.087,8.882,-6.02,-0.07,-56.14,-39.324,-7.152,-193.199
,1.907,4.482,8.392,-5.81,-2.03,-70.7,-40.873,-7.967,-194.735
,2.898,3.668,9.148,7.63,-1.05,-91.49,-39.789,-7.853,-192.059
909.0,1.613,4.917,7.978,23.52,5.39,-125.79,-43.603,-2.718,-193.646
,1.211,5.288,8.691,17.85,17.22,-118.23,-40.992,-5.553,-194.026
,1.067,5.224,8.469,2.38,19.18,-80.85,-41.126,-3.142,-193.738
,1.096,5.528,8.693,4.55,16.8,-56.56,-40.829,-1.838,-191.406
985.0,1.785,3.951,8.813,5.18,13.16,-56.56,-41.872,-3.544,-193.664
,0.852,4.86,8.229,-4.13,7.91,-53.9,-41.601,-4.125,-194.049
,1.642,4.441,8.701,-7.0,3.71,-66.36,-43.587,-1.395,-193.552
,0.627,5.073,8.574,-12.95,7.14,-75.74,-43.972,-1.598,-193.866
1061.0,0.153,5.394,8.806,0.28,9.66,-70.77,-45.146,-1.932,-194.197
,0.39,5.252,8.741,-7.35,-2.45,-35.98,-43.755,-0.031,-192.748
,0.893,4.858,8.686,-8.75,-6.3,-25.41,-46.071,1.668,-194.394
,-0.928,5.607,10.108,42.91,-14.63,-80.22,-44.247,0.303,-193.948
1136.0,0.067,5.707,8.236,21.35,-8.96,-79.1,-43.566,-2.99,-193.695
,0.069,5.181,8.744,-5.25,-1.05,-63.84,-43.602,2.082,-191.253
,-0.048,5.374,8.844,-8.61,6.72,-49.0,-46.443,0.147,-193.96
,-0.392,5.688,8.641,4.06,12.81,-27.16,-44.045,0.826,-191.753
1212.0,0.16,5.341,8.952,-2.73,7.42,-1.68,-46.915,2.085,-193.754
,0.342,4.946,8.48,17.15,0.28,-19.39,-47.879,0.117,-194.797
,1.441,2.804,7.523,80.64,-4.9,-95.69,-48.304,2.065,-193.188
,-0.694,5.676,7.569,44.66,-7.63,-95.2,-47.448,3.25,-192.703
1287.0,-0.778,5.422,8.382,15.75,-2.03,-76.23,-48.195,7.088,-192.578
,-0.756,6.339,8.579,12.25,6.65,-44.45,-48.06,6.277,-192.022
,-0.385,5.214,8.48,7.98,6.3,-8.61,-48.019,4.686,-191.603
,-0.421,5.039,8.342,-10.64,-2.03,-4.76,-49.872,5.766,-194.063
1363.0,0.019,4.535,8.047,12.74,-2.73,-22.26,-49.547,6.516,-193.231
,-0.751,5.568,7.911,-1.12,3.36,-29.05,-46.186,7.843,-189.654
,-0.711,5.573,8.287,-24.08,1.26,-19.74,-48.835,5.59,-193.961
,-0.438,4.788,8.631,-16.45,1.82,-14.21,-50.166,6.622,-193.208
1439.0,-1.184,6.155,8.667,-22.96,-0.35,-4.9,-51.876,4.252,-194.178
,-0.826,5.501,8.655,-32.97,-8.61,15.89,-49.416,5.984,-191.644
,-0.78,4.539,8.162,-50.82,-13.51,26.25,-49.525,9.44,-192.152
,-0.479,4.659,8.418,-81.83,-14.21,38.57,-48.782,6.921,-192.744
1515.0,-0.383,4.611,9.136,-76.58,-9.66,42.28,-49.272,4.615,-193.149
,-0.079,4.015,9.316,-40.46,-7.98,52.22,-50.131,0.23,-195.323
,0.098,4.128,9.143,-11.34,-10.22,69.16,-47.554,0.867,-193.966
,6.334,0.651,13.786,6.72,-8.75,75.04,-47.643,-2.832,-194.34
1591.0,0.275,4.477,8.82,29.47,-12.6,66.57,-45.669,-0.486,-191.695
,0.002,4.357,8.71,19.67,-19.04,80.71,-47.875,-1.203,-194.33
,1.106,3.991,8.818,14.63,-11.9,116.13,-42.826,-4.95,-192.085
,0.44,5.08,8.756,36.19,10.57,125.37,-46.274,-3.856,-193.97
1666.0,0.895,5.408,8.703,30.59,10.71,79.87,-46.429,-4.37,-194.761
,1.11,4.331,8.629,30.87,8.68,57.05,-46.366,-3.036,-193.264
,1.113,4.982,8.552,29.54,5.18,43.96,-46.597,-3.286,-195.129
,1.141,4.905,8.559,21.91,-0.35,24.99,-46.872,-2.146,-192.542
1742.0,1.098,4.92,8.531,12.95,-6.65,5.95,-45.634,-2.358,-192.587
,1.452,4.97,8.138,-2.59,-10.43,-5.88,-44.072,-3.14,-191.475
,1.697,4.752,8.48,-26.95,-21.91,-27.86,-46.52,-1.67,-192.039
,1.149,3.979,8.076,-3.36,-3.64,-83.44,-45.811,-1.276,-193.236
1818.0,1.529,4.274,7.978,-3.08,12.88,-85.47,-43.976,-1.039,-191.664
,0.038,4.628,9.057,4.48,28.14,-110.25,-46.455,-2.495,-193.588
,-0.483,6.243,9.026,-0.63,34.23,-81.48,-45.266,-0.558,-191.991
,0.11,5.477,8.995,8.96,15.33,-63.56,-45.196,-0.823,-191.057
1894.0,0.074,4.841,8.66,5.53,8.82,-50.12,-50.813,-2.038,-195.3
,-0.168,5.193,8.701,25.41,20.16,-62.23,-48.108,0.707,-193.149
,-0.797,4.697,8.72,31.85,10.01,-62.44,-49.66,1.491,-193.981
,-0.55,4.733,8.399,23.45,3.5,-57.26,-49.492,0.407,-193.613
1969.0,-0.261,5.291,8.65,17.22,0.98,-38.5,-50.41,2.409,-194.374
,-0.78,5.104,8.038,9.38,6.09,-19.04,-49.656,4.972,-191.121
,-0.629,5.382,8.492,7.7,15.96,-10.78,-52.2,4.341,-191.496
,-0.873,5.578,8.598,4.83,9.8,-2.38,-50.464,4.557,-192.871
2045.0,-0.656,4.838,8.476,-4.48,3.57,9.1,-50.946,5.453,-191.448
,-0.78,5.092,8.569,-18.34,-0.91,18.06,-53.217,5.282,-193.706
,-0.749,4.87,7.392,-66.71,29.75,46.55,-51.125,0.414,-194.162
,-0.787,4.034,10.01,-69.23,33.67,52.29,-53.742,1.368,-195.938
2120.0,-0.895,4.865,9.265,-42.21,24.01,54.39,-53.26,4.232,-193.471
,-0.715,4.91,9.167,-35.0,29.68,80.78,-53.573,-2.635,-195.948
,-1.292,4.348,9.091,-10.64,35.28,21.56,-52.686,-3.044,-195.325
,-0.663,4.515,8.921,1.12,26.11,-24.36,-52.606,-2.266,-195.609
2196.0,-0.995,4.676,8.887,8.12,25.06,-33.46,-54.072,-0.424,-195.412
,-1.024,4.647,8.476,14.28,31.99,-25.27,-54.543,-1.685,-196.754
,-0.44,4.231,8.634,11.55,19.67,-13.86,-53.419,-3.442,-194.83
,-1.01,4.692,8.878,5.32,6.51,-12.53,-56.983,-1.533,-196.711
2272.0,-1.022,4.535,8.796,0.0,2.31,-14.0,-57.416,1.453,-196.88
,-0.983,4.453,8.914,2.73,0.28,-19.11,-58.385,-0.516,-198.063
,-1.022,4.166,8.837,2.24,-0.7,-29.12,-58.782,0.878,-197.954
,-0.881,4.511,8.571,1.96,-3.29,-44.59,-54.863,-2.154,-196.275
2348.0,-0.981,3.955,8.835,4.27,-6.93,-61.46,-57.073,-2.313,-196.708
,-1.503,4.245,8.564,3.92,-16.87,-75.11,-58.529,-0.188,-195.06
,-1.618,4.286,8.818,5.46,-15.26,-74.48,-57.409,-1.186,-195.946
,-1.709,4.468,8.882,16.24,-12.25,-63.63,-57.4,2.777,-196.785
2424.0,-1.74,4.209,9.038,18.48,-9.03,-50.54,-56.964,-1.529,-196.15
,-1.778,4.274,9.055,15.61,-7.84,-44.38,-55.975,1.485,-195.902
,-1.613,4.518,8.866,20.02,-9.17,-43.61,-55.155,0.302,-194.576
,-2.788,3.171,8.811,26.46,-29.61,-44.87,-58.187,4.246,-195.959
2499.0,-1.383,4.681,8.002,10.92,-35.7,-36.05,-60.023,2.689,-197.204
,-2.247,3.393,9.014,4.41,-18.76,-22.26,-55.524,1.702,-193.624
,-1.795,4.264,9.055,4.34,-11.62,-17.08,-57.392,1.738,-195.007
,-1.653,5.13,9.019,-3.85,-2.87,-12.32,-55.473,2.194,-195.92
2575.0,-1.402,4.664,8.914,-4.41,-1.26,-4.83,-57.269,2.245,-195.198
,-1.469,4.329,8.93,2.59,-8.26,-4.62,-57.477,5.2,-194.813
,-1.529,4.582,8.406,11.13,-11.55,-5.67,-57.752,2.58,-196.117
,-1.517,4.42,8.607,13.86,1.68,2.03,-55.103,1.353,-194.53
2651.0,-1.381,4.283,8.167,6.93,3.85,8.19,-56.509,2.649,-194.851
,-1.56,5.212,9.1,-13.02,-11.48,4.06,-56.335,-1.633,-195.892
,-1.5,4.381,8.626,-10.08,-16.1,4.06,-56.387,2.876,-196.214
,-2.204,4.482,9.136,-11.2,-16.59,-0.21,-55.792,6.524,-193.048
2727.0,-1.28,4.089,8.885,-13.44,-21.42,-4.9,-57.954,7.417,-193.576
,-0.907,4.547,8.818,-23.24,-17.57,-6.72,-52.664,0.161,-193.075
,-1.23,4.123,8.847,-27.02,-6.09,-6.93,-55.044,4.006,-193.499
,-1.338,4.027,8.878,-23.59,7.14,-5.6,-53.605,-2.083,-194.588
2802.0,-1.524,3.781,8.88,-5.11,12.39,-3.57,-54.151,0.679,-193.114
,-1.627,3.451,9.06,-8.47,12.88,-2.8,-54.053,0.621,-196.349
,-1.397,3.69,8.988,-11.97,11.27,-3.99,-55.179,-3.943,-195.328
,-1.692,3.955,9.275,-10.22,7.63,-6.23,-53.788,-2.042,-193.879
2878.0,-1.46,3.905,9.407,-11.06,2.17,-3.92,-54.002,-0.409,-193.307
,-1.383,3.886,9.095,3.64,-22.4,-3.29,-54.445,-1.944,-194.978
,-1.321,3.996,8.643,14.7,-34.72,-0.42,-54.837,-0.549,-194.729
,-1.055,4.219,8.624,16.87,-19.81,1.4,-54.165,0.396,-194.706
2953.0,-1.256,4.223,8.911,9.94,-3.57,2.94,-50.53,-4.977,-193.44
,-1.211,4.252,8.966,-3.01,3.22,5.04,-55.639,-3.882,-196.716
,-1.173,3.735,9.273,-12.18,3.71,5.25,-52.654,-3.317,-195.514
,-1.307,3.786,9.251,-15.4,6.23,3.36,-51.899,0.566,-192.588
3029.0,-1.342,3.764,9.392,-13.44,6.93,3.15,-53.588,0.561,-194.82
,-1.371,3.386,9.263,-5.88,0.35,5.32,-53.656,-1.814,-194.961
,-0.938,3.199,9.619,-31.01,-15.05,-9.31,-52.855,1.24,-194.144
,-0.933,3.34,8.954,-52.01,-3.92,-7.21,-53.744,-0.993,-194.114
3105.0,-1.354,3.625,9.332,-54.53,7.63,-7.21,-54.502,-2.997,-195.165
,-1.45,3.168,9.686,-77.77,29.47,7.77,-51.455,-5.618,-193.687
,-1.275,3.168,9.27,-79.1,34.16,16.17,-54.199,-5.171,-195.412
,-1.598,3.345,8.861,-62.79,23.52,29.12,-54.769,-6.934,-195.861
3181.0,-1.768,2.883,9.0,-75.88,17.71,55.09,-53.839,-10.813,-196.695
,-2.008,2.481,10.452,-84.28,31.99,86.66,-55.246,-10.558,-195.519
,-1.043,2.429,10.435,-31.5,8.47,108.71,-56.159,-12.796,-196.19
,-1.297,2.223,9.344,5.04,-15.33,46.55,-53.053,-13.044,-194.853
3257.0,-1.125,2.316,9.045,20.37,-21.98,13.02,-56.125,-11.748,-196.705
,-0.67,1.625,9.002,40.88,-27.51,1.89,-55.084,-16.443,-197.684
,-0.507,1.73,9.05,28.21,-18.69,8.96,-55.003,-15.385,-196.797
,-0.751,1.919,9.775,-5.74,-9.24,13.37,-54.132,-12.877,-196.218
3332.0,-1.431,2.733,10.019,-42.84,4.76,11.97,-54.261,-10.185,-194.618
,-1.268,2.113,10.297,-32.41,-3.57,9.66,-53.142,-12.503,-195.177
,-0.814,1.598,9.799,-38.5,0.28,10.85,-52.784,-15.505,-197.253
,-1.079,1.517,9.301,-40.11,7.42,7.14,-56.389,-12.765,-196.884
3408.0,-1.084,2.012,9.299,-22.68,7.7,3.5,-53.626,-13.488,-195.769
,-1.036,1.429,9.174,-6.79,7.56,3.99,-53.834,-14.773,-195.434
,-1.266,1.452,9.328,-10.71,8.89,3.43,-51.226,-15.729,-193.939
,-1.182,1.555,9.655,-16.24,9.03,-1.26,-54.775,-17.016,-196.947
3484.0,-1.297,1.639,10.079,0.7,-2.24,-6.44,-54.716,-14.363,-195.916
,4.166,-0.01,11.165,38.08,-29.89,-9.73,-54.788,-16.739,-196.197
,-1.316,2.02,9.856,42.0,-53.27,-3.01,-52.999,-14.912,-195.184
,-0.646,1.895,9.56,32.13,-48.93,-2.03,-51.943,-15.084,-194.521
3560.0,-0.711,1.804,9.895,23.87,-31.71,-6.51,-52.146,-15.607,-196.715
,-0.318,2.268,9.036,7.49,-7.91,-14.91,-51.009,-14.721,-195.164
,-0.345,2.438,9.476,7.28,-2.52,-23.31,-49.002,-11.327,-193.033
,-0.507,2.084,9.856,31.22,-11.41,-25.69,-49.359,-15.284,-196.396
3635.0,-0.321,2.029,9.753,30.31,-17.92,-21.63,-49.762,-15.211,-196.1
,-0.299,2.324,9.832,18.06,-17.85,-21.07,-49.256,-11.302,-194.429
,-0.488,2.235,9.371,11.62,-14.49,-14.77,-49.263,-9.704,-193.865
,-0.311,2.276,9.701,7.91,-7.21,-8.19,-48.913,-10.828,-194.207
3711.0,-0.931,2.24,9.847,0.42,15.12,-9.38,-50.709,-9.736,-194.983
,-0.718,2.029,13.245,20.02,61.95,-8.82,-46.511,-11.748,-192.704
,-0.742,2.008,9.864,-0.28,36.47,0.35,-48.221,-8.838,-195.121
,-0.637,1.967,9.38,-13.23,25.83,5.39,-51.065,-9.933,-194.455
3787.0,-0.897,2.424,9.727,-8.33,16.31,8.54,-49.839,-13.068,-195.299
,-0.431,1.84,9.593,-8.68,3.29,15.26,-49.941,-11.97,-193.702
,-2.115,2.197,10.287,-6.65,30.24,-7.0,-50.958,-10.75,-194.74
,-0.254,2.316,9.55,17.01,7.49,-4.9,-50.527,-10.817,-194.194
3863.0,-0.842,2.41,9.428,34.79,2.59,-1.82,-49.76,-13.331,-194.084
,-1.17,2.685,9.73,33.11,6.3,-23.38,-50.82,-13.16,-194.888
,-0.718,1.687,9.359,8.26,8.33,0.07,-52.44,-10.231,-194.638
,-0.919,2.168,9.414,-4.69,12.67,9.87,-49.335,-10.479,-193.301
3939.0,-0.888,3.02,9.943,-17.01,10.01,-1.47,-52.52,-9.968,-195.853
,0.749,2.558,10.299,-16.59,11.55,-17.85,-53.324,-11.702,-197.136
,-1.385,2.23,9.483,16.52,-10.85,-31.78,-51.475,-11.462,-195.144
,-1.314,2.268,9.139,57.33,-31.08,-72.1,-52.771,-12.302,-195.284
4014.0,-1.055,2.486,9.325,63.91,-25.83,-84.98,-50.0,-9.823,-192.34
,-0.931,2.3,9.485,42.56,-8.05,-77.07,-53.599,-5.281,-195.996
,-1.117,2.749,9.646,33.46,1.82,-65.94,-53.295,-6.135,-196.57
,-0.981,1.955,10.196,37.94,-5.04,-64.05,-48.848,-6.853,-193.363
4090.0,-1.065,3.257,9.497,78.75,-18.41,-54.74,-51.827,-1.858,-194.7
,0.306,3.833,9.062,90.86,-39.97,-57.89,-49.49,-1.953,-191.649
,-0.718,3.915,8.646,50.4,-43.89,-56.21,-52.199,1.142,-193.045
,-0.816,3.539,8.739,6.23,-30.73,-45.78,-48.346,1.295,-191.782
4165.0,-0.605,3.912,9.399,-5.18,-28.7,-49.0,-47.165,0.59,-189.671
,-0.72,2.754,8.586,25.62,-15.96,-64.68,-48.674,2.424,-190.738
,-1.048,3.661,10.318,17.29,-15.19,-63.14,-47.483,1.162,-190.69
,-0.909,2.867,9.009,16.17,-20.09,-61.81,-48.409,0.242,-192.108
4241.0,-0.491,2.848,8.993,15.82,-6.16,-88.2,-47.021,3.742,-189.955
,-0.799,3.41,9.356,-8.05,-8.05,-83.72,-48.854,4.825,-191.853
,-1.333,3.549,9.849,-6.37,-2.66,-73.92,-45.576,3.494,-190.008
,-0.658,4.396,9.442,-3.57,-6.09,-45.71,-47.671,5.441,-190.07
4317.0,-0.739,3.051,9.698,-25.27,-25.83,-23.8,-48.006,7.889,-189.634
,-0.727,3.041,9.423,-46.83,-33.39,-30.03,-47.421,6.735,-189.141
,-0.625,2.596,9.201,-48.44,-30.8,-47.04,-46.383,3.36,-190.588
,-0.246,2.304,9.32,-45.71,-22.33,-51.24,-45.225,2.65,-189.179
4393.0,-0.51,2.178,9.241,-53.34,-25.55,-65.45,-46.065,2.509,-190.741
,-0.852,2.742,9.354,-33.18,-22.61,-82.04,-46.26,-0.374,-190.83
,-1.113,2.905,9.557,-10.01,-12.25,-63.35,-43.438,-2.683,-188.735
,-0.849,2.405,10.163,-10.57,-12.95,-28.14,-46.389,1.759,-191.572
4469.0,-0.907,2.13,9.474,0.77,-7.77,-8.82,-46.774,1.835,-190.715
,-0.732,2.369,10.151,18.97,8.26,-2.24,-46.56,0.202,-191.286
,-0.481,2.307,9.878,12.39,2.31,9.1,-46.674,2.897,-189.266
,-0.775,-3.101,7.815,-27.51,-5.25,9.45,-45.751,1.657,-191.034
4544.0,0.419,3.443,9.89,-60.55,-28.21,-78.4,-43.622,1.317,-189.146
,-1.886,1.627,9.698,-44.87,-37.94,-83.79,-44.17,1.158,-188.189
,-0.079,1.555,9.38,-51.59,-32.2,-113.47,-46.355,-1.154,-190.967
,-0.747,2.874,9.378,-41.09,-30.52,-96.04,-45.842,0.597,-192.202
4620.0,-0.866,1.232,9.112,3.85,0.35,-26.25,-42.196,0.025,-188.263
,-0.266,1.244,10.44,-18.97,4.76,-12.46,-43.595,-0.557,-190.319
,0.127,0.538,10.641,-74.06,-25.06,-14.77,-44.228,-4.694,-190.768
,-0.395,1.163,9.541,-43.89,-15.61,-4.27,-46.284,-0.379,-191.531
4696.0,-0.098,0.302,10.077,-1.75,0.0,0.77,-43.002,-3.309,-190.391
,-0.426,0.926,9.593,17.08,3.29,-1.61,-41.97,-3.206,-189.258
,-0.57,1.079,9.521,20.93,10.01,-1.12,-42.181,-3.171,-189.39
,-0.388,0.849,9.921,11.76,9.52,-1.4,-44.766,-2.49,-191.355
4772.0,-0.311,1.055,10.28,5.25,6.79,-6.65,-45.068,-4.556,-191.158
,0.632,0.648,10.419,-71.26,-66.71,-14.35,-45.641,-0.48,-190.853
,0.385,0.498,9.392,-100.45,-94.01,-18.06,-43.512,-1.099,-190.136
,-0.156,0.605,9.182,3.78,-19.18,-16.73,-44.174,-2.322,-191.049
4847.0,-0.156,0.723,9.457,37.73,7.77,-15.54,-38.756,-7.47,-189.755
,0.077,0.562,10.177,13.72,2.52,-8.75,-41.871,-2.424,-188.98
,0.184,0.852,9.464,-18.69,-1.19,-2.87,-39.732,-3.321,-189.153
,0.014,0.644,10.108,-25.83,22.05,-4.55,-42.249,-1.026,-188.309
4923.0,0.146,0.323,11.359,33.6,-3.85,-4.48,-42.698,-3.883,-189.793
,0.187,0.677,10.404,42.7,-3.01,2.52,-41.823,-2.134,-186.405
,-0.112,0.845,10.335,43.05,12.04,6.23,-42.362,-0.77,-190.506
,0.273,0.457,9.584,38.22,8.96,20.09,-41.585,-3.002,-188.944
4998.0,0.548,0.634,10.146,19.81,-21.98,31.15,-43.871,0.303,-188.903
,0.462,1.125,10.703,4.27,-24.92,31.15,-41.814,-1.652,-189.965
,0.565,1.385,8.409,34.3,-9.45,18.27,-40.213,-1.106,-188.056
,0.663,1.151,10.33,64.33,15.54,-1.05,-40.391,-1.064,-187.206
5074.0,-0.546,1.955,10.464,47.46,30.1,-3.71,-41.273,-0.935,-188.86
,-0.345,1.84,9.761,59.71,32.55,-2.1,-42.339,2.714,-187.084
,-0.452,2.484,9.651,61.81,32.76,-2.8,-40.365,1.582,-187.158
,0.737,1.438,10.541,44.52,19.81,-8.96,-41.305,-0.102,-186.329
5150.0,-0.546,2.292,9.117,44.24,13.51,-11.34,-41.543,1.247,-187.63
,-0.981,2.242,9.708,28.7,5.04,-4.9,-43.147,2.3,-188.835
,-0.818,2.733,9.416,20.86,5.39,2.52,-44.511,3.325,-189.064
,-0.175,2.053,9.665,-11.76,2.73,8.12,-42.757,2.504,-188.38
5226.0,0.505,2.288,9.44,-13.72,-10.01,21.35,-43.57,5.288,-188.723
,0.055,1.905,9.086,-15.4,-13.93,28.21,-43.304,3.945,-186.579
,-0.278,1.967,9.665,-12.04,-14.14,36.47,-41.474,4.181,-185.148
,-0.187,2.472,11.218,9.73,-18.76,33.11,-42.249,3.494,-187.087
5302.0,-0.952,2.474,9.799,6.72,-34.09,34.02,-41.75,0.241,-186.125
,0.313,1.649,9.622,-12.18,-49.07,50.96,-41.962,4.516,-186.207
,0.237,1.823,10.024,-7.77,-47.18,72.87,-41.375,0.163,-187.263
,0.945,2.218,9.445,-11.83,-17.64,86.38,-38.155,2.02,-185.553
5377.0,1.027,2.273,9.694,-7.07,9.8,67.48,-37.988,-0.664,-186.03
,0.699,2.491,9.466,4.27,24.78,40.6,-36.756,-1.918,-184.719
,0.479,1.771,9.983,10.08,16.1,31.36,-37.157,-0.245,-183.578
,0.629,2.338,9.71,14.28,7.91,35.35,-37.621,-3.385,-186.655
5453.0,0.239,2.326,9.155,-4.83,2.31,39.27,-40.32,-0.009,-186.599
,1.271,1.618,9.213,-11.48,3.43,46.69,-37.999,-1.707,-184.813
,1.491,0.861,9.55,6.02,-1.05,21.91,-33.898,-6.38,-184.688
,0.711,1.697,9.94,10.01,-11.76,12.95,-36.078,-4.171,-186.104
5529.0,0.603,2.005,9.555,12.25,-5.67,9.52,-36.185,1.166,-184.596
,0.615,2.589,9.548,10.01,-3.43,6.23,-37.877,-6.28,-188.568
,0.763,2.462,9.378,8.61,-0.98,8.19,-38.342,-2.461,-186.206
,0.835,1.926,9.505,14.42,4.06,2.1,-36.568,-1.677,-184.116
5605.0,1.029,1.764,9.765,8.4,7.98,-6.23,-35.949,-2.063,-185.31
,1.606,2.302,9.935,5.11,5.67,-19.88,-36.177,-4.953,-186.382
,0.725,2.008,9.368,-3.29,-2.94,-24.08,-34.454,-3.9,-184.665
,0.218,2.522,9.603,5.39,1.61,-20.16,-37.653,1.688,-184.073
5680.0,0.641,1.95,9.474,1.4,6.23,-20.79,-40.116,1.555,-185.903
,0.995,2.206,9.512,11.34,7.91,-19.46,-37.329,2.158,-184.413
,1.074,1.606,9.512,32.48,15.19,-29.47,-37.481,0.325,-184.737
,0.912,1.828,9.5,50.19,24.08,-42.7,-37.36,-0.768,-185.772
5756.0,0.617,1.912,9.265,43.61,28.0,-46.55,-38.628,2.637,-185.02
,-0.002,2.766,9.751,25.06,28.35,-32.9,-39.66,2.814,-184.982
,0.16,2.321,9.483,4.9,28.28,-23.17,-37.562,3.508,-185.574
,0.053,2.673,9.282,11.48,31.92,-20.16,-40.169,0.224,-187.12
5831.0,-0.211,2.623,9.15,43.54,59.22,-29.05,-40.877,5.391,-186.199
,-0.151,3.037,8.892,61.25,75.25,-31.01,-42.676,3.562,-187.493
,-0.699,3.546,9.751,66.29,79.52,-32.41,-43.461,6.352,-186.993
,-1.134,3.118,9.162,50.82,53.13,-20.09,-45.364,3.74,-188.705
5907.0,-0.976,3.295,8.236,32.48,47.25,-7.91,-42.908,5.471,-186.311
,-1.448,3.616,10.187,56.07,54.95,-6.86,-46.865,8.775,-187.942
,-1.438,3.601,8.488,82.6,35.21,2.52,-47.824,11.328,-187.623
,-0.213,4.389,7.583,43.54,62.02,2.66,-47.548,11.027,-186.697
5983.0,-2.039,3.317,9.883,-29.89,153.09,-22.54,-49.692,10.323,-187.509
,-3.02,4.69,10.191,-13.16,95.62,-8.61,-50.226,12.248,-189.126
,-2.615,3.982,9.249,-12.11,30.87,16.17,-51.671,11.455,-187.575
,-2.374,3.324,8.526,-7.14,20.51,30.03,-55.472,11.514,-192.306
6059.0,-2.113,3.628,9.045,-5.88,16.03,32.55,-55.307,12.029,-191.234
,-1.79,3.599,8.72,-20.93,-4.34,27.23,-56.056,13.227,-190.456
,-2.391,3.774,9.05,9.87,11.62,19.95,-54.472,11.89,-190.984
,-2.453,4.015,9.086,25.97,20.51,21.7,-54.666,10.608,-190.229
6135.0,-2.51,4.013,8.835,6.86,0.63,27.93,-56.51,10.369,-192.081
,-2.005,3.297,8.689,0.35,-4.83,38.15,-54.482,11.127,-188.596
,-1.376,3.575,8.722,9.31,4.83,39.41,-52.825,11.886,-190.014
,-1.668,3.64,8.67,8.19,12.32,28.84,-56.906,13.083,-192.298
6210.0,-2.462,4.393,9.284,17.64,20.02,23.59,-54.435,11.338,-192.204
,-2.359,4.362,9.143,21.14,6.09,30.17,-54.623,11.377,-191.635
,-2.194,3.979,8.947,24.64,3.01,42.56,-53.277,10.628,-190.795
,-2.285,4.116,8.947,22.26,-4.41,65.8,-54.412,11.343,-191.502
6286.0,-1.512,4.219,8.37,19.46,-7.42,73.85,-53.357,14.651,-188.119
,-1.376,4.408,8.229,9.87,-5.67,65.66,-55.52,14.703,-192.16
,-1.967,4.719,8.447,12.74,0.28,59.78,-52.787,12.934,-190.39
,-1.742,4.855,8.818,0.56,-8.89,58.87,-50.703,12.865,-188.734
6362.0,-1.541,4.448,8.519,-12.74,-13.51,68.11,-49.944,12.71,-190.729
,-0.747,4.264,9.311,-20.72,-18.97,71.61,-48.919,14.411,-189.032
,-0.526,4.288,9.22,-38.43,-30.03,71.26,-46.617,12.709,-187.807
,-0.345,4.176,8.571,-45.57,-33.39,61.04,-46.315,9.975,-190.397
6438.0,-0.596,4.039,8.655,-24.78,-19.18,47.32,-45.292,5.836,-189.595
,-0.603,4.616,8.629,-9.1,-5.88,35.7,-44.949,6.31,-189.373
,-0.488,4.19,8.854,-6.51,-3.22,26.74,-47.235,9.336,-190.504
,-0.522,4.092,8.648,-2.94,0.49,19.74,-45.193,6.338,-190.488
6513.0,-0.225,3.9,9.062,1.19,4.62,16.17,-44.462,5.696,-189.486
,-0.244,4.128,9.555,-9.59,-4.06,12.67,-45.188,6.339,-190.348
,-0.201,3.948,9.184,-20.16,-12.46,10.29,-43.949,6.406,-189.223
,-0.522,4.161,9.055,-12.74,-8.05,7.63,-42.226,3.219,-187.556
6589.0,-0.668,4.393,8.863,11.34,5.25,3.99,-43.559,3.411,-190.317
,-0.409,4.054,8.806,17.99,10.29,3.36,-43.121,9.186,-188.736
,-0.316,3.932,8.837,14.07,10.99,1.4,-44.453,5.418,-190.376
,-0.359,3.934,9.225,2.31,3.99,4.41,-42.149,5.036,-189.478
6665.0,-0.366,4.03,9.409,-3.22,-0.42,5.46,-42.207,3.704,-190.835
,-0.431,4.322,9.284,-5.81,-4.97,5.46,-43.569,6.609,-189.049
,-0.246,3.989,8.662,-2.03,-3.15,4.83,-44.247,5.103,-191.555
,-0.414,4.082,8.83,11.27,6.44,2.17,-42.904,5.673,-191.182
6741.0,-0.325,3.953,9.172,13.79,9.45,2.17,-46.516,6.812,-191.797
,-0.11,3.886,9.612,-2.24,-4.62,3.71,-44.193,6.434,-190.338
,-0.089,3.752,9.057,-5.39,-8.19,1.05,-42.058,2.896,-189.858
,-0.474,4.436,9.428,3.29,-4.34,-2.66,-47.465,9.366,-191.198
6817.0,-0.479,4.436,8.792,7.49,-2.73,-0.98,-42.989,5.454,-188.697
,-0.476,4.31,8.48,13.51,3.22,0.14,-43.93,2.931,-191.381
,-0.455,4.214,8.571,17.15,10.15,0.56,-45.314,7.151,-190.624
,-0.445,4.056,8.993,10.85,8.33,1.47,-43.544,7.934,-188.674
6892.0,-0.383,4.197,8.916,5.53,5.11,1.33,-45.759,7.495,-190.42
,-0.294,4.192,9.311,-4.83,-2.1,3.36,-43.807,8.237,-189.18
,-0.4,4.41,9.009,0.98,0.63,3.36,-44.459,8.057,-191.31
,-0.285,4.111,9.002,8.75,3.92,3.22,-45.469,7.678,-192.912
6968.0,-0.232,4.152,8.88,10.08,5.39,2.31,-45.404,6.652,-189.45
,-0.16,3.879,8.866,3.01,1.61,0.49,-45.098,7.118,-190.351
,-0.23,4.19,8.545,5.18,3.64,0.14,-44.158,4.841,-190.06
,-0.412,4.367,9.052,6.58,6.86,-0.7,-44.664,5.452,-190.509
7043.0,-0.512,4.319,9.124,2.17,2.38,1.19,-43.83,8.232,-189.881
,-0.328,4.319,9.031,3.15,1.68,1.26,-45.291,6.876,-191.093
,-0.371,4.073,8.947,3.15,1.68,0.07,-44.193,6.434,-190.338
,-0.366,4.223,9.129,-1.68,-2.31,-0.42,-43.627,5.276,-190.407
7119.0,-0.376,4.209,8.777,-3.29,-2.94,-0.7,-43.827,6.913,-189.414
,-0.416,4.31,8.665,9.1,6.79,-1.68,-43.529,8.978,-189.751
,-0.503,4.324,8.954,8.47,7.77,-1.96,-45.437,6.365,-191.603
,-0.586,4.149,8.799,5.6,4.69,-1.96,-43.847,5.589,-189.649
7195.0,-0.385,4.188,8.849,9.45,8.68,-2.52,-44.133,6.167,-189.685
,-0.467,4.233,9.294,0.21,2.94,-1.82,-43.744,5.051,-188.904
,-0.462,4.283,8.772,0.14,-0.14,-0.14,-44.549,7.557,-190.136
,-0.404,4.336,9.112,4.48,3.29,-0.35,-45.035,9.212,-191.522
7271.0,-0.433,4.24,8.811,4.55,2.52,0.0,-43.428,7.119,-188.679
,-0.416,4.223,8.722,7.56,5.18,-0.98,-45.243,7.927,-191.188
,-0.589,4.362,8.926,6.23,5.74,-1.54,-43.593,6.604,-189.751
,-0.584,4.413,9.05,-3.85,-1.96,-0.21,-47.22,6.139,-191.631
7346.0,-0.486,4.2,8.911,-6.72,-4.41,0.42,-44.611,6.783,-189.292
,-0.366,4.085,8.94,3.64,1.54,0.07,-42.056,4.496,-189.013
,-0.536,4.341,8.985,7.21,5.32,-1.12,-44.429,9.943,-188.452
,-0.505,4.25,8.847,1.54,2.24,-0.84,-45.998,7.803,-190.223
7422.0,-0.526,4.164,8.713,5.04,5.25,-2.87,-44.684,8.368,-190.693
,-0.66,4.413,9.033,5.67,6.23,-3.08,-42.106,6.365,-188.541
,-0.603,4.35,8.847,10.57,8.75,-2.24,-45.592,6.131,-191.223
,-0.574,4.41,9.115,10.85,8.26,-1.61,-44.766,6.27,-190.083
7498.0,-0.507,4.269,9.055,3.29,1.61,0.21,-45.029,5.533,-189.09
,-0.548,4.29,8.868,4.34,1.75,-0.14,-43.76,7.967,-188.947
,-0.692,4.434,8.933,1.96,0.42,0.21,-44.148,9.363,-188.557
,-0.684,4.314,8.619,3.08,0.77,1.33,-45.995,7.245,-192.425
7574.0,-0.567,4.255,8.758,8.89,6.58,0.35,-44.975,7.905,-189.371
,-0.632,4.307,8.988,2.45,2.24,0.77,-42.537,6.432,-189.087
,-0.562,4.288,8.871,7.07,4.62,-0.49,-43.52,4.739,-189.521
,-0.534,4.314,8.918,6.23,5.25,-1.33,-46.833,7.943,-190.473
7650.0,-0.727,4.477,9.131,4.55,3.99,-0.35,-45.729,9.101,-188.733
,-0.672,4.501,8.799,4.62,2.73,0.77,-46.742,10.043,-190.802
,-0.603,4.29,8.873,3.36,1.82,1.26,-47.057,9.294,-191.354
,-0.562,4.326,8.894,0.84,0.42,0.7,-47.515,10.955,-191.897
7725.0,-0.605,4.35,8.871,-2.73,-2.1,0.0,-45.338,7.146,-191.325
,-0.711,4.489,8.885,2.59,2.52,0.14,-44.339,11.002,-187.284
,-0.785,4.46,8.978,4.48,3.5,1.61,-46.52,7.09,-190.766
,-0.637,4.338,8.801,6.44,3.85,1.4,-46.118,5.697,-190.736
7801.0,-0.536,4.133,8.94,0.63,0.07,1.05,-46.287,9.701,-190.726
,-0.67,4.386,8.842,3.92,2.45,-0.49,-45.297,10.075,-189.685
,-0.632,4.415,8.894,1.12,0.63,-0.35,-48.354,8.174,-192.665
,-0.67,4.353,8.71,3.57,1.33,1.4,-45.52,7.187,-190.616
7876.0,-0.581,4.422,8.868,11.13,8.68,0.56,-45.023,6.854,-189.276
,-0.78,4.41,8.823,7.14,5.67,-0.07,-46.698,7.892,-192.586
,-0.794,4.477,9.072,-2.45,-2.59,0.7,-45.618,8.285,-188.878
,-0.601,4.307,8.612,-2.52,-4.41,1.96,-45.799,9.646,-188.496
7952.0,-0.555,4.24,9.069,0.77,-0.21,1.12,-47.141,10.116,-190.366
,-0.682,4.415,8.849,4.69,2.52,0.7,-45.893,9.906,-190.131
,-0.584,4.247,8.959,0.21,-0.42,1.12,-45.339,5.826,-190.999
,-0.646,4.271,8.665,3.36,1.47,-0.07,-45.052,6.848,-190.118
8028.0,-0.725,4.441,8.653,4.55,3.29,-0.63,-45.519,8.787,-189.772
,-0.811,4.551,8.849,3.5,3.43,0.49,-45.063,9.766,-190.022
,-0.682,4.369,8.871,3.36,3.29,1.12,-47.112,10.402,-188.353
,-0.605,4.348,9.091,4.97,4.41,0.14,-47.685,10.719,-191.938
8104.0,-0.601,4.336,9.005,1.89,0.91,-0.35,-44.923,8.676,-190.496
,-0.627,4.405,8.787,-0.14,-1.54,-0.28,-45.314,7.151,-190.624
,-0.651,4.403,8.787,0.35,-0.77,-0.14,-45.095,10.319,-188.662
,-0.591,4.295,8.732,-3.5,-2.45,0.35,-45.267,6.881,-190.391
8180.0,-0.644,4.336,8.703,-1.26,0.49,-1.19,-48.642,10.352,-191.997
,-0.644,4.257,8.887,2.52,3.15,-2.45,-47.089,9.847,-189.994
,-0.708,4.348,9.06,3.36,3.01,-2.87,-45.395,6.374,-190.34
,-0.675,4.389,9.184,2.03,0.98,-0.14,-45.069,8.444,-189.835
8255.0,-0.565,4.322,8.825,0.91,-0.56,0.35,-46.573,6.039,-190.812
,-0.617,4.305,8.703,2.52,1.12,0.07,-46.84,10.861,-190.236
,-0.713,4.372,8.823,6.3,6.09,-1.96,-45.513,10.108,-189.958
,-0.83,4.441,8.796,5.88,4.76,-1.33,-45.598,9.61,-188.644
8331.0,-0.782,4.441,9.028,3.01,3.57,-1.47,-48.134,11.341,-190.703
,-0.861,4.513,8.854,6.37,3.64,0.49,-46.728,5.805,-190.432
,-0.613,4.223,9.052,-0.91,-2.1,1.33,-44.067,5.901,-188.891
,-0.682,4.334,8.6,8.47,4.48,0.0,-46.147,8.891,-190.029
8407.0,-0.696,4.336,8.997,7.0,5.25,-0.77,-47.321,8.277,-191.532
,-0.701,4.408,9.141,-5.46,-4.2,0.07,-45.489,5.873,-189.307
,-0.713,4.314,8.2,13.93,9.31,-1.4,-46.308,8.377,-190.96
,-0.768,4.46,9.155,15.33,12.6,-1.82,-46.364,8.645,-191.473
8483.0,-0.806,4.501,8.911,-0.07,0.14,0.07,-47.655,7.805,-191.473
,-0.608,4.271,8.851,-7.91,-6.37,0.77,-46.704,10.05,-189.68
,-0.835,4.444,8.787,1.75,1.19,-0.91,-45.544,7.462,-190.146
,-0.919,4.496,8.947,4.55,3.85,-0.42,-47.343,9.873,-191.389
8558.0,-0.869,4.439,8.868,2.24,0.35,0.63,-44.878,6.325,-187.268
,-0.754,4.279,8.796,-0.7,-0.91,0.98,-45.628,8.004,-190.33
,-0.811,4.381,8.727,7.42,4.69,0.56,-47.175,9.069,-189.851
,-0.773,4.393,8.952,5.04,3.85,1.47,-48.266,10.833,-190.792
8634.0,-0.787,4.393,8.775,2.45,2.17,1.33,-46.438,9.468,-190.205
,-0.742,4.441,8.902,3.5,3.36,1.05,-48.471,7.668,-192.333
,-0.792,4.477,8.887,5.04,3.64,1.26,-45.813,9.643,-188.917
,-0.665,4.276,8.784,4.69,1.82,1.26,-47.92,9.708,-191.274
8709.0,-0.615,4.281,8.839,2.59,1.75,0.14,-45.759,7.495,-190.42
,-0.766,4.41,8.813,3.22,3.08,-1.05,-48.024,9.205,-190.522
,-0.79,4.523,8.89,3.29,2.66,-0.84,-47.361,10.149,-190.78
,-0.883,4.518,8.808,4.83,2.59,0.28,-47.413,10.417,-191.152
8785.0,-0.799,4.391,8.815,4.76,3.22,0.84,-46.1,8.901,-188.626
,-0.84,4.48,8.935,3.78,2.66,0.63,-47.742,9.946,-190.953
,-0.849,4.436,8.863,1.26,0.56,0.98,-48.028,9.484,-189.491
,-0.775,4.417,8.815,5.25,3.71,0.28,-46.445,11.346,-188.471
8861.0,-0.744,4.42,8.957,3.43,1.61,1.05,-47.385,5.903,-191.532
,-0.756,4.41,8.918,3.71,1.33,0.84,-47.954,8.66,-190.759
,-0.718,4.322,8.619,1.19,-0.21,0.42,-47.324,9.597,-191.999
,-0.842,4.439,8.54,5.95,4.13,-0.56,-46.927,8.483,-190.938
8937.0,-0.859,4.458,8.799,4.76,4.76,0.0,-49.901,9.239,-192.185
,-0.895,4.434,8.959,3.78,3.92,0.14,-48.542,11.413,-190.547
,-0.881,4.511,8.983,3.64,2.87,0.28,-48.708,9.577,-191.292
,-0.854,4.41,8.918,2.03,-0.35,1.33,-47.766,8.621,-191.328
9013.0,-0.809,4.465,8.562,3.85,1.12,0.7,-45.449,8.522,-188.838
,-0.859,4.417,8.801,0.42,0.21,0.35,-46.778,7.395,-191.131
,-0.933,4.52,8.516,5.53,3.99,-0.07,-46.361,10.525,-189.458
,-0.914,4.539,8.964,3.92,4.06,0.84,-50.567,9.335,-193.566
9088.0,-0.936,4.501,8.954,1.75,0.63,1.82,-48.255,7.915,-190.889
,-0.718,4.3,8.849,0.7,-0.35,1.33,-47.018,10.903,-189.386
,-0.828,4.458,8.801,3.85,1.89,0.49,-46.149,7.291,-190.874
,-0.926,4.501,8.847,3.29,1.19,0.84,-46.739,8.723,-190.335
9164.0,-0.835,4.494,8.552,2.87,0.49,0.91,-48.3,5.265,-191.499
,-0.845,4.405,8.729,0.63,0.56,0.56,-47.438,8.052,-190.029
,-0.857,4.494,8.792,4.48,4.27,-0.28,-46.298,8.379,-190.68
,-0.835,4.444,8.94,1.54,1.75,0.42,-49.249,8.86,-192.397
9240.0,-0.847,4.468,8.993,4.55,3.85,-0.14,-48.019,9.206,-190.381
,-0.9,4.525,8.758,5.32,3.64,0.14,-47.057,9.294,-191.354
,-0.826,4.453,8.899,6.16,4.2,0.07,-47.342,10.432,-189.047
,-0.878,4.48,8.684,5.6,3.64,0.49,-47.748,8.625,-190.767
9316.0,-0.883,4.494,8.72,4.83,3.5,0.77,-49.042,13.625,-190.012
,-0.909,4.484,8.782,3.71,3.36,0.35,-45.002,9.499,-189.368
,-0.828,4.458,8.861,0.0,-0.28,0.84,-46.82,7.666,-191.223
,-0.835,4.424,8.804,4.76,4.13,-0.49,-48.191,10.569,-189.718
9391.0,-0.924,4.496,8.945,5.11,3.99,0.35,-46.072,8.627,-188.955
,-0.9,4.575,8.894,5.6,3.43,0.21,-47.468,11.245,-189.323
,-0.967,4.554,8.708,0.56,-1.19,0.98,-49.618,10.54,-190.274
,-0.933,4.496,8.454,5.74,3.08,0.42,-47.665,11.283,-189.034
9467.0,-0.943,4.542,8.784,3.92,3.71,0.42,-46.966,10.914,-187.843
,-0.962,4.578,8.725,7.49,6.37,0.21,-50.04,10.329,-191.711
,-0.967,4.635,9.019,2.24,2.17,1.26,-48.674,10.904,-190.637
,-0.976,4.597,8.789,4.55,2.8,1.19,-46.586,10.836,-188.84
9543.0,-0.878,4.446,8.734,3.85,1.82,1.47,-47.996,8.651,-192.022
,-0.964,4.549,8.713,4.41,2.52,0.84,-47.87,7.838,-191.746
,-0.955,4.515,8.677,5.81,3.92,0.98,-46.692,8.733,-188.932
,-0.955,4.614,8.801,5.39,4.2,0.56,-47.787,7.297,-191.563
9619.0,-0.948,4.592,8.83,2.31,1.61,0.49,-48.15,10.018,-190.797
,-0.95,4.58,8.655,1.68,0.77,0.56,-47.707,11.274,-190.297
,-0.9,4.499,8.624,2.45,1.33,0.49,-47.146,9.835,-191.678
,-0.907,4.544,8.861,3.36,3.15,0.07,-48.872,10.662,-191.52
9695.0,-0.974,4.602,8.622,4.62,4.06,-0.56,-44.774,7.868,-189.519
,-0.988,4.57,8.906,1.82,1.19,0.07,-48.338,13.257,-188.68
,-0.916,4.525,8.732,3.36,1.89,0.07,-49.146,12.562,-191.601
,-1.039,4.616,8.725,3.08,1.68,-0.56,-48.198,8.688,-191.874
9770.0,-1.077,4.671,8.696,3.5,1.82,-0.7,-48.172,10.573,-189.157
,-1.268,4.743,8.748,6.02,3.78,0.28,-47.148,11.994,-188.631
,-1.065,4.652,8.574,3.85,1.82,2.31,-48.206,10.006,-192.481
,-0.931,4.475,8.713,1.4,0.63,2.1,-46.517,10.011,-190.249
9846.0,-0.909,4.527,8.684,3.99,3.43,0.84,-48.121,10.024,-189.955
,-0.95,4.637,8.866,5.25,4.2,0.49,-47.774,10.499,-189.593
,-0.981,4.645,8.782,4.2,2.1,1.05,-48.111,11.066,-191.173
,-0.873,4.496,8.567,2.87,-0.35,1.96,-48.392,11.925,-189.897
9921.0,-0.919,4.503,8.662,3.01,1.75,1.19,-48.575,11.686,-190.359
,-0.988,4.58,8.607,4.76,3.43,-0.28,-46.706,8.73,-189.353
,-0.967,4.594,8.737,1.4,1.54,-0.28,-49.292,12.331,-190.94
,-0.979,4.618,8.77,1.05,1.89,-0.14,-48.805,11.716,-191.053
9997.0,-1.022,4.676,8.777,2.66,2.45,-0.42,-47.771,8.62,-191.468
,-1.086,4.647,8.725,3.29,1.61,-0.21,-47.595,10.738,-189.272
,-1.041,4.542,8.813,0.56,-0.14,0.28,-47.157,8.513,-191.632
,-1.067,4.621,8.428,6.3,3.01,-0.07,-47.274,8.007,-191.3
10073.0,-1.122,4.681,8.844,5.39,3.99,0.7,-48.807,9.355,-189.228
,-1.11,4.597,8.562,5.81,3.5,1.54,-48.112,9.746,-190.846
,-0.995,4.621,8.77,5.67,4.34,1.19,-47.416,7.217,-192.841
,-1.036,4.575,8.787,0.49,0.42,1.82,-47.635,9.129,-191.239
10149.0,-0.948,4.582,8.658,4.9,3.15,0.28,-48.753,11.727,-189.509
,-0.974,4.563,8.866,0.28,0.49,0.49,-48.211,9.244,-189.953
,-1.029,4.676,8.531,4.48,2.52,0.28,-47.397,7.501,-191.108
,-1.043,4.657,8.78,0.49,0.0,1.4,-48.128,8.423,-190.94
10224.0,-1.015,4.547,8.497,1.75,1.12,0.63,-47.063,7.973,-191.167
,-1.137,4.681,8.83,4.27,3.57,0.21,-49.19,11.513,-191.367
,-1.086,4.719,8.861,5.67,3.5,0.7,-47.157,13.033,-190.41
,-1.079,4.719,8.741,3.57,1.47,1.05,-48.422,9.279,-190.085
10300.0,-1.106,4.642,8.667,-1.33,-2.03,2.24,-47.324,10.156,-189.657
,-1.036,4.611,8.811,0.91,-0.91,2.66,-46.11,8.619,-190.078
,-1.053,4.709,8.686,-0.07,-2.03,3.57,-46.967,10.354,-190.185
,-1.201,4.805,8.851,2.31,0.07,4.55,-48.185,7.37,-191.126
10376.0,-1.326,4.834,8.737,6.37,3.08,7.14,-49.509,11.044,-190.887
,-1.354,4.793,9.143,9.8,4.83,9.31,-46.042,11.274,-188.766
,-1.424,4.949,8.794,9.73,6.02,13.02,-48.278,8.19,-190.42
,-1.515,5.118,9.055,11.06,6.16,19.04,-46.971,10.633,-189.154
10452.0,-1.235,4.989,8.756,12.67,7.28,20.86,-49.328,9.403,-192.441
,-1.161,4.908,8.61,11.48,5.53,21.21,-46.722,11.647,-189.397
,-1.685,5.461,8.844,10.29,2.52,24.64,-49.96,11.106,-191.994
,-1.261,5.128,8.464,9.1,2.31,30.59,-46.953,14.877,-188.542
10528.0,-1.019,5.085,8.251,14.84,8.89,33.53,-47.012,12.224,-189.573
,-1.06,5.116,8.191,9.94,9.73,36.96,-47.215,10.66,-190.269
,-1.041,5.351,7.856,7.07,14.21,39.48,-47.335,12.794,-190.731
,-0.972,5.197,7.734,-3.08,13.37,44.31,-47.268,9.329,-191.486
10603.0,-0.804,4.92,7.667,-12.39,15.47,47.39,-48.589,16.203,-189.558
,-0.936,4.922,7.846,-10.43,22.68,50.33,-45.911,10.182,-189.522
,-0.857,4.92,7.849,-14.7,25.76,52.36,-45.981,11.488,-191.953
,-1.385,5.245,8.784,-24.01,23.45,56.0,-47.661,15.244,-190.014
10679.0,-1.031,4.87,8.492,-20.65,24.92,60.55,-46.312,12.896,-189.879
,-0.438,4.24,8.33,-15.89,29.12,61.32,-46.07,11.749,-193.448
,-0.352,4.314,8.37,-20.72,29.47,56.35,-46.999,11.108,-193.836
,-0.38,4.173,9.234,-21.7,27.09,51.24,-48.241,12.639,-194.257
10754.0,-0.273,4.19,9.206,-17.64,25.69,47.67,-47.845,10.685,-196.709
,-0.467,4.439,9.079,-12.67,24.99,45.08,-45.851,10.877,-196.548
,-0.227,4.039,9.088,-9.94,24.85,43.19,-44.913,10.199,-195.553
,0.136,3.728,9.05,-10.64,22.89,37.87,-46.117,11.459,-196.023
10830.0,0.325,3.666,9.203,-12.18,16.59,29.47,-46.682,9.697,-196.331
,-0.038,3.802,9.442,-13.3,10.92,23.1,-49.244,10.103,-198.766
,-0.096,3.936,9.191,-6.09,10.92,18.2,-45.344,10.266,-196.099
,-0.081,3.898,9.27,-7.21,8.4,14.14,-49.199,12.473,-199.327
10906.0,-0.074,3.872,9.136,-2.8,8.96,9.03,-45.91,7.944,-198.75
,-0.086,3.939,9.237,-0.14,8.12,4.13,-47.171,9.472,-199.733
,-0.443,4.235,9.17,-3.29,2.8,-1.4,-45.583,7.095,-198.622
,-0.565,4.171,9.021,-1.89,1.26,-2.38,-46.65,8.864,-198.862
10982.0,-0.586,4.192,8.861,0.42,1.61,-0.35,-45.847,10.318,-198.75
,-0.538,4.302,8.758,6.72,6.44,-0.84,-47.082,8.931,-199.408
,-0.754,4.405,8.722,2.8,2.94,-1.61,-47.593,9.82,-198.827
,-0.634,4.314,8.708,1.12,2.17,-0.98,-47.663,10.085,-199.761
11058.0,-0.775,4.336,8.847,3.36,4.76,-0.28,-44.619,8.784,-198.75
,-0.739,4.343,8.926,3.64,6.16,-0.14,-45.685,7.913,-198.196
,-0.804,4.398,8.844,2.94,6.3,-0.42,-46.121,7.978,-198.883
,-0.9,4.429,9.143,-0.42,4.34,-0.14,-46.445,12.028,-197.322
11133.0,-1.141,4.539,9.363,3.29,5.46,1.96,-46.413,7.235,-198.732
,-0.907,4.46,9.095,3.15,3.36,5.88,-46.474,7.502,-199.385
,-0.775,4.41,8.65,3.5,3.5,6.3,-46.815,8.628,-198.763
,-0.665,4.221,8.528,-0.14,2.24,5.32,-46.848,8.621,-199.745
11209.0,-0.517,4.214,8.827,-0.98,2.59,4.2,-49.054,8.184,-201.21
,-0.522,4.154,8.882,2.38,5.39,2.94,-47.181,9.19,-201.184
,-0.646,4.247,9.005,5.25,7.07,1.96,-48.798,9.759,-198.97
,-0.56,4.137,9.048,5.11,6.16,1.19,-49.313,11.688,-200.026
11285.0,-0.605,4.202,9.036,2.73,3.64,-0.56,-49.266,11.138,-200.965
,-0.747,4.221,8.993,1.33,1.47,-0.98,-47.936,13.586,-198.998
,-0.787,4.283,8.861,1.75,0.77,-0.49,-49.958,9.909,-202.72
,-0.881,4.446,8.854,1.75,0.84,-0.7,-47.455,11.37,-200.095
11361.0,-1.134,4.542,9.028,2.1,0.98,1.47,-46.964,9.436,-199.74
,-0.797,4.381,8.763,2.59,1.89,3.22,-48.245,9.639,-200.957
,-0.737,4.295,8.658,2.45,2.03,2.8,-46.527,10.691,-199.38
,-0.73,4.257,8.763,0.84,1.61,1.82,-48.065,11.478,-199.791
11436.0,-0.826,4.274,8.859,2.31,2.66,1.54,-49.763,12.031,-199.962
,-0.821,4.259,8.868,2.45,3.5,1.68,-48.141,10.422,-200.539
,-0.761,4.288,8.89,1.4,2.17,2.17,-47.53,10.874,-198.5
,-0.668,4.288,8.964,5.04,5.81,1.05,-46.112,7.98,-198.602
11512.0,-0.838,4.365,9.103,4.2,4.55,0.35,-48.456,9.674,-201.09
,-0.95,4.369,9.191,0.14,0.0,0.14,-47.637,12.731,-199.712
,-0.804,4.305,8.784,2.52,0.7,0.14,-46.997,9.709,-199.551
,-0.893,4.381,8.928,4.2,2.38,0.56,-47.022,8.384,-199.926
11587.0,-0.849,4.415,8.837,6.16,4.69,1.12,-48.681,9.705,-201.644
,-0.747,4.317,8.667,6.44,4.83,1.26,-48.18,9.373,-200.164
,-0.737,4.212,8.981,3.85,3.85,0.98,-49.231,9.266,-201.858
,-0.751,4.302,8.875,5.04,4.97,-0.28,-48.104,10.15,-200.587
11663.0,-0.854,4.283,8.89,7.91,5.67,0.07,-49.609,10.664,-201.187
,-0.811,4.393,9.095,4.13,3.08,0.21,-47.587,6.342,-201.406
,-0.849,4.343,8.789,-0.07,-1.47,0.21,-47.007,8.667,-198.334
,-0.787,4.262,8.813,-0.77,-1.61,-0.35,-49.459,11.177,-200.536
11739.0,-0.902,4.42,8.787,3.01,1.89,-1.19,-48.686,14.504,-199.391
,-1.074,4.46,8.842,3.92,2.38,0.35,-50.992,11.965,-200.807
,-0.919,4.393,8.866,7.42,5.53,1.12,-48.883,10.021,-200.325
,-0.859,4.365,8.772,3.99,2.87,0.84,-49.055,11.384,-199.661
11815.0,-0.873,4.386,8.897,0.28,0.63,0.07,-45.46,7.881,-197.643
,-0.84,4.317,8.667,4.62,3.08,0.49,-48.023,10.927,-200.871
,-0.847,4.336,9.129,3.5,3.36,0.63,-46.93,10.764,-199.085
,-0.861,4.357,8.763,1.12,1.05,0.07,-47.286,7.087,-201.276
11891.0,-0.931,4.374,8.94,1.54,1.05,-0.21,-48.597,9.443,-200.289
,-0.816,4.302,8.729,1.26,0.7,1.26,-48.756,10.529,-200.376
,-0.816,4.252,8.885,3.5,2.73,0.28,-48.735,11.853,-200.141
,-0.84,4.267,8.672,4.34,3.57,-0.77,-47.39,10.824,-200.473
11966.0,-0.974,4.434,9.079,3.29,3.22,-1.68,-48.699,11.301,-201.361
,-0.981,4.434,8.83,3.01,2.45,-0.84,-48.967,10.283,-201.679
,-0.9,4.436,8.961,3.15,2.45,-0.42,-48.165,10.417,-201.241
,-1.113,4.456,8.844,4.69,3.36,0.49,-49.651,10.935,-201.279
12042.0,-0.914,4.314,8.899,3.29,2.31,2.1,-50.896,13.786,-202.167
,-0.859,4.362,8.861,2.8,2.38,1.33,-49.466,12.775,-199.973
,-0.952,4.494,8.801,1.4,1.05,0.49,-51.007,11.402,-203.57
,-0.926,4.401,8.784,4.62,3.71,0.35,-49.353,13.559,-199.274
12118.0,-0.964,4.298,8.933,-0.35,0.42,1.12,-47.798,10.896,-200.317
,-0.797,4.197,8.863,0.35,0.21,1.47,-49.094,9.776,-201.628
,-0.802,4.219,8.854,3.43,2.1,0.28,-45.825,8.723,-198.893
,-0.878,4.334,9.005,4.2,3.08,-0.7,-49.288,8.214,-202.044
12194.0,-0.876,4.348,8.701,1.89,1.19,-1.19,-48.408,11.004,-200.013
,-1.077,4.518,8.842,-1.75,-2.1,-0.28,-48.689,11.583,-199.909
,-1.003,4.338,8.653,6.72,3.85,0.56,-48.103,10.43,-199.416
,-0.933,4.377,9.131,2.94,2.03,1.54,-49.263,9.539,-201.669
12269.0,-0.938,4.403,8.825,2.8,1.47,0.7,-48.822,9.474,-200.842
,-0.957,4.346,9.055,0.42,-0.28,0.42,-50.318,9.991,-201.161
,-0.964,4.341,8.686,8.75,4.9,0.35,-49.168,10.599,-200.36
,-0.95,4.357,8.94,3.99,2.24,0.84,-48.595,11.043,-199.444
12345.0,-0.945,4.403,8.689,3.15,0.7,0.77,-48.695,9.982,-200.894
,-0.893,4.367,8.861,0.14,-1.05,0.63,-47.849,11.165,-200.689
,-0.967,4.389,8.662,2.03,0.7,0.21,-49.814,12.02,-201.506
,-0.885,4.293,8.832,1.82,0.84,0.63,-48.925,10.292,-200.416
12421.0,-0.888,4.322,8.861,2.31,2.1,0.63,-50.584,11.613,-202.134
,-0.957,4.336,8.971,3.43,2.59,0.84,-48.324,10.182,-201.001
,-0.893,4.329,8.949,1.96,0.63,1.26,-48.58,12.367,-199.35
,-0.89,4.329,8.832,0.98,-0.35,0.7,-49.633,10.659,-201.889
12496.0,-0.938,4.374,8.674,3.99,1.68,0.77,-48.06,11.199,-200.822
,-0.866,4.322,8.835,1.54,0.63,1.05,-49.316,8.767,-200.544
,-0.893,4.312,8.756,2.87,1.61,1.12,-48.197,10.97,-199.881
,-0.826,4.286,8.894,3.01,1.96,0.77,-47.504,8.999,-199.674
12572.0,-0.957,4.355,8.777,4.13,2.66,0.35,-49.968,8.866,-201.503
,-0.936,4.36,8.801,1.82,0.7,0.07,-48.633,11.315,-199.396
,-0.969,4.365,8.823,0.14,-0.14,0.14,-48.807,10.798,-200.748
,-0.924,4.381,8.78,2.8,1.61,0.49,-49.783,10.706,-200.197
12648.0,-0.955,4.446,8.847,4.97,3.64,0.7,-47.703,11.676,-200.179
,-0.969,4.398,8.878,2.1,1.75,0.84,-48.297,9.148,-198.661
,-0.909,4.334,8.871,1.75,1.47,0.42,-47.034,9.981,-199.503
,-1.043,4.41,8.983,1.68,0.63,0.7,-49.235,9.545,-200.827
12724.0,-0.89,4.365,8.861,3.22,1.68,1.12,-48.953,10.286,-201.258
,-0.981,4.42,8.823,2.66,1.47,1.05,-43.447,12.597,-195.699
,-0.905,4.31,8.677,3.78,1.96,1.54,-47.934,10.946,-198.204
,-0.854,4.274,8.732,4.48,3.36,0.77,-47.669,13.004,-199.524
12799.0,-0.96,4.281,8.906,2.52,2.59,0.21,-49.677,9.33,-202.825
,-1.01,4.434,8.966,2.52,1.89,0.42,-52.275,14.047,-200.149
,-0.981,4.379,8.906,1.12,-0.07,0.7,-48.639,9.434,-201.552
,-0.864,4.365,8.638,4.34,2.1,0.7,-50.065,10.726,-202.435
12875.0,-0.952,4.338,8.882,1.26,0.49,0.42,-48.031,7.726,-202.7
,-0.983,4.369,8.813,0.84,0.14,0.56,-48.643,14.513,-198.128
,-0.857,4.317,8.856,-0.42,-0.35,0.7,-49.018,11.112,-199.71
,-0.981,4.415,8.792,5.74,3.85,0.98,-48.237,8.041,-201.521
12951.0,-0.938,4.362,8.926,1.82,1.26,1.61,-49.182,10.596,-200.781
,-0.883,4.319,8.815,4.06,2.03,0.91,-50.087,11.281,-200.794
,-0.902,4.3,8.897,2.03,0.63,0.28,-47.517,10.597,-199.25
,-0.979,4.326,8.88,2.87,0.63,0.42,-48.296,10.468,-198.988
13027.0,-1.125,4.625,8.385,1.54,-2.8,0.42,-46.987,9.711,-199.271
,-1.067,4.219,8.555,-1.4,-7.14,1.05,-50.119,11.833,-199.434
,-0.914,4.171,8.473,2.17,-2.03,1.68,-48.372,9.412,-199.735
,-0.857,4.192,8.933,5.46,2.94,1.75,-46.606,11.234,-199.424
13102.0,-0.854,4.35,8.997,1.47,0.84,1.89,-48.054,13.08,-198.666
,-0.794,4.276,8.765,2.17,0.98,1.33,-48.546,13.694,-198.694
,-0.761,4.207,8.961,4.55,3.01,0.77,-46.761,10.72,-200.215
,-0.816,4.281,8.928,2.66,1.54,0.21,-48.077,8.555,-200.59
13178.0,-0.83,4.281,8.722,1.75,0.56,-0.28,-47.868,11.441,-200.08
,-0.943,4.314,8.914,2.03,1.33,-0.49,-48.517,10.22,-200.572
,-0.919,4.396,8.909,2.17,0.98,0.14,-47.795,9.577,-199.85
,-1.007,4.463,8.763,3.71,1.82,0.28,-48.368,9.133,-200.766
13254.0,-0.981,4.417,8.873,2.52,1.61,1.05,-46.521,7.492,-200.789
,-0.849,4.293,8.902,3.71,2.52,1.19,-47.181,8.149,-199.686
,-0.943,4.338,8.976,2.87,2.1,1.26,-46.873,7.016,-201.291
,-0.948,4.415,8.861,4.76,3.01,1.19,-48.318,7.543,-200.067
13329.0,-0.916,4.369,8.885,0.84,-0.49,1.96,-50.085,12.881,-199.95
,-0.799,4.243,8.885,-4.2,-3.71,1.61,-49.225,9.827,-199.375
,-0.828,4.279,8.811,-5.81,-5.39,0.21,-52.516,13.236,-204.637
,-0.84,4.209,8.815,-3.85,-4.76,-0.28,-48.169,10.696,-200.21
13405.0,-0.759,4.226,8.839,1.75,-0.07,0.63,-47.823,9.291,-201.863
,-0.859,4.384,8.906,4.48,2.87,0.49,-46.564,6.723,-199.383
,-0.89,4.307,8.813,1.33,0.49,0.49,-48.454,11.274,-200.246
,-0.84,4.25,8.784,3.22,2.17,0.91,-49.465,9.575,-201.521
13481.0,-0.921,4.31,8.899,5.67,5.32,1.05,-46.51,8.054,-198.166
,-0.924,4.336,8.976,7.35,5.95,1.12,-47.743,9.308,-199.477
,-0.797,4.2,9.052,3.85,3.08,1.47,-51.084,9.305,-202.82
,-0.938,4.326,8.938,8.12,6.02,0.42,-50.991,13.285,-201.134
13557.0,-0.847,4.279,8.942,2.59,1.33,0.98,-47.905,11.433,-201.202
,-0.713,4.171,8.796,2.03,0.28,0.63,-47.916,10.39,-199.985
,-0.761,4.171,8.78,6.02,4.13,0.14,-47.487,7.403,-199.957
,-0.79,4.233,8.782,7.07,5.67,-0.63,-48.456,9.674,-201.09
13632.0,-0.854,4.255,8.966,3.08,3.29,-1.26,-50.175,12.101,-199.947
,-0.945,4.322,8.906,3.22,2.73,-1.61,-49.967,13.666,-199.11
,-1.074,4.501,9.091,3.43,1.82,-0.91,-47.86,10.122,-199.472
,-0.979,4.427,8.806,3.64,1.61,-0.28,-47.828,13.329,-196.942
13708.0,-1.062,4.427,8.737,6.86,4.34,-0.07,-47.62,10.094,-198.498
,-1.036,4.432,8.842,6.58,4.41,0.98,-49.847,8.053,-201.368
,-0.983,4.401,8.801,4.06,3.08,0.98,-48.946,11.887,-200.274
,-0.924,4.353,8.801,3.57,2.8,1.19,-46.393,8.56,-198.498
13784.0,-1.046,4.47,9.04,3.22,3.08,1.26,-47.164,11.073,-198.748
,-1.062,4.403,8.899,3.43,2.03,1.96,-48.303,12.066,-198.424
,-0.864,4.295,8.796,1.4,-0.49,2.1,-49.746,10.155,-201.417
,-0.79,4.133,8.741,-0.56,-2.31,1.12,-48.815,12.396,-200.184
13860.0,-0.943,4.343,8.863,3.71,2.17,0.49,-46.895,8.611,-201.148
,-0.912,4.357,8.859,4.83,3.08,0.49,-48.083,11.754,-199.182
,-0.933,4.372,8.918,-0.07,-0.7,0.35,-49.632,10.939,-200.718
,-0.938,4.353,8.918,-0.21,-0.77,-0.07,-48.43,11.559,-198.373
13936.0,-1.082,4.444,8.906,-2.45,-2.8,0.07,-46.257,8.509,-200.61
,-0.967,4.326,8.708,-2.66,-4.06,0.14,-49.622,11.982,-201.935
,-0.967,4.372,8.847,2.03,-0.28,0.07,-49.181,12.197,-199.937
,-0.849,4.243,8.835,4.2,2.45,0.49,-50.013,10.457,-202.062
14011.0,-0.893,4.379,8.875,5.46,3.29,0.49,-48.338,10.459,-200.251
,-0.895,4.331,8.739,5.95,4.06,0.56,-48.31,10.185,-200.58
,-0.895,4.295,8.756,3.85,2.73,0.35,-47.789,9.857,-198.538
,-0.921,4.319,8.861,-0.42,0.0,0.0,-44.788,8.547,-198.791
14087.0,-0.998,4.331,8.957,-1.26,-0.84,0.28,-47.799,9.576,-199.99
,-0.826,4.238,8.916,2.87,0.98,1.47,-46.967,11.035,-199.036
,-0.962,4.369,9.052,3.22,1.05,1.05,-48.117,10.427,-199.837
,-0.919,4.348,8.693,3.85,1.33,0.84,-47.551,9.549,-198.735
14162.0,-0.95,4.343,8.746,3.43,1.89,0.21,-48.835,11.072,-200.419
,-0.988,4.341,8.818,0.84,0.42,0.77,-47.964,9.06,-201.062
,-0.869,4.286,8.806,4.83,3.36,0.7,-49.397,11.95,-201.381
,-0.981,4.384,8.933,5.39,3.92,0.98,-48.748,8.93,-200.939
14238.0,-0.9,4.329,8.911,3.22,1.75,0.91,-48.806,11.078,-199.577
,-0.864,4.245,8.868,0.0,-0.42,0.63,-50.648,13.759,-200.912
,-0.945,4.319,8.856,4.48,3.08,0.42,-49.117,10.051,-201.159
,-0.988,4.334,8.906,1.26,0.84,0.84,-47.076,10.252,-199.595
14314.0,-0.866,4.324,8.708,1.96,1.12,0.28,-48.381,9.41,-200.016
,-1.039,4.362,8.851,2.59,1.61,0.21,-49.993,11.781,-201.828
,-0.936,4.381,8.871,3.5,3.22,0.35,-49.802,10.702,-200.758
,-0.969,4.281,8.997,0.56,0.49,1.05,-48.293,13.109,-199.641
14390.0,-0.869,4.276,8.926,3.01,1.54,0.56,-47.377,9.787,-198.554
,-0.95,4.374,8.964,-0.14,-0.84,0.42,-49.468,11.455,-199.646
,-0.931,4.334,8.722,5.04,2.31,0.49,-49.498,9.848,-201.332
,-0.895,4.293,8.71,1.96,0.98,0.98,-49.718,10.161,-200.575
14465.0,-0.921,4.346,8.799,-1.26,-0.49,0.21,-46.744,9.404,-199.327
,-0.96,4.293,8.995,1.26,1.47,-0.21,-47.276,11.889,-198.602
,-0.986,4.384,8.997,0.91,0.0,0.56,-46.766,10.999,-199.184
,-0.905,4.314,8.93,1.47,-0.56,0.7,-47.777,8.26,-198.962
14541.0,-0.94,4.293,8.689,2.73,0.0,0.14,-49.882,9.925,-200.475
,-0.983,4.348,8.83,2.59,1.19,0.14,-48.655,12.631,-200.424
,-0.916,4.295,8.77,3.22,1.89,1.12,-47.774,11.181,-198.444
,-0.895,4.384,9.038,4.41,3.01,1.4,-47.736,11.949,-199.99
14617.0,-0.869,4.262,8.949,1.12,0.77,1.19,-51.169,13.047,-201.455
,-0.852,4.334,8.878,4.9,2.66,0.21,-48.001,9.332,-201.013
,-0.921,4.209,8.973,3.64,1.96,-0.07,-46.373,9.604,-199.434
,-0.924,4.298,8.739,4.83,1.82,0.28,-47.156,9.754,-198.14
14693.0,-0.928,4.288,8.887,1.12,-0.21,0.14,-46.489,10.699,-198.258
,-0.912,4.29,8.629,5.46,2.59,0.0,-48.517,10.22,-200.572
,-0.938,4.379,8.933,1.89,0.98,-0.35,-47.616,9.535,-200.7
,-1.012,4.427,8.643,6.65,3.57,-0.28,-47.701,9.037,-199.385
14769.0,-1.022,4.413,8.99,2.45,0.98,0.7,-46.915,11.807,-200.161
,-0.897,4.255,8.854,1.12,-0.14,2.31,-48.106,12.029,-198.712
,-0.933,4.348,9.069,3.22,2.45,1.33,-46.835,7.024,-200.169
,-0.957,4.348,8.88,2.24,1.4,1.05,-49.181,12.197,-199.937
14844.0,-0.864,4.374,8.902,3.92,2.1,0.84,-48.405,9.405,-200.717
,-0.873,4.238,8.777,4.76,2.66,0.91,-47.695,10.638,-198.401
,-0.962,4.401,8.899,5.04,3.57,0.49,-47.88,8.798,-199.707
,-1.024,4.413,8.732,0.42,0.21,0.77,-49.347,10.081,-201.853
14920.0,-1.003,4.403,8.825,0.77,0.63,0.63,-46.632,8.868,-198.301
,-0.964,4.341,8.926,2.52,1.89,0.98,-50.871,11.151,-200.672
,-0.897,4.302,8.978,3.15,2.24,1.47,-49.201,10.872,-200.172
,-0.89,4.341,8.899,3.08,1.96,1.05,-50.568,13.217,-200.868
14995.0,-0.986,4.324,8.763,4.9,2.73,0.42,-46.77,10.998,-199.324
,-0.933,4.283,8.839,2.73,1.89,0.63,-47.739,9.309,-199.337
,-0.912,4.343,8.708,4.9,3.36,0.07,-47.316,9.24,-199.072
,-1.041,4.444,8.949,1.4,1.33,0.49,-49.8,12.023,-201.085
15071.0,-0.957,4.355,8.832,2.17,1.26,0.91,-47.296,10.564,-198.837
,-0.885,4.319,8.918,0.0,-0.28,0.77,-48.472,12.87,-199.962
,-0.974,4.365,8.715,7.91,5.46,-0.14,-49.128,13.248,-199.891
,-0.995,4.446,8.83,2.94,1.96,0.42,-49.369,11.676,-201.71
15147.0,-1.029,4.343,8.789,3.85,2.66,0.28,-49.513,12.765,-201.376
,-1.015,4.456,8.961,-0.98,-0.84,1.26,-49.958,8.868,-201.223
,-0.945,4.314,8.71,7.77,4.97,1.12,-50.305,14.234,-200.69
,-0.96,4.355,9.036,2.8,1.82,1.26,-49.595,10.667,-200.766
15223.0,-0.928,4.326,8.842,2.59,0.84,0.98,-48.513,8.901,-200.105
,-1.05,4.372,8.918,0.0,-0.91,0.63,-49.48,9.292,-203.113
,-1.048,4.396,8.689,4.62,1.89,0.91,-50.458,10.8,-201.858
,-0.905,4.343,8.689,5.46,2.52,1.89,-49.927,11.795,-199.863
15299.0,-0.96,4.391,8.703,4.34,3.29,1.19,-47.793,11.177,-199.005
,-1.007,4.362,8.844,0.07,0.28,0.84,-47.671,11.404,-200.368
,-0.986,4.391,9.021,0.21,0.07,0.84,-49.071,9.781,-200.927
,-0.969,4.314,8.897,4.55,2.59,1.12,-49.622,12.261,-200.764
15374.0,-1.05,4.415,8.777,4.34,2.45,0.91,-49.094,14.296,-200.407
,-0.952,4.408,8.674,4.34,1.68,1.4,-50.797,10.327,-201.94
,-0.849,4.302,8.827,3.01,1.96,1.33,-49.435,11.182,-199.835
,-1.007,4.413,8.698,3.92,2.45,1.26,-49.7,13.364,-198.465
15450.0,-0.964,4.424,8.871,0.49,0.42,1.19,-47.559,10.868,-199.342
,-0.957,4.389,8.722,3.99,3.08,0.63,-50.748,11.658,-200.863
,-0.972,4.334,8.902,1.89,1.61,0.49,-48.264,9.915,-200.347
,-0.938,4.329,8.748,3.64,1.96,0.28,-49.56,13.315,-200.437
15526.0,-1.046,4.396,8.995,1.33,0.49,0.56,-48.526,10.498,-199.682
,-1.0,4.472,8.794,1.75,0.21,0.42,-50.247,10.766,-201.725
,-1.003,4.427,8.868,0.77,-0.49,0.49,-47.569,9.545,-199.296
,-0.988,4.386,8.801,1.47,0.0,0.49,-48.724,13.455,-199.016
15602.0,-1.039,4.343,8.844,1.33,0.21,1.12,-49.326,11.965,-199.276
,-1.005,4.441,8.837,5.04,2.8,1.54,-47.917,9.07,-199.659
,-0.986,4.393,8.739,4.97,2.8,1.33,-50.247,11.326,-199.383
,-0.931,4.338,8.938,4.13,2.17,1.05,-49.665,10.932,-201.7
15677.0,-0.797,4.264,8.859,1.54,0.63,0.63,-50.669,11.395,-199.649
,-0.974,4.41,8.873,3.99,1.96,0.21,-47.561,8.227,-198.689
,-0.998,4.403,8.708,3.01,1.47,0.77,-49.162,12.201,-199.376
,-0.974,4.415,8.701,4.27,2.94,0.42,-49.684,11.208,-201.09
15753.0,-0.986,4.475,8.796,2.66,2.38,0.49,-49.438,12.501,-200.302
,-0.95,4.424,8.813,3.57,2.59,0.35,-50.616,13.207,-202.272
,-1.077,4.47,8.878,2.59,1.47,0.91,-50.63,7.923,-201.246
,-0.962,4.348,8.832,1.4,0.28,1.26,-49.174,9.278,-200.174
15828.0,-0.943,4.331,8.851,1.19,0.21,1.19,-47.065,7.054,-200.863
,-0.933,4.319,8.801,3.15,1.68,1.47,-50.071,12.884,-199.529
,-0.945,4.429,8.839,4.62,3.5,0.56,-49.635,12.538,-200.013
,-0.967,4.379,8.638,3.15,2.1,0.42,-48.773,12.125,-200.093
15904.0,-0.979,4.346,8.856,0.91,1.12,0.0,-49.706,12.803,-200.947
,-1.017,4.343,8.839,2.03,1.75,0.0,-50.506,14.27,-200.542
,-0.991,4.377,8.873,1.54,0.84,1.12,-49.598,12.266,-200.062
,-0.993,4.436,8.873,3.08,2.03,0.49,-48.172,12.295,-199.506
15980.0,-1.041,4.362,8.76,3.15,1.75,0.35,-48.028,11.206,-199.84
,-1.06,4.47,8.868,2.24,1.68,0.42,-46.37,12.525,-198.916
,-1.019,4.432,8.806,3.36,2.45,0.7,-50.055,11.008,-200.983
,-1.005,4.393,8.871,3.64,2.03,1.4,-50.79,11.929,-200.955
16056.0,-1.005,4.427,8.921,5.46,3.78,1.05,-47.857,13.043,-198.955
,-0.948,4.369,8.806,4.34,2.45,1.12,-49.994,10.461,-201.501
,-0.972,4.362,8.806,1.33,0.42,1.26,-47.549,10.87,-199.062
,-0.907,4.338,8.701,2.52,0.98,0.91,-48.928,11.891,-199.712
16132.0,-0.96,4.377,8.684,4.76,3.22,0.35,-49.5,11.727,-199.457
,-0.931,4.384,8.772,2.31,1.89,0.35,-49.844,10.973,-200.85
,-0.909,4.314,8.882,-0.42,-0.14,-0.14,-48.892,10.299,-199.434
,-1.06,4.401,8.981,0.49,0.42,-0.91,-50.593,12.171,-200.072
16207.0,-1.029,4.46,8.739,4.13,2.24,-0.77,-48.025,9.607,-200.544
,-1.106,4.499,8.868,3.43,1.26,-0.14,-48.608,12.641,-199.021
,-1.012,4.369,8.705,0.98,-0.63,0.07,-47.536,10.593,-199.812
,-1.05,4.413,8.792,1.33,0.14,0.21,-48.842,12.67,-199.855
16283.0,-1.046,4.496,8.765,4.41,3.01,0.28,-48.594,12.644,-198.6
,-1.127,4.453,8.83,3.15,2.66,0.84,-48.689,11.583,-199.909
,-1.101,4.427,8.916,1.26,1.26,1.61,-50.381,8.937,-201.488
,-0.943,4.317,8.897,1.19,0.35,1.54,-49.947,14.991,-198.876
16359.0,-0.9,4.293,8.849,3.5,1.89,0.7,-47.676,10.642,-197.839
,-0.986,4.362,8.82,3.36,2.17,0.21,-50.252,11.045,-200.695
,-1.031,4.346,8.83,3.71,2.66,0.49,-48.43,11.559,-198.373
,-0.976,4.346,8.897,3.08,2.24,0.63,-50.547,11.621,-201.011
16435.0,-1.034,4.429,8.804,4.2,2.94,-0.35,-49.702,11.764,-199.309
,-1.106,4.496,8.794,2.87,1.61,0.0,-49.32,8.766,-200.684
,-1.048,4.475,8.818,2.1,1.05,0.91,-48.109,9.108,-199.23
,-1.031,4.372,8.696,2.17,1.12,1.26,-50.739,11.66,-200.582
16510.0,-0.976,4.336,8.906,2.24,1.33,0.91,-48.156,9.098,-200.633
,-0.924,4.286,8.844,3.43,2.24,0.49,-48.893,13.219,-199.057
,-1.06,4.403,8.914,2.24,1.54,0.07,-52.052,12.136,-201.611
,-1.086,4.396,8.765,3.92,2.24,0.28,-48.97,12.162,-199.804
16586.0,-1.113,4.506,8.758,1.96,0.77,0.56,-49.676,9.89,-200.483
,-1.098,4.496,8.78,0.21,-0.98,1.19,-47.371,10.828,-199.911
,-1.007,4.314,8.679,-0.42,-0.98,1.61,-49.77,9.109,-200.62
,-1.003,4.346,8.77,4.2,3.5,0.84,-50.012,11.017,-199.72
16661.0,-1.031,4.415,8.892,5.32,4.9,0.56,-48.678,12.906,-199.955
,-0.991,4.379,8.93,2.24,1.96,0.98,-47.117,11.843,-200.013
,-0.902,4.341,8.827,4.13,3.01,0.77,-46.889,9.172,-198.666
,-0.972,4.365,8.871,2.59,1.75,0.35,-49.33,13.005,-200.914
16737.0,-0.988,4.391,8.753,3.08,2.1,-0.35,-48.784,10.523,-201.218
,-1.015,4.355,8.72,2.87,2.31,-0.63,-49.156,13.522,-199.562
,-1.18,4.515,8.856,4.55,3.71,-0.07,-49.913,11.518,-200.613
,-1.058,4.475,8.777,3.71,2.8,0.42,-48.421,11.281,-199.263
16813.0,-1.101,4.491,8.806,2.24,1.61,0.84,-47.856,13.323,-197.784
,-1.067,4.441,8.832,1.54,0.56,0.77,-49.074,11.1,-201.394
,-1.07,4.355,8.808,2.94,1.82,0.7,-47.048,9.978,-199.924
,-1.117,4.424,8.973,3.29,2.1,1.19,-49.158,11.922,-200.406
16889.0,-1.072,4.432,8.787,3.15,1.26,1.4,-48.447,9.676,-200.809
,-1.012,4.434,8.799,3.36,1.89,0.84,-49.946,11.791,-200.424
,-0.967,4.343,8.691,6.09,3.57,0.21,-50.286,9.438,-202.521
,-1.094,4.477,8.813,4.2,3.08,0.0,-48.822,9.754,-199.671
16965.0,-1.103,4.417,8.71,4.69,3.43,-0.14,-48.642,11.593,-198.505
,-1.18,4.501,8.914,1.75,0.77,0.77,-49.815,10.979,-200.008
,-0.979,4.319,8.794,1.12,0.21,0.7,-49.908,11.799,-199.302
,-1.077,4.487,8.976,2.52,1.96,0.0,-49.704,9.884,-201.325
17040.0,-1.139,4.499,8.708,5.32,3.15,-0.28,-49.656,11.214,-200.248
,-1.132,4.494,8.725,5.53,3.08,0.42,-49.874,12.847,-199.817
,-1.117,4.446,8.739,2.45,1.47,0.7,-51.705,12.611,-201.248
,-1.043,4.367,8.792,-1.19,-1.12,0.91,-50.056,9.407,-201.827
17116.0,-1.149,4.48,8.892,2.45,1.54,0.21,-48.97,11.882,-200.975
,-1.125,4.527,8.844,2.31,1.05,0.42,-49.88,11.525,-199.631
,-1.127,4.456,8.772,1.33,-0.42,1.05,-49.323,14.886,-198.758
,-1.058,4.386,8.701,2.66,0.63,1.33,-49.977,9.144,-200.613
17192.0,-0.981,4.381,8.662,4.34,2.45,1.12,-50.561,11.618,-201.432
,-0.988,4.348,8.744,3.08,2.31,0.56,-50.05,10.729,-202.014
,-1.036,4.355,8.777,1.82,1.4,0.21,-48.74,11.852,-200.281
,-1.115,4.506,8.847,4.62,2.94,-0.28,-51.189,12.002,-200.519
17268.0,-1.122,4.489,8.806,3.15,1.05,0.7,-49.242,11.423,-199.092
,-1.086,4.475,8.725,4.76,2.38,0.98,-48.931,8.971,-200.23
,-1.096,4.386,8.732,5.04,2.87,1.33,-48.855,9.747,-200.654
,-1.036,4.441,8.758,4.27,2.38,0.91,-49.013,11.113,-199.569
17343.0,-1.055,4.398,8.662,5.88,3.64,0.49,-48.797,11.359,-198.125
,-1.129,4.489,8.904,4.9,3.43,0.77,-50.033,9.412,-201.126
,-1.048,4.42,8.794,3.64,2.17,1.26,-49.291,10.093,-200.169
,-1.117,4.465,8.787,2.17,0.91,0.21,-49.558,10.675,-199.643
17419.0,-1.158,4.53,8.569,1.54,-0.21,0.56,-48.288,9.15,-198.38
,-1.0,4.439,8.66,0.84,0.35,0.77,-49.176,12.478,-198.625
,-1.187,4.544,8.756,3.57,3.22,0.21,-50.328,9.709,-202.613
,-1.158,4.53,8.823,4.69,3.29,0.84,-51.479,12.579,-200.695
17495.0,-1.055,4.444,8.871,2.03,1.47,1.05,-49.191,10.874,-199.891
,-1.122,4.46,8.799,3.99,2.31,0.49,-46.067,10.63,-197.992
,-1.103,4.558,8.648,1.89,0.42,0.56,-49.598,8.026,-200.113
,-1.113,4.441,8.751,1.47,0.98,0.7,-50.306,12.913,-200.363
17571.0,-1.048,4.405,8.713,4.34,2.59,1.12,-48.466,13.151,-198.651
,-1.07,4.477,8.892,4.69,3.08,0.56,-50.354,11.583,-201.44
,-1.201,4.518,8.708,4.62,2.87,0.21,-50.594,11.611,-202.414
,-1.106,4.518,8.835,3.92,2.24,0.7,-49.377,12.514,-198.477
17647.0,-1.094,4.436,8.696,3.22,1.61,0.84,-50.844,9.837,-199.503
,-1.192,4.532,8.772,2.38,0.84,1.12,-53.386,11.287,-202.874
,-1.144,4.513,8.631,5.32,3.36,0.7,-49.111,11.652,-200.174
,-1.201,4.508,8.732,3.08,2.1,0.77,-48.976,10.841,-199.618
17722.0,-1.156,4.503,8.753,2.94,1.89,1.33,-48.679,11.585,-199.628
,-1.017,4.401,8.729,3.71,2.24,1.33,-49.922,11.796,-199.723
,-1.173,4.539,8.926,2.31,1.4,0.7,-50.822,13.522,-201.093
,-1.05,4.403,8.629,2.66,1.05,0.77,-50.461,12.68,-199.983
17798.0,-1.17,4.494,8.775,3.71,2.03,0.77,-49.343,13.561,-198.993
,-1.173,4.506,8.703,2.38,1.26,1.05,-48.372,13.932,-198.513
,-1.06,4.432,8.65,2.1,0.98,1.05,-51.23,13.594,-200.937
,-1.117,4.494,8.744,3.99,2.8,0.63,-49.755,10.432,-200.526
17873.0,-1.173,4.551,8.823,2.73,1.89,0.63,-49.587,13.589,-200.108
,-1.189,4.568,8.739,2.87,1.47,1.33,-47.967,10.939,-199.187
,-1.096,4.547,8.698,4.76,2.24,1.19,-49.173,10.598,-200.501
,-1.077,4.422,8.691,2.87,1.4,1.05,-50.144,10.508,-199.809
17949.0,-1.089,4.439,8.784,0.14,-0.49,1.54,-48.142,13.621,-198.99
,-1.117,4.477,8.693,4.62,2.66,1.33,-49.45,10.138,-198.758
,-1.268,4.621,8.741,4.48,2.94,1.61,-49.952,10.47,-200.238
,-1.199,4.592,8.655,2.94,1.54,1.75,-50.977,13.288,-200.713
18025.0,-1.06,4.415,8.708,-0.07,-0.49,1.61,-50.543,10.302,-200.544
,-1.074,4.468,8.698,4.41,3.36,0.63,-48.086,8.833,-199.699
,-1.103,4.501,8.746,1.75,1.54,0.42,-51.682,15.815,-198.998
,-1.156,4.523,8.811,0.98,0.49,0.63,-51.185,11.723,-201.549
18101.0,-1.058,4.477,8.782,0.84,-0.14,1.19,-50.233,10.769,-201.304
,-1.125,4.513,8.696,4.55,2.8,1.05,-50.533,11.624,-200.59
,-1.177,4.554,8.787,3.22,2.24,0.56,-48.552,12.093,-199.679
,-1.129,4.539,8.751,0.63,-0.42,0.63,-49.623,10.661,-201.608
18177.0,-1.163,4.511,8.756,0.98,-0.14,0.42,-49.496,11.449,-200.488
,-1.173,4.506,8.722,2.24,0.77,1.12,-51.44,13.908,-199.899
,-1.046,4.47,8.818,3.71,2.17,0.98,-51.541,11.806,-199.85
,-1.213,4.537,8.756,4.69,2.73,0.56,-51.287,12.541,-201.123
18252.0,-1.165,4.52,8.624,4.69,2.38,0.77,-49.219,11.148,-199.562
,-1.237,4.633,8.564,2.66,1.26,1.19,-52.789,11.736,-201.256
,-1.18,4.544,8.567,3.36,2.38,1.33,-52.08,12.689,-200.111
,-1.187,4.547,8.818,1.19,0.98,1.54,-49.909,11.519,-200.473
18328.0,-1.055,4.384,8.708,2.59,1.12,1.82,-49.389,15.152,-199.552
,-1.027,4.496,8.88,4.2,3.01,1.26,-52.31,16.96,-200.754
,-1.113,4.52,8.67,3.99,1.82,1.05,-49.112,14.851,-198.626
,-1.158,4.482,8.684,2.66,0.91,0.84,-48.553,11.052,-198.181
18404.0,-1.153,4.551,8.672,2.52,1.33,0.91,-49.651,11.215,-200.108
,-1.139,4.515,8.672,4.2,2.87,1.19,-51.319,13.094,-199.764
,-1.12,4.568,8.756,3.64,2.66,1.12,-51.923,10.003,-200.868
,-1.149,4.52,8.665,1.82,0.7,1.19,-50.829,10.6,-201.751
18480.0,-1.106,4.472,8.744,1.96,1.26,0.56,-51.23,12.833,-198.268
,-1.153,4.582,8.748,2.94,1.82,0.49,-51.42,10.712,-200.886
,-1.161,4.551,8.808,3.64,2.73,0.63,-47.135,12.119,-199.404
,-1.192,4.575,8.737,2.8,1.82,0.77,-49.912,13.119,-199.769
18555.0,-1.163,4.556,8.672,4.41,3.08,0.63,-50.636,11.122,-199.837
,-1.18,4.602,8.777,2.66,1.75,0.63,-51.224,13.874,-199.626
,-1.144,4.544,8.71,1.82,0.63,0.7,-48.417,11.002,-200.294
,-1.125,4.463,8.648,1.61,0.42,0.91,-49.727,10.159,-200.855
18631.0,-1.161,4.535,8.799,2.1,1.68,0.7,-52.556,14.626,-200.044
,-1.242,4.64,8.732,4.13,2.38,0.91,-51.131,13.334,-199.161
,-1.129,4.58,8.734,3.01,1.96,0.84,-50.504,11.63,-199.748
,-1.084,4.48,8.653,5.04,3.22,0.56,-51.082,11.185,-200.804
18706.0,-1.173,4.494,8.734,2.59,2.1,0.21,-47.656,11.686,-198.776
,-1.201,4.501,8.626,3.99,3.01,0.28,-50.199,12.096,-200.649
,-1.216,4.609,8.873,2.24,1.54,0.7,-48.93,13.771,-197.837
,-1.168,4.558,8.698,4.13,2.38,0.28,-50.22,14.252,-198.164
18782.0,-1.187,4.573,8.66,1.75,0.42,0.7,-50.035,11.292,-199.251
,-1.223,4.578,8.732,2.31,1.26,0.91,-51.065,9.589,-201.087
,-1.106,4.52,8.701,3.15,1.61,1.33,-50.037,9.691,-200.095
,-1.192,4.64,8.801,3.64,1.75,1.4,-49.673,12.81,-199.965
18858.0,-1.297,4.683,8.715,2.24,0.98,1.4,-50.025,12.614,-199.297
,-1.22,4.523,8.658,1.54,0.49,2.24,-50.235,12.928,-198.258
,-1.062,4.506,8.727,3.92,2.59,1.89,-51.298,11.219,-201.077
,-1.094,4.482,8.658,3.5,2.38,1.26,-49.326,11.965,-199.276
18934.0,-1.141,4.547,8.825,2.87,2.31,0.35,-50.776,12.211,-199.363
,-1.235,4.59,8.708,3.08,1.4,0.77,-51.08,13.066,-198.789
,-1.003,4.243,8.677,4.13,2.45,1.26,-48.791,12.681,-198.312
,-1.163,4.64,8.588,3.15,2.45,0.77,-51.207,13.319,-201.407
19010.0,-1.302,4.724,8.514,3.22,1.19,0.21,-53.233,13.4,-201.379
,-1.132,4.549,8.648,1.89,0.14,0.07,-51.004,13.562,-200.384
,-1.158,4.554,8.588,3.92,2.24,-0.07,-50.616,12.166,-200.774
,-1.132,4.506,8.629,3.22,2.24,-0.14,-50.814,15.683,-197.766
19085.0,-1.228,4.539,8.887,1.82,1.75,-0.28,-51.691,12.334,-201.999
,-1.137,4.508,8.734,1.47,0.42,-0.07,-51.082,10.905,-201.975
,-1.249,4.592,8.681,2.45,0.63,-0.07,-47.917,9.07,-199.659
,-1.321,4.7,8.564,4.41,2.1,-0.07,-51.484,12.299,-202.006
19161.0,-1.259,4.616,8.559,2.31,1.33,0.14,-49.696,13.085,-199.496
,-1.251,4.649,8.667,1.75,1.47,0.42,-51.265,11.226,-200.095
,-1.266,4.604,8.715,2.31,1.96,0.77,-50.297,12.915,-200.082
,-1.161,4.523,8.708,2.52,1.82,0.84,-51.152,11.73,-200.567
19237.0,-1.149,4.494,8.72,2.8,2.38,0.56,-51.063,11.189,-200.243
,-1.175,4.609,8.713,4.27,3.22,0.63,-50.081,12.882,-199.809
,-1.141,4.554,8.655,4.83,3.22,0.28,-50.461,12.68,-199.983
,-1.254,4.59,8.67,3.5,2.17,0.21,-51.74,14.483,-200.356
19313.0,-1.196,4.499,8.521,4.41,2.94,-0.42,-49.559,13.875,-198.095
,-1.385,4.685,8.708,1.61,1.26,0.14,-51.802,13.43,-200.682
,-1.244,4.664,8.55,4.48,3.36,0.56,-50.165,13.144,-201.164
,-1.261,4.582,8.722,3.15,2.24,0.77,-49.673,12.81,-199.965
19388.0,-1.292,4.64,8.713,1.47,1.4,0.91,-52.211,13.221,-201.698
,-1.261,4.582,8.646,3.71,3.08,0.49,-50.248,14.246,-199.006
,-1.292,4.64,8.811,2.59,2.1,0.7,-51.658,12.341,-201.016
,-1.254,4.549,8.739,1.19,1.12,1.19,-50.557,15.099,-198.572
19464.0,-1.153,4.511,8.672,0.84,0.21,1.05,-51.038,12.515,-199.868
,-1.22,4.563,8.686,2.03,1.4,0.49,-51.829,10.504,-201.901
,-1.206,4.515,8.662,2.45,1.54,0.28,-48.854,10.307,-198.311
,-1.218,4.551,8.686,2.66,1.61,0.14,-51.054,11.191,-199.962
19539.0,-1.34,4.683,8.636,1.61,1.19,0.28,-49.93,13.394,-199.159
,-1.199,4.527,8.593,1.61,1.05,0.42,-50.537,11.903,-199.559
,-1.29,4.628,8.732,2.1,1.75,0.14,-50.789,13.529,-200.111
,-1.314,4.547,8.839,0.98,0.49,0.35,-49.883,13.124,-198.927
19615.0,-1.283,4.611,8.725,3.85,2.17,0.28,-51.413,13.354,-201.399
,-1.34,4.647,8.703,3.99,2.31,0.49,-51.208,11.998,-201.08
,-1.28,4.669,8.634,3.22,1.89,0.56,-51.33,11.492,-200.889
,-1.271,4.57,8.583,0.63,-0.07,1.05,-51.869,12.655,-199.978
19691.0,-1.18,4.494,8.614,0.77,0.0,1.12,-49.332,10.644,-199.09
,-1.24,4.537,8.665,2.87,2.03,0.7,-49.921,13.396,-198.878
,-1.24,4.642,8.741,2.87,1.96,0.56,-51.366,13.364,-199.996
,-1.33,4.623,8.78,0.7,0.14,1.12,-48.873,14.823,-197.651
19767.0,-1.228,4.551,8.758,0.98,-0.14,1.33,-51.281,14.142,-200.139
,-1.175,4.441,8.717,4.62,2.52,0.49,-49.651,11.215,-200.108
,-1.251,4.53,8.739,2.59,1.26,0.14,-49.59,11.228,-198.283
,-1.249,4.628,8.617,3.36,1.61,0.49,-51.954,11.877,-199.835
19843.0,-1.29,4.661,8.636,2.87,1.54,0.77,-52.28,13.766,-201.46
,-1.302,4.594,8.732,1.47,0.63,1.33,-49.393,11.19,-198.572
,-1.18,4.542,8.703,3.08,2.03,0.77,-51.145,13.332,-199.582
,-1.256,4.609,8.746,2.52,0.84,0.84,-48.675,11.586,-199.488
19918.0,-1.187,4.535,8.784,1.19,-0.07,0.98,-50.47,12.678,-200.264
,-1.072,4.472,8.6,3.64,1.61,0.98,-50.945,11.695,-200.575
,-1.182,4.511,8.72,3.57,1.54,0.56,-49.06,10.342,-198.304
,-1.18,4.554,8.574,3.08,1.33,0.07,-53.308,13.944,-201.282
19994.0,-1.323,4.594,8.648,2.1,0.42,0.0,-48.702,12.14,-197.988
,-1.395,4.649,8.662,0.28,-0.56,0.7,-50.091,11.56,-199.763
,-1.259,4.563,8.55,2.31,1.4,1.05,-49.958,9.148,-200.051
,-1.295,4.597,8.801,2.17,1.89,0.77,-52.023,13.462,-201.095
20070.0,-1.22,4.506,8.746,0.14,0.35,0.84,-48.403,11.005,-199.873
,-1.17,4.506,8.658,1.4,1.26,0.35,-50.658,12.717,-199.695
,-1.244,4.57,8.768,1.54,1.33,0.49,-49.426,10.904,-200.725
,-1.094,4.527,8.643,3.15,1.75,1.19,-50.218,11.332,-198.541
20146.0,-1.189,4.563,8.775,2.31,1.4,1.12,-53.815,13.234,-201.404
,-1.187,4.511,8.744,2.52,1.33,0.14,-50.474,9.757,-200.781
,-1.268,4.578,8.744,4.69,2.8,0.21,-49.699,14.684,-198.792
,-1.285,4.587,8.708,2.45,1.54,0.49,-48.53,10.777,-198.651
20221.0,-1.304,4.637,8.65,3.5,2.17,0.21,-51.192,13.881,-198.643
,-1.304,4.594,8.614,2.94,1.68,0.21,-49.961,10.468,-200.519
,-1.338,4.558,8.691,2.31,1.61,0.7,-50.505,11.35,-200.919
,-1.244,4.575,8.794,2.24,1.68,1.19,-51.618,10.47,-201.769
20297.0,-1.216,4.547,8.701,3.85,2.87,0.35,-51.811,13.987,-198.621
,-1.292,4.561,8.662,3.92,2.24,0.49,-51.145,9.852,-202.302
,-1.223,4.549,8.734,3.22,1.89,0.42,-50.152,11.826,-200.417
,-1.218,4.527,8.629,1.4,0.49,0.63,-50.964,11.691,-201.136
20373.0,-1.266,4.602,8.832,0.07,-0.35,0.91,-51.656,9.701,-200.223
,-1.175,4.489,8.674,2.45,0.98,0.56,-51.161,11.728,-200.848
,-1.285,4.558,8.715,3.01,1.26,-0.07,-50.793,13.528,-200.251
,-1.263,4.609,8.737,3.99,2.24,-0.56,-52.191,14.266,-202.634
20449.0,-1.333,4.59,8.741,5.74,2.87,-0.21,-49.786,12.306,-199.493
,-1.369,4.659,8.646,5.95,3.36,0.35,-50.753,11.657,-201.003
,-1.244,4.556,8.614,4.2,2.52,0.84,-52.384,13.264,-200.708
,-1.175,4.501,8.622,2.24,1.47,0.21,-53.415,14.481,-202.167
20525.0,-1.311,4.599,8.667,1.61,0.84,0.84,-49.402,11.468,-197.681
,-1.297,4.614,8.693,4.41,2.94,1.05,-50.762,12.214,-198.942
,-1.307,4.657,8.777,3.85,2.38,1.26,-49.138,12.206,-198.674
,-1.307,4.568,8.804,2.52,1.05,1.12,-51.853,13.978,-199.884
20600.0,-1.33,4.551,8.751,2.8,0.91,0.7,-48.148,12.58,-197.633
,-1.244,4.53,8.564,4.2,1.61,0.98,-49.957,14.989,-199.156
,-1.244,4.592,8.667,2.94,1.19,1.12,-50.355,15.062,-198.72
,-1.326,4.649,8.603,3.29,1.75,0.49,-50.126,10.232,-200.419
20676.0,-1.266,4.582,8.576,4.48,2.24,0.84,-50.408,14.011,-198.766
,-1.354,4.637,8.748,2.45,1.82,1.05,-53.084,12.592,-200.401
,-1.316,4.645,8.646,4.2,2.38,1.4,-50.387,12.136,-200.08
,-1.249,4.508,8.703,2.17,0.77,1.54,-51.916,12.645,-201.381
20751.0,-1.211,4.566,8.624,2.24,1.05,0.63,-51.0,13.563,-200.243
,-1.225,4.575,8.614,1.61,0.7,0.14,-51.29,14.42,-199.248
,-1.175,4.472,8.658,3.5,1.89,-0.14,-52.612,14.894,-200.557
,-1.263,4.614,8.715,3.78,2.38,-0.49,-50.193,13.698,-199.664
20827.0,-1.326,4.616,8.581,2.73,1.33,-0.91,-50.24,12.647,-199.57
,-1.354,4.671,8.555,0.21,-0.77,-0.77,-50.588,12.172,-199.932
,-1.405,4.685,8.684,1.89,0.49,0.0,-52.372,11.666,-201.131
,-1.35,4.604,8.751,3.64,2.31,1.12,-49.403,10.909,-200.024
20903.0,-1.338,4.697,8.681,4.06,2.59,1.33,-47.426,11.656,-198.082
,-1.307,4.578,8.591,3.36,1.82,1.33,-51.239,13.871,-200.047
,-1.275,4.623,8.715,1.54,0.91,1.19,-50.79,12.208,-199.784
,-1.275,4.58,8.634,2.59,1.75,1.05,-50.981,13.567,-199.682
20979.0,-1.287,4.614,8.646,7.98,5.04,0.0,-50.098,14.198,-200.697
,-1.314,4.645,8.641,3.08,1.68,0.84,-51.794,12.111,-200.075
,-1.232,4.52,8.586,0.91,0.28,1.05,-50.659,11.397,-199.368
,-1.232,4.48,8.698,2.73,1.89,0.98,-51.054,11.191,-199.962
21055.0,-1.189,4.561,8.607,4.13,2.73,0.42,-50.257,10.003,-199.337
,-1.314,4.599,8.636,2.24,0.98,0.35,-49.458,11.736,-198.194
,-1.307,4.53,8.66,1.19,0.35,0.21,-54.61,11.502,-202.407
,-1.23,4.59,8.6,1.89,1.19,-0.49,-50.99,13.565,-199.963
21130.0,-1.295,4.621,8.622,2.45,1.89,-0.63,-51.46,12.863,-198.962
,-1.374,4.637,8.638,2.59,2.03,-0.7,-49.753,12.313,-198.511
,-1.407,4.731,8.751,2.03,0.84,-0.21,-52.753,14.664,-199.756
,-1.35,4.532,8.768,0.91,0.42,0.07,-50.355,10.542,-199.942
21206.0,-1.354,4.604,8.729,2.17,1.26,0.0,-49.277,14.616,-198.526
,-1.371,4.611,8.626,3.01,1.4,0.35,-50.967,13.29,-200.432
,-1.383,4.671,8.658,4.76,2.94,1.19,-49.25,12.742,-199.7
,-1.249,4.549,8.528,5.74,3.71,0.98,-53.205,13.126,-201.708
21282.0,-1.287,4.57,8.598,2.17,1.75,0.35,-51.197,13.6,-199.955
,-1.381,4.59,8.65,2.38,1.96,0.35,-51.169,13.327,-200.284
,-1.22,4.563,8.746,1.4,0.28,1.12,-50.656,14.317,-198.85
,-1.208,4.537,8.629,1.61,0.21,0.63,-49.922,11.796,-199.723
21358.0,-1.297,4.575,8.612,1.75,0.84,-0.14,-51.234,13.872,-199.906
,-1.28,4.597,8.61,0.77,0.35,-0.49,-51.392,15.238,-198.822
,-1.397,4.721,8.617,3.01,1.75,0.07,-51.523,11.53,-200.46
,-1.385,4.748,8.665,3.92,2.45,0.91,-48.895,11.618,-199.901
21433.0,-1.371,4.618,8.569,0.63,0.49,0.91,-50.208,12.654,-198.587
,-1.371,4.578,8.693,0.63,0.28,0.84,-51.109,11.739,-199.304
,-1.326,4.563,8.784,0.77,-0.28,0.98,-51.107,14.1,-201.129
,-1.256,4.518,8.777,2.8,0.98,0.7,-50.24,12.927,-198.398
21509.0,-1.295,4.592,8.696,6.93,4.34,-0.07,-51.455,13.625,-201.491
,-1.357,4.666,8.705,4.69,2.87,0.49,-51.609,13.671,-199.94
,-1.318,4.621,8.54,3.15,1.19,0.77,-51.952,14.237,-201.659
,-1.395,4.597,8.528,2.45,1.05,0.98,-49.34,12.522,-197.355
21584.0,-1.278,4.527,8.614,1.26,0.77,1.12,-50.556,11.899,-200.121
,-1.24,4.491,8.643,1.33,1.33,0.56,-50.987,12.246,-199.496
,-1.304,4.465,8.756,1.89,1.54,0.0,-50.233,11.049,-200.133
,-1.448,4.63,8.923,3.43,1.82,0.21,-49.969,12.066,-199.955
21660.0,-1.311,4.606,8.806,3.29,0.98,1.19,-50.621,12.165,-200.914
,-1.28,4.585,8.543,3.92,1.19,0.56,-52.706,10.914,-202.243
,-1.469,4.661,8.37,5.46,3.08,-0.07,-52.575,14.622,-200.606
,-1.388,4.599,8.43,2.24,1.68,0.84,-50.044,12.61,-199.858
21736.0,-1.259,4.563,8.65,1.12,1.61,0.7,-50.282,12.918,-199.661
,-1.23,4.535,8.804,0.07,0.98,0.21,-50.997,11.964,-200.947
,-1.314,4.551,8.981,1.19,1.26,0.0,-52.136,12.677,-201.794
,-1.328,4.527,8.861,3.22,1.68,-0.63,-51.631,15.266,-199.797
21812.0,-1.362,4.654,8.614,4.83,1.75,-0.35,-53.312,14.223,-200.251
,-1.287,4.602,8.504,2.03,0.28,-0.07,-51.344,11.489,-201.31
,-1.393,4.611,8.469,4.76,3.36,-1.19,-51.845,12.38,-200.447
,-1.436,4.669,8.667,1.61,1.54,-0.56,-51.492,14.177,-200.271
21888.0,-1.426,4.633,8.739,1.96,1.82,0.0,-51.117,13.337,-198.74
,-1.364,4.573,8.703,3.64,2.38,0.49,-51.979,14.511,-201.33
,-1.378,4.719,8.765,3.85,2.59,0.42,-52.997,14.971,-199.7
,-1.352,4.614,8.543,2.17,1.05,0.35,-52.45,13.53,-201.501
21963.0,-1.385,4.53,8.629,0.07,-0.28,0.28,-49.216,14.069,-199.044
,-1.357,4.57,8.631,0.77,0.28,1.26,-50.658,12.717,-199.695
,-1.342,4.685,8.684,4.97,3.5,0.35,-51.293,11.5,-199.766
,-1.407,4.637,8.753,2.52,1.61,0.35,-49.205,11.151,-199.141
22039.0,-1.263,4.575,8.677,1.89,0.91,0.49,-51.649,11.302,-199.238
,-1.347,4.535,8.605,2.59,1.19,0.42,-50.234,14.528,-197.414
,-1.4,4.609,8.641,3.85,2.17,0.63,-51.842,10.781,-201.151
,-1.388,4.642,8.583,1.68,1.05,0.28,-50.845,13.316,-196.783
22115.0,-1.347,4.554,8.528,-0.21,-0.35,0.35,-52.738,15.987,-199.662
,-1.35,4.556,8.717,0.0,0.42,0.49,-50.383,11.096,-198.442
,-1.318,4.515,8.667,-0.07,0.21,0.21,-51.412,13.634,-200.228
,-1.376,4.558,8.799,1.19,0.7,-0.07,-52.052,12.136,-201.611
22191.0,-1.405,4.585,8.71,1.68,0.98,-0.28,-50.306,13.193,-199.192
,-1.352,4.515,8.595,0.7,0.21,0.35,-51.313,14.695,-198.779
,-1.307,4.47,8.681,4.41,3.15,0.7,-51.012,10.64,-201.042
,-1.378,4.685,8.725,4.9,3.85,0.28,-52.614,13.294,-201.402
22266.0,-1.472,4.609,8.715,2.73,1.96,0.14,-48.376,9.69,-198.704
,-1.445,4.611,8.732,0.21,-0.42,1.05,-53.258,12.354,-200.583
,-1.388,4.549,8.739,1.19,-0.07,1.4,-51.067,12.509,-200.71
,-1.352,4.578,8.703,5.18,3.01,0.42,-51.496,9.936,-200.462
22342.0,-1.374,4.558,8.528,5.67,3.5,0.0,-49.566,11.993,-200.251
,-1.436,4.604,8.679,3.57,2.59,0.07,-50.765,13.254,-200.58
,-1.376,4.561,8.708,3.15,1.89,0.91,-50.413,9.49,-200.128
,-1.369,4.575,8.71,3.22,1.75,0.42,-50.629,9.243,-201.572
22417.0,-1.426,4.621,8.681,-0.35,-1.26,0.63,-50.818,12.202,-200.626
,-1.421,4.585,8.638,2.87,0.98,0.42,-52.901,12.272,-202.282
,-1.362,4.558,8.713,1.68,0.35,0.84,-51.356,13.646,-198.544
,-1.311,4.554,8.595,0.91,-0.14,0.63,-49.621,12.821,-198.421
22493.0,-1.383,4.506,8.689,1.12,0.21,0.35,-51.369,10.163,-201.685
,-1.338,4.494,8.689,4.27,2.17,0.35,-50.995,13.564,-200.103
,-1.362,4.542,8.555,3.57,1.96,0.0,-50.866,11.152,-200.531
,-1.426,4.561,8.6,3.99,3.01,-0.7,-50.751,13.257,-200.159
22569.0,-1.531,4.671,8.72,1.26,0.91,-0.21,-50.079,9.962,-200.187
,-1.405,4.587,8.65,3.71,2.1,0.63,-52.695,12.516,-201.118
,-1.426,4.539,8.842,3.22,1.4,0.42,-53.036,13.643,-200.496
,-1.457,4.604,8.708,2.1,0.49,0.49,-50.394,13.734,-199.516
22645.0,-1.419,4.633,8.576,4.62,2.24,0.98,-49.998,11.02,-199.299
,-1.405,4.616,8.61,3.22,1.47,1.19,-53.753,14.287,-201.078
,-1.452,4.611,8.576,3.36,2.1,0.84,-49.685,10.167,-199.592
,-1.412,4.602,8.614,3.01,2.1,1.12,-50.689,14.59,-198.661
22721.0,-1.378,4.57,8.763,1.4,0.77,1.61,-51.185,10.963,-198.881
,-1.33,4.549,8.693,2.66,1.26,1.61,-48.287,9.429,-197.209
,-1.259,4.453,8.672,2.73,1.33,1.54,-51.381,12.04,-200.09
,-1.321,4.604,8.648,4.97,3.01,0.56,-52.129,10.039,-200.86
22796.0,-1.328,4.503,8.533,3.85,2.38,0.42,-52.127,12.679,-201.514
,-1.342,4.582,8.574,3.36,2.94,0.14,-51.591,9.155,-200.6
,-1.491,4.621,8.765,1.82,1.89,0.14,-50.633,14.322,-198.149
,-1.455,4.592,8.715,3.57,2.73,0.56,-50.264,12.922,-199.1
22872.0,-1.424,4.609,8.691,2.8,1.4,0.77,-51.757,11.839,-200.123
,-1.328,4.551,8.696,1.75,0.42,0.91,-52.477,13.804,-201.172
,-1.397,4.599,8.598,3.29,1.89,0.49,-52.468,14.085,-199.72
,-1.424,4.594,8.619,4.27,3.29,0.14,-49.83,9.936,-198.931
22948.0,-1.508,4.676,8.65,2.87,1.75,0.7,-51.948,13.198,-200.021
,-1.417,4.587,8.732,1.54,0.42,1.26,-51.692,11.293,-200.501
,-1.381,4.53,8.677,2.17,0.91,0.84,-54.58,13.108,-200.72
,-1.354,4.527,8.751,2.59,1.47,0.42,-50.35,10.823,-198.63
23024.0,-1.479,4.664,8.691,5.53,3.92,0.42,-49.322,10.925,-197.638
,-1.45,4.637,8.77,4.13,2.17,1.12,-49.716,11.761,-199.73
,-1.417,4.59,8.617,1.75,-0.49,1.26,-52.116,13.241,-198.891
,-1.39,4.527,8.519,1.47,0.07,1.19,-51.628,13.667,-200.501
23099.0,-1.371,4.58,8.562,4.13,2.87,1.26,-53.049,14.96,-201.244
,-1.445,4.712,8.725,5.25,3.78,1.75,-52.699,12.515,-201.259
,-1.445,4.657,8.768,2.24,1.33,1.68,-48.688,11.863,-198.738
,-1.385,4.594,8.591,3.64,1.47,1.26,-50.967,13.57,-199.261
23175.0,-1.462,4.633,8.698,3.15,1.33,1.26,-51.352,13.087,-200.746
,-1.405,4.561,8.593,3.64,1.68,1.47,-49.621,12.541,-199.592
,-1.35,4.561,8.583,3.64,1.89,0.91,-53.039,14.962,-200.963
,-1.393,4.587,8.677,4.27,2.73,0.49,-53.005,11.769,-201.529
23251.0,-1.345,4.57,8.679,2.94,2.31,0.28,-52.069,14.012,-200.157
,-1.558,4.788,8.418,4.2,2.24,0.21,-51.145,13.332,-199.582
,-1.441,4.633,8.693,2.66,1.26,0.63,-51.625,12.348,-200.034
,-1.342,4.53,8.631,2.45,1.54,0.7,-52.057,12.414,-200.58
23327.0,-1.443,4.659,8.612,3.92,2.31,0.21,-52.773,13.339,-199.991
,-1.491,4.702,8.686,2.31,0.77,0.63,-50.978,11.968,-200.386
,-1.393,4.513,8.6,2.17,0.42,1.12,-52.931,11.225,-201.626
,-1.385,4.633,8.593,4.34,2.8,0.77,-52.474,12.764,-199.534
23403.0,-1.551,4.776,8.631,4.27,2.59,0.63,-51.633,13.946,-199.47
,-1.498,4.683,8.488,1.89,0.98,1.05,-50.316,12.151,-197.975
,-1.491,4.669,8.622,0.98,0.56,0.98,-52.705,15.714,-199.851
,-1.448,4.609,8.626,0.98,0.77,1.19,-52.305,12.721,-200.664
23478.0,-1.479,4.695,8.693,3.22,2.52,1.33,-55.122,15.031,-202.619
,-1.371,4.628,8.643,1.54,0.56,1.82,-51.493,12.576,-201.116
,-1.347,4.527,8.6,3.99,2.1,1.05,-52.746,12.785,-201.491
,-1.362,4.616,8.626,5.88,3.71,0.42,-52.225,12.458,-199.45
23554.0,-1.407,4.623,8.583,4.27,2.8,0.49,-52.054,14.295,-198.564
,-1.486,4.716,8.722,0.21,-0.35,0.63,-53.398,13.164,-201.279
,-1.34,4.53,8.447,2.03,0.42,0.49,-50.68,14.312,-199.552
,-1.51,4.654,8.607,3.99,2.03,0.84,-49.562,15.474,-197.391
23629.0,-1.369,4.544,8.598,2.38,1.75,1.12,-52.859,12.281,-201.019
,-1.457,4.69,8.526,3.64,2.8,0.14,-53.492,12.384,-201.417
,-1.522,4.678,8.605,1.75,1.47,0.42,-50.902,13.024,-199.638
,-1.457,4.649,8.717,1.68,1.4,0.91,-52.028,12.42,-199.738
23705.0,-1.409,4.633,8.681,1.19,0.7,1.26,-52.45,13.53,-201.501
,-1.452,4.654,8.648,4.55,2.8,0.77,-52.714,11.472,-200.182
,-1.433,4.637,8.686,3.29,1.75,0.98,-50.13,10.791,-198.217
,-1.424,4.633,8.54,2.94,1.75,0.56,-53.11,14.186,-200.399
23781.0,-1.577,4.764,8.624,1.19,0.28,0.84,-52.873,12.278,-201.44
,-1.338,4.535,8.574,4.13,2.31,1.12,-51.797,13.71,-199.371
,-1.433,4.64,8.713,3.78,2.31,1.05,-50.62,12.725,-198.572
,-1.476,4.724,8.624,3.22,1.61,0.49,-51.622,10.748,-200.738
23857.0,-1.39,4.618,8.504,2.03,0.49,0.77,-51.013,13.84,-199.493
,-1.433,4.628,8.512,3.78,2.66,0.42,-52.07,12.691,-199.83
,-1.445,4.671,8.588,3.43,2.59,0.49,-53.686,15.342,-200.611
,-1.443,4.614,8.751,1.82,1.12,0.56,-51.239,13.871,-200.047
23933.0,-1.522,4.726,8.806,2.24,0.56,0.77,-54.522,15.201,-202.032
,-1.433,4.666,8.571,3.36,0.98,0.98,-50.319,13.47,-198.442
,-1.395,4.599,8.545,0.84,-0.56,0.98,-53.398,13.164,-201.279
,-1.457,4.704,8.646,2.52,0.63,0.91,-49.846,13.132,-197.804
24008.0,-1.426,4.666,8.6,1.82,0.21,1.12,-52.301,16.962,-200.473
,-1.522,4.714,8.552,1.12,-0.49,1.12,-51.546,11.805,-199.991
,-1.467,4.635,8.562,4.55,2.52,1.33,-51.6,13.673,-199.659
,-1.414,4.537,8.607,3.64,2.17,1.75,-51.81,15.028,-200.118
24084.0,-1.421,4.59,8.708,4.06,2.8,1.05,-52.644,11.968,-201.917
,-1.436,4.606,8.681,3.36,2.1,0.7,-52.135,13.517,-198.281
,-1.419,4.664,8.71,2.52,1.26,0.0,-51.634,12.626,-199.143
,-1.524,4.736,8.662,1.12,-0.28,0.28,-48.707,12.139,-198.128
24160.0,-1.46,4.676,8.531,2.94,0.7,0.98,-50.712,14.585,-199.363
,-1.414,4.659,8.483,2.94,1.19,0.77,-51.251,15.749,-198.452
,-1.503,4.676,8.562,3.29,1.75,0.63,-52.553,13.307,-199.577
,-1.445,4.683,8.617,1.26,0.49,0.84,-50.79,12.208,-199.784
24236.0,-1.4,4.59,8.591,1.26,0.28,1.4,-53.581,12.925,-201.741
,-1.364,4.575,8.725,5.46,3.5,1.05,-52.887,12.555,-200.69
,-1.431,4.657,8.648,3.85,2.31,0.49,-50.214,10.773,-200.743
,-1.515,4.724,8.569,2.24,0.63,0.42,-51.345,14.968,-198.59
24311.0,-1.419,4.645,8.473,0.63,-0.49,0.84,-50.479,13.235,-198.202
,-1.457,4.659,8.514,2.24,1.4,0.84,-52.654,15.445,-199.478
,-1.491,4.683,8.605,3.01,2.59,1.05,-53.628,13.195,-201.973
,-1.438,4.623,8.667,4.62,3.78,0.98,-52.623,13.852,-199.34
24387.0,-1.464,4.704,8.794,3.57,2.38,1.26,-53.259,15.274,-200.205
,-1.311,4.587,8.665,1.68,0.56,1.33,-52.886,12.835,-199.519
,-1.333,4.625,8.598,3.99,2.24,0.49,-50.027,14.493,-197.421
,-1.469,4.683,8.488,3.64,2.17,0.49,-51.403,13.636,-199.947
24462.0,-1.452,4.712,8.557,4.55,3.15,0.42,-50.884,11.708,-198.75
,-1.412,4.609,8.617,1.82,0.77,0.84,-49.806,10.981,-199.728
,-1.407,4.681,8.631,2.38,0.7,0.77,-50.807,13.805,-199.501
,-1.374,4.604,8.569,2.59,1.12,0.7,-50.273,13.2,-198.21
24538.0,-1.328,4.625,8.6,3.43,1.82,-0.07,-52.713,12.792,-200.509
,-1.452,4.633,8.485,3.64,2.31,-0.49,-51.061,13.069,-198.228
,-1.5,4.685,8.614,2.03,0.91,-0.21,-51.811,13.707,-199.792
,-1.491,4.678,8.595,1.54,0.49,-0.07,-51.824,10.785,-200.59
24614.0,-1.503,4.676,8.689,1.54,0.56,-0.21,-50.026,15.814,-197.748
,-1.579,4.752,8.629,1.82,0.77,-0.42,-52.794,12.015,-200.225
,-1.536,4.719,8.466,2.1,1.05,0.28,-50.147,12.107,-199.105
,-1.553,4.712,8.624,3.01,1.96,1.19,-51.001,12.243,-199.917
24690.0,-1.441,4.676,8.641,4.48,3.57,1.26,-52.65,14.126,-199.011
,-1.479,4.676,8.717,3.78,2.38,1.12,-51.333,13.371,-199.013
,-1.443,4.671,8.643,2.1,0.56,0.91,-50.927,11.699,-200.013
,-1.371,4.592,8.547,2.66,1.12,0.63,-52.655,14.125,-199.151
24766.0,-1.431,4.623,8.457,3.71,2.1,0.14,-53.437,16.356,-200.853
,-1.426,4.633,8.452,3.15,2.38,0.07,-51.139,14.933,-198.598
,-1.515,4.623,8.641,4.76,4.06,0.14,-51.749,14.481,-200.636
,-1.603,4.743,8.737,3.78,3.22,0.14,-50.457,11.92,-197.174
24841.0,-1.558,4.815,8.739,1.26,0.07,0.56,-49.245,13.302,-197.217
,-1.486,4.74,8.514,0.84,-0.77,0.77,-52.201,13.223,-201.417
,-1.486,4.664,8.483,2.66,0.84,1.33,-51.549,13.124,-200.458
,-1.467,4.671,8.612,2.03,1.4,1.4,-49.894,16.322,-197.659
24917.0,-1.409,4.642,8.593,0.98,0.56,0.98,-50.633,14.042,-199.32
,-1.464,4.731,8.67,0.56,0.07,0.98,-54.788,16.063,-200.335
,-1.441,4.681,8.679,1.33,1.05,1.12,-50.979,15.167,-198.837
,-1.395,4.609,8.555,4.9,3.08,0.77,-50.251,11.325,-199.524
24993.0,-1.448,4.563,8.626,2.59,1.33,0.42,-53.778,13.242,-200.282
,-1.519,4.676,8.658,2.38,1.4,0.14,-50.489,8.713,-199.704
,-1.46,4.637,8.562,2.59,1.4,0.14,-49.77,13.909,-198.228
,-1.553,4.707,8.686,1.61,0.91,0.21,-53.117,12.585,-201.384
25069.0,-1.493,4.625,8.509,2.31,1.33,0.28,-50.573,13.495,-199.838
,-1.546,4.724,8.603,3.36,2.1,0.21,-53.101,13.909,-201.289
,-1.577,4.757,8.65,1.75,0.7,0.56,-50.914,10.102,-200.437
,-1.452,4.618,8.591,2.59,1.05,1.05,-52.204,15.102,-199.542
25144.0,-1.441,4.609,8.552,2.73,1.54,1.4,-51.714,12.889,-200.358
,-1.433,4.642,8.643,2.24,1.54,0.84,-51.977,11.872,-200.537
,-1.357,4.57,8.476,0.0,-0.77,0.56,-52.496,14.079,-200.562
,-1.419,4.59,8.619,2.17,1.4,-0.21,-53.607,15.079,-199.396
25220.0,-1.584,4.719,8.658,3.01,2.38,-0.07,-51.921,11.883,-198.853
,-1.541,4.709,8.672,2.03,0.56,1.4,-52.254,12.452,-200.292
,-1.486,4.633,8.665,2.45,0.77,1.19,-51.57,11.52,-201.863
,-1.519,4.692,8.54,3.15,1.26,0.77,-52.799,11.734,-201.537
25295.0,-1.524,4.702,8.571,3.01,0.98,1.05,-50.964,16.211,-199.914
,-1.503,4.664,8.622,0.35,-0.56,1.68,-51.853,14.258,-198.712
,-1.464,4.669,8.516,1.82,0.7,1.54,-54.028,11.948,-201.21
,-1.515,4.633,8.686,2.24,0.98,1.47,-52.337,13.274,-199.304
25371.0,-1.369,4.587,8.564,5.67,3.64,1.19,-49.578,12.83,-197.158
,-1.476,4.647,8.693,3.5,2.1,0.91,-50.374,10.818,-199.332
,-1.486,4.7,8.603,2.45,1.12,0.63,-52.498,15.959,-198.687
,-1.431,4.582,8.588,1.61,0.42,0.7,-49.641,11.777,-197.485
25447.0,-1.462,4.678,8.614,4.69,3.29,0.14,-51.183,13.603,-199.534
,-1.56,4.709,8.629,3.08,2.1,0.63,-50.705,12.987,-199.927
,-1.46,4.661,8.497,1.26,0.21,0.84,-51.356,13.366,-199.715
,-1.484,4.685,8.614,0.14,-0.35,0.49,-50.939,13.296,-199.59
25523.0,-1.486,4.661,8.564,1.96,1.05,0.84,-51.392,15.238,-198.822
,-1.479,4.659,8.734,3.5,2.94,0.91,-51.618,13.949,-199.049
,-1.524,4.676,8.634,4.13,3.01,1.19,-52.629,16.491,-200.274
,-1.452,4.592,8.729,1.61,0.84,1.26,-52.317,14.598,-199.07
25599.0,-1.426,4.645,8.512,3.78,1.96,0.56,-52.526,11.713,-199.58
,-1.429,4.683,8.583,3.01,1.4,1.12,-51.943,13.199,-199.881
,-1.347,4.568,8.5,4.2,2.52,0.91,-53.422,16.639,-199.261
,-1.383,4.609,8.464,3.15,2.52,0.07,-53.223,13.962,-198.756
25674.0,-1.486,4.659,8.66,2.52,2.45,-0.49,-53.795,14.558,-201.17
,-1.553,4.695,8.725,3.01,2.8,-0.42,-50.527,11.905,-199.279
,-1.541,4.714,8.772,1.75,1.26,-0.21,-50.465,12.959,-198.952
,-1.598,4.774,8.653,2.45,0.84,0.35,-50.692,11.669,-199.179
25750.0,-1.553,4.724,8.454,2.17,0.49,0.98,-52.821,12.289,-199.896
,-1.496,4.616,8.404,2.03,0.7,1.12,-50.763,10.614,-199.786
,-1.452,4.652,8.509,1.89,1.54,1.12,-50.954,11.973,-199.684
,-1.481,4.623,8.586,2.1,2.52,1.05,-52.47,12.205,-201.736
25826.0,-1.543,4.671,8.77,3.5,3.08,1.33,-50.941,11.696,-200.434
,-1.45,4.618,8.782,2.03,1.05,1.4,-52.497,12.759,-200.236
,-1.457,4.568,8.691,2.24,0.35,0.63,-50.836,12.758,-198.845
,-1.508,4.587,8.624,4.41,1.75,0.07,-54.517,15.202,-201.892
25902.0,-1.555,4.731,8.452,5.39,3.08,0.14,-54.246,13.581,-200.779
,-1.586,4.752,8.476,4.69,2.31,0.49,-53.683,13.743,-201.315
,-1.546,4.748,8.464,1.89,0.56,0.98,-51.435,14.189,-198.587
,-1.491,4.635,8.509,2.03,1.33,0.98,-49.959,12.348,-198.503
25977.0,-1.481,4.611,8.744,2.31,1.89,0.63,-49.889,11.803,-198.74
,-1.469,4.719,8.634,3.64,2.17,0.42,-51.73,10.245,-200.126
,-1.567,4.673,8.717,3.43,0.98,1.19,-50.629,13.003,-197.682
,-1.488,4.657,8.677,5.04,1.96,1.26,-51.526,13.129,-199.756
26053.0,-1.426,4.7,8.509,2.03,0.0,0.98,-53.799,14.837,-200.139
,-1.484,4.657,8.452,3.5,1.4,0.0,-50.448,11.642,-198.064
,-1.527,4.697,8.509,2.94,1.4,0.49,-52.4,10.9,-199.304
,-1.603,4.822,8.55,3.71,2.24,0.77,-50.846,12.756,-199.126
26129.0,-1.498,4.707,8.571,3.99,2.52,0.84,-53.278,15.55,-199.595
,-1.5,4.678,8.646,3.22,1.89,1.26,-53.269,15.272,-200.486
,-1.524,4.724,8.641,3.85,2.24,0.84,-50.676,13.273,-197.914
,-1.515,4.69,8.528,3.22,1.47,1.12,-49.343,13.841,-197.822
26204.0,-1.464,4.637,8.502,0.91,0.0,1.12,-53.115,14.465,-199.368
,-1.467,4.673,8.445,2.38,1.47,0.35,-51.889,11.331,-200.212
,-1.472,4.661,8.579,2.38,2.03,-0.21,-52.933,13.105,-199.751
,-1.543,4.733,8.681,1.82,1.89,-0.14,-52.834,13.886,-199.473
26280.0,-1.598,4.774,8.593,3.57,1.4,0.98,-50.411,10.81,-200.455
,-1.488,4.678,8.557,5.25,2.52,1.4,-53.618,13.477,-200.521
,-1.541,4.685,8.559,5.25,3.29,0.98,-52.546,11.429,-201.312
,-1.508,4.728,8.485,4.83,3.64,0.77,-53.951,13.004,-200.463
26356.0,-1.584,4.781,8.593,4.13,3.01,0.98,-51.101,14.941,-197.475
,-1.57,4.702,8.61,1.61,0.77,1.05,-53.072,15.235,-200.774
,-1.579,4.709,8.641,3.64,2.31,1.12,-52.831,12.287,-200.177
,-1.567,4.759,8.677,3.5,1.82,1.54,-53.697,13.74,-201.736
26432.0,-1.515,4.709,8.545,2.73,0.77,1.61,-53.205,13.126,-201.708
,-1.417,4.681,8.442,3.5,1.61,1.05,-50.572,14.055,-197.495
,-1.534,4.745,8.528,2.31,1.47,0.28,-53.405,15.043,-199.544
,-1.5,4.661,8.447,3.01,2.17,0.14,-54.392,13.349,-200.118
26507.0,-1.613,4.779,8.641,1.4,1.05,0.77,-51.798,16.91,-197.822
,-1.519,4.731,8.445,1.75,0.77,0.98,-49.23,14.346,-198.294
,-1.491,4.69,8.603,1.96,0.84,1.05,-53.006,14.969,-199.981
,-1.558,4.743,8.593,4.97,3.57,0.42,-54.796,12.862,-202.165
26583.0,-1.661,4.793,8.61,3.36,2.52,0.63,-52.107,13.243,-198.61
,-1.625,4.855,8.607,2.03,0.84,1.33,-55.856,13.592,-200.626
,-1.51,4.647,8.394,0.42,-0.84,2.17,-53.447,15.034,-200.807
,-1.445,4.609,8.507,1.4,0.77,1.47,-52.794,11.735,-201.396
26659.0,-1.426,4.673,8.562,5.46,3.99,0.42,-51.786,15.033,-199.417
,-1.563,4.731,8.708,3.85,3.01,0.42,-51.883,12.652,-200.399
,-1.653,4.769,8.579,1.96,1.12,0.77,-55.752,13.815,-202.55
,-1.536,4.781,8.502,2.03,0.7,1.61,-53.365,13.171,-200.297
26735.0,-1.539,4.709,8.478,4.27,2.66,0.84,-53.24,15.278,-199.644
,-1.608,4.731,8.514,3.5,2.24,0.63,-51.257,14.427,-198.266
,-1.651,4.745,8.559,1.96,1.33,0.63,-53.754,12.967,-200.751
,-1.632,4.764,8.598,2.1,1.05,1.19,-49.917,12.077,-198.411
26811.0,-1.522,4.683,8.552,4.41,2.24,1.54,-53.491,13.984,-200.572
,-1.531,4.721,8.564,2.1,0.84,1.68,-52.365,13.547,-198.975
,-1.531,4.724,8.562,1.61,0.28,1.47,-54.139,17.284,-199.843
,-1.455,4.642,8.476,2.03,0.77,1.05,-55.398,15.892,-201.203
26886.0,-1.524,4.769,8.622,2.94,1.4,0.49,-52.769,13.34,-199.85
,-1.539,4.721,8.471,3.92,2.38,0.42,-53.094,11.829,-198.013
,-1.541,4.714,8.686,2.8,1.26,0.98,-51.128,12.015,-198.694
,-1.462,4.731,8.5,3.36,1.05,0.7,-53.385,16.087,-200.481
26962.0,-1.575,4.779,8.418,4.55,2.24,0.0,-52.286,12.725,-200.103
,-1.642,4.812,8.378,4.27,2.24,0.42,-51.002,15.442,-198.368
,-1.601,4.743,8.471,1.75,1.47,0.84,-50.446,12.962,-198.391
,-1.61,4.726,8.588,1.75,1.68,1.05,-53.384,13.167,-200.858
27037.0,-1.519,4.743,8.717,3.36,2.52,0.77,-52.844,12.564,-199.427
,-1.484,4.692,8.634,2.03,0.49,1.05,-52.145,13.235,-199.733
,-1.45,4.681,8.48,2.8,0.84,0.56,-52.808,15.491,-197.927
,-1.531,4.769,8.447,1.33,0.0,0.35,-51.892,12.93,-199.508
27113.0,-1.417,4.685,8.449,-1.12,-1.75,0.35,-54.372,14.393,-201.055
,-1.405,4.63,8.354,2.38,1.47,-0.49,-55.007,13.176,-201.126
,-1.474,4.683,8.595,2.87,2.31,-0.28,-53.666,16.666,-200.376
,-1.57,4.748,8.732,4.06,2.94,-0.63,-51.342,13.369,-199.294
27189.0,-1.57,4.748,8.559,2.73,1.4,-0.77,-52.755,13.343,-199.429
,-1.766,4.874,8.713,3.29,1.54,-0.56,-51.558,9.162,-199.618
,-1.651,4.805,8.416,1.96,0.56,0.21,-54.268,15.456,-199.465
,-1.565,4.716,8.349,3.22,1.61,0.0,-53.567,12.928,-201.32
27265.0,-1.649,4.807,8.538,1.61,1.54,0.49,-53.074,12.594,-200.121
,-1.553,4.678,8.512,2.45,2.38,0.35,-51.475,11.54,-199.057
,-1.558,4.736,8.612,2.8,2.52,0.42,-51.774,13.436,-199.84
,-1.555,4.676,8.648,3.85,2.52,0.63,-49.824,11.257,-199.118
27340.0,-1.524,4.688,8.533,1.05,0.28,0.35,-52.426,9.294,-200.85
,-1.484,4.587,8.5,1.05,0.0,-0.07,-53.523,14.257,-200.384
,-1.56,4.683,8.581,1.47,0.77,-0.56,-54.016,13.55,-200.085
,-1.613,4.733,8.571,1.75,0.7,-0.14,-52.168,13.51,-199.264
27416.0,-1.493,4.712,8.476,2.1,0.63,-0.21,-53.417,12.12,-200.343
,-1.586,4.664,8.471,0.77,-0.28,-0.49,-50.247,11.326,-199.383
,-1.665,4.748,8.492,1.82,1.19,-0.63,-53.693,17.22,-198.876
,-1.744,4.879,8.67,3.57,2.87,-0.07,-51.685,17.415,-198.294
27492.0,-1.68,4.81,8.686,2.94,2.03,1.05,-51.141,13.332,-199.442
,-1.536,4.621,8.512,1.47,0.49,1.61,-50.934,13.577,-198.279
,-1.596,4.712,8.524,3.43,1.89,1.12,-54.32,10.645,-203.402
,-1.536,4.678,8.473,3.85,2.24,1.33,-51.674,9.977,-199.613
27568.0,-1.575,4.743,8.636,2.03,0.98,1.75,-51.274,15.744,-199.154
,-1.531,4.728,8.504,1.19,0.0,1.26,-53.189,15.289,-198.1
,-1.493,4.664,8.509,2.45,1.47,0.77,-53.149,13.138,-200.024
,-1.553,4.657,8.626,2.38,1.82,0.84,-53.638,11.872,-201.927
27644.0,-1.594,4.683,8.624,0.7,0.07,0.28,-53.467,13.989,-199.871
,-1.519,4.563,8.581,1.19,0.07,0.21,-52.832,10.966,-199.85
,-1.572,4.748,8.665,4.97,3.36,0.0,-53.175,14.732,-200.021
,-1.594,4.771,8.564,3.78,2.24,0.21,-52.12,14.281,-200.529
27719.0,-1.598,4.709,8.559,1.68,0.42,0.0,-54.744,12.873,-200.621
,-1.634,4.762,8.533,-1.19,-1.54,-0.14,-51.626,15.547,-198.485
,-1.567,4.692,8.552,-1.82,-2.45,-0.14,-52.98,13.095,-201.154
,-1.594,4.709,8.552,0.14,-0.91,0.21,-53.073,13.914,-200.447
27795.0,-1.519,4.657,8.567,3.57,1.96,0.42,-55.352,10.822,-203.364
,-1.498,4.669,8.648,2.52,1.26,0.07,-53.823,10.592,-200.891
,-1.515,4.681,8.574,1.89,0.35,-0.21,-53.209,13.685,-199.506
,-1.613,4.714,8.569,3.43,1.4,0.28,-52.348,11.671,-200.429
27870.0,-1.567,4.728,8.437,4.13,2.24,0.7,-50.117,13.714,-197.419
,-1.637,4.69,8.614,2.8,1.68,0.98,-52.484,11.442,-199.488
,-1.596,4.685,8.643,2.38,1.82,0.77,-53.225,12.361,-199.6
,-1.565,4.695,8.595,1.54,0.56,1.12,-53.287,11.028,-201.098
27946.0,-1.527,4.657,8.598,2.66,0.98,0.49,-51.828,11.064,-199.559
,-1.524,4.637,8.5,1.19,0.14,0.7,-54.48,14.17,-199.271
,-1.445,4.532,8.435,2.94,1.61,0.21,-52.844,13.604,-200.925
,-1.517,4.649,8.605,1.05,0.98,-0.28,-50.1,11.837,-198.873
28022.0,-1.553,4.7,8.574,3.08,2.8,-0.77,-51.465,12.862,-199.103
,-1.601,4.669,8.734,0.7,0.63,0.0,-51.649,11.582,-198.067
,-1.563,4.673,8.636,1.19,0.35,0.0,-52.997,14.971,-199.7
,-1.601,4.621,8.559,2.52,0.91,-0.14,-51.859,12.657,-199.697
28098.0,-1.622,4.692,8.514,3.29,2.1,-0.07,-50.651,14.598,-197.539
,-1.622,4.738,8.428,3.85,2.31,0.42,-51.302,16.018,-198.825
,-1.586,4.712,8.614,2.17,1.75,0.84,-52.372,15.146,-198.411
,-1.534,4.645,8.557,2.66,1.82,0.7,-52.09,15.887,-198.843
28174.0,-1.515,4.625,8.725,3.5,2.87,1.05,-51.724,11.566,-200.312
,-1.56,4.635,8.655,4.48,3.99,0.35,-51.598,15.553,-197.643
,-1.646,4.609,8.67,1.54,1.19,0.56,-50.226,12.65,-199.149
,-1.565,4.58,8.744,3.15,2.31,0.35,-53.302,14.505,-198.799
28249.0,-1.613,4.683,8.571,2.94,1.75,0.56,-51.901,13.208,-198.618
,-1.637,4.75,8.581,4.48,2.87,0.21,-50.423,12.688,-198.86
,-1.594,4.671,8.457,2.8,1.54,0.49,-50.551,12.18,-198.809
,-1.579,4.664,8.588,2.38,1.61,0.21,-54.743,14.193,-200.948
28325.0,-1.692,4.724,8.677,5.04,3.78,-0.07,-54.742,15.514,-201.274
,-1.725,4.764,8.605,3.08,2.1,0.7,-52.731,13.068,-199.899
,-1.62,4.704,8.579,2.59,1.26,1.12,-52.142,11.636,-200.437
,-1.61,4.69,8.55,1.89,1.26,0.84,-53.372,14.77,-199.733
28401.0,-1.515,4.621,8.521,3.22,1.96,0.49,-54.552,13.114,-199.878
,-1.644,4.726,8.595,1.26,0.49,0.84,-52.607,15.175,-199.246
,-1.601,4.697,8.528,4.9,3.08,1.19,-49.687,12.047,-197.717
,-1.584,4.671,8.643,2.8,1.82,1.33,-52.733,15.708,-200.692
28477.0,-1.575,4.683,8.662,1.19,0.91,0.84,-53.13,12.862,-200.634
,-1.539,4.647,8.6,0.77,0.21,0.42,-52.835,12.286,-200.317
,-1.596,4.673,8.612,3.57,1.4,0.42,-50.606,12.728,-198.151
,-1.665,4.642,8.624,3.08,1.4,0.28,-54.908,13.958,-200.848
28552.0,-1.639,4.69,8.507,2.31,0.98,0.56,-52.704,12.794,-200.228
,-1.591,4.688,8.464,2.17,0.77,0.49,-53.455,12.392,-200.294
,-1.632,4.69,8.5,3.29,2.24,0.7,-52.269,11.128,-200.386
,-1.67,4.719,8.605,4.55,3.15,0.91,-50.611,12.727,-198.291
28628.0,-1.575,4.728,8.629,3.29,1.82,0.91,-52.998,13.65,-199.373
,-1.613,4.695,8.552,2.52,1.12,0.91,-54.474,15.491,-199.458
,-1.603,4.678,8.559,2.1,0.28,0.91,-53.096,14.189,-199.978
,-1.534,4.649,8.552,1.96,0.21,0.77,-53.42,13.719,-199.639
28703.0,-1.594,4.673,8.531,2.87,1.26,0.49,-52.452,10.889,-200.848
,-1.653,4.709,8.449,3.85,2.38,0.35,-53.68,16.943,-199.626
,-1.737,4.81,8.593,3.15,1.68,0.63,-51.445,14.187,-198.868
,-1.668,4.759,8.595,1.61,0.77,1.19,-54.245,15.181,-199.935
28779.0,-1.589,4.659,8.514,3.57,1.96,1.26,-51.669,14.498,-198.251
,-1.565,4.748,8.636,3.5,2.1,0.98,-52.239,12.735,-198.7
,-1.608,4.716,8.509,2.03,1.12,0.91,-50.906,13.023,-199.779
,-1.637,4.709,8.502,2.1,0.91,1.05,-54.662,15.251,-200.06
28855.0,-1.565,4.669,8.569,4.69,3.01,1.33,-52.711,14.673,-198.493
,-1.598,4.697,8.662,2.66,1.96,1.12,-53.041,13.642,-200.636
,-1.603,4.697,8.555,2.03,0.91,0.91,-53.142,15.78,-200.537
,-1.582,4.666,8.567,2.59,1.12,0.84,-54.218,13.587,-199.937
28931.0,-1.615,4.707,8.524,3.36,2.52,0.35,-51.498,12.855,-200.085
,-1.653,4.704,8.423,3.92,2.38,0.77,-49.417,14.385,-197.725
,-1.62,4.738,8.648,2.45,1.75,0.77,-52.075,12.69,-199.97
,-1.613,4.688,8.524,2.73,1.82,0.42,-51.231,12.553,-199.439
29007.0,-1.634,4.716,8.612,1.82,1.12,0.42,-53.716,14.016,-201.126
,-1.709,4.767,8.641,2.31,1.82,0.21,-51.98,13.751,-198.661
,-1.685,4.716,8.528,2.66,1.4,0.98,-52.42,19.376,-199.764
,-1.615,4.75,8.557,2.87,1.33,1.47,-54.189,14.633,-200.593
29082.0,-1.62,4.664,8.516,4.9,3.15,0.98,-51.752,11.84,-199.983
,-1.63,4.661,8.593,3.22,2.17,0.84,-51.771,12.116,-199.373
,-1.56,4.678,8.569,2.17,1.19,0.91,-52.683,14.399,-198.822
,-1.615,4.728,8.624,0.77,-0.07,1.12,-51.549,13.404,-199.286
29158.0,-1.543,4.685,8.433,2.94,1.19,0.49,-52.876,13.877,-200.736
,-1.558,4.63,8.437,2.8,1.47,0.42,-54.401,14.388,-201.897
,-1.73,4.805,8.576,3.57,2.52,0.63,-52.027,13.741,-200.065
,-1.632,4.685,8.547,3.85,2.66,0.63,-51.395,12.317,-199.34
29234.0,-1.74,4.848,8.703,3.99,2.38,0.63,-52.453,14.088,-199.299
,-1.598,4.671,8.406,3.78,1.47,1.4,-51.197,9.08,-201.177
,-1.618,4.645,8.559,2.24,0.98,1.47,-52.929,12.826,-200.782
,-1.584,4.642,8.588,2.17,1.05,1.4,-50.992,12.245,-199.636
29310.0,-1.663,4.843,8.576,2.17,0.63,1.26,-53.475,15.587,-199.307
,-1.668,4.738,8.473,1.4,-0.07,1.75,-53.031,13.644,-200.356
,-1.637,4.743,8.483,1.96,0.77,1.54,-52.242,14.054,-199.167
,-1.606,4.602,8.492,1.54,0.63,1.26,-54.579,14.429,-201.047
29385.0,-1.639,4.628,8.614,1.96,0.98,1.26,-52.832,10.966,-199.85
,-1.63,4.695,8.579,3.08,1.61,0.77,-49.817,13.138,-196.962
,-1.632,4.69,8.607,4.2,2.45,0.28,-55.229,15.848,-202.333
,-1.675,4.748,8.638,2.52,1.54,0.56,-53.078,13.913,-200.588
29461.0,-1.644,4.721,8.55,3.22,1.68,0.28,-55.212,14.532,-201.445
,-1.689,4.716,8.442,1.54,0.0,1.19,-53.775,15.883,-200.935
,-1.589,4.707,8.603,2.03,0.63,1.26,-51.127,13.056,-200.192
,-1.653,4.752,8.402,2.87,1.4,0.98,-51.976,13.472,-199.692
