Timestamp,AccX,AccY,AccZ,GyroX,GyroY,GyroZ,MagnX,MagnY,MagnZ
0.0,-9.313,-0.933,-3.333,-9.366,-0.828,-3.175,3.22,1.19,0.91
,-9.351,-0.842,-3.247,-9.335,-0.897,-3.175,3.36,1.26,1.05
,-9.373,-0.833,-3.173,-9.306,-0.876,-3.183,3.01,1.26,0.91
,-9.361,-0.902,-3.144,-9.299,-0.924,-3.233,2.73,1.4,0.84
75.0,-9.363,-0.912,-3.266,-9.347,-0.926,-3.252,2.59,1.68,0.84
,-9.366,-0.924,-3.183,-9.32,-0.893,-3.257,2.66,1.89,0.91
,-9.359,-0.921,-3.204,-9.328,-0.912,-3.297,2.38,1.82,0.91
,-9.387,-0.943,-3.216,-9.349,-0.89,-3.3,2.45,1.82,0.91
151.0,-9.354,-0.835,-3.388,-9.306,-0.912,-3.312,2.73,1.61,0.98
,-9.301,-0.864,-3.293,-9.325,-0.876,-3.257,2.59,1.4,1.05
,-9.316,-0.842,-3.384,-9.32,-0.905,-3.259,2.59,1.47,0.98
,-9.32,-0.885,-3.36,-9.342,-0.859,-3.216,2.52,1.19,0.91
227.0,-9.34,-0.857,-3.192,-9.375,-0.883,-3.211,2.59,1.26,0.91
,-9.32,-0.924,-3.211,-9.342,-0.909,-3.175,2.31,1.12,0.91
,-9.292,-0.919,-3.18,-9.335,-0.871,-3.204,2.38,1.33,0.98
,-9.332,-0.907,-3.187,-9.316,-0.859,-3.228,2.66,1.47,1.05
302.0,-9.328,-0.883,-3.305,-9.299,-0.873,-3.321,2.24,1.61,1.19
,-9.323,-0.919,-3.269,-9.316,-0.859,-3.262,2.45,1.68,1.12
,-9.337,-0.897,-3.331,-9.323,-0.878,-3.25,2.8,1.68,1.19
,-9.344,-0.84,-3.345,-9.397,-0.916,-3.216,2.66,1.68,0.98
378.0,-9.38,-0.806,-3.271,-9.349,-0.816,-3.295,2.1,1.4,0.98
,-9.34,-0.905,-3.228,-9.328,-0.826,-3.295,2.03,1.4,1.05
,-9.383,-0.878,-3.247,-9.347,-0.881,-3.305,2.1,1.4,1.12
,-9.33,-0.818,-3.324,-9.318,-0.873,-3.312,2.31,1.26,1.05
453.0,-9.311,-0.881,-3.29,-9.366,-0.857,-3.216,2.59,1.4,1.12
,-9.299,-0.897,-3.23,-9.371,-0.902,-3.226,2.59,1.54,1.19
,-9.347,-0.811,-3.228,-9.373,-0.888,-3.23,2.66,1.4,1.05
,-9.363,-0.83,-3.23,-9.347,-0.847,-3.273,2.38,1.47,0.98
529.0,-9.323,-0.871,-3.305,-9.356,-0.895,-3.305,2.1,1.4,0.77
,-9.308,-0.859,-3.271,-9.301,-0.869,-3.3,2.1,1.47,0.84
,-9.311,-0.888,-3.331,-9.296,-0.869,-3.266,2.03,1.4,0.91
,-9.349,-0.895,-3.3,-9.301,-0.857,-3.276,2.1,1.33,0.91
605.0,-9.294,-0.893,-3.285,-9.332,-0.866,-3.171,2.59,1.12,0.91
,-9.32,-0.873,-3.233,-9.349,-0.895,-3.111,2.87,1.19,0.98
,-9.342,-0.828,-3.204,-9.397,-0.869,-3.156,3.01,1.05,0.98
,-9.342,-0.842,-3.163,-9.383,-0.916,-3.139,2.8,1.19,0.91
681.0,-9.414,-0.854,-3.273,-9.311,-0.828,-3.348,2.52,1.68,0.98
,-9.335,-0.811,-3.269,-9.304,-0.811,-3.352,2.45,1.68,0.84
,-9.299,-0.787,-3.288,-9.296,-0.809,-3.367,2.31,1.68,0.77
,-9.263,-0.833,-3.305,-9.323,-0.787,-3.281,2.31,1.68,0.84
757.0,-9.292,-0.83,-3.242,-9.344,-0.859,-3.262,2.24,1.4,0.77
,-9.349,-0.849,-3.228,-9.304,-0.938,-3.293,2.1,1.47,0.7
,-9.404,-0.89,-3.175,-9.301,-0.94,-3.309,1.82,1.19,0.63
,-9.356,-0.893,-3.221,-9.349,-0.893,-3.259,1.82,1.33,0.56
832.0,-9.371,-0.823,-3.25,-9.313,-0.866,-3.3,2.59,1.4,0.98
,-9.414,-0.816,-3.214,-9.265,-0.921,-3.357,2.1,1.4,0.84
,-9.361,-0.859,-3.216,-9.28,-0.857,-3.321,2.03,1.47,0.7
,-9.316,-0.9,-3.297,-9.351,-0.861,-3.269,2.17,1.4,0.77
908.0,-9.296,-0.838,-3.252,-9.33,-0.869,-3.283,2.87,1.4,0.98
,-9.399,-0.861,-3.238,-9.294,-0.871,-3.269,2.59,1.19,0.91
,-9.349,-0.818,-3.252,-9.313,-0.869,-3.214,2.52,1.33,0.98
,-9.368,-0.905,-3.283,-9.39,-0.893,-3.226,2.52,1.12,0.77
984.0,-9.409,-0.857,-3.195,-9.325,-0.83,-3.221,2.52,1.4,1.12
,-9.383,-0.861,-3.195,-9.366,-0.809,-3.195,2.31,0.98,0.91
,-9.328,-0.895,-3.185,-9.318,-0.849,-3.183,2.17,1.26,1.05
,-9.318,-0.873,-3.175,-9.359,-0.861,-3.252,2.45,1.54,1.12
1060.0,-9.418,-0.861,-3.278,-9.34,-0.826,-3.295,2.1,1.61,1.12
,-9.332,-0.89,-3.23,-9.325,-0.888,-3.319,2.24,1.54,1.12
,-9.33,-0.876,-3.238,-9.299,-0.835,-3.319,1.96,1.47,1.12
,-9.356,-0.816,-3.281,-9.323,-0.814,-3.357,1.89,1.47,1.12
1135.0,-9.349,-0.83,-3.264,-9.375,-0.794,-3.209,2.59,0.91,0.91
,-9.337,-0.816,-3.283,-9.342,-0.835,-3.173,2.73,1.05,0.98
,-9.366,-0.838,-3.223,-9.342,-0.873,-3.147,2.8,0.91,0.98
,-9.337,-0.842,-3.19,-9.296,-0.888,-3.156,3.08,0.84,0.98
1211.0,-9.402,-0.852,-3.13,-9.311,-0.782,-3.262,2.66,1.19,0.91
,-9.392,-0.782,-3.154,-9.337,-0.816,-3.269,2.59,1.33,0.91
,-9.39,-0.802,-3.156,-9.32,-0.838,-3.309,2.52,1.47,0.84
,-9.359,-0.802,-3.195,-9.354,-0.802,-3.305,2.03,1.61,0.77
1286.0,-9.313,-0.804,-3.309,-9.359,-0.847,-3.257,1.89,1.19,0.63
,-9.323,-0.864,-3.266,-9.349,-0.861,-3.257,1.89,1.12,0.63
,-9.347,-0.833,-3.345,-9.325,-0.806,-3.266,2.1,0.91,0.56
,-9.347,-0.89,-3.183,-9.33,-0.885,-3.214,2.1,0.91,0.63
1362.0,-9.318,-0.871,-3.216,-9.366,-0.811,-3.254,2.24,1.05,0.77
,-9.378,-0.95,-3.23,-9.33,-0.852,-3.23,2.66,0.91,0.77
,-9.299,-0.842,-3.216,-9.308,-0.854,-3.24,2.87,0.84,0.77
,-9.342,-0.823,-3.211,-9.356,-0.869,-3.266,2.66,0.84,0.84
1438.0,-9.311,-0.802,-3.319,-9.313,-0.914,-3.307,2.8,0.84,0.77
,-9.349,-0.852,-3.309,-9.318,-0.823,-3.226,2.94,0.49,0.77
,-9.335,-0.816,-3.302,-9.385,-0.816,-3.154,2.73,0.77,0.84
,-9.371,-0.926,-3.259,-9.354,-0.821,-3.139,2.66,0.63,0.63
1514.0,-9.328,-0.931,-3.118,-9.397,-0.806,-3.037,2.38,0.77,0.77
,-9.33,-0.957,-3.075,-9.43,-0.818,-3.051,2.73,0.84,0.84
,-9.414,-0.909,-3.094,-9.349,-0.804,-3.118,3.01,0.84,0.91
,-9.344,-0.833,-3.013,-9.356,-0.914,-3.187,3.15,1.12,0.91
1590.0,-9.351,-0.928,-3.295,-9.359,-0.833,-3.331,2.87,1.54,0.77
,-9.313,-0.835,-3.317,-9.342,-0.878,-3.297,3.64,1.75,0.98
,-9.363,-0.732,-3.281,-9.342,-0.847,-3.228,3.64,1.61,0.84
,-9.335,-0.778,-3.36,-9.366,-0.84,-3.266,3.36,1.4,0.77
1665.0,-9.335,-0.811,-3.223,-9.414,-0.857,-3.142,3.78,0.84,0.91
,-9.337,-0.84,-3.183,-9.363,-0.818,-3.132,3.85,0.98,0.84
,-9.335,-0.902,-3.178,-9.361,-0.849,-3.137,3.85,0.98,0.84
,-9.337,-0.909,-3.099,-9.344,-0.888,-3.092,3.99,0.98,0.91
1741.0,-9.383,-0.854,-3.125,-9.378,-0.823,-3.161,3.22,1.4,0.84
,-9.347,-0.845,-3.104,-9.323,-0.857,-3.218,3.22,1.61,0.91
,-9.383,-0.881,-3.099,-9.363,-0.893,-3.199,3.15,1.61,0.91
,-9.361,-0.852,-3.147,-9.359,-0.818,-3.211,3.22,1.54,0.77
1817.0,-9.371,-0.806,-3.214,-9.33,-0.861,-3.252,2.73,1.75,0.7
,-9.349,-0.878,-3.271,-9.38,-0.775,-3.209,2.52,1.61,0.63
,-9.335,-0.871,-3.257,-9.347,-0.816,-3.175,2.8,1.54,0.77
,-9.323,-0.909,-3.278,-9.383,-0.828,-3.142,2.87,1.33,0.77
1893.0,-9.404,-0.842,-3.178,-9.378,-0.84,-3.183,2.31,1.26,0.56
,-9.311,-0.89,-3.149,-9.385,-0.83,-3.178,2.45,1.26,0.56
,-9.316,-0.89,-3.132,-9.371,-0.9,-3.13,2.8,1.47,0.7
,-9.337,-0.861,-3.199,-9.418,-0.948,-3.132,3.08,1.61,0.7
1968.0,-9.399,-0.869,-3.187,-9.306,-0.857,-3.329,2.66,1.75,0.63
,-9.375,-0.821,-3.218,-9.28,-0.83,-3.333,2.73,1.82,0.7
,-9.313,-0.849,-3.247,-9.395,-0.828,-3.266,2.59,1.75,0.7
,-9.342,-0.842,-3.259,-9.34,-0.821,-3.257,2.59,1.68,0.56
2044.0,-9.301,-0.873,-3.228,-9.383,-0.873,-3.116,2.8,1.4,0.7
,-9.371,-0.847,-3.168,-9.328,-0.905,-3.101,3.01,1.4,0.63
,-9.409,-0.873,-3.147,-9.344,-0.919,-3.173,2.94,1.33,0.7
,-9.387,-0.871,-3.12,-9.366,-0.895,-3.159,2.66,1.26,0.63
2119.0,-9.354,-0.895,-3.19,-9.387,-0.869,-3.175,2.66,1.54,0.63
,-9.378,-0.885,-3.166,-9.387,-0.814,-3.271,2.59,1.75,0.84
,-9.363,-0.895,-3.144,-9.349,-0.799,-3.34,2.24,1.82,0.84
,-9.387,-0.842,-3.211,-9.296,-0.859,-3.264,2.17,1.61,0.7
2195.0,-9.349,-0.847,-3.285,-9.411,-0.9,-3.159,2.66,1.4,0.7
,-9.337,-0.873,-3.269,-9.368,-0.916,-3.156,3.01,1.47,0.7
,-9.325,-0.859,-3.238,-9.354,-0.921,-3.144,3.08,1.33,0.7
,-9.38,-0.9,-3.168,-9.409,-0.866,-3.18,2.94,1.19,0.77
2271.0,-9.38,-0.833,-3.156,-9.328,-0.826,-3.137,2.73,1.47,0.77
,-9.265,-0.897,-3.137,-9.38,-0.871,-3.197,2.31,1.54,0.84
,-9.328,-0.921,-3.139,-9.361,-0.895,-3.185,2.31,1.61,0.7
,-9.371,-0.852,-3.173,-9.347,-0.833,-3.204,2.66,1.75,0.84
2347.0,-9.313,-0.895,-3.221,-9.306,-0.902,-3.242,2.17,1.89,0.77
,-9.349,-0.866,-3.281,-9.337,-0.84,-3.245,2.38,1.89,0.7
,-9.349,-0.852,-3.252,-9.404,-0.838,-3.24,2.31,1.82,0.63
,-9.289,-0.878,-3.281,-9.308,-0.878,-3.187,2.24,1.82,0.7
2423.0,-9.375,-0.9,-3.171,-9.323,-0.866,-3.29,2.38,1.75,0.84
,-9.351,-0.871,-3.221,-9.296,-0.845,-3.262,2.31,1.68,0.84
,-9.356,-0.912,-3.211,-9.332,-0.888,-3.238,2.24,1.61,0.84
,-9.387,-0.878,-3.242,-9.378,-0.854,-3.168,2.45,1.61,0.7
2498.0,-9.356,-0.838,-3.254,-9.375,-0.871,-3.214,2.59,1.47,0.91
,-9.368,-0.847,-3.245,-9.354,-0.835,-3.161,2.38,1.26,0.91
,-9.33,-0.938,-3.216,-9.335,-0.826,-3.183,2.38,1.47,0.98
,-9.349,-0.924,-3.209,-9.316,-0.907,-3.247,2.8,1.68,1.05
2574.0,-9.325,-0.921,-3.221,-9.349,-0.833,-3.168,2.24,1.19,0.91
,-9.337,-0.893,-3.245,-9.354,-0.854,-3.159,2.52,1.19,1.05
,-9.383,-0.933,-3.218,-9.373,-0.826,-3.183,2.59,1.19,0.98
,-9.347,-0.861,-3.18,-9.368,-0.859,-3.166,2.8,1.26,0.91
2650.0,-9.34,-0.907,-3.161,-9.349,-0.838,-3.226,2.59,1.26,0.98
,-9.342,-0.897,-3.257,-9.385,-0.838,-3.238,3.08,1.33,1.12
,-9.284,-0.794,-3.25,-9.34,-0.833,-3.206,3.29,1.33,1.12
,-9.337,-0.845,-3.195,-9.375,-0.857,-3.214,3.08,1.4,1.05
2726.0,-9.308,-0.864,-3.183,-9.32,-0.861,-3.195,2.66,1.05,0.84
,-9.344,-0.794,-3.204,-9.38,-0.907,-3.214,2.73,1.19,0.84
,-9.354,-0.811,-3.25,-9.344,-0.897,-3.185,2.38,1.12,0.7
,-9.375,-0.859,-3.214,-9.325,-0.861,-3.197,2.1,1.12,0.63
2801.0,-9.387,-0.854,-3.128,-9.359,-0.888,-3.168,2.66,1.47,0.91
,-9.351,-0.828,-3.099,-9.363,-0.849,-3.101,2.45,1.54,0.84
,-9.34,-0.847,-3.166,-9.349,-0.835,-3.178,2.17,1.47,0.7
,-9.328,-0.909,-3.183,-9.371,-0.864,-3.125,2.24,1.54,0.7
2877.0,-9.363,-0.852,-3.13,-9.301,-0.845,-3.242,1.96,1.89,0.63
,-9.378,-0.871,-3.238,-9.323,-0.914,-3.228,2.03,1.89,0.63
,-9.344,-0.838,-3.264,-9.335,-0.866,-3.228,1.96,1.68,0.49
,-9.351,-0.852,-3.252,-9.337,-0.871,-3.18,1.96,1.89,0.63
2952.0,-9.368,-0.883,-3.218,-9.311,-0.835,-3.247,2.45,1.82,0.63
,-9.311,-0.833,-3.235,-9.294,-0.842,-3.132,2.31,1.54,0.42
,-9.349,-0.852,-3.228,-9.351,-0.873,-3.154,1.89,1.54,0.42
,-9.316,-0.878,-3.252,-9.337,-0.869,-3.116,1.89,1.61,0.35
3028.0,-9.402,-0.866,-3.092,-9.296,-0.897,-3.295,1.61,1.68,0.42
,-9.375,-0.835,-3.206,-9.313,-0.881,-3.259,1.75,1.89,0.56
,-9.378,-0.914,-3.218,-9.363,-0.852,-3.309,1.82,1.75,0.56
,-9.301,-0.945,-3.295,-9.368,-0.804,-3.259,2.31,1.75,0.7
3104.0,-9.342,-0.869,-3.223,-9.34,-0.9,-3.278,2.8,1.61,0.91
,-9.325,-0.876,-3.242,-9.313,-0.861,-3.216,2.87,1.61,0.91
,-9.33,-0.859,-3.273,-9.34,-0.823,-3.23,3.15,1.26,0.91
,-9.354,-0.871,-3.247,-9.373,-0.849,-3.137,3.22,1.33,0.77
3180.0,-9.351,-0.847,-3.228,-9.354,-0.806,-3.192,2.66,1.4,0.84
,-9.356,-0.845,-3.202,-9.351,-0.897,-3.24,2.73,1.61,0.98
,-9.306,-0.893,-3.223,-9.356,-0.905,-3.183,2.66,1.4,0.84
,-9.335,-0.89,-3.266,-9.335,-0.869,-3.166,3.08,1.4,0.84
3255.0,-9.356,-0.871,-3.173,-9.282,-0.852,-3.247,2.8,1.61,0.84
,-9.359,-0.866,-3.094,-9.337,-0.871,-3.278,2.59,1.54,0.84
,-9.371,-0.905,-3.166,-9.337,-0.866,-3.257,2.59,1.61,0.63
,-9.373,-0.833,-3.266,-9.33,-0.881,-3.223,2.73,1.75,0.77
3331.0,-9.344,-0.864,-3.183,-9.308,-0.864,-3.293,3.01,1.68,0.77
,-9.359,-0.818,-3.247,-9.296,-0.845,-3.183,2.94,1.61,0.63
,-9.351,-0.833,-3.252,-9.323,-0.89,-3.156,2.52,1.54,0.63
,-9.325,-0.89,-3.259,-9.351,-0.871,-3.137,2.66,1.4,0.63
3407.0,-9.359,-0.802,-3.151,-9.349,-0.871,-3.283,2.59,1.4,0.63
,-9.375,-0.823,-3.23,-9.323,-0.881,-3.293,2.24,1.54,0.49
,-9.34,-0.9,-3.216,-9.342,-0.888,-3.221,2.31,1.54,0.42
,-9.34,-0.876,-3.276,-9.349,-0.842,-3.242,2.45,1.61,0.56
3483.0,-9.347,-0.883,-3.223,-9.368,-0.912,-3.156,2.66,1.47,0.63
,-9.332,-0.873,-3.266,-9.347,-0.854,-3.128,2.73,1.47,0.77
,-9.368,-0.888,-3.262,-9.344,-0.881,-3.147,2.73,1.26,0.7
,-9.337,-0.957,-3.233,-9.407,-0.95,-3.144,2.87,1.33,0.7
3559.0,-9.397,-0.895,-3.149,-9.318,-0.835,-3.329,2.31,1.54,0.7
,-9.356,-0.95,-3.144,-9.301,-0.864,-3.333,2.24,1.68,0.84
,-9.375,-0.888,-3.273,-9.335,-0.797,-3.324,2.31,1.61,0.84
,-9.337,-0.897,-3.305,-9.32,-0.881,-3.173,2.38,1.61,0.7
3634.0,-9.363,-0.885,-3.226,-9.296,-0.897,-3.211,2.73,1.33,0.98
,-9.354,-0.9,-3.161,-9.318,-0.861,-3.18,2.73,1.54,0.98
,-9.407,-0.905,-3.206,-9.361,-0.871,-3.142,2.66,1.33,0.84
,-9.332,-0.921,-3.173,-9.34,-0.897,-3.168,2.66,1.4,0.84
3710.0,-9.402,-0.885,-3.139,-9.325,-0.871,-3.264,1.89,1.54,0.84
,-9.356,-0.883,-3.211,-9.328,-0.876,-3.25,1.96,1.47,0.77
,-9.349,-0.823,-3.247,-9.354,-0.883,-3.266,2.17,1.4,0.7
,-9.325,-0.873,-3.25,-9.387,-0.845,-3.259,2.24,1.47,0.98
3785.0,-9.356,-0.806,-3.331,-9.263,-0.964,-3.187,2.45,1.19,0.7
,-9.323,-0.794,-3.386,-9.33,-0.916,-3.187,2.45,0.98,0.7
,-9.289,-0.89,-3.276,-9.349,-0.739,-3.156,2.45,1.05,0.84
,-9.366,-0.897,-3.525,-9.347,-0.847,-3.029,2.38,0.77,0.56
3861.0,-9.395,-0.912,-3.01,-9.416,-0.859,-3.125,2.87,0.84,0.77
,-9.39,-0.859,-3.058,-9.38,-0.866,-3.094,2.94,1.26,0.77
,-9.32,-0.928,-2.984,-9.368,-0.871,-3.183,2.87,1.26,0.91
,-9.325,-0.893,-3.082,-9.373,-0.845,-3.283,3.08,1.61,0.84
3937.0,-9.349,-0.845,-3.278,-9.359,-0.809,-3.24,2.38,1.96,0.7
,-9.337,-0.864,-3.317,-9.361,-0.869,-3.271,2.45,1.82,0.7
,-9.33,-0.871,-3.309,-9.332,-0.893,-3.233,2.52,1.61,0.7
,-9.335,-0.883,-3.235,-9.337,-0.902,-3.259,2.59,1.68,0.56
4013.0,-9.337,-0.869,-3.252,-9.335,-0.861,-3.101,2.38,1.47,0.56
,-9.361,-0.857,-3.281,-9.392,-0.897,-3.099,2.31,1.19,0.49
,-9.323,-0.869,-3.235,-9.428,-0.857,-3.144,2.17,1.33,0.56
,-9.335,-0.893,-3.147,-9.373,-0.854,-3.175,2.24,1.4,0.63
4088.0,-9.378,-0.861,-3.245,-9.402,-0.849,-3.324,2.31,1.61,0.49
,-9.347,-0.948,-3.218,-9.311,-0.811,-3.312,2.38,1.61,0.56
,-9.289,-0.897,-3.319,-9.351,-0.871,-3.245,2.8,1.68,0.56
,-9.356,-0.9,-3.25,-9.311,-0.912,-3.273,3.43,1.68,0.7
4164.0,-9.349,-0.909,-3.226,-9.371,-0.897,-3.187,3.08,1.12,0.7
,-9.349,-0.928,-3.221,-9.34,-0.895,-3.168,3.08,1.12,0.77
,-9.356,-0.845,-3.192,-9.335,-0.876,-3.178,3.22,0.98,0.77
,-9.332,-0.907,-3.238,-9.344,-0.893,-3.159,3.08,1.05,0.63
4240.0,-9.34,-0.909,-3.101,-9.349,-0.909,-3.259,3.01,1.61,0.84
,-9.39,-0.919,-3.118,-9.316,-0.921,-3.254,3.15,1.54,0.84
,-9.399,-0.852,-3.142,-9.311,-0.802,-3.223,2.87,1.4,0.7
,-9.356,-0.864,-3.168,-9.296,-0.924,-3.238,2.8,1.33,0.56
4316.0,-9.349,-0.878,-3.19,-9.304,-0.907,-3.228,3.01,1.68,0.84
,-9.414,-0.885,-3.151,-9.325,-0.928,-3.319,2.94,1.68,0.84
,-9.373,-0.902,-3.156,-9.299,-0.909,-3.276,2.66,1.68,0.77
,-9.335,-0.933,-3.235,-9.294,-0.876,-3.242,2.59,1.68,0.7
4392.0,-9.299,-0.873,-3.221,-9.39,-0.893,-3.18,2.94,1.47,0.77
,-9.347,-0.857,-3.252,-9.344,-0.873,-3.125,2.73,1.4,0.77
,-9.337,-0.897,-3.139,-9.34,-0.857,-3.12,2.8,1.47,0.77
,-9.342,-0.89,-3.12,-9.375,-0.921,-3.123,3.01,1.47,0.77
4467.0,-9.33,-0.921,-3.128,-9.325,-0.933,-3.29,2.59,1.75,0.98
,-9.375,-0.859,-3.187,-9.342,-0.905,-3.331,2.52,1.75,0.91
,-9.399,-0.881,-3.159,-9.363,-0.878,-3.336,2.45,1.75,0.77
,-9.342,-0.873,-3.245,-9.284,-0.883,-3.319,2.24,1.89,0.84
4543.0,-9.328,-0.905,-3.283,-9.383,-0.89,-3.144,2.73,1.33,0.91
,-9.332,-0.861,-3.24,-9.383,-0.852,-3.218,2.87,1.26,1.05
,-9.335,-0.857,-3.163,-9.328,-0.888,-3.204,2.94,1.26,0.98
,-9.356,-0.878,-3.149,-9.351,-0.921,-3.187,2.8,1.26,0.84
4618.0,-9.366,-0.883,-3.273,-9.332,-0.876,-3.183,2.59,1.33,0.84
,-9.323,-0.852,-3.151,-9.363,-0.869,-3.228,2.66,1.4,0.91
,-9.342,-0.888,-3.144,-9.337,-0.881,-3.307,2.52,1.4,0.91
,-9.356,-0.928,-3.137,-9.289,-0.89,-3.314,2.52,1.54,0.84
4694.0,-9.33,-0.859,-3.264,-9.387,-0.871,-3.163,2.66,1.26,0.91
,-9.311,-0.883,-3.278,-9.301,-0.83,-3.216,2.73,1.19,0.91
,-9.308,-0.893,-3.202,-9.308,-0.902,-3.111,2.66,1.05,0.84
,-9.385,-0.885,-3.195,-9.347,-0.897,-3.144,2.66,1.19,0.84
4770.0,-9.371,-0.895,-3.156,-9.344,-0.864,-3.211,2.66,1.26,0.98
,-9.371,-0.878,-3.185,-9.313,-0.861,-3.192,2.59,1.33,0.91
,-9.354,-0.866,-3.19,-9.363,-0.823,-3.163,2.66,1.26,0.91
,-9.351,-0.9,-3.257,-9.373,-0.89,-3.199,2.52,1.4,0.98
4846.0,-9.296,-0.866,-3.257,-9.316,-0.866,-3.185,2.38,1.4,0.84
,-9.301,-0.859,-3.257,-9.359,-0.854,-3.173,2.38,1.33,0.84
,-9.335,-0.893,-3.278,-9.349,-0.893,-3.123,2.66,1.26,0.84
,-9.318,-0.893,-3.273,-9.356,-0.895,-3.111,2.94,1.19,0.84
4921.0,-9.347,-0.919,-3.082,-9.407,-0.859,-3.168,2.03,1.47,0.7
,-9.351,-0.902,-3.161,-9.325,-0.921,-3.178,2.24,1.61,0.77
,-9.39,-0.897,-3.092,-9.328,-0.919,-3.24,2.38,1.68,0.84
,-9.378,-0.861,-3.12,-9.33,-0.885,-3.273,2.1,1.68,0.77
4997.0,-9.306,-0.859,-3.348,-9.313,-0.885,-3.29,2.45,1.75,0.77
,-9.344,-0.864,-3.336,-9.34,-0.9,-3.285,2.52,1.75,0.77
,-9.275,-0.878,-3.312,-9.289,-0.9,-3.259,2.45,1.54,0.84
,-9.332,-0.852,-3.34,-9.328,-0.912,-3.233,2.45,1.68,0.91
5072.0,-9.328,-0.928,-3.18,-9.378,-0.933,-3.161,2.73,1.26,0.84
,-9.371,-0.876,-3.178,-9.332,-0.912,-3.18,3.01,1.19,0.84
,-9.38,-0.864,-3.178,-9.294,-0.89,-3.161,2.59,1.26,0.84
,-9.335,-0.952,-3.149,-9.313,-0.842,-3.216,2.38,1.26,0.84
5148.0,-9.316,-0.84,-3.223,-9.361,-0.916,-3.192,2.8,1.4,0.91
,-9.366,-0.888,-3.223,-9.308,-0.897,-3.209,2.8,1.4,0.91
,-9.387,-0.878,-3.254,-9.378,-0.873,-3.195,2.8,1.47,0.84
,-9.356,-0.883,-3.24,-9.351,-0.835,-3.211,2.73,1.26,0.84
5224.0,-9.335,-0.878,-3.216,-9.337,-0.878,-3.285,2.24,1.26,0.77
,-9.332,-0.912,-3.151,-9.304,-0.881,-3.211,2.17,1.47,0.91
,-9.351,-0.909,-3.226,-9.316,-0.857,-3.204,2.24,1.54,0.91
,-9.359,-0.905,-3.24,-9.421,-0.852,-3.168,2.45,1.4,0.77
5300.0,-9.395,-0.873,-3.163,-9.335,-0.873,-3.183,2.17,1.47,0.77
,-9.335,-0.962,-3.197,-9.344,-0.833,-3.18,2.24,1.61,0.77
,-9.332,-0.933,-3.19,-9.323,-0.852,-3.206,2.52,1.54,0.84
,-9.361,-0.905,-3.199,-9.325,-0.902,-3.223,2.73,1.47,0.91
5376.0,-9.332,-0.885,-3.309,-9.328,-0.84,-3.228,2.73,1.05,0.84
,-9.318,-0.838,-3.29,-9.32,-0.816,-3.197,2.87,1.05,0.84
,-9.313,-0.849,-3.238,-9.428,-0.859,-3.037,2.73,1.05,0.77
,-9.294,-0.838,-3.271,-9.347,-0.89,-3.113,2.94,1.12,0.91
5451.0,-9.337,-0.883,-3.101,-9.342,-0.902,-3.168,3.01,1.26,0.91
,-9.344,-0.893,-3.07,-9.337,-0.871,-3.128,2.94,1.26,0.98
,-9.383,-0.838,-3.099,-9.344,-0.89,-3.178,2.73,1.26,0.77
,-9.404,-0.914,-3.08,-9.306,-0.931,-3.195,2.45,1.33,0.7
5527.0,-9.328,-0.845,-3.211,-9.359,-0.907,-3.216,2.59,1.68,0.7
,-9.289,-0.835,-3.199,-9.363,-0.928,-3.262,2.52,1.68,0.84
,-9.32,-0.83,-3.204,-9.392,-0.873,-3.221,2.31,1.89,0.84
,-9.39,-0.852,-3.204,-9.359,-0.883,-3.235,2.1,1.75,0.56
5603.0,-9.34,-0.914,-3.23,-9.337,-0.926,-3.242,2.38,1.82,0.77
,-9.371,-0.842,-3.233,-9.301,-0.888,-3.195,2.38,1.68,0.77
,-9.38,-0.854,-3.228,-9.359,-0.861,-3.24,2.31,1.61,0.56
,-9.308,-0.864,-3.206,-9.332,-0.869,-3.262,2.38,1.75,0.7
5679.0,-9.342,-0.888,-3.187,-9.378,-0.866,-3.12,2.73,1.61,0.7
,-9.325,-0.914,-3.199,-9.387,-0.859,-3.175,2.87,1.75,0.84
,-9.335,-0.885,-3.183,-9.337,-0.969,-3.259,2.87,1.82,0.91
,-9.373,-0.885,-3.173,-9.299,-0.905,-3.312,2.66,1.82,0.91
5754.0,-9.277,-0.89,-3.285,-9.325,-0.909,-3.163,2.66,1.54,0.84
,-9.28,-0.871,-3.242,-9.342,-0.902,-3.19,2.87,1.4,0.91
,-9.368,-0.847,-3.216,-9.332,-0.895,-3.218,2.87,1.47,0.84
,-9.418,-0.854,-3.171,-9.33,-0.902,-3.202,2.8,1.54,0.84
5830.0,-9.313,-0.924,-3.175,-9.359,-0.859,-3.206,2.8,1.61,0.91
,-9.349,-0.893,-3.185,-9.304,-0.897,-3.264,2.66,1.68,0.98
,-9.392,-0.849,-3.163,-9.335,-0.952,-3.29,2.52,1.54,0.84
,-9.344,-0.845,-3.173,-9.359,-0.866,-3.326,2.31,1.54,0.7
5905.0,-9.378,-0.842,-3.333,-9.292,-0.888,-3.199,3.01,1.26,0.77
,-9.328,-0.84,-3.278,-9.292,-0.905,-3.163,2.94,1.12,0.77
,-9.342,-0.809,-3.242,-9.328,-0.885,-3.116,3.01,1.12,0.84
,-9.371,-0.866,-3.242,-9.373,-0.907,-3.12,3.01,0.84,0.77
5981.0,-9.366,-0.871,-3.08,-9.373,-0.888,-3.116,3.15,1.33,0.98
,-9.363,-0.905,-3.139,-9.371,-0.866,-3.161,2.73,1.33,0.91
,-9.323,-0.909,-3.106,-9.39,-0.869,-3.144,2.52,1.33,0.91
,-9.351,-0.885,-3.139,-9.378,-0.859,-3.185,2.52,1.61,0.91
6057.0,-9.356,-0.835,-3.223,-9.332,-0.878,-3.25,1.89,1.68,0.7
,-9.304,-0.852,-3.276,-9.397,-0.869,-3.168,1.82,1.89,0.77
,-9.344,-0.857,-3.254,-9.363,-0.866,-3.254,1.89,1.82,0.7
,-9.337,-0.902,-3.252,-9.392,-0.921,-3.264,1.96,1.75,0.63
6133.0,-9.318,-0.905,-3.257,-9.337,-0.842,-3.238,1.68,1.61,0.56
,-9.296,-0.948,-3.278,-9.363,-0.916,-3.233,2.03,1.54,0.7
,-9.33,-0.931,-3.24,-9.325,-0.916,-3.242,2.45,1.54,0.91
,-9.342,-0.859,-3.223,-9.328,-0.924,-3.19,2.8,1.68,0.91
6209.0,-9.33,-0.928,-3.228,-9.337,-0.852,-3.173,2.94,1.4,0.84
,-9.347,-0.895,-3.173,-9.366,-0.885,-3.202,3.01,1.33,0.77
,-9.349,-0.878,-3.163,-9.373,-0.931,-3.24,2.94,1.33,0.84
,-9.409,-0.84,-3.199,-9.34,-0.952,-3.195,2.59,1.26,0.7
6284.0,-9.351,-0.919,-3.144,-9.342,-0.964,-3.216,2.8,1.68,0.98
,-9.356,-0.888,-3.171,-9.304,-1.007,-3.183,2.87,1.68,1.05
,-9.354,-0.847,-3.149,-9.416,-0.928,-3.544,2.59,1.75,1.05
,-9.366,-0.828,-3.197,-9.402,-0.952,-3.125,2.38,1.54,0.91
6360.0,-9.354,-0.9,-2.938,-9.33,-0.763,-3.245,5.39,2.17,1.96
,-9.383,-1.003,-3.041,-9.33,-0.921,-3.305,5.88,2.52,2.03
,-9.342,-0.957,-3.221,-9.347,-0.83,-3.29,7.28,2.45,2.1
,-9.323,-0.79,-3.345,-9.335,-0.696,-3.36,7.91,2.59,2.03
6436.0,-9.332,-0.768,-3.369,-9.328,-0.9,-3.199,1.96,1.61,0.77
,-9.294,-0.797,-3.376,-9.354,-0.902,-3.175,0.84,1.26,0.49
,-9.344,-0.816,-3.35,-9.371,-0.864,-3.144,0.07,1.19,0.42
,-9.344,-0.897,-3.293,-9.368,-0.847,-3.24,-0.14,0.84,0.49
6512.0,-9.328,-0.859,-3.216,-9.38,-0.838,-3.137,-0.28,0.77,0.28
,-9.299,-0.938,-3.281,-9.407,-0.816,-3.108,-0.42,0.77,0.21
,-9.318,-0.943,-3.123,-9.375,-0.847,-3.058,0.0,0.84,0.35
,-9.323,-0.897,-3.257,-9.328,-0.912,-3.077,0.77,0.84,0.49
6587.0,-9.344,-0.938,-3.118,-9.373,-0.823,-3.235,1.89,1.54,0.77
,-9.38,-0.938,-3.132,-9.344,-0.876,-3.276,2.45,1.75,0.77
,-9.359,-0.861,-3.161,-9.33,-0.909,-3.35,2.94,2.03,1.05
,-9.366,-0.84,-3.202,-9.33,-0.842,-3.336,2.8,1.89,1.05
6663.0,-9.335,-0.814,-3.34,-9.332,-0.909,-3.228,2.45,1.4,0.7
,-9.34,-0.771,-3.307,-9.354,-0.873,-3.195,2.45,1.05,0.63
,-9.306,-0.821,-3.242,-9.371,-0.861,-3.211,2.45,1.12,0.63
,-9.385,-0.89,-3.192,-9.347,-0.828,-3.278,2.31,0.98,0.7
6738.0,-9.323,-0.893,-3.144,-9.342,-0.861,-3.235,2.45,1.12,0.63
,-9.323,-0.955,-3.12,-9.311,-0.907,-3.245,2.38,1.19,0.56
,-9.361,-0.914,-3.183,-9.306,-0.905,-3.183,2.52,1.33,0.63
,-9.344,-0.864,-3.183,-9.363,-0.888,-3.214,2.66,1.26,0.63
6814.0,-9.361,-0.893,-3.171,-9.27,-0.943,-3.269,3.08,1.26,0.63
,-9.378,-0.847,-3.209,-9.296,-0.905,-3.197,3.15,1.33,0.7
,-9.373,-0.861,-3.259,-9.363,-0.876,-3.149,2.59,1.19,0.56
,-9.33,-0.881,-3.266,-9.347,-0.859,-3.139,2.31,1.4,0.63
6890.0,-9.39,-0.842,-3.13,-9.28,-0.936,-3.223,2.52,1.4,0.7
,-9.356,-0.95,-3.135,-9.347,-0.883,-3.199,2.17,1.33,0.63
,-9.356,-0.955,-3.192,-9.387,-0.814,-3.262,2.31,1.19,0.7
,-9.316,-0.89,-3.24,-9.373,-0.828,-3.262,2.52,1.33,0.7
6966.0,-9.292,-0.914,-3.178,-9.289,-0.888,-3.25,2.52,1.4,0.77
,-9.371,-0.885,-3.228,-9.344,-0.888,-3.211,2.87,1.33,0.77
,-9.39,-0.876,-3.29,-9.332,-0.876,-3.166,2.87,1.12,0.7
,-9.32,-0.854,-3.293,-9.359,-0.878,-3.094,2.73,1.12,0.77
7042.0,-9.399,-0.89,-3.077,-9.399,-0.895,-3.123,2.52,1.4,0.77
,-9.366,-0.938,-3.132,-9.395,-0.823,-3.163,2.66,1.61,0.84
,-9.371,-0.919,-3.094,-9.363,-0.849,-3.18,2.73,1.68,0.98
,-9.383,-0.916,-3.151,-9.311,-0.893,-3.226,2.94,1.68,1.12
7117.0,-9.32,-0.924,-3.24,-9.337,-0.838,-3.245,2.03,1.75,0.77
,-9.344,-0.893,-3.266,-9.337,-0.888,-3.242,2.45,1.68,0.77
,-9.311,-0.828,-3.283,-9.351,-0.921,-3.233,2.59,1.61,0.84
,-9.332,-0.849,-3.276,-9.371,-0.909,-3.19,2.59,1.68,0.91
7193.0,-9.347,-0.89,-3.147,-9.373,-0.814,-3.233,2.45,1.47,0.84
,-9.363,-0.907,-3.226,-9.354,-0.849,-3.233,2.45,1.47,0.84
,-9.337,-0.888,-3.199,-9.359,-0.888,-3.18,2.52,1.33,0.91
,-9.34,-0.859,-3.214,-9.354,-0.895,-3.137,2.8,1.4,0.84
7269.0,-9.328,-0.897,-3.132,-9.366,-0.845,-3.235,3.08,1.47,0.84
,-9.387,-0.9,-3.132,-9.335,-0.878,-3.273,3.22,1.47,0.91
,-9.392,-0.859,-3.168,-9.282,-0.885,-3.285,3.15,1.68,0.91
,-9.375,-0.881,-3.221,-9.289,-0.852,-3.247,2.94,1.61,0.91
7345.0,-9.33,-0.905,-3.238,-9.387,-0.888,-3.209,2.66,1.47,0.77
,-9.356,-0.854,-3.166,-9.311,-0.907,-3.171,2.66,1.4,0.7
,-9.38,-0.871,-3.171,-9.356,-0.902,-3.247,2.52,1.19,0.7
,-9.416,-0.873,-3.156,-9.371,-0.902,-3.235,2.52,1.26,0.7
7420.0,-9.301,-0.878,-3.216,-9.38,-0.893,-3.23,3.01,1.54,0.77
,-9.383,-0.878,-3.216,-9.34,-0.89,-3.238,3.08,1.4,0.77
,-9.335,-0.897,-3.166,-9.325,-0.931,-3.245,3.01,1.19,0.7
,-9.363,-0.869,-3.24,-9.335,-0.897,-3.192,2.8,1.26,0.7
7496.0,-9.335,-0.902,-3.221,-9.342,-0.914,-3.276,3.08,1.54,0.77
,-9.361,-0.869,-3.183,-9.33,-0.924,-3.218,3.15,1.4,0.7
,-9.368,-0.847,-3.18,-9.33,-0.928,-3.214,2.8,1.47,0.7
,-9.385,-0.845,-3.226,-9.361,-0.912,-3.166,2.66,1.47,0.77
7571.0,-9.404,-0.885,-3.104,-9.363,-0.902,-3.113,2.87,1.4,0.77
,-9.383,-0.914,-3.041,-9.325,-0.909,-3.192,2.8,1.4,0.84
,-9.409,-0.895,-3.094,-9.325,-0.912,-3.25,2.87,1.75,0.91
,-9.418,-0.905,-3.108,-9.342,-0.864,-3.252,2.73,1.75,0.84
7647.0,-9.344,-0.854,-3.25,-9.335,-0.873,-3.156,2.31,1.75,0.7
,-9.311,-0.914,-3.211,-9.385,-0.871,-3.202,2.24,1.75,0.77
,-9.361,-0.861,-3.211,-9.356,-0.89,-3.214,2.45,1.68,0.84
,-9.349,-0.878,-3.195,-9.335,-1.0,-3.19,2.24,1.68,0.91
7723.0,-9.363,-0.885,-3.252,-9.308,-0.924,-3.278,2.52,1.68,0.7
,-9.347,-0.849,-3.264,-9.299,-0.852,-3.228,2.73,1.47,0.7
,-9.328,-0.881,-3.24,-9.359,-0.945,-3.175,2.52,1.4,0.77
,-9.378,-0.919,-3.24,-9.332,-0.869,-3.216,2.52,1.47,0.77
7799.0,-9.363,-0.897,-3.173,-9.38,-0.909,-3.233,3.43,1.33,0.77
,-9.351,-0.919,-3.195,-9.359,-0.878,-3.259,3.15,1.4,0.77
,-9.356,-0.943,-3.168,-9.371,-0.871,-3.218,3.43,1.54,0.77
,-9.354,-0.878,-3.178,-9.361,-0.871,-3.197,3.43,1.47,0.84
7874.0,-9.366,-0.873,-3.151,-9.397,-0.849,-3.185,2.73,1.33,0.7
,-9.335,-0.847,-3.128,-9.328,-0.928,-3.199,2.45,1.26,0.56
,-9.308,-0.905,-3.084,-9.27,-0.945,-3.18,2.1,1.54,0.56
,-9.39,-0.907,-3.159,-9.351,-0.864,-3.216,2.17,1.61,0.63
7950.0,-9.328,-0.852,-3.218,-9.371,-0.931,-3.168,2.87,1.89,0.77
,-9.325,-0.893,-3.223,-9.318,-0.969,-3.192,2.59,1.75,0.56
,-9.33,-0.928,-3.211,-9.342,-0.928,-3.214,2.31,1.75,0.56
,-9.359,-0.895,-3.233,-9.306,-0.895,-3.264,2.59,1.68,0.63
8026.0,-9.342,-0.854,-3.266,-9.306,-0.881,-3.226,3.08,1.61,0.7
,-9.328,-0.962,-3.218,-9.296,-0.905,-3.242,2.73,1.54,0.63
,-9.359,-0.905,-3.195,-9.361,-0.897,-3.209,3.01,1.54,0.63
,-9.335,-0.859,-3.24,-9.351,-0.905,-3.151,3.36,1.54,0.7
8102.0,-9.387,-0.921,-3.144,-9.387,-0.847,-3.226,3.5,1.68,0.84
,-9.414,-0.955,-3.072,-9.308,-0.902,-3.233,3.43,1.75,0.84
,-9.354,-0.914,-3.104,-9.284,-0.921,-3.314,3.29,1.75,0.84
,-9.378,-0.852,-3.139,-9.397,-0.835,-3.324,2.94,1.82,0.7
8178.0,-9.316,-0.84,-3.238,-9.301,-0.943,-3.235,2.73,1.68,0.63
,-9.373,-0.849,-3.195,-9.33,-0.969,-3.238,2.52,1.61,0.63
,-9.409,-0.878,-3.259,-9.28,-0.919,-3.223,2.38,1.54,0.49
,-9.359,-0.881,-3.247,-9.313,-0.919,-3.233,2.24,1.47,0.49
8253.0,-9.33,-0.873,-3.209,-9.318,-0.931,-3.211,2.66,1.75,0.7
,-9.368,-0.902,-3.154,-9.304,-0.921,-3.238,2.66,1.68,0.7
,-9.409,-0.9,-3.199,-9.34,-0.945,-3.199,2.66,1.61,0.7
,-9.368,-0.893,-3.192,-9.361,-0.938,-3.228,2.73,1.47,0.56
8329.0,-9.337,-0.981,-3.199,-9.335,-0.885,-3.293,2.73,1.82,0.77
,-9.332,-0.895,-3.195,-9.318,-0.926,-3.295,2.66,1.61,0.77
,-9.351,-0.881,-3.247,-9.371,-0.893,-3.309,2.52,1.68,0.91
,-9.385,-0.9,-3.309,-9.294,-0.885,-3.245,2.24,1.61,0.84
8404.0,-9.313,-0.94,-3.147,-9.359,-0.905,-3.159,2.8,1.33,0.91
,-9.32,-0.876,-3.154,-9.395,-0.948,-3.159,2.73,1.4,0.98
,-9.356,-0.928,-3.135,-9.32,-0.943,-3.199,2.8,1.47,0.91
,-9.39,-0.907,-3.128,-9.28,-0.916,-3.223,2.59,1.47,0.84
8480.0,-9.347,-0.897,-3.25,-9.395,-0.945,-3.254,2.8,1.61,0.84
,-9.351,-0.857,-3.226,-9.351,-0.902,-3.211,2.59,1.47,0.84
,-9.354,-0.888,-3.24,-9.387,-0.902,-3.235,2.24,1.54,0.84
,-9.361,-0.931,-3.259,-9.359,-0.873,-3.235,2.17,1.54,0.84
8556.0,-9.328,-0.885,-3.307,-9.282,-0.84,-3.276,2.31,1.47,0.77
,-9.308,-0.871,-3.29,-9.316,-0.823,-3.252,2.45,1.4,0.77
,-9.323,-0.89,-3.3,-9.328,-0.835,-3.168,2.94,1.26,0.77
,-9.306,-0.849,-3.314,-9.335,-0.919,-3.216,3.15,1.26,0.91
8632.0,-9.328,-0.948,-3.137,-9.421,-0.916,-3.013,2.87,0.98,0.63
,-9.342,-0.96,-3.096,-9.368,-0.914,-3.12,3.15,1.19,0.7
,-9.383,-0.94,-3.072,-9.359,-0.928,-3.159,3.08,1.4,0.7
,-9.38,-0.881,-3.032,-9.361,-0.926,-3.206,2.73,1.61,0.77
8707.0,-9.328,-0.902,-3.273,-9.337,-0.873,-3.276,2.17,1.89,0.77
,-9.301,-0.888,-3.295,-9.378,-0.916,-3.266,2.45,1.82,0.77
,-9.27,-0.89,-3.34,-9.366,-0.928,-3.206,2.38,1.75,0.7
,-9.328,-0.895,-3.29,-9.409,-0.897,-3.204,2.45,1.54,0.63
8783.0,-9.301,-0.912,-3.202,-9.39,-0.955,-3.161,2.45,1.4,0.77
,-9.337,-0.948,-3.214,-9.366,-0.967,-3.178,2.31,1.4,0.77
,-9.311,-0.924,-3.221,-9.351,-0.938,-3.228,2.38,1.61,0.77
,-9.349,-0.967,-3.199,-9.368,-0.907,-3.247,2.31,1.61,0.77
8859.0,-9.356,-0.809,-3.247,-9.294,-0.926,-3.221,2.52,1.68,0.91
,-9.332,-0.888,-3.297,-9.342,-0.914,-3.216,2.31,1.54,0.77
,-9.361,-0.912,-3.259,-9.34,-0.888,-3.197,2.45,1.33,0.7
,-9.378,-0.871,-3.297,-9.335,-0.902,-3.19,2.73,1.33,0.77
8935.0,-9.361,-0.94,-3.204,-9.332,-0.919,-3.202,2.52,1.4,0.91
,-9.347,-0.931,-3.211,-9.332,-0.907,-3.187,2.45,1.33,0.84
,-9.33,-0.914,-3.211,-9.354,-0.861,-3.142,2.31,1.26,0.77
,-9.368,-0.907,-3.206,-9.366,-0.895,-3.144,2.31,1.33,0.77
9011.0,-9.366,-0.909,-3.171,-9.359,-0.928,-3.178,2.52,1.75,0.84
,-9.371,-0.938,-3.209,-9.414,-0.888,-3.218,2.45,1.82,0.84
,-9.311,-0.952,-3.195,-9.289,-0.871,-3.254,2.45,1.82,0.84
,-9.323,-0.979,-3.139,-9.34,-0.881,-3.25,2.52,1.82,0.91
9086.0,-9.351,-0.902,-3.307,-9.351,-0.861,-3.367,2.17,1.68,0.77
,-9.27,-0.909,-3.307,-9.332,-0.871,-3.3,2.17,1.54,0.84
,-9.313,-0.893,-3.333,-9.28,-0.938,-3.281,2.31,1.33,0.77
,-9.363,-0.895,-3.343,-9.342,-0.854,-3.3,2.52,1.33,0.84
9162.0,-9.359,-0.919,-3.269,-9.347,-0.883,-3.137,3.01,1.05,0.84
,-9.328,-0.902,-3.276,-9.328,-0.888,-3.106,3.08,1.05,0.77
,-9.289,-0.94,-3.178,-9.351,-0.96,-3.12,3.15,1.05,0.84
,-9.359,-0.912,-3.151,-9.34,-0.926,-3.144,3.57,0.98,0.84
9237.0,-9.387,-0.943,-3.139,-9.366,-0.928,-3.166,3.01,1.54,0.77
,-9.342,-0.936,-3.185,-9.373,-0.96,-3.259,2.94,1.61,0.77
,-9.328,-0.835,-3.197,-9.337,-0.95,-3.276,2.87,1.82,0.77
,-9.373,-0.854,-3.233,-9.335,-0.888,-3.307,2.38,1.68,0.56
9313.0,-9.311,-0.873,-3.257,-9.342,-0.988,-3.19,2.87,1.4,0.7
,-9.28,-0.94,-3.264,-9.354,-0.876,-3.187,2.73,1.4,0.63
,-9.33,-0.948,-3.252,-9.354,-0.89,-3.252,2.87,1.26,0.7
,-9.311,-0.926,-3.226,-9.356,-0.919,-3.259,3.01,1.47,0.7
9389.0,-9.318,-0.955,-3.211,-9.335,-0.866,-3.235,2.52,1.61,0.63
,-9.328,-0.988,-3.24,-9.347,-0.871,-3.271,2.94,1.68,0.84
,-9.356,-0.938,-3.266,-9.38,-0.931,-3.214,3.29,1.4,0.84
,-9.308,-0.828,-3.247,-9.356,-0.948,-3.192,3.15,1.19,0.77
9465.0,-9.337,-0.962,-3.175,-9.349,-0.94,-3.195,2.66,1.12,0.56
,-9.325,-0.914,-3.202,-9.378,-0.952,-3.187,2.59,0.98,0.56
,-9.347,-0.888,-3.156,-9.323,-0.9,-3.204,2.52,1.26,0.7
,-9.316,-0.976,-3.183,-9.347,-0.938,-3.202,2.38,1.33,0.7
9540.0,-9.337,-0.936,-3.269,-9.354,-0.924,-3.242,2.31,1.68,0.84
,-9.325,-0.955,-3.283,-9.28,-0.919,-3.204,2.52,1.82,0.91
,-9.337,-0.9,-3.321,-9.328,-0.967,-3.161,2.73,1.61,0.98
,-9.356,-0.897,-3.326,-9.332,-0.933,-3.204,2.66,1.54,0.91
9616.0,-9.387,-0.924,-3.163,-9.418,-0.883,-3.317,2.24,1.61,0.91
,-9.371,-0.962,-3.135,-9.292,-0.847,-3.312,2.03,1.54,0.98
,-9.363,-1.007,-3.13,-9.328,-0.952,-3.309,2.17,1.75,1.05
,-9.385,-0.986,-3.211,-9.325,-0.912,-3.381,2.52,1.82,1.05
9692.0,-9.316,-0.864,-3.386,-9.316,-0.878,-3.202,2.66,1.33,0.84
,-9.289,-0.852,-3.317,-9.347,-0.957,-3.147,2.73,1.33,0.84
,-9.27,-0.849,-3.312,-9.368,-0.914,-3.18,2.94,1.26,0.91
,-9.32,-0.854,-3.293,-9.359,-0.9,-3.12,3.01,1.19,0.91
9768.0,-9.34,-0.902,-3.123,-9.395,-0.945,-3.123,2.38,1.4,0.84
,-9.351,-0.998,-3.139,-9.363,-0.881,-3.206,2.38,1.54,0.7
,-9.38,-0.926,-3.185,-9.38,-0.823,-3.278,2.52,1.54,0.91
,-9.347,-0.9,-3.13,-9.316,-0.881,-3.278,2.31,1.54,0.77
