Timestamp,AccX,AccY,AccZ,GyroX,GyroY,GyroZ,MagnX,MagnY,MagnZ
0.0,-9.342,-0.041,-3.345,-9.335,-0.053,-3.451,1.96,1.82,0.84
,-9.344,-0.045,-3.372,-9.344,-0.007,-3.417,2.1,1.89,0.91
,-9.296,-0.048,-3.369,-9.304,-0.012,-3.443,2.24,1.68,0.77
,-9.332,-0.019,-3.388,-9.311,-0.024,-3.412,2.45,1.75,0.77
75.0,-9.289,-0.026,-3.403,-9.351,-0.067,-3.376,2.38,1.54,0.77
,-9.308,-0.038,-3.427,-9.316,-0.065,-3.314,2.45,1.4,0.7
,-9.316,-0.072,-3.429,-9.378,-0.069,-3.321,2.52,1.19,0.63
,-9.335,-0.084,-3.393,-9.332,-0.041,-3.278,2.59,1.33,0.91
150.0,-9.34,-0.053,-3.333,-9.294,-0.034,-3.367,2.31,1.54,0.84
,-9.349,-0.06,-3.331,-9.304,-0.055,-3.415,2.17,1.54,0.84
,-9.337,-0.072,-3.345,-9.323,-0.036,-3.357,2.17,1.33,0.84
,-9.306,-0.031,-3.367,-9.335,-0.036,-3.362,2.38,1.47,0.91
226.0,-9.32,-0.043,-3.348,-9.328,-0.067,-3.386,2.31,1.4,0.77
,-9.344,-0.019,-3.388,-9.306,-0.055,-3.379,2.45,1.54,0.84
,-9.328,-0.026,-3.357,-9.308,-0.067,-3.412,2.38,1.4,0.91
,-9.361,-0.024,-3.41,-9.301,-0.036,-3.412,2.45,1.33,0.91
302.0,-9.33,-0.026,-3.4,-9.383,-0.005,-3.386,2.8,1.12,0.77
,-9.373,-0.014,-3.391,-9.328,-0.022,-3.314,2.8,1.26,0.77
,-9.328,-0.055,-3.338,-9.313,-0.031,-3.319,2.87,1.19,0.77
,-9.33,-0.067,-3.348,-9.347,-0.05,-3.34,2.8,1.12,0.77
378.0,-9.33,-0.074,-3.338,-9.33,-0.043,-3.367,3.01,1.47,0.91
,-9.304,0.0,-3.333,-9.344,-0.002,-3.345,2.94,1.47,0.91
,-9.375,-0.06,-3.317,-9.349,0.0,-3.36,2.59,1.33,0.77
,-9.316,-0.045,-3.324,-9.34,-0.005,-3.379,2.59,1.26,0.77
453.0,-9.282,-0.029,-3.398,-9.351,-0.017,-3.364,2.38,1.47,0.77
,-9.325,-0.055,-3.4,-9.308,-0.017,-3.4,2.52,1.68,0.77
,-9.351,-0.048,-3.403,-9.356,-0.05,-3.321,2.59,1.4,0.7
,-9.356,-0.012,-3.386,-9.359,-0.036,-3.317,2.73,1.33,0.84
529.0,-9.378,-0.041,-3.314,-9.356,-0.01,-3.374,3.01,1.26,0.63
,-9.328,-0.062,-3.343,-9.351,-0.06,-3.369,2.87,1.33,0.63
,-9.311,-0.096,-3.29,-9.316,-0.05,-3.305,2.87,1.47,0.56
,-9.316,-0.053,-3.36,-9.366,-0.002,-3.4,2.94,1.54,0.63
604.0,-9.313,-0.043,-3.355,-9.318,-0.014,-3.372,2.59,1.61,0.7
,-9.325,-0.014,-3.345,-9.325,-0.05,-3.362,2.66,1.54,0.7
,-9.335,-0.048,-3.391,-9.361,-0.017,-3.367,2.8,1.54,0.7
,-9.342,0.007,-3.379,-9.316,-0.062,-3.396,2.87,1.47,0.63
680.0,-9.311,-0.045,-3.405,-9.342,-0.057,-3.424,2.52,1.4,0.56
,-9.313,-0.024,-3.388,-9.349,-0.014,-3.396,2.59,1.33,0.49
,-9.368,-0.065,-3.381,-9.344,-0.029,-3.374,2.66,1.26,0.56
,-9.368,-0.045,-3.393,-9.337,-0.045,-3.321,2.73,1.26,0.7
756.0,-9.316,-0.06,-3.295,-9.342,-0.079,-3.376,2.73,1.33,0.7
,-9.349,-0.029,-3.333,-9.325,-0.014,-3.34,2.87,1.47,0.77
,-9.337,-0.038,-3.324,-9.325,-0.041,-3.35,2.73,1.4,0.7
,-9.351,-0.014,-3.345,-9.308,-0.036,-3.355,2.66,1.47,0.7
832.0,-9.337,-0.026,-3.384,-9.296,-0.103,-3.417,2.52,1.54,0.63
,-9.32,-0.065,-3.405,-9.347,-0.091,-3.422,2.38,1.4,0.63
,-9.349,-0.043,-3.374,-9.296,-0.022,-3.429,2.24,1.33,0.63
,-9.306,-0.045,-3.429,-9.349,-0.019,-3.417,2.24,1.26,0.63
908.0,-9.32,-0.05,-3.396,-9.375,-0.074,-3.288,2.52,1.05,0.63
,-9.299,-0.029,-3.386,-9.363,-0.062,-3.317,2.59,0.91,0.7
,-9.306,-0.079,-3.372,-9.361,-0.093,-3.214,2.66,0.77,0.77
,-9.328,-0.081,-3.352,-9.332,-0.041,-3.293,2.73,0.84,0.84
983.0,-9.354,-0.055,-3.343,-9.332,0.01,-3.403,2.73,1.19,0.91
,-9.306,-0.086,-3.319,-9.28,-0.014,-3.372,2.66,1.19,0.91
,-9.366,-0.079,-3.35,-9.335,-0.007,-3.388,2.94,1.4,0.98
,-9.347,-0.031,-3.348,-9.313,-0.084,-3.326,3.15,1.33,0.98
1059.0,-9.351,-0.065,-3.338,-9.361,-0.065,-3.338,2.66,1.19,0.91
,-9.316,-0.065,-3.319,-9.354,-0.05,-3.355,2.66,1.19,1.05
,-9.328,-0.034,-3.297,-9.356,-0.029,-3.379,2.52,1.26,0.91
,-9.335,-0.06,-3.34,-9.301,-0.014,-3.388,2.52,1.33,0.91
1135.0,-9.289,-0.038,-3.415,-9.38,-0.029,-3.326,2.59,1.26,0.91
,-9.28,-0.012,-3.417,-9.332,-0.017,-3.317,2.52,1.12,0.91
,-9.296,-0.038,-3.379,-9.373,-0.081,-3.34,2.59,1.26,0.84
,-9.342,-0.034,-3.364,-9.323,-0.129,-3.331,2.87,1.12,0.84
1211.0,-9.363,-0.045,-3.384,-9.354,-0.029,-3.305,2.8,1.12,0.84
,-9.347,0.0,-3.336,-9.373,-0.05,-3.338,2.94,1.05,0.84
,-9.301,-0.048,-3.35,-9.304,-0.069,-3.352,2.73,1.12,0.84
,-9.342,0.0,-3.319,-9.33,-0.031,-3.374,2.59,1.33,0.84
1286.0,-9.284,-0.038,-3.329,-9.378,-0.024,-3.348,2.66,1.12,0.91
,-9.313,-0.041,-3.34,-9.354,-0.043,-3.319,2.59,1.33,0.98
,-9.301,-0.048,-3.362,-9.33,-0.031,-3.345,2.52,1.47,0.98
,-9.354,-0.012,-3.317,-9.344,-0.031,-3.376,2.59,1.54,1.05
1362.0,-9.332,-0.053,-3.403,-9.368,-0.062,-3.343,2.59,1.47,0.91
,-9.347,-0.01,-3.422,-9.361,-0.034,-3.352,2.52,1.33,0.77
,-9.356,-0.017,-3.417,-9.294,-0.057,-3.345,2.45,1.12,0.77
,-9.318,0.01,-3.364,-9.328,0.007,-3.333,2.38,1.05,0.77
1437.0,-9.313,-0.043,-3.36,-9.27,-0.007,-3.362,2.73,1.05,0.63
,-9.354,-0.043,-3.372,-9.318,-0.022,-3.331,2.8,0.98,0.56
,-9.351,-0.057,-3.345,-9.318,-0.036,-3.319,2.59,0.91,0.63
,-9.304,-0.055,-3.475,-9.28,-0.007,-3.278,2.8,0.98,0.42
1513.0,-9.344,-0.048,-3.288,-9.371,-0.11,-3.297,2.73,1.12,0.56
,-9.361,-0.077,-3.276,-9.335,-0.096,-3.257,2.8,1.05,0.56
,-9.363,-0.089,-3.23,-9.387,-0.045,-3.29,2.73,0.98,0.63
,-9.371,-0.055,-3.29,-9.385,-0.062,-3.336,2.87,1.19,0.7
1589.0,-9.344,-0.014,-3.309,-9.306,-0.041,-3.372,2.24,1.47,0.91
,-9.325,-0.024,-3.355,-9.299,-0.029,-3.422,2.45,1.47,0.84
,-9.287,-0.012,-3.396,-9.313,-0.034,-3.357,2.59,1.33,0.77
,-9.332,0.007,-3.374,-9.354,-0.005,-3.381,2.59,1.47,0.77
1665.0,-9.325,-0.057,-3.381,-9.366,-0.062,-3.245,2.87,1.19,0.77
,-9.349,-0.036,-3.324,-9.392,-0.038,-3.252,2.94,1.05,0.7
,-9.366,-0.089,-3.326,-9.395,-0.081,-3.223,2.94,0.98,0.77
,-9.328,-0.081,-3.259,-9.299,-0.062,-3.259,3.15,1.12,0.7
1741.0,-9.38,-0.024,-3.281,-9.349,-0.007,-3.338,2.8,1.4,0.63
,-9.32,-0.045,-3.269,-9.351,-0.031,-3.331,2.8,1.4,0.63
,-9.383,-0.034,-3.257,-9.306,-0.038,-3.374,2.52,1.33,0.7
,-9.344,-0.069,-3.317,-9.354,-0.081,-3.379,2.45,1.54,0.63
1816.0,-9.323,-0.031,-3.379,-9.347,-0.053,-3.331,2.8,1.4,0.56
,-9.318,-0.022,-3.386,-9.349,-0.024,-3.314,2.94,1.4,0.63
,-9.332,-0.038,-3.36,-9.354,-0.024,-3.3,2.87,1.4,0.63
,-9.378,-0.043,-3.336,-9.368,-0.053,-3.293,2.8,1.4,0.63
1892.0,-9.392,-0.091,-3.355,-9.347,0.019,-3.285,2.66,1.47,0.7
,-9.378,-0.081,-3.355,-9.294,-0.029,-3.333,3.01,1.54,0.77
,-9.368,-0.034,-3.345,-9.316,-0.062,-3.345,2.87,1.54,0.77
,-9.347,-0.072,-3.379,-9.323,-0.055,-3.295,2.8,1.4,0.7
1968.0,-9.351,-0.067,-3.293,-9.361,-0.026,-3.329,3.08,1.61,0.91
,-9.306,-0.034,-3.343,-9.351,-0.065,-3.381,2.94,1.61,0.91
,-9.316,-0.029,-3.319,-9.335,-0.041,-3.302,2.87,1.47,0.91
,-9.378,-0.081,-3.331,-9.354,-0.081,-3.326,2.87,1.47,0.77
2044.0,-9.375,-0.06,-3.3,-9.363,-0.041,-3.343,2.87,1.54,0.84
,-9.342,-0.072,-3.288,-9.332,-0.086,-3.297,3.01,1.54,0.98
,-9.351,-0.038,-3.317,-9.316,-0.053,-3.345,3.01,1.47,0.98
,-9.363,-0.057,-3.271,-9.347,-0.026,-3.367,2.87,1.68,0.98
2119.0,-9.323,-0.072,-3.348,-9.316,-0.038,-3.326,2.59,1.33,0.84
,-9.323,-0.034,-3.367,-9.342,-0.031,-3.305,2.59,1.4,0.84
,-9.335,-0.045,-3.35,-9.356,-0.014,-3.305,2.59,1.33,0.77
,-9.363,-0.05,-3.374,-9.34,-0.055,-3.295,2.59,1.26,0.77
2195.0,-9.356,-0.081,-3.273,-9.371,-0.026,-3.381,2.59,1.05,0.63
,-9.354,-0.036,-3.314,-9.306,-0.007,-3.408,2.59,1.33,0.63
,-9.354,-0.069,-3.35,-9.332,-0.062,-3.35,2.38,1.33,0.63
,-9.347,-0.024,-3.36,-9.313,-0.026,-3.357,2.45,1.26,0.49
2270.0,-9.318,-0.05,-3.369,-9.351,-0.086,-3.314,2.66,0.84,0.49
,-9.34,-0.026,-3.293,-9.38,-0.057,-3.278,2.66,1.05,0.56
,-9.361,-0.031,-3.305,-9.356,-0.067,-3.283,2.59,1.12,0.56
,-9.306,-0.055,-3.283,-9.378,-0.115,-3.269,2.59,1.05,0.49
2346.0,-9.361,-0.086,-3.259,-9.318,-0.101,-3.293,2.94,1.54,0.91
,-9.361,-0.089,-3.24,-9.356,-0.005,-3.278,2.94,1.54,0.84
,-9.395,-0.081,-3.264,-9.349,0.002,-3.343,2.73,1.61,0.91
,-9.366,-0.101,-3.288,-9.32,-0.065,-3.321,2.59,1.68,0.91
2422.0,-9.318,-0.06,-3.364,-9.313,-0.038,-3.348,2.31,1.47,0.77
,-9.335,-0.055,-3.34,-9.344,-0.055,-3.369,2.66,1.54,0.91
,-9.34,-0.017,-3.348,-9.33,-0.067,-3.393,2.8,1.47,0.91
,-9.296,-0.038,-3.357,-9.344,-0.072,-3.386,2.94,1.4,0.84
2498.0,-9.347,-0.01,-3.381,-9.349,-0.017,-3.3,2.73,1.12,0.7
,-9.301,-0.057,-3.376,-9.337,-0.084,-3.302,2.59,1.05,0.56
,-9.366,-0.067,-3.29,-9.32,-0.12,-3.283,2.66,1.26,0.63
,-9.344,-0.079,-3.3,-9.356,-0.081,-3.324,2.8,1.12,0.77
2573.0,-9.368,-0.074,-3.3,-9.323,-0.086,-3.319,2.59,1.4,0.84
,-9.34,-0.043,-3.245,-9.313,-0.057,-3.309,2.59,1.61,0.91
,-9.344,-0.057,-3.271,-9.361,-0.041,-3.324,2.52,1.54,0.91
,-9.34,-0.081,-3.309,-9.325,-0.036,-3.276,2.66,1.54,0.84
2649.0,-9.287,-0.038,-3.307,-9.344,-0.117,-3.278,2.8,1.47,0.84
,-9.361,-0.048,-3.34,-9.344,-0.093,-3.281,2.87,1.61,0.91
,-9.342,-0.012,-3.364,-9.289,-0.079,-3.314,2.8,1.33,0.84
,-9.34,-0.019,-3.19,-9.344,-0.038,-3.293,2.73,1.19,0.84
2725.0,-9.354,-0.043,-3.305,-9.34,-0.05,-3.317,3.01,1.54,0.91
,-9.337,-0.019,-3.293,-9.335,0.014,-3.331,2.94,1.47,0.91
,-9.361,-0.074,-3.321,-9.335,0.017,-3.288,2.73,1.33,0.84
,-9.28,-0.091,-3.293,-9.354,-0.036,-3.324,2.73,1.33,0.84
2801.0,-9.366,-0.014,-3.314,-9.34,0.0,-3.355,2.38,1.4,0.63
,-9.354,-0.06,-3.324,-9.337,-0.022,-3.336,2.45,1.33,0.63
,-9.375,-0.11,-3.329,-9.356,-0.048,-3.283,2.52,1.26,0.77
,-9.347,-0.081,-3.367,-9.332,-0.05,-3.343,2.87,1.4,0.77
2877.0,-9.342,-0.048,-3.295,-9.335,-0.057,-3.319,2.73,1.19,0.7
,-9.423,-0.055,-3.285,-9.359,-0.057,-3.305,2.87,1.26,0.77
,-9.34,-0.024,-3.266,-9.356,-0.036,-3.288,2.87,1.33,0.91
,-9.323,-0.065,-3.295,-9.318,-0.05,-3.297,3.01,1.19,0.7
2952.0,-9.316,-0.05,-3.283,-9.373,-0.074,-3.338,2.45,1.12,0.56
,-9.354,-0.096,-3.331,-9.347,-0.029,-3.331,2.66,1.19,0.63
,-9.337,-0.101,-3.329,-9.299,-0.062,-3.338,2.8,1.33,0.63
,-9.359,-0.038,-3.352,-9.342,-0.017,-3.317,3.01,1.19,0.63
3028.0,-9.342,-0.057,-3.317,-9.347,-0.069,-3.321,2.94,1.12,0.7
,-9.337,-0.053,-3.29,-9.342,-0.069,-3.357,2.94,0.98,0.77
,-9.383,-0.041,-3.343,-9.289,-0.079,-3.333,2.73,1.05,0.7
,-9.325,-0.072,-3.305,-9.313,-0.045,-3.3,2.87,1.05,0.63
3103.0,-9.378,-0.043,-3.262,-9.371,-0.055,-3.278,2.73,1.05,0.49
,-9.363,-0.062,-3.259,-9.361,-0.168,-3.281,2.66,1.12,0.63
,-9.395,-0.065,-3.264,-9.38,-0.093,-3.278,2.66,1.05,0.49
,-9.368,-0.05,-3.269,-9.368,-0.072,-3.283,2.45,1.12,0.49
3179.0,-9.366,-0.041,-3.283,-9.337,-0.017,-3.343,2.24,1.47,0.77
,-9.371,-0.077,-3.264,-9.359,-0.065,-3.393,2.24,1.54,0.63
,-9.361,-0.072,-3.278,-9.32,-0.055,-3.384,2.31,1.4,0.56
,-9.363,-0.034,-3.329,-9.311,-0.093,-3.381,2.45,1.33,0.7
3255.0,-9.356,-0.048,-3.355,-9.349,-0.101,-3.309,2.87,1.19,0.7
,-9.342,-0.048,-3.302,-9.383,-0.086,-3.319,2.87,1.12,0.63
,-9.347,-0.069,-3.319,-9.363,-0.031,-3.307,2.8,1.19,0.7
,-9.349,-0.081,-3.285,-9.337,-0.081,-3.293,2.73,1.19,0.7
3331.0,-9.366,-0.026,-3.281,-9.361,-0.055,-3.264,2.66,1.05,0.77
,-9.349,-0.041,-3.235,-9.349,-0.11,-3.257,2.59,0.98,0.7
,-9.366,-0.053,-3.216,-9.344,-0.096,-3.309,2.66,1.19,0.84
,-9.359,-0.036,-3.23,-9.34,-0.112,-3.3,2.59,1.19,0.91
3406.0,-9.323,-0.065,-3.338,-9.32,-0.014,-3.317,2.73,1.47,0.91
,-9.34,-0.048,-3.393,-9.375,-0.05,-3.297,2.73,1.33,0.91
,-9.284,-0.029,-3.355,-9.368,-0.041,-3.262,2.59,1.33,0.91
,-9.332,-0.017,-3.345,-9.373,-0.074,-3.262,2.73,1.33,0.84
3482.0,-9.375,-0.112,-3.278,-9.354,-0.05,-3.314,2.73,1.47,1.05
,-9.335,-0.06,-3.319,-9.38,-0.05,-3.302,2.94,1.54,0.98
,-9.337,-0.12,-3.35,-9.361,-0.065,-3.319,2.87,1.4,0.91
,-9.337,-0.091,-3.3,-9.354,-0.091,-3.276,3.08,1.47,0.91
3558.0,-9.354,-0.041,-3.245,-9.402,0.002,-3.415,3.29,1.26,0.91
,-9.533,-0.184,-3.53,-9.351,-0.031,-3.326,3.01,1.54,0.98
,-9.361,-0.038,-3.333,-9.378,-0.079,-3.302,3.78,1.47,0.84
,-9.368,-0.065,-3.388,-9.344,-0.093,-3.25,3.92,1.4,0.7
3634.0,-9.371,-0.045,-3.331,-9.347,-0.05,-3.352,2.73,1.26,0.7
,-9.385,-0.086,-3.331,-9.311,-0.062,-3.293,2.66,1.4,0.84
,-9.363,-0.091,-3.331,-9.404,-0.041,-3.288,2.73,1.19,0.7
,-9.318,-0.007,-3.302,-9.378,-0.069,-3.257,2.87,1.26,0.7
3710.0,-9.363,-0.074,-3.283,-9.284,-0.117,-3.293,2.45,0.98,0.56
,-9.316,-0.089,-3.262,-9.318,-0.069,-3.271,2.59,1.19,0.7
,-9.371,-0.101,-3.288,-9.349,-0.089,-3.312,2.59,1.12,0.63
,-9.387,-0.101,-3.295,-9.368,-0.084,-3.269,2.8,1.19,0.7
3785.0,-9.361,-0.06,-3.257,-9.323,-0.089,-3.391,2.52,1.19,0.77
,-9.34,-0.065,-3.295,-9.344,-0.043,-3.405,2.52,1.26,0.77
,-9.337,-0.098,-3.307,-9.304,-0.022,-3.324,2.45,1.4,0.77
,-9.311,-0.096,-3.36,-9.342,-0.05,-3.302,2.66,1.33,0.7
3861.0,-9.351,-0.069,-3.293,-9.332,-0.055,-3.233,2.59,1.12,0.7
,-9.385,-0.093,-3.295,-9.34,-0.091,-3.252,2.73,1.26,0.7
,-9.347,-0.048,-3.285,-9.375,-0.115,-3.257,2.87,0.98,0.63
,-9.351,-0.043,-3.302,-9.397,-0.156,-3.216,2.94,0.98,0.63
3936.0,-9.366,-0.108,-3.233,-9.342,-0.089,-3.276,2.87,1.61,0.98
,-9.375,-0.053,-3.166,-9.351,-0.062,-3.333,2.73,1.54,0.98
,-9.387,-0.065,-3.259,-9.34,-0.026,-3.312,2.45,1.68,0.91
,-9.375,-0.079,-3.281,-9.34,-0.043,-3.355,2.17,1.61,0.84
4012.0,-9.332,-0.012,-3.336,-9.366,-0.029,-3.333,2.24,1.54,0.91
,-9.33,-0.041,-3.343,-9.325,-0.069,-3.36,2.24,1.47,0.84
,-9.342,-0.115,-3.305,-9.328,-0.026,-3.326,2.45,1.47,0.91
,-9.347,-0.053,-3.345,-9.335,-0.06,-3.34,2.66,1.61,1.12
4088.0,-9.301,-0.045,-3.329,-9.368,-0.034,-3.257,2.73,1.4,1.05
,-9.33,-0.026,-3.324,-9.371,-0.06,-3.24,2.8,1.19,0.91
,-9.349,-0.055,-3.29,-9.387,-0.041,-3.214,2.73,1.26,0.91
,-9.318,-0.053,-3.295,-9.375,-0.072,-3.242,2.66,1.33,0.98
4164.0,-9.442,-0.074,-3.266,-9.366,-0.041,-3.305,2.24,1.33,0.84
,-9.347,-0.062,-3.271,-9.342,-0.067,-3.333,2.24,1.47,0.84
,-9.349,-0.069,-3.211,-9.34,-0.026,-3.355,2.24,1.68,0.84
,-9.373,-0.036,-3.295,-9.342,-0.055,-3.364,2.17,1.54,0.77
4239.0,-9.342,-0.002,-3.374,-9.359,0.017,-3.417,2.45,1.33,0.84
,-9.359,0.029,-3.391,-9.363,-0.022,-3.364,2.52,1.26,0.77
,-9.34,-0.007,-3.362,-9.311,-0.077,-3.3,2.24,1.26,0.77
,-9.332,0.002,-3.312,-9.359,-0.067,-3.35,2.45,1.33,0.7
4315.0,-9.392,-0.081,-3.278,-9.383,-0.105,-3.209,3.15,1.12,0.7
,-9.39,-0.069,-3.228,-9.356,-0.077,-3.226,3.22,1.12,0.77
,-9.351,-0.074,-3.245,-9.387,-0.055,-3.25,3.08,1.05,0.77
,-9.337,-0.096,-3.23,-9.359,-0.065,-3.245,3.08,1.05,0.77
4391.0,-9.366,-0.034,-3.266,-9.332,-0.067,-3.319,2.52,1.47,0.77
,-9.404,-0.06,-3.23,-9.363,-0.05,-3.329,2.31,1.54,0.77
,-9.32,-0.081,-3.197,-9.32,-0.017,-3.34,2.24,1.61,0.77
,-9.38,-0.045,-3.3,-9.375,-0.05,-3.324,2.17,1.75,0.77
4467.0,-9.361,-0.038,-3.333,-9.368,-0.022,-3.345,2.03,1.68,0.7
,-9.342,-0.036,-3.345,-9.344,0.0,-3.333,1.96,1.54,0.7
,-9.337,-0.024,-3.348,-9.368,-0.096,-3.293,2.03,1.47,0.63
,-9.349,-0.062,-3.321,-9.287,0.002,-3.314,2.24,1.26,0.7
4543.0,-9.349,-0.05,-3.295,-9.39,-0.022,-3.388,2.73,1.4,0.7
,-9.328,-0.06,-3.326,-9.349,-0.079,-3.297,2.73,1.47,0.77
,-9.407,-0.084,-3.348,-9.296,-0.093,-3.309,2.66,1.4,0.77
,-9.373,-0.12,-3.319,-9.308,-0.053,-3.259,2.73,1.4,0.7
4618.0,-9.318,-0.127,-3.276,-9.32,-0.034,-3.352,2.73,1.61,0.91
,-9.356,-0.029,-3.314,-9.308,-0.077,-3.372,3.22,1.47,0.84
,-9.387,-0.007,-3.312,-9.337,-0.031,-3.331,3.01,1.33,0.84
,-9.344,-0.034,-3.333,-9.33,-0.019,-3.309,2.87,1.26,0.77
4694.0,-9.33,-0.024,-3.278,-9.414,-0.077,-3.242,2.73,1.33,0.84
,-9.347,-0.05,-3.25,-9.399,-0.089,-3.238,2.73,1.26,0.91
,-9.428,-0.069,-3.276,-9.39,-0.112,-3.25,2.66,1.19,0.84
,-9.397,-0.134,-3.226,-9.375,-0.11,-3.305,2.66,1.33,0.84
4769.0,-9.342,-0.048,-3.271,-9.354,-0.036,-3.367,2.38,1.68,1.05
,-9.323,0.0,-3.3,-9.311,-0.034,-3.369,2.38,1.61,0.91
,-9.342,0.005,-3.326,-9.318,-0.053,-3.372,2.38,1.54,0.91
,-9.361,-0.034,-3.293,-9.304,-0.086,-3.384,2.24,1.47,0.84
4845.0,-9.318,-0.048,-3.352,-9.359,-0.115,-3.269,2.52,1.26,0.84
,-9.387,-0.036,-3.36,-9.373,-0.069,-3.338,2.59,1.33,0.91
,-9.392,-0.079,-3.319,-9.356,-0.077,-3.266,2.59,1.05,0.84
,-9.34,-0.053,-3.333,-9.32,-0.036,-3.338,2.66,1.33,0.91
4921.0,-9.366,-0.072,-3.293,-9.385,-0.062,-3.254,2.73,1.4,0.98
,-9.351,-0.022,-3.259,-9.418,-0.11,-3.252,2.59,1.47,0.91
,-9.351,-0.034,-3.252,-9.385,-0.048,-3.276,2.45,1.26,0.84
,-9.397,-0.01,-3.264,-9.356,-0.053,-3.324,2.38,1.26,0.84
4997.0,-9.337,-0.038,-3.352,-9.349,-0.031,-3.317,2.45,1.33,0.91
,-9.282,-0.081,-3.348,-9.337,-0.012,-3.364,2.52,1.4,0.84
,-9.349,-0.045,-3.331,-9.344,0.007,-3.319,2.45,1.4,0.77
,-9.323,0.019,-3.35,-9.316,-0.067,-3.331,2.38,1.54,0.84
5072.0,-9.363,-0.034,-3.333,-9.359,-0.098,-3.247,2.52,1.19,0.77
,-9.351,-0.024,-3.283,-9.342,-0.11,-3.23,2.52,1.12,0.7
,-9.328,-0.01,-3.264,-9.371,-0.065,-3.293,2.66,1.12,0.77
,-9.356,-0.043,-3.273,-9.359,-0.108,-3.242,2.73,1.12,0.77
5148.0,-9.378,-0.034,-3.242,-9.368,-0.065,-3.285,3.01,1.54,0.91
,-9.361,-0.048,-3.247,-9.344,-0.074,-3.35,3.01,1.54,1.05
,-9.351,-0.043,-3.242,-9.342,-0.081,-3.338,2.66,1.4,0.98
,-9.375,-0.024,-3.242,-9.354,-0.038,-3.345,2.52,1.54,0.84
5224.0,-9.34,-0.038,-3.273,-9.363,-0.045,-3.271,2.38,1.54,0.7
,-9.351,-0.062,-3.247,-9.351,-0.05,-3.278,2.31,1.4,0.7
,-9.311,-0.002,-3.264,-9.375,-0.034,-3.314,2.45,1.54,0.7
,-9.344,-0.062,-3.285,-9.337,-0.101,-3.273,2.52,1.61,0.7
5300.0,-9.306,-0.074,-3.29,-9.368,-0.041,-3.333,2.24,1.68,0.77
,-9.368,-0.022,-3.343,-9.363,-0.062,-3.295,2.17,1.75,0.77
,-9.337,-0.024,-3.302,-9.304,-0.055,-3.285,2.1,1.82,0.7
,-9.33,-0.029,-3.283,-9.347,-0.026,-3.293,2.17,1.89,0.77
5375.0,-9.289,-0.089,-3.173,-9.351,-0.031,-3.314,1.19,1.96,0.7
,-9.402,-0.074,-3.254,-9.371,-0.038,-3.369,1.05,1.75,0.56
,-9.359,-0.057,-3.312,-9.33,-0.017,-3.367,1.26,1.89,0.49
,-9.39,-0.019,-3.285,-9.284,-0.007,-3.403,1.4,1.82,0.49
5451.0,-9.325,0.0,-3.384,-9.385,-0.024,-3.295,2.8,1.54,0.63
,-9.301,0.0,-3.343,-9.373,-0.136,-3.247,2.8,1.4,0.63
,-9.323,0.002,-3.305,-9.39,-0.112,-3.293,2.73,1.4,0.56
,-9.356,-0.034,-3.257,-9.39,-0.117,-3.29,2.87,1.47,0.63
5527.0,-9.363,-0.117,-3.264,-9.33,-0.045,-3.264,2.52,1.89,0.7
,-9.363,-0.06,-3.228,-9.313,-0.026,-3.321,2.52,2.03,0.77
,-9.361,-0.057,-3.269,-9.301,0.01,-3.307,2.38,1.89,0.77
,-9.349,-0.034,-3.283,-9.335,-0.029,-3.374,2.24,1.68,0.63
5602.0,-9.33,-0.031,-3.348,-9.332,-0.041,-3.357,2.73,1.68,0.77
,-9.337,-0.045,-3.384,-9.32,-0.005,-3.374,2.87,1.47,0.7
,-9.308,-0.029,-3.405,-9.354,-0.091,-3.355,2.87,1.4,0.7
,-9.301,-0.053,-3.374,-9.351,-0.072,-3.355,2.8,1.4,0.56
5678.0,-9.32,-0.067,-3.367,-9.356,-0.069,-3.266,2.94,1.12,0.56
,-9.349,-0.065,-3.281,-9.383,-0.055,-3.305,2.87,1.19,0.63
,-9.356,0.007,-3.34,-9.328,-0.057,-3.283,2.66,1.12,0.56
,-9.359,-0.074,-3.307,-9.361,-0.101,-3.34,2.59,1.05,0.63
5754.0,-9.361,-0.067,-3.262,-9.368,-0.05,-3.326,2.8,1.19,0.7
,-9.356,-0.096,-3.295,-9.351,-0.096,-3.285,2.73,1.4,0.7
,-9.325,-0.062,-3.25,-9.296,-0.101,-3.333,2.73,1.54,0.84
,-9.328,-0.031,-3.276,-9.32,-0.101,-3.355,2.94,1.4,0.84
5830.0,-9.332,-0.014,-3.324,-9.368,-0.067,-3.293,3.29,1.61,0.98
,-9.342,-0.062,-3.326,-9.373,-0.041,-3.297,3.08,1.47,0.84
,-9.32,-0.031,-3.3,-9.344,-0.055,-3.343,3.08,1.47,0.98
,-9.316,-0.043,-3.305,-9.363,-0.081,-3.35,3.15,1.4,0.98
5905.0,-9.325,-0.103,-3.309,-9.368,-0.038,-3.319,2.94,1.26,0.91
,-9.344,-0.069,-3.297,-9.354,-0.065,-3.305,3.01,1.33,0.84
,-9.354,-0.012,-3.305,-9.359,-0.077,-3.348,3.01,1.54,0.98
,-9.344,-0.026,-3.266,-9.299,-0.081,-3.372,2.94,1.47,0.84
5981.0,-9.363,-0.06,-3.355,-9.361,-0.084,-3.345,2.8,1.4,0.77
,-9.316,-0.053,-3.326,-9.33,-0.069,-3.333,2.66,1.54,0.91
,-9.347,-0.086,-3.357,-9.335,-0.05,-3.317,2.59,1.47,0.98
,-9.28,-0.055,-3.36,-9.354,-0.062,-3.281,2.59,1.54,0.91
6057.0,-9.363,-0.081,-3.266,-9.366,-0.089,-3.324,2.94,1.4,0.91
,-9.363,-0.067,-3.242,-9.378,-0.077,-3.333,2.8,1.4,0.77
,-9.325,-0.06,-3.285,-9.349,-0.041,-3.36,2.66,1.47,0.84
,-9.313,-0.048,-3.278,-9.375,-0.036,-3.352,2.66,1.47,0.84
6133.0,-9.351,-0.029,-3.317,-9.332,-0.01,-3.4,2.73,1.47,0.77
,-9.304,-0.002,-3.384,-9.361,0.0,-3.367,2.59,1.33,0.7
,-9.294,-0.053,-3.403,-9.349,-0.031,-3.307,2.59,1.54,0.84
,-9.368,-0.038,-3.422,-9.375,-0.06,-3.302,2.73,1.19,0.77
6208.0,-9.323,-0.067,-3.288,-9.399,-0.089,-3.295,2.31,0.98,0.49
,-9.342,-0.086,-3.273,-9.414,-0.057,-3.288,2.38,1.12,0.56
,-9.328,-0.048,-3.29,-9.375,-0.036,-3.269,2.52,1.33,0.63
,-9.363,-0.057,-3.283,-9.323,-0.077,-3.278,2.45,1.33,0.7
6284.0,-9.351,-0.084,-3.297,-9.349,0.029,-3.345,2.38,1.54,0.77
,-9.378,-0.062,-3.295,-9.349,-0.026,-3.295,2.31,1.47,0.84
,-9.342,-0.053,-3.307,-9.351,-0.096,-3.355,2.31,1.54,0.84
,-9.332,-0.041,-3.329,-9.351,-0.065,-3.314,2.45,1.54,0.84
6359.0,-9.33,-0.05,-3.321,-9.347,-0.043,-3.321,2.38,1.61,0.84
,-9.349,-0.069,-3.367,-9.39,-0.048,-3.348,2.38,1.61,0.84
,-9.306,-0.05,-3.374,-9.347,-0.036,-3.295,2.38,1.33,0.84
,-9.33,-0.034,-3.314,-9.342,-0.031,-3.257,2.59,1.26,0.91
6435.0,-9.318,-0.06,-3.324,-9.32,-0.115,-3.314,2.59,1.12,0.63
,-9.395,-0.069,-3.324,-9.349,-0.153,-3.329,2.45,1.05,0.7
,-9.359,-0.048,-3.297,-9.354,-0.091,-3.329,2.31,0.98,0.63
,-9.363,-0.055,-3.326,-9.328,-0.081,-3.269,2.31,1.19,0.7
6511.0,-9.34,-0.096,-3.283,-9.311,-0.048,-3.29,2.38,1.19,0.84
,-9.349,-0.053,-3.29,-9.368,-0.012,-3.324,2.59,1.33,0.84
,-9.363,-0.069,-3.302,-9.325,-0.017,-3.331,2.52,1.4,0.91
,-9.356,-0.05,-3.302,-9.349,-0.079,-3.348,2.52,1.26,0.91
6587.0,-9.361,-0.048,-3.372,-9.328,-0.007,-3.307,2.87,1.19,0.84
,-9.311,-0.072,-3.388,-9.308,-0.024,-3.302,3.01,1.26,0.98
,-9.316,-0.041,-3.35,-9.349,-0.091,-3.293,3.22,1.33,0.91
,-9.361,-0.026,-3.326,-9.354,-0.077,-3.262,3.22,1.12,0.91
6663.0,-9.318,-0.101,-3.233,-9.447,-0.06,-3.3,2.94,1.33,1.05
,-9.325,-0.144,-3.305,-9.344,-0.053,-3.321,3.01,1.61,1.05
,-9.407,-0.069,-3.209,-9.344,0.005,-3.343,2.94,1.61,0.98
,-9.383,-0.098,-3.247,-9.301,0.017,-3.386,2.73,1.68,0.91
6738.0,-9.318,-0.036,-3.362,-9.354,-0.022,-3.297,2.45,1.4,0.77
,-9.33,-0.086,-3.369,-9.368,-0.034,-3.312,2.73,1.54,0.98
,-9.296,-0.057,-3.36,-9.316,-0.098,-3.329,2.8,1.33,0.84
,-9.316,-0.017,-3.29,-9.34,-0.105,-3.376,2.8,1.4,0.98
6814.0,-9.344,-0.065,-3.357,-9.299,-0.034,-3.245,2.73,1.26,0.77
,-9.337,-0.069,-3.412,-9.318,-0.026,-3.305,2.87,1.12,0.77
,-9.318,-0.036,-3.345,-9.399,-0.034,-3.266,2.94,1.05,0.77
,-9.33,-0.007,-3.319,-9.335,-0.062,-3.29,2.87,1.05,0.84
6890.0,-9.378,-0.043,-3.295,-9.34,-0.098,-3.355,3.08,1.12,0.7
,-9.354,-0.041,-3.3,-9.332,-0.031,-3.324,2.87,1.05,0.63
,-9.342,-0.136,-3.34,-9.356,-0.029,-3.343,2.59,1.19,0.7
,-9.304,-0.129,-3.352,-9.399,0.022,-3.278,2.73,1.12,0.7
6966.0,-9.397,-0.01,-3.266,-9.306,-0.05,-3.317,2.59,0.98,0.49
,-9.318,-0.012,-3.297,-9.363,-0.048,-3.297,2.59,1.26,0.56
,-9.337,-0.06,-3.252,-9.328,0.01,-3.305,2.59,1.26,0.63
,-9.332,-0.043,-3.293,-9.356,-0.074,-3.281,2.8,1.12,0.63
7041.0,-9.356,-0.098,-3.271,-9.39,-0.091,-3.276,2.52,1.19,0.63
,-9.354,-0.069,-3.281,-9.373,-0.079,-3.278,2.52,1.33,0.7
,-9.402,-0.103,-3.264,-9.363,-0.043,-3.273,2.52,1.33,0.77
,-9.361,-0.103,-3.283,-9.325,-0.065,-3.321,2.59,1.4,0.84
7117.0,-9.342,-0.079,-3.381,-9.328,-0.034,-3.326,2.59,1.47,0.77
,-9.337,-0.026,-3.381,-9.34,-0.062,-3.34,2.52,1.33,0.7
,-9.296,-0.026,-3.343,-9.311,-0.074,-3.319,2.73,1.33,0.7
,-9.328,-0.034,-3.388,-9.34,-0.074,-3.357,2.87,1.4,0.77
7192.0,-9.359,-0.112,-3.307,-9.38,-0.11,-3.204,2.94,1.12,0.84
,-9.342,-0.096,-3.35,-9.38,-0.086,-3.242,3.08,1.12,0.77
,-9.33,-0.077,-3.297,-9.383,-0.036,-3.185,3.15,1.05,0.77
,-9.323,-0.038,-3.305,-9.366,0.017,-3.259,3.01,0.84,0.63
7268.0,-9.407,-0.038,-3.238,-9.373,-0.014,-3.369,2.59,1.4,0.84
,-9.351,-0.074,-3.3,-9.335,-0.036,-3.348,2.52,1.4,0.84
,-9.347,-0.091,-3.345,-9.351,-0.065,-3.314,2.66,1.4,0.84
,-9.359,-0.014,-3.36,-9.304,-0.062,-3.386,2.8,1.4,0.91
7344.0,-9.368,-0.069,-3.331,-9.366,-0.053,-3.278,2.66,1.05,0.84
,-9.34,-0.06,-3.317,-9.378,-0.089,-3.329,2.94,0.91,0.7
,-9.328,-0.069,-3.319,-9.287,-0.05,-3.266,3.08,1.19,0.84
,-9.363,-0.06,-3.295,-9.378,-0.045,-3.391,2.94,1.05,0.84
7420.0,-9.351,-0.034,-3.305,-9.337,-0.079,-3.204,3.57,1.19,0.77
,-9.323,0.022,-3.314,-9.296,-0.081,-3.259,3.43,1.05,0.77
,-9.356,0.007,-3.317,-9.313,-0.101,-3.247,3.22,1.12,0.77
,-9.399,-0.06,-3.276,-9.344,-0.079,-3.262,2.87,1.12,0.84
7496.0,-9.354,-0.101,-3.254,-9.351,-0.081,-3.235,2.8,1.33,0.77
,-9.366,-0.045,-3.254,-9.385,-0.022,-3.293,2.66,1.33,0.84
,-9.344,-0.062,-3.269,-9.371,-0.069,-3.338,2.45,1.12,0.77
,-9.33,-0.093,-3.295,-9.34,-0.072,-3.355,2.52,1.4,0.77
7571.0,-9.33,-0.11,-3.329,-9.335,-0.069,-3.34,2.24,1.33,0.7
,-9.306,-0.101,-3.295,-9.342,-0.086,-3.266,2.31,1.26,0.77
,-9.332,-0.017,-3.329,-9.351,-0.093,-3.245,2.45,1.12,0.63
,-9.325,-0.017,-3.331,-9.335,-0.079,-3.228,2.38,0.98,0.63
7647.0,-9.337,-0.112,-3.199,-9.383,-0.101,-3.29,2.8,1.19,0.77
,-9.38,-0.084,-3.216,-9.418,-0.074,-3.321,2.66,1.33,0.77
,-9.356,-0.079,-3.223,-9.347,-0.091,-3.309,2.59,1.26,0.84
,-9.411,-0.091,-3.24,-9.308,-0.038,-3.336,2.59,1.54,0.91
7723.0,-9.299,-0.022,-3.345,-9.32,-0.065,-3.321,2.66,1.4,0.77
,-9.316,-0.019,-3.408,-9.311,-0.045,-3.324,2.52,1.12,0.77
,-9.313,-0.057,-3.391,-9.361,-0.057,-3.271,2.45,1.12,0.7
,-9.361,-0.062,-3.338,-9.383,-0.077,-3.266,2.45,1.05,0.77
7799.0,-9.335,-0.132,-3.278,-9.32,-0.048,-3.276,2.17,1.12,0.63
,-9.385,-0.103,-3.257,-9.383,-0.036,-3.262,2.31,1.26,0.84
,-9.371,-0.062,-3.269,-9.356,-0.057,-3.264,2.66,1.4,0.84
,-9.342,-0.067,-3.235,-9.356,-0.065,-3.259,2.52,1.19,0.77
7874.0,-9.356,-0.045,-3.273,-9.395,-0.019,-3.326,2.52,1.4,0.91
,-9.368,-0.067,-3.293,-9.378,-0.067,-3.352,2.59,1.54,0.84
,-9.325,-0.06,-3.283,-9.385,-0.081,-3.396,2.31,1.4,0.91
,-9.335,-0.057,-3.34,-9.385,-0.053,-3.369,2.24,1.47,0.91
7950.0,-9.344,-0.067,-3.34,-9.34,-0.057,-3.247,2.52,1.26,0.77
,-9.328,-0.067,-3.348,-9.383,-0.06,-3.242,2.8,1.19,0.77
,-9.347,-0.057,-3.34,-9.378,-0.103,-3.23,2.8,1.12,0.84
,-9.304,-0.072,-3.266,-9.397,-0.05,-3.238,2.73,1.12,0.91
8025.0,-9.38,-0.038,-3.254,-9.347,-0.034,-3.269,2.31,1.33,0.77
,-9.344,-0.103,-3.223,-9.33,-0.079,-3.278,2.24,1.47,0.84
,-9.399,-0.077,-3.276,-9.347,-0.036,-3.297,2.24,1.4,0.84
,-9.385,-0.038,-3.293,-9.292,-0.036,-3.293,2.31,1.61,0.91
8101.0,-9.363,-0.014,-3.336,-9.402,-0.036,-3.348,2.52,1.4,0.91
,-9.351,-0.048,-3.285,-9.33,-0.045,-3.331,2.73,1.47,0.84
,-9.378,-0.024,-3.336,-9.328,-0.031,-3.302,2.66,1.54,0.91
,-9.371,-0.053,-3.35,-9.318,-0.084,-3.29,2.52,1.33,0.77
8177.0,-9.33,-0.045,-3.266,-9.347,-0.065,-3.278,2.66,1.12,0.63
,-9.366,-0.031,-3.23,-9.349,-0.067,-3.223,2.73,1.26,0.77
,-9.347,-0.062,-3.216,-9.32,-0.053,-3.273,2.52,0.98,0.7
,-9.361,-0.057,-3.273,-9.363,-0.06,-3.285,2.52,1.33,0.7
8253.0,-9.373,-0.045,-3.266,-9.34,-0.062,-3.326,2.52,1.47,0.77
,-9.354,-0.029,-3.264,-9.351,-0.093,-3.331,2.45,1.4,0.84
,-9.39,-0.057,-3.295,-9.371,-0.06,-3.317,2.24,1.54,0.7
,-9.354,-0.065,-3.319,-9.366,-0.038,-3.333,2.24,1.33,0.77
8328.0,-9.392,-0.06,-3.314,-9.366,-0.093,-3.254,2.24,1.33,0.63
,-9.342,-0.069,-3.297,-9.316,-0.098,-3.24,2.31,1.33,0.77
,-9.361,-0.043,-3.297,-9.337,-0.062,-3.264,2.45,1.26,0.84
,-9.361,-0.072,-3.302,-9.38,-0.007,-3.221,2.73,1.54,0.77
8404.0,-9.342,-0.06,-3.269,-9.325,-0.081,-3.305,2.73,1.61,0.77
,-9.387,-0.014,-3.24,-9.349,-0.01,-3.305,2.66,1.61,0.91
,-9.366,-0.045,-3.25,-9.328,-0.024,-3.343,2.52,1.82,0.84
,-9.347,-0.079,-3.302,-9.347,-0.05,-3.333,2.38,1.82,0.77
8480.0,-9.361,-0.062,-3.381,-9.378,-0.101,-3.262,2.45,1.61,0.84
,-9.395,-0.038,-3.331,-9.351,-0.036,-3.29,2.66,1.4,0.77
,-9.371,0.026,-3.307,-9.392,-0.072,-3.321,2.52,1.4,0.84
,-9.34,-0.045,-3.295,-9.356,-0.055,-3.321,2.38,1.4,0.77
8556.0,-9.363,-0.034,-3.352,-9.328,-0.05,-3.266,2.73,1.4,0.77
,-9.368,-0.045,-3.269,-9.323,-0.067,-3.271,2.59,1.12,0.63
,-9.366,-0.072,-3.262,-9.325,-0.084,-3.276,2.66,1.19,0.49
,-9.335,-0.041,-3.302,-9.399,-0.067,-3.269,2.73,1.33,0.63
8632.0,-9.375,-0.077,-3.276,-9.356,-0.031,-3.266,2.52,1.54,0.77
,-9.33,-0.072,-3.235,-9.411,-0.048,-3.29,2.52,1.61,0.84
,-9.38,-0.124,-3.307,-9.34,-0.012,-3.235,2.59,1.75,0.84
,-9.363,-0.077,-3.293,-9.349,-0.045,-3.297,2.52,1.61,0.91
8707.0,-9.33,-0.06,-3.34,-9.332,-0.05,-3.324,2.52,1.82,0.91
,-9.335,-0.024,-3.34,-9.347,-0.036,-3.326,2.45,1.89,0.91
,-9.349,-0.038,-3.326,-9.337,-0.01,-3.338,2.52,1.82,0.91
,-9.34,-0.053,-3.35,-9.347,-0.086,-3.345,2.52,1.75,0.91
8783.0,-9.34,-0.019,-3.283,-9.313,-0.067,-3.369,2.52,1.47,0.7
,-9.373,-0.026,-3.35,-9.383,-0.022,-3.285,2.66,1.4,0.77
,-9.347,-0.062,-3.352,-9.33,0.002,-3.278,2.45,1.12,0.63
,-9.306,-0.089,-3.348,-9.371,-0.048,-3.273,2.38,1.26,0.63
8858.0,-9.378,-0.072,-3.25,-9.311,-0.091,-3.259,2.59,1.26,0.84
,-9.34,-0.065,-3.24,-9.356,-0.074,-3.245,2.66,1.4,0.77
,-9.342,-0.101,-3.285,-9.332,0.002,-3.281,2.66,1.33,0.7
,-9.359,-0.084,-3.24,-9.34,-0.029,-3.307,2.8,1.47,0.84
8934.0,-9.344,-0.089,-3.321,-9.354,-0.053,-3.362,2.38,1.61,0.77
,-9.299,-0.06,-3.357,-9.356,-0.041,-3.29,2.59,1.61,0.91
,-9.316,-0.057,-3.391,-9.354,-0.024,-3.285,2.73,1.47,0.91
,-9.294,-0.036,-3.379,-9.373,-0.053,-3.252,2.94,1.47,0.91
9010.0,-9.39,-0.022,-3.269,-9.342,-0.06,-3.3,2.8,1.4,0.84
,-9.354,-0.017,-3.326,-9.325,-0.022,-3.259,2.8,1.33,0.77
,-9.349,-0.105,-3.331,-9.34,-0.019,-3.269,2.8,1.4,0.84
,-9.349,-0.077,-3.295,-9.385,-0.019,-3.228,3.01,1.54,0.91
9086.0,-9.316,-0.048,-3.305,-9.335,-0.101,-3.319,2.73,1.61,0.7
,-9.38,-0.029,-3.345,-9.342,-0.038,-3.295,2.73,1.61,0.91
,-9.349,-0.077,-3.35,-9.342,-0.017,-3.329,2.66,1.61,0.91
,-9.325,-0.091,-3.333,-9.337,-0.062,-3.312,2.66,1.47,0.77
9161.0,-9.304,-0.019,-3.269,-9.328,-0.048,-3.266,2.38,1.26,0.7
,-9.34,-0.026,-3.309,-9.318,-0.067,-3.266,2.59,1.26,0.84
,-9.385,-0.098,-3.319,-9.351,-0.093,-3.235,2.59,1.33,0.77
,-9.337,-0.086,-3.288,-9.335,-0.017,-3.273,2.59,1.4,0.77
9237.0,-9.359,-0.031,-3.276,-9.366,-0.074,-3.372,2.8,1.68,0.91
,-9.383,-0.077,-3.276,-9.311,-0.045,-3.36,2.87,1.61,0.84
,-9.349,-0.074,-3.288,-9.392,-0.012,-3.384,3.01,1.54,0.84
,-9.323,-0.069,-3.336,-9.361,-0.031,-3.309,2.8,1.47,0.77
9312.0,-9.359,-0.055,-3.276,-9.363,-0.043,-3.333,2.45,1.47,0.84
,-9.392,-0.041,-3.297,-9.347,-0.05,-3.329,2.59,1.47,0.77
,-9.354,-0.055,-3.326,-9.313,-0.057,-3.345,2.59,1.47,0.77
,-9.308,-0.031,-3.329,-9.311,-0.026,-3.338,2.66,1.47,0.77
9388.0,-9.292,-0.041,-3.333,-9.356,-0.079,-3.283,2.66,1.19,0.56
,-9.356,-0.019,-3.312,-9.344,-0.11,-3.23,2.66,1.26,0.63
,-9.354,-0.043,-3.238,-9.392,-0.112,-3.238,2.66,1.26,0.7
,-9.344,-0.067,-3.259,-9.395,-0.053,-3.288,2.66,1.4,0.7
9464.0,-9.375,-0.101,-3.285,-9.332,-0.012,-3.326,2.31,1.54,0.7
,-9.316,-0.053,-3.278,-9.344,0.0,-3.302,2.45,1.61,0.77
,-9.356,-0.062,-3.319,-9.318,-0.055,-3.307,2.38,1.75,0.84
,-9.337,-0.017,-3.34,-9.311,-0.084,-3.338,2.24,1.61,0.7
9540.0,-9.308,-0.065,-3.362,-9.313,-0.081,-3.331,2.45,1.54,0.84
,-9.328,-0.055,-3.398,-9.366,-0.05,-3.338,2.59,1.61,0.77
,-9.32,-0.096,-3.326,-9.395,-0.091,-3.326,2.73,1.68,0.84
,-9.316,-0.067,-3.3,-9.363,-0.048,-3.331,2.73,1.47,0.84
9616.0,-9.347,-0.045,-3.348,-9.306,-0.041,-3.269,2.73,1.4,0.77
,-9.328,-0.048,-3.34,-9.385,-0.041,-3.309,2.73,1.33,0.77
,-9.375,-0.089,-3.336,-9.349,-0.11,-3.281,2.87,1.4,0.84
,-9.351,-0.002,-3.309,-9.32,-0.065,-3.345,2.8,1.4,0.77
9691.0,-9.32,-0.077,-3.329,-9.33,-0.086,-3.29,2.59,1.26,0.77
,-9.306,-0.024,-3.333,-9.347,-0.098,-3.283,2.59,1.19,0.77
,-9.368,-0.06,-3.307,-9.354,-0.002,-3.288,2.52,1.33,0.98
,-9.344,-0.065,-3.333,-9.371,-0.024,-3.317,2.59,1.33,0.91
9767.0,-9.378,-0.079,-3.34,-9.349,-0.038,-3.336,2.59,1.19,0.77
,-9.316,-0.017,-3.348,-9.371,-0.074,-3.317,2.8,1.33,0.91
,-9.347,-0.043,-3.369,-9.363,-0.069,-3.336,2.8,1.26,0.98
,-9.371,-0.012,-3.343,-9.34,-0.074,-3.309,2.52,1.19,0.77
