Timestamp,AccX,AccY,AccZ,GyroX,GyroY,GyroZ,MagnX,MagnY,MagnZ
0.0,-9.275,-0.361,-3.613,-9.359,-0.361,-3.436,3.08,2.52,0.14
,-9.273,-0.254,-3.649,-9.366,-0.359,-3.369,3.64,2.38,0.0
,-9.342,-0.122,-3.597,-9.399,-0.29,-3.242,3.43,2.03,-0.14
,-9.294,-0.182,-3.563,-9.38,-0.266,-3.254,2.66,1.82,-0.21
75.0,-9.306,-0.354,-3.271,-9.301,-0.488,-3.398,2.73,1.89,-0.14
,-9.289,-0.385,-3.381,-9.316,-0.445,-3.381,2.24,2.03,-0.14
,-9.335,-0.426,-3.364,-9.356,-0.404,-3.408,2.17,1.96,-0.14
,-9.273,-0.481,-3.369,-9.359,-0.294,-3.448,2.38,2.03,0.0
151.0,-9.34,-0.213,-3.573,-9.28,-0.211,-3.486,4.2,1.82,0.35
,-9.325,-0.235,-3.549,-9.268,-0.199,-3.372,3.71,1.75,0.28
,-9.313,-0.304,-3.604,-9.337,-0.246,-3.285,3.64,1.47,0.28
,-9.273,-0.263,-3.503,-9.356,-0.4,-3.238,4.2,0.98,0.21
227.0,-9.373,-0.512,-3.116,-9.301,-0.431,-3.381,1.19,1.19,-0.14
,-9.383,-0.426,-3.247,-9.318,-0.395,-3.424,1.26,1.19,-0.28
,-9.347,-0.419,-3.302,-9.282,-0.352,-3.429,0.77,1.19,-0.35
,-9.299,-0.409,-3.352,-9.323,-0.294,-3.453,0.14,1.33,-0.21
302.0,-9.328,-0.218,-3.482,-9.332,-0.495,-3.319,0.07,0.91,-0.14
,-9.342,-0.278,-3.525,-9.299,-0.481,-3.348,0.0,0.84,-0.14
,-9.342,-0.246,-3.372,-9.349,-0.337,-3.369,-0.07,0.84,-0.21
,-9.392,-0.359,-3.333,-9.318,-0.311,-3.434,-0.49,0.77,-0.14
378.0,-9.332,-0.364,-3.415,-9.316,-0.189,-3.257,0.35,0.91,0.14
,-9.304,-0.419,-3.312,-9.354,-0.122,-3.391,0.42,0.91,0.14
,-9.325,-0.357,-3.408,-9.411,-0.249,-3.4,0.7,0.77,0.0
,-9.356,-0.383,-3.132,-9.351,-0.266,-3.384,1.19,0.84,-0.07
453.0,-9.313,-0.369,-3.47,-9.34,-0.383,-3.352,-1.82,0.77,-0.7
,-9.332,-0.462,-3.51,-9.292,-0.369,-3.226,-1.33,0.7,-0.7
,-9.296,-0.481,-3.522,-9.316,-0.261,-3.329,-0.28,0.7,-0.56
,-9.366,-0.359,-3.568,-9.344,-0.211,-3.269,0.42,0.42,-0.42
529.0,-9.306,-0.187,-3.46,-9.328,-0.251,-3.412,-1.19,-0.56,-0.98
,-9.354,-0.309,-3.417,-9.354,-0.27,-3.443,-1.68,-0.56,-0.98
,-9.273,-0.313,-3.262,-9.265,-0.313,-3.427,-1.75,-0.56,-0.84
,-9.368,-0.395,-3.551,-9.32,-0.371,-3.391,-0.91,-0.63,-0.77
605.0,-9.411,-0.414,-3.271,-9.335,-0.34,-3.283,0.28,-1.19,-1.05
,-9.38,-0.385,-3.297,-9.39,-0.371,-3.307,0.7,-1.05,-1.12
,-9.368,-0.4,-3.262,-9.349,-0.45,-3.34,1.47,-1.12,-1.05
,-9.39,-0.325,-3.283,-9.337,-0.433,-3.29,1.89,-1.12,-0.98
681.0,-9.373,-0.414,-3.293,-9.335,-0.45,-2.917,3.71,-0.98,-0.91
,-9.373,-0.397,-3.216,-9.399,-0.438,-3.094,3.92,-0.91,-0.77
,-9.323,-0.409,-3.125,-9.356,-0.45,-3.053,3.78,-0.98,-0.84
,-9.359,-0.345,-3.087,-9.409,-0.529,-2.946,3.29,-0.91,-0.91
757.0,-9.373,-0.543,-2.998,-9.325,-0.371,-3.29,3.5,0.63,-0.35
,-9.416,-0.455,-3.104,-9.301,-0.546,-3.285,4.76,0.91,0.0
,-9.335,-0.316,-3.278,-9.344,-0.457,-3.156,4.2,0.63,-0.14
,-9.34,-0.376,-3.288,-9.378,-0.357,-3.104,3.57,0.91,-0.14
832.0,-9.44,-0.347,-3.257,-9.335,-0.534,-3.195,1.47,1.19,-0.28
,-9.385,-0.392,-3.092,-9.395,-0.507,-3.139,0.14,1.4,-0.28
,-9.366,-0.404,-3.125,-9.368,-0.261,-3.185,-0.07,1.33,-0.21
,-9.344,-0.574,-3.175,-9.354,-0.158,-3.398,-0.28,1.4,-0.07
908.0,-9.253,-0.321,-3.649,-9.416,-0.665,-3.384,-3.71,0.35,-0.91
,-9.253,-0.677,-3.393,-9.397,-0.44,-3.637,-3.5,0.21,-0.56
,-9.289,-0.737,-3.273,-9.411,-0.218,-3.446,-1.4,0.07,-0.35
,-9.383,-0.785,-3.362,-9.342,-0.249,-3.125,1.89,0.07,0.07
984.0,-9.359,-0.421,-2.994,-9.361,-0.663,-2.879,-0.56,-0.35,0.91
,-9.316,-0.476,-3.209,-9.428,-0.615,-2.86,-0.28,-0.28,1.12
,-9.356,-0.708,-3.111,-9.328,-0.526,-2.857,0.7,0.0,1.47
,-9.351,-0.653,-2.994,-9.294,-0.538,-2.812,2.31,0.42,1.96
1060.0,-9.349,-0.577,-2.769,-9.411,-0.424,-2.742,2.94,2.1,3.43
,-9.395,-0.658,-2.618,-9.438,-0.23,-2.826,3.29,3.08,3.92
,-9.399,-0.699,-2.455,-9.414,-0.024,-3.185,4.48,3.99,4.48
,-9.426,-0.512,-2.73,-9.325,-0.115,-3.329,4.9,4.13,4.55
1135.0,-9.287,-0.285,-3.338,-9.232,-0.55,-3.865,-1.68,5.46,3.08
,-9.344,-0.519,-3.333,-9.275,-0.608,-3.776,-3.36,5.74,3.15
,-9.445,-0.548,-3.616,-9.347,-0.692,-3.606,-3.99,5.18,2.94
,-9.399,-0.524,-3.829,-9.418,-0.579,-3.558,-4.97,4.34,2.73
1211.0,-9.395,-0.337,-3.551,-9.39,-0.251,-3.175,3.22,2.52,4.76
,-9.426,-0.208,-3.654,-9.459,-0.292,-3.046,3.36,1.82,4.62
,-9.328,-0.179,-3.551,-9.464,-0.201,-3.037,1.68,1.19,4.2
,-9.318,-0.189,-3.331,-9.457,-0.072,-3.058,1.05,1.26,4.2
1286.0,-9.399,0.01,-3.123,-9.244,-0.529,-3.015,1.05,1.82,3.78
,-9.373,0.17,-3.238,-9.375,-0.617,-3.044,0.49,1.82,3.36
,-9.256,0.038,-3.29,-9.375,-0.462,-3.094,-0.91,1.89,3.01
,-9.189,-0.337,-3.118,-9.435,-0.409,-3.049,-1.33,2.24,3.22
1362.0,-9.349,-0.28,-2.977,-9.263,0.302,-3.558,2.38,3.99,4.27
,-9.359,-0.282,-2.879,-9.189,-0.026,-3.553,2.17,4.62,4.55
,-9.421,-0.029,-2.965,-9.292,-0.424,-3.446,2.66,5.18,4.62
,-9.337,0.285,-3.376,-9.366,-0.534,-3.159,1.26,4.9,4.06
1438.0,-9.507,-0.235,-3.278,-9.347,-0.172,-3.379,8.19,5.18,3.85
,-9.368,0.235,-3.372,-9.359,-0.493,-3.223,7.98,4.76,3.36
,-9.342,0.376,-3.498,-9.368,-0.617,-3.329,3.57,4.2,2.73
,-9.232,0.201,-3.396,-9.229,-0.555,-3.379,-1.33,4.34,2.45
1514.0,-9.227,-0.558,-3.242,-9.148,0.273,-3.443,-1.26,4.9,3.43
,-9.371,-0.66,-3.111,-9.229,0.641,-3.802,0.63,5.53,4.34
,-9.375,-0.66,-3.001,-9.337,0.534,-3.905,3.99,6.02,5.25
,-9.244,-0.278,-3.273,-9.284,0.352,-3.64,6.37,5.25,5.32
1589.0,-9.203,0.268,-3.226,-9.397,-0.268,-3.34,-5.11,2.66,1.96
,-9.344,0.175,-3.003,-9.251,-0.61,-2.965,-5.32,2.73,0.98
,-9.423,0.182,-3.36,-9.282,-0.591,-2.541,-7.07,2.31,0.14
,-9.383,0.089,-3.384,-9.088,-0.038,-3.151,-9.45,2.73,0.28
1665.0,-9.349,0.177,-3.386,-9.294,-0.455,-3.118,-2.59,4.13,1.12
,-9.294,0.273,-3.819,-9.158,-0.053,-3.262,-5.25,3.64,1.54
,-9.323,-0.048,-3.922,-9.256,0.108,-3.132,-6.93,4.55,2.24
,-9.206,-0.546,-3.278,-9.34,-0.005,-3.221,-5.18,6.16,2.59
1741.0,-9.131,-0.268,-3.092,-9.311,0.043,-3.02,-7.49,6.44,3.15
,-9.244,-0.565,-2.867,-9.076,0.268,-3.139,-6.09,8.05,3.71
,-9.361,-0.598,-2.953,-9.072,0.299,-2.907,-2.24,9.17,4.34
,-9.368,-0.359,-2.922,-9.141,0.309,-3.161,1.47,10.08,4.41
1817.0,-9.289,0.414,-3.29,-9.155,-0.28,-3.534,0.56,11.2,4.34
,-9.282,0.354,-3.704,-9.244,-0.129,-3.288,-0.42,11.06,3.85
,-9.105,-0.017,-3.807,-9.184,0.105,-3.522,-1.4,11.76,3.78
,-9.093,-0.213,-3.75,-9.206,0.208,-3.637,-0.28,12.88,3.64
1893.0,-9.225,0.043,-3.81,-9.105,0.438,-4.573,2.94,14.14,4.9
,-9.177,-0.16,-3.281,-9.115,0.024,-4.647,3.92,15.68,5.39
,-9.028,-0.146,-3.501,-9.117,-0.45,-4.326,6.79,15.61,5.6
,-9.014,0.311,-3.999,-9.158,-0.797,-3.879,7.28,14.42,4.9
1968.0,-9.103,-0.651,-4.032,-9.083,-0.45,-3.542,4.06,11.83,7.56
,-9.074,-0.431,-3.975,-8.938,0.017,-3.259,5.46,10.99,8.26
,-9.057,-0.443,-4.168,-9.005,0.857,-3.513,5.04,10.99,9.24
,-9.012,-0.565,-3.963,-9.167,1.563,-4.097,5.6,12.6,10.08
2044.0,-9.091,1.706,-4.374,-8.897,0.72,-4.068,6.58,11.83,8.75
,-8.995,1.347,-4.343,-8.942,0.852,-3.953,0.56,11.76,7.63
,-9.033,0.95,-4.197,-9.057,0.905,-3.778,-1.19,12.6,5.95
,-9.0,0.735,-4.025,-8.94,0.907,-3.613,0.98,13.72,4.55
2119.0,-9.057,0.821,-3.398,-8.804,0.522,-4.8,4.34,18.2,0.28
,-9.088,0.936,-3.79,-8.77,0.108,-4.805,2.66,15.96,0.14
,-8.997,1.046,-4.427,-8.772,-0.182,-4.783,-0.98,13.37,-0.35
,-8.842,0.838,-4.81,-8.808,-0.445,-4.779,-4.27,12.6,-0.63
2195.0,-9.028,-0.452,-4.736,-8.614,-0.29,-4.288,0.49,13.23,-1.4
,-9.007,-0.395,-4.642,-8.799,-0.55,-4.319,2.1,13.37,-0.7
,-8.875,-0.318,-4.393,-8.914,-0.577,-4.511,2.59,13.86,0.0
,-8.677,-0.184,-4.219,-9.028,-0.5,-4.597,3.01,14.63,1.12
2271.0,-9.124,-0.376,-4.623,-8.873,0.347,-4.867,5.25,12.53,6.09
,-8.777,-0.17,-4.788,-9.002,0.476,-4.829,6.3,11.97,6.23
,-8.571,-0.017,-4.759,-8.815,0.507,-4.965,6.72,12.18,6.65
,-8.729,0.089,-4.752,-8.648,0.34,-4.92,6.93,11.83,6.86
2347.0,-8.693,0.22,-5.03,-8.631,0.56,-4.934,0.28,8.47,6.51
,-8.832,0.189,-5.011,-8.804,0.546,-4.834,1.61,8.4,6.3
,-8.935,0.232,-4.922,-8.859,0.598,-4.81,3.22,8.26,6.23
,-8.737,0.524,-4.972,-8.636,0.818,-4.905,4.34,7.7,5.88
2422.0,-8.574,0.857,-4.824,-8.832,0.254,-4.573,0.77,6.93,4.2
,-8.648,0.768,-4.738,-8.626,0.139,-4.623,0.14,6.93,3.64
,-8.765,0.61,-4.673,-8.526,0.043,-4.57,0.28,6.86,3.08
,-8.859,0.486,-4.628,-8.543,0.12,-4.585,0.77,6.72,2.8
2498.0,-8.624,0.321,-4.645,-8.77,0.261,-4.657,3.92,6.16,4.34
,-8.794,0.498,-4.623,-8.849,0.055,-4.609,4.48,6.93,4.06
,-8.825,0.538,-4.592,-8.746,0.005,-4.774,3.5,7.49,3.85
,-8.777,0.414,-4.618,-8.641,-0.029,-4.882,1.82,7.84,3.78
2574.0,-8.708,0.136,-4.683,-8.586,0.56,-4.975,10.29,8.89,3.78
,-8.6,0.407,-4.836,-8.607,0.541,-4.992,11.69,8.4,4.2
,-8.502,0.584,-4.975,-8.533,0.4,-4.872,11.48,8.54,4.69
,-8.509,0.591,-4.932,-8.476,0.275,-4.92,10.71,8.82,4.76
2650.0,-8.653,0.211,-4.96,-8.693,-0.005,-5.063,6.23,9.38,5.32
,-8.691,0.022,-5.147,-8.624,0.067,-5.001,6.3,9.31,5.39
,-8.835,-0.062,-5.092,-8.464,0.144,-5.078,7.21,9.73,5.32
,-8.856,-0.124,-5.023,-8.552,0.419,-5.018,8.82,10.08,5.6
2726.0,-8.607,0.634,-4.86,-8.375,1.211,-5.264,12.88,10.29,7.42
,-8.536,0.878,-4.8,-8.591,1.005,-5.154,10.01,8.4,7.7
,-8.437,1.139,-4.862,-8.528,0.802,-5.059,6.72,6.58,8.05
,-8.39,1.24,-4.975,-8.43,0.751,-5.075,3.08,5.67,7.42
2801.0,-8.457,0.768,-5.097,-8.569,0.361,-5.176,4.69,5.39,2.24
,-8.519,1.058,-5.205,-8.832,0.101,-5.214,6.65,5.04,1.05
,-8.385,1.125,-5.336,-8.801,-0.05,-5.233,6.23,4.97,0.07
,-8.339,0.787,-5.152,-8.658,0.089,-5.178,5.04,5.53,-0.49
2877.0,-8.507,0.409,-5.317,-8.076,0.416,-5.401,8.05,4.97,-1.89
,-8.361,0.735,-5.504,-8.303,0.057,-5.209,8.4,5.25,-2.24
,-8.402,0.912,-5.394,-8.634,-0.067,-4.97,7.63,4.48,-2.03
,-8.294,0.809,-5.559,-8.756,0.129,-5.042,4.97,3.85,-1.26
2952.0,-8.119,0.213,-5.157,-8.591,1.584,-5.303,5.18,2.8,-0.49
,-8.737,0.541,-5.025,-8.581,1.323,-5.449,5.04,2.87,-0.42
,-8.471,0.955,-5.217,-8.457,0.581,-5.269,5.74,2.52,-0.14
,-8.373,1.307,-5.231,-8.375,-0.194,-5.118,5.74,2.94,-1.54
3028.0,-8.461,-0.565,-5.063,-8.509,0.134,-5.205,-0.21,3.85,-3.5
,-8.315,-0.861,-5.071,-8.471,0.567,-5.173,3.08,4.34,-2.94
,-8.507,-0.806,-4.98,-8.459,0.979,-5.229,7.0,4.62,-2.31
,-8.624,-0.273,-5.111,-8.418,1.005,-5.475,10.01,3.43,-1.19
3104.0,-8.447,0.763,-5.456,-8.074,-0.297,-5.142,-1.54,0.42,-0.84
,-8.337,0.658,-5.477,-8.392,-0.179,-5.219,-1.89,-0.07,-1.12
,-8.236,0.445,-5.394,-9.0,-0.349,-4.92,-1.68,-0.14,-1.12
,-8.112,-0.017,-5.305,-8.729,-0.522,-4.925,-1.61,-0.21,-0.56
3180.0,-8.708,-0.452,-4.812,-8.452,0.921,-5.183,3.43,2.17,1.89
,-8.557,-0.297,-4.963,-8.473,1.012,-5.083,3.85,2.31,3.15
,-8.246,0.146,-5.087,-8.48,0.888,-5.092,5.53,2.45,3.78
,-8.323,0.761,-5.394,-8.528,0.476,-5.293,6.58,2.8,3.57
3255.0,-8.512,0.089,-5.291,-8.435,-0.17,-5.288,1.19,1.96,2.52
,-8.464,-0.232,-5.181,-8.284,-0.239,-5.391,3.5,2.45,2.66
,-8.445,-0.297,-5.116,-8.236,0.074,-5.58,5.11,2.8,3.22
,-8.457,-0.127,-5.118,-8.464,0.287,-5.492,5.6,2.52,4.13
3331.0,-8.562,0.227,-5.255,-8.256,0.806,-5.219,4.76,3.43,6.09
,-8.579,0.136,-5.178,-8.588,0.912,-5.133,3.22,3.01,6.37
,-8.476,0.261,-5.099,-8.729,1.034,-4.929,2.24,2.8,7.07
,-8.181,0.507,-5.133,-8.545,1.165,-5.001,2.66,2.59,7.21
3406.0,-8.447,1.139,-4.951,-8.394,0.105,-5.336,3.5,5.18,3.64
,-8.363,0.988,-4.831,-8.579,0.469,-5.365,0.84,5.25,3.22
,-8.189,0.641,-5.03,-8.552,0.936,-5.609,-1.26,5.11,2.45
,-8.167,0.285,-5.269,-8.559,1.187,-5.607,-1.47,5.32,2.17
3482.0,-8.873,1.23,-5.64,-7.827,-0.239,-5.595,3.85,3.57,-2.38
,-9.153,1.0,-5.583,-7.98,-0.349,-5.53,2.8,1.19,-3.22
,-8.638,0.809,-5.743,-8.057,-0.034,-5.65,0.91,-0.91,-2.8
,-8.04,0.333,-5.736,-8.332,0.546,-5.865,-0.77,-1.19,-1.96
3558.0,-8.665,0.62,-5.913,-8.287,0.44,-5.296,-1.82,-2.52,0.56
,-8.672,0.33,-5.767,-8.387,0.761,-5.334,-3.85,-3.43,0.35
,-8.437,-0.024,-5.595,-8.325,0.742,-5.296,-3.64,-3.36,0.49
,-8.184,0.091,-5.602,-8.624,0.835,-5.269,-2.17,-2.87,0.98
3634.0,-8.861,0.943,-5.319,-8.248,0.237,-5.102,-2.8,-2.31,0.98
,-8.796,0.991,-5.334,-8.284,0.043,-5.19,-2.94,-2.59,-0.21
,-8.672,0.936,-5.324,-8.428,0.12,-5.138,-3.64,-2.94,-1.12
,-8.334,0.598,-5.209,-8.416,0.39,-5.284,-4.13,-2.45,-1.61
3710.0,-8.39,0.514,-5.202,-8.471,0.369,-5.116,-1.4,-2.59,-0.84
,-8.433,0.5,-5.166,-8.488,0.512,-5.19,-2.24,-2.31,-0.56
,-8.524,0.39,-5.19,-8.528,0.491,-5.193,-3.57,-2.17,-0.35
,-8.524,0.299,-5.126,-8.672,0.455,-5.018,-3.64,-2.03,0.0
3785.0,-8.698,0.436,-4.879,-8.373,0.089,-5.128,-0.07,-1.89,0.49
,-8.538,0.579,-5.032,-8.428,-0.041,-5.092,-0.21,-2.17,0.56
,-8.428,0.44,-5.085,-8.603,-0.05,-4.977,-1.12,-2.24,1.05
,-8.332,0.158,-5.051,-8.777,0.026,-4.963,-2.1,-2.1,1.4
3861.0,-8.674,0.06,-5.154,-8.413,0.258,-5.056,0.84,-2.1,3.92
,-8.536,0.11,-5.097,-8.526,0.376,-5.008,0.77,-1.75,5.18
,-8.536,0.06,-5.013,-8.605,0.574,-5.068,0.49,-1.61,5.95
,-8.428,0.148,-5.03,-8.571,0.792,-5.068,0.35,-1.82,6.58
3937.0,-8.385,0.885,-5.027,-8.677,1.029,-5.075,2.31,-1.12,7.28
,-8.399,0.809,-4.929,-8.715,1.45,-5.059,1.54,-0.98,7.14
,-8.38,0.668,-4.963,-8.658,1.735,-5.109,1.19,-0.77,6.93
,-8.6,0.735,-4.867,-8.547,1.718,-5.123,2.45,-0.49,6.93
4013.0,-8.495,1.357,-5.106,-8.717,0.639,-5.068,-0.42,-1.26,0.63
,-8.533,0.952,-5.075,-8.6,0.675,-5.171,-1.12,-0.63,-0.28
,-8.574,0.694,-5.073,-8.423,0.814,-5.162,-0.07,-0.42,-0.98
,-8.677,0.598,-4.937,-8.346,0.785,-5.071,1.54,-0.35,-1.68
4088.0,-8.378,0.773,-5.039,-8.526,0.335,-5.071,2.45,-2.94,-1.82
,-8.521,0.706,-5.095,-8.43,0.282,-5.018,1.89,-3.36,-2.17
,-8.6,0.565,-5.073,-8.686,0.38,-4.984,0.98,-3.36,-2.52
,-8.617,0.409,-5.073,-8.859,0.498,-4.903,1.26,-3.22,-2.8
4164.0,-8.775,0.658,-5.099,-8.397,0.366,-5.257,5.95,-1.96,-2.45
,-8.588,0.72,-5.087,-8.447,0.285,-5.145,5.46,-2.1,-2.45
,-8.526,0.62,-5.267,-8.495,0.34,-4.982,4.62,-2.38,-2.59
,-8.416,0.486,-5.322,-8.54,0.345,-4.958,4.76,-2.03,-2.73
4239.0,-8.629,0.335,-5.011,-8.555,0.51,-5.071,10.29,0.35,-1.33
,-8.808,0.345,-5.027,-8.665,0.467,-4.901,9.94,-0.07,-0.42
,-8.646,0.431,-5.073,-8.607,0.589,-5.03,9.45,-0.49,0.56
,-8.536,0.469,-4.972,-8.636,0.512,-4.815,9.24,-0.63,1.19
4315.0,-8.772,0.459,-4.736,-8.524,0.34,-4.771,7.28,-3.15,1.68
,-8.914,0.524,-4.838,-8.564,0.347,-4.642,6.93,-4.41,1.54
,-8.729,0.467,-4.893,-8.667,0.447,-4.69,5.53,-5.6,1.96
,-8.636,0.38,-4.846,-8.727,0.605,-4.745,4.2,-6.51,2.1
4391.0,-8.748,0.574,-4.815,-8.579,0.928,-4.898,3.57,-7.77,2.38
,-8.691,0.555,-4.748,-8.689,1.034,-4.855,3.29,-7.21,2.45
,-8.638,0.615,-4.865,-8.758,1.208,-4.884,3.85,-7.21,2.1
,-8.55,0.773,-4.81,-8.844,1.268,-4.783,4.48,-7.0,1.47
4467.0,-8.835,1.201,-4.941,-8.581,0.584,-5.255,2.17,-7.91,-2.45
,-8.818,0.988,-4.886,-8.756,0.122,-5.073,0.49,-8.4,-2.94
,-8.753,0.761,-4.872,-8.727,0.048,-4.85,-0.98,-8.82,-3.36
,-8.545,0.696,-5.162,-8.904,0.086,-4.867,-1.33,-9.38,-3.15
4543.0,-8.878,0.211,-4.736,-8.806,0.148,-4.704,5.39,-11.34,-2.45
,-8.777,0.304,-4.733,-8.926,0.237,-4.692,3.99,-11.76,-1.75
,-8.61,0.22,-4.745,-8.904,0.249,-4.549,2.87,-11.69,-1.33
,-8.703,0.12,-4.695,-8.875,0.254,-4.508,3.22,-11.48,-0.84
4618.0,-8.787,0.287,-4.413,-8.985,0.593,-3.953,6.58,-13.16,0.28
,-8.689,0.412,-4.322,-8.957,0.665,-3.917,6.79,-13.3,0.21
,-8.801,0.507,-4.233,-8.849,0.629,-3.788,6.93,-13.3,0.21
,-8.832,0.596,-4.068,-8.892,0.596,-3.719,6.44,-13.23,0.07
4694.0,-8.985,0.718,-3.656,-8.902,0.522,-3.764,4.55,-11.2,-0.98
,-9.002,0.742,-3.766,-9.057,0.526,-3.805,3.85,-11.06,-1.47
,-8.949,0.797,-3.774,-8.973,0.68,-3.932,2.73,-10.71,-1.82
,-8.933,0.73,-3.934,-8.952,0.704,-3.941,2.31,-9.87,-2.31
4770.0,-8.926,0.675,-4.039,-8.952,0.101,-4.212,0.63,-7.98,-4.76
,-8.942,0.634,-4.085,-8.949,-0.144,-4.48,-0.84,-7.7,-5.04
,-9.021,0.38,-3.905,-8.933,-0.34,-4.501,-1.82,-7.14,-5.18
,-9.038,0.239,-3.989,-8.995,-0.519,-4.463,-2.73,-7.91,-5.46
4846.0,-9.045,-0.498,-4.326,-8.983,0.304,-4.271,4.2,-9.45,-2.59
,-9.115,-0.349,-4.18,-8.906,0.024,-3.932,6.93,-9.24,-1.96
,-9.186,-0.022,-4.039,-9.033,-0.055,-3.692,8.05,-9.94,-1.47
,-9.146,0.328,-4.448,-9.062,0.108,-3.558,6.23,-10.92,-1.12
4921.0,-9.155,0.469,-3.321,-9.115,0.694,-3.585,9.03,-10.08,0.0
,-9.203,1.036,-3.57,-9.091,0.483,-3.494,7.7,-10.78,-0.42
,-9.217,1.146,-3.807,-9.1,0.522,-3.508,4.06,-11.06,-1.26
,-9.186,0.952,-3.635,-9.229,0.632,-3.446,0.63,-10.22,-1.89
4997.0,-9.304,0.514,-3.333,-9.11,-0.232,-3.333,-0.84,-8.96,-4.62
,-9.344,0.34,-3.331,-9.06,-0.378,-3.082,-2.03,-8.68,-5.11
,-9.268,0.316,-3.697,-9.265,-0.416,-2.848,-3.64,-8.68,-5.67
,-9.153,0.089,-3.453,-9.332,-0.122,-2.96,-4.76,-7.84,-5.46
5072.0,-9.452,0.144,-3.195,-9.186,0.297,-3.668,1.19,-5.25,-3.29
,-9.256,0.361,-3.467,-9.296,0.299,-3.427,0.56,-5.18,-2.94
,-9.11,0.424,-3.599,-9.308,0.309,-3.441,0.0,-4.97,-2.94
,-9.088,0.361,-3.709,-9.433,0.369,-3.57,0.07,-4.83,-3.36
5148.0,-9.354,0.493,-3.994,-9.136,-0.093,-3.726,-1.19,-6.58,-5.04
,-9.256,0.388,-4.089,-9.306,0.031,-3.637,-3.22,-6.72,-5.18
,-9.251,0.055,-3.867,-9.237,0.089,-3.52,-3.29,-6.37,-5.04
,-9.177,-0.139,-4.003,-9.227,-0.144,-3.345,-1.26,-6.51,-5.25
5224.0,-9.371,-0.112,-3.522,-9.284,-0.043,-3.242,0.28,-7.49,-4.97
,-9.392,-0.034,-3.518,-9.296,-0.06,-2.938,0.35,-8.05,-4.83
,-9.287,-0.031,-3.324,-9.428,0.146,-3.001,1.33,-7.63,-4.41
,-9.289,0.072,-3.424,-9.469,0.385,-3.159,3.5,-7.28,-3.99
5300.0,-9.366,0.55,-3.226,-9.316,-0.17,-2.513,7.91,-6.37,-4.13
,-9.311,0.481,-3.187,-9.457,0.007,-2.489,5.81,-5.88,-4.2
,-9.206,0.06,-2.927,-9.454,0.215,-2.804,4.97,-4.9,-4.06
,-9.265,-0.201,-2.728,-9.435,0.194,-2.821,6.93,-4.13,-4.06
5375.0,-9.356,0.158,-3.19,-9.507,-0.22,-3.757,3.36,-3.01,-4.62
,-9.22,0.05,-3.4,-9.447,-0.062,-3.989,1.89,-2.8,-4.9
,-9.146,-0.215,-3.312,-9.299,-0.077,-3.912,1.54,-2.38,-4.69
,-9.337,-0.364,-3.374,-9.27,-0.115,-3.963,3.29,-2.31,-4.2
5451.0,-9.313,-0.194,-3.893,-9.435,-0.543,-2.836,3.64,-6.79,-4.97
,-9.363,-0.17,-3.872,-9.507,-0.431,-2.814,4.2,-7.77,-4.83
,-9.34,-0.177,-3.743,-9.471,-0.361,-2.606,3.85,-8.33,-4.69
,-9.349,-0.345,-3.216,-9.445,-0.39,-2.388,4.83,-8.33,-4.2
5527.0,-9.414,-0.479,-2.359,-9.421,-0.263,-2.307,6.37,-6.02,-2.59
,-9.397,-0.455,-2.324,-9.509,-0.33,-2.402,7.35,-5.25,-2.17
,-9.342,-0.325,-2.252,-9.493,-0.282,-2.57,8.33,-4.62,-1.75
,-9.397,-0.12,-2.383,-9.347,-0.34,-2.307,8.26,-3.71,-1.4
5603.0,-9.438,-0.179,-2.539,-9.459,-0.495,-2.828,9.1,-0.14,-0.35
,-9.548,-0.038,-2.862,-9.552,-0.436,-2.769,7.07,-0.14,-0.63
,-9.347,-0.153,-2.888,-9.541,-0.022,-2.824,4.13,0.07,-0.84
,-9.351,-0.402,-2.737,-9.519,-0.041,-2.938,3.01,0.7,-0.56
5679.0,-9.404,-0.383,-2.919,-9.402,0.168,-3.123,1.82,2.1,-0.56
,-9.363,-0.44,-2.905,-9.371,-0.093,-3.106,3.36,2.17,-0.42
,-9.471,-0.302,-3.104,-9.397,-0.323,-2.706,5.67,1.82,-0.49
,-9.428,-0.105,-3.108,-9.536,-0.5,-2.491,6.44,1.54,-0.56
5754.0,-9.605,-0.385,-2.69,-9.55,-0.206,-2.924,4.83,2.31,-0.63
,-9.466,-0.361,-2.541,-9.507,-0.055,-3.135,4.62,2.66,-0.42
,-9.469,-0.342,-2.515,-9.371,-0.136,-3.276,3.99,3.22,-0.21
,-9.45,-0.349,-2.635,-9.33,-0.354,-3.309,3.78,3.85,-0.28
5830.0,-9.306,-0.507,-3.273,-9.44,-0.258,-3.29,0.77,3.36,-0.56
,-9.45,-0.294,-3.379,-9.328,-0.383,-3.259,2.94,3.01,-0.28
,-9.464,-0.201,-3.278,-9.32,-0.498,-3.238,3.29,2.59,-0.35
,-9.471,-0.246,-3.171,-9.428,-0.672,-3.149,2.87,2.31,-0.35
5905.0,-9.418,-0.644,-3.041,-9.462,-0.179,-2.819,3.5,1.33,0.0
,-9.5,-0.476,-2.876,-9.423,-0.263,-2.802,4.34,1.54,0.42
,-9.512,-0.354,-2.759,-9.416,-0.337,-2.831,4.2,1.96,0.56
,-9.476,-0.23,-2.809,-9.481,-0.349,-2.86,3.43,1.89,0.35
5981.0,-9.481,-0.27,-3.199,-9.299,-0.486,-3.434,2.45,2.45,0.42
,-9.428,-0.129,-3.398,-9.423,-0.572,-3.312,2.03,1.96,0.14
,-9.368,-0.134,-3.53,-9.524,-0.369,-3.07,1.33,1.61,0.0
,-9.232,-0.328,-3.565,-9.521,-0.17,-3.034,0.77,1.47,0.21
6057.0,-9.502,-0.242,-2.982,-9.466,-0.419,-3.015,4.62,0.14,0.49
,-9.45,-0.237,-3.08,-9.476,-0.383,-2.893,3.08,-0.14,0.35
,-9.342,-0.347,-3.099,-9.495,-0.328,-2.869,2.59,-0.21,0.21
,-9.368,-0.404,-3.065,-9.483,-0.256,-2.848,3.22,0.07,0.21
6133.0,-9.416,-0.225,-2.948,-9.359,-0.555,-3.01,2.59,0.49,0.14
,-9.45,-0.211,-3.082,-9.375,-0.522,-2.833,1.54,0.35,0.07
,-9.356,-0.373,-3.061,-9.442,-0.457,-2.778,0.91,0.49,0.21
,-9.402,-0.467,-3.094,-9.466,-0.483,-2.761,1.61,0.21,0.35
6208.0,-9.497,-0.4,-2.797,-9.454,-0.333,-3.02,2.66,1.26,1.05
,-9.474,-0.29,-2.769,-9.445,-0.246,-3.13,2.17,1.47,1.12
,-9.454,-0.292,-2.836,-9.416,-0.153,-3.221,1.33,1.82,1.19
,-9.505,-0.383,-2.869,-9.38,-0.081,-3.113,1.4,1.96,1.33
6284.0,-9.433,-0.285,-3.053,-9.404,-0.313,-3.161,0.14,1.19,0.56
,-9.505,-0.256,-3.211,-9.354,-0.325,-3.072,-0.84,0.63,0.07
,-9.493,-0.33,-3.283,-9.399,-0.433,-2.84,-2.1,0.07,-0.28
,-9.447,-0.354,-3.264,-9.44,-0.467,-2.69,-3.43,-0.42,-0.56
6360.0,-9.512,-0.474,-2.551,-9.385,-0.223,-2.946,-2.8,0.28,0.0
,-9.502,-0.4,-2.587,-9.397,-0.302,-2.912,-1.68,0.77,0.21
,-9.541,-0.316,-2.721,-9.478,-0.369,-3.034,-1.54,1.05,0.35
,-9.466,-0.287,-2.8,-9.462,-0.452,-2.972,-1.26,1.61,0.63
6436.0,-9.445,-0.447,-2.994,-9.445,-0.23,-2.982,1.68,2.94,1.12
,-9.488,-0.347,-2.994,-9.445,-0.278,-2.965,2.59,2.94,1.19
,-9.447,-0.357,-2.989,-9.474,-0.23,-2.917,2.66,2.94,1.12
,-9.488,-0.268,-3.041,-9.481,-0.206,-2.917,2.94,2.94,1.19
6512.0,-9.474,-0.17,-2.907,-9.366,-0.256,-3.345,0.77,2.87,0.98
,-9.447,-0.266,-3.037,-9.373,-0.376,-3.386,0.14,2.8,0.77
,-9.459,-0.29,-3.008,-9.323,-0.404,-3.29,0.42,3.01,0.77
,-9.404,-0.328,-3.159,-9.426,-0.421,-3.25,0.77,3.08,0.91
6587.0,-9.428,-0.273,-3.178,-9.399,-0.345,-3.077,3.64,2.1,1.12
,-9.478,-0.112,-3.137,-9.409,-0.462,-3.029,4.13,2.1,1.12
,-9.485,-0.144,-3.195,-9.452,-0.261,-3.051,3.64,1.82,1.12
,-9.423,-0.127,-3.199,-9.423,-0.038,-3.063,3.36,1.75,1.05
6663.0,-9.452,-0.101,-3.051,-9.474,-0.345,-3.087,-0.14,0.56,0.0
,-9.452,-0.258,-3.037,-9.507,-0.215,-3.084,-0.77,0.77,-0.07
,-9.464,-0.357,-3.025,-9.454,-0.005,-3.034,-0.56,0.91,0.0
,-9.459,-0.383,-3.037,-9.363,-0.115,-3.041,0.07,0.56,0.0
6738.0,-9.45,-0.34,-3.017,-9.43,-0.342,-2.9,-3.01,-0.35,-0.7
,-9.445,-0.498,-2.907,-9.459,-0.335,-3.039,-2.17,0.0,-0.56
,-9.418,-0.476,-2.855,-9.409,-0.304,-2.876,-0.84,0.42,-0.42
,-9.442,-0.39,-2.917,-9.414,-0.345,-3.046,0.35,0.63,-0.14
6814.0,-9.411,-0.364,-3.032,-9.45,-0.038,-3.077,2.38,1.89,0.35
,-9.454,-0.311,-3.063,-9.505,-0.297,-3.037,3.64,1.89,0.49
,-9.521,-0.124,-3.087,-9.452,-0.467,-3.058,2.87,1.26,0.21
,-9.435,0.062,-3.029,-9.433,-0.457,-3.039,1.05,0.77,-0.14
6890.0,-9.43,-0.493,-3.077,-9.488,-0.282,-3.046,1.47,1.05,0.0
,-9.416,-0.416,-2.962,-9.433,-0.27,-3.068,2.38,0.98,0.28
,-9.39,-0.292,-2.948,-9.351,-0.34,-3.149,2.31,1.12,0.35
,-9.512,-0.278,-3.003,-9.414,-0.447,-3.104,2.03,1.47,0.28
6966.0,-9.426,-0.419,-3.077,-9.464,-0.397,-2.888,4.34,1.61,0.56
,-9.454,-0.235,-2.97,-9.399,-0.409,-2.84,4.34,1.05,0.56
,-9.414,-0.191,-2.852,-9.469,-0.335,-2.893,3.01,0.7,0.35
,-9.409,-0.304,-2.924,-9.464,-0.268,-2.929,2.1,0.84,0.28
7041.0,-9.464,-0.347,-2.958,-9.363,-0.266,-2.953,1.96,2.17,0.42
,-9.433,-0.323,-2.852,-9.323,-0.357,-2.931,2.03,2.59,0.63
,-9.433,-0.302,-2.929,-9.402,-0.416,-2.726,2.45,2.52,0.77
,-9.433,-0.28,-3.027,-9.371,-0.522,-2.563,2.66,2.45,0.91
7117.0,-9.383,-0.553,-2.371,-9.459,-0.428,-2.508,3.64,4.55,1.68
,-9.447,-0.529,-2.338,-9.502,-0.357,-2.63,3.99,5.53,2.03
,-9.397,-0.5,-2.252,-9.497,-0.156,-3.113,3.36,6.09,2.24
,-9.38,-0.471,-2.257,-9.378,-0.048,-3.4,2.73,6.93,2.52
7193.0,-9.344,-0.184,-3.618,-9.292,-0.189,-3.508,0.21,8.12,2.31
,-9.361,-0.17,-3.805,-9.359,-0.266,-3.154,0.21,7.28,2.1
,-9.354,-0.223,-3.831,-9.5,-0.266,-3.008,0.42,6.3,1.82
,-9.289,-0.17,-3.721,-9.526,-0.079,-3.113,0.28,5.11,1.33
7269.0,-9.447,-0.034,-3.173,-9.368,-0.603,-2.95,-2.24,4.06,0.84
,-9.411,-0.172,-3.163,-9.505,-0.488,-2.948,-4.41,4.27,0.91
,-9.416,-0.433,-3.163,-9.507,-0.156,-3.099,-4.76,4.55,1.12
,-9.308,-0.687,-3.049,-9.478,-0.014,-3.262,-2.8,5.32,1.61
7344.0,-9.328,-0.038,-3.187,-9.497,-0.218,-3.034,-2.1,5.39,2.17
,-9.253,-0.28,-3.104,-9.44,-0.062,-3.046,-3.36,5.74,2.59
,-9.206,-0.486,-2.826,-9.438,-0.084,-3.273,-2.87,6.44,2.94
,-9.33,-0.486,-2.795,-9.349,-0.175,-3.403,-1.12,7.63,3.22
7420.0,-9.316,-0.263,-3.453,-9.234,0.328,-3.821,-1.96,7.84,3.08
,-9.273,-0.33,-3.467,-9.234,0.086,-3.695,-0.21,8.19,3.15
,-9.438,-0.258,-3.549,-9.344,-0.246,-3.348,1.68,7.63,3.15
,-9.397,0.16,-3.769,-9.299,-0.349,-3.168,2.38,5.81,2.73
7496.0,-9.39,-0.235,-2.996,-9.158,-0.407,-3.29,2.94,5.81,1.96
,-9.495,-0.122,-3.199,-9.148,-0.668,-3.087,1.05,5.53,1.75
,-9.383,-0.237,-3.142,-9.287,-0.684,-3.075,-3.08,5.6,1.47
,-9.299,-0.28,-3.36,-9.287,-0.577,-2.776,-5.46,4.97,1.68
7571.0,-9.426,-0.416,-2.745,-9.131,0.014,-3.364,3.99,8.89,4.83
,-9.426,0.031,-3.094,-9.16,-0.258,-3.089,5.04,8.75,5.04
,-9.258,0.213,-3.324,-9.249,-0.397,-3.24,3.22,8.05,4.55
,-9.241,0.227,-3.393,-9.206,-0.325,-3.111,1.47,8.26,4.76
7647.0,-9.378,-0.268,-3.264,-9.347,-0.488,-3.099,3.71,11.76,5.04
,-9.167,-0.108,-3.534,-9.385,-0.127,-3.577,2.66,11.27,5.25
,-9.158,-0.28,-3.206,-9.198,0.246,-3.455,2.24,11.9,5.67
,-9.301,-0.471,-3.319,-9.155,0.658,-3.671,3.43,12.46,6.37
7723.0,-8.885,0.562,-3.795,-9.143,-0.191,-3.271,2.59,11.41,4.69
,-8.909,0.079,-3.448,-9.194,-0.069,-3.113,-0.56,12.46,4.48
,-9.15,-0.282,-3.451,-9.107,0.043,-3.386,-1.47,13.02,4.69
,-9.311,-0.354,-3.269,-9.048,-0.057,-3.405,0.07,12.95,4.69
7799.0,-9.043,-0.242,-3.671,-8.911,0.905,-4.405,-2.38,14.49,6.02
,-9.098,-0.337,-3.271,-8.933,0.634,-4.188,0.7,15.96,6.65
,-9.189,0.038,-3.747,-9.007,0.273,-3.585,4.13,15.47,6.72
,-9.019,0.677,-4.231,-9.064,0.072,-3.549,3.92,13.79,5.25
7874.0,-9.304,0.053,-3.613,-8.76,-1.189,-3.654,-4.83,13.58,2.52
,-9.203,-0.019,-4.147,-9.225,-0.632,-3.503,-6.44,11.62,2.66
,-8.973,-0.438,-4.343,-9.244,0.321,-3.958,-8.4,11.69,3.64
,-8.897,-1.029,-4.185,-9.241,0.833,-4.343,-6.58,13.23,5.32
7950.0,-8.787,0.857,-4.52,-9.167,0.605,-4.393,3.36,14.77,6.72
,-8.701,0.574,-4.061,-8.942,0.481,-4.35,-0.63,16.66,7.63
,-8.918,0.536,-4.054,-8.689,0.206,-3.893,0.21,16.59,7.21
,-9.117,0.634,-4.31,-8.839,0.103,-3.388,1.54,15.12,5.18
8026.0,-9.033,0.388,-4.2,-8.741,-0.287,-5.126,7.28,15.82,3.5
,-9.249,0.593,-4.862,-8.464,-0.141,-5.142,6.23,12.74,2.94
,-9.217,0.45,-5.319,-8.626,0.333,-5.068,2.45,11.06,3.57
,-8.947,0.01,-5.461,-9.002,0.646,-4.972,-0.07,11.69,4.27
8102.0,-9.11,0.646,-4.846,-8.935,0.818,-4.58,5.6,10.78,2.03
,-9.081,0.495,-4.372,-9.129,0.629,-4.542,1.54,11.41,2.1
,-8.866,0.462,-4.039,-9.038,0.208,-4.432,-0.42,11.76,2.1
,-8.832,0.62,-4.022,-8.677,-0.474,-4.152,0.21,10.85,1.54
8177.0,-8.5,-0.845,-4.054,-8.921,0.06,-4.893,1.96,11.83,2.17
,-8.705,-0.759,-4.362,-8.531,0.689,-5.15,7.14,11.76,3.08
,-9.028,-0.572,-4.575,-8.442,1.103,-5.104,10.29,10.99,3.71
,-9.06,-0.38,-4.834,-8.636,1.285,-5.061,11.48,10.29,4.55
8253.0,-8.586,1.213,-5.049,-8.813,-0.514,-4.281,4.27,9.24,2.66
,-8.614,0.744,-4.697,-8.902,-0.263,-4.463,-0.07,9.73,1.68
,-8.653,0.01,-4.436,-8.952,-0.165,-4.673,-2.31,10.78,1.33
,-8.792,-0.459,-4.188,-9.136,-0.012,-4.683,-0.28,11.48,1.54
8329.0,-8.928,0.141,-4.812,-8.425,0.988,-5.154,8.61,10.15,2.45
,-8.624,0.397,-4.783,-8.617,0.701,-5.02,6.86,10.15,3.01
,-8.54,0.747,-4.994,-8.72,0.134,-4.779,5.18,9.03,3.43
,-8.368,1.106,-5.252,-8.751,-0.115,-4.544,1.61,7.7,3.29
8404.0,-8.818,-0.148,-4.676,-8.674,1.184,-5.166,-4.34,8.05,1.47
,-8.655,0.045,-4.709,-8.569,1.29,-5.193,-2.31,8.12,1.96
,-8.643,0.371,-4.86,-8.605,1.216,-5.121,-0.07,8.12,2.03
,-8.739,0.873,-4.975,-8.686,0.888,-5.169,1.05,7.63,1.54
8480.0,-8.942,0.692,-4.92,-8.567,0.163,-5.063,-3.99,7.56,-4.62
,-8.904,0.538,-5.044,-8.349,-0.184,-5.075,-2.17,6.93,-6.09
,-8.665,0.512,-5.056,-8.397,-0.55,-4.877,-1.26,6.44,-6.37
,-8.552,0.364,-5.164,-8.538,-0.615,-4.848,-1.19,5.6,-5.74
8556.0,-8.67,-0.696,-4.805,-8.648,-0.529,-5.475,1.12,3.78,-0.14
,-8.454,-0.735,-5.121,-8.533,-0.421,-5.492,1.26,3.5,1.89
,-8.512,-0.871,-5.104,-8.404,-0.383,-5.389,0.49,4.13,3.92
,-8.617,-0.799,-5.31,-8.562,-0.493,-5.214,1.47,4.13,5.46
8632.0,-8.631,-0.555,-4.934,-8.758,0.407,-4.901,5.53,3.08,9.38
,-8.569,-0.498,-4.676,-8.856,0.584,-4.841,5.39,2.1,10.85
,-8.32,-0.366,-4.807,-8.679,0.957,-4.891,6.23,1.68,11.9
,-8.574,0.048,-4.898,-8.435,0.955,-4.793,7.98,1.54,12.18
8707.0,-8.512,1.036,-4.805,-8.579,0.72,-4.625,8.54,3.08,7.7
,-8.681,1.022,-4.762,-8.737,0.625,-4.57,7.35,2.52,7.42
,-8.265,1.029,-4.915,-8.981,0.598,-4.621,6.02,2.38,7.14
,-8.234,0.964,-5.056,-9.014,0.893,-4.621,5.46,3.29,6.51
8783.0,-8.729,1.094,-4.812,-8.445,1.012,-4.925,9.24,4.83,0.7
,-8.488,0.995,-4.692,-8.552,0.936,-5.15,7.7,5.74,0.0
,-8.411,0.905,-4.642,-8.691,0.622,-5.274,6.37,5.88,-0.7
,-8.303,0.988,-4.786,-8.634,0.242,-5.284,5.32,6.3,-1.12
8859.0,-8.526,0.05,-5.374,-8.399,0.28,-5.475,2.31,5.04,-1.47
,-8.315,-0.144,-5.437,-8.617,0.292,-5.508,3.64,4.48,-0.77
,-8.344,-0.034,-5.41,-8.878,0.16,-5.508,5.04,3.71,-0.28
,-8.397,0.246,-5.578,-8.713,-0.203,-5.607,5.74,3.22,-0.28
8935.0,-8.543,-0.266,-5.712,-8.423,-0.117,-5.133,3.71,0.77,1.05
,-8.37,-0.213,-5.872,-8.394,0.086,-5.319,5.53,0.14,1.75
,-8.492,-0.4,-5.506,-8.648,0.306,-5.226,6.51,-0.21,2.66
,-8.521,-0.333,-5.262,-8.772,0.512,-5.353,7.35,-1.19,3.78
9010.0,-8.679,0.629,-5.257,-8.631,0.014,-4.874,4.27,-3.36,4.06
,-8.526,0.591,-5.229,-8.598,0.151,-4.968,4.13,-3.15,3.99
,-8.471,0.462,-5.25,-8.509,0.696,-5.154,4.27,-3.01,3.71
,-8.464,0.177,-5.054,-8.411,0.957,-5.164,4.48,-3.01,3.5
9086.0,-8.502,0.962,-5.071,-8.631,-0.026,-4.97,7.35,-3.71,3.15
,-8.703,0.864,-5.025,-8.571,0.258,-4.999,5.74,-3.29,2.66
,-8.83,0.481,-4.889,-8.452,0.412,-4.944,3.64,-3.57,2.66
,-8.734,0.168,-4.97,-8.318,0.27,-4.846,3.71,-3.78,2.38
9161.0,-8.557,0.266,-4.781,-8.71,1.048,-4.647,7.56,-3.36,2.31
,-8.732,0.412,-4.74,-8.705,0.979,-4.733,8.26,-3.29,2.24
,-8.65,0.809,-4.795,-8.693,0.797,-4.795,8.33,-2.73,1.47
,-8.744,1.0,-4.697,-8.768,0.572,-4.721,6.51,-1.96,0.63
9237.0,-8.574,0.256,-4.75,-9.344,0.397,-4.798,2.03,-2.38,-1.89
,-8.385,0.101,-4.731,-8.607,-0.115,-4.886,3.01,-2.1,-1.4
,-8.433,-0.086,-4.635,-8.99,0.124,-4.807,3.36,-1.75,-0.63
,-7.203,-0.005,-4.791,-8.837,0.261,-4.841,3.78,-1.89,-0.21
9313.0,-8.737,0.323,-4.673,-8.741,-0.242,-4.771,5.46,-1.05,-1.4
,-8.631,0.292,-4.716,-8.629,-0.17,-4.774,3.99,-1.19,-1.19
,-8.5,0.239,-4.745,-8.646,0.081,-4.726,2.24,-0.7,-0.84
,-8.6,-0.127,-4.695,-8.622,0.316,-4.81,1.96,-0.07,-0.56
9389.0,-8.543,0.495,-4.913,-8.588,-0.034,-4.657,5.25,1.33,1.68
,-8.622,0.507,-4.953,-8.696,0.0,-4.587,3.78,1.96,1.54
,-8.72,0.325,-4.795,-8.638,0.134,-4.692,2.31,1.82,1.4
,-8.603,0.079,-4.769,-8.703,0.179,-4.771,1.33,1.96,1.47
9465.0,-8.725,0.182,-4.824,-8.638,0.328,-4.637,2.73,2.45,2.73
,-8.629,0.187,-4.882,-8.593,0.474,-4.657,3.01,2.73,3.01
,-8.638,0.074,-4.8,-8.66,0.445,-4.743,3.15,3.57,3.15
,-8.603,0.019,-4.714,-8.701,0.452,-4.767,3.64,4.06,3.29
9540.0,-8.701,0.447,-4.838,-8.641,0.34,-4.795,1.26,3.43,3.29
,-8.605,0.524,-4.944,-8.667,0.397,-4.764,0.91,3.36,3.15
,-8.559,0.447,-4.925,-8.756,0.548,-4.81,0.7,3.78,3.01
,-8.591,0.354,-4.798,-8.641,0.658,-4.848,0.63,4.27,2.8
9616.0,-8.557,0.665,-4.838,-8.485,0.692,-4.886,1.05,5.11,1.12
,-8.617,0.67,-4.834,-8.617,0.735,-4.949,0.77,5.25,1.19
,-8.583,0.579,-4.678,-8.665,0.646,-4.843,0.21,4.9,1.12
,-8.442,0.605,-4.829,-8.538,0.476,-4.822,-0.21,4.9,0.84
9692.0,-8.524,0.433,-4.908,-8.591,0.541,-5.128,-1.82,7.07,-0.91
,-8.603,0.414,-4.822,-8.679,0.388,-5.018,-0.91,6.65,-1.12
,-8.478,0.419,-5.004,-8.583,0.194,-5.061,-0.14,6.37,-0.91
,-8.43,0.548,-5.135,-8.622,0.179,-5.063,0.14,6.23,-0.63
9768.0,-8.586,0.124,-5.207,-8.538,-0.182,-5.231,-1.54,5.95,-0.98
,-8.588,0.091,-5.157,-8.677,-0.328,-5.049,-1.61,6.02,-0.35
,-8.543,0.062,-5.226,-8.583,-0.237,-5.214,-1.68,5.81,0.21
,-8.519,-0.005,-5.286,-8.619,-0.254,-5.226,-1.61,5.74,0.91
9843.0,-8.739,-0.182,-5.281,-8.6,0.467,-5.193,0.21,3.71,4.48
,-8.622,-0.041,-5.264,-8.672,0.476,-5.018,1.19,3.01,4.97
,-8.366,0.201,-5.341,-8.746,0.364,-4.915,1.89,2.87,5.32
,-8.435,0.447,-5.224,-8.612,0.201,-4.977,1.89,2.66,5.6
9919.0,-8.581,0.115,-4.994,-8.54,0.952,-5.238,0.7,2.24,5.88
,-8.449,0.345,-5.044,-8.591,0.828,-5.288,3.22,2.31,6.44
,-8.37,0.78,-5.092,-8.54,0.488,-5.284,4.76,2.8,6.3
,-8.507,0.967,-5.226,-8.598,0.227,-5.24,4.97,2.38,5.46
9994.0,-8.825,0.12,-5.296,-8.564,1.175,-5.654,1.05,0.35,5.18
,-8.758,0.256,-5.267,-8.681,1.268,-5.705,2.87,-0.35,4.48
,-8.614,0.524,-5.267,-8.607,1.031,-5.587,3.78,-1.19,4.2
,-8.425,0.897,-5.532,-8.502,0.83,-5.571,3.08,-1.68,4.41
10070.0,-8.392,0.436,-5.449,-8.66,0.833,-5.298,-6.23,-4.27,1.75
,-8.299,0.148,-5.363,-8.559,1.0,-5.159,-5.53,-3.85,2.03
,-8.54,0.23,-5.303,-8.373,0.96,-5.166,-2.38,-4.2,1.89
,-8.844,0.536,-5.305,-8.492,0.814,-4.982,1.05,-5.46,1.26
10146.0,-8.674,0.56,-4.965,-8.799,0.845,-4.769,-3.92,-6.93,0.7
,-8.758,0.464,-4.848,-8.598,1.034,-4.872,-3.15,-6.79,0.21
,-8.65,0.464,-4.704,-8.488,0.907,-4.745,-1.12,-6.58,-0.28
,-8.658,0.617,-4.736,-8.598,0.687,-4.587,0.91,-6.23,-0.91
10222.0,-8.658,0.529,-4.633,-8.758,0.33,-4.714,-1.19,-5.46,-3.22
,-8.765,0.436,-4.52,-8.648,0.407,-4.803,0.28,-5.32,-3.22
,-8.784,0.45,-4.783,-8.48,0.615,-4.85,1.4,-5.6,-3.01
,-8.689,0.414,-4.867,-8.38,0.696,-4.879,2.66,-4.97,-3.29
10298.0,-8.586,0.684,-4.855,-8.701,0.371,-4.355,9.52,-2.31,-3.43
,-8.768,0.424,-4.676,-8.342,0.526,-4.635,8.33,-1.68,-3.29
,-8.854,0.141,-4.436,-8.476,0.414,-4.786,7.14,-1.4,-2.87
,-8.911,-0.045,-4.116,-8.739,0.27,-4.678,6.02,-2.66,-2.03
10373.0,-8.827,0.294,-4.7,-8.643,0.349,-4.709,2.66,-4.76,0.63
,-8.684,0.383,-4.738,-8.488,0.371,-4.829,2.94,-4.34,0.63
,-8.703,0.302,-4.769,-8.588,0.519,-4.692,3.36,-4.34,0.63
,-8.684,0.302,-4.743,-8.748,0.713,-4.597,3.36,-4.27,0.56
10449.0,-8.902,0.948,-4.446,-8.693,0.488,-4.642,6.86,-4.34,-0.07
,-8.871,0.998,-4.441,-8.67,0.318,-4.482,4.9,-3.99,-0.21
,-8.904,0.991,-4.614,-8.83,0.488,-4.341,2.45,-3.64,-0.49
,-8.777,0.747,-4.74,-8.871,0.907,-4.413,1.05,-3.01,-0.91
10525.0,-8.894,1.28,-4.791,-8.804,0.232,-4.704,3.64,-2.8,-2.8
,-8.708,0.878,-4.834,-8.67,0.287,-4.621,2.94,-3.15,-4.2
,-8.942,0.493,-4.867,-8.78,0.287,-4.666,1.75,-2.52,-3.85
,-8.818,0.369,-4.755,-8.717,0.244,-4.771,2.03,-2.1,-4.13
10601.0,-8.732,0.096,-4.774,-8.763,0.213,-4.721,1.96,-3.43,-1.96
,-8.777,-0.11,-4.712,-8.72,0.294,-4.738,2.8,-2.94,-1.82
,-9.009,-0.115,-4.623,-8.892,0.213,-4.616,3.92,-4.13,-2.03
,-8.856,0.112,-4.786,-8.949,0.237,-4.657,4.69,-5.53,-1.4
10676.0,-8.945,0.337,-4.683,-8.918,0.34,-4.614,1.05,-8.19,-0.35
,-8.679,0.395,-4.75,-8.942,0.407,-4.563,1.19,-7.84,0.35
,-8.614,0.323,-4.645,-8.947,0.426,-4.628,2.03,-7.14,0.49
,-8.871,0.297,-4.614,-8.789,0.395,-4.664,3.78,-6.58,0.28
10752.0,-8.82,0.44,-4.465,-8.971,0.823,-4.393,6.37,-7.28,0.07
,-8.847,0.481,-4.319,-8.938,0.613,-4.499,7.49,-7.28,-0.14
,-8.82,0.534,-4.216,-8.897,0.321,-4.594,7.21,-7.14,-0.35
,-9.086,0.727,-4.051,-8.887,0.089,-4.664,5.67,-8.68,-0.56
10827.0,-8.88,-0.062,-4.448,-8.868,-0.237,-4.463,5.25,-10.43,-1.05
,-9.031,-0.112,-4.451,-9.141,-0.232,-4.499,7.7,-10.85,-1.12
,-8.894,-0.048,-4.444,-9.076,0.261,-4.59,8.68,-11.34,-0.49
,-8.806,-0.158,-4.525,-8.801,0.648,-4.494,7.98,-11.83,0.63
10903.0,-8.897,0.732,-4.219,-9.093,0.426,-3.606,7.07,-12.46,1.96
,-8.973,0.704,-4.111,-9.15,0.553,-3.549,5.46,-12.74,1.26
,-9.043,0.601,-3.886,-9.167,0.761,-3.439,5.11,-12.6,0.91
,-8.997,0.512,-3.869,-9.196,0.818,-3.431,5.6,-12.18,0.7
10979.0,-9.186,1.034,-3.606,-9.177,0.962,-3.64,7.98,-10.22,-1.68
,-9.067,1.072,-3.616,-8.988,0.974,-3.991,5.25,-10.08,-2.31
,-9.091,0.976,-3.573,-8.875,0.682,-3.932,2.45,-9.59,-3.01
,-9.162,0.909,-3.577,-9.134,0.249,-3.676,-0.35,-10.01,-4.55
11055.0,-9.277,-0.002,-3.472,-9.268,-0.019,-3.534,-8.05,-10.43,-9.52
,-9.165,-0.112,-3.053,-9.246,-0.096,-3.805,-6.51,-8.89,-9.38
,-9.16,-0.048,-3.159,-9.095,-0.194,-3.924,-5.6,-8.61,-8.96
,-9.112,0.038,-3.472,-9.064,-0.141,-3.798,-5.6,-8.54,-8.61
11130.0,-9.182,-0.057,-3.869,-9.411,-0.431,-3.01,0.56,-7.28,-6.44
,-9.146,0.108,-3.463,-9.392,-0.263,-3.058,0.21,-7.84,-6.65
,-9.143,-0.086,-3.439,-9.351,0.031,-3.369,-0.63,-7.84,-6.16
,-9.148,-0.294,-3.08,-9.277,0.213,-3.252,-1.05,-7.42,-5.74
11206.0,-9.189,0.213,-3.23,-9.095,0.345,-4.238,3.22,-4.06,-3.29
,-9.17,0.249,-3.245,-9.229,-0.165,-3.951,3.85,-4.2,-3.99
,-9.234,0.514,-4.044,-9.275,-0.436,-3.479,3.15,-5.95,-5.04
,-9.012,0.613,-4.216,-9.411,-0.349,-2.986,0.77,-7.21,-5.39
11282.0,-9.514,-0.208,-2.962,-9.206,-0.304,-3.053,6.02,-6.09,-4.69
,-9.445,-0.093,-3.029,-9.261,-0.079,-3.364,4.06,-6.09,-4.34
,-9.383,-0.148,-3.254,-9.237,-0.057,-3.319,2.38,-6.02,-3.64
,-9.153,-0.218,-3.297,-9.318,-0.031,-3.398,1.12,-5.74,-3.36
11358.0,-9.208,-0.117,-3.417,-9.387,0.175,-2.982,4.55,-5.11,-2.38
,-9.227,-0.321,-3.326,-9.445,0.201,-2.85,5.95,-4.97,-1.61
,-9.282,-0.168,-3.218,-9.399,0.093,-2.876,8.82,-4.76,-1.12
,-9.363,0.084,-3.252,-9.32,-0.067,-2.709,10.78,-4.34,-1.19
11434.0,-9.414,0.112,-2.97,-9.261,-0.433,-2.831,6.23,-2.52,-1.89
,-9.215,0.232,-3.233,-9.375,-0.39,-2.699,4.06,-2.8,-2.45
,-9.191,-0.168,-3.082,-9.541,-0.182,-2.644,2.8,-2.1,-2.45
,-9.162,-0.359,-3.039,-9.509,0.148,-2.965,3.92,-1.4,-1.89
11509.0,-9.407,0.328,-3.281,-9.641,-0.625,-3.644,1.75,-0.14,-1.61
,-9.289,0.227,-3.532,-9.497,-0.287,-3.707,-1.89,-0.21,-2.03
,-9.141,-0.258,-3.51,-9.442,-0.017,-3.561,-3.85,0.07,-1.96
,-9.313,-0.806,-3.491,-9.373,-0.062,-3.628,-1.26,0.28,-1.54
11585.0,-9.361,-0.278,-3.472,-9.409,-0.261,-3.149,6.02,-2.03,-0.84
,-9.308,-0.244,-3.374,-9.349,-0.151,-3.321,6.79,-2.17,-0.77
,-9.354,-0.235,-3.25,-9.335,0.017,-3.307,6.58,-2.17,-0.56
,-9.43,-0.258,-3.214,-9.28,0.105,-3.463,6.23,-2.31,-0.42
11660.0,-9.244,0.091,-3.475,-9.454,-0.017,-2.793,4.83,-3.5,-0.98
,-9.234,-0.048,-3.269,-9.411,-0.108,-2.766,4.55,-3.43,-1.05
,-9.383,-0.129,-3.104,-9.366,-0.316,-2.572,5.04,-3.22,-1.19
,-9.447,-0.146,-2.797,-9.366,-0.474,-2.4,4.9,-3.01,-1.33
11736.0,-9.421,-0.723,-2.139,-9.409,0.591,-3.788,1.26,0.49,-0.77
,-9.44,-0.653,-1.998,-9.11,0.414,-4.159,2.66,1.75,-0.21
,-9.624,-0.345,-2.19,-9.112,-0.06,-4.125,2.87,2.45,-0.07
,-9.608,0.249,-2.898,-9.237,-0.421,-3.678,0.84,2.1,-0.77
11812.0,-9.529,-0.536,-3.173,-9.246,0.215,-3.589,5.88,1.75,-0.49
,-9.663,-0.134,-2.955,-9.119,-0.043,-3.731,8.68,1.33,-0.42
,-9.73,0.172,-3.087,-9.217,-0.366,-3.68,7.91,0.35,-1.12
,-9.572,0.321,-3.539,-9.342,-0.546,-3.434,3.71,-0.49,-1.96
11888.0,-9.402,-0.625,-2.824,-9.349,0.158,-3.293,3.78,-0.42,-1.68
,-9.612,-0.562,-2.764,-9.213,-0.101,-3.352,5.11,-0.07,-1.26
,-9.526,-0.306,-2.568,-9.201,-0.476,-3.324,5.11,-0.28,-1.4
,-9.526,-0.022,-3.135,-9.335,-0.706,-3.063,4.34,-0.49,-1.54
11963.0,-9.409,-0.668,-2.812,-9.493,-0.206,-3.027,7.14,1.19,0.0
,-9.526,-0.474,-2.635,-9.34,-0.347,-3.195,8.54,1.47,0.28
,-9.509,-0.29,-2.517,-9.306,-0.541,-3.23,7.7,1.61,0.28
,-9.538,-0.211,-2.737,-9.332,-0.67,-3.25,5.6,1.82,0.21
12039.0,-9.411,-0.591,-3.197,-9.301,-0.191,-3.582,5.25,2.17,0.91
,-9.526,-0.325,-3.405,-9.225,-0.416,-3.491,6.72,1.75,0.91
,-9.44,-0.077,-3.486,-9.356,-0.414,-3.364,5.81,0.98,0.56
,-9.416,-0.007,-3.518,-9.445,-0.371,-3.288,4.27,0.56,0.56
12114.0,-9.447,-0.318,-3.065,-9.33,-0.134,-3.211,7.63,-0.14,0.91
,-9.5,-0.153,-3.02,-9.366,-0.206,-3.309,6.72,-0.49,0.91
,-9.485,-0.129,-3.063,-9.435,-0.385,-2.977,5.25,-0.56,0.49
,-9.332,-0.084,-3.135,-9.428,-0.369,-2.891,3.57,-0.84,0.07
12190.0,-9.421,-0.366,-2.656,-9.373,-0.347,-3.039,3.78,-0.07,-0.07
,-9.464,-0.225,-2.761,-9.39,-0.471,-3.025,3.5,-0.07,-0.21
,-9.442,-0.17,-3.037,-9.418,-0.4,-2.962,2.59,0.0,-0.49
,-9.387,-0.218,-2.95,-9.411,-0.342,-2.917,1.47,0.49,-0.42
12266.0,-9.471,-0.342,-2.953,-9.383,-0.23,-3.252,2.59,1.12,-0.14
,-9.447,-0.325,-2.948,-9.395,-0.311,-3.266,3.01,1.26,0.0
,-9.464,-0.258,-3.025,-9.423,-0.323,-3.238,3.22,1.4,0.21
,-9.426,-0.146,-3.218,-9.447,-0.455,-3.178,2.87,1.12,0.0
12342.0,-9.361,-0.641,-2.953,-9.404,0.005,-2.905,3.15,1.47,0.49
,-9.39,-0.625,-2.864,-9.375,-0.275,-2.955,4.34,1.68,0.77
,-9.466,-0.378,-2.857,-9.435,-0.361,-3.017,5.11,1.75,0.56
,-9.5,-0.103,-2.886,-9.483,-0.352,-3.192,4.06,1.89,0.49
12418.0,-9.488,-0.397,-2.967,-9.445,-0.072,-3.12,4.34,2.87,0.91
,-9.418,-0.412,-2.903,-9.426,-0.067,-3.36,4.83,3.15,1.12
,-9.459,-0.385,-2.91,-9.33,-0.194,-3.427,5.39,3.29,1.05
,-9.514,-0.184,-3.053,-9.349,-0.385,-3.446,4.83,3.08,0.77
12493.0,-9.351,-0.548,-3.408,-9.462,-0.223,-3.056,2.59,2.03,0.14
,-9.397,-0.531,-3.307,-9.452,-0.251,-2.991,4.34,1.82,0.21
,-9.428,-0.409,-3.245,-9.414,-0.261,-2.972,5.88,1.54,0.42
,-9.442,-0.299,-3.166,-9.454,-0.402,-2.85,6.16,1.4,0.35
12569.0,-9.428,-0.383,-2.769,-9.416,-0.361,-3.25,3.85,2.17,0.21
,-9.445,-0.287,-2.881,-9.349,-0.462,-3.283,3.5,2.17,0.14
,-9.423,-0.208,-3.008,-9.378,-0.503,-3.305,2.8,2.17,0.0
,-9.38,-0.268,-3.07,-9.416,-0.541,-3.221,1.33,2.52,-0.14
12645.0,-9.454,-0.392,-3.271,-9.39,-0.457,-3.041,3.15,1.89,0.14
,-9.395,-0.352,-3.166,-9.383,-0.404,-3.041,2.94,1.82,0.21
,-9.351,-0.428,-3.092,-9.383,-0.347,-2.764,2.31,1.89,0.28
,-9.38,-0.455,-3.068,-9.368,-0.438,-2.845,2.87,1.96,0.49
12721.0,-9.483,-0.421,-2.819,-9.505,-0.246,-3.355,4.2,2.87,0.91
,-9.471,-0.352,-2.697,-9.45,-0.27,-3.544,3.29,3.29,0.91
,-9.45,-0.345,-2.929,-9.368,-0.244,-3.625,1.82,3.43,0.63
,-9.505,-0.337,-3.156,-9.34,-0.316,-3.601,0.63,3.71,0.35
12796.0,-9.316,-0.304,-3.573,-9.387,-0.51,-3.099,0.35,1.89,0.07
,-9.404,-0.347,-3.597,-9.392,-0.57,-2.85,1.33,1.4,0.21
,-9.313,-0.426,-3.398,-9.44,-0.378,-2.924,2.1,1.12,0.35
,-9.407,-0.443,-3.302,-9.442,-0.254,-2.984,2.8,0.98,0.42
12872.0,-9.404,-0.232,-3.027,-9.399,-0.373,-3.13,0.49,1.26,0.35
,-9.395,-0.352,-3.058,-9.464,-0.333,-3.209,-0.56,1.47,0.56
,-9.371,-0.457,-3.106,-9.433,-0.227,-3.326,-0.14,1.54,0.56
,-9.351,-0.464,-3.123,-9.344,-0.23,-3.467,1.47,1.75,0.7
12947.0,-9.275,-0.345,-3.381,-9.428,-0.376,-2.912,1.26,0.84,0.7
,-9.292,-0.498,-3.403,-9.435,-0.311,-2.826,1.33,0.77,0.77
,-9.378,-0.584,-3.23,-9.466,-0.237,-2.785,2.59,0.7,0.77
,-9.402,-0.529,-3.111,-9.452,-0.201,-2.876,3.85,0.7,0.84
13023.0,-9.414,-0.309,-3.053,-9.397,-0.479,-3.092,0.63,1.33,0.63
,-9.373,-0.335,-3.151,-9.459,-0.337,-3.113,0.35,1.33,0.56
,-9.325,-0.507,-3.111,-9.471,-0.309,-3.18,0.98,1.68,0.63
,-9.371,-0.474,-3.099,-9.414,-0.313,-3.3,2.17,1.75,0.77
13099.0,-9.354,-0.409,-3.338,-9.411,-0.34,-3.051,0.63,1.12,0.63
,-9.375,-0.474,-3.388,-9.481,-0.38,-2.946,1.61,1.19,0.77
,-9.368,-0.479,-3.35,-9.414,-0.397,-2.778,3.15,1.19,0.98
,-9.349,-0.402,-3.214,-9.421,-0.421,-2.754,4.48,1.12,1.12
13175.0,-9.43,-0.445,-2.826,-9.509,-0.347,-3.128,2.59,2.52,1.19
,-9.447,-0.436,-2.867,-9.402,-0.141,-3.4,2.24,3.01,1.4
,-9.351,-0.421,-2.788,-9.363,-0.103,-3.508,2.1,3.5,1.4
,-9.395,-0.421,-2.843,-9.323,-0.345,-3.597,1.89,3.57,1.4
13251.0,-9.313,-0.412,-3.592,-9.38,-0.302,-3.175,-0.07,2.31,0.77
,-9.349,-0.407,-3.549,-9.428,-0.366,-3.116,1.68,1.96,0.77
,-9.421,-0.349,-3.369,-9.442,-0.361,-3.163,3.22,1.54,0.84
,-9.452,-0.309,-3.262,-9.414,-0.44,-3.072,3.5,1.19,0.77
13326.0,-9.402,-0.433,-2.938,-9.407,-0.213,-3.24,3.71,1.61,0.91
,-9.423,-0.397,-2.994,-9.39,-0.287,-3.314,3.43,1.89,0.84
,-9.407,-0.29,-3.075,-9.32,-0.349,-3.357,2.66,1.96,0.84
,-9.39,-0.239,-3.118,-9.359,-0.445,-3.475,1.96,2.03,0.84
13402.0,-9.407,-0.292,-3.372,-9.404,-0.33,-3.235,3.71,1.61,0.77
,-9.38,-0.342,-3.233,-9.368,-0.357,-3.166,3.43,1.54,0.7
,-9.426,-0.392,-3.118,-9.385,-0.438,-3.065,3.36,1.54,0.84
,-9.342,-0.337,-3.235,-9.397,-0.416,-3.135,3.15,1.33,0.7
13478.0,-9.474,-0.34,-2.905,-9.38,-0.333,-3.161,3.36,1.82,0.91
,-9.44,-0.359,-2.986,-9.392,-0.479,-3.128,2.59,1.82,0.84
,-9.416,-0.302,-3.022,-9.402,-0.505,-3.022,1.82,2.1,0.7
,-9.349,-0.29,-3.125,-9.438,-0.51,-3.051,1.19,2.31,0.63
13554.0,-9.404,-0.369,-3.276,-9.383,-0.316,-3.295,1.33,2.31,0.42
,-9.416,-0.285,-3.104,-9.337,-0.438,-3.072,1.68,2.45,0.56
,-9.385,-0.213,-3.166,-9.392,-0.503,-3.24,1.05,2.31,0.42
,-9.349,-0.232,-3.264,-9.418,-0.385,-3.211,0.28,2.24,0.28
13629.0,-9.359,-0.242,-3.175,-9.452,-0.318,-3.099,3.57,2.45,0.84
,-9.311,-0.263,-3.254,-9.507,-0.376,-3.096,2.87,2.31,0.7
,-9.416,-0.299,-3.455,-9.371,-0.211,-3.113,1.82,2.03,0.49
,-9.414,-0.409,-3.214,-9.325,-0.206,-3.151,1.19,2.31,0.56
13705.0,-9.304,-0.457,-2.871,-9.39,-0.383,-3.235,-7.0,2.17,0.0
,-9.354,-0.622,-2.965,-9.39,-0.436,-3.233,-6.44,2.24,0.07
,-9.378,-0.428,-3.003,-9.284,-0.488,-3.293,-5.11,2.03,0.14
,-9.438,-0.349,-3.195,-9.318,-0.565,-3.199,-5.11,1.68,0.14
13780.0,-9.404,-0.462,-3.326,-9.368,-0.297,-3.317,-4.06,1.4,1.4
,-9.375,-0.462,-3.362,-9.368,-0.359,-3.206,-3.57,1.26,1.61
,-9.404,-0.534,-3.238,-9.34,-0.455,-3.242,-1.89,1.47,2.1
,-9.471,-0.347,-3.364,-9.337,-0.486,-3.262,-0.77,1.05,2.38
13856.0,-9.337,-0.443,-3.226,-9.306,-0.471,-2.936,-1.96,1.05,2.38
,-9.423,-0.483,-3.223,-9.418,-0.414,-2.754,-1.33,1.68,2.8
,-9.318,-0.352,-3.223,-9.548,-0.213,-3.015,-0.56,1.75,3.01
,-9.227,-0.4,-3.058,-9.418,0.086,-3.271,-0.14,2.17,3.36
13932.0,-9.332,0.084,-3.477,-9.399,-0.144,-2.986,-0.21,2.24,3.85
,-9.27,-0.179,-3.565,-9.39,0.029,-2.752,-1.61,2.66,3.85
,-9.256,-0.404,-3.326,-9.474,0.069,-2.848,-0.49,3.43,4.06
,-9.34,-0.388,-2.97,-9.299,0.062,-2.917,1.4,3.92,4.13
14008.0,-9.239,-0.215,-2.773,-9.478,0.249,-3.446,-7.07,4.13,2.94
,-9.265,-0.476,-2.654,-9.328,0.184,-3.702,-6.3,5.6,3.57
,-9.404,-0.457,-2.534,-9.21,-0.16,-3.69,-3.71,6.79,4.06
,-9.564,-0.077,-3.075,-9.208,-0.572,-3.47,-2.17,6.23,3.78
14084.0,-9.385,-0.701,-3.506,-9.304,0.139,-3.139,0.07,6.93,4.2
,-9.428,-0.345,-3.403,-9.301,-0.187,-2.668,3.15,6.3,4.27
,-9.38,0.002,-3.446,-9.363,-0.383,-2.156,3.64,5.25,3.99
,-9.428,0.182,-3.408,-9.418,-0.165,-2.905,1.96,4.69,3.78
14159.0,-9.227,0.055,-3.285,-9.21,-0.16,-3.757,-1.26,6.16,3.36
,-9.127,0.06,-3.687,-9.246,0.227,-3.35,-1.26,6.23,4.13
,-9.086,-0.203,-3.915,-9.296,0.455,-3.415,0.49,7.07,4.9
,-9.184,-0.459,-3.582,-9.172,0.447,-3.403,6.3,8.89,5.74
14235.0,-9.265,0.223,-3.056,-9.241,-0.029,-2.852,11.41,8.54,3.99
,-9.289,0.146,-3.087,-9.215,-0.048,-3.037,10.29,8.89,3.57
,-9.385,0.065,-2.86,-9.261,-0.151,-3.266,9.66,9.52,3.01
,-9.225,-0.081,-2.771,-9.256,-0.134,-3.592,8.54,10.5,2.73
14311.0,-9.284,-0.294,-3.704,-8.978,-0.172,-3.898,3.22,11.9,3.22
,-9.127,-0.428,-3.374,-9.16,-0.646,-3.826,3.99,12.46,4.06
,-9.086,-0.201,-3.333,-9.301,-1.024,-3.647,5.88,11.69,4.41
,-9.129,-0.055,-3.64,-9.268,-0.778,-3.022,5.74,10.78,3.5
14387.0,-9.172,0.036,-2.958,-8.851,-0.146,-4.556,18.06,14.91,5.81
,-9.203,0.928,-3.436,-8.775,-0.737,-3.853,16.38,12.6,3.78
,-9.675,1.053,-4.068,-8.945,-0.747,-3.896,6.65,9.59,2.17
,-9.287,0.677,-4.597,-9.0,-0.421,-3.886,-4.9,8.68,2.52
14462.0,-9.186,-0.22,-4.128,-8.947,-0.51,-3.695,5.39,12.11,3.22
,-9.198,-0.493,-3.989,-9.28,-0.196,-3.955,3.36,12.67,4.34
,-9.22,-0.943,-3.429,-9.351,0.273,-4.36,3.57,14.35,6.37
,-9.04,-0.89,-3.546,-9.191,0.342,-4.161,7.14,14.21,8.12
14538.0,-8.93,0.249,-3.845,-9.229,0.809,-4.133,7.07,13.86,8.96
,-8.825,0.33,-3.436,-9.021,0.438,-4.013,7.42,13.72,8.4
,-8.918,0.838,-3.924,-8.722,0.055,-3.647,6.37,11.34,7.07
,-9.15,1.05,-4.183,-8.909,-0.007,-3.613,2.45,9.66,5.67
14613.0,-9.158,0.251,-3.716,-8.976,0.964,-4.125,1.89,13.51,3.57
,-9.208,0.605,-3.738,-9.055,1.05,-4.255,4.41,14.07,3.15
,-9.036,0.742,-3.946,-9.167,1.01,-4.544,3.85,14.28,2.94
,-8.983,0.859,-3.853,-8.832,0.833,-4.633,2.45,14.91,2.52
14689.0,-8.703,0.476,-4.578,-9.194,-0.718,-4.554,-3.43,13.93,-1.82
,-8.796,0.012,-4.436,-9.033,-0.696,-4.537,-3.29,14.49,-2.24
,-9.129,-0.201,-4.468,-8.871,-0.711,-4.664,-1.54,14.42,-2.45
,-9.222,-0.503,-4.587,-8.667,-0.723,-4.628,0.35,14.0,-2.17
14765.0,-8.574,-0.773,-4.731,-9.06,0.33,-5.032,1.68,8.96,3.22
,-8.509,-0.756,-4.879,-8.837,0.373,-4.874,1.26,8.33,5.11
,-8.854,-0.632,-4.803,-8.83,0.002,-4.484,2.87,8.19,6.44
,-9.033,-0.158,-4.831,-8.677,-0.084,-4.326,4.69,7.7,7.07
14841.0,-8.5,-0.12,-4.386,-9.057,0.708,-4.192,-4.9,4.48,10.92
,-8.576,-0.179,-4.501,-9.038,0.998,-4.101,-2.73,4.9,11.27
,-8.88,0.057,-4.482,-8.942,1.285,-4.305,1.19,5.6,10.99
,-9.074,0.342,-4.353,-8.894,1.524,-4.35,4.97,6.65,10.22
14916.0,-8.933,1.46,-4.302,-8.902,0.318,-4.7,3.08,10.36,2.03
,-9.014,1.106,-4.269,-8.758,0.091,-4.934,1.68,11.34,-0.21
,-9.062,0.773,-4.305,-8.799,0.148,-5.106,1.54,11.76,-1.4
,-8.969,0.483,-4.396,-8.739,0.031,-4.996,3.22,12.39,-1.75
14992.0,-8.342,-0.089,-5.173,-8.985,0.27,-5.159,4.76,5.67,1.26
,-8.181,-0.201,-5.152,-8.789,0.55,-5.169,1.89,5.46,2.38
,-8.595,-0.246,-4.963,-8.768,0.878,-5.08,0.7,5.53,3.29
,-9.002,-0.081,-5.042,-8.83,0.739,-4.934,0.84,5.04,3.85
15068.0,-8.631,0.641,-4.752,-8.947,-0.261,-4.633,-2.1,3.43,2.1
,-8.533,0.45,-4.518,-9.064,-0.285,-4.561,-2.66,3.08,2.94
,-8.67,0.148,-4.63,-8.832,0.053,-4.7,-3.29,2.38,3.64
,-8.77,-0.091,-4.688,-8.67,0.278,-4.8,-2.52,2.38,3.99
15144.0,-8.583,0.488,-4.927,-8.868,-0.299,-4.975,2.31,2.38,4.13
,-8.564,0.318,-4.901,-8.871,-0.438,-4.716,0.56,2.94,4.62
,-8.617,0.124,-4.913,-8.758,-0.359,-4.525,-0.42,3.08,4.97
,-8.868,-0.031,-4.886,-8.722,0.203,-4.58,-0.56,2.73,5.53
15220.0,-8.758,0.677,-4.429,-8.263,1.464,-4.874,9.8,2.38,5.81
,-9.0,1.149,-4.48,-8.72,1.192,-4.695,10.43,1.96,4.97
,-8.868,1.658,-4.7,-8.799,0.861,-4.678,7.49,0.56,4.13
,-8.318,1.685,-4.812,-8.871,0.596,-4.551,2.8,0.77,3.57
15295.0,-8.914,0.457,-4.527,-8.933,0.603,-4.508,-0.98,1.96,-2.03
,-8.847,0.313,-4.664,-8.811,0.986,-4.606,-0.35,2.24,-2.17
,-8.674,0.273,-4.556,-8.445,1.285,-4.74,1.47,2.45,-2.17
,-8.631,0.321,-4.618,-8.313,1.024,-4.898,4.13,3.08,-2.73
15371.0,-8.54,0.412,-4.575,-8.784,-0.206,-4.657,-3.36,2.59,-3.29
,-8.866,0.057,-4.515,-8.813,0.053,-4.858,-3.43,2.66,-3.57
,-8.957,-0.179,-4.544,-8.528,0.309,-4.953,-1.68,1.75,-3.92
,-8.894,-0.244,-4.664,-8.375,0.239,-4.882,0.42,1.4,-3.64
15446.0,-8.502,0.244,-4.987,-8.732,0.235,-4.984,1.47,1.61,-1.26
,-8.801,0.172,-4.977,-8.614,0.325,-4.975,1.68,2.1,-1.05
,-9.012,0.189,-4.932,-8.416,0.132,-4.855,2.94,2.38,-1.26
,-9.026,0.191,-4.795,-8.512,-0.062,-4.74,3.71,2.03,-1.89
15522.0,-8.823,-0.084,-4.815,-8.823,0.06,-4.944,4.27,0.84,0.77
,-8.942,-0.175,-4.862,-8.433,-0.038,-4.893,4.9,0.28,0.14
,-8.995,-0.175,-4.91,-8.143,0.014,-5.075,6.51,-0.28,-0.14
,-8.988,-0.029,-4.965,-8.399,0.294,-5.152,7.14,-0.77,0.42
15598.0,-9.045,0.428,-5.008,-8.878,0.467,-4.554,8.05,-2.38,3.43
,-9.215,0.68,-4.846,-8.672,0.22,-4.671,8.05,-2.8,2.59
,-8.871,0.627,-4.853,-8.959,0.246,-4.563,7.35,-2.59,2.17
,-8.698,0.526,-4.786,-8.914,0.067,-4.745,6.65,-2.1,1.68
15674.0,-8.507,-0.101,-4.841,-8.914,1.034,-4.475,6.79,-3.08,2.8
,-8.466,-0.134,-4.635,-9.179,1.039,-4.353,8.61,-2.38,3.99
,-8.478,0.194,-4.566,-9.292,0.919,-4.293,10.01,-2.1,4.41
,-8.624,0.735,-4.58,-8.978,0.778,-4.372,10.64,-1.96,3.71
15749.0,-8.715,0.505,-4.255,-8.631,-0.01,-4.618,3.01,-1.26,0.14
,-8.681,0.179,-4.355,-8.765,-0.177,-4.633,2.17,-1.12,0.35
,-8.552,-0.108,-4.52,-8.961,-0.514,-4.609,2.59,-0.77,0.91
,-8.614,-0.232,-4.429,-9.038,-0.481,-4.539,4.41,-0.21,1.75
15825.0,-8.813,-0.254,-4.549,-8.722,0.543,-4.63,8.47,0.35,4.69
,-8.751,0.165,-4.453,-8.923,0.572,-4.611,9.1,-0.14,5.32
,-8.653,0.593,-4.623,-8.866,0.565,-4.661,7.7,-0.63,4.9
,-8.562,0.73,-4.719,-8.722,0.505,-4.501,5.18,-0.42,4.41
15901.0,-8.67,0.644,-4.444,-8.665,1.089,-4.633,5.6,1.26,3.43
,-8.76,0.617,-4.367,-8.89,1.12,-4.666,5.74,1.19,2.8
,-8.744,0.622,-4.405,-8.942,0.979,-4.413,5.95,0.63,2.31
,-8.48,0.84,-4.539,-8.856,0.694,-4.432,6.02,0.84,1.68
15977.0,-8.825,0.345,-4.489,-8.741,-0.409,-4.46,-0.84,2.8,-2.38
,-8.832,0.34,-4.489,-8.799,-0.577,-4.597,0.35,3.08,-2.59
,-8.825,0.258,-4.575,-8.89,-0.742,-4.611,0.84,2.94,-2.8
,-8.768,-0.103,-4.472,-8.662,-0.826,-4.724,0.63,2.73,-2.38
16053.0,-8.576,-0.531,-4.664,-8.808,0.218,-4.671,3.43,3.64,2.24
,-8.717,0.022,-4.762,-8.825,0.239,-4.659,3.99,3.85,3.08
,-8.837,0.218,-4.793,-8.78,0.313,-4.736,2.52,3.78,3.43
,-8.808,0.203,-4.676,-8.775,0.402,-4.745,0.98,3.64,3.92
16128.0,-8.823,0.766,-4.623,-8.691,1.113,-4.582,5.46,4.06,3.43
,-8.789,1.134,-4.604,-8.598,0.73,-4.568,6.23,4.13,2.24
,-8.804,1.307,-4.592,-8.746,0.426,-4.46,5.11,4.06,1.12
,-8.751,1.17,-4.532,-8.811,0.306,-4.554,2.73,3.99,0.42
16204.0,-8.794,0.17,-4.652,-8.83,0.223,-4.939,-2.94,5.39,-0.49
,-8.737,0.069,-4.621,-8.947,0.232,-4.848,-2.38,5.53,0.14
,-8.71,0.05,-4.7,-8.701,0.089,-4.755,-1.89,5.32,0.7
,-8.741,0.084,-4.819,-8.665,0.06,-4.764,-1.4,5.32,0.98
16279.0,-8.698,0.105,-4.958,-8.918,0.285,-4.819,-2.03,4.27,2.1
,-8.689,0.031,-4.958,-8.811,0.586,-4.996,-2.17,4.06,2.73
,-8.713,0.002,-4.764,-8.78,0.828,-5.051,-1.82,4.27,3.15
,-8.868,0.096,-4.719,-8.631,0.821,-5.044,-0.91,4.27,3.43
16355.0,-8.598,0.553,-4.915,-8.789,-0.12,-4.733,-2.73,2.31,2.24
,-8.66,0.196,-4.791,-9.105,0.227,-4.757,-3.64,1.89,2.38
,-8.574,-0.134,-4.704,-9.206,0.476,-4.822,-3.64,1.82,2.8
,-8.607,-0.153,-4.755,-8.978,0.668,-4.807,-2.1,1.82,3.29
16431.0,-8.691,0.663,-4.958,-8.638,0.593,-4.953,-1.26,-0.56,2.87
,-8.588,0.598,-4.965,-8.746,0.814,-4.8,-2.59,-0.84,3.08
,-8.698,0.407,-4.822,-8.693,1.125,-4.874,-3.08,-1.19,3.22
,-8.722,0.421,-4.795,-8.703,1.082,-4.865,-2.24,-1.05,3.01
16507.0,-8.827,0.826,-4.862,-8.698,0.696,-4.81,-8.4,-1.4,-1.47
,-8.717,0.534,-4.74,-8.801,0.433,-4.647,-8.75,-1.47,-1.19
,-8.612,0.507,-4.853,-8.717,0.235,-4.712,-6.37,-1.47,-1.33
,-8.631,0.627,-4.901,-8.722,0.127,-4.745,-4.48,-1.96,-1.75
16582.0,-8.708,0.17,-4.795,-8.875,0.828,-4.712,1.54,-2.8,-0.7
,-8.703,0.261,-4.798,-8.945,0.909,-4.561,4.2,-3.15,-0.35
,-8.744,0.38,-4.721,-8.799,0.883,-4.635,5.6,-3.36,-0.56
,-8.856,0.61,-4.707,-8.744,0.66,-4.623,6.02,-3.43,-1.19
16658.0,-8.909,0.369,-4.618,-8.933,0.101,-4.791,0.56,-2.87,-3.08
,-8.796,0.014,-4.58,-9.057,0.258,-4.8,2.59,-2.94,-3.08
,-8.698,-0.034,-4.649,-8.885,0.426,-4.867,6.02,-2.59,-2.66
,-8.734,0.084,-4.803,-8.684,0.469,-4.872,9.03,-2.52,-2.24
16734.0,-8.593,0.29,-4.831,-9.024,0.294,-4.69,6.02,-3.43,-0.28
,-8.531,0.084,-4.824,-9.002,0.634,-4.817,4.69,-3.71,0.77
,-8.631,-0.022,-4.63,-8.825,0.567,-4.745,5.53,-3.64,1.61
,-8.823,0.093,-4.659,-8.552,0.503,-4.547,7.98,-4.13,1.96
16810.0,-8.531,0.421,-4.487,-9.04,0.737,-4.276,5.11,-7.77,1.89
,-8.677,0.364,-4.436,-8.875,0.739,-4.204,5.53,-7.35,1.68
,-8.899,0.369,-4.331,-8.698,0.72,-4.212,6.72,-7.07,1.82
,-9.007,0.581,-4.415,-8.741,0.546,-4.276,8.12,-7.14,2.17
16885.0,-8.871,0.385,-4.298,-9.122,0.739,-4.302,5.04,-6.37,0.56
,-8.933,0.251,-4.281,-9.057,0.969,-4.168,5.81,-6.09,0.49
,-8.995,0.273,-4.243,-8.873,1.139,-4.307,7.07,-5.74,0.28
,-9.062,0.45,-4.302,-8.681,1.079,-4.372,8.54,-5.25,-0.21
16961.0,-8.985,0.974,-4.448,-9.0,0.859,-4.408,-2.45,-5.53,-2.73
,-8.878,0.749,-4.537,-8.916,0.833,-4.401,-1.47,-6.09,-4.69
,-8.952,0.625,-4.434,-9.031,0.627,-4.302,-0.7,-6.16,-5.04
,-8.926,0.73,-4.429,-9.04,0.378,-4.274,-0.07,-5.81,-5.6
17037.0,-9.002,0.165,-4.413,-9.009,0.01,-4.41,-2.87,-4.69,-7.0
,-8.894,-0.019,-4.355,-9.069,0.112,-4.391,-1.68,-3.71,-6.79
,-8.921,-0.235,-4.312,-9.076,0.069,-4.42,-0.07,-3.15,-6.3
,-8.966,-0.172,-4.379,-9.014,-0.019,-4.384,1.96,-3.22,-6.3
17112.0,-8.942,-0.244,-4.391,-8.957,-0.203,-4.166,-1.19,-4.34,-3.36
,-8.976,-0.385,-4.252,-9.076,0.053,-4.142,-0.35,-4.48,-2.66
,-8.966,-0.385,-4.228,-9.143,0.084,-4.075,0.98,-4.9,-2.17
,-8.969,-0.306,-4.235,-9.012,0.072,-4.022,2.45,-4.97,-1.75
17188.0,-8.978,0.239,-4.032,-8.906,0.285,-4.063,0.63,-10.01,-0.35
,-9.074,0.201,-3.869,-8.751,0.06,-4.015,-0.21,-9.8,-0.84
,-9.301,0.16,-3.867,-8.832,0.065,-4.128,0.21,-9.59,-1.05
,-9.139,0.354,-4.049,-9.009,0.168,-3.958,0.21,-9.8,-0.91
17264.0,-9.117,0.242,-3.743,-9.296,0.847,-3.898,9.31,-6.02,0.56
,-9.052,0.495,-3.673,-9.232,0.524,-3.975,10.22,-5.39,0.7
,-9.153,0.675,-3.501,-9.107,0.129,-3.944,9.38,-5.25,0.63
,-9.342,0.909,-3.769,-9.069,-0.041,-3.903,6.02,-6.72,-0.14
17340.0,-9.04,-0.091,-3.654,-9.206,0.105,-3.754,1.75,-6.79,-2.24
,-9.136,-0.086,-3.613,-9.119,0.165,-3.912,2.38,-7.21,-2.45
,-9.095,-0.067,-3.515,-9.21,0.112,-3.745,2.59,-7.21,-2.17
,-9.17,-0.002,-3.441,-9.284,0.041,-3.695,3.01,-7.28,-1.47
17415.0,-9.213,0.053,-3.532,-9.21,0.084,-3.381,1.68,-7.7,-2.24
,-9.134,0.203,-3.668,-9.275,0.034,-3.326,1.68,-8.05,-2.03
,-9.005,0.235,-3.551,-9.174,0.235,-3.644,0.84,-8.05,-1.54
,-9.16,0.098,-3.331,-9.069,0.282,-3.553,1.33,-7.56,-1.26
17491.0,-9.232,0.096,-3.355,-9.141,0.053,-3.329,2.73,-6.51,-0.98
,-9.268,0.196,-3.501,-9.134,-0.069,-3.314,3.99,-6.79,-1.26
,-9.304,0.194,-3.352,-9.208,0.065,-3.173,5.39,-6.72,-1.61
,-9.165,0.196,-3.496,-9.268,0.168,-3.125,4.2,-7.07,-1.89
17567.0,-9.328,0.392,-3.25,-9.344,-0.34,-3.087,2.94,-5.88,-2.03
,-9.261,0.404,-3.398,-9.294,-0.309,-2.795,-0.42,-5.95,-2.38
,-9.227,0.086,-3.297,-9.404,-0.072,-2.8,-2.1,-5.6,-2.31
,-9.33,-0.148,-3.19,-9.311,0.165,-3.223,-1.96,-5.18,-2.59
17643.0,-9.184,0.069,-3.522,-9.39,0.428,-3.637,-1.4,-3.92,-1.82
,-9.076,-0.23,-3.592,-9.39,0.763,-3.546,-1.89,-3.57,-1.05
,-9.057,-0.211,-3.951,-9.287,0.577,-3.384,0.63,-3.64,-0.7
,-9.129,0.036,-3.778,-9.383,0.249,-3.192,5.11,-3.71,-0.7
17718.0,-9.371,0.036,-3.144,-9.318,-0.06,-3.144,1.54,-3.85,-2.17
,-9.316,-0.069,-3.096,-9.265,-0.105,-3.262,2.1,-3.5,-2.17
,-9.347,-0.12,-3.001,-9.253,-0.112,-3.228,3.08,-3.08,-2.1
,-9.284,-0.086,-2.982,-9.342,-0.146,-3.46,3.08,-3.01,-2.03
17794.0,-9.407,-0.146,-3.266,-9.426,0.175,-2.699,1.68,-2.66,-1.4
,-9.466,-0.235,-2.998,-9.33,0.445,-3.061,2.52,-2.03,-0.91
,-9.418,-0.258,-2.838,-9.277,0.402,-3.089,3.5,-1.54,-0.56
,-9.373,-0.081,-2.893,-9.292,0.079,-3.228,4.41,-1.47,-0.7
17869.0,-9.275,-0.17,-3.348,-9.399,0.244,-3.783,-1.05,-0.14,-1.61
,-9.318,-0.191,-3.309,-9.335,0.031,-3.711,2.1,-0.07,-1.4
,-9.495,0.038,-3.374,-9.268,-0.148,-3.628,4.48,-0.21,-1.4
,-9.521,0.258,-3.573,-9.311,-0.244,-3.324,4.34,-0.91,-1.82
17945.0,-9.409,-0.225,-2.996,-9.366,-0.007,-3.436,6.93,-0.98,-1.47
,-9.5,0.072,-2.912,-9.34,-0.268,-3.51,7.42,-1.19,-1.75
,-9.476,0.321,-3.228,-9.316,-0.261,-3.915,4.55,-2.24,-2.73
,-9.447,0.182,-3.216,-9.241,-0.148,-3.714,0.84,-2.17,-2.94
18021.0,-9.275,-0.124,-3.58,-9.471,-0.165,-2.759,7.35,-2.94,-1.61
,-9.375,-0.218,-3.388,-9.452,-0.211,-2.441,8.12,-3.29,-1.61
,-9.404,-0.273,-3.077,-9.418,-0.218,-2.182,8.96,-3.36,-1.4
,-9.464,-0.194,-2.936,-9.445,-0.156,-2.221,9.87,-3.01,-1.05
18097.0,-9.517,-0.074,-2.142,-9.27,-0.251,-3.259,6.72,1.19,-1.05
,-9.5,0.084,-2.63,-9.239,-0.371,-3.218,4.41,1.54,-1.33
,-9.399,0.036,-2.776,-9.351,-0.431,-3.01,1.61,1.82,-1.54
,-9.332,-0.077,-3.171,-9.447,-0.424,-2.95,-0.28,2.17,-1.75
18173.0,-9.44,-0.261,-3.008,-9.124,-0.077,-4.338,1.82,2.94,-0.98
,-9.469,0.019,-3.441,-9.203,-0.285,-3.994,0.91,2.52,-1.19
,-9.397,0.249,-4.008,-9.354,-0.196,-3.795,-1.26,1.33,-1.89
,-9.213,0.096,-4.123,-9.469,-0.084,-3.429,-2.73,0.63,-1.89
18248.0,-9.471,-0.242,-2.972,-9.466,-0.261,-2.383,2.45,-2.17,-1.82
,-9.421,-0.371,-2.644,-9.435,-0.172,-2.541,1.05,-1.75,-1.54
,-9.545,-0.467,-2.56,-9.462,-0.141,-2.682,0.77,-1.4,-1.47
,-9.426,-0.534,-2.271,-9.416,-0.017,-3.053,1.47,-0.42,-1.12
18324.0,-9.349,-0.347,-3.156,-9.342,0.127,-3.817,-2.38,2.17,-0.56
,-9.373,-0.392,-3.403,-9.318,0.055,-3.652,-0.07,2.03,-0.21
,-9.371,-0.366,-3.692,-9.361,-0.275,-3.218,3.36,1.61,0.07
,-9.306,-0.096,-3.652,-9.502,-0.438,-3.101,5.88,1.12,0.21
18400.0,-9.481,-0.536,-3.02,-9.399,-0.156,-2.642,8.19,-0.21,0.0
,-9.471,-0.337,-3.013,-9.423,-0.081,-2.651,10.01,-0.21,0.28
,-9.414,-0.225,-2.871,-9.416,-0.055,-2.663,10.57,0.28,0.7
,-9.332,-0.22,-2.733,-9.466,-0.077,-2.589,10.08,0.63,0.91
18476.0,-9.495,-0.014,-2.687,-9.28,-0.457,-3.565,5.88,3.15,0.35
,-9.445,0.093,-2.994,-9.304,-0.617,-3.412,4.2,3.29,0.0
,-9.43,-0.01,-3.259,-9.38,-0.548,-3.262,2.45,3.01,-0.42
,-9.409,-0.105,-3.527,-9.399,-0.414,-2.974,0.91,2.52,-0.63
18551.0,-9.538,-0.256,-2.843,-9.356,-0.175,-3.381,6.16,2.73,0.35
,-9.519,-0.184,-2.771,-9.323,-0.39,-3.29,4.41,2.94,0.35
,-9.428,-0.168,-2.912,-9.373,-0.488,-3.276,2.59,2.8,0.07
,-9.383,-0.127,-3.209,-9.416,-0.526,-3.171,1.68,2.52,-0.14
18627.0,-9.454,-0.371,-2.996,-9.397,-0.273,-3.307,7.0,3.43,0.7
,-9.536,-0.215,-3.12,-9.33,-0.323,-3.319,6.02,3.22,0.7
,-9.426,-0.11,-3.171,-9.363,-0.311,-3.364,3.78,3.22,0.42
,-9.366,-0.175,-3.233,-9.421,-0.28,-3.372,1.47,3.08,0.14
18702.0,-9.385,-0.297,-3.336,-9.387,-0.388,-3.168,2.52,2.59,0.28
,-9.385,-0.285,-3.312,-9.404,-0.392,-3.218,3.36,2.24,0.42
,-9.347,-0.256,-3.345,-9.44,-0.378,-3.247,3.71,2.03,0.56
,-9.335,-0.357,-3.262,-9.414,-0.251,-3.388,4.13,1.96,0.63
18778.0,-9.28,-0.211,-3.314,-9.414,-0.232,-2.893,3.01,1.75,0.7
,-9.265,-0.4,-3.175,-9.43,-0.232,-2.831,2.73,1.89,0.84
,-9.347,-0.357,-3.07,-9.474,-0.282,-2.769,3.43,1.89,0.91
,-9.387,-0.323,-3.005,-9.426,-0.263,-2.828,4.06,1.96,0.91
18854.0,-9.454,-0.117,-2.989,-9.268,-0.407,-3.446,-0.56,3.57,0.35
,-9.428,-0.048,-3.242,-9.351,-0.361,-3.379,-1.61,3.71,0.07
,-9.308,-0.017,-3.362,-9.363,-0.249,-3.302,-2.94,3.64,-0.14
,-9.261,-0.294,-3.352,-9.416,-0.242,-3.252,-3.78,3.92,-0.07
18930.0,-9.39,-0.258,-3.278,-9.351,-0.452,-3.123,-0.77,3.22,0.0
,-9.39,-0.199,-3.252,-9.409,-0.369,-3.163,-1.47,3.29,-0.14
,-9.342,-0.266,-3.214,-9.44,-0.17,-3.199,-2.31,3.22,-0.07
,-9.33,-0.459,-3.147,-9.418,-0.163,-3.175,-2.38,3.43,0.14
19006.0,-9.349,-0.211,-3.343,-9.34,-0.223,-3.668,-1.47,3.5,0.35
,-9.323,-0.258,-3.448,-9.296,-0.266,-3.661,-1.19,3.43,0.35
,-9.289,-0.292,-3.585,-9.342,-0.337,-3.568,0.07,3.01,0.35
,-9.328,-0.201,-3.664,-9.368,-0.431,-3.467,1.19,2.8,0.35
19081.0,-9.368,-0.428,-3.321,-9.378,-0.263,-3.12,3.15,1.82,0.91
,-9.375,-0.414,-3.247,-9.323,-0.218,-3.242,4.06,1.82,1.26
,-9.404,-0.33,-3.185,-9.363,-0.232,-3.329,4.83,1.96,1.4
,-9.383,-0.251,-3.175,-9.359,-0.235,-3.35,4.76,2.1,1.47
19157.0,-9.347,-0.249,-3.374,-9.33,-0.194,-3.357,2.31,2.17,1.19
,-9.363,-0.23,-3.467,-9.308,-0.151,-3.242,3.08,1.96,1.26
,-9.351,-0.278,-3.498,-9.385,-0.206,-3.23,3.85,1.75,1.33
,-9.289,-0.215,-3.482,-9.368,-0.196,-3.23,4.69,1.68,1.33
19233.0,-9.337,-0.249,-3.216,-9.34,-0.333,-3.18,2.17,1.33,0.84
,-9.363,-0.306,-3.278,-9.39,-0.388,-3.077,1.89,1.54,0.91
,-9.275,-0.345,-3.283,-9.421,-0.235,-3.35,2.1,1.61,0.98
,-9.325,-0.292,-3.278,-9.33,-0.134,-3.412,2.59,1.68,0.91
19309.0,-9.308,-0.223,-3.482,-9.342,-0.232,-3.338,0.84,1.68,0.77
,-9.313,-0.357,-3.46,-9.375,-0.117,-3.393,1.05,1.82,0.91
,-9.34,-0.409,-3.41,-9.344,-0.079,-3.479,2.52,1.82,1.05
,-9.378,-0.318,-3.396,-9.299,-0.182,-3.431,3.57,1.47,1.26
19384.0,-9.268,-0.306,-3.41,-9.404,-0.273,-3.017,2.31,1.19,1.05
,-9.351,-0.395,-3.247,-9.289,-0.218,-3.049,3.36,1.12,1.12
,-9.38,-0.371,-3.211,-9.347,-0.206,-3.144,4.48,1.05,1.05
,-9.407,-0.27,-3.116,-9.328,-0.235,-3.214,4.41,1.26,1.19
19460.0,-9.289,-0.388,-3.159,-9.33,-0.041,-3.455,1.26,2.31,0.98
,-9.299,-0.534,-3.029,-9.311,-0.086,-3.613,2.66,2.59,1.26
,-9.438,-0.373,-3.034,-9.201,-0.239,-3.649,3.78,2.8,1.26
,-9.426,-0.117,-3.367,-9.301,-0.246,-3.743,3.71,2.45,1.12
19535.0,-9.34,-0.211,-3.561,-9.318,-0.203,-3.285,3.64,1.61,0.98
,-9.368,-0.254,-3.326,-9.32,-0.258,-3.293,3.99,1.54,1.05
,-9.418,-0.211,-3.372,-9.328,-0.278,-3.297,4.27,1.26,0.91
,-9.399,-0.177,-3.331,-9.359,-0.246,-3.309,3.78,1.05,0.77
19611.0,-9.313,-0.251,-3.329,-9.287,-0.194,-3.393,2.45,1.12,0.77
,-9.306,-0.251,-3.422,-9.344,-0.246,-3.29,2.31,1.26,0.91
,-9.383,-0.352,-3.623,-9.354,-0.28,-3.285,2.17,1.05,0.77
,-9.368,-0.244,-3.455,-9.296,-0.297,-3.245,2.8,1.19,0.91
19687.0,-9.284,-0.306,-3.269,-9.402,-0.22,-3.116,1.68,0.84,0.84
,-9.318,-0.256,-3.106,-9.325,-0.175,-3.183,2.87,1.05,0.91
,-9.378,-0.194,-3.084,-9.263,-0.206,-3.321,3.08,1.33,0.84
,-9.392,-0.199,-3.01,-9.306,-0.282,-3.357,2.59,1.54,0.77
19763.0,-9.313,-0.385,-3.436,-9.39,-0.156,-3.403,2.24,1.82,0.77
,-9.332,-0.467,-3.331,-9.33,-0.208,-3.412,3.71,1.89,1.12
,-9.426,-0.431,-3.36,-9.318,-0.361,-3.348,5.39,1.89,1.26
,-9.442,-0.268,-3.386,-9.27,-0.433,-3.307,5.95,1.75,1.26
19839.0,-9.332,-0.371,-3.216,-9.328,-0.012,-3.242,4.69,2.1,1.54
,-9.363,-0.361,-3.142,-9.306,-0.105,-3.206,5.25,2.1,1.47
,-9.373,-0.218,-3.149,-9.287,-0.194,-3.35,4.9,2.24,1.4
,-9.426,-0.057,-3.151,-9.308,-0.316,-3.372,4.06,2.45,1.47
19914.0,-9.373,-0.275,-3.357,-9.306,-0.239,-3.518,1.75,2.59,0.91
,-9.373,-0.132,-3.484,-9.316,-0.287,-3.477,2.17,2.24,0.84
,-9.332,-0.129,-3.589,-9.368,-0.328,-3.362,1.54,1.96,0.63
,-9.277,-0.122,-3.549,-9.383,-0.266,-3.269,0.63,1.96,0.56
19990.0,-9.337,-0.254,-3.288,-9.289,-0.17,-3.491,0.98,1.61,0.56
,-9.366,-0.246,-3.233,-9.294,-0.22,-3.52,1.4,1.75,0.63
,-9.378,-0.177,-3.305,-9.304,-0.22,-3.534,1.75,1.61,0.56
,-9.363,-0.156,-3.34,-9.284,-0.23,-3.489,1.54,1.54,0.49
20066.0,-9.328,-0.268,-3.396,-9.328,-0.093,-3.166,2.24,0.98,0.35
,-9.344,-0.369,-3.197,-9.392,-0.077,-3.362,2.03,1.33,0.42
,-9.397,-0.407,-3.005,-9.356,-0.129,-3.463,2.94,1.61,0.63
,-9.418,-0.242,-3.077,-9.287,-0.242,-3.398,3.36,1.89,0.56
20142.0,-9.241,-0.297,-3.245,-9.373,-0.16,-3.314,1.33,2.1,0.42
,-9.347,-0.452,-3.235,-9.318,-0.359,-3.142,2.03,2.31,0.63
,-9.354,-0.373,-3.269,-9.311,-0.22,-3.331,2.45,2.52,0.56
,-9.399,-0.299,-3.259,-9.351,-0.29,-3.197,3.22,2.59,0.84
20217.0,-9.289,-0.103,-3.161,-9.323,-0.409,-3.326,2.8,3.08,0.91
,-9.265,-0.177,-3.209,-9.395,-0.302,-3.364,1.75,3.22,0.84
,-9.363,-0.285,-3.386,-9.284,-0.227,-3.501,1.33,3.43,0.77
,-9.239,-0.172,-3.144,-9.294,-0.184,-3.573,1.47,3.64,0.98
20293.0,-9.308,-0.124,-3.692,-9.208,-0.165,-3.412,1.75,2.8,0.98
,-9.294,-0.223,-3.673,-9.241,-0.4,-3.498,1.89,2.73,1.05
,-9.304,-0.172,-3.587,-9.251,-0.251,-3.47,1.89,2.31,0.91
,-9.308,-0.278,-3.68,-9.27,-0.39,-3.4,1.47,1.89,0.77
20368.0,-9.275,-0.254,-3.486,-9.225,-0.311,-2.898,2.73,0.56,0.91
,-9.32,-0.436,-3.597,-9.404,-0.316,-2.8,2.38,0.91,1.19
,-9.263,-0.292,-3.398,-9.438,-0.17,-3.094,3.22,1.05,1.4
,-9.27,-0.409,-3.187,-9.368,-0.091,-3.187,3.85,1.4,1.61
20444.0,-9.414,-0.06,-3.302,-9.287,-0.06,-3.63,-0.14,2.59,1.33
,-9.426,-0.235,-3.345,-9.344,-0.144,-3.661,-1.33,2.66,1.19
,-9.32,-0.139,-3.472,-9.258,-0.28,-3.551,-2.73,2.31,0.63
,-9.239,-0.127,-3.489,-9.246,-0.404,-3.482,-3.5,2.03,0.42
20520.0,-9.32,-0.371,-3.51,-9.244,-0.412,-3.719,-1.75,1.12,0.42
,-9.349,-0.196,-3.415,-9.184,-0.479,-3.68,-0.63,1.12,0.56
,-9.354,-0.139,-3.556,-9.287,-0.459,-3.609,-1.26,0.63,0.42
,-9.347,-0.211,-3.764,-9.387,-0.299,-3.618,-1.75,0.0,0.35
20596.0,-9.418,-0.165,-3.544,-9.323,-0.129,-3.094,6.3,-0.91,1.47
,-9.383,-0.194,-3.34,-9.261,-0.139,-3.106,6.02,-1.12,1.68
,-9.323,-0.122,-3.214,-9.378,-0.227,-3.01,5.67,-0.98,1.61
,-9.318,-0.112,-3.099,-9.32,-0.342,-3.005,4.69,-0.77,1.54
20671.0,-9.373,-0.325,-2.953,-9.198,-0.036,-3.628,4.48,0.91,1.96
,-9.399,-0.115,-3.19,-9.234,-0.213,-3.537,4.83,0.63,1.61
,-9.347,-0.012,-3.46,-9.359,-0.246,-3.642,3.5,0.28,1.19
,-9.32,0.01,-3.544,-9.418,-0.297,-3.644,1.89,0.35,0.98
20747.0,-9.313,-0.33,-3.417,-9.342,-0.294,-2.996,-2.87,-0.84,0.35
,-9.325,-0.321,-3.369,-9.318,-0.282,-2.864,-3.85,-0.98,0.49
,-9.328,-0.225,-3.178,-9.433,-0.357,-2.704,-4.48,-1.12,0.56
,-9.402,-0.361,-3.144,-9.421,-0.036,-2.685,-4.34,-0.84,0.84
20823.0,-9.318,0.34,-2.996,-9.217,-0.357,-2.711,-0.91,0.28,1.19
,-9.225,0.242,-3.056,-9.301,-0.208,-2.852,-4.41,0.77,0.98
,-9.225,-0.108,-3.017,-9.318,-0.077,-2.668,-5.39,1.33,1.33
,-9.16,-0.282,-3.082,-9.308,-0.122,-2.718,-4.41,2.24,1.33
20899.0,-9.33,-0.278,-2.639,-9.141,-0.029,-3.64,1.05,7.42,2.66
,-9.445,-0.526,-2.472,-9.115,-0.333,-3.534,2.87,8.4,2.94
,-9.316,-0.129,-3.202,-9.16,-0.859,-3.441,2.94,7.21,2.17
,-9.227,0.12,-3.238,-9.308,-1.034,-3.08,2.45,7.28,2.31
20975.0,-9.409,-0.893,-2.417,-9.299,0.57,-3.695,7.84,11.76,5.81
,-9.404,-0.103,-2.568,-9.27,0.127,-3.62,11.69,11.55,5.81
,-9.316,0.644,-3.139,-9.208,-0.292,-3.173,10.15,10.5,4.55
,-9.167,0.926,-3.424,-9.11,-0.172,-3.228,4.34,9.8,3.57
21050.0,-9.16,0.189,-3.204,-9.344,-0.431,-4.149,0.98,12.25,1.61
,-9.33,0.579,-3.443,-9.119,-0.833,-3.618,1.12,11.34,1.33
,-9.316,0.57,-4.075,-9.184,-0.794,-3.431,-2.45,10.29,1.19
,-9.335,0.141,-4.202,-9.076,-0.436,-3.697,-5.53,10.36,1.33
21126.0,-9.1,-0.081,-3.599,-9.371,0.369,-4.039,12.39,12.32,2.87
,-9.139,-0.23,-3.613,-9.435,0.861,-4.396,11.06,12.74,3.29
,-9.095,-0.452,-3.101,-9.139,0.668,-4.379,11.13,14.21,3.57
,-9.04,-0.309,-3.321,-8.851,0.359,-4.104,12.6,14.21,3.71
21201.0,-8.801,-0.077,-3.872,-9.131,-1.223,-4.08,-3.43,12.04,0.91
,-9.031,-0.39,-4.051,-9.045,-1.508,-3.522,-2.94,10.43,0.56
,-9.22,-0.514,-4.259,-9.091,-1.005,-3.503,-2.87,8.26,0.77
,-9.275,-0.816,-4.319,-9.196,-0.318,-3.963,-3.43,7.91,1.89
21277.0,-9.337,0.127,-4.281,-8.804,0.727,-3.654,6.51,7.21,6.09
,-9.124,0.175,-4.599,-8.918,1.254,-3.659,0.56,6.37,7.35
,-8.88,0.124,-4.441,-9.072,1.194,-3.735,-2.31,7.56,7.84
,-8.849,0.156,-3.977,-9.177,0.536,-3.455,-0.56,9.17,7.42
21353.0,-9.098,-0.01,-3.415,-9.304,0.201,-3.759,-10.22,10.71,1.68
,-9.103,-0.421,-3.015,-8.985,0.287,-3.762,-6.02,12.95,1.61
,-9.217,-0.251,-3.352,-8.83,0.136,-3.819,-0.35,13.02,1.47
,-9.351,0.05,-3.367,-8.756,0.129,-3.585,3.29,12.53,1.47
21429.0,-9.014,0.471,-4.056,-8.579,-0.024,-4.826,1.4,12.88,1.75
,-9.067,0.665,-4.697,-8.579,-0.309,-4.618,0.07,11.27,0.98
,-9.026,0.593,-5.102,-8.744,-0.476,-4.415,-3.22,11.13,0.91
,-8.923,0.235,-5.13,-9.016,-0.455,-4.171,-4.9,11.9,1.4
21504.0,-9.165,-0.366,-4.166,-8.796,0.041,-4.393,6.72,13.58,2.31
,-9.115,-0.419,-4.228,-8.839,0.148,-4.544,6.3,13.37,3.22
,-8.957,-0.364,-4.032,-8.679,0.079,-4.884,7.14,13.65,4.34
,-8.844,-0.199,-4.159,-8.796,0.115,-4.793,8.75,13.09,4.83
21580.0,-8.875,0.129,-4.764,-8.83,-0.196,-4.465,6.93,11.62,6.37
,-8.844,0.053,-4.836,-8.983,0.053,-4.257,7.0,11.2,6.02
,-8.871,-0.132,-4.714,-8.722,0.541,-4.611,6.65,10.99,5.88
,-8.794,-0.184,-4.721,-8.789,0.596,-4.542,6.72,10.5,6.23
21655.0,-8.729,0.244,-4.468,-8.976,0.282,-4.422,0.49,10.08,7.0
,-8.763,0.069,-4.391,-8.945,0.581,-4.604,-0.84,10.78,7.0
,-8.799,-0.105,-4.307,-9.074,0.625,-4.523,0.14,11.76,6.93
,-8.945,0.007,-4.288,-9.021,0.481,-4.489,2.66,12.39,6.79
21731.0,-8.808,0.45,-4.386,-8.612,0.452,-5.162,1.82,10.5,4.83
,-8.495,0.512,-4.937,-8.751,0.376,-5.092,1.47,10.15,4.97
,-8.552,0.519,-5.006,-8.847,0.168,-4.951,2.03,9.87,4.76
,-8.622,0.541,-5.214,-8.763,0.16,-4.92,1.96,9.38,4.13
21807.0,-8.485,-0.093,-5.02,-8.842,0.211,-4.8,-1.68,8.12,3.43
,-8.418,-0.404,-4.889,-8.545,0.756,-5.147,-1.82,8.26,4.55
,-8.605,-0.613,-4.779,-8.425,1.055,-5.049,0.28,8.26,5.6
,-8.741,-0.28,-4.956,-8.547,1.06,-4.97,4.06,8.05,6.16
21883.0,-8.662,1.019,-4.874,-8.509,0.328,-4.846,1.75,7.35,3.15
,-8.77,0.778,-4.649,-8.504,0.235,-4.958,0.35,7.49,2.45
,-8.894,0.452,-4.616,-8.634,0.112,-4.949,1.33,7.63,1.75
,-8.775,0.349,-4.676,-8.696,-0.05,-5.051,3.5,7.28,1.47
21959.0,-8.808,-0.043,-4.939,-8.612,-0.469,-5.061,9.8,8.19,1.33
,-8.739,-0.01,-4.996,-8.65,-0.524,-5.008,9.24,8.19,2.17
,-8.469,-0.081,-5.164,-8.622,-0.445,-5.147,7.98,7.77,2.73
,-8.418,-0.345,-5.035,-8.614,-0.239,-5.063,6.79,7.84,3.64
22034.0,-8.717,0.158,-5.114,-8.528,0.876,-5.2,8.4,5.95,7.07
,-8.492,0.488,-5.073,-8.495,0.613,-5.25,9.1,5.67,6.23
,-8.619,0.83,-4.939,-8.38,0.519,-5.257,7.07,5.39,5.67
,-8.638,0.962,-5.087,-8.538,0.376,-5.195,4.48,5.32,5.6
22110.0,-8.636,0.153,-5.169,-8.674,0.704,-5.006,4.62,4.97,3.64
,-8.569,0.292,-5.257,-8.746,0.704,-5.071,6.51,4.13,3.57
,-8.497,0.677,-5.293,-8.705,0.821,-4.994,7.7,3.64,3.64
,-8.402,0.766,-5.353,-8.641,0.778,-5.008,7.0,3.5,3.22
22186.0,-8.476,0.632,-4.946,-8.495,0.05,-4.755,0.91,2.1,0.28
,-8.447,0.45,-4.932,-8.48,0.091,-4.826,0.07,2.73,0.0
,-8.313,0.208,-4.841,-8.825,-0.007,-4.769,0.77,3.85,-0.14
,-8.397,0.057,-4.731,-8.904,-0.218,-4.925,1.61,4.41,0.0
22262.0,-9.107,-0.266,-4.657,-8.334,1.316,-5.363,5.11,4.76,2.1
,-8.753,-0.034,-4.917,-8.512,1.426,-5.307,6.23,3.78,2.94
,-8.351,0.27,-5.059,-8.595,1.275,-5.312,6.86,3.22,3.15
,-8.239,0.89,-5.303,-8.54,0.969,-5.044,7.14,2.8,2.87
22337.0,-8.411,0.491,-5.171,-8.638,-0.151,-5.566,-2.45,2.31,-0.77
,-8.332,-0.139,-5.276,-8.536,-0.093,-5.501,-2.31,2.31,-0.56
,-8.557,-0.412,-5.307,-8.205,-0.302,-5.585,0.14,1.82,0.21
,-8.78,-0.256,-5.461,-8.289,-0.491,-5.657,3.29,1.33,1.12
22413.0,-8.67,-0.447,-5.573,-8.65,0.361,-5.331,5.74,-0.49,4.83
,-8.684,-0.359,-5.552,-8.555,0.522,-5.293,6.58,-0.91,5.81
,-8.61,0.031,-5.583,-8.394,0.567,-5.351,7.56,-1.05,6.09
,-8.567,0.28,-5.59,-8.454,0.436,-5.027,7.42,-1.54,6.23
22488.0,-8.536,0.577,-4.965,-8.483,0.888,-4.922,7.56,-3.01,5.04
,-8.571,0.723,-5.032,-8.452,1.11,-5.047,7.7,-3.15,4.55
,-8.576,0.72,-4.843,-8.547,1.206,-5.142,7.21,-2.73,4.13
,-8.595,0.802,-4.819,-8.574,0.957,-5.075,6.37,-2.73,3.78
22564.0,-8.72,0.335,-4.817,-8.677,0.211,-5.221,1.47,-3.01,0.91
,-8.638,-0.041,-4.886,-8.531,0.268,-5.178,1.26,-3.29,1.05
,-8.66,-0.182,-4.891,-8.516,0.266,-4.815,2.59,-3.15,1.33
,-8.701,-0.16,-5.071,-8.562,0.321,-5.018,5.25,-3.29,0.98
22640.0,-8.418,0.096,-5.104,-8.784,0.182,-4.889,1.75,-2.87,2.17
,-8.476,-0.041,-5.066,-8.89,0.663,-4.91,1.61,-2.17,2.66
,-8.658,-0.072,-4.989,-8.842,1.012,-4.853,2.31,-1.82,2.87
,-8.65,-0.077,-4.965,-8.686,0.96,-4.91,3.85,-1.75,2.94
22716.0,-8.452,0.974,-4.848,-8.897,0.742,-4.57,4.55,-2.52,1.89
,-8.339,0.823,-4.755,-8.65,0.335,-4.597,4.2,-2.17,1.26
,-8.48,0.68,-4.709,-8.449,0.141,-4.635,3.92,-1.54,0.7
,-8.813,0.711,-4.647,-8.442,0.12,-4.649,2.73,-0.98,0.56
22792.0,-8.488,0.258,-4.69,-8.763,0.677,-4.805,-2.73,1.33,1.75
,-8.622,0.409,-4.671,-8.516,0.648,-4.748,-1.19,1.54,1.19
,-8.904,0.428,-4.692,-8.547,0.534,-4.7,-1.26,1.89,0.56
,-8.961,0.529,-4.764,-8.387,0.34,-4.568,-0.21,1.54,0.21
22867.0,-8.289,0.132,-4.731,-8.571,0.213,-4.688,-2.03,2.45,1.4
,-8.457,-0.127,-4.64,-8.564,0.409,-4.59,-0.56,3.08,1.47
,-8.667,0.005,-4.769,-8.44,0.584,-4.771,1.75,3.5,1.4
,-8.67,0.112,-4.75,-8.507,0.768,-4.949,3.78,3.29,1.54
22943.0,-8.727,0.759,-4.893,-8.531,0.258,-4.803,2.66,4.9,0.77
,-8.715,0.842,-4.953,-8.447,0.191,-4.793,2.59,4.97,0.21
,-8.583,0.656,-4.98,-8.442,0.325,-5.018,2.66,5.04,0.07
,-8.586,0.428,-4.901,-8.571,0.407,-5.142,2.94,5.32,-0.07
23019.0,-8.713,0.215,-5.26,-8.667,0.447,-5.252,2.45,4.62,1.96
,-8.648,-0.065,-4.934,-8.478,0.584,-5.382,2.38,4.76,1.89
,-8.545,0.038,-5.08,-8.445,0.57,-5.339,2.94,4.34,2.1
,-8.545,0.414,-5.343,-8.428,0.235,-5.176,2.66,4.27,2.31
23095.0,-8.447,0.242,-4.939,-8.911,0.907,-5.049,-1.82,3.29,3.01
,-8.521,0.553,-5.063,-8.686,0.715,-5.047,-0.7,3.5,2.38
,-8.796,0.888,-5.095,-8.543,0.601,-5.111,0.42,4.06,1.26
,-8.93,1.041,-5.195,-8.705,0.366,-5.056,0.35,3.85,-0.07
23170.0,-8.696,0.168,-5.114,-8.5,0.309,-5.217,-0.84,2.8,0.49
,-8.626,0.278,-5.03,-8.703,0.246,-5.307,0.14,2.03,0.35
,-8.469,0.596,-5.269,-8.823,0.4,-5.489,0.42,1.05,0.7
,-8.397,0.565,-5.403,-8.878,0.56,-5.415,-1.05,0.56,1.05
23246.0,-8.696,0.665,-5.389,-8.533,0.558,-5.188,1.05,-0.28,-0.21
,-8.521,0.782,-5.451,-8.303,0.577,-5.379,0.63,-0.56,-0.49
,-8.763,0.641,-5.202,-8.485,0.648,-5.286,-1.12,-0.77,-0.56
,-8.808,0.529,-5.164,-8.696,0.687,-5.355,-2.45,-1.82,-0.77
23321.0,-8.691,0.543,-5.446,-8.334,-0.005,-5.14,-2.94,-4.13,-1.33
,-8.622,0.55,-5.406,-8.512,-0.077,-4.893,-2.8,-4.41,-1.33
,-8.524,0.309,-5.372,-8.725,0.079,-4.891,-2.94,-4.55,-0.98
,-8.366,0.074,-5.233,-8.705,0.273,-4.826,-2.8,-4.41,-0.77
23397.0,-8.679,0.388,-4.925,-8.318,0.526,-4.874,5.25,-4.55,-0.49
,-9.112,0.447,-4.511,-8.334,0.333,-4.951,3.92,-4.48,-0.56
,-8.89,0.558,-4.819,-8.593,0.134,-4.829,2.24,-6.09,-0.7
,-8.485,0.67,-4.836,-8.914,0.081,-4.683,0.91,-6.16,-0.49
23473.0,-8.806,0.266,-4.714,-8.847,0.637,-4.788,6.3,-5.74,-0.98
,-8.574,0.529,-4.697,-8.547,0.629,-4.874,9.24,-4.83,-1.75
,-8.536,0.727,-4.769,-8.488,0.479,-4.822,10.99,-4.34,-2.31
,-8.679,0.639,-4.707,-8.547,0.361,-4.774,10.5,-4.34,-2.24
23549.0,-8.634,0.246,-4.767,-8.746,0.254,-4.862,8.75,-4.55,-2.87
,-8.801,0.232,-4.874,-8.713,0.462,-4.834,8.54,-4.9,-2.73
,-8.681,0.266,-4.958,-8.677,0.546,-4.858,8.05,-4.76,-1.19
,-8.82,0.254,-4.989,-8.705,0.589,-4.788,8.12,-4.62,0.35
23624.0,-8.725,0.457,-4.587,-8.993,0.737,-4.393,6.37,-5.95,-0.77
,-8.586,0.412,-4.597,-8.799,0.972,-4.556,4.97,-6.37,-0.42
,-8.638,0.39,-4.472,-8.612,0.838,-4.558,4.69,-6.16,-0.35
,-8.878,0.45,-4.389,-8.646,0.615,-4.578,5.32,-5.95,-0.77
23700.0,-8.667,0.416,-4.513,-8.648,0.617,-4.427,1.61,-4.34,-1.61
,-8.842,0.328,-4.468,-8.703,0.17,-4.145,3.36,-4.2,-2.24
,-8.926,0.38,-4.48,-8.993,0.373,-4.255,5.25,-4.34,-2.73
,-8.756,0.553,-4.59,-8.868,0.282,-4.381,6.23,-4.41,-2.8
23776.0,-8.78,0.244,-4.451,-8.815,0.261,-4.659,0.63,-6.51,-3.22
,-8.775,0.158,-4.563,-8.825,0.165,-4.704,0.91,-6.23,-2.8
,-8.808,0.187,-4.635,-8.813,0.093,-4.733,1.89,-6.51,-2.8
,-8.827,0.211,-4.642,-8.823,0.053,-4.563,2.59,-6.58,-2.66
23852.0,-8.93,0.089,-4.525,-8.808,0.045,-4.539,5.25,-6.02,-2.1
,-9.069,0.194,-4.585,-8.856,-0.074,-4.295,4.34,-7.91,-2.38
,-8.902,0.352,-4.721,-8.906,0.045,-4.283,1.96,-9.73,-2.17
,-8.827,0.237,-4.669,-8.969,0.261,-4.307,-0.14,-10.15,-1.68
23928.0,-9.028,0.333,-4.24,-8.768,0.397,-4.432,5.74,-9.17,-0.91
,-9.172,0.471,-4.427,-8.83,0.244,-4.322,6.02,-9.45,-1.19
,-9.009,0.464,-4.456,-8.957,0.251,-4.312,5.6,-9.66,-1.61
,-8.894,0.414,-4.424,-8.954,0.304,-4.14,5.53,-9.52,-1.61
24003.0,-9.009,0.225,-4.216,-8.928,-0.026,-4.314,5.46,-9.94,-1.96
,-8.99,0.256,-4.346,-8.83,-0.034,-3.972,4.55,-10.5,-1.75
,-9.038,0.11,-4.207,-8.938,-0.103,-3.898,3.99,-10.57,-2.03
,-9.119,-0.11,-4.257,-8.978,-0.12,-3.829,4.55,-10.85,-2.24
24079.0,-9.129,-0.201,-3.661,-9.024,0.261,-3.367,6.65,-10.92,-1.61
,-9.048,-0.122,-3.752,-9.134,0.586,-3.532,6.58,-10.85,-1.26
,-9.005,-0.062,-3.381,-9.201,0.696,-3.783,8.19,-9.66,-0.63
,-9.069,0.022,-3.441,-9.119,0.696,-3.74,9.1,-9.52,-0.42
24154.0,-9.127,0.495,-3.58,-9.196,-0.28,-3.912,1.4,-8.54,-3.36
,-9.043,0.201,-3.491,-9.174,-0.66,-3.642,0.56,-7.91,-4.27
,-9.081,-0.05,-3.455,-9.258,-0.771,-3.714,0.77,-7.7,-4.9
,-9.057,-0.086,-3.702,-9.186,-0.347,-3.616,0.14,-8.26,-4.9
24230.0,-9.191,0.182,-3.513,-9.249,0.026,-3.278,8.54,-5.95,-2.17
,-9.234,0.613,-3.666,-9.203,-0.127,-3.089,6.09,-6.37,-2.59
,-9.174,0.692,-3.601,-9.105,-0.218,-3.034,0.56,-6.37,-2.87
,-9.239,0.402,-3.542,-9.143,-0.158,-2.967,-3.78,-5.81,-3.15
24306.0,-9.182,-0.019,-3.441,-9.155,0.261,-3.661,-0.91,-3.36,-3.85
,-9.21,0.01,-3.491,-9.122,0.275,-3.527,-1.4,-2.87,-3.36
,-9.225,-0.043,-3.611,-9.237,0.235,-3.405,-1.05,-2.66,-2.59
,-9.239,0.024,-3.745,-9.328,0.122,-3.482,0.98,-2.24,-2.31
24382.0,-9.273,-0.017,-3.486,-9.196,-0.316,-3.525,-1.89,-1.82,-3.99
,-9.237,-0.165,-3.57,-9.15,-0.146,-3.616,-1.26,-1.54,-3.57
,-9.179,-0.349,-3.644,-9.229,0.266,-3.671,0.63,-1.26,-3.36
,-9.167,-0.349,-3.549,-9.313,0.476,-4.056,3.43,-0.77,-3.15
24457.0,-9.213,0.328,-4.027,-9.304,-0.043,-3.74,1.19,-2.73,-3.92
,-9.139,0.074,-3.903,-9.229,0.06,-3.637,-0.49,-2.17,-3.71
,-9.088,-0.225,-3.666,-9.273,-0.136,-3.551,0.49,-1.89,-3.57
,-9.191,-0.235,-3.656,-9.347,-0.309,-3.74,2.31,-2.52,-4.06
24533.0,-9.244,-0.479,-3.944,-9.196,-0.598,-3.656,1.75,-3.78,-3.71
,-9.122,-0.51,-4.02,-9.428,-0.211,-3.829,3.29,-4.27,-3.15
,-9.05,-0.409,-4.02,-9.347,0.129,-3.826,4.2,-4.69,-2.59
,-9.043,-0.596,-3.786,-9.342,0.153,-3.798,5.39,-4.62,-1.96
24609.0,-9.227,-0.148,-3.637,-9.378,0.237,-3.013,5.53,-6.16,-1.89
,-9.21,-0.57,-3.283,-9.378,0.287,-2.793,7.07,-5.46,-1.4
,-9.172,-0.577,-2.979,-9.447,-0.029,-2.678,10.43,-5.32,-1.05
,-9.27,-0.263,-2.778,-9.474,-0.294,-2.745,12.81,-5.04,-0.77
24685.0,-9.378,-0.416,-2.883,-9.27,-0.445,-3.001,3.99,-1.75,-1.4
,-9.27,-0.524,-2.788,-9.289,-0.457,-2.91,3.5,-1.12,-1.4
,-9.265,-0.541,-2.936,-9.328,-0.479,-3.034,3.36,-0.7,-1.12
,-9.186,-0.481,-3.001,-9.258,-0.541,-2.972,3.99,-0.28,-0.84
24761.0,-9.301,-0.445,-2.816,-9.251,0.079,-3.726,8.33,3.01,0.98
,-9.404,-0.019,-3.206,-9.325,-0.089,-3.857,9.52,3.01,1.05
,-9.289,0.256,-3.463,-9.368,-0.369,-3.757,7.7,2.66,0.56
,-9.261,0.225,-3.498,-9.404,-0.251,-3.857,5.11,2.8,0.35
24836.0,-9.335,-0.168,-3.999,-9.074,-0.199,-3.915,4.27,1.33,-0.84
,-9.371,0.005,-4.238,-9.081,-0.412,-3.62,3.92,0.14,-1.33
,-9.273,0.11,-4.317,-9.261,-0.445,-3.19,2.66,-0.84,-1.61
,-9.069,-0.026,-4.034,-9.426,-0.526,-3.015,2.1,-1.4,-1.54
24912.0,-9.509,-0.531,-2.869,-9.217,-0.644,-2.745,2.1,-2.31,-2.24
,-9.483,-0.407,-2.991,-9.371,-0.615,-2.682,1.4,-2.1,-2.17
,-9.316,-0.378,-3.013,-9.459,-0.38,-2.587,-0.21,-1.61,-2.17
,-9.172,-0.536,-2.948,-9.474,-0.062,-2.682,-1.05,-0.84,-1.82
24987.0,-9.366,-0.031,-2.931,-9.234,-0.689,-3.475,-1.89,2.1,-1.12
,-9.28,0.002,-3.195,-9.38,-0.589,-3.546,-4.55,2.24,-1.61
,-9.165,-0.242,-3.439,-9.392,-0.369,-3.604,-6.79,2.17,-1.89
,-9.115,-0.519,-3.498,-9.318,-0.182,-3.711,-6.37,2.66,-1.47
25063.0,-9.22,-0.239,-3.647,-9.469,-0.565,-2.982,-0.56,1.54,-0.56
,-9.284,-0.471,-3.455,-9.478,-0.519,-2.986,0.0,1.75,-0.35
,-9.275,-0.491,-3.336,-9.435,-0.268,-3.163,1.75,2.17,0.0
,-9.385,-0.512,-3.135,-9.371,-0.057,-3.297,3.01,2.03,0.07
25139.0,-9.328,-0.002,-3.829,-9.33,-0.471,-3.618,1.61,1.89,-0.21
,-9.182,-0.318,-3.879,-9.366,-0.22,-3.589,-0.21,1.54,-0.42
,-9.191,-0.553,-3.74,-9.344,-0.225,-3.46,0.91,1.4,0.0
,-9.265,-0.629,-3.704,-9.32,-0.459,-3.386,3.99,1.33,0.28
25215.0,-9.308,-0.534,-3.3,-9.33,-0.218,-3.518,5.39,0.14,0.77
,-9.311,-0.4,-3.41,-9.284,-0.29,-3.479,7.0,0.07,0.63
,-9.34,-0.294,-3.331,-9.261,-0.203,-3.486,7.49,0.0,0.56
,-9.325,-0.196,-3.439,-9.239,-0.29,-3.508,7.07,0.14,0.56
25290.0,-9.268,-0.409,-3.264,-9.306,-0.493,-2.95,6.02,0.0,0.21
,-9.306,-0.445,-3.132,-9.268,-0.605,-2.881,6.09,0.14,0.21
,-9.335,-0.402,-3.142,-9.411,-0.656,-2.843,5.81,0.14,0.07
,-9.34,-0.364,-3.005,-9.469,-0.443,-2.941,4.83,0.63,0.07
25366.0,-9.387,-0.153,-3.087,-9.258,-0.495,-3.618,5.11,2.66,0.56
,-9.294,-0.036,-3.264,-9.287,-0.51,-3.577,2.87,2.87,0.35
,-9.273,-0.179,-3.417,-9.349,-0.495,-3.477,0.56,2.94,0.35
,-9.287,-0.424,-3.532,-9.304,-0.495,-3.369,-0.28,2.87,0.14
25442.0,-9.308,-0.469,-3.331,-9.289,-0.34,-3.343,5.39,2.73,1.12
,-9.313,-0.455,-3.302,-9.34,-0.369,-3.439,5.25,2.66,1.12
,-9.34,-0.464,-3.374,-9.328,-0.366,-3.384,4.55,2.73,0.91
,-9.316,-0.457,-3.396,-9.225,-0.33,-3.4,4.13,2.94,0.98
25518.0,-9.306,-0.373,-3.436,-9.323,-0.404,-3.585,3.71,2.87,0.98
,-9.342,-0.33,-3.463,-9.256,-0.378,-3.659,3.64,2.87,0.91
,-9.387,-0.388,-3.494,-9.232,-0.409,-3.647,3.5,2.73,0.84
,-9.337,-0.345,-3.518,-9.277,-0.366,-3.652,3.5,2.66,0.98
25594.0,-9.304,-0.443,-3.573,-9.359,-0.383,-3.446,2.66,1.33,0.7
,-9.311,-0.455,-3.561,-9.308,-0.371,-3.422,2.94,1.12,0.7
,-9.304,-0.476,-3.422,-9.325,-0.433,-3.355,3.36,0.98,0.77
,-9.344,-0.385,-3.419,-9.282,-0.589,-3.3,3.99,0.98,0.84
25669.0,-9.313,-0.562,-3.386,-9.342,-0.34,-3.405,2.66,0.98,0.77
,-9.328,-0.464,-3.4,-9.325,-0.483,-3.285,2.94,0.84,0.7
,-9.323,-0.424,-3.35,-9.318,-0.443,-3.297,2.73,0.91,0.77
,-9.33,-0.302,-3.408,-9.337,-0.438,-3.398,2.31,0.91,0.84
25745.0,-9.316,-0.378,-3.465,-9.273,-0.486,-3.269,3.22,0.7,0.84
,-9.323,-0.471,-3.405,-9.289,-0.464,-3.34,2.94,0.77,1.05
,-9.332,-0.565,-3.391,-9.395,-0.464,-3.204,3.71,0.98,1.33
,-9.33,-0.543,-3.362,-9.32,-0.263,-3.285,4.48,1.19,1.54
25820.0,-9.328,-0.235,-3.396,-9.294,-0.302,-3.58,4.62,1.47,1.54
,-9.306,-0.261,-3.522,-9.284,-0.359,-3.419,3.64,1.4,1.47
,-9.268,-0.246,-3.673,-9.349,-0.388,-3.309,3.01,1.19,1.33
,-9.253,-0.278,-3.673,-9.383,-0.263,-3.345,2.73,0.98,1.12
25896.0,-9.332,-0.261,-3.463,-9.273,-0.634,-3.384,1.82,0.42,0.77
,-9.311,-0.311,-3.515,-9.301,-0.531,-3.36,0.91,0.28,0.63
,-9.246,-0.471,-3.542,-9.361,-0.395,-3.312,0.35,0.28,0.63
,-9.265,-0.62,-3.496,-9.361,-0.258,-3.331,1.26,0.35,0.77
25972.0,-9.332,-0.203,-3.285,-9.318,-0.519,-3.175,2.1,0.14,0.7
,-9.292,-0.244,-3.331,-9.395,-0.457,-3.128,0.91,0.49,0.7
,-9.277,-0.443,-3.295,-9.385,-0.364,-3.056,0.42,0.63,0.77
,-9.203,-0.548,-3.238,-9.335,-0.237,-3.238,1.82,0.77,0.98
26048.0,-9.344,-0.237,-3.453,-9.289,-0.469,-3.419,1.75,1.47,0.63
,-9.265,-0.304,-3.51,-9.328,-0.392,-3.34,0.42,1.4,0.42
,-9.273,-0.486,-3.446,-9.378,-0.378,-3.309,0.63,1.33,0.56
,-9.308,-0.503,-3.494,-9.332,-0.306,-3.324,1.82,1.4,0.7
26123.0,-9.323,-0.304,-3.314,-9.368,-0.431,-3.393,2.52,1.47,0.84
,-9.28,-0.359,-3.309,-9.323,-0.436,-3.434,1.47,1.96,0.91
,-9.258,-0.414,-3.269,-9.251,-0.469,-3.441,0.7,2.03,0.98
,-9.308,-0.493,-3.317,-9.263,-0.445,-3.508,0.63,1.82,0.7
26199.0,-9.308,-0.309,-3.506,-9.308,-0.455,-3.573,2.52,1.33,0.77
,-9.323,-0.27,-3.597,-9.335,-0.493,-3.496,2.1,0.91,0.49
,-9.318,-0.282,-3.62,-9.325,-0.445,-3.355,1.12,0.7,0.49
,-9.275,-0.364,-3.63,-9.361,-0.34,-3.369,0.7,0.49,0.56
26275.0,-9.368,-0.323,-3.384,-9.32,-0.445,-3.434,3.64,-0.07,0.77
,-9.342,-0.378,-3.436,-9.301,-0.491,-3.262,3.15,-0.42,0.7
,-9.325,-0.402,-3.393,-9.344,-0.467,-3.12,3.22,-0.42,0.84
,-9.246,-0.421,-3.496,-9.409,-0.309,-3.049,3.71,-0.35,0.77
26351.0,-9.378,-0.134,-3.25,-9.284,-0.613,-3.35,4.34,0.14,0.84
,-9.299,-0.146,-3.312,-9.34,-0.558,-3.319,2.52,0.21,0.7
,-9.222,-0.218,-3.515,-9.371,-0.397,-3.192,0.91,0.14,0.42
,-9.172,-0.546,-3.391,-9.39,-0.268,-3.218,0.7,0.56,0.56
26426.0,-9.32,-0.227,-3.271,-9.311,-0.443,-3.149,2.87,0.49,0.77
,-9.261,-0.352,-3.183,-9.407,-0.409,-3.192,2.03,0.84,0.84
,-9.313,-0.361,-3.278,-9.395,-0.414,-3.156,2.1,0.91,0.77
,-9.294,-0.467,-3.209,-9.375,-0.397,-3.032,2.73,1.12,0.84
26502.0,-9.366,-0.311,-3.116,-9.294,-0.268,-3.472,1.75,2.24,0.56
,-9.392,-0.412,-3.187,-9.296,-0.369,-3.498,0.56,2.31,0.63
,-9.332,-0.342,-3.262,-9.299,-0.488,-3.484,0.56,2.31,0.35
,-9.33,-0.309,-3.367,-9.359,-0.498,-3.51,0.35,2.31,0.14
26578.0,-9.349,-0.536,-3.458,-9.289,-0.431,-3.41,1.75,1.96,0.35
,-9.344,-0.44,-3.439,-9.32,-0.538,-3.35,2.94,2.24,0.56
,-9.289,-0.256,-3.508,-9.38,-0.565,-3.297,2.8,1.82,0.35
,-9.292,-0.29,-3.448,-9.397,-0.414,-3.331,1.61,1.82,0.21
26653.0,-9.404,-0.321,-3.352,-9.325,-0.402,-3.453,2.03,1.61,0.42
,-9.328,-0.357,-3.379,-9.318,-0.404,-3.393,1.33,1.61,0.49
,-9.318,-0.462,-3.307,-9.344,-0.383,-3.441,1.12,1.75,0.49
,-9.354,-0.455,-3.367,-9.337,-0.364,-3.441,1.19,1.61,0.49
26729.0,-9.304,-0.412,-3.408,-9.349,-0.297,-3.41,1.68,1.54,0.49
,-9.337,-0.361,-3.412,-9.328,-0.309,-3.4,1.82,1.4,0.56
,-9.232,-0.385,-3.348,-9.265,-0.385,-3.463,1.68,1.4,0.49
,-9.344,-0.337,-3.345,-9.299,-0.462,-3.508,1.82,1.33,0.49
26805.0,-9.328,-0.495,-3.451,-9.301,-0.395,-3.293,3.29,0.98,0.7
,-9.325,-0.402,-3.379,-9.337,-0.4,-3.264,3.85,0.91,0.63
,-9.351,-0.361,-3.412,-9.351,-0.433,-3.295,3.92,0.98,0.56
,-9.34,-0.347,-3.372,-9.34,-0.424,-3.226,3.29,0.84,0.56
26881.0,-9.368,-0.404,-3.262,-9.306,-0.4,-3.463,2.03,0.98,0.49
,-9.347,-0.321,-3.431,-9.34,-0.299,-3.41,1.96,0.98,0.42
,-9.253,-0.371,-3.408,-9.335,-0.287,-3.388,1.75,0.91,0.49
,-9.32,-0.371,-3.436,-9.335,-0.349,-3.348,1.96,0.98,0.63
26956.0,-9.296,-0.4,-3.338,-9.356,-0.462,-3.197,2.73,0.56,0.28
,-9.361,-0.426,-3.321,-9.361,-0.347,-3.305,2.87,0.77,0.28
,-9.313,-0.433,-3.309,-9.32,-0.361,-3.297,2.87,0.84,0.28
,-9.316,-0.481,-3.252,-9.33,-0.38,-3.314,2.8,0.91,0.49
27032.0,-9.308,-0.481,-3.297,-9.33,-0.4,-3.398,1.68,1.33,0.21
,-9.335,-0.524,-3.257,-9.21,-0.447,-3.422,2.1,1.47,0.35
,-9.368,-0.45,-3.314,-9.27,-0.495,-3.4,2.38,1.33,0.56
,-9.301,-0.443,-3.324,-9.28,-0.436,-3.388,2.45,1.33,0.49
27108.0,-9.325,-0.412,-3.25,-9.335,-0.34,-3.245,3.85,1.19,0.7
,-9.363,-0.371,-3.195,-9.361,-0.431,-3.151,3.36,1.54,0.77
,-9.363,-0.503,-2.955,-9.342,-0.491,-3.403,2.45,1.82,0.98
,-9.301,-0.416,-3.08,-9.246,-0.457,-3.348,2.73,1.89,0.98
27184.0,-9.253,-0.548,-3.364,-9.418,-0.431,-3.534,1.75,2.31,1.05
,-9.328,-0.436,-3.273,-9.251,-0.369,-3.039,2.59,2.45,1.12
,-9.318,-0.467,-3.096,-9.239,-0.524,-2.979,2.66,2.66,1.26
,-9.342,-0.357,-3.273,-9.299,-0.605,-2.73,1.68,2.59,1.12
27259.0,-9.407,-0.342,-3.003,-9.241,-0.512,-3.297,4.27,4.69,2.03
,-9.371,-0.148,-3.154,-9.194,-0.651,-3.039,2.52,4.55,1.54
,-9.395,-0.189,-3.264,-9.311,-0.534,-2.927,0.0,4.76,1.26
,-9.273,-0.273,-3.329,-9.462,-0.151,-3.455,-1.75,4.97,1.26
27335.0,-9.38,0.101,-3.642,-9.213,-0.885,-3.786,-1.47,5.11,0.56
,-9.213,0.141,-4.097,-9.356,-0.766,-3.678,-5.11,4.48,0.28
,-9.186,-0.268,-3.967,-9.414,-0.498,-3.326,-7.28,4.27,0.28
,-9.139,-0.617,-3.891,-9.502,-0.191,-3.321,-6.02,4.27,0.49
27410.0,-9.277,-0.069,-3.479,-9.304,-0.725,-3.288,-4.2,1.89,0.49
,-9.191,-0.342,-3.408,-9.385,-0.479,-3.424,-6.86,1.89,0.28
,-9.237,-0.486,-3.546,-9.318,-0.304,-3.312,-7.14,1.89,0.7
,-9.277,-0.656,-3.403,-9.28,-0.325,-3.333,-5.25,2.52,1.19
27486.0,-9.261,-0.419,-3.293,-9.28,-0.062,-3.451,-0.77,4.41,2.38
,-9.284,-0.629,-3.178,-9.289,-0.014,-3.479,-0.49,4.76,2.73
,-9.287,-0.493,-3.137,-9.32,-0.124,-3.525,1.47,5.04,3.08
,-9.241,-0.246,-3.309,-9.232,-0.285,-3.391,2.24,4.97,2.87
27562.0,-9.28,-0.39,-3.288,-9.294,-0.297,-3.558,-1.12,5.32,2.31
,-9.356,-0.151,-3.278,-9.244,-0.629,-3.577,-0.14,5.25,2.1
,-9.318,-0.002,-3.235,-9.234,-0.751,-3.396,-0.42,5.39,1.89
,-9.308,0.045,-3.506,-9.227,-0.727,-3.204,-2.52,5.25,1.61
27638.0,-9.22,-0.428,-3.367,-9.16,-0.615,-3.185,3.22,7.42,2.73
,-9.232,-0.103,-3.338,-9.165,-0.67,-3.149,0.56,6.93,2.45
,-9.21,-0.057,-3.472,-9.222,-0.469,-2.972,-2.94,6.93,2.66
,-9.177,-0.282,-3.415,-9.16,-0.112,-3.405,-6.44,7.07,2.87
27714.0,-9.074,0.0,-3.345,-9.043,0.007,-2.448,-3.57,8.89,3.5
,-9.227,-0.189,-3.276,-9.067,0.364,-3.257,-4.69,9.17,3.92
,-9.22,-0.325,-3.041,-8.909,0.285,-3.618,-5.74,9.38,3.92
,-9.069,-0.33,-2.513,-9.062,-0.199,-3.812,-3.08,10.64,4.41
27789.0,-9.005,-0.775,-3.498,-9.002,0.854,-3.936,-6.72,15.33,3.78
,-9.208,-0.955,-2.833,-8.971,0.445,-4.405,-0.14,17.22,4.06
,-9.304,-0.345,-3.128,-9.081,-0.249,-4.3,4.69,16.59,3.36
,-9.052,0.467,-3.486,-9.191,-0.57,-4.089,3.08,15.33,2.38
27865.0,-8.961,-0.309,-3.69,-8.887,0.919,-4.539,1.61,18.41,3.36
,-9.012,0.148,-3.475,-8.882,0.364,-4.819,6.79,19.04,2.8
,-8.887,0.687,-3.666,-8.844,-0.577,-4.893,5.6,18.2,1.33
,-9.11,0.936,-3.74,-8.806,-1.266,-4.769,2.73,17.64,0.56
27941.0,-8.894,-1.766,-4.477,-8.885,-0.849,-4.259,-3.57,16.03,1.4
,-9.019,-1.931,-4.264,-8.964,-0.359,-4.243,2.45,16.1,2.94
,-9.198,-1.838,-4.068,-9.067,0.223,-4.74,6.86,15.82,4.83
,-9.165,-1.429,-4.061,-8.93,0.806,-4.884,10.71,15.05,7.14
28017.0,-8.78,0.909,-4.951,-8.88,0.447,-4.281,4.97,11.62,8.19
,-8.679,0.821,-4.64,-8.976,0.246,-4.164,1.33,11.97,7.56
,-8.753,0.744,-4.448,-8.985,0.117,-3.91,0.7,12.25,6.65
,-8.911,0.677,-4.35,-8.928,0.069,-4.058,0.63,11.9,5.32
28092.0,-8.777,0.414,-4.164,-8.88,-0.048,-4.779,7.7,12.74,2.31
,-8.751,0.605,-4.348,-8.918,-0.586,-4.956,6.79,12.74,2.24
,-8.693,0.687,-4.451,-8.765,-0.969,-5.004,4.13,12.46,1.89
,-8.859,0.378,-4.424,-8.701,-0.881,-5.049,0.7,12.18,1.33
28168.0,-8.818,-0.505,-4.882,-8.88,0.352,-4.805,7.63,11.97,2.52
,-8.954,-0.153,-4.776,-8.926,0.436,-4.893,9.94,11.9,1.96
,-8.873,0.22,-4.597,-8.684,0.615,-5.248,9.1,11.69,2.52
,-8.789,0.28,-4.771,-8.586,0.476,-5.135,5.88,10.99,3.22
28243.0,-8.658,0.017,-4.927,-8.777,-0.823,-4.731,-0.56,8.75,2.1
,-8.763,-0.313,-4.53,-8.516,-0.756,-4.745,0.7,9.59,2.17
,-8.871,-0.503,-4.599,-8.557,-0.696,-4.733,2.8,9.1,2.38
,-8.909,-0.534,-4.822,-8.677,-0.409,-4.762,3.64,8.05,2.45
28319.0,-8.614,0.182,-4.848,-8.516,0.732,-4.465,8.89,7.56,6.23
,-8.655,0.409,-4.681,-8.507,0.876,-4.525,5.6,7.14,6.58
,-8.54,0.469,-4.539,-8.777,0.725,-4.518,1.4,7.07,6.65
,-8.603,0.493,-4.3,-9.162,0.543,-4.417,-1.05,7.49,6.79
28395.0,-9.194,0.282,-4.441,-8.433,0.39,-4.97,-1.33,9.8,1.75
,-9.028,0.306,-4.494,-8.638,0.318,-4.8,-0.21,9.73,1.54
,-8.543,0.56,-4.834,-8.818,0.39,-4.855,1.68,9.59,1.47
,-8.246,0.529,-4.982,-8.672,0.56,-4.949,2.59,10.36,0.63
28471.0,-8.555,0.794,-5.044,-8.658,-0.615,-5.092,-0.56,9.24,-1.75
,-8.526,0.696,-5.051,-8.626,-0.622,-5.162,-3.15,8.82,-2.45
,-8.49,0.112,-4.97,-8.768,-0.469,-5.185,-5.32,9.45,-2.38
,-8.531,-0.33,-4.946,-8.775,-0.148,-5.193,-5.46,10.22,-1.82
28547.0,-8.703,0.194,-5.207,-8.483,-0.5,-5.042,10.36,8.61,0.14
,-8.44,0.414,-5.41,-8.713,-0.715,-4.939,7.98,6.72,1.19
,-8.179,0.179,-5.532,-8.571,-0.845,-5.145,3.57,5.67,2.38
,-8.157,-0.184,-5.238,-8.469,-0.866,-5.042,0.77,6.23,3.15
28622.0,-8.49,-0.773,-5.154,-8.469,0.105,-5.243,1.89,5.53,9.8
,-8.423,-0.493,-5.262,-8.693,0.251,-5.279,2.03,4.97,10.36
,-8.246,-0.165,-5.513,-8.985,0.23,-5.032,2.59,4.76,9.94
,-8.203,0.038,-5.379,-8.739,0.22,-5.248,3.01,5.39,10.01
28698.0,-8.674,0.194,-5.226,-8.483,0.972,-5.54,6.72,3.5,8.4
,-8.442,0.294,-5.341,-8.674,1.278,-5.542,7.7,3.29,7.49
,-8.334,0.61,-5.446,-8.691,1.184,-5.573,8.33,3.92,5.81
,-8.373,0.715,-5.456,-8.717,0.897,-5.571,9.38,4.62,4.48
28774.0,-8.772,0.739,-5.324,-8.536,0.182,-5.26,7.28,3.43,-2.8
,-8.507,0.589,-5.413,-8.361,0.256,-5.303,6.44,2.17,-2.8
,-8.294,0.5,-5.547,-8.172,0.275,-5.315,5.18,1.75,-3.22
,-8.43,0.213,-5.279,-8.256,0.146,-5.092,4.27,2.1,-3.5
28850.0,-8.433,0.134,-5.059,-8.334,0.005,-5.152,4.06,1.12,-2.94
,-8.574,0.225,-5.078,-8.531,-0.12,-5.238,4.06,0.84,-3.15
,-8.603,0.146,-4.944,-8.658,-0.294,-5.181,2.03,0.56,-2.45
,-8.425,0.057,-5.044,-8.756,-0.282,-5.245,-0.07,0.56,-1.54
28925.0,-8.598,-0.357,-5.229,-8.442,-0.522,-5.329,3.99,0.49,-0.21
,-8.397,-0.337,-5.2,-8.509,-0.751,-5.336,4.27,0.28,0.63
,-8.229,-0.313,-5.377,-8.66,-0.701,-5.252,4.76,0.63,1.12
,-8.279,-0.285,-5.525,-8.619,-0.672,-5.224,5.11,0.98,1.75
29001.0,-8.591,-0.342,-5.31,-8.215,0.526,-5.224,11.83,0.91,5.74
,-8.78,-0.017,-5.09,-8.598,0.514,-5.169,11.34,-0.35,6.3
,-8.488,0.285,-5.166,-8.775,0.605,-5.2,9.52,-1.61,6.93
,-8.181,0.613,-5.396,-8.643,0.972,-5.262,8.05,-1.61,7.28
29076.0,-8.461,1.371,-5.183,-8.658,0.302,-4.937,6.86,-2.17,2.31
,-8.239,1.005,-5.219,-8.567,0.179,-4.949,4.06,-2.52,1.89
,-8.196,0.428,-5.14,-8.555,-0.014,-4.795,2.59,-1.75,1.47
,-8.504,0.268,-4.884,-8.557,-0.156,-4.882,3.99,-0.7,1.26
29152.0,-8.583,-0.144,-4.984,-8.358,-0.601,-5.111,5.53,1.12,0.0
,-8.689,-0.292,-4.917,-8.416,-0.16,-5.336,4.69,0.7,0.7
,-8.492,-0.495,-5.166,-8.495,0.297,-5.279,4.27,0.35,1.54
,-8.447,-0.754,-5.145,-8.629,0.55,-5.377,4.62,1.12,3.08
29228.0,-8.835,0.5,-5.154,-8.39,0.246,-5.169,7.77,-0.35,1.75
,-8.787,0.45,-5.226,-8.418,0.0,-5.418,7.14,-1.12,1.68
,-8.471,0.464,-5.231,-8.622,-0.055,-5.377,7.14,-1.33,1.68
,-8.258,0.318,-5.269,-8.536,0.065,-5.446,7.14,-1.05,1.54
29304.0,-8.471,-0.112,-5.506,-8.591,-0.287,-4.874,9.59,-2.45,0.21
,-8.586,-0.467,-5.307,-8.536,-0.096,-4.858,8.82,-2.24,0.56
,-8.67,-0.541,-5.078,-8.533,0.16,-5.063,7.84,-2.66,1.19
,-8.576,-0.29,-5.016,-8.72,0.117,-5.016,6.86,-2.8,2.1
29379.0,-8.725,-0.17,-5.08,-8.559,0.292,-4.69,-2.24,-3.5,4.97
,-8.564,-0.412,-4.939,-8.466,0.785,-4.736,-0.77,-3.22,5.18
,-8.279,-0.498,-4.843,-8.842,0.794,-4.594,1.61,-2.73,5.53
,-7.88,-0.115,-4.941,-8.899,0.675,-4.547,3.78,-1.4,4.69
29455.0,-8.772,0.668,-4.336,-8.502,0.713,-4.867,2.1,-0.21,3.71
,-8.459,0.797,-4.563,-8.569,0.203,-4.85,0.56,0.21,3.22
,-8.236,0.828,-4.544,-8.524,0.01,-4.882,-0.35,0.77,2.24
,-8.394,0.933,-4.769,-8.617,0.098,-4.891,-1.4,1.05,1.4
29531.0,-8.662,0.132,-5.044,-8.413,-0.029,-5.252,0.91,4.83,-1.12
,-8.574,0.103,-5.001,-8.614,0.065,-5.221,0.91,4.97,-0.98
,-8.61,-0.017,-5.15,-8.868,0.029,-5.233,-0.42,4.76,-0.35
,-8.473,-0.153,-5.157,-8.717,-0.33,-5.319,-0.84,5.11,-0.14
29607.0,-8.583,-0.785,-5.188,-8.464,0.134,-5.152,-2.17,4.62,2.8
,-8.557,-0.914,-5.126,-8.509,0.337,-5.19,-0.35,4.48,3.92
,-8.617,-0.529,-5.133,-8.449,0.632,-5.248,1.54,4.06,4.48
,-8.586,-0.057,-5.229,-8.402,0.926,-5.351,1.4,3.71,5.04
29683.0,-8.624,1.158,-5.365,-8.526,0.443,-4.752,-2.8,2.31,3.64
,-8.792,1.019,-5.233,-8.473,0.481,-4.901,-4.2,2.59,2.66
,-8.677,0.787,-4.968,-8.5,0.519,-4.951,-4.83,2.94,1.54
,-8.509,0.591,-4.81,-8.588,0.617,-5.099,-4.48,3.43,0.49
29758.0,-8.595,0.639,-4.972,-8.65,0.352,-4.994,-1.89,3.43,-0.77
,-8.461,0.66,-4.994,-8.533,0.081,-5.111,-3.01,3.64,-1.26
,-8.397,0.531,-4.891,-8.49,-0.347,-5.111,-4.76,4.06,-1.61
,-8.591,0.38,-4.891,-8.533,-0.663,-5.09,-6.37,4.27,-1.61
29834.0,-8.681,-0.519,-5.097,-8.476,0.251,-5.279,-1.82,4.83,1.75
,-8.617,-0.115,-5.226,-8.547,0.098,-5.233,1.54,4.69,2.17
,-8.366,0.239,-5.36,-8.526,0.129,-5.226,2.87,4.34,1.82
,-8.344,0.419,-5.341,-8.497,-0.019,-5.195,2.31,4.41,1.68
29909.0,-8.579,0.067,-5.269,-8.531,0.725,-5.355,-0.98,2.59,3.15
,-8.547,0.366,-5.31,-8.538,0.486,-5.331,-0.42,2.31,2.73
,-8.38,0.486,-5.37,-8.643,0.263,-5.123,-0.21,1.96,2.73
,-8.342,0.66,-5.401,-8.514,0.014,-5.176,0.14,2.03,2.52
29985.0,-8.323,-0.175,-5.099,-8.555,0.656,-5.353,3.15,-0.07,2.87
,-8.38,-0.105,-5.286,-8.502,0.723,-5.312,5.74,0.07,2.59
,-8.545,0.246,-5.291,-8.404,0.914,-5.382,8.47,0.07,1.82
,-8.564,0.653,-5.401,-8.289,0.895,-5.3,9.73,-0.14,0.98
30061.0,-8.323,0.823,-5.001,-8.6,0.828,-5.075,3.43,-0.7,-0.28
,-8.397,1.027,-4.98,-8.634,0.778,-5.178,3.43,-0.98,-1.68
,-8.521,1.242,-5.147,-8.492,0.57,-5.377,2.73,-1.47,-3.15
,-8.6,0.995,-5.145,-8.48,0.292,-5.396,1.12,-1.47,-3.85
30137.0,-8.425,-0.062,-5.334,-8.492,-0.232,-5.233,0.7,-2.94,-6.16
,-8.416,-0.325,-5.281,-8.555,-0.108,-5.334,1.33,-3.01,-5.88
,-8.571,-0.424,-5.133,-8.617,-0.122,-5.41,2.87,-3.43,-5.46
,-8.536,-0.426,-5.114,-8.617,-0.206,-5.317,3.22,-4.27,-4.62
30212.0,-8.667,-0.165,-5.095,-8.557,-0.053,-5.145,-0.42,-5.04,-0.63
,-8.564,-0.175,-5.078,-8.586,-0.01,-4.98,0.77,-5.46,-0.21
,-8.6,-0.074,-5.142,-8.603,0.144,-4.956,1.26,-6.37,0.7
,-8.607,-0.103,-5.142,-8.65,0.522,-4.965,1.33,-6.72,1.75
30288.0,-8.531,0.742,-4.953,-8.677,0.352,-5.071,6.09,-6.37,0.28
,-8.567,0.759,-4.929,-8.813,0.041,-4.925,4.27,-5.81,0.21
,-8.667,0.687,-4.922,-8.775,0.012,-4.819,2.03,-5.88,0.0
,-8.751,0.629,-4.949,-8.564,-0.065,-4.889,0.77,-6.51,0.14
30364.0,-8.514,-0.196,-4.738,-8.665,-0.297,-4.666,7.21,-5.81,-0.7
,-8.667,-0.309,-4.63,-8.586,-0.182,-4.587,9.24,-5.39,0.49
,-8.638,-0.364,-4.736,-8.725,0.17,-4.537,10.29,-4.97,1.4
,-8.634,-0.335,-4.714,-8.672,0.414,-4.429,10.57,-4.76,2.03
30440.0,-8.734,0.44,-4.451,-8.648,0.443,-4.74,4.83,-4.34,4.27
,-8.796,0.469,-4.594,-8.636,0.426,-4.838,2.45,-3.78,4.48
,-8.825,0.447,-4.652,-8.825,0.689,-4.987,1.47,-3.36,4.06
,-8.705,0.392,-4.685,-8.612,0.529,-4.927,2.03,-2.38,3.5
30516.0,-8.78,0.543,-4.843,-8.763,0.902,-4.872,10.85,0.0,0.63
,-8.686,0.727,-4.714,-8.856,0.732,-4.858,11.06,-0.21,0.0
,-8.66,1.005,-4.745,-8.634,0.445,-4.86,9.31,-0.7,-1.26
,-8.643,1.053,-4.884,-8.648,0.328,-4.838,5.18,-1.47,-2.17
30591.0,-8.648,0.189,-4.824,-8.655,0.098,-4.786,-0.42,-2.1,-3.22
,-8.763,0.12,-4.822,-8.784,-0.115,-4.769,1.12,-2.73,-3.92
,-8.768,0.215,-4.884,-8.796,-0.227,-4.853,1.96,-3.71,-4.48
,-8.751,0.239,-4.949,-8.859,-0.237,-4.743,1.89,-4.62,-4.76
30667.0,-8.942,-0.177,-4.836,-8.837,0.0,-4.712,3.22,-7.0,-1.89
,-8.717,-0.019,-4.972,-8.902,-0.019,-4.616,3.22,-7.35,-2.45
,-8.574,0.122,-4.757,-8.861,-0.048,-4.602,3.29,-7.28,-2.45
,-8.672,0.112,-4.669,-8.808,-0.031,-4.616,3.01,-7.35,-2.17
30742.0,-8.813,0.093,-4.599,-8.772,-0.017,-4.42,5.6,-8.61,-1.19
,-8.775,0.084,-4.535,-8.94,-0.067,-4.324,6.09,-8.68,-1.33
,-8.796,0.112,-4.537,-9.134,0.062,-4.472,4.9,-8.89,-0.84
,-8.741,0.084,-4.413,-9.062,0.266,-4.566,3.71,-9.24,-0.14
30818.0,-8.882,0.254,-4.561,-8.947,0.239,-4.159,3.85,-10.36,-0.7
,-8.612,0.163,-4.64,-8.911,0.34,-3.989,2.73,-10.22,-0.35
,-8.586,0.127,-4.496,-9.009,0.404,-4.247,4.13,-9.73,-0.35
,-8.777,0.148,-4.212,-9.079,0.323,-4.223,6.44,-9.24,-0.28
30894.0,-9.043,0.172,-4.178,-9.014,0.409,-3.79,3.85,-9.31,-1.75
,-8.887,0.141,-3.967,-9.141,0.345,-3.824,4.48,-8.47,-2.03
,-8.804,0.258,-3.908,-9.103,0.093,-3.821,5.32,-8.05,-2.24
,-8.827,0.369,-3.719,-8.871,-0.026,-3.946,4.48,-8.05,-2.94
30970.0,-8.899,-0.136,-3.984,-9.05,-0.304,-3.972,-0.77,-7.14,-3.08
,-8.959,-0.002,-4.032,-9.079,-0.471,-3.79,0.35,-7.42,-3.5
,-8.993,0.048,-4.123,-9.139,-0.366,-4.049,0.42,-7.49,-3.99
,-9.016,0.007,-4.099,-9.062,-0.127,-4.015,-0.98,-7.35,-4.2
31045.0,-9.024,-0.031,-4.03,-9.016,0.072,-4.463,-3.22,-6.44,-2.66
,-9.045,-0.093,-4.034,-9.139,-0.098,-4.231,-4.06,-6.37,-2.24
,-8.909,-0.062,-4.281,-9.213,-0.208,-3.845,-4.97,-6.86,-2.17
,-8.981,0.029,-4.604,-9.196,-0.048,-3.807,-4.62,-7.84,-2.24
31121.0,-9.062,0.16,-3.836,-9.124,-0.043,-3.946,-0.49,-8.4,-3.08
,-9.055,0.292,-4.281,-9.103,0.026,-3.872,-3.43,-9.45,-3.64
,-9.083,0.268,-4.207,-9.115,0.077,-3.843,-5.88,-9.24,-3.57
,-9.107,-0.103,-4.049,-9.158,-0.074,-3.752,-4.76,-8.54,-2.73
31196.0,-9.148,-0.251,-3.726,-9.165,-0.38,-3.288,-0.14,-9.31,-2.87
,-9.11,-0.457,-3.568,-9.292,-0.086,-3.295,1.33,-9.03,-2.66
,-9.086,-0.392,-3.635,-9.239,0.258,-3.24,2.24,-8.82,-2.24
,-9.083,-0.455,-3.441,-9.17,0.369,-3.199,3.57,-8.19,-1.47
31272.0,-9.201,0.311,-3.278,-9.217,0.335,-3.408,3.29,-5.53,-1.96
,-9.198,0.266,-3.446,-9.201,0.428,-3.668,2.66,-5.25,-2.59
,-9.194,0.208,-3.386,-9.21,0.438,-3.709,3.01,-4.97,-3.01
,-9.229,0.227,-3.376,-9.179,0.249,-4.015,4.27,-4.55,-3.15
31348.0,-9.127,-0.151,-3.982,-9.402,-0.323,-3.52,-3.5,-5.67,-5.67
,-9.055,-0.503,-3.908,-9.335,-0.062,-3.893,-1.4,-5.04,-5.32
,-9.165,-0.718,-3.52,-9.196,-0.005,-4.159,1.33,-5.11,-4.9
,-9.33,-0.648,-3.47,-9.091,-0.275,-3.929,4.2,-5.25,-4.55
31424.0,-9.098,-0.526,-3.707,-9.474,0.024,-3.061,4.13,-6.16,-3.08
,-9.201,-0.617,-3.415,-9.366,0.096,-3.108,7.77,-5.81,-2.66
,-9.253,-0.51,-2.974,-9.251,0.007,-3.484,11.27,-5.53,-2.38
,-9.32,-0.168,-2.745,-9.105,-0.189,-3.678,11.62,-5.25,-2.1
31500.0,-9.103,-0.357,-3.482,-9.457,-0.364,-2.819,1.61,-5.25,-3.5
,-9.186,-0.325,-3.697,-9.438,-0.438,-2.678,4.41,-5.46,-3.36
,-9.239,-0.321,-3.262,-9.457,-0.433,-2.63,6.44,-5.11,-3.08
,-9.342,-0.275,-3.051,-9.366,-0.309,-3.166,7.7,-5.04,-2.87
31575.0,-9.196,-0.225,-3.51,-9.387,-0.266,-4.011,0.98,-3.15,-2.66
,-9.215,-0.201,-3.865,-9.359,-0.208,-3.855,1.26,-3.5,-2.52
,-9.127,-0.17,-4.085,-9.392,-0.38,-3.506,1.89,-4.06,-2.59
,-9.22,-0.254,-4.044,-9.435,-0.323,-3.491,3.78,-4.34,-2.66
31651.0,-9.445,-0.12,-3.941,-9.203,-0.526,-3.46,6.16,-7.98,-3.57
,-9.308,-0.031,-3.886,-9.368,-0.495,-3.132,5.6,-8.61,-3.85
,-9.22,-0.026,-3.994,-9.44,-0.493,-2.982,5.67,-9.59,-3.85
,-9.182,-0.237,-3.85,-9.411,-0.546,-2.501,5.95,-9.73,-3.99
31727.0,-9.418,-0.503,-2.491,-9.457,-0.835,-1.737,8.75,-9.03,-3.36
,-9.375,-0.687,-2.204,-9.552,-0.771,-2.06,7.84,-8.05,-3.29
,-9.414,-0.742,-2.022,-9.426,-0.713,-2.005,8.19,-6.51,-2.8
,-9.435,-0.725,-1.929,-9.409,-0.605,-2.132,7.91,-5.04,-2.31
31803.0,-9.452,-0.354,-2.596,-9.378,-0.658,-3.238,5.39,0.42,-0.98
,-9.361,-0.321,-2.807,-9.383,-0.438,-3.278,3.5,1.05,-1.19
,-9.311,-0.471,-3.13,-9.313,-0.455,-3.094,1.75,1.26,-1.33
,-9.299,-0.651,-3.154,-9.435,-0.486,-3.008,1.96,1.61,-0.98
31878.0,-9.586,-0.553,-2.915,-9.347,-0.625,-3.565,4.27,2.38,-0.14
,-9.56,-0.376,-3.008,-9.356,-0.589,-3.58,3.22,1.89,-0.56
,-9.447,-0.392,-3.118,-9.301,-0.699,-3.525,1.19,1.61,-0.98
,-9.347,-0.519,-3.362,-9.284,-0.816,-3.398,-0.14,1.47,-1.12
31954.0,-9.356,-0.701,-3.257,-9.493,-0.663,-2.922,6.37,-0.07,0.07
,-9.359,-0.467,-3.096,-9.466,-0.687,-2.984,7.28,-0.63,0.0
,-9.435,-0.337,-2.946,-9.368,-0.749,-2.833,6.02,-0.63,0.0
,-9.452,-0.392,-2.812,-9.469,-0.759,-2.915,3.08,-0.42,-0.28
32029.0,-9.402,-0.641,-2.974,-9.366,-0.469,-3.068,3.08,0.0,0.35
,-9.421,-0.55,-3.075,-9.442,-0.68,-2.974,3.92,-0.07,0.56
,-9.409,-0.357,-3.228,-9.385,-0.651,-2.867,3.29,-0.21,0.49
,-9.366,-0.457,-3.171,-9.442,-0.625,-2.754,2.73,0.0,0.49
32105.0,-9.488,-0.586,-2.816,-9.457,-0.572,-2.714,3.08,0.49,0.7
,-9.433,-0.526,-2.862,-9.469,-0.455,-2.824,2.24,0.63,0.63
,-9.418,-0.605,-2.852,-9.457,-0.512,-2.97,1.47,0.98,0.77
,-9.428,-0.629,-2.752,-9.399,-0.605,-3.039,1.68,1.61,1.05
32181.0,-9.409,-0.644,-3.104,-9.349,-0.462,-3.185,0.0,2.24,1.05
,-9.397,-0.684,-3.053,-9.421,-0.507,-3.135,1.26,2.45,1.33
,-9.435,-0.562,-3.173,-9.466,-0.577,-3.137,2.59,2.17,1.47
,-9.44,-0.4,-3.228,-9.373,-0.51,-3.13,2.66,1.96,1.4
32257.0,-9.45,-0.392,-3.209,-9.418,-0.548,-2.874,2.73,1.26,1.19
,-9.38,-0.495,-2.972,-9.452,-0.517,-2.931,2.17,1.26,1.12
,-9.423,-0.589,-3.02,-9.426,-0.5,-3.029,2.17,1.26,1.12
,-9.469,-0.637,-2.943,-9.387,-0.514,-2.989,2.59,1.33,1.12
32333.0,-9.387,-0.548,-3.022,-9.407,-0.514,-3.204,1.54,1.96,1.26
,-9.387,-0.536,-3.094,-9.383,-0.589,-3.118,1.96,2.03,1.26
,-9.383,-0.414,-3.197,-9.38,-0.615,-3.01,1.96,1.75,1.19
,-9.378,-0.354,-3.331,-9.423,-0.601,-2.962,1.47,1.61,0.98
32408.0,-9.526,-0.524,-2.84,-9.404,-0.55,-2.941,2.73,1.61,1.19
,-9.497,-0.428,-3.139,-9.387,-0.656,-2.977,2.24,1.33,0.91
,-9.411,-0.445,-2.998,-9.438,-0.543,-2.742,1.68,1.33,1.05
,-9.373,-0.524,-3.029,-9.447,-0.608,-2.618,1.54,1.61,1.12
32484.0,-9.488,-0.567,-2.625,-9.387,-0.424,-3.276,0.7,3.01,1.33
,-9.5,-0.5,-2.556,-9.375,-0.524,-3.408,0.56,3.43,1.19
,-9.464,-0.474,-2.845,-9.347,-0.495,-3.412,-0.14,3.22,0.98
,-9.402,-0.464,-3.132,-9.387,-0.474,-3.355,-0.28,3.22,0.77
32560.0,-9.423,-0.416,-3.403,-9.34,-0.538,-3.128,2.94,2.1,1.05
,-9.414,-0.376,-3.412,-9.426,-0.565,-3.125,2.66,1.68,0.91
,-9.385,-0.407,-3.364,-9.476,-0.483,-3.029,2.31,1.26,0.84
,-9.371,-0.486,-3.247,-9.442,-0.309,-2.977,2.31,1.05,0.77
32636.0,-9.407,-0.337,-2.96,-9.447,-0.701,-2.998,2.03,1.47,0.84
,-9.399,-0.464,-3.005,-9.485,-0.409,-3.022,0.28,1.68,0.7
,-9.351,-0.651,-2.989,-9.45,-0.333,-3.195,-0.56,1.89,0.91
,-9.349,-0.766,-2.965,-9.344,-0.376,-3.302,0.49,2.17,0.98
32711.0,-9.296,-0.402,-3.276,-9.423,-0.402,-3.218,-0.35,1.54,0.84
,-9.332,-0.531,-3.266,-9.344,-0.531,-3.147,0.35,1.75,0.98
,-9.471,-0.479,-3.362,-9.39,-0.632,-3.137,1.82,1.4,0.98
,-9.469,-0.376,-3.321,-9.349,-0.541,-3.116,1.75,1.05,0.98
32787.0,-9.421,-0.438,-3.163,-9.464,-0.416,-2.967,3.22,0.91,1.19
,-9.438,-0.479,-3.125,-9.423,-0.424,-2.785,2.73,1.05,1.12
,-9.438,-0.529,-2.9,-9.402,-0.488,-2.864,2.8,1.19,1.26
,-9.474,-0.526,-2.97,-9.347,-0.57,-2.816,3.01,1.47,1.19
32862.0,-9.385,-0.596,-2.721,-9.328,-0.409,-3.735,0.91,2.8,1.47
,-9.447,-0.486,-3.065,-9.313,-0.476,-3.716,1.05,2.73,1.19
,-9.418,-0.306,-3.331,-9.363,-0.491,-3.609,1.05,2.31,1.12
,-9.402,-0.299,-3.592,-9.399,-0.45,-3.496,-0.14,1.75,0.77
32938.0,-9.414,-0.424,-3.252,-9.474,-0.476,-2.776,3.64,-0.07,0.84
,-9.416,-0.495,-2.927,-9.442,-0.491,-2.836,3.22,0.14,0.84
,-9.442,-0.584,-2.728,-9.378,-0.55,-2.848,2.8,0.28,0.98
,-9.529,-0.5,-2.709,-9.356,-0.617,-2.781,2.59,0.35,0.84
33014.0,-9.39,-0.538,-2.802,-9.395,-0.373,-3.135,3.22,2.24,1.4
,-9.485,-0.438,-2.802,-9.399,-0.445,-3.35,2.73,2.59,1.26
,-9.533,-0.388,-2.821,-9.349,-0.483,-3.489,1.96,2.73,1.05
,-9.485,-0.321,-3.082,-9.313,-0.507,-3.41,0.35,2.8,0.84
33090.0,-9.464,-0.467,-3.355,-9.442,-0.364,-3.063,3.92,1.96,0.98
,-9.421,-0.426,-3.113,-9.404,-0.44,-3.094,4.27,2.03,1.12
,-9.418,-0.371,-3.077,-9.38,-0.548,-3.128,4.27,1.89,1.12
,-9.447,-0.376,-3.013,-9.351,-0.555,-3.094,3.5,1.75,0.98
33165.0,-9.39,-0.514,-3.058,-9.421,-0.452,-3.01,2.45,2.17,0.63
,-9.418,-0.483,-3.049,-9.378,-0.452,-2.955,2.52,2.03,0.7
,-9.43,-0.438,-2.986,-9.414,-0.404,-3.209,2.03,2.03,0.63
,-9.476,-0.481,-2.924,-9.418,-0.455,-3.281,1.4,2.24,0.7
33241.0,-9.359,-0.464,-3.343,-9.378,-0.481,-3.132,1.26,2.03,0.56
,-9.385,-0.505,-3.309,-9.392,-0.512,-2.996,1.96,1.89,0.7
,-9.392,-0.479,-3.336,-9.414,-0.541,-2.836,2.87,1.89,0.7
,-9.397,-0.447,-3.228,-9.411,-0.407,-2.857,3.29,1.61,0.63
33317.0,-9.43,-0.347,-2.759,-9.438,-0.519,-3.183,1.4,2.66,0.91
,-9.385,-0.476,-2.769,-9.39,-0.467,-3.195,0.07,2.87,0.63
,-9.373,-0.512,-2.927,-9.416,-0.507,-3.331,-0.56,3.36,0.7
,-9.392,-0.546,-3.008,-9.375,-0.495,-3.424,-0.35,3.36,0.7
33393.0,-9.351,-0.44,-3.386,-9.44,-0.404,-3.077,1.4,3.08,0.91
,-9.363,-0.404,-3.381,-9.397,-0.376,-3.063,1.61,2.52,0.84
,-9.363,-0.455,-3.319,-9.354,-0.414,-2.972,1.89,2.59,0.91
,-9.344,-0.457,-3.278,-9.397,-0.55,-3.072,3.01,2.52,0.84
33469.0,-9.344,-0.553,-2.977,-9.39,-0.409,-3.183,0.84,2.59,0.91
,-9.363,-0.586,-3.132,-9.371,-0.421,-3.101,1.89,2.59,1.05
,-9.423,-0.584,-3.12,-9.375,-0.467,-2.986,3.15,2.59,1.19
,-9.313,-0.402,-3.192,-9.399,-0.378,-3.094,3.15,2.52,1.12
33544.0,-9.423,-0.433,-3.216,-9.418,-0.457,-3.242,-0.21,2.8,0.98
,-9.442,-0.385,-3.324,-9.366,-0.416,-3.24,0.07,2.8,0.91
,-9.371,-0.467,-3.221,-9.359,-0.438,-3.197,-0.21,2.73,0.84
,-9.342,-0.483,-3.29,-9.316,-0.464,-3.214,0.21,2.73,0.91
33620.0,-9.363,-0.455,-3.223,-9.318,-0.479,-3.051,1.05,2.52,1.05
,-9.368,-0.369,-3.276,-9.378,-0.493,-2.994,1.19,2.45,0.98
,-9.366,-0.457,-3.283,-9.442,-0.409,-2.977,1.26,2.59,0.91
,-9.344,-0.481,-3.262,-9.328,-0.333,-2.982,1.96,2.59,1.12
33695.0,-9.378,-0.55,-3.008,-9.378,-0.438,-3.104,-0.28,3.29,1.19
,-9.287,-0.517,-2.929,-9.373,-0.347,-3.013,0.07,3.5,1.47
,-9.375,-0.651,-3.116,-9.409,-0.409,-3.242,0.0,3.5,1.47
,-9.328,-0.531,-3.357,-9.313,-0.258,-3.058,0.7,3.57,1.68
33771.0,-9.301,-0.385,-3.053,-9.397,-0.27,-3.336,-1.4,4.69,1.75
,-9.28,-0.491,-3.151,-9.378,-0.285,-3.41,-2.17,4.76,1.61
,-9.318,-0.524,-3.096,-9.438,-0.309,-3.563,-1.54,5.04,1.82
,-9.387,-0.395,-3.226,-9.318,-0.335,-3.599,-0.63,5.18,1.89
33847.0,-9.32,-0.337,-3.692,-9.349,-0.407,-3.568,-1.05,4.13,1.47
,-9.249,-0.318,-3.762,-9.409,-0.426,-3.527,-0.63,3.57,1.4
,-9.27,-0.378,-3.666,-9.308,-0.352,-3.446,0.42,3.29,1.4
,-9.301,-0.44,-3.589,-9.335,-0.486,-3.403,1.26,2.94,1.61
33923.0,-9.282,-0.397,-3.369,-9.418,-0.323,-3.262,0.42,1.89,1.68
,-9.304,-0.495,-3.156,-9.373,-0.266,-3.266,1.05,2.03,1.82
,-9.363,-0.426,-3.094,-9.399,-0.203,-3.709,1.4,2.31,1.96
,-9.397,-0.452,-3.044,-9.363,-0.235,-3.719,1.82,2.52,2.1
33998.0,-9.284,-0.28,-3.656,-9.38,-0.395,-3.278,0.28,2.03,1.75
,-9.244,-0.443,-3.558,-9.373,-0.299,-3.441,0.42,1.82,1.82
,-9.311,-0.514,-3.364,-9.347,-0.16,-3.36,1.12,1.68,2.1
,-9.342,-0.505,-3.293,-9.284,-0.203,-3.226,2.66,1.82,2.24
34074.0,-9.296,-0.282,-3.238,-9.356,-0.426,-3.386,1.19,1.75,1.75
,-9.292,-0.373,-3.166,-9.371,-0.321,-3.324,1.05,2.03,1.89
,-9.306,-0.378,-3.226,-9.301,-0.414,-3.338,1.19,2.03,1.96
,-9.316,-0.402,-3.257,-9.318,-0.409,-3.34,1.4,1.96,2.03
34150.0,-9.308,-0.414,-3.36,-9.332,-0.11,-3.451,2.24,2.52,2.45
,-9.316,-0.414,-3.247,-9.316,-0.16,-3.403,3.15,2.87,2.8
,-9.337,-0.311,-3.305,-9.227,-0.172,-3.431,3.57,2.94,2.73
,-9.347,-0.213,-3.245,-9.256,-0.208,-3.424,3.78,2.8,2.8
34226.0,-9.308,-0.251,-3.283,-9.27,-0.302,-3.563,2.59,3.01,2.1
,-9.392,-0.179,-3.362,-9.139,-0.347,-3.24,2.24,2.94,1.96
,-9.399,-0.163,-3.491,-9.22,-0.313,-3.18,0.84,2.45,1.68
,-9.33,-0.237,-3.537,-9.301,-0.199,-3.403,-0.63,2.1,1.33
34302.0,-9.33,-0.156,-3.357,-9.337,-0.361,-3.269,0.28,2.66,1.82
,-9.311,-0.371,-3.364,-9.308,-0.045,-3.273,-1.12,2.8,2.1
,-9.318,-0.447,-3.429,-9.397,0.093,-3.278,-1.26,3.29,2.38
,-9.249,-0.567,-3.209,-9.323,0.029,-3.168,1.19,3.99,2.94
34377.0,-9.351,-0.218,-3.168,-9.287,0.191,-3.163,-0.28,4.83,2.66
,-9.316,-0.342,-3.238,-9.22,0.134,-3.489,-0.63,4.97,2.31
,-9.328,-0.292,-2.776,-9.124,-0.096,-3.857,0.35,5.39,2.38
,-9.421,-0.026,-3.037,-9.014,-0.546,-3.609,-1.19,5.04,1.82
34453.0,-9.136,-0.713,-3.604,-9.354,0.103,-2.84,-3.92,5.74,2.1
,-9.306,-0.589,-3.223,-9.263,0.014,-3.209,0.28,6.44,2.59
,-9.337,-0.486,-2.912,-9.277,-0.325,-3.259,3.92,6.51,3.01
,-9.399,-0.074,-2.907,-9.332,-0.634,-3.307,4.41,5.95,2.87
34528.0,-9.227,-0.701,-3.163,-9.112,0.141,-3.936,-2.87,8.75,3.43
,-9.172,-0.584,-3.211,-9.172,-0.112,-3.872,1.89,9.73,4.34
,-9.076,-0.127,-3.845,-9.112,-0.292,-3.515,4.13,8.82,4.27
,-9.076,0.168,-3.944,-9.253,-0.163,-3.563,3.15,7.98,4.2
34604.0,-9.246,0.187,-3.726,-9.141,0.163,-3.106,9.17,7.91,3.71
,-9.373,0.182,-3.848,-9.079,0.481,-3.513,6.65,7.7,3.22
,-9.292,-0.074,-3.501,-9.359,0.476,-4.111,2.66,8.05,3.15
,-9.088,-0.156,-2.489,-9.301,0.182,-4.678,3.01,9.59,3.22
34680.0,-9.107,-0.266,-4.74,-9.115,-0.414,-3.439,-16.03,5.32,0.77
,-9.05,-0.692,-4.233,-9.316,-0.546,-3.173,-11.55,6.65,1.12
,-9.021,-0.73,-3.743,-9.385,-0.692,-3.302,-5.46,7.7,1.68
,-9.0,-0.524,-3.388,-9.306,-0.672,-2.929,-0.91,7.98,1.96
34756.0,-9.361,-0.565,-3.068,-8.923,0.967,-4.207,9.1,10.92,5.53
,-9.189,0.086,-3.616,-8.971,0.431,-3.75,10.29,9.87,5.46
,-9.009,0.699,-3.721,-9.007,0.168,-3.647,9.66,9.87,5.11
,-8.954,1.115,-4.267,-9.158,0.034,-3.625,4.9,9.1,4.13
34831.0,-9.229,-0.246,-3.85,-9.11,-0.701,-2.941,-3.15,9.8,1.61
,-9.158,-0.572,-3.606,-9.232,0.065,-3.618,-2.8,10.22,2.38
,-9.153,-0.928,-3.534,-9.189,0.823,-4.279,-1.26,10.99,3.22
,-9.028,-1.05,-3.056,-9.033,1.18,-4.676,3.01,12.6,3.78
34907.0,-8.739,1.055,-4.618,-9.148,-0.12,-4.156,0.98,12.46,3.5
,-8.457,0.744,-3.982,-9.127,-0.66,-4.027,0.49,15.12,2.66
,-8.818,0.488,-3.774,-8.961,-0.694,-3.92,1.54,14.63,1.19
,-9.177,0.294,-4.075,-8.926,-0.469,-3.597,0.63,11.83,-0.14
34983.0,-9.088,-0.05,-3.649,-8.794,0.56,-4.616,15.05,14.28,1.68
,-9.277,0.66,-3.798,-8.516,0.189,-4.078,15.61,13.65,1.12
,-9.143,0.95,-4.255,-8.775,0.12,-3.845,10.78,12.88,0.91
,-9.05,0.802,-4.432,-9.081,0.103,-3.912,3.01,12.95,0.7
35059.0,-9.127,0.261,-4.226,-8.753,-1.232,-4.369,-0.49,14.14,-2.66
,-8.892,0.184,-4.724,-8.988,-1.22,-4.415,-3.71,13.37,-2.03
,-8.648,-0.378,-4.817,-9.139,-0.9,-4.357,-6.65,14.14,-0.63
,-8.478,-0.991,-4.75,-8.916,-0.615,-4.535,-6.09,14.91,0.63
35135.0,-8.696,-0.38,-4.633,-9.1,-0.378,-4.695,5.95,15.33,5.04
,-8.679,-0.447,-4.566,-8.993,0.108,-5.013,4.13,16.52,6.09
,-8.679,-0.591,-4.506,-8.631,0.251,-5.14,4.13,17.57,6.86
,-8.839,-0.471,-4.523,-8.301,0.029,-4.815,6.37,17.43,7.42
35210.0,-8.543,-0.287,-4.645,-8.861,0.376,-4.972,4.69,14.28,8.26
,-8.851,-0.385,-4.788,-8.844,0.486,-5.001,6.3,14.28,7.63
,-9.088,-0.282,-4.822,-8.667,0.486,-5.09,7.98,13.72,7.35
,-8.993,-0.045,-4.999,-8.741,0.302,-5.013,9.17,13.51,7.28
35286.0,-8.66,0.342,-4.999,-8.89,-0.392,-4.568,1.61,10.36,6.16
,-8.339,0.534,-5.035,-8.827,-0.383,-4.681,-0.14,9.59,5.88
,-8.378,0.239,-4.965,-8.847,-0.421,-4.511,-2.1,10.29,5.25
,-8.576,-0.148,-4.683,-8.626,-0.187,-4.587,-2.24,11.27,5.25
35361.0,-8.457,0.182,-4.654,-8.782,1.103,-5.334,4.41,9.73,9.52
,-8.394,0.519,-4.992,-8.806,0.986,-5.19,4.41,9.24,9.66
,-8.497,0.711,-5.214,-8.873,0.696,-4.965,4.13,9.59,9.31
,-8.763,0.957,-5.31,-8.796,0.596,-4.901,4.41,9.17,8.4
35437.0,-8.512,0.55,-5.121,-8.54,-0.201,-5.329,-1.54,7.7,3.43
,-8.394,0.414,-5.307,-8.461,-0.388,-5.262,-1.47,7.28,3.29
,-8.521,0.199,-5.274,-8.636,-0.443,-4.984,-0.14,7.56,3.01
,-8.638,-0.065,-5.317,-8.6,0.086,-5.2,1.54,7.56,2.45
35513.0,-8.337,0.742,-5.595,-8.698,1.019,-5.178,7.98,6.44,4.34
,-8.277,1.012,-5.494,-8.617,0.433,-4.905,6.23,6.16,4.62
,-8.473,1.275,-5.334,-8.48,-0.246,-4.949,4.13,5.11,4.13
,-8.552,1.263,-5.279,-8.416,-0.768,-5.138,1.33,4.62,2.87
35589.0,-8.772,-1.017,-5.083,-8.186,0.883,-5.626,3.71,4.62,3.29
,-8.689,-0.687,-5.288,-8.217,0.704,-5.707,9.45,4.13,3.92
,-8.531,-0.227,-5.379,-8.48,0.215,-5.372,12.46,3.43,4.27
,-8.445,0.38,-5.3,-8.612,0.146,-5.178,12.25,2.1,5.11
35664.0,-8.624,0.211,-5.068,-8.492,0.22,-5.011,3.29,2.59,3.99
,-8.6,0.187,-4.929,-8.435,0.225,-5.307,5.04,2.94,2.59
,-8.495,0.093,-4.757,-8.492,0.246,-5.403,5.39,3.78,2.52
,-8.603,0.0,-4.848,-8.399,0.213,-5.482,5.39,4.06,3.36
35740.0,-8.409,0.034,-5.343,-8.605,1.029,-5.013,8.47,2.24,5.88
,-8.43,-0.022,-5.073,-8.545,1.522,-5.197,8.4,2.59,6.16
,-8.423,0.213,-5.075,-8.591,1.862,-5.087,9.1,2.52,5.46
,-8.576,0.507,-4.989,-8.571,1.613,-4.968,9.87,2.59,4.2
35816.0,-8.411,1.192,-5.004,-8.361,-0.67,-4.714,1.47,2.59,-0.63
,-8.402,0.589,-4.817,-8.521,-0.713,-4.853,0.0,3.29,-1.54
,-8.497,-0.017,-4.604,-8.653,-0.237,-5.042,-0.07,3.29,-1.54
,-8.275,-0.28,-4.69,-8.715,0.203,-5.118,1.47,3.71,-1.4
35892.0,-8.5,0.488,-5.269,-8.418,0.479,-5.37,11.9,3.71,1.19
,-8.402,0.637,-5.274,-8.416,0.22,-5.138,8.82,4.06,1.26
,-8.502,0.648,-5.15,-8.287,-0.115,-5.255,4.9,3.92,1.33
,-8.392,0.634,-5.252,-8.334,-0.127,-5.343,2.31,3.78,0.56
35967.0,-8.619,-0.134,-5.298,-8.313,-0.311,-5.281,5.74,4.97,1.19
,-8.72,-0.237,-5.31,-8.476,-0.258,-5.386,7.21,4.83,1.54
,-8.579,-0.302,-5.085,-8.653,-0.285,-5.413,7.14,5.39,2.52
,-8.38,-0.4,-5.118,-8.581,0.086,-5.396,7.14,5.32,3.85
36043.0,-8.373,0.672,-5.544,-8.567,0.11,-5.382,6.79,2.52,6.79
,-8.193,0.96,-5.647,-8.289,-0.242,-5.305,5.81,1.89,5.88
,-8.547,0.952,-5.628,-8.425,-0.364,-5.317,3.08,1.12,5.25
,-8.782,0.715,-5.604,-8.392,-0.139,-5.482,0.63,0.42,4.9
36119.0,-8.569,0.297,-5.425,-8.124,1.146,-5.456,6.72,0.42,4.76
,-8.741,0.538,-5.286,-8.332,1.036,-5.408,6.16,-0.14,5.25
,-8.543,0.689,-5.133,-8.394,0.687,-5.173,4.13,-0.98,5.67
,-8.143,1.089,-5.468,-8.251,0.424,-5.162,3.78,-1.61,5.32
36194.0,-8.358,0.572,-5.061,-8.662,0.086,-5.121,2.38,-1.47,2.03
,-8.581,0.672,-5.056,-8.471,-0.122,-4.944,3.99,-1.75,1.33
,-8.66,0.632,-5.219,-8.212,-0.079,-5.114,4.2,-1.75,0.35
,-8.763,0.457,-5.133,-8.306,0.158,-5.415,3.5,-1.4,0.0
36270.0,-8.634,0.179,-5.341,-8.435,0.428,-5.312,3.85,0.14,0.77
,-8.547,0.144,-5.439,-8.509,0.495,-5.274,4.34,-0.21,1.47
,-8.392,0.163,-5.339,-8.653,0.61,-5.145,5.25,-0.07,1.96
,-8.39,0.349,-5.183,-8.607,0.653,-4.913,5.18,-0.14,2.17
36346.0,-8.519,0.763,-5.102,-8.215,0.503,-5.185,4.83,-1.54,0.35
,-8.528,0.689,-5.128,-8.019,0.302,-5.221,4.34,-0.98,-0.21
,-8.536,0.55,-5.102,-8.153,0.012,-5.085,4.83,-0.98,-0.98
,-8.382,0.555,-5.173,-8.6,0.299,-5.035,5.67,-0.98,-1.47
36422.0,-8.715,-0.012,-4.925,-8.232,0.05,-5.075,4.76,0.07,-1.4
,-8.772,-0.053,-4.874,-8.804,0.206,-5.018,5.67,0.42,-1.47
,-8.717,-0.043,-5.018,-8.526,-0.282,-4.826,6.86,0.84,-1.33
,-8.591,-0.002,-4.941,-8.208,-0.505,-5.018,7.49,1.4,-0.84
36497.0,-8.44,-0.215,-4.903,-8.782,0.558,-4.939,5.04,2.66,4.62
,-8.519,0.514,-5.09,-8.334,0.39,-4.822,7.7,2.52,4.48
,-8.66,0.775,-5.085,-8.165,0.629,-4.913,7.28,2.45,3.57
,-8.851,0.742,-5.087,-8.203,0.73,-5.059,5.95,2.73,2.73
36573.0,-8.402,0.737,-5.209,-8.349,0.141,-5.157,2.31,3.01,1.54
,-8.485,0.553,-5.274,-8.476,0.388,-5.355,1.89,3.08,1.61
,-8.557,0.218,-5.219,-8.67,0.38,-5.212,1.33,3.43,1.68
,-8.433,0.067,-5.19,-8.691,0.251,-5.212,1.96,3.64,1.75
36649.0,-8.38,0.101,-5.255,-8.67,0.069,-5.226,1.05,3.29,1.54
,-8.332,0.026,-5.238,-8.473,0.141,-5.243,0.77,3.57,1.54
,-8.339,-0.045,-5.348,-8.306,0.191,-5.281,0.84,3.85,1.4
,-8.464,0.05,-5.339,-8.318,0.275,-5.372,1.19,4.06,1.33
36725.0,-8.423,0.38,-5.339,-8.435,0.818,-4.958,1.33,3.43,3.43
,-8.485,0.471,-5.331,-8.315,0.572,-4.913,1.54,3.5,2.59
,-8.409,0.581,-5.169,-8.318,0.495,-5.138,2.17,3.85,1.75
,-8.397,0.72,-5.001,-8.449,0.818,-5.286,1.89,4.48,1.26
36800.0,-8.44,1.141,-5.37,-8.727,0.514,-5.391,1.82,4.48,0.49
,-8.423,1.311,-5.525,-8.437,-0.249,-5.303,2.1,4.27,-1.4
,-8.631,1.371,-5.638,-8.236,-0.656,-5.425,1.05,3.57,-3.29
,-8.794,1.194,-5.671,-8.385,-0.388,-5.52,-1.96,3.01,-3.85
36876.0,-8.428,0.302,-5.626,-8.61,0.309,-5.776,3.15,1.89,-1.61
,-8.306,0.869,-5.879,-8.679,0.038,-5.738,3.22,1.05,-2.03
,-8.296,0.84,-5.788,-8.643,-0.079,-5.81,-0.14,0.77,-2.38
,-8.461,0.625,-5.705,-8.555,-0.151,-5.736,-3.57,0.14,-2.66
36951.0,-8.445,-0.282,-5.587,-8.586,-0.201,-5.702,-3.71,-2.45,-1.54
,-8.394,-0.325,-5.659,-8.715,0.124,-5.628,-2.45,-2.8,-0.91
,-8.413,-0.239,-5.796,-8.612,0.409,-5.65,-1.47,-3.15,0.07
,-8.483,-0.268,-5.671,-8.538,0.498,-5.453,-0.21,-3.92,1.26
37027.0,-8.397,0.388,-5.171,-8.617,0.771,-4.987,-0.14,-5.39,2.03
,-8.323,0.436,-5.037,-8.543,0.794,-5.083,-0.56,-4.9,2.66
,-8.48,0.627,-4.965,-8.416,0.668,-5.106,-0.56,-4.76,2.59
,-8.514,0.534,-4.908,-8.495,0.156,-4.97,-0.28,-4.97,1.05
37103.0,-8.65,-0.134,-4.829,-8.459,0.182,-5.042,1.89,-6.65,-0.84
,-8.574,-0.282,-4.975,-8.562,0.361,-5.061,4.62,-7.14,-0.91
,-8.459,-0.199,-4.999,-8.605,0.646,-5.039,7.35,-7.07,-1.12
,-8.411,0.048,-5.032,-8.512,0.739,-5.004,9.52,-6.72,-1.33
37179.0,-8.205,0.754,-5.087,-8.646,0.237,-4.996,0.28,-5.81,-1.33
,-8.272,0.579,-4.85,-8.598,0.098,-5.051,-1.89,-4.9,-1.61
,-8.485,0.313,-4.683,-8.588,-0.096,-4.922,-2.59,-4.55,-1.68
,-8.571,0.311,-4.712,-8.502,-0.012,-5.063,-1.61,-4.69,-1.82
37255.0,-8.495,0.084,-5.039,-8.689,0.718,-4.807,8.12,-3.29,-1.19
,-8.452,0.129,-5.071,-8.715,0.648,-4.678,8.61,-3.22,-0.63
,-8.65,0.235,-4.944,-8.543,0.529,-4.602,8.12,-3.57,0.0
,-8.617,0.543,-4.905,-8.528,0.45,-4.599,7.98,-4.06,0.07
37330.0,-8.737,0.361,-4.444,-8.447,0.266,-4.714,2.03,-3.99,0.14
,-8.801,0.409,-4.602,-8.66,0.151,-4.566,2.73,-6.93,0.21
,-8.66,0.668,-4.91,-8.672,0.38,-4.666,1.96,-9.59,0.35
,-8.416,0.562,-4.927,-8.626,0.536,-4.64,0.98,-9.17,0.35
37406.0,-8.653,0.555,-4.609,-8.796,0.34,-4.606,3.08,-5.88,-2.1
,-8.679,0.529,-4.535,-8.765,0.156,-4.704,1.47,-5.32,-1.89
,-8.588,0.436,-4.621,-8.818,-0.053,-4.645,0.21,-4.62,-2.1
,-8.667,0.383,-4.561,-8.552,-0.148,-4.817,0.21,-4.34,-2.1
37482.0,-8.562,-0.235,-4.714,-8.713,0.452,-4.602,-0.91,-3.99,-2.24
,-8.768,-0.249,-4.515,-8.78,0.282,-4.618,2.52,-3.36,-0.98
,-8.691,0.141,-4.537,-8.804,0.246,-4.606,4.41,-3.99,-0.49
,-8.689,0.629,-4.623,-8.722,0.227,-4.661,3.85,-4.62,-0.98
37558.0,-8.78,0.383,-4.417,-8.813,0.194,-4.853,3.64,-1.82,-0.63
,-8.815,0.581,-4.594,-8.849,-0.031,-4.719,3.64,-4.13,-1.05
,-8.614,0.656,-4.748,-8.78,-0.055,-4.611,1.75,-5.25,-1.68
,-8.808,0.531,-4.805,-8.885,-0.014,-4.611,-0.07,-5.46,-2.1
37633.0,-8.815,0.034,-4.736,-8.854,-0.261,-4.879,0.98,-2.94,-3.08
,-8.823,-0.031,-4.769,-8.765,-0.201,-4.707,0.14,-3.43,-1.68
,-8.653,-0.11,-4.903,-8.729,-0.098,-4.568,-0.28,-4.06,-0.77
,-8.648,-0.191,-4.929,-8.701,-0.017,-4.477,0.84,-3.99,-0.77
37709.0,-8.887,0.014,-4.374,-8.823,0.105,-4.585,6.37,-3.43,1.19
,-8.954,0.117,-4.444,-8.906,0.156,-4.587,5.67,-4.06,1.26
,-8.902,-0.002,-4.403,-8.971,0.318,-4.551,4.97,-4.13,1.54
,-8.844,0.029,-4.499,-8.859,0.488,-4.53,5.6,-3.78,2.1
37784.0,-8.842,0.579,-4.635,-8.799,0.297,-4.279,6.44,-2.73,0.77
,-8.835,0.428,-4.58,-8.928,0.452,-4.343,4.62,-2.66,1.05
,-8.715,0.337,-4.547,-8.961,0.637,-4.537,3.71,-2.24,1.4
,-8.703,0.275,-4.429,-8.897,0.689,-4.606,4.83,-1.75,1.26
37860.0,-8.854,0.412,-4.535,-8.909,-0.086,-4.152,4.41,-3.5,-0.91
,-8.859,0.168,-4.398,-8.909,-0.239,-3.872,3.43,-3.43,-1.4
,-8.787,0.091,-4.298,-8.923,-0.258,-3.881,3.15,-3.57,-1.96
,-8.815,0.072,-4.147,-8.938,-0.026,-3.953,2.8,-3.57,-2.17
37936.0,-8.897,0.347,-4.113,-9.0,0.333,-4.178,5.25,-3.5,-1.05
,-8.835,0.639,-4.307,-9.031,0.474,-4.369,3.92,-3.92,-1.4
,-8.875,0.536,-4.226,-9.031,0.541,-4.681,1.54,-3.43,-1.75
,-8.981,0.29,-4.209,-8.976,0.483,-4.602,0.35,-2.73,-2.24
38012.0,-8.959,0.369,-4.893,-8.894,-0.12,-4.798,-4.2,-4.34,-4.55
,-8.959,0.208,-4.625,-8.844,-0.251,-4.58,-4.27,-4.41,-5.25
,-8.933,0.127,-4.625,-8.947,-0.316,-4.688,-4.2,-4.69,-5.74
,-8.849,0.062,-4.597,-8.928,-0.371,-4.594,-5.04,-5.04,-6.02
38088.0,-8.842,-0.27,-4.487,-8.904,-0.586,-4.221,-3.64,-7.56,-4.62
,-8.768,-0.144,-4.547,-9.052,-0.727,-3.989,-3.85,-8.33,-4.27
,-8.772,-0.151,-4.554,-9.191,-0.526,-3.668,-4.9,-8.75,-3.78
,-8.825,-0.39,-4.403,-9.239,-0.311,-3.573,-4.48,-8.68,-2.73
38163.0,-9.1,0.014,-3.75,-8.995,0.227,-4.288,6.86,-8.12,-0.07
,-9.005,0.261,-3.939,-9.057,0.402,-4.142,5.74,-8.68,-0.21
,-8.93,0.223,-4.137,-9.045,0.555,-4.068,3.22,-8.75,-0.07
,-8.99,0.213,-4.269,-9.021,0.56,-4.154,2.38,-8.54,-0.14
38239.0,-9.005,0.313,-4.106,-9.081,0.01,-3.917,0.35,-9.38,-2.94
,-9.031,0.062,-4.063,-9.115,0.055,-3.891,0.56,-9.17,-3.01
,-9.007,-0.06,-4.013,-9.17,-0.024,-4.018,2.17,-9.03,-3.01
,-9.131,-0.081,-3.896,-9.117,-0.101,-4.279,3.85,-9.17,-3.08
38315.0,-9.105,-0.275,-4.097,-9.167,0.041,-3.824,2.52,-10.36,-2.38
,-9.083,-0.383,-4.039,-9.249,0.168,-3.582,5.25,-10.22,-1.82
,-9.146,-0.337,-4.054,-9.325,0.335,-3.711,7.56,-10.57,-1.68
,-9.127,-0.141,-3.896,-9.232,0.354,-3.585,10.15,-10.64,-1.61
38391.0,-9.105,0.256,-3.518,-9.184,0.337,-3.733,9.03,-10.5,-2.66
,-9.079,0.101,-3.355,-9.277,0.16,-3.86,9.66,-9.94,-2.8
,-9.081,0.077,-3.553,-9.289,-0.062,-3.625,9.87,-10.43,-3.43
,-9.196,0.218,-3.766,-9.277,-0.148,-3.845,10.08,-10.64,-3.99
38466.0,-9.158,-0.134,-3.611,-9.263,-0.491,-3.654,6.65,-10.71,-5.11
,-9.225,-0.16,-3.862,-9.282,-0.553,-3.522,5.67,-11.41,-5.46
,-9.229,-0.168,-3.831,-9.249,-0.579,-3.039,3.92,-11.9,-5.53
,-9.289,-0.294,-3.757,-9.387,-0.385,-3.137,3.64,-11.97,-5.25
