Timestamp,AccX,AccY,AccZ,GyroX,GyroY,GyroZ,MagnX,MagnY,MagnZ
0.0,-9.438,-0.94,-2.907,-9.442,-0.955,-2.941,2.45,1.75,0.63
,-9.426,-0.952,-2.9,-9.447,-0.928,-2.917,2.17,1.68,0.56
,-9.442,-0.962,-2.91,-9.435,-0.933,-2.965,2.17,1.54,0.42
,-9.45,-0.955,-2.955,-9.438,-0.955,-2.929,2.31,1.54,0.49
75.0,-9.44,-0.957,-2.91,-9.433,-0.912,-2.912,2.87,1.61,0.77
,-9.418,-0.938,-2.91,-9.447,-0.957,-2.9,3.15,1.68,0.84
,-9.452,-0.986,-2.895,-9.426,-0.881,-3.424,3.01,1.61,0.77
,-9.442,-0.962,-2.895,-9.392,-0.816,-3.022,2.87,1.4,0.7
151.0,-9.435,-0.931,-2.86,-9.416,-1.096,-2.501,2.31,1.82,0.98
,-9.495,-0.921,-2.776,-9.545,-1.079,-3.022,2.24,1.96,0.98
,-9.481,-1.003,-2.704,-9.378,-0.866,-3.022,2.24,2.1,0.91
,-9.485,-0.998,-2.556,-9.414,-1.007,-3.015,2.31,2.31,0.91
227.0,-9.414,-0.924,-3.015,-9.416,-0.931,-3.046,2.8,2.59,0.84
,-9.409,-0.943,-2.984,-9.411,-0.969,-3.044,1.89,2.45,0.84
,-9.454,-0.991,-2.977,-9.447,-0.981,-3.025,1.54,2.17,0.77
,-9.426,-0.962,-2.984,-9.445,-0.974,-3.025,1.61,2.24,0.77
302.0,-9.414,-0.955,-2.996,-9.43,-1.003,-2.943,2.17,1.82,1.05
,-9.44,-0.924,-2.97,-9.416,-0.981,-2.934,2.24,1.82,0.98
,-9.438,-0.962,-2.903,-9.428,-0.981,-2.929,2.03,1.61,0.91
,-9.481,-0.988,-2.955,-9.416,-0.94,-2.924,1.96,1.47,0.98
378.0,-9.507,-0.924,-2.924,-9.438,-0.95,-2.864,2.24,1.4,1.12
,-9.497,-0.897,-2.912,-9.44,-0.928,-2.919,2.24,1.54,1.12
,-9.481,-0.936,-2.874,-9.426,-0.926,-2.888,2.17,1.47,1.12
,-9.447,-0.931,-2.874,-9.457,-0.979,-2.891,2.03,1.4,1.12
453.0,-9.447,-0.952,-2.895,-9.399,-0.919,-2.953,2.59,1.68,1.4
,-9.457,-0.955,-2.881,-9.433,-0.969,-2.934,2.73,1.96,1.47
,-9.447,-0.89,-2.929,-9.433,-0.945,-2.962,2.73,1.61,1.33
,-9.43,-0.9,-2.929,-9.411,-0.905,-2.982,2.59,1.68,1.19
529.0,-9.404,-0.859,-2.907,-9.514,-0.928,-2.903,2.59,1.4,1.26
,-9.39,-0.948,-2.924,-9.562,-0.878,-2.85,2.31,1.54,1.33
,-9.39,-0.926,-2.881,-9.481,-0.938,-2.783,2.24,1.54,1.33
,-9.466,-0.981,-2.907,-9.447,-0.905,-2.752,2.24,1.47,1.33
605.0,-9.414,-0.838,-2.785,-9.435,-0.809,-2.962,2.59,2.17,1.33
,-9.435,-0.771,-2.85,-9.33,-0.936,-3.077,2.45,2.24,1.26
,-9.488,-0.873,-2.931,-9.409,-0.924,-3.039,2.38,2.24,1.19
,-9.56,-0.907,-3.003,-9.349,-0.983,-3.005,2.38,2.17,1.26
681.0,-9.366,-0.983,-3.12,-9.421,-0.94,-3.132,3.29,1.75,1.61
,-9.34,-1.019,-3.13,-9.435,-0.905,-3.037,3.71,1.47,1.47
,-9.328,-1.003,-3.206,-9.462,-0.89,-2.903,3.99,1.12,1.4
,-9.344,-0.991,-3.195,-9.471,-0.871,-2.795,3.92,0.98,1.61
757.0,-9.514,-0.914,-2.74,-9.483,-0.912,-2.8,1.4,0.42,1.47
,-9.497,-0.96,-2.678,-9.423,-0.938,-2.807,1.4,0.56,1.54
,-9.457,-0.936,-2.757,-9.409,-0.84,-2.845,1.68,0.77,1.61
,-9.493,-0.883,-2.788,-9.517,-0.823,-3.123,1.96,0.98,1.68
832.0,-9.438,-0.912,-3.187,-9.426,-0.905,-3.254,3.57,1.47,1.75
,-9.392,-0.95,-3.228,-9.363,-0.957,-3.254,4.48,1.4,2.17
,-9.375,-0.96,-3.348,-9.397,-0.928,-3.276,5.74,1.4,2.45
,-9.387,-0.943,-3.302,-9.325,-0.914,-3.293,6.16,1.26,2.73
908.0,-9.32,-0.931,-3.238,-9.493,-0.838,-2.752,3.64,-0.91,2.66
,-9.366,-0.866,-3.116,-9.457,-0.787,-2.594,2.73,-1.26,2.73
,-9.464,-0.921,-3.046,-9.373,-0.878,-2.56,1.96,-1.61,2.73
,-9.464,-0.883,-2.857,-9.488,-0.988,-2.513,1.68,-1.54,2.66
984.0,-9.524,-1.204,-2.706,-9.387,-0.672,-2.912,-0.63,-1.33,2.59
,-9.517,-0.948,-2.697,-9.462,-0.751,-2.895,0.77,-1.12,2.59
,-9.447,-0.857,-2.977,-9.428,-0.981,-2.881,1.19,-1.05,2.59
,-9.399,-0.751,-3.051,-9.363,-1.036,-2.816,0.63,-0.98,2.66
1060.0,-9.5,-1.007,-2.867,-9.421,-0.842,-2.958,-1.96,-0.7,3.22
,-9.459,-0.869,-2.941,-9.426,-0.907,-2.907,-1.61,-0.84,3.22
,-9.512,-0.79,-2.948,-9.5,-0.806,-2.982,-2.1,-1.19,3.01
,-9.426,-0.723,-2.946,-9.483,-0.727,-2.953,-3.22,-1.61,2.8
1135.0,-9.488,-0.706,-2.895,-9.519,-0.579,-2.673,-5.6,-2.1,2.8
,-9.526,-0.742,-2.783,-9.464,-0.574,-2.627,-5.39,-1.89,2.87
,-9.471,-0.715,-2.704,-9.447,-0.742,-2.635,-4.83,-2.03,2.87
,-9.457,-0.672,-2.711,-9.538,-0.768,-2.62,-3.64,-1.96,3.15
1211.0,-9.519,-0.936,-2.635,-9.488,-0.715,-2.797,-2.38,-1.19,3.5
,-9.541,-0.94,-2.706,-9.438,-0.967,-2.761,-2.17,-1.54,3.57
,-9.5,-0.806,-2.828,-9.505,-0.775,-2.62,-2.8,-1.4,3.64
,-9.459,-0.706,-2.881,-9.619,-0.419,-2.525,-3.99,-1.61,3.36
1286.0,-9.655,-0.321,-2.338,-9.636,-0.495,-2.292,-9.03,-0.91,2.94
,-9.615,-0.383,-2.312,-9.603,-0.421,-2.376,-10.64,-0.63,2.52
,-9.586,-0.546,-2.319,-9.593,-0.342,-2.484,-11.34,-0.42,2.31
,-9.545,-0.526,-2.28,-9.6,-0.409,-2.649,-10.71,0.21,2.31
1362.0,-9.442,-0.627,-2.788,-9.675,-0.4,-3.008,-4.34,2.66,2.52
,-9.435,-0.61,-2.879,-9.555,-0.318,-2.893,-1.68,2.8,2.73
,-9.457,-0.514,-2.915,-9.359,-0.273,-2.79,0.07,2.94,2.8
,-9.631,-0.383,-3.017,-9.328,-0.445,-2.656,0.77,2.73,2.59
1438.0,-9.433,-0.534,-2.539,-9.519,-0.483,-2.527,-5.04,0.14,0.98
,-9.576,-0.45,-2.462,-9.466,-0.713,-2.613,-4.83,0.49,0.84
,-9.67,-0.29,-2.448,-9.43,-0.567,-2.699,-5.88,0.77,0.49
,-9.643,-0.223,-2.424,-9.43,-0.304,-2.709,-8.12,0.84,-0.07
1514.0,-9.402,-0.136,-2.596,-9.454,-0.005,-2.168,-8.4,1.54,-0.14
,-9.524,-0.165,-2.376,-9.485,-0.163,-2.213,-10.5,1.33,-0.7
,-9.462,-0.179,-2.178,-9.452,-0.436,-2.257,-13.58,0.91,-1.47
,-9.512,-0.146,-2.118,-9.541,-0.744,-2.474,-16.73,0.28,-2.17
1589.0,-9.462,-0.945,-2.395,-9.485,-0.615,-2.68,-15.61,4.76,-2.17
,-9.591,-0.847,-2.45,-9.464,-0.627,-2.742,-10.85,5.88,-1.33
,-9.579,-0.742,-2.603,-9.397,-0.699,-2.613,-7.35,6.72,-0.84
,-9.442,-0.73,-2.592,-9.478,-0.682,-2.599,-5.46,7.56,-0.42
1665.0,-9.679,-0.603,-2.773,-9.569,0.342,-2.91,-5.6,9.17,0.14
,-9.742,-0.096,-2.883,-9.564,0.285,-2.804,-4.97,8.61,-0.14
,-9.698,0.242,-2.915,-9.667,-0.048,-3.089,-6.51,8.47,-0.77
,-9.71,0.311,-2.953,-9.576,-0.352,-3.192,-8.75,8.33,-1.75
1741.0,-9.28,-1.07,-3.331,-9.438,-0.732,-2.974,-7.42,9.66,-2.94
,-9.048,-2.024,-3.281,-9.344,-0.084,-2.929,-2.94,11.13,-1.05
,-9.21,-2.163,-2.879,-9.493,0.112,-3.132,7.35,12.88,1.05
,-9.6,-1.376,-2.84,-9.512,0.022,-3.53,17.71,12.95,1.61
1817.0,-9.256,-0.235,-3.317,-9.373,-1.113,-3.644,7.21,11.62,-0.28
,-9.167,-0.706,-3.321,-9.093,-1.259,-3.199,7.28,13.02,0.21
,-9.198,-1.058,-3.206,-9.373,-1.273,-3.264,11.27,14.35,0.7
,-9.43,-1.103,-3.168,-9.351,-0.936,-3.379,19.32,15.75,1.61
1893.0,-9.713,-0.146,-3.058,-9.074,-0.823,-4.006,43.47,15.19,5.46
,-9.237,0.536,-4.267,-9.179,-1.043,-3.625,35.35,11.13,3.15
,-8.997,0.357,-4.068,-9.337,-1.007,-2.876,23.31,9.17,2.73
,-9.091,-0.285,-4.329,-9.208,-1.374,-2.668,13.37,7.77,2.59
1968.0,-9.06,-1.74,-1.759,-9.572,-0.713,-3.07,17.64,15.4,3.22
,-9.328,-1.78,-1.804,-9.344,-0.689,-3.156,25.83,17.08,5.32
,-9.021,-1.405,-2.362,-9.251,-0.749,-3.676,32.2,16.94,6.44
,-9.308,-0.998,-2.199,-8.969,-0.735,-4.025,38.5,18.27,8.47
2044.0,-8.997,-0.634,-3.874,-9.651,0.503,-2.946,37.87,18.13,8.75
,-9.04,-0.325,-3.79,-9.265,0.864,-2.994,37.73,18.34,7.7
,-8.947,-0.048,-3.288,-9.273,0.945,-2.874,36.96,19.53,5.88
,-9.399,0.108,-2.637,-9.227,0.751,-3.197,38.43,21.21,4.27
2119.0,-9.206,0.342,-3.257,-9.038,-0.979,-3.539,11.9,17.01,-3.43
,-9.318,0.031,-3.752,-9.05,-1.326,-3.36,7.77,15.68,-5.53
,-9.048,-0.294,-3.96,-9.105,-1.407,-3.309,4.27,15.26,-6.51
,-8.871,-0.62,-3.726,-8.882,-1.524,-3.467,3.43,17.08,-6.3
2195.0,-8.643,-1.625,-3.257,-9.028,-1.378,-3.917,9.59,19.6,-4.62
,-8.985,-1.701,-3.429,-8.794,-1.228,-4.066,11.62,19.39,-3.22
,-9.16,-1.661,-3.561,-8.88,-1.12,-4.35,13.09,18.13,-2.8
,-9.244,-1.584,-3.513,-8.985,-0.83,-4.566,14.63,17.71,-2.59
2271.0,-9.086,-0.361,-4.681,-8.756,-0.921,-4.429,14.14,18.55,-2.8
,-8.959,-0.012,-4.831,-8.961,-1.091,-4.341,11.13,16.66,-4.2
,-8.732,-0.038,-4.721,-9.177,-0.976,-4.422,5.53,15.54,-5.18
,-8.701,-0.459,-4.657,-9.273,-0.694,-4.424,-0.07,15.12,-5.25
2347.0,-8.93,-0.491,-4.518,-8.631,-1.508,-4.743,4.06,14.21,-7.84
,-8.856,-0.481,-4.573,-8.686,-1.795,-4.458,1.75,13.09,-7.14
,-8.732,-0.771,-4.783,-8.703,-1.898,-4.171,-2.03,12.04,-6.65
,-8.681,-1.146,-4.891,-8.799,-1.953,-3.977,-4.06,11.55,-6.58
2422.0,-8.825,-1.814,-4.006,-8.581,-1.036,-4.898,3.85,11.76,-3.57
,-9.002,-1.548,-4.123,-8.552,-0.986,-5.042,4.48,11.13,-2.52
,-8.945,-1.352,-4.489,-8.413,-1.055,-5.14,4.69,10.43,-2.1
,-8.792,-1.113,-4.834,-8.437,-0.96,-5.02,4.27,9.45,-2.1
2498.0,-8.804,-1.084,-5.044,-8.528,-1.369,-4.293,3.08,8.47,-2.17
,-9.019,-1.007,-4.491,-8.342,-1.721,-4.305,2.1,7.7,-3.01
,-9.062,-1.094,-4.343,-8.516,-1.972,-4.24,0.77,7.42,-3.29
,-8.871,-1.106,-4.276,-8.662,-1.989,-4.46,-0.49,6.51,-2.24
2573.0,-8.871,-2.003,-4.511,-8.265,-1.721,-5.262,5.67,9.1,2.52
,-9.06,-1.819,-4.702,-7.921,-2.079,-5.394,7.7,8.19,3.15
,-8.899,-1.68,-4.882,-8.021,-2.383,-5.224,7.63,7.21,4.2
,-8.708,-1.711,-4.958,-8.368,-2.527,-5.087,5.67,6.16,5.67
2649.0,-8.768,-2.374,-4.783,-8.696,-0.785,-4.484,9.45,10.15,13.65
,-8.823,-2.34,-4.606,-8.78,-0.313,-4.46,10.29,9.73,15.33
,-8.804,-1.957,-4.357,-8.978,-0.105,-4.762,11.06,9.31,16.59
,-8.698,-1.429,-4.401,-8.732,-0.031,-4.884,11.62,8.68,16.66
2725.0,-8.344,-0.275,-4.984,-8.693,-1.699,-4.585,3.36,6.58,11.69
,-8.1,-0.684,-5.152,-8.813,-1.555,-4.293,2.73,7.35,12.11
,-8.131,-1.242,-5.039,-9.239,-1.168,-4.058,3.01,7.91,13.16
,-8.299,-1.531,-4.824,-9.136,-0.663,-4.178,4.55,8.33,14.91
2801.0,-8.741,0.129,-4.405,-9.249,0.802,-5.195,10.36,7.49,15.4
,-8.93,0.44,-4.678,-8.614,0.644,-5.264,7.56,7.35,13.02
,-8.945,0.747,-4.903,-8.035,0.101,-4.97,4.2,7.0,10.29
,-9.184,0.914,-5.02,-8.143,-0.321,-4.771,0.63,7.21,7.07
2877.0,-8.483,-0.462,-4.652,-8.571,-0.175,-5.001,-0.84,10.15,0.7
,-8.966,-0.555,-4.7,-8.677,-0.268,-5.078,2.1,9.59,0.63
,-9.057,-0.467,-4.704,-8.356,-0.103,-5.248,5.04,9.1,-0.14
,-8.748,-0.249,-4.922,-8.129,-0.179,-5.384,6.44,8.82,-1.26
2952.0,-8.409,-0.27,-5.394,-8.334,-1.85,-5.164,3.43,7.77,-9.45
,-8.445,-0.677,-5.26,-8.502,-1.895,-5.128,1.12,7.56,-8.47
,-8.471,-1.094,-5.205,-8.705,-1.764,-5.044,-1.12,7.21,-6.58
,-8.287,-1.601,-5.178,-8.909,-1.833,-5.233,-2.24,6.86,-4.2
3028.0,-8.914,-1.639,-5.157,-8.471,-1.048,-5.525,2.1,6.23,-0.56
,-8.67,-1.328,-5.229,-8.555,-0.905,-5.561,2.59,6.37,0.0
,-8.428,-1.297,-5.164,-8.588,-0.601,-5.571,1.47,6.51,0.35
,-8.447,-1.053,-5.274,-8.476,-0.804,-5.654,0.49,6.3,0.63
3104.0,-8.449,-0.876,-5.741,-8.48,-1.591,-5.095,-1.89,4.69,0.77
,-8.447,-1.06,-5.626,-8.308,-1.649,-4.858,-1.19,4.62,1.05
,-8.524,-1.199,-5.341,-8.452,-1.486,-4.822,-0.42,4.62,1.61
,-8.524,-1.462,-5.343,-8.423,-1.204,-5.238,-0.56,4.41,2.45
3180.0,-8.413,-1.012,-5.341,-8.567,-0.567,-5.427,-0.42,3.29,7.35
,-8.574,-1.027,-5.37,-8.598,-0.577,-5.281,-1.26,3.36,7.63
,-8.543,-1.012,-5.226,-8.514,-0.503,-5.257,-1.05,3.5,8.05
,-8.55,-0.787,-5.334,-8.425,-0.395,-5.185,-0.63,3.71,8.12
3255.0,-8.294,-0.395,-5.257,-8.837,-0.462,-5.422,-1.05,3.78,7.91
,-8.313,-0.414,-5.25,-8.674,-0.433,-5.477,-1.33,4.27,7.35
,-8.478,-0.378,-5.386,-8.708,-0.304,-5.597,-1.4,4.83,6.3
,-8.792,-0.38,-5.413,-8.875,-0.215,-5.456,-1.61,4.9,5.25
3331.0,-8.789,-0.223,-5.499,-8.325,-0.172,-5.487,-3.01,2.94,1.82
,-8.433,-0.495,-5.327,-8.524,-0.292,-5.441,-3.71,2.24,1.82
,-8.464,-0.512,-5.162,-8.626,-0.459,-5.52,-3.78,1.47,1.75
,-8.344,-0.297,-5.391,-8.626,-0.558,-5.473,-3.5,0.14,0.63
3406.0,-8.538,-0.656,-5.415,-8.445,-0.713,-5.54,-7.0,-1.19,-0.35
,-8.478,-0.658,-5.475,-8.662,-0.826,-5.549,-7.0,-1.75,0.28
,-8.356,-0.684,-5.513,-8.641,-0.905,-5.566,-6.58,-2.31,0.28
,-8.351,-0.751,-5.413,-8.488,-1.0,-5.626,-5.95,-2.31,0.0
3482.0,-8.296,-1.043,-5.647,-8.746,-0.639,-5.398,-4.2,-4.13,1.96
,-8.138,-1.048,-5.556,-8.691,-0.507,-5.461,-3.08,-3.99,2.24
,-8.212,-1.01,-5.415,-8.313,-0.321,-5.561,-1.4,-3.22,2.31
,-8.509,-0.833,-5.365,-8.246,-0.347,-5.528,0.56,-2.94,1.96
3558.0,-8.464,-0.474,-5.42,-8.416,-0.479,-5.138,1.26,-4.34,0.35
,-8.909,-0.555,-5.217,-8.344,-0.668,-5.173,4.62,-4.48,-0.91
,-8.954,-0.428,-5.31,-8.581,-0.593,-4.987,7.77,-5.32,-1.61
,-8.586,-0.297,-5.221,-8.43,-0.718,-5.013,9.31,-5.46,-2.38
3634.0,-8.555,-0.637,-5.135,-8.509,-1.151,-4.929,15.96,-4.69,-2.1
,-8.504,-0.615,-5.054,-8.471,-1.228,-4.882,14.56,-5.04,-0.84
,-8.459,-0.828,-4.968,-8.574,-1.041,-5.039,12.67,-5.04,0.21
,-8.402,-1.041,-4.951,-8.629,-1.316,-4.853,11.27,-5.53,1.19
3709.0,-8.823,-0.914,-5.394,-8.574,-0.684,-4.707,20.37,-7.0,5.67
,-9.031,-0.529,-4.929,-8.433,-0.658,-4.757,19.74,-7.56,6.86
,-8.966,-0.653,-5.013,-8.588,-0.534,-4.85,17.08,-8.68,7.21
,-8.777,-0.66,-4.733,-8.717,-0.297,-4.908,14.14,-9.1,7.98
3785.0,-8.796,-0.081,-4.846,-8.808,-0.034,-4.838,11.27,-11.69,6.16
,-8.729,0.084,-4.714,-8.772,-0.23,-4.774,8.89,-11.9,5.81
,-8.775,0.132,-4.81,-8.67,-0.215,-4.678,5.81,-12.25,5.46
,-8.796,0.177,-4.85,-8.686,-0.05,-4.623,2.38,-13.3,4.83
3861.0,-8.808,-0.024,-4.688,-8.89,-0.469,-4.647,2.03,-14.42,-0.07
,-8.935,0.081,-4.779,-8.734,-0.634,-4.578,0.07,-15.68,-1.12
,-8.981,-0.014,-4.846,-8.516,-0.84,-4.573,-3.36,-16.87,-1.68
,-8.921,-0.196,-4.716,-8.363,-1.12,-4.393,-6.16,-17.22,-1.96
3937.0,-8.124,-1.259,-4.235,-8.76,-0.84,-4.133,-4.34,-16.66,-1.61
,-8.918,-1.108,-4.015,-8.705,-0.873,-4.319,-0.98,-16.24,-0.84
,-9.11,-0.876,-4.255,-8.796,-0.883,-4.111,1.47,-16.94,-0.63
,-8.804,-0.809,-4.149,-8.799,-0.804,-3.999,1.26,-16.17,0.21
4013.0,-8.947,-0.816,-3.826,-8.748,-0.302,-3.606,4.2,-14.63,1.96
,-9.06,-0.529,-3.728,-8.789,-0.476,-3.63,5.32,-14.28,1.47
,-9.031,-0.306,-3.654,-9.06,-0.529,-3.671,5.39,-14.07,1.19
,-8.897,-0.23,-3.666,-9.371,-0.495,-3.659,4.48,-13.58,1.4
4088.0,-9.373,-0.232,-3.762,-8.938,-0.55,-3.984,5.39,-12.6,0.14
,-9.072,-0.184,-3.881,-9.131,-0.744,-3.774,3.36,-12.67,-1.05
,-8.914,-0.261,-3.963,-9.325,-0.665,-3.654,0.14,-12.46,-1.26
,-8.811,-0.383,-4.109,-9.232,-0.457,-3.393,-2.8,-12.95,-1.19
4164.0,-9.115,-0.22,-3.496,-9.153,-0.44,-3.683,-0.63,-12.25,-2.03
,-8.933,-0.273,-3.388,-8.777,-0.639,-3.424,-2.52,-11.48,-2.17
,-9.119,-0.366,-3.039,-8.725,-0.759,-3.553,-2.52,-10.43,-1.96
,-9.246,-0.39,-3.163,-8.938,-0.759,-3.494,-3.01,-10.22,-2.59
4239.0,-9.433,-0.491,-3.41,-9.148,-0.426,-3.924,1.75,-9.45,-2.73
,-9.548,-0.16,-3.463,-9.119,-0.246,-4.262,0.63,-9.66,-2.94
,-9.34,-0.337,-3.63,-9.021,-0.246,-4.283,-3.57,-9.87,-3.22
,-9.174,-0.38,-3.539,-8.993,-0.555,-3.982,-4.34,-9.24,-3.22
4315.0,-9.088,-0.9,-3.733,-9.086,-0.498,-4.087,-5.53,-11.83,-4.69
,-9.194,-0.854,-3.568,-8.995,-0.912,-3.599,-2.38,-11.69,-4.76
,-9.323,-0.546,-3.285,-9.244,-1.218,-3.829,-0.14,-12.25,-4.62
,-9.387,-0.38,-4.034,-9.186,-1.213,-3.405,-3.22,-14.21,-5.6
4391.0,-9.196,-1.036,-2.821,-9.399,-0.689,-2.69,1.96,-12.18,-2.87
,-9.44,-0.771,-3.123,-9.421,-0.821,-2.694,1.96,-12.6,-2.87
,-9.397,-0.689,-2.845,-9.591,-0.632,-3.02,0.77,-12.46,-3.08
,-9.277,-0.663,-2.587,-9.462,-0.548,-3.037,-0.49,-11.48,-2.38
4467.0,-9.359,-0.593,-3.151,-9.282,-0.838,-2.95,0.56,-9.45,-2.1
,-9.244,-0.665,-3.273,-9.373,-0.684,-2.996,1.75,-9.17,-2.17
,-9.182,-0.833,-3.235,-9.567,-0.538,-2.97,3.5,-8.61,-2.1
,-9.174,-0.792,-3.161,-9.39,-0.596,-2.757,5.32,-8.54,-1.54
4542.0,-9.385,-0.625,-2.982,-9.572,-0.928,-2.07,1.61,-8.47,-2.1
,-9.38,-0.732,-2.938,-9.775,-0.615,-2.111,0.56,-8.26,-2.24
,-9.337,-0.852,-2.56,-9.78,-0.378,-2.154,0.77,-7.42,-1.89
,-9.344,-0.967,-2.364,-9.517,-0.38,-2.333,1.33,-6.02,-1.75
4618.0,-9.284,-0.699,-2.252,-9.507,-0.759,-2.393,-3.78,-2.52,-2.38
,-9.186,-0.919,-2.477,-9.552,-0.806,-2.335,-2.73,-1.47,-2.24
,-9.356,-0.998,-2.529,-9.462,-0.823,-2.266,-0.35,-0.63,-1.75
,-9.39,-0.861,-2.443,-9.481,-0.806,-2.316,1.75,0.07,-1.26
4694.0,-9.478,-0.938,-2.673,-9.466,-1.031,-2.69,-0.63,2.73,-1.26
,-9.407,-0.866,-2.802,-9.581,-0.845,-2.771,-0.14,3.22,-0.98
,-9.284,-0.94,-2.773,-9.615,-0.735,-2.929,0.42,3.99,-0.49
,-9.349,-0.991,-2.79,-9.476,-0.706,-3.123,1.68,4.48,0.0
4770.0,-9.244,-0.785,-3.221,-9.478,-0.675,-3.051,0.21,4.48,0.21
,-9.162,-1.0,-3.19,-9.454,-0.68,-2.938,-0.14,4.69,0.56
,-9.124,-1.096,-3.166,-9.44,-0.646,-3.137,0.49,4.9,0.91
,-9.234,-0.955,-3.013,-9.418,-0.771,-3.214,1.82,4.97,1.33
4846.0,-9.39,-0.739,-3.254,-9.433,-0.665,-3.446,-2.73,3.64,0.56
,-9.323,-0.785,-3.329,-9.383,-0.67,-3.467,-1.96,3.57,0.7
,-9.316,-0.842,-3.329,-9.306,-0.754,-3.439,-1.4,3.29,0.98
,-9.383,-0.735,-3.4,-9.347,-0.763,-3.472,-0.63,3.08,1.05
4921.0,-9.289,-0.732,-3.422,-9.411,-0.749,-3.082,0.49,0.56,0.98
,-9.316,-0.732,-3.362,-9.478,-0.787,-3.063,1.19,0.63,1.33
,-9.397,-0.744,-3.307,-9.442,-0.732,-3.017,1.75,0.35,1.47
,-9.445,-0.794,-3.144,-9.392,-0.656,-2.962,2.38,0.28,1.61
4997.0,-9.411,-0.639,-2.996,-9.485,-0.656,-2.869,0.84,-0.21,0.84
,-9.342,-0.766,-2.879,-9.519,-0.481,-2.891,0.35,0.07,0.84
,-9.375,-0.802,-2.862,-9.442,-0.644,-2.86,0.56,0.21,0.98
,-9.476,-0.763,-2.867,-9.323,-0.826,-2.91,1.61,0.42,1.05
5072.0,-9.426,-0.842,-3.022,-9.373,-0.73,-3.144,1.47,1.26,0.91
,-9.414,-0.9,-3.094,-9.359,-0.694,-3.118,2.1,1.19,0.91
,-9.347,-0.838,-3.132,-9.464,-0.708,-3.12,2.8,1.26,1.19
,-9.361,-0.775,-3.18,-9.43,-0.641,-3.149,3.36,1.47,1.4
5148.0,-9.328,-0.639,-3.132,-9.426,-0.672,-2.955,4.06,0.91,1.54
,-9.337,-0.756,-3.118,-9.485,-0.747,-2.962,4.34,0.98,1.47
,-9.383,-0.701,-3.125,-9.445,-0.766,-2.96,4.97,0.98,1.47
,-9.385,-0.656,-3.077,-9.313,-0.809,-2.802,5.32,1.05,1.47
5224.0,-9.301,-0.787,-2.752,-9.344,-0.854,-2.017,5.25,1.82,1.96
,-9.335,-0.84,-2.553,-9.428,-0.756,-1.876,5.32,2.52,2.1
,-9.328,-0.861,-2.386,-9.505,-0.692,-1.677,5.46,3.29,2.31
,-9.284,-0.919,-2.192,-9.442,-0.675,-1.517,5.74,4.48,2.73
5300.0,-9.617,-0.603,-1.541,-9.292,-0.653,-3.185,3.57,11.55,2.8
,-9.785,-0.479,-1.819,-9.064,-0.928,-3.609,1.89,12.39,2.1
,-9.727,-0.388,-2.29,-9.043,-0.871,-3.855,-0.63,12.46,1.47
,-9.493,-0.479,-2.79,-9.072,-0.644,-3.817,-4.2,12.81,1.26
5375.0,-9.215,-0.424,-3.91,-9.244,-0.73,-3.295,-2.03,12.11,1.4
,-9.34,-0.419,-3.599,-9.206,-0.658,-3.25,-3.01,11.76,1.54
,-9.459,-0.589,-3.709,-9.146,-0.811,-2.893,-5.18,10.71,1.05
,-9.258,-0.742,-3.544,-9.306,-0.876,-2.962,-6.44,10.08,1.12
5451.0,-9.361,-0.912,-2.869,-8.978,-0.498,-2.132,-4.06,11.69,2.87
,-9.696,-0.967,-2.938,-9.206,-0.761,-1.747,-5.32,11.06,2.94
,-9.356,-0.637,-2.812,-9.584,-0.909,-2.044,-8.26,9.73,2.66
,-9.148,-0.38,-2.498,-9.849,-0.553,-2.879,-11.06,9.66,2.94
5527.0,-9.569,-0.38,-3.893,-8.82,-1.577,-3.369,-14.56,11.41,2.52
,-8.993,-0.292,-4.137,-9.062,-1.414,-2.704,-19.74,8.19,3.64
,-8.399,-0.579,-4.185,-9.416,-0.84,-2.895,-22.05,8.4,5.67
,-8.294,-1.223,-3.635,-9.383,-0.5,-3.113,-17.99,13.16,7.14
5603.0,-9.481,-0.514,-2.702,-8.918,0.421,-4.614,10.78,24.08,9.59
,-9.134,-0.409,-3.025,-8.789,0.431,-4.707,9.45,23.8,10.22
,-9.134,-0.292,-3.609,-8.88,0.103,-4.453,9.87,23.24,9.73
,-8.902,0.069,-3.853,-8.997,-0.237,-4.085,11.41,21.98,8.75
5678.0,-9.253,-0.366,-4.054,-8.737,-1.22,-3.434,3.22,22.47,5.6
,-9.301,-0.323,-4.29,-9.184,-1.323,-3.431,4.13,20.86,4.69
,-8.65,-0.529,-4.231,-9.06,-0.972,-3.96,3.29,20.93,4.97
,-8.531,-0.818,-4.054,-9.026,-0.653,-4.094,2.87,22.19,6.72
5754.0,-8.866,-0.345,-4.022,-8.614,0.603,-5.535,15.47,24.64,8.75
,-9.277,0.093,-3.518,-8.459,0.349,-5.482,17.29,25.83,8.54
,-8.705,0.586,-5.159,-9.055,0.06,-4.322,15.82,23.31,6.16
,-8.658,0.644,-5.075,-9.067,0.359,-4.625,13.44,22.54,5.32
5830.0,-8.818,0.704,-5.083,-9.098,-0.189,-4.283,9.1,18.27,-0.98
,-8.99,0.684,-4.944,-8.674,-0.273,-4.752,5.6,17.15,-1.12
,-8.978,0.376,-4.841,-8.198,-0.546,-4.968,0.84,17.29,-1.12
,-8.928,0.007,-4.408,-8.198,-0.861,-4.989,-1.89,18.41,-1.89
5905.0,-8.538,-1.318,-4.683,-8.607,-0.459,-4.992,-4.76,17.5,-1.26
,-8.866,-1.586,-4.532,-8.658,-0.256,-4.946,-1.82,19.04,-0.84
,-8.713,-1.476,-4.64,-8.655,-0.38,-4.826,3.01,20.09,-0.35
,-8.715,-1.05,-4.685,-8.449,-0.519,-4.831,8.33,19.6,0.49
5981.0,-8.504,-0.61,-4.932,-8.885,-0.321,-4.992,4.48,19.46,2.03
,-8.538,-0.605,-5.075,-8.425,-0.419,-5.051,7.14,19.04,1.68
,-8.753,-0.548,-5.202,-8.265,-0.548,-4.903,10.01,18.48,2.31
,-8.823,-0.462,-5.193,-8.509,-0.617,-4.913,11.55,17.85,2.73
6057.0,-8.567,-0.462,-4.862,-8.497,-0.727,-5.358,12.11,17.36,3.15
,-8.734,-0.278,-4.927,-8.423,-0.644,-5.839,11.34,16.24,3.29
,-8.437,-0.321,-5.159,-8.382,-0.395,-5.963,7.98,15.33,3.15
,-8.344,-0.488,-5.343,-8.361,-0.057,-6.035,4.76,14.84,3.5
6133.0,-8.27,0.153,-6.028,-8.689,0.148,-5.307,5.74,10.85,3.29
,-8.473,0.124,-5.769,-8.808,0.483,-5.276,3.99,10.71,2.59
,-8.552,0.057,-5.53,-8.6,0.72,-5.489,2.87,10.64,1.68
,-8.61,0.057,-5.307,-8.492,0.871,-5.575,3.15,10.64,0.56
6208.0,-8.5,0.687,-5.485,-8.433,-0.299,-5.2,-0.07,7.42,-5.39
,-8.476,0.495,-5.549,-8.263,-0.931,-5.039,-0.42,7.21,-6.86
,-8.366,0.268,-5.322,-8.052,-1.598,-5.095,0.42,7.77,-8.19
,-8.715,0.074,-5.042,-8.047,-1.924,-5.229,0.21,6.86,-7.98
6284.0,-8.253,-2.0,-5.408,-7.681,-1.833,-5.788,2.8,5.74,-1.96
,-8.49,-1.742,-5.839,-8.002,-1.677,-5.796,6.16,5.11,-1.68
,-8.155,-1.539,-5.958,-8.189,-1.493,-5.884,6.51,4.41,-0.49
,-7.66,-1.627,-5.822,-8.495,-0.5,-5.698,4.62,5.25,2.03
6360.0,-7.461,-1.046,-5.451,-8.299,1.144,-5.915,8.4,3.99,7.63
,-8.409,-0.349,-5.607,-7.751,1.125,-5.846,8.68,2.38,8.19
,-8.952,0.385,-5.31,-7.791,0.802,-5.573,7.91,2.73,8.26
,-8.251,0.737,-5.712,-8.074,0.412,-5.638,6.65,1.54,7.7
6436.0,-8.473,-0.007,-5.535,-8.232,-0.761,-4.901,1.19,3.01,2.94
,-8.811,-0.285,-5.425,-8.366,-0.711,-5.025,2.45,2.66,2.03
,-8.404,-0.457,-5.245,-8.622,-0.677,-5.178,3.29,2.87,1.26
,-8.387,-0.598,-5.051,-8.495,-0.395,-5.322,3.78,2.87,0.28
6511.0,-8.356,-0.007,-5.822,-8.078,-1.043,-5.702,2.8,3.57,0.49
,-7.916,-0.12,-5.958,-8.605,-0.943,-5.609,0.98,2.73,0.21
,-7.698,-0.768,-5.726,-8.875,-0.921,-5.54,-0.07,2.45,1.33
,-7.648,-1.019,-5.587,-8.835,-0.792,-5.468,1.33,2.94,2.8
6587.0,-8.734,-0.579,-5.298,-8.421,0.835,-5.915,9.31,2.1,3.01
,-8.483,0.177,-5.042,-8.334,0.89,-5.934,10.71,1.05,4.62
,-8.629,0.29,-5.348,-8.131,0.605,-6.004,10.15,1.96,3.71
,-8.177,0.656,-5.982,-7.995,0.069,-5.767,7.84,1.47,1.75
6662.0,-8.045,-0.627,-5.489,-8.569,-1.29,-5.276,-1.75,0.7,-0.77
,-8.239,-0.876,-5.504,-8.49,-1.35,-4.946,0.56,0.77,0.35
,-8.612,-1.029,-5.441,-8.112,-1.079,-5.154,2.03,1.33,1.26
,-8.653,-1.161,-5.396,-8.038,-0.998,-5.434,3.15,2.03,1.61
6738.0,-8.217,-0.972,-5.676,-8.363,-0.045,-5.683,1.96,3.22,6.3
,-8.287,-0.51,-5.875,-8.227,0.055,-5.602,3.15,3.64,5.74
,-8.5,-0.069,-6.025,-8.323,0.153,-5.614,2.73,4.2,4.97
,-8.536,-0.024,-5.786,-8.344,0.031,-5.666,1.82,4.55,4.06
6814.0,-8.33,-0.112,-5.906,-8.356,-0.677,-5.901,-0.91,4.97,2.31
,-8.469,-0.261,-5.939,-8.313,-0.548,-5.86,-1.26,5.25,1.75
,-8.55,-0.416,-5.87,-8.308,-0.658,-5.872,-1.82,4.83,1.4
,-8.418,-0.658,-5.934,-8.437,-0.725,-5.92,-2.31,4.62,1.33
6890.0,-8.459,-0.699,-5.903,-8.066,-0.297,-5.698,-2.31,4.48,2.45
,-8.684,-0.567,-5.765,-8.189,-0.235,-5.518,-2.17,3.57,3.71
,-8.524,-0.412,-5.724,-8.358,0.086,-5.702,-2.03,1.96,4.34
,-8.303,-0.328,-5.765,-8.342,0.112,-5.743,-2.1,0.77,4.34
6966.0,-8.208,0.038,-5.709,-8.402,-0.148,-5.647,-3.29,-1.47,2.66
,-8.15,-0.089,-5.877,-8.514,-0.151,-5.595,-3.85,-1.61,2.45
,-8.181,-0.175,-6.042,-8.248,-0.249,-5.678,-2.66,-1.26,1.89
,-8.26,-0.227,-5.925,-7.988,-0.392,-5.681,-0.98,-1.05,1.54
7041.0,-7.916,-0.711,-5.504,-8.457,-0.462,-5.75,-4.27,-3.5,1.82
,-8.105,-0.768,-5.652,-8.162,-0.495,-5.791,-3.01,-3.5,2.17
,-8.275,-0.775,-5.803,-8.189,-0.55,-5.652,-0.35,-3.85,2.38
,-8.488,-0.637,-5.81,-8.263,-0.512,-5.609,2.1,-3.92,2.52
7117.0,-8.351,-0.397,-5.556,-8.466,-0.153,-5.434,7.91,-3.64,2.31
,-8.15,-0.44,-5.635,-8.318,0.065,-5.52,9.24,-3.64,2.24
,-8.174,-0.414,-5.504,-8.227,0.177,-5.786,11.13,-3.36,2.17
,-8.433,-0.45,-5.224,-8.229,-0.036,-5.647,12.11,-4.34,2.38
7193.0,-8.423,-0.127,-5.485,-8.358,0.306,-5.351,11.69,-7.63,2.31
,-8.5,-0.091,-5.209,-8.397,0.27,-5.396,12.6,-6.93,1.68
,-8.452,0.005,-5.171,-8.547,0.134,-5.334,14.0,-6.93,0.91
,-8.368,0.232,-5.233,-8.528,0.16,-5.255,15.05,-6.93,0.49
7269.0,-8.356,0.103,-5.219,-8.471,-0.153,-5.018,12.32,-7.56,-0.63
,-8.382,0.172,-5.209,-8.708,-0.06,-5.013,11.9,-8.4,-1.4
,-8.301,-0.278,-5.08,-8.758,-0.115,-5.236,7.63,-8.68,-2.24
,-8.411,-0.048,-4.992,-8.473,-0.201,-5.214,6.86,-9.8,-2.8
7344.0,-8.351,-0.397,-5.43,-8.744,-0.692,-4.898,3.5,-12.25,-3.15
,-8.208,-0.613,-5.401,-8.875,-0.479,-5.032,2.87,-12.25,-2.94
,-8.299,-0.804,-5.171,-8.758,-0.431,-5.2,3.99,-11.69,-2.59
,-8.533,-0.799,-4.917,-8.526,-0.498,-5.379,6.44,-11.13,-2.17
7420.0,-8.39,-0.67,-5.403,-8.667,-0.369,-5.19,2.87,-14.77,-0.21
,-8.294,-0.842,-5.205,-8.66,-0.337,-5.24,3.99,-14.28,0.14
,-8.449,-0.842,-5.114,-8.55,-0.4,-5.154,6.02,-14.07,0.14
,-8.571,-0.603,-5.178,-8.579,-0.5,-4.963,7.63,-14.98,0.21
7495.0,-8.677,-0.428,-4.882,-8.804,-0.086,-4.628,6.44,-17.01,0.98
,-8.696,-0.175,-4.917,-8.844,-0.218,-4.401,6.93,-17.78,0.0
,-8.746,-0.002,-4.874,-8.859,-0.402,-4.334,6.3,-18.9,-0.91
,-8.875,0.06,-4.836,-9.84,-0.325,-5.528,4.2,-19.32,-1.26
7571.0,-8.892,-0.447,-4.41,-8.804,-0.622,-4.2,-0.63,-19.88,-1.89
,-8.684,-0.526,-4.47,-8.849,-0.696,-3.996,1.54,-20.37,-1.4
,-8.514,-0.66,-4.281,-8.873,-0.775,-4.063,3.22,-19.25,-1.61
,-8.696,-0.689,-4.29,-8.83,-0.907,-4.073,5.88,-18.9,-2.31
7647.0,-8.981,-0.754,-4.054,-8.768,-0.581,-4.03,6.72,-18.27,-0.56
,-9.129,-0.445,-3.92,-8.612,-0.881,-3.783,8.61,-18.06,-1.12
,-9.124,-0.158,-3.915,-8.928,-1.062,-3.388,7.84,-18.2,-1.33
,-8.985,-0.242,-3.85,-9.112,-0.797,-3.64,4.83,-18.27,-0.98
7723.0,-9.0,-0.239,-3.501,-9.11,-0.376,-3.264,10.08,-16.73,-0.84
,-9.06,0.218,-3.544,-9.088,-0.51,-3.262,8.05,-16.8,-0.91
,-9.007,0.206,-3.446,-9.122,-0.426,-3.379,3.64,-16.45,-1.19
,-9.021,-0.117,-3.209,-9.038,-0.464,-3.625,0.63,-15.26,-1.75
7798.0,-8.957,-0.517,-3.668,-9.203,-0.28,-3.415,0.91,-13.37,-2.87
,-8.949,-0.617,-3.592,-9.002,-0.285,-3.412,1.26,-12.6,-2.66
,-9.007,-0.675,-3.168,-9.227,-0.39,-3.486,2.52,-11.62,-2.66
,-9.17,-0.591,-3.113,-9.234,-0.696,-3.398,2.38,-11.55,-3.57
7874.0,-9.217,-0.924,-3.094,-9.031,-0.191,-3.776,-3.99,-10.22,-3.99
,-9.251,-0.811,-3.226,-9.107,-0.462,-3.699,-0.84,-9.73,-4.06
,-9.136,-0.474,-3.262,-9.194,-0.579,-3.611,-0.21,-10.22,-4.48
,-9.213,-0.208,-3.766,-9.301,-0.696,-3.944,-1.96,-11.34,-4.83
7950.0,-9.021,-0.761,-3.652,-9.45,-1.211,-3.132,-5.6,-11.41,-5.39
,-9.083,-0.883,-3.479,-9.639,-0.792,-3.005,-5.88,-11.06,-4.55
,-9.194,-1.175,-3.357,-9.624,-0.242,-3.618,-5.32,-10.71,-3.78
,-9.282,-1.443,-3.266,-9.447,0.036,-3.853,-3.01,-10.29,-3.01
8026.0,-9.256,0.096,-4.183,-9.325,-0.672,-3.769,1.82,-12.39,-3.5
,-9.081,-0.172,-3.877,-9.292,-0.577,-3.709,-0.07,-12.46,-3.78
,-9.206,-0.445,-3.778,-9.206,-0.656,-3.448,1.05,-12.67,-4.06
,-9.371,-0.668,-3.836,-9.304,-0.828,-3.156,3.01,-13.09,-4.48
8102.0,-9.33,-0.778,-2.955,-9.502,-0.816,-2.111,8.54,-14.28,-4.06
,-9.342,-0.809,-2.711,-9.658,-0.804,-1.957,9.1,-14.0,-3.99
,-9.292,-0.768,-2.414,-9.672,-0.79,-2.154,8.54,-13.58,-3.92
,-9.342,-0.78,-2.144,-9.5,-0.799,-2.276,7.77,-12.67,-3.85
8177.0,-9.373,-0.835,-2.331,-9.402,-0.957,-2.309,4.06,-8.82,-3.99
,-9.296,-0.998,-2.249,-9.497,-0.842,-2.575,5.11,-7.49,-3.43
,-9.452,-0.967,-2.434,-9.411,-0.814,-2.668,7.28,-6.51,-3.08
,-9.536,-0.967,-2.508,-9.347,-0.797,-2.503,8.61,-5.95,-3.01
8253.0,-9.435,-0.866,-2.534,-9.308,-1.094,-2.393,11.9,-3.29,-1.82
,-9.44,-0.838,-2.484,-9.277,-1.208,-2.139,12.04,-2.94,-1.89
,-9.548,-0.849,-2.659,-9.507,-1.18,-2.19,10.92,-3.08,-2.03
,-9.39,-0.94,-2.58,-9.564,-1.108,-2.163,9.24,-2.87,-2.17
8328.0,-9.6,-1.019,-2.139,-9.308,-1.019,-2.855,6.3,0.84,-1.05
,-9.627,-0.94,-2.307,-9.232,-1.091,-2.807,4.76,1.05,-1.12
,-9.557,-0.995,-2.587,-9.186,-1.086,-2.62,3.15,1.12,-1.19
,-9.426,-1.012,-2.8,-9.418,-1.024,-2.405,2.45,0.98,-1.05
8404.0,-9.485,-0.981,-2.28,-9.428,-0.988,-2.625,3.29,3.64,0.35
,-9.629,-0.864,-2.29,-9.332,-1.024,-2.795,1.82,3.5,0.0
,-9.689,-0.785,-2.414,-9.464,-0.974,-3.072,-0.42,3.57,-0.35
,-9.55,-0.907,-2.527,-9.435,-0.909,-3.166,-2.45,3.64,-0.49
8480.0,-9.356,-0.931,-3.104,-9.371,-0.981,-3.321,-0.56,3.71,0.28
,-9.361,-0.888,-3.24,-9.373,-0.983,-3.226,-0.14,3.43,0.35
,-9.371,-0.943,-3.372,-9.375,-0.962,-3.104,0.0,2.87,0.35
,-9.328,-1.003,-3.419,-9.409,-0.873,-2.991,0.28,2.24,0.49
8556.0,-9.411,-0.972,-2.783,-9.495,-0.773,-2.711,-0.35,0.98,0.77
,-9.49,-1.055,-2.635,-9.466,-0.852,-2.702,-0.21,0.98,0.84
,-9.509,-0.931,-2.613,-9.421,-0.902,-2.709,0.21,1.05,0.77
,-9.485,-0.845,-2.584,-9.447,-0.936,-2.828,0.14,1.33,0.77
8631.0,-9.416,-1.015,-2.874,-9.531,-0.981,-2.883,-1.54,1.61,0.49
,-9.404,-1.07,-2.874,-9.474,-0.847,-2.819,-1.33,1.89,0.84
,-9.414,-1.084,-2.876,-9.469,-0.799,-2.994,-0.63,1.96,0.98
,-9.464,-1.074,-2.783,-9.375,-0.859,-3.015,0.28,1.96,1.19
8707.0,-9.363,-0.94,-2.936,-9.608,-0.859,-2.656,0.63,1.89,1.19
,-9.323,-0.993,-2.79,-9.5,-0.84,-2.659,1.54,2.24,1.47
,-9.414,-0.976,-2.769,-9.485,-0.804,-2.726,2.45,2.59,1.61
,-9.541,-0.957,-2.592,-9.469,-0.804,-2.819,3.01,2.73,1.68
8782.0,-9.469,-0.787,-2.769,-9.49,-0.873,-2.915,-1.89,3.01,0.7
,-9.423,-0.821,-2.84,-9.407,-0.893,-2.996,-3.08,2.94,0.42
,-9.438,-0.948,-2.845,-9.342,-0.881,-2.979,-3.5,3.15,0.35
,-9.483,-0.957,-2.831,-9.402,-0.916,-3.096,-2.66,3.43,0.56
8858.0,-9.442,-0.933,-3.039,-9.404,-0.823,-2.761,-1.05,2.94,0.84
,-9.407,-0.907,-3.065,-9.442,-0.821,-2.675,-1.19,2.8,0.7
,-9.421,-0.869,-2.984,-9.45,-0.83,-2.764,-1.54,2.66,0.63
,-9.418,-0.756,-2.812,-9.45,-0.95,-2.764,-2.03,2.8,0.56
8934.0,-9.399,-0.991,-2.809,-9.435,-0.778,-2.869,-1.05,3.64,0.91
,-9.373,-0.983,-2.68,-9.304,-0.689,-2.824,0.77,4.13,1.33
,-9.519,-0.957,-2.728,-9.306,-0.816,-2.73,2.17,4.13,1.26
,-9.502,-0.931,-2.915,-9.414,-0.933,-2.649,2.17,3.64,0.91
9010.0,-9.423,-0.957,-2.618,-9.411,-0.785,-2.773,-0.07,5.25,1.26
,-9.476,-0.895,-2.536,-9.328,-0.794,-2.69,1.19,6.02,1.47
,-9.524,-0.773,-2.666,-9.395,-0.859,-2.826,1.47,6.3,1.4
,-9.485,-0.775,-2.682,-9.383,-0.902,-2.852,1.33,6.44,1.26
9086.0,-9.337,-0.866,-2.709,-9.234,-0.725,-3.017,2.59,8.96,1.82
,-9.495,-0.694,-2.871,-9.16,-0.912,-2.783,3.15,8.96,1.75
,-9.555,-0.668,-3.12,-9.222,-0.983,-2.417,1.61,8.05,0.98
,-9.447,-0.73,-3.128,-9.445,-1.072,-2.398,-0.42,7.7,0.77
9161.0,-9.44,-1.108,-2.338,-9.143,-1.204,-1.948,3.01,13.65,2.38
,-9.402,-1.05,-2.359,-9.217,-1.022,-1.563,3.29,14.42,2.94
,-9.34,-1.06,-2.371,-9.361,-0.986,-1.639,2.8,15.26,3.22
,-9.301,-1.153,-2.156,-9.663,-1.027,-1.828,2.59,16.73,3.57
9237.0,-9.531,-1.106,-2.73,-9.241,-0.826,-4.03,2.87,23.59,5.18
,-9.208,-1.216,-2.362,-9.134,-0.694,-4.396,2.8,24.57,6.58
,-9.311,-0.869,-3.637,-9.555,-0.447,-4.022,3.71,23.31,6.79
,-8.868,-0.909,-3.91,-9.296,-0.115,-4.913,4.06,23.38,7.0
9313.0,-8.703,-0.325,-4.927,-9.38,-0.84,-2.96,-8.19,14.77,6.37
,-8.569,-0.96,-4.685,-9.196,-0.089,-3.302,-11.83,15.19,7.56
,-8.665,-1.596,-3.707,-9.289,0.682,-3.745,-8.75,17.78,8.75
,-8.976,-1.512,-2.764,-8.942,0.596,-4.168,0.49,20.58,8.61
9389.0,-8.737,-0.093,-3.628,-9.119,-0.905,-3.309,-21.0,13.16,3.43
,-8.837,-0.622,-3.845,-9.112,-1.098,-3.278,-23.45,14.07,1.75
,-8.488,-0.823,-4.221,-9.143,-1.158,-3.467,-22.05,14.77,1.05
,-8.593,-0.905,-3.884,-9.064,-0.854,-3.656,-19.04,16.52,2.31
9464.0,-8.77,-0.45,-4.257,-8.768,-1.019,-4.396,3.08,16.73,5.39
,-8.835,-0.292,-4.346,-8.545,-1.321,-4.472,2.87,17.29,5.67
,-9.016,-0.385,-4.324,-8.756,-1.622,-4.482,1.33,18.34,5.53
,-8.935,-0.742,-4.18,-8.882,-1.697,-4.403,-0.07,19.39,5.25
9540.0,-9.012,-1.357,-4.314,-8.871,1.0,-4.637,19.25,17.57,11.69
,-8.949,-0.751,-4.367,-8.894,1.089,-4.513,23.45,16.31,11.06
,-8.866,0.184,-4.637,-9.04,1.046,-4.487,23.66,14.63,9.52
,-8.784,0.83,-4.728,-9.155,0.967,-4.506,18.97,13.44,8.12
9615.0,-9.112,0.814,-4.456,-8.966,-0.534,-5.032,-2.24,15.54,1.05
,-8.918,0.56,-4.587,-8.909,-0.409,-5.145,-2.1,14.84,0.7
,-8.88,0.148,-4.657,-8.923,-0.096,-5.09,-1.26,14.35,0.7
,-9.0,-0.361,-4.791,-8.617,0.093,-5.032,1.33,13.44,0.56
9691.0,-8.713,0.022,-4.767,-8.969,-1.429,-4.657,9.1,10.64,-3.99
,-8.775,-0.287,-5.037,-8.949,-1.201,-4.374,3.29,9.59,-4.27
,-8.725,-0.864,-5.068,-8.83,-1.12,-4.393,-1.33,10.15,-3.85
,-8.861,-1.237,-4.841,-8.746,-1.06,-4.415,-2.94,10.92,-3.01
9767.0,-8.753,-0.972,-4.398,-8.334,-0.12,-4.891,6.02,13.37,-2.45
,-9.052,-0.885,-4.231,-8.361,-0.019,-5.099,5.6,12.6,-0.28
,-8.997,-0.447,-4.633,-8.871,-0.019,-5.09,4.69,9.73,0.98
,-8.526,-0.302,-4.858,-8.933,0.127,-5.422,2.73,8.75,1.05
9843.0,-8.866,0.268,-5.03,-8.906,0.857,-4.834,-1.54,2.59,0.63
,-8.65,0.744,-4.992,-9.215,0.869,-4.606,-1.54,0.77,-0.56
,-8.318,0.952,-5.236,-9.1,0.73,-4.795,-3.43,0.21,-3.15
,-8.612,0.964,-4.999,-8.856,0.562,-5.24,-4.76,0.91,-6.02
9919.0,-8.457,0.258,-5.24,-8.691,-2.422,-4.097,-9.59,3.01,-13.37
,-8.009,-0.098,-5.236,-8.871,-3.218,-4.123,-8.54,3.92,-13.93
,-7.944,-0.668,-4.97,-9.067,-3.812,-4.334,-7.91,5.04,-13.79
,-8.423,-1.457,-4.398,-8.82,-4.326,-4.681,-8.05,5.95,-12.25
9994.0,-8.612,-4.286,-4.645,-7.703,-0.749,-5.324,12.04,7.35,3.43
,-8.655,-3.656,-4.7,-7.966,-0.158,-5.229,19.67,8.75,5.18
,-8.449,-2.575,-5.016,-8.122,0.031,-5.382,24.22,8.61,5.95
,-8.234,-1.529,-5.059,-8.39,-0.055,-5.485,24.22,7.63,8.4
10070.0,-8.605,-0.005,-5.36,-9.526,0.316,-4.164,6.02,5.6,14.0
,-8.954,0.129,-5.083,-9.363,0.701,-4.901,7.56,5.46,12.46
,-9.275,0.278,-4.683,-8.387,0.641,-5.226,8.68,5.53,10.71
,-9.71,0.313,-4.384,-7.736,0.153,-5.138,10.22,6.09,7.91
10146.0,-7.624,-0.804,-4.965,-8.839,-0.68,-5.231,3.01,4.69,7.7
,-8.066,-1.405,-5.027,-9.04,-0.727,-5.047,3.43,4.83,9.17
,-8.684,-1.213,-4.946,-9.174,-0.797,-4.843,6.44,4.9,9.38
,-9.031,-0.854,-5.087,-8.808,-0.775,-4.676,8.89,3.92,8.47
10222.0,-9.009,-0.438,-4.987,-8.129,-1.137,-5.138,6.3,2.38,2.17
,-8.583,-0.278,-5.233,-8.069,-1.086,-4.956,5.6,1.33,2.1
,-8.464,-0.581,-5.047,-8.638,-1.204,-5.317,2.03,0.77,2.73
,-8.069,-0.94,-5.269,-8.794,-0.751,-5.226,0.7,0.35,4.06
10297.0,-8.792,-0.342,-5.068,-8.823,0.199,-4.771,8.47,-0.63,9.73
,-8.794,-0.122,-4.841,-8.739,0.112,-4.666,7.77,0.0,7.98
,-8.933,0.189,-4.896,-8.655,0.136,-4.719,6.93,-0.14,5.81
,-8.839,0.345,-4.992,-8.351,0.328,-4.891,5.88,-0.42,4.06
10373.0,-8.564,0.345,-4.822,-8.746,0.069,-4.7,1.75,2.87,3.29
,-8.842,0.287,-4.865,-8.531,0.27,-4.949,0.91,3.08,3.15
,-8.966,0.057,-4.731,-8.526,0.124,-4.98,0.07,3.71,2.94
,-8.873,-0.127,-4.575,-8.574,0.096,-5.195,0.35,4.62,2.73
10448.0,-8.684,-0.031,-5.229,-8.358,-0.972,-5.233,-4.27,6.72,-1.19
,-8.897,-0.215,-5.154,-8.306,-1.01,-5.276,-5.67,6.72,-1.47
,-8.744,-0.512,-5.276,-8.626,-0.96,-5.231,-6.86,6.3,-1.47
,-8.528,-0.737,-5.202,-8.765,-0.778,-5.329,-7.35,6.23,-1.33
10524.0,-8.708,-0.737,-5.542,-8.969,-0.45,-5.013,-5.39,4.55,1.05
,-8.629,-0.689,-5.561,-8.765,-0.249,-4.984,-6.16,4.2,1.54
,-8.708,-0.672,-5.463,-8.375,0.215,-5.178,-6.23,3.99,1.47
,-8.945,-0.534,-5.418,-8.433,0.318,-5.054,-6.51,3.57,0.77
10600.0,-8.61,0.354,-5.128,-8.629,-0.613,-5.037,-9.59,0.84,0.28
,-8.689,0.213,-5.138,-8.526,-0.627,-4.937,-10.43,0.56,-0.56
,-8.658,-0.038,-5.016,-8.457,-0.373,-4.999,-10.22,0.56,-1.33
,-8.705,-0.354,-4.968,-8.483,-0.428,-5.152,-9.31,0.56,-1.75
10676.0,-8.492,-0.507,-5.286,-8.457,-0.976,-5.341,-3.22,0.77,-0.14
,-8.71,-0.763,-5.162,-8.514,-0.818,-5.276,-4.34,0.91,0.14
,-8.691,-0.871,-5.207,-8.607,-0.625,-5.406,-4.69,0.28,0.56
,-8.547,-0.974,-5.164,-8.49,-0.711,-5.432,-4.69,0.35,1.47
10751.0,-8.421,-0.804,-5.386,-8.603,-0.495,-5.494,0.07,0.7,4.97
,-8.619,-0.835,-5.353,-8.622,-0.335,-5.456,1.82,0.21,5.04
,-8.739,-0.833,-5.556,-8.686,-0.278,-5.26,4.06,-0.35,4.97
,-8.746,-0.756,-5.619,-8.672,-0.043,-5.221,7.42,-0.49,4.69
10827.0,-8.296,-0.11,-5.623,-8.823,-0.354,-5.224,9.45,-6.02,4.76
,-8.291,-0.105,-5.532,-8.588,-0.115,-5.126,9.03,-6.09,4.83
,-8.562,-0.239,-5.508,-8.287,0.072,-5.164,9.73,-5.95,5.04
,-8.801,-0.433,-5.422,-8.296,0.134,-5.042,11.9,-5.81,4.76
10902.0,-8.433,0.172,-5.226,-8.641,0.505,-5.023,19.6,-5.32,3.29
,-8.607,0.23,-5.118,-8.531,0.357,-4.932,19.88,-5.46,3.22
,-8.76,0.333,-4.994,-8.653,0.146,-4.812,20.09,-5.32,3.15
,-8.813,0.373,-4.989,-8.772,0.101,-4.702,19.32,-5.53,2.52
10978.0,-8.842,0.225,-4.889,-8.591,-0.182,-4.592,8.47,-8.26,-0.42
,-8.806,0.191,-4.759,-8.469,-0.129,-4.616,8.54,-9.45,-1.61
,-8.763,-0.014,-4.683,-8.61,-0.136,-4.647,8.19,-10.01,-1.47
,-8.789,-0.055,-4.673,-8.722,-0.223,-4.554,8.12,-10.01,-1.4
11054.0,-9.021,-0.4,-4.46,-8.603,-0.873,-4.848,8.61,-9.24,-2.1
,-9.184,-0.488,-4.585,-8.703,-0.806,-4.824,7.56,-10.01,-1.54
,-8.88,-0.601,-4.788,-8.665,-0.653,-4.805,6.79,-10.43,-0.84
,-8.739,-0.766,-4.815,-8.607,-0.565,-4.542,7.35,-10.64,-0.7
11130.0,-8.705,-0.445,-4.618,-8.887,-0.412,-4.341,11.69,-11.48,0.49
,-8.868,-0.412,-4.566,-8.772,-0.419,-4.36,10.99,-12.32,0.28
,-8.906,-0.263,-4.42,-8.847,-0.479,-4.362,9.17,-13.37,0.21
,-8.911,-0.321,-4.374,-8.784,-0.371,-4.279,6.72,-13.65,0.84
11206.0,-8.949,-0.313,-4.338,-8.72,-0.156,-4.319,6.86,-13.72,0.35
,-8.863,-0.091,-4.53,-8.844,-0.285,-4.082,7.14,-14.28,0.0
,-8.782,-0.043,-4.496,-9.074,-0.369,-3.903,6.86,-14.56,-0.07
,-8.722,-0.077,-4.46,-9.045,-0.414,-3.819,6.37,-14.84,-0.42
11281.0,-8.976,-0.495,-3.85,-8.832,-0.682,-3.888,4.62,-13.65,-1.33
,-8.906,-0.603,-3.977,-8.985,-0.634,-3.666,3.64,-13.72,-0.98
,-8.856,-0.727,-3.802,-9.129,-0.397,-3.743,4.83,-12.95,-0.63
,-8.926,-0.723,-3.903,-9.148,-0.065,-3.731,6.93,-12.6,-0.56
11357.0,-9.383,0.081,-3.831,-9.06,-0.495,-3.812,6.58,-13.3,-2.1
,-9.237,0.316,-3.692,-8.945,-0.754,-3.888,3.15,-13.3,-2.8
,-9.093,0.115,-3.63,-9.072,-0.845,-3.922,-1.19,-12.95,-3.36
,-9.0,-0.194,-3.491,-9.141,-0.919,-3.848,-4.27,-12.53,-4.06
11433.0,-9.131,-0.936,-3.733,-8.995,-1.122,-3.582,0.07,-13.3,-4.34
,-9.265,-0.742,-4.209,-9.072,-1.268,-3.475,2.1,-13.51,-4.55
,-8.966,-0.677,-4.147,-9.191,-1.113,-3.568,0.28,-14.14,-4.2
,-8.875,-0.876,-3.915,-9.194,-0.699,-3.609,-1.96,-13.86,-2.94
11509.0,-9.337,-0.514,-3.74,-9.287,-0.258,-2.687,3.43,-14.98,-0.7
,-9.239,-0.488,-3.652,-9.399,-0.086,-2.501,1.82,-14.91,-0.56
,-9.189,-0.589,-3.364,-9.476,0.11,-2.996,2.31,-13.93,-0.84
,-9.086,-0.589,-2.838,-9.268,0.112,-3.087,3.85,-12.46,-1.4
11584.0,-9.239,-0.112,-2.986,-9.416,-0.318,-3.005,-4.41,-11.83,-3.71
,-9.282,-0.419,-3.077,-9.354,-0.457,-3.209,-4.27,-11.06,-4.41
,-9.198,-0.459,-2.955,-9.167,-0.684,-3.049,-3.71,-10.08,-5.25
,-9.27,-0.409,-2.922,-9.287,-0.677,-3.288,-2.52,-9.03,-5.32
11660.0,-9.287,-0.828,-3.577,-9.32,-0.952,-2.893,-5.25,-8.4,-5.67
,-9.167,-0.804,-3.288,-9.43,-0.847,-2.584,-2.52,-7.98,-5.11
,-9.16,-0.885,-3.204,-9.493,-0.883,-2.62,-0.7,-7.7,-4.27
,-9.268,-0.955,-3.233,-9.426,-0.811,-2.426,1.4,-7.35,-3.99
11736.0,-9.445,-0.785,-2.709,-9.249,-0.869,-2.364,1.05,-4.41,-2.94
,-9.332,-0.677,-2.804,-9.349,-1.039,-2.063,0.77,-4.13,-2.94
,-9.177,-0.591,-2.781,-9.476,-0.876,-1.993,0.91,-3.36,-2.73
,-9.179,-0.629,-2.525,-9.696,-0.646,-2.151,0.77,-2.17,-2.31
11812.0,-9.634,-0.412,-2.146,-9.301,-0.806,-3.388,0.98,3.15,-2.24
,-9.591,-0.287,-2.659,-9.296,-0.998,-3.51,-3.36,3.15,-2.94
,-9.356,-0.467,-2.776,-9.342,-0.945,-3.695,-7.63,3.85,-3.22
,-9.349,-0.548,-3.101,-9.34,-0.888,-4.006,-9.59,4.34,-3.5
11887.0,-9.244,-0.797,-3.975,-9.359,-0.907,-3.544,-1.4,2.1,-2.94
,-9.124,-0.704,-3.994,-9.344,-0.873,-3.307,0.14,1.82,-2.59
,-9.167,-0.73,-4.022,-9.354,-0.854,-3.015,0.7,1.26,-2.45
,-9.287,-0.878,-3.766,-9.454,-0.792,-3.005,2.03,0.84,-2.1
11963.0,-9.493,-0.706,-3.051,-9.304,-0.938,-3.046,5.11,-0.21,-2.1
,-9.363,-0.749,-2.955,-9.27,-0.897,-2.905,4.48,0.07,-1.96
,-9.28,-0.804,-2.883,-9.289,-0.902,-2.824,4.27,0.21,-1.82
,-9.356,-0.916,-2.941,-9.43,-0.873,-2.812,4.69,0.42,-1.89
12039.0,-9.505,-0.821,-3.096,-9.227,-0.993,-3.271,3.99,1.96,-1.61
,-9.359,-0.849,-3.135,-9.263,-0.754,-3.202,2.87,2.38,-1.19
,-9.316,-0.948,-3.206,-9.347,-0.692,-3.178,2.66,2.59,-0.77
,-9.263,-1.036,-3.326,-9.38,-0.768,-3.041,3.92,2.73,-0.63
12114.0,-9.387,-0.936,-2.828,-9.404,-0.787,-3.171,4.9,3.08,-0.07
,-9.469,-1.0,-2.836,-9.337,-0.838,-3.278,4.2,3.29,-0.14
,-9.495,-0.916,-2.938,-9.239,-0.849,-3.309,3.71,3.5,-0.42
,-9.407,-0.823,-2.974,-9.287,-0.876,-3.417,3.08,3.85,-0.42
12190.0,-9.335,-0.883,-3.563,-9.251,-0.96,-3.589,3.43,3.29,-0.35
,-9.316,-0.806,-3.637,-9.342,-0.878,-3.498,3.85,3.01,-0.28
,-9.22,-0.804,-3.664,-9.33,-0.859,-3.384,3.5,2.52,-0.21
,-9.251,-0.883,-3.623,-9.261,-0.852,-3.159,3.36,2.31,-0.14
12266.0,-9.337,-0.955,-2.982,-9.284,-0.983,-3.252,3.99,1.82,0.14
,-9.368,-0.96,-2.982,-9.21,-0.96,-3.285,3.71,1.68,0.07
,-9.462,-0.926,-3.022,-9.237,-0.998,-3.245,3.5,1.61,0.07
,-9.39,-0.9,-3.221,-9.356,-0.938,-3.226,3.29,1.33,-0.07
12342.0,-9.442,-0.883,-3.206,-9.277,-0.955,-3.35,5.88,1.89,0.49
,-9.38,-0.871,-3.257,-9.301,-0.952,-3.293,5.11,1.75,0.49
,-9.311,-0.854,-3.324,-9.313,-0.936,-3.211,4.2,1.75,0.35
,-9.275,-0.9,-3.369,-9.402,-0.94,-3.183,3.78,1.68,0.42
12417.0,-9.383,-0.869,-3.151,-9.366,-0.972,-3.034,3.92,1.68,0.49
,-9.311,-0.864,-3.096,-9.337,-0.943,-2.95,3.29,1.68,0.56
,-9.318,-0.854,-3.087,-9.38,-0.945,-2.946,2.66,1.82,0.42
,-9.359,-0.885,-3.044,-9.454,-0.921,-3.101,2.1,2.03,0.35
12493.0,-9.344,-0.888,-3.211,-9.289,-1.106,-3.235,0.56,2.87,0.14
,-9.328,-0.905,-3.281,-9.397,-0.969,-3.185,-0.28,2.8,0.14
,-9.239,-1.015,-3.302,-9.471,-0.876,-3.278,-0.49,2.94,0.49
,-9.213,-1.041,-3.309,-9.423,-0.768,-3.508,0.14,2.87,0.49
12569.0,-9.301,-0.754,-3.642,-9.282,-0.912,-3.537,-0.14,2.17,0.49
,-9.186,-0.907,-3.747,-9.318,-0.861,-3.458,-0.91,1.89,0.49
,-9.217,-1.096,-3.716,-9.318,-0.89,-3.276,0.07,1.68,0.63
,-9.244,-1.048,-3.714,-9.344,-0.881,-3.254,1.89,1.54,0.84
12645.0,-9.395,-0.89,-3.369,-9.213,-0.916,-3.113,1.33,0.07,0.91
,-9.306,-0.976,-3.391,-9.308,-0.885,-3.072,0.98,0.07,0.91
,-9.239,-1.003,-3.309,-9.402,-0.873,-2.977,1.4,0.21,1.12
,-9.244,-0.981,-3.247,-9.392,-0.914,-2.931,2.17,0.28,1.19
12720.0,-9.344,-0.948,-2.903,-9.203,-0.979,-3.278,0.98,1.26,1.47
,-9.363,-0.94,-3.087,-9.311,-0.976,-3.393,0.98,1.19,1.47
,-9.284,-0.912,-3.223,-9.249,-0.974,-3.372,0.84,1.05,1.4
,-9.253,-0.897,-3.269,-9.323,-0.948,-3.374,1.05,1.12,1.68
12796.0,-9.265,-0.883,-3.388,-9.368,-0.964,-3.005,3.92,0.91,2.45
,-9.299,-0.821,-3.403,-9.435,-0.854,-2.881,3.99,0.63,2.45
,-9.292,-0.861,-3.355,-9.423,-0.735,-3.034,3.57,0.77,2.66
,-9.294,-0.916,-3.159,-9.301,-0.653,-2.991,3.08,0.98,2.73
12871.0,-9.287,-0.601,-2.943,-9.34,-0.529,-2.551,-3.5,0.28,1.61
,-9.354,-0.732,-2.958,-9.284,-0.668,-2.527,-5.67,0.7,1.19
,-9.454,-0.847,-2.824,-9.385,-0.883,-2.503,-7.56,0.49,0.77
,-9.368,-0.715,-2.663,-9.433,-0.979,-2.606,-8.89,0.28,0.63
12947.0,-9.447,-0.988,-2.642,-9.155,-1.003,-3.855,-11.06,2.73,1.61
,-9.335,-0.943,-2.812,-9.105,-0.964,-3.723,-10.29,2.8,2.03
,-9.323,-0.955,-3.063,-9.232,-0.792,-4.001,-9.38,3.29,2.45
,-9.313,-0.948,-3.589,-9.234,-0.761,-3.886,-8.19,3.22,2.59
13023.0,-9.328,-0.629,-3.843,-9.146,-0.869,-4.413,6.23,7.98,4.97
,-9.428,-0.447,-3.96,-9.143,-1.017,-4.223,8.47,8.54,4.9
,-9.368,-0.548,-4.298,-9.217,-1.046,-3.996,9.03,8.12,4.62
,-9.146,-0.713,-4.283,-9.234,-0.962,-3.826,9.87,7.84,4.62
13099.0,-9.323,-0.806,-3.582,-9.418,-0.227,-3.058,17.22,3.99,5.46
,-9.474,-0.62,-3.357,-9.325,-0.517,-2.793,15.19,2.87,5.11
,-9.617,-0.412,-3.228,-9.275,-0.66,-2.441,11.2,0.7,4.41
,-9.543,-0.136,-3.25,-9.273,-0.735,-2.316,4.62,-1.75,3.36
13175.0,-9.141,-0.759,-1.79,-9.579,-1.106,-1.627,-10.29,0.21,0.91
,-9.323,-0.797,-1.783,-9.483,-0.866,-1.577,-8.61,2.03,1.19
,-9.304,-1.012,-1.457,-9.471,-0.56,-2.163,-7.35,4.41,1.96
,-9.375,-1.204,-1.077,-9.107,-0.325,-3.238,-3.29,7.28,3.22
13250.0,-8.875,-0.55,-2.479,-9.213,-0.476,-3.08,2.59,15.54,4.9
,-8.995,-0.668,-2.85,-9.196,-0.342,-2.429,2.8,17.71,4.69
,-8.765,-0.66,-2.912,-9.124,-0.232,-2.56,4.83,19.32,4.27
,-9.129,-0.57,-2.97,-9.143,-0.249,-3.166,8.33,20.44,4.41
13326.0,-9.012,-0.459,-3.668,-9.038,-1.393,-3.384,7.7,18.62,2.73
,-9.088,-0.751,-4.128,-8.911,-0.981,-3.532,7.28,18.76,4.48
,-8.976,-1.151,-4.233,-9.112,-0.282,-4.022,9.24,20.65,6.02
,-8.945,-1.553,-3.522,-9.026,0.036,-4.585,15.75,24.43,6.65
13402.0,-8.914,-0.038,-4.465,-9.048,-0.608,-4.838,20.51,20.58,4.69
,-9.093,-0.165,-4.389,-9.177,-0.967,-4.692,14.28,21.7,4.55
,-9.036,-0.359,-4.216,-9.124,-1.22,-4.637,9.94,21.63,3.22
,-9.095,-0.486,-4.46,-8.772,-1.385,-4.377,7.49,20.23,1.82
13478.0,-8.636,-1.61,-4.322,-9.373,-1.218,-4.185,0.7,16.87,5.25
,-8.567,-2.008,-4.14,-9.093,-0.431,-4.329,3.43,17.15,5.32
,-8.839,-2.044,-4.188,-8.801,0.105,-4.398,6.93,15.68,6.44
,-8.997,-1.79,-4.214,-8.65,0.426,-4.616,11.34,15.05,7.98
13553.0,-8.641,0.258,-4.47,-9.155,0.395,-4.259,-3.43,14.35,6.58
,-8.871,0.024,-4.243,-9.103,0.474,-4.369,-7.77,15.75,6.09
,-8.969,-0.084,-4.032,-9.0,0.57,-4.35,-8.26,16.52,4.9
,-9.16,0.112,-3.994,-8.947,0.739,-4.484,-6.37,16.31,3.01
13629.0,-8.863,0.742,-4.365,-8.971,0.371,-4.819,-6.93,11.27,-1.96
,-8.871,0.524,-4.587,-8.995,0.361,-4.702,-6.79,11.34,-3.85
,-9.012,0.4,-4.649,-8.964,0.304,-4.676,-6.23,11.41,-5.46
,-9.031,0.337,-4.745,-8.667,0.103,-4.826,-5.18,11.27,-6.3
13704.0,-8.763,0.026,-4.783,-8.519,-0.536,-4.941,-11.62,9.24,-11.55
,-8.835,-0.139,-4.829,-8.806,-0.718,-4.824,-12.04,9.17,-12.32
,-8.89,-0.148,-4.652,-9.079,-0.802,-4.695,-11.48,9.31,-13.09
,-8.643,-0.287,-4.917,-9.0,-0.871,-4.891,-11.27,9.66,-13.72
13780.0,-8.638,-0.943,-4.963,-8.909,-1.85,-4.728,-4.55,7.42,-11.9
,-8.459,-1.273,-5.063,-8.739,-1.591,-4.743,-4.27,7.07,-10.22
,-8.464,-1.539,-5.03,-8.385,-1.28,-4.891,-3.92,7.35,-9.17
,-8.753,-1.768,-4.831,-8.215,-1.089,-4.953,-1.82,7.56,-8.26
13856.0,-8.222,-1.127,-4.98,-8.61,-2.19,-5.001,3.43,8.75,-3.99
,-8.679,-1.443,-4.769,-8.418,-2.326,-4.822,2.31,9.45,-2.66
,-8.909,-1.634,-5.051,-8.373,-2.419,-4.633,2.45,8.19,-0.7
,-8.801,-1.895,-5.051,-8.813,-2.161,-4.279,3.64,8.47,0.56
13932.0,-8.961,-1.725,-4.683,-8.469,-0.304,-5.374,14.0,8.12,10.22
,-8.792,-1.23,-5.051,-8.512,-0.361,-5.164,15.47,6.86,10.29
,-8.775,-0.701,-5.214,-8.588,-0.584,-5.171,14.98,6.44,10.08
,-8.579,-0.39,-5.47,-8.533,-0.778,-4.929,13.16,5.81,9.03
14008.0,-8.65,-0.799,-4.831,-8.954,0.057,-5.233,5.32,5.25,9.59
,-8.538,-0.751,-4.922,-8.804,0.431,-5.351,5.6,4.62,9.1
,-8.696,-0.739,-4.98,-8.674,0.514,-5.48,6.65,4.2,8.4
,-8.837,-0.462,-5.109,-8.413,0.086,-5.296,8.96,3.36,7.7
14083.0,-8.435,-0.421,-4.949,-8.753,-0.534,-4.776,1.96,1.61,2.94
,-8.44,-0.797,-4.774,-8.737,-0.292,-4.85,2.24,2.1,2.59
,-8.672,-0.873,-4.8,-8.579,-0.325,-4.728,4.62,1.61,2.31
,-8.746,-0.78,-4.755,-8.804,-0.345,-4.659,6.51,1.33,2.03
14159.0,-8.856,-0.175,-4.937,-8.246,-1.402,-4.48,2.03,0.84,0.42
,-8.739,-0.208,-5.099,-8.327,-1.283,-4.654,0.56,0.35,-0.49
,-8.794,-0.452,-4.92,-8.672,-1.132,-4.683,-1.19,0.0,-0.49
,-8.318,-1.027,-4.692,-8.576,-0.974,-4.578,-2.8,0.07,0.28
14235.0,-8.715,-0.68,-4.645,-8.696,-0.364,-4.855,5.95,2.03,3.01
,-8.77,-0.615,-4.647,-8.495,-0.476,-5.126,6.23,2.94,2.94
,-8.758,-0.445,-4.628,-8.581,-0.849,-4.901,6.23,3.36,2.31
,-8.923,-0.29,-4.582,-8.402,-1.441,-4.673,5.18,3.22,1.75
14311.0,-8.413,-1.761,-4.408,-8.806,-0.242,-4.661,2.24,5.25,4.06
,-8.579,-1.481,-4.427,-8.777,-0.074,-4.712,4.27,6.02,5.18
,-8.583,-1.094,-4.36,-8.691,0.065,-4.812,5.95,6.65,5.74
,-8.6,-0.61,-4.556,-8.715,0.134,-5.013,6.44,7.0,5.67
14386.0,-8.868,0.077,-5.118,-8.464,-0.285,-5.207,0.98,8.75,1.89
,-8.837,0.029,-5.322,-8.241,-0.23,-5.391,0.84,8.54,1.4
,-8.765,-0.101,-5.236,-8.466,-0.275,-5.621,0.49,8.47,1.05
,-8.71,-0.27,-4.982,-8.739,-0.476,-5.633,-0.07,8.54,1.47
14462.0,-8.811,-0.888,-5.647,-8.349,-1.374,-5.552,-3.01,7.42,-0.7
,-8.753,-1.318,-5.575,-8.495,-1.388,-5.341,-3.15,7.07,-1.12
,-8.504,-1.496,-5.341,-8.784,-1.326,-5.231,-2.73,6.65,-0.63
,-8.399,-1.412,-5.616,-8.825,-1.206,-5.209,-1.61,6.09,0.49
14537.0,-8.588,-1.003,-5.303,-8.471,-0.012,-5.303,3.36,4.62,3.57
,-8.605,-0.699,-5.343,-8.61,-0.144,-5.039,3.71,4.76,3.92
,-8.679,-0.302,-5.513,-8.622,-0.153,-5.231,4.34,4.13,3.64
,-8.636,-0.024,-5.41,-8.416,-0.115,-5.465,3.43,4.13,3.15
14613.0,-8.478,-0.208,-5.355,-8.507,-0.364,-5.432,-3.08,2.45,2.94
,-8.612,-0.349,-5.386,-8.658,-0.416,-5.585,-3.43,1.47,3.01
,-8.595,-0.445,-5.36,-8.559,-0.629,-5.645,-3.5,1.26,2.59
,-8.583,-0.416,-5.406,-8.526,-0.704,-5.631,-2.66,1.12,1.82
14689.0,-8.471,-0.804,-5.633,-8.595,-0.866,-5.544,-4.2,-3.08,0.77
,-8.447,-0.969,-5.602,-8.571,-0.816,-5.669,-3.78,-3.22,0.42
,-8.54,-1.086,-5.535,-8.543,-0.811,-5.631,-2.52,-3.92,-0.28
,-8.567,-0.988,-5.54,-8.536,-0.907,-5.552,-0.91,-4.41,-0.35
14765.0,-8.61,-1.034,-5.401,-8.332,-0.828,-5.14,1.75,-4.41,0.56
,-8.631,-0.988,-5.367,-8.725,-0.701,-5.095,2.66,-5.39,1.33
,-8.416,-0.938,-5.406,-8.796,-0.383,-5.118,4.69,-6.16,1.82
,-8.227,-0.885,-5.348,-8.674,-0.235,-5.207,6.79,-6.09,2.1
14840.0,-8.713,-0.072,-4.91,-8.504,-0.282,-4.927,11.55,-6.93,1.19
,-8.55,-0.005,-4.989,-8.507,-0.38,-4.807,9.52,-7.91,1.19
,-8.337,-0.122,-4.86,-8.6,-1.127,-4.25,7.42,-7.98,1.19
,-8.38,-0.304,-4.874,-8.586,-0.689,-4.259,6.79,-7.77,1.12
14916.0,-8.679,-0.605,-4.393,-8.653,-0.553,-4.585,13.44,-7.98,0.98
,-8.689,-0.342,-4.484,-8.689,-0.55,-4.704,13.65,-9.1,1.4
,-8.579,-0.376,-4.625,-8.638,-0.668,-4.647,13.02,-9.59,1.47
,-8.591,-0.464,-4.535,-8.641,-0.706,-4.597,11.55,-9.45,1.68
14991.0,-8.756,-0.699,-4.456,-8.655,-0.404,-4.855,11.27,-7.35,1.75
,-8.923,-0.651,-4.434,-8.564,-0.455,-4.728,12.25,-7.49,1.47
,-8.945,-0.45,-4.561,-8.416,-0.727,-4.683,12.18,-8.47,1.61
,-8.844,-0.309,-4.736,-8.614,-0.799,-4.585,10.85,-9.73,2.03
15067.0,-8.854,-0.68,-4.558,-8.899,-0.634,-4.59,8.89,-9.8,1.61
,-9.033,-0.455,-4.728,-8.89,-0.881,-4.436,9.03,-11.55,1.54
,-8.89,-0.416,-4.788,-8.866,-0.912,-4.295,8.05,-12.25,2.17
,-8.978,-0.505,-4.688,-8.882,-0.689,-4.487,6.51,-12.11,2.45
15143.0,-8.827,-0.392,-4.616,-9.179,0.089,-4.848,10.08,-13.58,1.68
,-8.77,-0.105,-4.728,-9.012,0.101,-5.035,9.17,-14.21,1.96
,-7.98,0.383,-4.305,-8.849,-0.057,-4.929,7.42,-14.28,1.89
,-8.545,0.117,-4.475,-8.698,-0.158,-4.872,10.15,-15.4,1.26
15219.0,-8.693,-0.548,-4.573,-9.038,-0.763,-3.879,-0.56,-17.64,-3.5
,-8.753,-0.847,-4.19,-9.134,-0.696,-3.695,0.77,-16.87,-3.22
,-8.871,-0.943,-4.032,-9.04,-0.72,-3.611,2.66,-16.24,-2.94
,-8.969,-0.938,-3.932,-9.134,-0.907,-3.609,4.06,-16.52,-3.01
15295.0,-8.945,-1.153,-3.594,-9.05,-0.861,-3.156,-1.12,-16.45,-2.73
,-8.911,-1.347,-3.362,-9.306,-0.531,-3.197,-0.07,-15.75,-1.75
,-8.784,-1.443,-3.192,-9.344,-0.519,-3.288,2.66,-14.56,-0.7
,-8.892,-1.261,-3.36,-9.186,-0.57,-3.001,5.88,-14.49,0.14
15370.0,-9.134,-0.67,-2.986,-9.122,-0.309,-3.486,3.64,-11.13,0.7
,-9.098,-0.727,-3.013,-9.131,-0.469,-3.295,3.64,-10.57,0.35
,-9.229,-0.713,-3.166,-9.194,-0.615,-3.139,5.32,-10.36,0.0
,-9.258,-0.45,-3.513,-9.217,-0.529,-3.297,5.25,-10.57,-0.28
15446.0,-9.253,-0.244,-3.376,-9.038,-0.857,-3.156,4.27,-7.77,-2.17
,-9.196,-0.258,-3.539,-9.143,-0.895,-3.027,1.05,-8.26,-2.52
,-9.143,-0.342,-3.451,-9.172,-0.821,-2.986,-1.82,-8.33,-2.52
,-9.115,-0.694,-3.465,-9.361,-0.68,-2.802,-2.73,-7.7,-2.73
15522.0,-9.435,-0.615,-3.369,-9.105,-1.254,-3.687,-0.77,-6.23,-3.08
,-9.27,-0.675,-3.585,-9.206,-0.991,-3.439,-4.13,-6.93,-3.36
,-9.134,-0.981,-3.683,-9.39,-0.617,-3.996,-5.74,-6.65,-2.8
,-9.04,-1.156,-3.606,-9.258,-0.505,-4.025,-3.71,-5.88,-2.24
15598.0,-9.158,-0.598,-3.814,-9.56,-0.538,-3.743,1.05,-7.35,-2.03
,-9.167,-0.787,-3.762,-9.383,-0.282,-3.838,1.12,-7.21,-1.89
,-9.268,-0.9,-3.62,-9.265,-0.366,-3.853,3.22,-7.07,-2.1
,-9.43,-0.811,-3.568,-9.213,-0.682,-3.81,5.04,-7.28,-2.45
15673.0,-9.153,-0.912,-3.86,-9.28,-0.668,-3.163,-1.82,-10.92,-4.2
,-9.186,-0.969,-3.661,-9.368,-0.66,-2.8,0.91,-10.99,-3.92
,-9.27,-0.83,-3.793,-9.44,-0.665,-2.62,2.1,-12.39,-4.41
,-9.217,-0.723,-3.527,-9.476,-0.782,-2.623,2.1,-12.67,-4.62
15749.0,-9.378,-0.888,-2.539,-9.287,-0.933,-2.426,-7.0,-11.34,-5.6
,-9.485,-0.747,-2.548,-9.332,-0.936,-2.333,-6.93,-11.13,-5.81
,-9.316,-0.849,-2.563,-9.385,-0.991,-2.218,-8.19,-10.57,-6.23
,-9.335,-0.96,-2.539,-9.442,-1.053,-2.268,-8.68,-9.73,-6.16
15824.0,-9.519,-1.079,-2.45,-9.373,-1.421,-2.046,-9.03,-5.81,-4.69
,-9.344,-1.204,-2.395,-9.418,-1.206,-1.914,-9.45,-4.97,-4.27
,-9.189,-1.402,-2.178,-9.617,-1.015,-2.02,-7.98,-3.43,-3.36
,-9.273,-1.469,-2.137,-9.619,-0.967,-2.166,-4.9,-1.68,-2.45
15900.0,-9.538,-0.847,-2.395,-9.191,-0.974,-3.539,1.54,3.85,-0.49
,-9.509,-0.802,-2.759,-9.136,-1.096,-3.41,1.05,3.99,-0.56
,-9.49,-0.833,-3.175,-9.344,-1.065,-3.439,0.49,3.64,-0.7
,-9.395,-0.916,-3.542,-9.462,-0.969,-3.723,0.21,3.22,-0.98
15976.0,-9.404,-0.749,-3.611,-9.318,-1.151,-3.491,3.64,1.26,-0.84
,-9.392,-0.838,-3.594,-9.356,-1.022,-3.604,1.33,0.14,-0.84
,-9.385,-1.053,-3.683,-9.249,-1.015,-3.494,-0.28,-0.63,-1.12
,-9.361,-1.228,-3.532,-9.313,-1.039,-3.352,0.77,-0.77,-0.98
16052.0,-9.383,-1.096,-3.168,-9.471,-1.062,-2.304,3.08,-3.15,-0.07
,-9.39,-1.139,-2.998,-9.418,-1.041,-2.108,4.2,-2.94,0.14
,-9.438,-1.022,-2.716,-9.533,-0.938,-2.213,5.25,-2.52,0.49
,-9.533,-0.972,-2.536,-9.447,-0.938,-2.314,4.97,-2.17,0.49
16128.0,-9.466,-0.948,-2.438,-9.399,-1.218,-2.972,2.45,0.91,0.7
,-9.435,-0.948,-2.718,-9.44,-1.106,-3.01,2.03,1.05,0.63
,-9.33,-1.134,-2.864,-9.538,-0.95,-3.161,2.1,1.47,0.84
,-9.313,-1.225,-2.96,-9.481,-0.79,-3.405,3.29,2.03,1.33
16203.0,-9.275,-0.895,-3.092,-9.5,-0.938,-3.123,7.0,1.26,2.03
,-9.275,-1.098,-3.123,-9.469,-1.0,-3.008,6.79,1.4,2.1
,-9.351,-1.153,-3.259,-9.483,-0.96,-2.941,7.49,1.05,2.1
,-9.363,-1.041,-3.13,-9.399,-0.926,-3.068,7.56,1.05,2.38
16279.0,-9.342,-0.948,-3.034,-9.418,-0.849,-2.666,3.43,-0.28,1.89
,-9.363,-1.007,-2.838,-9.442,-0.869,-2.548,3.36,0.07,2.1
,-9.418,-0.983,-2.735,-9.447,-0.895,-2.453,3.64,0.35,2.17
,-9.507,-0.905,-2.623,-9.423,-0.873,-2.441,3.29,0.42,1.96
16355.0,-9.505,-0.857,-2.606,-9.387,-0.878,-2.673,0.35,2.24,1.47
,-9.502,-0.859,-2.67,-9.464,-0.842,-2.697,-0.49,2.38,1.26
,-9.471,-0.914,-2.685,-9.495,-0.818,-2.74,-1.19,2.66,1.33
,-9.378,-0.928,-2.714,-9.49,-0.742,-2.797,-0.84,3.08,1.26
16431.0,-9.464,-0.823,-2.848,-9.495,-1.082,-3.082,-0.84,4.34,0.77
,-9.373,-0.883,-2.891,-9.392,-1.077,-3.161,-0.77,4.69,0.63
,-9.385,-0.938,-2.869,-9.349,-1.189,-3.156,-0.77,4.97,0.49
,-9.459,-0.933,-3.025,-9.33,-1.058,-3.228,-0.98,4.83,0.35
16506.0,-9.411,-0.931,-3.223,-9.34,-0.883,-3.233,5.04,4.48,1.26
,-9.395,-0.821,-3.216,-9.304,-0.931,-3.192,5.46,4.41,1.33
,-9.347,-0.708,-3.319,-9.387,-0.981,-3.087,4.76,3.85,1.26
,-9.363,-0.835,-3.293,-9.44,-0.866,-3.075,3.78,3.5,1.12
16582.0,-9.438,-0.847,-3.041,-9.363,-1.062,-3.001,2.38,2.59,0.63
,-9.366,-0.878,-3.039,-9.335,-1.012,-2.915,1.33,2.38,0.63
,-9.337,-0.998,-3.051,-9.387,-1.012,-2.764,0.56,2.38,0.56
,-9.373,-1.065,-3.015,-9.416,-0.981,-2.728,1.33,2.8,0.84
16657.0,-9.488,-0.914,-2.773,-9.249,-1.06,-3.278,2.45,3.5,1.12
,-9.521,-0.857,-2.881,-9.313,-0.974,-3.281,1.75,3.5,1.19
,-9.447,-0.921,-3.046,-9.349,-0.881,-3.25,0.56,3.29,1.05
,-9.332,-0.967,-3.226,-9.354,-0.842,-3.056,0.35,3.43,1.12
16733.0,-9.375,-0.861,-2.915,-9.375,-1.01,-3.065,4.2,3.29,1.68
,-9.387,-0.957,-2.95,-9.347,-0.976,-3.149,3.43,3.43,1.47
,-9.399,-1.005,-2.922,-9.399,-0.962,-3.3,3.08,3.36,1.47
,-9.366,-1.01,-3.022,-9.395,-0.842,-3.417,2.8,3.15,1.4
16809.0,-9.325,-0.83,-3.518,-9.33,-0.933,-3.312,2.1,2.38,1.54
,-9.263,-0.881,-3.527,-9.411,-0.912,-3.159,2.17,2.03,1.47
,-9.215,-0.926,-3.503,-9.414,-0.852,-3.065,2.31,1.61,1.54
,-9.263,-0.964,-3.431,-9.421,-0.871,-3.072,2.73,1.33,1.68
16885.0,-9.397,-0.861,-3.053,-9.335,-0.995,-3.118,2.1,0.84,1.68
,-9.32,-0.916,-3.142,-9.447,-0.799,-3.195,1.05,0.7,1.61
,-9.263,-0.964,-3.101,-9.55,-0.696,-3.329,0.84,0.7,1.68
,-9.256,-1.043,-3.118,-9.488,-0.689,-3.34,1.19,0.84,1.89
16960.0,-9.474,-0.72,-3.25,-9.38,-0.955,-2.998,-1.82,-0.63,0.98
,-9.363,-0.818,-3.216,-9.45,-0.952,-3.022,-3.15,-0.77,0.84
,-9.328,-0.902,-3.099,-9.428,-0.955,-3.003,-3.22,-0.91,0.7
,-9.344,-0.993,-3.061,-9.435,-0.96,-3.058,-2.03,-0.91,0.84
17036.0,-9.407,-0.881,-3.111,-9.349,-1.019,-3.037,-0.28,-1.47,1.05
,-9.359,-0.869,-3.142,-9.44,-1.062,-2.922,-0.91,-1.61,0.91
,-9.323,-0.907,-3.175,-9.438,-1.031,-2.879,-1.12,-1.82,0.98
,-9.328,-0.928,-3.051,-9.428,-0.95,-2.769,-0.91,-1.68,1.33
17112.0,-9.356,-0.916,-2.781,-9.497,-0.799,-2.264,6.23,0.35,2.8
,-9.349,-1.003,-2.661,-9.526,-0.692,-2.726,6.79,0.98,3.08
,-9.34,-1.0,-2.436,-9.335,-0.715,-2.776,7.91,1.89,3.57
,-9.366,-0.976,-2.338,-9.277,-0.928,-2.85,8.82,2.8,3.78
17188.0,-9.253,-1.196,-2.931,-9.531,-0.907,-2.627,2.8,3.78,4.2
,-9.217,-1.51,-2.888,-9.45,-1.027,-2.589,6.3,4.97,5.18
,-9.227,-1.452,-2.714,-9.471,-1.173,-2.702,11.27,6.02,6.16
,-9.347,-1.055,-2.572,-9.265,-1.307,-2.907,15.82,6.65,6.65
17264.0,-9.244,-1.113,-2.673,-9.488,0.163,-2.922,22.82,9.87,8.19
,-9.313,-0.641,-3.214,-9.507,0.091,-2.058,27.02,9.8,7.56
,-9.263,-0.237,-3.235,-9.696,0.146,-2.223,29.05,10.36,6.93
,-9.464,0.148,-3.278,-9.478,0.074,-1.878,28.63,11.41,6.79
17339.0,-9.627,0.101,-1.642,-9.631,-0.766,-3.446,14.77,16.24,0.91
,-9.493,0.074,-1.709,-9.363,-1.117,-4.061,7.35,15.89,-0.56
,-9.538,-0.055,-2.051,-8.866,-1.728,-4.022,-0.7,15.75,-1.54
,-9.572,-0.39,-2.639,-8.775,-1.962,-3.939,-8.82,14.63,-2.45
17415.0,-8.844,-1.936,-3.8,-9.174,-1.402,-3.443,-17.99,11.13,-0.77
,-9.131,-1.735,-4.018,-9.155,-1.488,-2.974,-11.83,10.78,-0.49
,-9.016,-1.543,-3.757,-9.435,-1.378,-3.398,-7.21,10.99,0.7
,-9.115,-1.362,-3.661,-9.107,-1.256,-3.448,-4.62,11.27,2.66
17490.0,-9.311,-1.132,-3.455,-8.899,-0.591,-4.118,9.03,10.78,8.19
,-9.34,-1.127,-4.07,-8.945,-0.4,-4.101,9.8,8.82,9.38
,-8.804,-1.261,-3.74,-9.172,-0.316,-3.922,15.4,11.2,11.13
,-9.287,-0.998,-3.69,-8.983,-0.404,-3.319,21.21,11.48,11.27
17566.0,-9.275,-0.184,-2.539,-9.296,-0.031,-2.436,23.59,15.47,8.96
,-9.361,0.294,-2.876,-9.127,-0.457,-2.063,22.12,13.16,6.16
,-9.232,0.498,-3.046,-9.217,-0.689,-2.462,15.96,10.71,3.85
,-9.229,0.457,-2.816,-9.217,-0.593,-3.329,7.07,10.71,3.43
17642.0,-9.186,-0.325,-3.86,-9.06,-0.507,-4.501,-11.97,12.04,0.63
,-9.141,-0.136,-4.204,-9.162,-0.529,-4.535,-13.72,10.78,1.47
,-8.921,-0.189,-4.365,-9.162,-0.424,-4.233,-16.1,10.57,1.82
,-8.947,-0.424,-4.307,-8.99,-0.392,-3.865,-16.8,11.27,1.12
17718.0,-8.768,-0.505,-3.587,-9.15,-0.055,-4.343,-5.11,14.98,-2.03
,-8.954,-0.534,-3.597,-8.976,0.139,-4.295,-3.36,14.63,-2.17
,-9.098,-0.447,-3.922,-8.794,0.203,-4.19,-2.59,13.37,-2.66
,-9.275,-0.285,-4.135,-8.83,0.108,-4.075,-1.47,13.58,-2.73
17793.0,-8.966,-0.17,-4.099,-8.622,-1.072,-4.482,-7.91,17.08,-8.33
,-9.256,-0.416,-3.977,-8.598,-1.28,-4.235,-8.89,16.31,-8.05
,-9.189,-0.694,-4.185,-8.777,-1.302,-3.944,-9.59,14.56,-7.56
,-8.787,-0.864,-4.563,-9.098,-0.969,-3.771,-10.08,14.21,-7.56
17869.0,-9.5,-0.455,-3.908,-8.677,-1.029,-4.695,5.25,17.29,-7.98
,-9.067,0.048,-4.384,-8.789,-1.546,-4.606,2.24,15.33,-7.91
,-8.873,-0.029,-4.621,-8.873,-1.804,-4.678,-3.29,14.49,-7.84
,-8.701,-0.538,-4.824,-8.748,-1.977,-4.755,-7.84,14.14,-7.7
17944.0,-8.528,-1.969,-4.769,-8.631,-1.898,-4.774,3.64,15.05,-3.36
,-8.54,-2.017,-4.951,-8.564,-1.677,-4.803,6.16,14.63,-1.47
,-8.72,-2.139,-4.628,-8.827,-1.553,-4.848,7.7,14.28,0.49
,-8.703,-2.036,-4.635,-8.772,-1.479,-4.843,9.31,13.37,2.66
18020.0,-8.545,-1.63,-4.996,-8.71,-1.017,-5.006,10.99,11.2,10.22
,-8.674,-1.771,-5.061,-8.483,-0.577,-5.042,10.71,10.71,12.04
,-8.792,-1.869,-5.059,-8.464,-0.282,-4.728,12.18,9.8,12.88
,-8.868,-1.563,-5.054,-8.562,-0.038,-4.807,15.47,8.12,13.72
18096.0,-8.772,0.206,-4.642,-8.768,0.861,-4.853,12.6,7.91,11.2
,-9.105,0.38,-4.518,-8.557,0.72,-4.781,11.41,7.7,9.73
,-9.158,0.682,-4.374,-8.71,0.589,-4.63,9.73,6.93,8.12
,-8.813,0.969,-4.783,-9.119,0.656,-4.625,7.21,6.37,6.79
18172.0,-9.234,0.943,-4.872,-8.921,-0.658,-4.604,6.58,5.74,-4.13
,-9.124,0.986,-4.819,-9.007,-1.096,-4.556,6.51,4.9,-6.37
,-8.844,0.555,-4.862,-8.93,-1.397,-4.786,4.06,4.34,-8.19
,-8.756,-0.05,-4.523,-8.581,-1.596,-5.099,1.12,4.97,-8.61
18248.0,-8.378,-1.639,-5.267,-8.311,-2.379,-5.269,5.11,1.82,-6.37
,-8.181,-1.73,-5.355,-8.576,-2.352,-5.319,5.39,2.03,-5.11
,-7.992,-2.041,-5.312,-8.909,-2.168,-4.896,4.69,2.24,-3.15
,-8.117,-2.245,-5.236,-9.079,-1.732,-4.719,4.27,2.52,-0.56
18323.0,-8.945,-1.417,-4.91,-8.495,-0.383,-4.74,10.43,0.98,4.41
,-8.957,-1.036,-4.913,-8.461,-0.634,-4.69,10.5,0.42,3.78
,-8.866,-0.692,-4.786,-8.39,-0.919,-4.834,10.22,-0.14,3.01
,-8.677,-0.385,-4.709,-8.471,-1.127,-4.846,8.82,-1.4,2.94
18399.0,-8.72,-1.318,-4.695,-9.024,-0.017,-4.515,2.45,0.77,7.98
,-9.019,-1.175,-4.458,-8.626,0.055,-4.398,5.18,1.05,7.7
,-8.906,-0.704,-4.551,-8.409,0.151,-4.451,8.05,0.35,6.86
,-8.708,-0.366,-4.611,-8.543,0.101,-4.379,8.61,0.28,5.81
18475.0,-8.681,0.024,-4.671,-8.906,-1.027,-4.188,-2.45,1.19,3.92
,-8.653,-0.235,-4.702,-8.82,-1.015,-4.094,-3.92,1.12,3.08
,-8.653,-0.491,-4.803,-8.727,-0.95,-4.252,-3.71,1.82,2.73
,-8.875,-0.883,-4.384,-8.528,-0.948,-4.367,-3.78,2.1,2.66
18551.0,-8.447,-0.936,-4.444,-8.806,-0.586,-4.494,0.0,4.41,4.48
,-8.811,-0.648,-4.657,-8.995,-0.541,-4.676,0.91,5.04,4.62
,-8.911,-0.469,-4.738,-9.124,-0.378,-4.913,0.0,5.25,3.85
,-8.811,-0.505,-4.535,-9.136,-0.426,-4.726,-1.4,6.09,2.59
18626.0,-8.966,-0.294,-4.905,-8.423,-0.151,-5.379,-2.24,5.88,1.26
,-8.698,-0.534,-4.963,-8.811,-0.306,-5.351,-3.57,6.02,1.4
,-8.394,-0.68,-5.095,-8.957,-0.541,-5.334,-4.27,6.23,1.19
,-8.253,-0.476,-5.252,-8.815,-0.586,-5.303,-2.87,7.21,0.35
18702.0,-8.703,-0.675,-5.173,-8.526,-0.572,-5.532,-8.19,7.63,-0.7
,-8.521,-0.967,-5.162,-8.591,-0.495,-5.568,-9.87,6.86,0.0
,-8.605,-0.995,-4.999,-8.873,-0.761,-5.456,-10.57,6.65,0.7
,-8.595,-0.878,-5.432,-9.007,-1.003,-5.152,-10.36,5.95,1.33
18777.0,-8.938,-0.981,-5.162,-8.947,-0.182,-5.116,-10.22,3.43,2.59
,-8.555,-0.794,-5.054,-8.964,-0.273,-5.047,-8.12,3.01,2.8
,-8.394,-0.385,-5.224,-8.78,-0.4,-5.068,-6.51,3.08,2.17
,-8.526,-0.199,-5.14,-8.607,-0.38,-5.066,-6.51,3.08,1.33
18853.0,-8.576,-0.311,-5.087,-8.911,-0.426,-5.092,-6.79,0.63,1.4
,-8.617,-0.213,-5.248,-8.868,-0.785,-5.444,-6.3,0.56,0.91
,-8.768,-0.136,-5.19,-8.461,-1.237,-5.523,-5.81,0.0,-0.35
,-8.839,-0.27,-5.152,-8.21,-1.491,-5.635,-6.44,-0.84,-1.19
18929.0,-8.308,-1.589,-5.516,-8.722,-0.885,-5.473,-6.51,-3.43,1.89
,-8.521,-1.613,-5.47,-8.524,-0.823,-5.42,-2.59,-3.36,2.17
,-8.681,-1.431,-5.322,-8.464,-0.735,-5.504,0.42,-3.64,2.94
,-8.804,-1.144,-5.482,-8.557,-0.603,-5.3,1.89,-4.9,4.34
19005.0,-8.691,-0.373,-5.269,-8.835,0.117,-5.068,-1.61,-8.82,5.32
,-8.67,-0.177,-5.257,-8.5,0.158,-5.075,-1.82,-9.03,4.62
,-8.832,-0.129,-4.934,-8.382,0.141,-5.016,-2.03,-9.52,4.06
,-9.06,0.072,-4.946,-8.488,0.048,-4.709,-1.54,-11.2,3.85
19081.0,-8.906,0.012,-4.518,-8.808,0.349,-4.324,3.15,-11.97,-0.56
,-9.153,0.12,-4.46,-9.05,0.328,-4.314,4.41,-13.44,-0.77
,-9.014,0.251,-4.64,-9.055,0.316,-4.31,4.06,-14.42,-1.05
,-8.737,0.426,-4.523,-8.808,0.328,-4.379,1.96,-14.0,-0.77
19156.0,-8.571,0.263,-4.434,-8.981,-0.921,-3.987,-5.53,-14.7,-6.58
,-8.557,-0.041,-4.614,-9.11,-1.074,-4.089,-9.59,-13.79,-7.28
,-8.784,-0.28,-4.109,-8.66,-1.137,-4.343,-10.5,-13.51,-8.4
,-9.031,-0.677,-4.027,-8.48,-1.295,-4.07,-8.26,-13.16,-7.98
19232.0,-8.567,-1.065,-4.259,-9.076,-0.651,-4.223,9.24,-10.78,-3.5
,-8.693,-1.036,-4.231,-9.306,-0.739,-3.965,10.85,-10.22,-3.08
,-8.885,-0.931,-4.204,-9.462,-0.345,-4.2,10.5,-10.01,-2.31
,-8.902,-0.883,-4.078,-8.861,-0.328,-4.539,10.15,-9.1,-1.19
19308.0,-8.105,-0.388,-4.786,-9.237,-0.426,-4.106,0.21,-12.88,1.96
,-8.196,-0.637,-4.477,-9.165,-0.373,-3.853,0.21,-11.13,1.75
,-8.753,-0.747,-4.231,-9.442,-0.608,-3.697,2.73,-10.99,1.12
,-9.246,-0.648,-4.183,-9.179,-0.421,-4.101,5.67,-11.9,1.12
19384.0,-8.851,-0.189,-4.183,-8.547,0.4,-4.171,10.92,-11.83,1.05
,-8.964,-0.067,-3.814,-9.191,-0.024,-3.673,11.06,-11.2,1.26
,-9.411,0.084,-3.877,-9.172,-0.191,-4.106,9.24,-14.42,0.91
,-9.031,0.249,-4.2,-9.043,-0.586,-3.589,5.81,-15.4,-0.28
19459.0,-9.031,-0.656,-3.644,-9.232,-0.61,-3.532,0.77,-11.62,-1.33
,-9.232,-0.742,-3.843,-9.718,-0.474,-3.293,4.41,-11.55,-1.05
,-9.095,-0.627,-4.015,-9.167,-0.22,-3.68,7.98,-10.5,-0.84
,-8.995,-0.651,-3.915,-9.005,-0.184,-3.302,11.69,-8.05,-0.49
19535.0,-8.732,-0.194,-3.434,-9.229,-0.814,-3.072,1.05,-15.96,-0.35
,-8.882,-0.407,-3.494,-9.27,-0.73,-2.929,-2.24,-15.47,-1.12
,-9.112,-0.727,-3.649,-9.308,-0.457,-3.271,-3.08,-14.77,-1.89
,-9.196,-0.845,-3.503,-9.189,-0.242,-3.537,-2.03,-13.02,-1.47
19611.0,-9.584,-0.218,-3.484,-9.093,-0.345,-3.386,3.99,-10.22,-0.98
,-9.258,-0.163,-3.558,-9.256,-0.11,-3.625,2.31,-11.48,-0.42
,-8.949,-0.318,-3.532,-9.263,-0.151,-3.664,0.84,-10.85,-0.63
,-8.997,-0.445,-3.096,-9.158,-0.55,-3.4,1.61,-9.59,-1.54
19687.0,-9.359,-1.005,-3.233,-9.354,-0.378,-2.946,-6.16,-11.69,-1.61
,-9.296,-1.022,-3.075,-9.308,-0.268,-3.096,-1.82,-10.99,-2.17
,-9.361,-0.718,-3.376,-9.409,-0.208,-3.166,1.33,-11.34,-2.59
,-9.148,-0.407,-3.013,-9.296,-0.105,-3.312,1.75,-10.57,-2.31
19762.0,-9.337,-0.053,-3.589,-9.213,-0.127,-3.601,0.42,-7.0,-2.94
,-9.505,-0.172,-3.254,-9.27,-0.577,-3.415,0.07,-6.23,-3.43
,-9.646,-0.333,-3.494,-9.421,-0.885,-3.393,-0.98,-9.52,-4.27
,-9.234,0.01,-3.522,-9.165,-1.041,-2.881,-2.31,-11.41,-4.9
19838.0,-9.244,-1.165,-2.577,-9.507,-0.555,-1.993,-4.13,-10.01,-4.69
,-9.237,-1.304,-2.101,-9.459,-0.512,-2.312,-1.33,-8.26,-4.34
,-9.407,-0.957,-2.003,-9.39,-0.469,-2.357,2.1,-6.86,-3.78
,-9.495,-0.687,-1.917,-9.469,-0.443,-2.685,3.64,-5.46,-3.08
19913.0,-9.598,-0.567,-2.871,-9.387,-0.983,-2.623,7.77,0.49,-1.47
,-9.576,-0.644,-2.965,-9.44,-1.213,-2.273,6.65,-0.98,-1.89
,-9.359,-0.503,-2.879,-9.268,-1.237,-1.979,5.46,-2.38,-1.96
,-9.21,-0.67,-2.666,-9.452,-1.12,-2.082,3.36,-1.96,-1.68
19989.0,-9.574,-0.895,-2.304,-9.555,-1.048,-2.412,4.97,0.28,-0.7
,-9.402,-0.637,-2.261,-9.646,-0.773,-2.654,5.25,1.33,-0.28
,-9.284,-0.682,-2.28,-9.576,-0.493,-2.934,4.06,2.87,0.42
,-9.296,-0.964,-2.252,-9.533,-0.335,-3.295,4.41,5.04,0.98
20065.0,-9.404,-0.534,-3.556,-9.409,-0.687,-3.269,11.34,6.23,1.54
,-9.225,-0.579,-3.747,-9.526,-0.625,-3.185,12.39,5.46,1.61
,-9.232,-0.651,-3.709,-9.615,-0.512,-3.108,14.49,5.18,1.89
,-9.308,-0.696,-3.532,-9.512,-0.483,-3.216,16.59,4.9,1.96
20141.0,-9.356,-0.572,-3.005,-9.648,-0.919,-1.809,12.53,0.84,0.91
,-9.22,-0.756,-2.649,-9.667,-0.782,-1.656,12.32,1.26,0.98
,-9.292,-0.833,-2.312,-9.722,-0.737,-1.874,12.53,2.1,0.77
,-9.517,-0.871,-2.094,-9.55,-0.79,-2.087,12.39,2.66,0.56
20217.0,-9.414,-0.794,-2.458,-9.43,-0.761,-3.051,2.03,5.67,-0.56
,-9.287,-0.861,-2.668,-9.521,-0.567,-3.262,0.91,6.16,-0.56
,-9.237,-0.881,-2.793,-9.438,-0.536,-3.496,0.84,6.93,-0.28
,-9.28,-0.857,-2.86,-9.323,-0.629,-3.692,1.4,7.49,-0.28
20292.0,-9.275,-0.739,-3.917,-9.418,-0.893,-3.221,-3.22,5.11,-1.4
,-9.21,-0.907,-3.857,-9.569,-0.72,-3.266,-1.75,4.83,-1.12
,-9.237,-0.993,-3.644,-9.557,-0.605,-3.329,1.12,4.62,-0.7
,-9.294,-1.015,-3.4,-9.368,-0.749,-3.393,3.99,4.55,-0.28
20368.0,-9.22,-0.916,-3.419,-9.301,-0.768,-3.537,0.91,1.82,-0.42
,-9.277,-1.01,-3.609,-9.284,-0.816,-3.376,2.1,1.26,-0.42
,-9.311,-0.983,-3.577,-9.359,-0.725,-3.453,4.2,0.98,-0.07
,-9.313,-0.962,-3.565,-9.304,-0.713,-3.419,6.16,0.42,0.42
20444.0,-9.153,-0.962,-3.273,-9.572,-0.744,-2.68,4.9,-1.54,0.77
,-9.21,-1.07,-3.025,-9.636,-0.663,-2.742,4.69,-1.61,0.91
,-9.282,-0.991,-2.867,-9.526,-0.687,-2.771,5.46,-1.54,1.12
,-9.342,-0.859,-2.737,-9.332,-0.727,-2.826,6.09,-1.05,1.19
20520.0,-9.332,-0.952,-2.912,-9.32,-0.627,-3.037,1.82,-0.21,0.84
,-9.323,-0.991,-2.855,-9.294,-0.699,-2.931,3.71,0.56,1.26
,-9.488,-0.902,-3.001,-9.337,-0.852,-2.9,5.25,0.91,1.4
,-9.43,-0.821,-3.027,-9.378,-0.838,-2.864,4.55,0.56,1.19
20595.0,-9.512,-0.715,-2.836,-9.397,-0.665,-3.027,0.35,1.19,0.63
,-9.493,-0.715,-2.867,-9.38,-0.715,-2.96,-0.14,1.12,0.49
,-9.426,-0.665,-2.938,-9.454,-0.778,-2.919,-0.63,1.26,0.35
,-9.373,-0.634,-2.934,-9.612,-0.828,-2.979,-0.84,1.54,0.21
20671.0,-9.526,-0.876,-3.144,-9.371,-0.873,-3.23,0.0,1.75,-0.14
,-9.392,-0.931,-3.23,-9.411,-0.723,-3.206,0.63,1.82,0.14
,-9.275,-1.055,-3.262,-9.349,-0.689,-3.087,2.1,1.96,0.42
,-9.308,-1.11,-3.226,-9.395,-0.687,-3.003,4.55,2.03,0.7
20746.0,-9.349,-0.67,-2.96,-9.411,-0.79,-2.912,6.23,1.61,0.84
,-9.457,-0.68,-3.077,-9.428,-0.873,-3.02,5.81,1.61,0.63
,-9.476,-0.723,-2.965,-9.414,-0.768,-3.151,5.04,1.82,0.49
,-9.426,-0.811,-2.881,-9.351,-0.78,-3.051,4.34,1.96,0.49
20822.0,-9.371,-0.845,-3.082,-9.361,-0.828,-3.293,3.22,2.03,0.28
,-9.411,-0.888,-3.063,-9.32,-0.859,-3.13,2.66,1.96,0.21
,-9.457,-0.931,-3.147,-9.287,-0.967,-3.025,2.8,1.82,0.28
,-9.416,-0.873,-3.245,-9.373,-0.964,-2.996,3.08,1.75,0.35
20898.0,-9.478,-0.847,-2.994,-9.385,-0.759,-2.927,2.94,1.33,0.63
,-9.409,-0.83,-2.871,-9.421,-0.73,-2.953,2.31,1.4,0.63
,-9.373,-0.749,-2.893,-9.411,-0.742,-3.037,2.03,1.61,0.63
,-9.414,-0.744,-2.95,-9.404,-0.794,-3.116,2.1,1.82,0.56
20974.0,-9.368,-0.809,-3.025,-9.402,-0.873,-3.135,1.61,2.03,0.14
,-9.375,-0.857,-3.096,-9.411,-0.802,-3.173,1.33,1.96,0.0
,-9.349,-0.993,-3.058,-9.39,-0.715,-3.221,0.91,2.03,0.07
,-9.368,-0.919,-3.034,-9.347,-0.68,-3.118,1.61,2.03,0.14
21049.0,-9.349,-0.73,-3.139,-9.347,-0.866,-3.178,2.38,1.96,0.14
,-9.399,-0.747,-3.106,-9.323,-0.919,-3.051,2.73,1.89,0.0
,-9.445,-0.72,-3.051,-9.335,-0.924,-3.077,2.66,1.75,-0.14
,-9.397,-0.833,-3.19,-9.375,-0.84,-3.101,2.17,1.47,-0.21
21125.0,-9.404,-0.708,-3.034,-9.38,-0.995,-2.991,2.52,1.82,-0.21
,-9.397,-0.696,-2.907,-9.318,-1.031,-2.946,1.96,1.82,-0.42
,-9.423,-0.787,-2.955,-9.359,-0.976,-3.013,0.77,1.75,-0.63
,-9.38,-0.883,-2.998,-9.373,-1.01,-3.128,0.91,1.96,-0.35
21201.0,-9.399,-0.962,-3.23,-9.347,-0.94,-3.369,6.79,2.66,0.63
,-9.383,-0.979,-3.159,-9.296,-0.938,-3.314,7.49,2.94,1.05
,-9.407,-0.931,-3.367,-9.351,-1.007,-3.305,8.33,2.52,0.98
,-9.45,-0.895,-3.408,-9.32,-0.991,-3.307,8.96,2.45,1.19
21277.0,-9.361,-0.878,-3.252,-9.435,-0.759,-3.104,12.74,1.61,2.03
,-9.39,-0.833,-3.187,-9.421,-0.72,-3.094,12.39,1.4,2.03
,-9.421,-0.823,-3.257,-9.452,-0.735,-3.037,11.27,0.84,1.89
,-9.366,-0.79,-3.087,-9.349,-0.842,-2.917,10.36,0.7,1.89
21353.0,-9.399,-0.907,-2.8,-9.373,-0.814,-2.735,1.33,0.0,0.63
,-9.399,-0.945,-2.699,-9.457,-0.873,-2.74,0.56,0.07,0.28
,-9.366,-0.914,-2.539,-9.428,-0.893,-2.73,0.35,0.49,0.28
,-9.445,-0.873,-2.766,-9.32,-0.967,-2.572,-0.91,0.56,0.21
21428.0,-9.43,-0.943,-2.367,-9.658,-1.127,-2.553,-4.69,2.38,0.28
,-9.45,-0.754,-2.333,-9.526,-1.031,-2.797,-6.37,1.96,0.07
,-9.433,-0.785,-2.498,-9.337,-0.876,-2.795,-9.17,1.4,-0.14
,-9.378,-0.931,-2.46,-9.177,-0.871,-2.802,-11.48,1.75,-0.07
21504.0,-9.028,-0.993,-2.678,-9.509,-0.749,-2.694,-12.18,2.38,1.47
,-9.299,-0.974,-2.525,-9.371,-0.816,-2.802,-8.82,5.32,1.82
,-9.409,-0.857,-2.824,-9.725,-0.637,-3.061,-4.69,7.14,1.75
,-9.306,-0.778,-2.685,-9.899,-0.151,-3.702,0.77,10.99,2.94
21579.0,-9.572,0.586,-3.975,-9.22,-0.553,-3.924,8.89,11.55,1.05
,-9.232,0.665,-4.049,-9.11,-0.871,-3.757,2.1,10.43,0.35
,-9.117,0.304,-3.857,-9.098,-0.981,-4.013,-4.55,9.59,-0.49
,-9.261,-0.091,-3.68,-9.105,-1.254,-3.166,-7.84,8.96,-1.33
21655.0,-9.304,-1.304,-3.367,-9.055,-1.541,-3.386,-10.78,6.16,-3.08
,-9.33,-1.424,-3.429,-9.081,-1.249,-3.4,-10.43,5.18,-2.87
,-9.351,-1.637,-3.173,-9.045,-1.35,-3.652,-10.36,4.97,-2.03
,-9.27,-1.711,-3.254,-9.067,-1.596,-3.618,-9.87,4.69,-1.19
21731.0,-8.961,-2.127,-3.635,-9.356,-1.141,-3.01,-7.49,4.27,4.62
,-8.703,-2.618,-3.374,-9.61,-0.526,-3.029,0.0,7.7,7.21
,-8.954,-2.513,-2.414,-9.43,-0.158,-3.058,12.74,11.13,9.59
,-9.387,-1.974,-2.639,-9.263,-0.098,-2.816,23.94,10.5,9.94
21807.0,-9.048,-0.196,-2.879,-8.839,-1.201,-2.711,14.07,9.31,9.1
,-9.148,-0.464,-3.221,-9.402,-1.05,-2.237,9.8,8.75,7.91
,-9.04,-0.684,-3.314,-9.311,-0.323,-3.202,6.93,9.38,8.61
,-9.081,-0.861,-3.111,-9.469,0.323,-3.513,6.79,11.62,9.8
21882.0,-9.447,0.799,-3.802,-9.139,-0.108,-3.52,16.87,9.87,6.72
,-9.325,0.883,-3.616,-9.005,-0.495,-3.573,9.73,10.71,6.16
,-9.351,0.593,-3.281,-8.804,-0.928,-3.604,2.59,11.13,3.71
,-9.251,0.225,-3.41,-8.899,-1.165,-3.214,-2.94,10.29,0.63
21958.0,-9.203,-1.175,-3.285,-8.933,-0.711,-4.03,-8.26,13.86,1.68
,-9.435,-0.981,-3.4,-9.05,-0.859,-3.984,-4.34,12.81,1.33
,-9.387,-0.622,-3.845,-9.081,-1.034,-4.078,-2.31,11.2,1.68
,-9.246,-0.524,-4.128,-9.095,-1.084,-4.149,-2.45,10.64,2.52
22033.0,-8.949,-0.905,-4.312,-9.222,-0.177,-4.003,4.27,9.38,3.5
,-8.909,-0.732,-4.212,-9.493,0.098,-4.046,5.6,9.94,3.92
,-8.966,-0.536,-4.03,-9.268,0.383,-4.384,5.95,10.92,4.34
,-9.1,-0.376,-4.022,-8.94,0.287,-4.302,5.46,11.27,3.92
22109.0,-9.016,0.077,-3.924,-9.117,-1.244,-4.082,-4.2,9.73,-0.49
,-9.122,-0.261,-3.96,-8.921,-1.366,-4.034,-5.18,10.15,-1.54
,-9.411,-0.754,-3.9,-8.875,-1.244,-4.101,-4.83,9.52,-2.1
,-9.316,-1.034,-4.097,-8.911,-0.962,-4.178,-2.8,9.38,-2.03
22185.0,-8.768,-0.782,-4.317,-9.251,0.024,-4.089,12.32,11.06,0.0
,-8.839,-0.483,-4.197,-9.203,-0.031,-4.207,11.9,11.2,0.0
,-8.961,-0.213,-4.219,-9.182,-0.122,-4.3,10.71,10.99,-0.7
,-9.119,-0.057,-4.128,-8.935,-0.172,-4.499,9.03,10.43,-1.96
22261.0,-8.823,-0.313,-4.341,-8.717,-0.775,-4.068,2.73,6.23,-3.71
,-8.825,-0.345,-4.121,-8.617,-1.575,-3.795,5.04,6.51,-4.34
,-8.823,-0.325,-4.113,-8.466,-2.501,-3.731,7.91,6.02,-4.62
,-8.882,-0.385,-3.941,-8.61,-3.25,-3.479,9.03,5.18,-3.92
22337.0,-9.038,-3.527,-3.436,-8.559,0.258,-4.795,6.23,10.01,11.48
,-9.351,-2.869,-3.699,-8.504,0.486,-5.023,14.77,9.73,12.11
,-9.442,-1.761,-3.903,-8.612,0.412,-4.523,22.12,7.91,11.62
,-9.007,-0.687,-4.468,-8.691,0.388,-4.31,23.38,5.81,11.06
22412.0,-8.964,0.012,-3.855,-9.392,1.256,-4.319,-4.69,8.96,8.68
,-9.366,0.103,-3.465,-8.782,0.995,-4.489,-2.1,10.29,6.44
,-9.636,0.426,-3.597,-8.495,0.313,-4.396,1.47,10.43,3.36
,-9.708,0.993,-3.81,-8.447,-0.589,-4.535,4.06,9.94,1.47
22488.0,-8.416,-1.421,-4.582,-9.318,-0.759,-4.02,-4.06,9.59,4.34
,-8.638,-1.811,-4.231,-9.105,-0.069,-4.116,-0.21,11.83,5.11
,-8.988,-1.785,-3.963,-8.971,0.567,-4.401,5.18,12.95,5.18
,-9.229,-1.409,-3.805,-8.854,0.995,-4.98,8.82,12.88,4.48
22564.0,-8.825,0.775,-5.274,-8.947,-1.503,-4.714,-4.55,10.36,-2.66
,-8.672,0.179,-5.164,-8.892,-1.543,-4.549,-8.61,8.96,-3.08
,-8.622,-0.514,-5.03,-9.064,-1.311,-4.463,-10.85,7.98,-2.52
,-8.593,-1.153,-4.925,-9.189,-0.914,-4.417,-9.59,7.91,-1.19
22640.0,-9.036,-0.282,-4.57,-8.502,0.412,-5.525,12.39,8.33,0.77
,-8.942,0.512,-5.252,-8.634,-0.558,-5.193,10.85,7.07,-0.14
,-8.681,0.907,-5.202,-8.894,-1.316,-4.793,6.09,7.14,-0.77
,-8.54,0.9,-5.363,-8.899,-1.78,-4.585,-0.28,6.44,-2.1
22715.0,-9.074,-1.61,-4.47,-8.744,-0.744,-4.456,-5.88,3.99,0.21
,-8.679,-1.496,-4.496,-8.547,-0.483,-4.812,-1.33,3.71,0.28
,-9.009,-1.137,-4.427,-8.473,-0.419,-4.96,1.19,3.92,0.42
,-8.457,-0.835,-4.64,-8.667,-0.512,-4.86,2.38,3.36,0.98
22791.0,-8.815,-0.558,-4.774,-9.148,-0.78,-4.482,-3.01,4.2,2.52
,-8.76,-0.73,-4.669,-9.304,-0.881,-4.657,-2.87,4.55,3.08
,-8.507,-0.639,-4.681,-9.117,-0.933,-4.776,-2.45,4.55,2.87
,-8.689,-0.72,-4.721,-8.911,-0.718,-4.779,-1.96,5.18,2.73
22866.0,-8.959,-0.407,-4.535,-8.588,-0.794,-4.891,3.22,3.5,1.61
,-8.813,-0.38,-4.748,-8.691,-0.916,-4.815,1.4,3.22,1.75
,-8.476,-0.577,-4.807,-8.811,-0.914,-4.838,0.28,3.78,1.96
,-8.387,-0.711,-4.719,-8.832,-0.78,-4.908,-0.07,4.9,2.38
22942.0,-8.727,-0.577,-5.224,-8.878,-0.586,-4.865,3.22,5.95,4.34
,-8.622,-0.546,-5.245,-8.748,-0.62,-4.898,2.87,5.95,4.62
,-8.763,-0.627,-5.078,-8.835,-0.543,-4.793,2.38,6.09,4.9
,-9.019,-0.591,-4.884,-9.05,-0.471,-4.934,2.94,5.81,4.9
23018.0,-9.019,-0.294,-5.056,-8.373,-0.112,-4.934,5.88,5.46,3.5
,-9.005,-0.184,-4.757,-8.581,-0.275,-4.944,4.97,4.97,3.29
,-8.842,0.034,-4.97,-8.629,-0.414,-4.91,3.22,3.78,3.36
,-8.421,-0.081,-5.147,-8.626,-0.187,-4.91,2.03,3.36,2.8
23094.0,-8.715,0.072,-4.874,-8.691,0.065,-4.941,3.5,4.13,2.17
,-9.026,0.189,-4.726,-8.512,0.06,-4.989,2.73,3.43,1.96
,-9.129,0.158,-4.781,-8.61,0.134,-5.054,0.98,2.31,1.61
,-8.856,0.05,-4.774,-8.827,0.074,-5.068,-1.19,1.96,1.54
23169.0,-9.005,-0.031,-5.095,-8.421,-0.854,-5.095,-3.22,1.68,-1.05
,-9.028,-0.191,-5.075,-8.303,-1.072,-5.092,-4.2,1.4,-0.98
,-8.782,-0.51,-4.915,-8.502,-1.005,-5.092,-5.32,0.91,-0.35
,-8.579,-0.711,-4.956,-8.71,-0.995,-5.085,-5.39,0.35,0.7
23245.0,-8.808,-0.931,-5.202,-8.772,-0.687,-5.054,-0.35,-1.26,1.89
,-8.727,-0.888,-5.104,-8.586,-0.505,-5.14,-0.35,-1.75,1.75
,-8.674,-0.849,-5.13,-8.344,-0.39,-5.171,-0.77,-2.17,2.1
,-8.698,-0.79,-5.016,-8.399,-0.483,-5.123,-1.26,-2.1,2.31
23321.0,-8.679,-0.505,-4.893,-8.708,0.163,-5.157,1.26,-3.29,3.78
,-9.069,-0.467,-4.941,-8.586,0.244,-5.042,3.85,-3.85,3.22
,-9.17,-0.235,-5.044,-8.859,0.156,-4.86,6.16,-4.41,2.24
,-8.94,0.007,-5.044,-9.067,0.206,-4.783,7.28,-4.62,0.84
23397.0,-8.952,0.359,-5.054,-8.861,0.045,-4.882,6.3,-8.19,-2.31
,-8.483,0.469,-5.255,-8.835,0.014,-4.949,5.11,-8.4,-3.15
,-8.43,0.438,-5.035,-8.83,-0.069,-4.709,2.66,-7.91,-3.15
,-8.701,0.172,-4.98,-8.782,-0.189,-4.611,0.35,-8.26,-3.78
23473.0,-8.703,-0.34,-4.623,-8.813,-0.797,-4.707,-1.12,-11.83,-6.09
,-8.473,-1.206,-4.405,-8.863,-0.756,-4.738,-4.83,-11.34,-6.79
,-8.686,-1.079,-4.197,-8.844,-0.744,-4.609,-2.17,-11.27,-7.0
,-8.93,-0.974,-4.417,-8.792,-0.658,-4.678,2.24,-12.04,-5.95
23548.0,-8.674,-0.72,-4.664,-8.715,-0.646,-4.453,6.65,-11.76,-3.78
,-8.705,-0.835,-4.561,-8.528,-0.668,-4.48,7.21,-11.34,-3.43
,-9.009,-0.897,-4.202,-8.77,-0.804,-4.42,8.47,-11.62,-2.45
,-8.923,-0.73,-4.346,-8.978,-1.005,-4.424,9.38,-12.81,-1.61
23624.0,-9.095,-1.062,-4.346,-8.954,-0.117,-4.219,14.91,-9.31,0.21
,-9.27,-0.902,-4.185,-8.978,0.041,-4.166,16.03,-10.64,0.42
,-8.945,-0.436,-4.458,-8.787,0.196,-4.128,15.68,-12.88,0.49
,-8.722,-0.208,-4.353,-8.835,0.165,-3.979,14.28,-13.58,0.35
23699.0,-9.016,-0.017,-3.833,-9.069,-0.503,-4.042,-2.03,-17.15,-1.75
,-9.261,-0.22,-3.759,-8.851,-0.608,-4.018,-2.66,-16.66,-2.52
,-9.112,-0.306,-3.888,-8.947,-0.711,-3.881,-1.82,-15.96,-3.29
,-9.072,-0.378,-3.927,-9.146,-0.713,-3.735,-0.14,-14.84,-3.71
23775.0,-9.206,-0.665,-3.917,-9.115,-0.811,-3.513,11.97,-10.71,-3.36
,-9.019,-0.651,-3.781,-9.208,-0.68,-3.731,10.99,-10.99,-3.22
,-8.978,-0.711,-3.795,-9.016,-0.694,-3.771,9.52,-11.13,-2.66
,-8.985,-0.823,-3.843,-9.153,-0.873,-3.716,7.7,-11.69,-2.38
23851.0,-9.105,-1.062,-3.776,-9.038,-0.605,-3.51,2.66,-12.6,-0.35
,-8.935,-1.182,-3.556,-9.072,-0.302,-3.458,4.62,-10.85,0.28
,-9.421,-1.472,-3.106,-9.16,-0.474,-3.264,6.86,-11.55,0.56
,-9.378,-1.046,-3.25,-9.378,-0.57,-3.192,8.33,-15.47,0.49
23927.0,-9.328,-0.428,-3.092,-9.198,-0.359,-3.08,5.88,-14.14,-0.07
,-9.16,-0.316,-3.242,-9.263,-0.345,-3.139,6.51,-13.16,-0.98
,-9.112,-0.29,-3.343,-9.206,-0.421,-3.206,6.65,-12.04,-1.4
,-9.16,-0.323,-3.171,-9.237,-0.438,-3.013,7.07,-10.01,-1.12
24002.0,-9.392,-0.28,-3.199,-9.119,-0.51,-2.773,7.77,-10.57,-1.82
,-9.45,-0.292,-3.542,-9.179,-0.605,-2.465,5.11,-12.53,-2.66
,-9.294,-0.376,-3.417,-9.344,-0.718,-2.429,2.87,-13.09,-3.57
,-9.229,-0.402,-3.211,-9.378,-0.627,-2.144,2.03,-12.18,-3.92
24078.0,-9.478,-0.584,-2.113,-9.208,-1.251,-3.235,-1.05,-5.46,-4.41
,-9.646,-0.73,-2.627,-9.172,-1.381,-3.206,-4.13,-5.25,-4.76
,-9.43,-0.806,-2.592,-9.172,-1.342,-3.345,-6.09,-4.97,-4.62
,-9.335,-0.998,-2.883,-9.416,-1.108,-3.436,-6.44,-4.76,-3.78
24153.0,-9.409,-0.854,-3.376,-9.469,-0.849,-2.848,8.19,-3.57,-1.89
,-9.397,-0.715,-3.053,-9.342,-0.881,-2.395,7.63,-3.36,-1.4
,-9.399,-0.732,-2.632,-9.485,-0.727,-2.455,7.28,-2.31,-0.98
,-9.555,-0.823,-2.816,-9.457,-0.725,-2.556,6.51,-2.87,-1.75
24229.0,-9.574,-0.715,-2.809,-9.15,-1.302,-2.675,1.68,-2.03,-3.22
,-9.567,-0.584,-2.881,-9.371,-1.297,-2.534,-0.56,-2.38,-3.57
,-9.428,-0.725,-2.862,-9.423,-1.043,-2.376,-3.64,-2.31,-3.64
,-9.234,-1.036,-2.924,-9.337,-0.83,-2.077,-5.32,-1.82,-3.57
24305.0,-9.43,-0.797,-1.972,-9.409,-0.785,-2.522,1.75,2.8,-2.03
,-9.646,-0.677,-2.063,-9.378,-1.007,-2.67,0.21,3.22,-2.31
,-9.476,-0.689,-2.101,-9.354,-0.94,-3.068,-1.26,4.06,-2.45
,-9.485,-0.706,-2.302,-9.411,-0.926,-3.271,-2.38,4.62,-2.45
24381.0,-9.354,-0.826,-3.403,-9.378,-1.048,-3.269,-4.27,5.18,-3.08
,-9.335,-0.909,-3.386,-9.301,-1.12,-3.041,-5.67,5.04,-2.87
,-9.27,-1.072,-3.453,-9.38,-1.134,-2.84,-6.02,4.9,-2.8
,-9.261,-1.153,-3.285,-9.433,-1.024,-2.814,-4.2,5.32,-2.52
24457.0,-9.426,-0.972,-2.795,-9.172,-1.254,-2.848,-0.56,6.16,-1.26
,-9.416,-0.972,-2.91,-9.335,-1.165,-2.735,-1.61,6.23,-1.19
,-9.318,-1.048,-2.941,-9.45,-0.976,-2.737,-2.38,6.44,-0.77
,-9.213,-1.237,-2.946,-9.464,-0.866,-2.759,-2.1,6.65,-0.42
24532.0,-9.421,-0.73,-2.915,-9.136,-1.206,-3.484,3.08,9.1,0.7
,-9.39,-0.842,-3.144,-9.179,-1.06,-3.434,1.26,8.89,0.77
,-9.299,-1.015,-3.384,-9.282,-0.852,-3.415,0.7,8.75,0.91
,-9.177,-1.177,-3.479,-9.404,-0.658,-3.419,1.89,9.31,1.4
24608.0,-9.466,-0.711,-3.597,-9.191,-0.89,-3.805,3.78,8.19,1.33
,-9.354,-0.89,-3.582,-9.206,-0.668,-3.795,2.1,7.84,1.4
,-9.21,-1.034,-3.666,-9.239,-0.577,-3.666,1.61,7.56,1.4
,-9.174,-1.084,-3.886,-9.292,-0.608,-3.649,3.08,7.0,1.26
24684.0,-9.261,-0.656,-3.647,-9.124,-0.988,-3.532,-0.91,4.55,-0.28
,-9.246,-0.838,-3.618,-9.17,-0.866,-3.434,-2.73,4.2,-0.63
,-9.222,-0.967,-3.597,-9.251,-0.797,-3.35,-3.29,4.06,-0.63
,-9.146,-1.048,-3.573,-9.313,-0.924,-3.245,-2.38,3.78,-0.56
24760.0,-9.371,-1.029,-3.211,-9.155,-0.986,-3.51,-1.89,3.5,-0.35
,-9.301,-1.086,-3.204,-9.117,-0.893,-3.534,-2.03,3.64,-0.28
,-9.311,-1.12,-3.345,-9.217,-0.847,-3.556,-1.54,3.64,-0.21
,-9.289,-1.07,-3.424,-9.289,-0.833,-3.518,-0.56,3.71,0.0
24835.0,-9.294,-0.871,-3.575,-9.229,-0.888,-3.623,0.91,3.43,0.49
,-9.246,-0.938,-3.647,-9.237,-0.9,-3.573,0.98,3.15,0.42
,-9.179,-0.936,-3.661,-9.289,-0.916,-3.508,1.26,2.66,0.49
,-9.206,-0.924,-3.711,-9.311,-0.955,-3.676,1.4,2.52,0.42
24911.0,-9.258,-0.897,-3.733,-9.246,-0.704,-3.673,1.05,1.54,0.21
,-9.143,-0.775,-3.754,-9.208,-0.873,-3.561,1.54,1.26,0.0
,-9.172,-0.656,-3.759,-9.203,-1.096,-3.472,0.98,0.98,-0.49
,-9.189,-0.62,-3.711,-9.237,-1.098,-3.458,-0.56,0.49,-0.77
24986.0,-9.246,-1.055,-3.446,-9.359,-1.034,-3.398,-0.21,-0.07,-0.7
,-9.17,-0.945,-3.446,-9.426,-1.031,-3.431,0.77,-0.14,-0.35
,-9.155,-0.96,-3.436,-9.313,-0.995,-3.551,1.12,-0.21,-0.21
,-9.294,-1.039,-3.455,-9.287,-0.933,-3.649,1.68,-0.07,0.0
25062.0,-9.251,-0.9,-3.8,-9.167,-0.96,-3.671,6.16,-0.14,0.98
,-9.189,-0.933,-3.841,-9.208,-0.957,-3.563,6.51,-0.42,0.98
,-9.174,-0.957,-3.869,-9.184,-0.873,-3.465,7.0,-0.77,1.33
,-9.17,-0.976,-3.795,-9.206,-0.814,-3.362,8.12,-1.05,1.4
25138.0,-9.237,-0.799,-3.355,-9.387,-1.027,-2.804,9.31,-2.03,1.54
,-9.206,-0.94,-3.206,-9.414,-0.905,-2.915,8.05,-1.89,1.47
,-9.282,-1.043,-3.065,-9.325,-0.804,-2.998,7.7,-1.33,1.54
,-9.261,-1.084,-2.924,-9.316,-0.849,-3.029,7.63,-0.91,1.47
25214.0,-9.294,-0.967,-3.192,-9.263,-0.849,-3.369,1.33,0.7,0.49
,-9.256,-1.048,-3.309,-9.287,-0.823,-3.422,1.19,0.98,0.49
,-9.268,-1.007,-3.343,-9.237,-0.876,-3.556,1.61,0.91,0.42
,-9.249,-0.931,-3.367,-9.215,-0.909,-3.628,2.1,0.98,0.42
25290.0,-9.277,-1.039,-3.632,-9.397,-0.842,-3.321,1.75,0.21,0.42
,-9.292,-1.101,-3.482,-9.375,-0.816,-3.259,3.01,0.28,0.63
,-9.311,-1.046,-3.352,-9.34,-0.95,-3.326,3.92,0.21,0.63
,-9.311,-0.952,-3.312,-9.241,-1.041,-3.24,4.2,0.07,0.63
25365.0,-9.232,-1.127,-3.221,-9.21,-1.031,-3.644,0.77,-0.07,0.56
,-9.306,-1.096,-3.345,-9.22,-1.074,-3.757,2.03,-0.21,0.7
,-9.263,-1.036,-3.47,-9.225,-1.096,-3.752,2.8,-0.63,0.84
,-9.213,-1.034,-3.63,-9.251,-1.022,-3.649,2.73,-0.84,0.98
25441.0,-9.502,-1.244,-3.46,-9.301,-0.995,-2.994,1.12,-3.57,1.12
,-9.349,-1.129,-3.218,-9.246,-1.158,-2.881,-0.49,-4.62,0.84
,-9.414,-0.893,-2.943,-9.182,-1.151,-2.986,-1.4,-5.53,1.33
,-9.34,-0.708,-2.895,-9.222,-1.156,-2.871,-3.78,-6.72,1.4
25517.0,-9.105,-0.969,-2.857,-9.536,-0.926,-3.008,-4.06,-5.88,2.31
,-9.191,-1.005,-2.833,-9.32,-0.804,-3.094,-3.64,-4.41,2.8
,-9.361,-1.036,-2.831,-9.17,-0.766,-3.065,-3.08,-3.08,3.01
,-9.43,-0.964,-2.972,-9.165,-0.835,-2.891,-3.5,-2.52,3.08
25593.0,-9.323,-0.895,-2.85,-9.426,-0.282,-2.831,-7.49,0.14,3.08
,-9.407,-0.811,-2.73,-9.478,-0.476,-2.881,-6.93,1.05,3.01
,-9.526,-0.591,-2.886,-9.433,-0.742,-3.405,-6.58,1.19,2.59
,-9.428,-0.438,-2.785,-9.253,-0.981,-3.542,-7.42,1.75,2.17
25668.0,-9.289,-1.103,-3.759,-9.335,-0.677,-3.285,-6.58,3.15,2.1
,-9.241,-1.062,-3.953,-9.217,-0.696,-2.843,-2.8,2.38,2.45
,-9.06,-0.955,-3.795,-9.21,-0.828,-2.414,0.63,2.03,2.8
,-9.253,-0.842,-3.412,-9.49,-1.015,-2.376,3.64,2.24,3.01
25744.0,-9.655,-1.113,-2.642,-9.127,-1.402,-3.475,3.36,2.94,3.01
,-9.474,-0.993,-3.168,-9.201,-1.314,-2.704,4.83,1.61,3.08
,-9.191,-1.062,-3.503,-9.562,-0.885,-2.694,6.65,2.59,4.13
,-9.002,-1.204,-3.62,-9.239,-0.328,-3.199,9.8,4.83,5.39
25819.0,-9.225,-0.273,-2.977,-9.332,-1.979,-2.529,27.09,6.23,5.46
,-9.316,-0.658,-3.381,-9.16,-1.529,-2.218,22.05,5.81,5.88
,-9.225,-1.371,-3.288,-9.478,-0.646,-2.371,19.88,6.86,6.51
,-9.256,-1.95,-2.692,-9.474,0.084,-2.778,23.87,9.73,7.63
25895.0,-9.552,0.172,-3.23,-9.308,0.105,-3.319,31.71,10.78,5.53
,-9.665,0.16,-3.544,-9.081,0.187,-3.546,22.4,10.08,5.04
,-9.423,0.11,-3.699,-9.17,0.124,-3.525,15.12,10.36,4.06
,-9.289,0.05,-3.534,-9.198,0.055,-3.247,11.27,11.41,2.38
25971.0,-9.399,0.034,-3.147,-9.306,-0.33,-3.939,-5.46,8.68,-3.5
,-9.261,-0.218,-3.329,-9.021,-0.972,-3.79,-9.59,8.05,-5.39
,-9.428,-0.378,-3.195,-8.83,-1.625,-3.25,-10.08,7.14,-6.37
,-9.514,-0.285,-3.673,-8.677,-1.881,-3.008,-10.22,5.46,-6.51
26047.0,-9.237,-1.732,-3.001,-8.614,-1.627,-3.34,-0.91,12.04,-4.41
,-9.497,-1.457,-3.549,-8.928,-1.807,-2.867,3.71,9.8,-4.06
,-9.368,-1.338,-3.652,-9.28,-1.661,-3.104,5.04,8.4,-2.59
,-9.031,-1.309,-3.652,-9.464,-1.354,-3.307,3.43,8.61,-0.84
26122.0,-9.313,-0.933,-3.745,-9.308,-1.271,-3.649,7.7,9.38,2.52
,-8.851,-0.723,-3.932,-9.414,-1.283,-3.606,4.48,10.01,4.06
,-8.648,-0.919,-3.606,-9.33,-1.067,-3.757,1.19,12.67,4.41
,-8.954,-1.144,-3.384,-9.119,-0.869,-3.908,1.12,14.42,4.06
26198.0,-8.849,-0.658,-3.793,-9.538,-0.115,-4.195,6.3,12.53,4.62
,-8.868,-0.44,-3.788,-9.115,-0.395,-4.202,7.35,13.51,3.57
,-9.203,-0.136,-3.81,-8.88,-0.727,-4.106,8.05,13.16,2.24
,-9.375,-0.007,-3.936,-8.904,-0.888,-3.972,7.0,11.9,1.05
26274.0,-9.05,-0.847,-3.979,-8.959,-0.239,-3.668,1.4,11.76,-1.4
,-9.131,-0.622,-4.061,-9.263,-0.12,-3.556,5.04,11.76,-2.38
,-8.976,-0.357,-4.111,-9.418,0.084,-3.64,6.23,11.83,-2.59
,-8.875,-0.246,-3.91,-9.289,0.51,-4.197,4.83,12.95,-2.66
26350.0,-9.005,0.517,-4.314,-8.787,-1.536,-3.687,-2.8,8.33,-8.12
,-8.83,0.251,-4.161,-8.99,-1.998,-4.042,-6.02,9.73,-8.75
,-8.737,-0.249,-3.81,-8.911,-2.474,-4.341,-9.17,11.34,-9.52
,-8.725,-0.972,-3.635,-8.722,-2.929,-4.444,-10.71,12.39,-9.45
26426.0,-8.674,-3.293,-4.286,-8.741,-2.051,-4.209,0.28,13.23,-0.56
,-8.713,-3.391,-4.3,-8.536,-1.46,-4.427,4.83,13.79,1.33
,-8.902,-3.144,-4.14,-8.796,-1.263,-4.556,10.22,13.51,3.29
,-8.768,-2.632,-4.293,-8.844,-1.318,-4.53,12.74,12.46,5.11
26501.0,-9.002,-1.302,-4.771,-8.581,-0.754,-4.666,0.07,10.85,10.78
,-8.983,-1.106,-4.963,-8.835,-0.718,-4.381,0.7,10.57,10.78
,-8.782,-0.974,-4.853,-9.203,-0.414,-4.25,2.38,10.85,10.99
,-8.674,-0.838,-4.695,-9.246,-0.074,-4.204,3.85,11.27,11.55
26577.0,-9.203,0.223,-4.168,-8.799,0.105,-5.087,13.3,9.17,8.54
,-9.21,0.526,-4.381,-8.186,-0.684,-5.231,11.2,8.54,7.35
,-9.131,0.572,-4.573,-7.777,-1.778,-5.025,7.56,7.84,5.88
,-8.99,0.51,-4.893,-8.26,-2.728,-4.508,3.22,7.28,4.48
26652.0,-8.832,-3.24,-4.41,-8.981,-0.574,-4.633,-1.82,9.03,13.23
,-9.387,-3.159,-4.149,-8.705,0.156,-4.946,6.86,9.1,13.93
,-9.474,-2.51,-4.192,-8.564,0.311,-4.805,15.19,7.84,13.79
,-9.167,-1.622,-4.331,-8.737,0.168,-4.87,20.23,7.07,13.37
26728.0,-8.581,-0.165,-4.752,-8.756,-0.974,-4.322,-2.31,4.2,13.23
,-8.318,-0.395,-4.903,-9.16,-0.617,-4.046,-4.41,3.57,14.0
,-8.354,-0.677,-4.726,-9.277,0.034,-4.121,-4.2,3.29,14.42
,-8.39,-0.921,-4.724,-9.349,0.67,-4.161,-1.89,4.62,14.63
26804.0,-9.27,1.024,-4.008,-8.536,0.708,-4.563,11.76,6.72,7.42
,-9.466,1.273,-3.915,-8.516,0.421,-4.57,7.63,5.81,5.95
,-9.081,1.295,-4.322,-8.617,0.292,-4.508,1.75,5.04,3.85
,-8.684,1.103,-4.554,-8.83,0.306,-4.298,-3.64,5.6,1.33
26880.0,-8.914,0.282,-4.298,-8.409,-0.641,-4.798,-4.62,7.21,-4.41
,-8.808,0.127,-4.458,-8.476,-1.268,-4.8,-5.95,7.21,-5.39
,-8.643,-0.089,-4.484,-8.698,-1.539,-4.944,-6.16,7.84,-6.3
,-8.617,-0.191,-4.757,-8.77,-1.35,-4.98,-5.32,7.77,-7.0
26955.0,-8.722,-1.29,-5.106,-8.693,-1.122,-4.855,3.08,7.56,0.0
,-8.6,-1.431,-5.138,-8.54,-0.763,-5.238,2.8,7.28,0.91
,-8.449,-1.536,-5.102,-8.727,-0.543,-5.422,3.01,7.49,1.26
,-8.375,-1.402,-4.834,-8.605,-0.682,-5.305,3.92,8.12,2.1
27031.0,-8.626,-0.926,-5.307,-8.763,-0.546,-5.169,2.87,6.09,4.06
,-8.921,-0.878,-5.197,-8.325,-0.708,-5.157,4.27,5.88,4.41
,-8.966,-0.909,-5.075,-8.416,-0.751,-5.085,5.67,5.6,4.41
,-8.985,-0.589,-5.111,-8.928,-0.73,-5.171,6.79,4.48,4.69
27107.0,-9.134,-0.665,-5.164,-8.514,-0.711,-5.049,3.85,4.34,6.02
,-9.184,-0.522,-5.36,-8.363,-0.541,-5.183,3.64,3.01,5.18
,-8.837,-0.687,-5.353,-8.571,-0.419,-5.188,3.15,2.31,4.48
,-8.66,-0.816,-5.051,-8.83,-0.237,-5.3,2.94,2.38,4.76
27183.0,-9.007,-0.208,-5.205,-8.404,-0.297,-5.095,4.13,3.43,3.78
,-8.823,-0.275,-5.111,-8.564,-0.294,-5.142,2.59,2.87,3.71
,-8.636,-0.357,-4.884,-8.897,-0.273,-5.051,1.61,3.15,4.34
,-8.564,-0.34,-4.944,-8.885,-0.424,-4.934,1.19,2.87,5.32
27259.0,-8.796,-0.187,-4.996,-9.081,0.067,-5.138,-1.89,2.45,2.8
,-8.775,0.199,-5.145,-8.873,0.0,-5.016,-1.26,2.03,1.61
,-8.794,0.337,-5.358,-8.626,0.105,-5.044,-2.45,1.61,0.49
,-8.878,0.254,-5.197,-8.504,0.134,-5.255,-5.11,1.4,-0.28
27334.0,-8.495,0.034,-5.195,-8.916,-0.179,-5.051,-6.65,-1.47,-1.05
,-8.684,0.089,-5.377,-8.626,-0.426,-4.96,-6.09,-1.89,-1.54
,-8.897,0.065,-5.391,-8.366,-0.672,-5.001,-5.88,-2.45,-2.66
,-9.143,-0.129,-4.877,-8.469,-0.823,-5.066,-6.93,-2.8,-3.15
27410.0,-8.459,-0.84,-5.159,-8.93,-0.615,-4.934,-7.77,-4.2,-3.01
,-8.507,-0.792,-5.171,-9.019,-0.498,-4.927,-6.02,-3.92,-2.94
,-8.634,-0.794,-5.087,-8.681,-0.404,-5.154,-4.69,-3.5,-2.94
,-8.753,-0.761,-5.123,-8.342,-0.495,-5.188,-2.87,-3.08,-3.15
27486.0,-8.323,-0.696,-4.98,-8.808,-0.436,-5.027,-3.01,-5.81,-2.66
,-8.552,-0.751,-4.958,-8.437,-0.57,-5.008,-0.14,-5.67,-3.5
,-8.947,-0.675,-4.91,-8.48,-0.696,-4.941,3.43,-5.6,-3.71
,-9.048,-0.514,-4.862,-8.586,-0.684,-5.09,6.23,-5.74,-3.01
27562.0,-8.677,-0.696,-5.097,-8.641,-0.627,-4.893,12.74,-4.62,-1.89
,-8.866,-0.768,-4.86,-8.622,-0.637,-4.915,14.28,-4.76,-2.45
,-8.844,-0.739,-5.016,-8.804,-0.694,-4.905,15.26,-4.48,-2.52
,-8.782,-0.66,-5.025,-8.871,-0.778,-4.815,15.47,-3.92,-1.19
27637.0,-8.856,-0.601,-4.901,-8.476,-0.854,-4.59,16.8,-6.3,1.26
,-8.758,-0.663,-4.836,-8.638,-0.677,-4.683,16.66,-6.65,1.61
,-8.811,-0.579,-4.704,-8.808,-0.514,-4.652,18.27,-6.65,1.96
,-8.49,-1.378,-4.477,-8.938,-0.543,-4.63,17.71,-6.65,1.68
27713.0,-9.031,-0.455,-4.561,-8.801,-0.06,-4.204,17.01,-11.55,5.04
,-9.045,-0.263,-4.429,-8.952,-0.108,-4.109,15.4,-11.9,4.69
,-8.875,-0.156,-4.436,-9.06,-0.043,-4.14,13.16,-12.18,4.62
,-8.715,-0.103,-4.319,-9.119,0.069,-4.293,11.13,-12.25,4.9
27788.0,-8.976,0.215,-4.508,-8.945,0.622,-4.357,7.7,-15.33,2.03
,-8.89,0.294,-4.518,-8.921,0.644,-4.123,7.7,-15.68,1.26
,-8.82,0.34,-4.525,-8.878,0.414,-4.044,7.35,-15.82,-0.07
,-9.055,0.457,-4.41,-8.952,0.017,-3.912,5.88,-16.66,-1.82
27864.0,-9.105,-0.376,-3.948,-9.088,-1.292,-3.8,-7.91,-17.57,-8.26
,-9.04,-0.818,-3.738,-9.057,-1.388,-3.936,-8.47,-16.66,-7.7
,-9.007,-1.225,-3.683,-8.899,-1.366,-3.953,-6.3,-15.96,-7.07
,-8.988,-1.249,-3.795,-8.746,-1.598,-4.058,-3.22,-16.03,-7.14
27940.0,-8.569,-1.96,-3.577,-9.11,-1.307,-3.482,1.19,-14.28,-1.75
,-8.777,-2.094,-3.276,-9.088,-0.852,-3.64,4.62,-12.81,0.28
,-8.976,-1.981,-3.259,-8.981,-0.584,-3.814,9.03,-12.25,2.1
,-9.16,-1.709,-3.494,-9.026,-0.39,-3.685,12.11,-12.95,3.57
28016.0,-9.165,-0.156,-3.408,-9.244,0.101,-3.527,16.1,-11.83,5.04
,-9.179,0.069,-3.228,-9.277,-0.148,-3.429,14.91,-11.9,4.13
,-9.165,0.237,-3.403,-9.256,-0.493,-3.199,12.32,-12.74,2.73
,-9.258,0.203,-3.628,-9.359,-0.543,-3.108,8.4,-13.79,1.61
28091.0,-9.335,-0.424,-3.542,-9.191,-0.861,-3.958,3.71,-12.25,-2.59
,-9.206,-0.168,-3.661,-9.165,-1.117,-3.652,2.59,-13.09,-2.73
,-9.22,-0.268,-3.967,-9.11,-1.158,-3.293,-1.05,-14.0,-2.8
,-9.17,-0.488,-4.056,-9.124,-1.012,-2.903,-3.36,-14.07,-2.73
28167.0,-9.28,-0.878,-2.462,-9.256,-0.572,-2.869,7.63,-10.78,-2.17
,-9.576,-0.677,-2.345,-9.21,-0.658,-2.886,7.0,-10.71,-2.03
,-9.655,-0.546,-2.426,-9.22,-0.794,-2.883,4.06,-10.99,-2.1
,-9.555,-0.471,-2.917,-9.191,-0.749,-2.63,0.0,-11.62,-2.17
28243.0,-9.263,-0.541,-2.364,-9.457,-0.189,-2.52,4.06,-6.65,-2.59
,-9.356,-0.378,-2.233,-9.392,-0.302,-2.656,3.85,-6.23,-2.45
,-9.474,-0.158,-2.268,-9.301,-0.565,-2.651,3.01,-6.02,-2.66
,-9.517,-0.17,-2.347,-9.366,-0.936,-2.632,0.7,-6.02,-3.36
28319.0,-9.395,-0.957,-2.651,-9.34,-1.041,-2.809,-4.97,-3.08,-5.04
,-9.38,-0.921,-3.056,-9.418,-0.952,-2.769,-6.16,-3.29,-5.46
,-9.392,-0.981,-2.962,-9.418,-0.852,-2.996,-6.79,-2.94,-4.83
,-9.347,-1.029,-2.816,-9.335,-0.792,-2.886,-7.0,-2.31,-4.27
28395.0,-9.304,-0.881,-2.802,-9.507,-0.818,-3.029,-5.81,-0.28,-3.08
,-9.371,-0.924,-2.757,-9.5,-0.653,-3.391,-4.69,0.14,-3.01
,-9.476,-0.991,-2.718,-9.418,-0.629,-3.656,-3.36,0.42,-3.01
,-9.591,-0.881,-2.934,-9.356,-0.72,-3.951,-2.03,0.56,-2.66
28470.0,-9.165,-0.838,-3.994,-9.543,-0.84,-3.324,-3.5,-2.17,-2.94
,-9.189,-0.948,-3.888,-9.567,-0.713,-3.233,-1.4,-2.38,-2.45
,-9.316,-1.022,-3.716,-9.538,-0.663,-3.309,0.42,-3.01,-2.59
,-9.442,-0.955,-3.326,-9.332,-0.797,-3.135,3.01,-2.94,-2.1
28546.0,-9.143,-0.962,-2.883,-9.423,-0.871,-2.201,0.98,-5.18,-2.38
,-9.287,-0.967,-2.821,-9.474,-0.9,-2.302,2.94,-4.83,-2.45
,-9.462,-0.919,-2.666,-9.562,-0.852,-2.529,3.78,-4.69,-2.52
,-9.485,-0.847,-2.46,-9.464,-0.766,-2.749,3.71,-4.48,-2.38
28621.0,-9.332,-0.835,-2.943,-9.509,-0.905,-2.491,0.28,-2.8,-2.45
,-9.241,-1.015,-2.809,-9.464,-0.943,-2.338,1.4,-2.31,-2.1
,-9.191,-1.079,-2.711,-9.337,-1.082,-2.137,3.78,-1.68,-1.75
,-9.361,-1.022,-2.501,-9.284,-1.242,-1.938,5.95,-1.05,-1.33
28697.0,-9.426,-1.283,-1.735,-9.519,-0.931,-2.168,5.11,3.08,0.07
,-9.608,-1.077,-1.857,-9.552,-0.993,-2.469,6.02,4.06,0.0
,-9.658,-0.902,-1.922,-9.526,-0.993,-2.67,5.46,4.9,0.07
,-9.631,-0.814,-2.134,-9.485,-0.857,-2.953,4.27,5.46,0.14
28773.0,-9.49,-0.806,-3.278,-9.289,-0.89,-3.673,6.86,7.56,0.14
,-9.385,-0.823,-3.482,-9.38,-0.89,-3.585,6.79,7.28,0.21
,-9.299,-0.857,-3.644,-9.407,-0.9,-3.482,6.51,7.0,0.21
,-9.229,-0.914,-3.711,-9.464,-0.933,-3.415,6.44,6.37,0.28
28849.0,-9.411,-0.972,-3.317,-9.407,-0.96,-3.013,2.17,3.22,-0.35
,-9.378,-0.972,-3.197,-9.371,-0.936,-2.982,1.4,2.87,-0.49
,-9.375,-1.01,-3.022,-9.385,-0.916,-3.003,1.26,2.87,-0.49
,-9.435,-0.974,-3.058,-9.395,-0.878,-3.13,1.19,2.8,-0.63
28924.0,-9.306,-0.876,-3.12,-9.457,-1.101,-2.694,-3.57,1.47,-1.12
,-9.246,-0.998,-3.089,-9.464,-0.957,-2.769,-4.27,1.75,-0.84
,-9.28,-1.132,-2.934,-9.435,-0.995,-2.883,-3.78,2.03,-0.7
,-9.39,-1.175,-2.812,-9.43,-1.079,-2.895,-2.17,2.38,-0.49
29000.0,-9.34,-1.146,-2.97,-9.409,-0.835,-3.173,0.84,3.22,0.77
,-9.421,-1.106,-3.013,-9.392,-0.818,-3.226,2.66,3.36,0.91
,-9.438,-1.046,-3.18,-9.421,-0.895,-3.29,3.92,3.43,1.05
,-9.423,-0.897,-3.104,-9.366,-0.957,-3.357,4.69,3.57,1.12
29075.0,-9.244,-0.981,-3.391,-9.43,-0.914,-3.092,5.6,2.24,1.26
,-9.232,-0.967,-3.355,-9.402,-0.96,-2.996,6.23,1.96,1.33
,-9.392,-0.95,-3.271,-9.418,-1.012,-2.991,6.44,1.68,1.12
,-9.399,-0.861,-3.171,-9.459,-0.967,-3.034,5.46,1.54,1.05
29151.0,-9.426,-1.005,-2.994,-9.404,-0.888,-3.156,1.05,0.98,0.56
,-9.397,-1.06,-3.017,-9.337,-0.986,-3.209,1.68,1.12,0.7
,-9.387,-1.06,-3.034,-9.299,-0.962,-3.154,2.66,1.05,0.77
,-9.351,-0.993,-3.034,-9.325,-1.036,-3.137,3.64,1.19,0.91
29227.0,-9.318,-1.019,-3.132,-9.45,-0.972,-2.927,3.5,0.7,1.19
,-9.373,-0.983,-3.072,-9.435,-0.916,-2.891,4.2,0.7,1.4
,-9.351,-0.995,-3.01,-9.438,-1.015,-2.804,4.69,0.7,1.4
,-9.438,-1.007,-2.9,-9.433,-1.041,-2.804,5.04,0.7,1.4
29303.0,-9.442,-1.034,-2.931,-9.426,-0.804,-3.104,4.06,1.47,1.33
,-9.328,-0.89,-2.986,-9.347,-0.816,-3.12,4.13,1.61,1.54
,-9.361,-0.9,-2.998,-9.335,-0.828,-3.094,3.29,1.54,1.33
,-9.368,-0.845,-3.01,-9.356,-0.883,-3.037,2.66,1.68,1.26
29379.0,-9.371,-1.019,-3.099,-9.378,-0.948,-3.032,1.33,1.19,0.98
,-9.375,-1.0,-3.089,-9.421,-0.883,-3.025,1.89,1.26,1.05
,-9.385,-0.976,-3.104,-9.452,-0.893,-2.953,2.17,1.26,1.19
,-9.385,-0.952,-3.101,-9.478,-0.948,-2.982,2.03,1.12,1.12
29454.0,-9.407,-0.986,-2.989,-9.373,-0.969,-3.245,0.0,0.98,0.77
,-9.404,-1.015,-3.015,-9.328,-0.878,-3.257,0.14,1.12,0.91
,-9.445,-1.022,-3.113,-9.347,-0.857,-3.262,0.77,1.12,0.91
,-9.44,-1.058,-3.211,-9.383,-0.811,-3.309,1.05,0.84,1.05
29530.0,-9.402,-0.852,-3.283,-9.373,-0.948,-3.013,0.28,-0.21,0.77
,-9.373,-0.881,-3.166,-9.371,-1.041,-3.034,0.21,-0.42,0.7
,-9.438,-0.95,-3.094,-9.435,-1.024,-2.891,0.42,-0.56,0.7
,-9.433,-0.969,-3.001,-9.426,-1.022,-2.962,0.91,-0.77,0.7
29606.0,-9.404,-0.995,-2.891,-9.363,-0.893,-2.883,1.12,-0.91,0.84
,-9.356,-0.957,-2.927,-9.418,-0.895,-2.919,0.91,-0.84,0.84
,-9.359,-0.924,-2.965,-9.404,-0.864,-2.797,0.91,-0.77,0.91
,-9.392,-0.955,-2.864,-9.392,-0.84,-2.79,0.84,-0.49,0.98
29682.0,-9.418,-0.854,-2.838,-9.426,-0.873,-2.663,0.98,0.35,0.91
,-9.404,-0.883,-2.8,-9.416,-0.859,-2.67,0.84,0.35,0.84
,-9.442,-0.852,-2.764,-9.452,-0.835,-2.814,0.7,0.56,0.91
,-9.485,-0.838,-2.656,-9.505,-0.768,-2.891,0.35,0.77,0.84
29757.0,-9.49,-0.711,-3.025,-9.543,-0.871,-3.379,-0.77,1.26,0.28
,-9.485,-0.754,-3.113,-9.478,-0.771,-3.472,-2.17,0.7,-0.21
,-9.368,-0.802,-3.151,-9.349,-0.713,-3.446,-2.8,0.63,-0.28
,-9.474,-0.787,-3.25,-9.347,-0.885,-3.364,-3.15,0.28,-0.49
29833.0,-9.351,-1.062,-3.302,-9.639,-1.022,-2.8,-9.24,-4.13,-0.98
,-9.32,-1.036,-3.206,-9.509,-0.854,-2.814,-8.12,-4.69,-0.77
,-9.368,-0.983,-3.096,-9.404,-0.869,-2.67,-7.0,-4.48,-0.42
,-9.514,-1.103,-2.864,-9.402,-0.964,-2.539,-6.16,-4.48,-0.28
29908.0,-9.428,-0.948,-2.345,-9.622,-0.84,-2.034,-7.49,-3.99,-0.28
,-9.452,-0.95,-2.307,-9.586,-0.905,-2.103,-7.63,-2.94,-0.14
,-9.402,-1.003,-2.008,-9.454,-0.921,-2.357,-7.98,-1.75,0.21
,-9.538,-0.919,-1.871,-9.265,-0.998,-2.443,-8.61,-1.12,0.42
29984.0,-9.148,-1.251,-2.182,-9.608,-1.208,-2.761,-10.29,4.06,1.82
,-9.256,-1.314,-2.089,-9.251,-1.357,-2.91,-6.09,6.58,2.8
,-9.435,-1.256,-2.185,-9.229,-1.464,-2.922,-0.98,8.89,3.71
,-9.536,-1.182,-2.335,-9.191,-1.467,-3.106,3.01,10.01,4.34
30060.0,-9.198,-1.374,-2.747,-9.261,-0.555,-3.47,21.63,16.38,9.8
,-9.727,-1.127,-3.147,-9.445,-0.715,-3.573,23.94,14.56,10.29
,-9.385,-0.718,-3.534,-9.335,-0.849,-3.345,22.05,11.41,10.01
,-9.328,-0.464,-3.778,-9.517,-0.562,-2.855,18.83,9.8,9.94
30136.0,-9.459,-0.115,-3.204,-9.177,-0.598,-1.51,19.46,10.08,6.65
,-9.323,0.053,-3.099,-9.737,-0.536,-1.852,15.96,9.24,5.39
,-9.385,0.038,-2.544,-9.392,-0.407,-2.553,11.2,9.52,5.11
,-9.265,-0.27,-2.429,-9.438,-0.433,-2.824,5.53,10.57,4.06
30211.0,-8.966,-0.749,-3.25,-9.552,-0.488,-3.484,-9.24,10.43,3.29
,-8.698,-1.383,-2.558,-9.677,0.055,-3.798,-7.0,15.47,4.62
,-9.086,-1.642,-2.283,-9.509,0.144,-3.872,1.54,18.69,4.41
,-9.32,-1.144,-2.623,-9.093,-0.328,-3.393,11.97,18.13,3.01
30287.0,-9.031,-0.67,-3.329,-8.885,-1.065,-3.381,4.76,16.94,1.26
,-9.036,-0.792,-3.132,-8.933,-1.199,-2.936,7.0,17.08,0.21
,-9.337,-0.802,-3.604,-9.383,-1.067,-3.271,7.21,15.61,0.35
,-9.021,-0.859,-3.654,-9.325,-0.893,-3.604,5.46,15.47,1.33
30363.0,-9.612,-0.641,-4.054,-9.043,-0.629,-3.223,11.9,14.63,2.03
,-9.237,-0.522,-4.29,-9.294,-0.347,-3.532,9.52,14.49,3.15
,-8.847,-0.637,-3.893,-9.256,-0.347,-3.771,7.84,16.8,3.36
,-8.806,-0.754,-3.51,-9.225,-0.701,-3.783,8.12,18.2,2.03
30439.0,-9.093,-1.254,-3.52,-9.031,-1.706,-3.357,-5.95,14.91,3.5
,-9.005,-1.771,-3.419,-8.938,-1.187,-3.81,-6.86,16.38,3.99
,-9.048,-2.034,-3.403,-9.05,-0.773,-4.212,-3.78,17.01,4.06
,-8.995,-2.091,-3.381,-9.27,-0.345,-4.298,1.05,16.73,4.48
30515.0,-9.361,0.232,-4.499,-8.603,0.194,-4.496,12.46,15.19,5.95
,-9.155,0.84,-4.872,-8.847,-0.447,-3.951,11.2,13.44,3.92
,-8.981,1.034,-4.951,-9.256,-0.773,-3.891,7.56,12.32,1.82
,-8.734,0.792,-4.726,-9.66,-0.725,-4.226,2.24,12.6,0.91
30590.0,-9.658,-0.433,-4.587,-8.701,0.213,-4.054,5.67,9.31,-1.4
,-9.141,-0.215,-4.69,-9.112,0.268,-4.161,6.79,8.47,-2.45
,-8.564,0.024,-4.489,-9.316,0.306,-4.228,6.02,9.94,-3.43
,-8.375,0.096,-4.152,-9.129,0.235,-4.317,4.62,11.55,-4.34
30666.0,-8.784,-0.275,-4.106,-9.179,-1.07,-3.905,-14.07,8.54,-7.63
,-8.823,-0.749,-3.762,-8.815,-1.036,-4.271,-15.19,9.94,-8.05
,-8.959,-1.024,-3.635,-8.708,-1.077,-4.326,-12.74,10.57,-8.54
,-9.139,-1.036,-3.702,-8.65,-1.223,-4.398,-8.82,9.87,-8.75
30741.0,-8.387,-1.517,-4.341,-8.949,-1.565,-4.48,-3.99,11.97,-5.32
,-8.404,-1.768,-3.996,-8.54,-1.577,-4.8,-2.66,13.16,-3.85
,-8.667,-1.859,-4.089,-8.466,-1.73,-4.618,-1.4,12.88,-2.38
,-8.918,-1.747,-4.216,-8.605,-1.9,-4.501,-0.63,12.53,-0.91
30817.0,-8.887,-1.802,-4.334,-8.679,-0.06,-4.645,-1.96,12.39,7.35
,-9.153,-1.345,-4.257,-8.794,0.242,-4.649,0.14,11.27,8.4
,-8.952,-0.814,-4.556,-8.935,0.39,-4.733,0.84,10.43,8.4
,-8.765,-0.404,-4.621,-9.021,0.385,-5.025,0.21,10.57,7.91
30893.0,-8.938,0.012,-5.116,-8.827,-1.898,-4.779,-4.34,9.94,2.8
,-8.832,-0.598,-5.26,-8.667,-1.931,-4.953,-5.46,9.17,2.59
,-8.579,-1.247,-5.016,-8.461,-1.754,-4.889,-3.57,9.45,2.52
,-8.696,-1.563,-5.011,-8.559,-1.436,-4.685,0.49,8.96,3.36
30969.0,-8.916,-1.079,-4.666,-8.763,0.129,-4.987,11.41,8.82,8.4
,-9.213,-0.567,-4.776,-8.437,0.005,-5.042,12.11,8.47,7.07
,-9.213,-0.11,-5.037,-8.196,-0.321,-4.92,11.69,7.7,5.04
,-9.036,0.117,-5.063,-8.454,-0.648,-4.908,9.24,7.0,3.22
31044.0,-8.811,-0.928,-4.836,-8.945,-0.462,-5.092,1.61,4.13,6.65
,-9.048,-1.031,-4.783,-8.423,-0.182,-5.264,5.32,3.92,6.23
,-9.105,-0.974,-4.709,-8.05,-0.29,-5.274,9.03,3.5,5.95
,-9.067,-0.713,-4.882,-8.193,-0.589,-5.02,11.9,3.01,5.67
31120.0,-8.619,-0.605,-4.903,-8.552,-0.869,-4.393,2.66,0.77,5.18
,-8.849,-0.713,-4.807,-9.064,-0.83,-4.231,1.33,0.21,5.81
,-8.701,-0.799,-4.611,-9.127,-0.519,-4.001,0.0,-0.14,6.02
,-8.631,-0.914,-4.69,-9.016,-0.026,-4.338,-0.28,0.14,5.18
31195.0,-8.679,0.364,-4.587,-8.827,-0.246,-4.341,3.64,1.68,3.71
,-8.504,0.38,-4.482,-8.868,-0.481,-4.501,1.68,2.73,3.22
,-8.536,0.378,-4.896,-8.811,-0.826,-4.618,0.21,3.15,2.31
,-8.581,0.146,-4.98,-9.072,-1.024,-4.417,-0.77,3.64,1.47
31271.0,-8.83,-0.802,-4.604,-8.696,0.129,-5.363,2.94,2.59,3.99
,-8.564,-0.445,-4.893,-8.579,-0.352,-5.296,3.92,3.85,3.29
,-8.734,-0.136,-4.874,-8.677,-0.759,-5.185,4.27,4.41,2.24
,-8.708,0.235,-5.415,-8.581,-1.29,-5.224,3.29,3.64,0.91
31347.0,-8.655,-1.761,-5.2,-8.686,-1.4,-4.702,-2.17,1.33,4.34
,-8.911,-1.91,-4.968,-8.471,-0.838,-4.915,1.26,1.19,5.81
,-8.83,-1.692,-4.932,-8.636,-0.392,-5.068,3.15,0.91,7.42
,-8.806,-1.555,-4.542,-8.83,0.062,-5.03,4.76,1.26,8.54
31423.0,-9.064,0.665,-5.176,-8.969,0.124,-4.913,7.49,2.03,6.37
,-9.124,1.05,-5.188,-9.014,-0.184,-4.908,6.09,1.54,3.92
,-8.942,0.751,-5.078,-9.026,-0.273,-4.795,2.8,0.91,1.96
,-8.772,0.397,-4.934,-8.83,-0.519,-4.743,1.12,1.12,0.98
31499.0,-8.61,-0.768,-4.807,-8.856,-1.086,-4.913,0.84,1.68,-0.14
,-8.5,-1.005,-5.016,-8.835,-0.67,-4.893,0.21,2.1,0.84
,-8.629,-1.125,-4.836,-8.861,-0.409,-4.836,0.63,2.38,2.1
,-8.796,-1.201,-4.908,-8.722,-0.134,-4.812,0.07,2.31,3.01
31574.0,-8.641,0.081,-4.96,-9.182,0.299,-4.831,-6.3,1.19,2.87
,-8.641,0.263,-5.075,-9.201,0.172,-4.786,-7.49,0.84,2.17
,-8.717,0.349,-5.006,-9.009,0.108,-4.867,-7.84,1.19,1.19
,-9.019,0.369,-4.927,-8.638,-0.029,-4.757,-8.05,0.91,-0.28
31650.0,-8.509,-0.086,-4.81,-8.581,-0.471,-5.09,-8.05,-0.98,-2.52
,-8.502,-0.239,-4.984,-8.722,-0.742,-5.126,-8.75,-0.98,-2.24
,-8.902,-0.218,-5.154,-8.854,-1.024,-4.879,-8.4,-1.19,-1.4
,-8.808,-0.357,-5.418,-9.06,-1.153,-4.929,-8.4,-1.82,-1.05
31726.0,-8.957,-0.893,-5.197,-8.445,-0.646,-5.403,-10.36,-4.69,-0.98
,-8.859,-0.572,-5.025,-8.686,-0.627,-5.248,-10.5,-4.83,0.28
,-8.54,-0.486,-5.095,-8.758,-0.653,-5.197,-11.76,-5.6,0.56
,-8.437,-0.493,-5.035,-8.772,-0.491,-5.109,-12.11,-6.3,0.77
31802.0,-8.748,-0.404,-5.016,-8.612,-0.077,-4.547,-2.17,-8.68,-0.56
,-8.737,-0.424,-4.819,-8.746,-0.17,-4.369,0.42,-8.47,-1.19
,-9.052,-0.337,-4.52,-9.107,-0.019,-4.547,2.8,-9.8,-0.7
,-8.765,-0.182,-4.755,-8.871,0.048,-4.59,4.62,-10.78,-0.07
31877.0,-8.607,-0.014,-4.59,-8.99,-0.187,-4.2,8.89,-11.06,0.84
,-8.622,-0.065,-4.575,-9.095,0.103,-4.228,9.38,-10.5,0.28
,-8.76,-0.12,-4.798,-8.655,0.0,-4.776,10.78,-10.01,-0.49
,-8.847,-0.232,-4.721,-8.66,-0.27,-4.171,12.74,-9.24,-1.26
31953.0,-8.938,-0.357,-4.168,-8.902,-0.275,-4.393,6.3,-12.11,0.28
,-8.768,-0.342,-4.176,-8.868,-0.182,-4.413,7.77,-11.9,0.63
,-8.717,-0.254,-4.176,-8.873,-0.304,-4.377,9.52,-10.99,0.56
,-8.775,-0.201,-4.106,-9.086,-0.328,-4.104,11.34,-10.08,0.35
32028.0,-9.05,-0.16,-4.24,-8.574,0.12,-4.154,16.52,-6.72,-1.33
,-9.155,-0.132,-4.092,-8.839,-0.218,-4.051,16.73,-7.14,-2.1
,-9.39,0.089,-3.812,-9.098,-0.498,-3.972,14.14,-9.94,-1.82
,-8.89,0.306,-4.262,-9.055,-0.51,-4.156,10.08,-13.09,-1.12
32104.0,-8.897,-0.471,-4.362,-9.134,-0.572,-3.891,4.34,-11.69,-1.68
,-8.902,-0.531,-4.152,-9.127,-0.44,-4.018,5.39,-10.43,-1.68
,-8.928,-0.644,-4.085,-9.349,-0.251,-3.798,7.07,-8.82,-1.61
,-9.016,-0.665,-3.879,-9.127,-0.012,-4.049,10.71,-6.51,-1.54
32180.0,-8.957,-0.038,-4.123,-8.806,-0.766,-3.86,9.59,-8.47,-0.98
,-9.009,-0.292,-4.207,-8.906,-0.727,-3.831,6.65,-8.96,-1.54
,-9.005,-0.644,-4.161,-9.024,-0.727,-3.721,5.18,-8.61,-2.03
,-8.945,-0.754,-4.104,-9.423,-0.613,-3.654,4.76,-8.82,-1.75
32256.0,-9.433,-0.464,-3.869,-9.127,-0.474,-3.754,10.01,-9.52,0.56
,-9.189,-0.316,-3.908,-9.06,-0.687,-3.601,9.24,-10.15,0.21
,-9.064,-0.268,-3.848,-9.28,-0.668,-3.537,7.7,-10.57,0.0
,-8.801,-0.361,-3.707,-9.095,-0.548,-3.632,6.58,-10.29,0.21
32332.0,-9.038,-0.598,-3.278,-9.177,-0.177,-3.312,8.89,-11.2,1.4
,-9.301,-0.517,-3.408,-9.158,-0.239,-3.087,8.96,-11.69,1.12
,-9.409,-0.481,-3.446,-9.275,-0.347,-3.056,8.19,-12.6,0.0
,-9.311,-0.287,-3.357,-9.287,-0.342,-2.965,7.63,-12.67,-0.63
32407.0,-9.328,-0.294,-3.329,-9.11,-0.579,-3.405,0.14,-11.83,-2.31
,-9.239,-0.242,-3.546,-9.249,-0.62,-3.154,-0.7,-12.46,-2.66
,-9.189,-0.285,-3.934,-9.459,-0.426,-2.991,-1.33,-12.95,-2.73
,-9.031,-0.474,-3.798,-9.579,0.074,-2.996,-1.4,-12.53,-2.52
32483.0,-9.541,0.361,-2.996,-9.289,-1.345,-2.888,-2.38,-13.23,-6.65
,-9.361,0.026,-2.917,-9.404,-1.251,-3.005,-9.8,-13.16,-7.28
,-9.127,-0.629,-2.733,-9.418,-0.943,-3.226,-15.54,-12.18,-7.63
,-9.21,-1.115,-2.716,-9.311,-0.845,-3.245,-15.68,-11.2,-7.07
32559.0,-9.172,-0.821,-3.317,-9.5,-0.565,-2.931,-4.55,-10.71,-4.62
,-9.076,-0.902,-3.192,-9.502,-0.572,-2.941,-2.94,-10.22,-4.06
,-9.129,-0.983,-3.149,-9.457,-0.524,-2.793,-0.7,-10.01,-3.71
,-9.227,-0.759,-2.785,-9.395,-0.591,-2.886,2.1,-9.45,-2.73
32635.0,-9.227,-0.658,-2.627,-9.555,-0.658,-2.434,4.55,-8.89,-2.1
,-9.373,-0.67,-2.515,-9.435,-0.656,-2.379,6.58,-8.05,-1.82
,-9.445,-0.61,-2.529,-9.457,-0.668,-2.393,6.58,-7.77,-1.96
,-9.43,-0.61,-2.266,-9.469,-0.541,-2.556,6.3,-6.86,-1.61
32710.0,-9.457,-0.696,-2.737,-9.538,-0.644,-2.694,3.15,-4.55,-1.89
,-9.34,-0.816,-2.536,-9.454,-0.421,-2.637,3.64,-3.57,-1.47
,-9.363,-0.876,-2.565,-9.445,-0.505,-2.659,5.11,-2.73,-1.05
,-9.44,-0.811,-2.477,-9.462,-0.79,-2.563,7.28,-2.1,-0.98
32786.0,-9.478,-0.995,-2.546,-9.308,-0.732,-2.458,3.15,-0.84,-1.26
,-9.478,-0.974,-2.532,-9.392,-0.792,-2.304,4.83,-0.28,-1.19
,-9.624,-0.811,-2.659,-9.433,-0.878,-2.137,5.53,-0.35,-1.19
,-9.488,-0.694,-2.661,-9.665,-0.78,-2.237,4.69,-0.14,-1.12
32861.0,-9.71,-0.663,-2.474,-9.22,-0.964,-2.941,2.45,2.38,-1.26
,-9.608,-0.572,-2.601,-9.383,-0.962,-2.9,0.28,2.17,-1.4
,-9.447,-0.689,-2.895,-9.505,-0.833,-2.742,-2.17,1.96,-1.61
,-9.244,-0.919,-2.962,-9.641,-0.79,-2.714,-2.87,2.52,-1.47
32937.0,-9.579,-0.84,-2.831,-9.184,-0.974,-2.726,1.47,2.8,-0.84
,-9.466,-0.802,-2.986,-9.318,-0.924,-2.52,1.12,2.59,-0.77
,-9.318,-0.838,-3.118,-9.43,-0.792,-2.223,1.05,2.8,-0.63
,-9.217,-0.952,-3.032,-9.698,-0.72,-2.29,2.03,3.15,-0.35
33013.0,-9.67,-0.725,-2.324,-9.308,-0.792,-3.07,0.77,4.9,0.07
,-9.545,-0.771,-2.426,-9.407,-0.727,-3.032,-0.35,5.46,0.14
,-9.454,-0.94,-2.728,-9.533,-0.632,-3.159,-0.7,5.81,0.35
,-9.363,-0.948,-2.941,-9.524,-0.715,-3.195,0.7,6.23,0.56
33089.0,-9.495,-0.723,-3.314,-9.275,-0.68,-3.743,-0.28,4.97,0.14
,-9.442,-0.782,-3.544,-9.32,-0.713,-3.577,-0.07,4.34,0.07
,-9.34,-0.857,-3.714,-9.375,-0.754,-3.396,1.33,3.64,0.21
,-9.203,-0.754,-3.747,-9.349,-0.818,-3.185,3.36,2.94,0.42
33164.0,-9.438,-0.821,-3.037,-9.34,-0.897,-2.831,5.6,0.14,0.7
,-9.416,-0.845,-3.051,-9.411,-0.768,-2.783,5.53,-0.07,0.63
,-9.471,-0.806,-3.08,-9.471,-0.751,-2.682,5.81,-0.28,0.77
,-9.368,-0.811,-3.003,-9.552,-0.682,-2.663,5.81,-0.21,0.84
33240.0,-9.576,-0.682,-2.704,-9.39,-0.9,-2.73,3.57,0.28,0.28
,-9.509,-0.828,-2.754,-9.502,-0.861,-2.795,2.38,0.07,0.0
,-9.318,-0.864,-2.85,-9.512,-0.792,-2.826,1.75,0.14,0.07
,-9.349,-0.924,-2.845,-9.6,-0.79,-3.039,2.31,0.28,0.14
33316.0,-9.56,-0.804,-3.281,-9.318,-0.785,-3.384,0.77,-0.42,-0.14
,-9.407,-0.802,-3.515,-9.45,-0.718,-3.187,0.7,-0.84,-0.28
,-9.292,-0.921,-3.582,-9.478,-0.768,-2.946,1.68,-0.84,-0.14
,-9.275,-0.849,-3.561,-9.531,-0.68,-2.891,3.64,-1.12,0.14
33392.0,-9.483,-0.706,-2.836,-9.464,-1.067,-2.766,4.34,-2.45,0.0
,-9.497,-0.756,-2.757,-9.418,-1.115,-2.644,3.71,-2.38,-0.14
,-9.418,-0.83,-2.785,-9.49,-0.976,-2.711,2.8,-2.31,-0.14
,-9.483,-0.945,-2.795,-9.536,-0.656,-2.685,2.87,-2.17,-0.14
33468.0,-9.617,-0.586,-2.716,-9.351,-0.943,-2.946,6.51,-1.05,0.49
,-9.497,-0.668,-2.769,-9.397,-0.914,-2.938,4.76,-0.98,0.56
,-9.445,-0.809,-2.8,-9.497,-0.689,-2.785,3.78,-0.98,0.56
,-9.407,-0.924,-2.843,-9.514,-0.61,-2.737,4.48,-0.98,0.63
33543.0,-9.541,-0.68,-2.594,-9.493,-0.983,-2.737,2.94,-0.49,0.14
,-9.478,-0.84,-2.563,-9.502,-0.876,-2.709,0.35,-0.63,-0.07
,-9.435,-0.995,-2.62,-9.397,-0.814,-2.529,-0.63,-0.42,-0.07
,-9.474,-1.11,-2.714,-9.464,-0.933,-2.486,-0.14,-0.28,-0.07
33619.0,-9.428,-1.01,-2.292,-9.421,-0.907,-2.687,1.61,1.82,0.7
,-9.493,-1.031,-2.312,-9.418,-0.907,-2.778,2.73,2.24,0.84
,-9.526,-0.931,-2.489,-9.44,-0.926,-2.757,4.13,2.66,0.91
,-9.502,-0.84,-2.611,-9.485,-0.833,-2.864,4.41,2.87,0.98
33694.0,-9.514,-0.605,-2.891,-9.423,-0.718,-3.106,4.97,3.15,1.19
,-9.572,-0.658,-2.771,-9.383,-0.668,-3.037,3.71,3.29,1.26
,-9.555,-0.787,-3.029,-9.466,-0.761,-3.017,1.61,2.66,0.7
,-9.457,-0.806,-3.029,-9.481,-0.727,-3.013,0.56,2.38,0.56
33770.0,-9.481,-0.692,-2.984,-9.421,-0.876,-3.084,-1.89,1.75,-0.28
,-9.457,-0.828,-2.917,-9.411,-0.888,-3.13,-2.59,1.61,-0.35
,-9.531,-0.924,-2.95,-9.514,-0.933,-3.118,-2.52,1.47,-0.49
,-9.526,-0.926,-3.041,-9.447,-0.931,-3.12,-1.75,1.19,-0.56
33846.0,-9.416,-0.866,-3.039,-9.55,-0.964,-2.749,2.24,0.7,0.14
,-9.399,-0.797,-2.984,-9.452,-1.039,-2.73,2.59,0.77,0.21
,-9.426,-0.873,-2.776,-9.464,-1.029,-2.759,2.8,1.05,0.49
,-9.536,-0.878,-2.759,-9.493,-0.991,-2.836,2.87,0.91,0.42
33922.0,-9.44,-0.89,-2.85,-9.32,-1.06,-2.613,5.46,1.12,0.98
,-9.426,-0.766,-2.9,-9.34,-1.084,-2.536,5.11,1.12,1.05
,-9.438,-0.778,-2.845,-9.481,-0.905,-2.441,3.92,1.05,0.91
,-9.418,-0.845,-2.764,-9.56,-0.665,-2.422,2.59,0.91,0.91
33997.0,-9.631,-0.479,-2.467,-9.529,-0.907,-3.099,-0.56,1.89,0.0
,-9.629,-0.4,-2.608,-9.438,-0.921,-3.137,-3.36,1.75,-0.42
,-9.507,-0.579,-2.735,-9.313,-0.888,-3.041,-5.74,1.75,-0.84
,-9.442,-0.725,-2.898,-9.294,-0.972,-3.051,-5.95,1.75,-1.05
34073.0,-9.411,-1.29,-3.02,-9.356,-0.66,-2.759,-2.24,0.0,0.35
,-9.557,-1.29,-3.111,-9.526,-0.761,-2.68,1.47,0.28,0.7
,-9.481,-0.979,-3.142,-9.541,-0.785,-2.496,4.27,0.14,0.84
,-9.418,-0.768,-2.998,-9.572,-0.804,-2.469,5.11,0.35,1.19
34149.0,-9.593,-0.821,-2.302,-9.442,-1.115,-1.814,0.63,0.14,1.26
,-9.45,-0.845,-2.151,-9.464,-1.134,-1.833,-0.77,-0.14,1.33
,-9.452,-0.881,-1.948,-9.555,-0.95,-1.874,-2.17,-0.35,1.47
,-9.347,-0.993,-1.85,-9.686,-0.704,-2.24,-3.43,0.35,1.75
34225.0,-9.538,-0.749,-2.491,-9.526,-0.957,-2.924,-5.81,5.25,2.38
,-9.407,-1.0,-2.642,-9.627,-0.512,-3.278,-7.49,6.37,3.15
,-9.256,-1.015,-2.747,-9.45,-0.438,-3.644,-6.3,7.35,3.71
,-9.261,-1.039,-2.948,-9.304,-0.543,-3.51,-3.78,8.26,3.99
34300.0,-9.277,-0.735,-3.391,-9.418,-0.512,-2.316,-2.73,6.23,4.06
,-9.215,-1.017,-3.252,-9.517,-0.407,-1.998,-1.12,7.7,3.85
,-9.206,-0.957,-2.702,-9.373,-0.467,-1.857,3.01,9.73,3.71
,-9.43,-0.711,-2.749,-9.83,-0.481,-1.718,4.83,9.45,3.15
34376.0,-9.746,-0.558,-2.539,-9.153,-1.675,-1.723,-8.75,9.66,1.61
,-9.363,-0.555,-2.41,-9.174,-1.149,-2.151,-12.74,8.96,1.75
,-9.012,-0.725,-2.558,-9.44,-0.486,-2.371,-16.31,10.43,3.15
,-8.899,-1.402,-2.13,-9.397,-0.218,-2.886,-17.43,14.21,4.2
34452.0,-9.055,-0.428,-2.673,-9.557,0.101,-3.168,-3.43,19.67,4.97
,-8.945,-0.804,-1.938,-9.301,0.467,-3.841,-1.89,25.2,6.51
,-9.426,-0.936,-1.84,-8.997,0.122,-3.953,4.27,27.23,6.3
,-9.541,-0.613,-2.594,-8.861,-0.857,-3.185,10.36,24.15,4.06
34527.0,-9.009,-1.182,-2.991,-8.906,-0.335,-2.845,5.46,28.49,2.66
,-8.923,-1.053,-2.948,-9.49,-0.101,-3.116,13.16,29.4,1.61
,-8.921,-0.634,-3.01,-9.66,0.215,-3.908,18.55,29.4,1.61
,-8.871,-0.349,-3.455,-9.617,0.385,-4.697,19.32,29.54,2.24
34603.0,-9.457,0.151,-5.331,-8.598,-2.288,-4.501,8.68,18.97,-1.19
,-8.756,-0.524,-5.631,-8.959,-1.981,-4.647,1.19,18.69,-0.21
,-8.303,-1.419,-5.229,-9.112,-1.706,-4.901,-3.01,20.93,0.63
,-8.38,-2.111,-4.702,-9.165,-1.34,-4.915,-0.7,22.54,0.35
34679.0,-9.136,-1.07,-5.027,-8.866,-0.22,-4.901,10.15,17.22,4.2
,-8.954,-0.924,-4.805,-8.725,-0.476,-4.355,8.54,16.45,3.99
,-9.064,-0.644,-4.788,-8.638,-0.763,-3.85,7.91,14.63,3.64
,-9.127,-0.335,-5.006,-8.648,-0.945,-3.403,6.51,12.25,3.29
34755.0,-9.136,-0.976,-3.431,-8.67,-0.256,-4.456,4.9,17.08,3.64
,-9.476,-0.981,-3.893,-8.77,0.249,-4.721,8.26,14.63,4.27
,-9.476,-0.907,-4.137,-8.897,0.548,-5.025,10.15,13.37,5.46
,-9.009,-0.675,-4.331,-9.146,0.708,-5.068,11.76,14.28,6.16
34830.0,-8.882,0.622,-5.075,-8.921,-0.962,-4.508,10.29,10.71,-1.19
,-8.792,0.208,-4.728,-8.954,-1.199,-4.451,4.2,10.99,-2.38
,-8.782,-0.139,-4.539,-8.993,-1.364,-4.475,1.68,11.69,-3.71
,-8.928,-0.536,-4.527,-8.942,-1.517,-4.338,1.68,10.64,-4.83
34906.0,-8.966,-1.486,-4.393,-9.031,-0.318,-4.7,9.24,6.37,0.14
,-8.648,-1.304,-4.53,-8.856,-0.488,-4.771,12.11,5.67,0.7
,-8.576,-0.914,-4.642,-8.612,-0.893,-4.618,13.93,5.67,0.56
,-8.811,-0.529,-4.628,-8.703,-1.096,-4.515,13.16,5.46,0.49
34982.0,-8.737,-1.031,-4.695,-8.926,0.55,-4.633,0.35,3.29,2.87
,-8.772,-0.821,-4.594,-8.873,0.244,-4.24,3.64,3.29,2.03
,-8.918,-0.304,-4.57,-8.646,-0.495,-4.247,7.0,2.94,0.84
,-9.081,0.385,-4.602,-8.737,-1.302,-3.924,7.84,1.89,-0.42
35058.0,-8.981,-1.543,-4.113,-8.792,-1.419,-4.86,-7.49,2.38,3.01
,-8.61,-1.704,-4.692,-8.921,-1.268,-4.831,-2.87,3.5,3.64
,-8.495,-1.826,-4.465,-9.036,-0.991,-4.582,1.47,4.41,4.48
,-8.536,-1.608,-4.886,-9.064,-0.577,-4.357,5.39,4.06,6.02
35133.0,-9.05,-0.136,-4.362,-8.37,-0.756,-4.81,6.86,3.29,3.71
,-8.93,0.223,-4.69,-8.646,-1.103,-4.738,3.92,2.59,2.66
,-8.576,0.101,-4.822,-9.131,-1.412,-4.611,-0.56,2.45,1.82
,-8.246,-0.34,-4.824,-9.148,-1.646,-4.424,-4.27,3.08,2.17
35209.0,-9.184,-1.627,-4.231,-9.206,0.144,-4.336,6.16,3.08,6.65
,-9.115,-1.359,-4.188,-9.038,0.558,-4.774,10.01,3.01,6.72
,-8.966,-0.849,-4.367,-8.524,0.838,-4.915,12.39,2.73,6.44
,-8.983,-0.407,-4.391,-8.397,0.826,-5.274,13.02,2.73,5.18
35284.0,-8.469,0.684,-5.53,-9.84,-0.452,-4.243,-4.48,0.7,-1.33
,-8.473,0.263,-5.202,-9.543,-0.438,-4.123,-6.65,0.98,-1.68
,-8.693,-0.124,-4.927,-9.012,-0.912,-4.661,-5.95,0.7,-2.31
,-9.06,-0.445,-4.515,-8.61,-0.857,-4.872,-3.71,0.7,-3.08
35360.0,-8.358,-0.964,-4.886,-8.469,-1.307,-4.726,5.32,-1.75,-3.29
,-8.38,-1.189,-4.75,-8.617,-1.29,-4.759,3.64,-0.91,-2.31
,-8.737,-1.24,-4.618,-9.057,-1.393,-4.642,1.61,-0.91,-0.84
,-8.617,-1.316,-4.661,-9.043,-1.57,-4.503,0.21,-0.84,0.07
35436.0,-9.0,-1.328,-4.453,-9.165,-0.658,-4.226,1.12,-0.84,2.1
,-8.571,-0.945,-4.592,-9.359,-0.641,-4.087,2.17,-0.49,2.52
,-8.701,-0.476,-4.661,-9.076,-0.459,-4.178,2.31,0.07,2.38
,-8.758,-0.39,-4.666,-8.957,-0.311,-4.24,1.4,0.84,2.1
35512.0,-8.713,-0.352,-4.566,-9.275,-0.397,-4.573,1.54,-1.26,3.01
,-8.567,-0.589,-4.659,-8.971,-0.785,-4.379,1.12,-0.35,2.8
,-8.698,-0.751,-4.417,-8.842,-0.983,-4.314,3.36,0.21,2.24
,-9.119,-0.426,-4.403,-8.629,-1.01,-4.597,5.74,0.07,1.61
35588.0,-8.452,-1.117,-4.499,-8.713,-0.4,-4.542,0.84,0.0,3.78
,-8.859,-1.223,-4.185,-8.528,-0.45,-4.489,1.96,1.54,3.99
,-9.167,-0.986,-4.133,-8.629,-0.553,-4.503,3.99,1.96,4.06
,-9.052,-0.706,-4.372,-8.868,-0.488,-4.432,4.62,2.03,3.64
35663.0,-9.246,-0.371,-4.324,-8.942,-0.995,-4.618,2.38,4.83,3.36
,-9.332,-0.534,-4.549,-9.158,-0.692,-4.547,1.12,4.13,3.15
,-9.155,-0.945,-4.568,-9.002,-0.598,-4.666,-0.35,3.92,3.36
,-8.928,-1.194,-4.489,-8.667,-0.469,-4.886,0.49,4.27,3.85
35739.0,-8.636,-0.656,-4.891,-8.957,-0.538,-4.941,-1.19,3.08,5.11
,-8.854,-0.871,-4.915,-9.055,-0.459,-4.721,-2.38,3.15,4.9
,-8.976,-0.838,-4.872,-9.057,-0.536,-4.602,-1.33,3.29,4.34
,-8.971,-0.672,-4.905,-8.964,-0.345,-4.642,0.28,2.66,3.71
35815.0,-8.677,-0.297,-4.848,-9.186,-0.045,-4.719,-2.1,-0.14,3.15
,-8.502,-0.218,-4.673,-9.172,-0.108,-4.776,-1.89,0.56,2.66
,-8.667,-0.065,-4.678,-8.892,-0.29,-4.752,-1.05,0.98,2.31
,-8.961,0.01,-4.654,-8.746,-0.696,-4.695,-0.77,0.56,1.61
35891.0,-8.784,-0.933,-4.568,-8.751,-0.567,-4.805,-5.11,-0.14,0.56
,-9.06,-0.914,-4.532,-8.507,-0.483,-4.877,-2.17,-0.49,0.77
,-9.304,-0.718,-4.523,-8.5,-0.349,-4.905,0.98,-2.17,1.05
,-8.995,-0.546,-4.843,-8.48,-0.39,-4.841,2.45,-4.06,1.05
35966.0,-8.801,-0.33,-4.671,-9.076,-0.045,-4.496,-0.56,-5.18,0.42
,-8.88,-0.249,-4.822,-9.478,0.134,-4.396,-1.75,-5.88,0.35
,-9.019,-0.122,-4.783,-9.483,-0.022,-4.233,-2.52,-5.88,0.07
,-9.036,-0.007,-4.791,-8.78,0.115,-4.745,-2.94,-5.67,-0.49
36042.0,-8.133,0.055,-4.874,-9.244,-0.869,-4.664,-5.95,-10.57,-2.59
,-8.236,-0.337,-4.755,-8.839,-0.648,-4.697,-6.44,-10.01,-2.66
,-8.744,-0.933,-4.597,-8.763,-0.749,-4.283,-5.25,-9.94,-3.01
,-9.277,-1.065,-4.594,-9.162,-0.775,-4.08,-1.4,-10.36,-3.08
36117.0,-9.239,-0.651,-4.188,-8.382,-0.804,-3.924,6.93,-10.01,-4.27
,-9.409,-0.292,-4.011,-9.009,-0.888,-3.905,7.28,-12.67,-2.52
,-8.524,-0.476,-4.685,-9.304,-0.627,-4.006,0.77,-13.93,-2.17
,-8.169,-0.558,-4.101,-9.351,-0.481,-3.924,-1.96,-11.9,-2.38
36193.0,-9.201,-0.297,-3.948,-9.196,-0.543,-3.656,8.19,-11.69,-1.82
,-8.727,-0.376,-4.027,-9.222,-0.376,-3.719,6.44,-11.48,-1.75
,-8.768,-0.577,-3.879,-9.095,-0.383,-3.714,6.23,-10.92,-1.96
,-8.933,-0.646,-3.888,-8.926,-0.488,-3.821,7.56,-10.92,-2.52
36269.0,-8.981,-0.677,-3.843,-8.966,-0.548,-4.089,3.85,-11.76,-0.63
,-9.141,-0.782,-3.982,-9.06,-0.44,-3.903,4.34,-12.32,-0.63
,-9.191,-0.816,-3.948,-8.949,-0.486,-3.955,5.39,-13.3,-0.84
,-9.052,-0.644,-4.044,-8.93,-0.598,-4.051,6.44,-12.81,-0.98
36345.0,-9.127,-0.806,-3.611,-9.402,-0.072,-3.374,3.64,-11.69,-0.7
,-9.289,-0.596,-3.53,-9.143,-0.022,-3.64,5.11,-12.6,-0.28
,-9.241,-0.416,-3.652,-9.031,-0.103,-3.644,5.39,-12.88,-0.98
,-9.251,-0.278,-3.57,-9.129,-0.395,-3.403,4.83,-13.09,-1.82
36421.0,-9.289,-0.514,-3.479,-9.34,-0.732,-3.18,-3.29,-12.74,-4.2
,-9.141,-0.687,-3.305,-9.488,-0.555,-3.266,-2.59,-11.48,-4.41
,-9.153,-0.78,-3.173,-9.277,-0.495,-3.216,-1.12,-10.15,-4.13
,-9.28,-0.814,-3.106,-9.15,-0.414,-3.252,0.42,-10.01,-3.71
36496.0,-9.074,-0.565,-3.247,-9.031,-0.933,-3.384,0.14,-9.45,-3.78
,-9.337,-0.696,-3.013,-9.217,-1.096,-3.324,0.56,-8.82,-3.92
,-9.524,-0.833,-3.135,-9.241,-1.201,-3.156,0.63,-9.59,-3.71
,-9.112,-0.885,-3.343,-9.194,-1.082,-3.128,1.75,-8.82,-2.73
36572.0,-9.194,-0.878,-3.173,-9.407,-0.907,-3.874,13.16,-1.33,-0.28
,-9.261,-0.675,-3.573,-9.196,-1.194,-3.927,14.98,-1.54,0.42
,-9.323,-0.711,-3.539,-9.06,-1.163,-3.944,15.61,-1.54,1.4
,-9.177,-0.782,-3.841,-9.282,-0.924,-3.671,15.82,-1.82,2.45
36648.0,-9.375,-0.701,-3.319,-9.397,-0.948,-3.135,17.57,-8.68,1.75
,-9.485,-0.579,-3.319,-9.265,-1.027,-2.984,14.28,-10.22,1.05
,-9.43,-0.706,-3.175,-9.261,-1.007,-2.86,10.15,-10.71,0.98
,-9.557,-0.78,-3.144,-9.201,-0.89,-2.898,6.44,-10.99,1.26
36724.0,-9.373,-0.699,-2.747,-9.615,-0.4,-1.962,10.57,-8.33,2.17
,-9.265,-0.615,-2.608,-9.55,-0.235,-2.024,10.78,-8.47,2.24
,-9.414,-0.462,-2.3,-9.557,-0.273,-2.134,11.06,-8.61,2.17
,-9.447,-0.452,-2.087,-9.435,-0.505,-2.379,9.73,-8.96,1.54
36799.0,-9.263,-0.692,-2.391,-9.603,-0.976,-1.737,-3.64,-7.98,-0.7
,-9.246,-0.945,-2.173,-9.703,-0.713,-1.998,-2.31,-5.95,-0.14
,-9.387,-1.165,-2.144,-9.615,-0.558,-2.173,-0.49,-4.2,-0.07
,-9.404,-1.249,-1.728,-9.531,-0.517,-2.455,2.87,-2.1,0.42
36875.0,-9.423,-0.498,-2.575,-9.49,-0.672,-2.776,-0.35,0.42,0.77
,-9.402,-0.589,-2.625,-9.514,-0.732,-2.797,-0.77,1.33,0.56
,-9.351,-0.617,-2.711,-9.481,-0.833,-2.623,-0.35,2.03,0.14
,-9.366,-0.596,-2.735,-9.605,-0.852,-2.833,-0.28,2.38,-0.21
36950.0,-9.593,-0.706,-3.075,-9.328,-0.902,-3.159,-2.73,1.47,-0.84
,-9.541,-0.486,-3.321,-9.55,-0.804,-3.132,-3.43,1.05,-0.91
,-9.395,-0.581,-3.417,-9.77,-0.586,-3.551,-5.32,0.84,-0.91
,-9.165,-0.864,-3.111,-9.61,-0.404,-3.589,-5.81,1.4,-0.7
37026.0,-9.454,-0.567,-3.68,-9.514,-1.005,-2.905,-6.93,-2.87,-2.31
,-9.229,-0.902,-3.451,-9.588,-0.747,-3.07,-7.84,-3.15,-2.17
,-9.203,-1.223,-3.271,-9.531,-0.72,-2.8,-4.76,-2.73,-1.82
,-9.311,-1.204,-2.994,-9.488,-0.739,-2.785,0.14,-2.38,-1.33
37102.0,-9.485,-0.988,-2.788,-9.514,-0.799,-2.048,-0.77,-4.34,-0.56
,-9.349,-1.089,-2.503,-9.536,-0.794,-1.95,0.35,-3.78,-0.14
,-9.371,-0.885,-2.379,-9.61,-0.826,-1.814,2.24,-3.29,-0.07
,-9.45,-0.799,-2.254,-9.588,-0.797,-1.85,1.82,-2.94,-0.35
37178.0,-9.586,-0.639,-1.893,-9.402,-0.972,-2.467,-1.47,1.33,-0.35
,-9.651,-0.512,-2.027,-9.507,-0.928,-2.599,-1.89,2.24,-0.35
,-9.648,-0.672,-2.283,-9.469,-0.95,-2.862,-3.85,2.66,-0.63
,-9.375,-0.931,-2.328,-9.332,-0.943,-2.855,-4.34,3.43,-0.28
37253.0,-9.45,-0.919,-2.979,-9.6,-0.62,-2.927,2.17,5.39,1.19
,-9.385,-1.0,-2.814,-9.483,-0.538,-2.984,3.71,5.88,1.54
,-9.392,-0.926,-2.797,-9.433,-0.498,-3.029,5.32,5.88,1.75
,-9.514,-0.809,-2.867,-9.378,-0.55,-2.994,6.16,5.53,1.68
37329.0,-9.483,-0.589,-3.151,-9.409,-0.66,-3.271,3.5,4.34,0.56
,-9.497,-0.665,-3.202,-9.407,-0.596,-3.24,3.43,3.85,0.35
,-9.411,-0.83,-3.063,-9.481,-0.605,-3.271,4.27,3.29,0.63
,-9.49,-0.821,-3.266,-9.428,-0.656,-3.175,6.16,2.94,0.77
37405.0,-9.411,-0.653,-3.18,-9.347,-0.969,-3.07,1.96,0.63,-0.84
,-9.387,-0.835,-3.147,-9.38,-0.826,-2.931,-0.21,0.07,-1.05
,-9.438,-1.005,-3.257,-9.49,-0.727,-2.788,-0.98,-0.56,-1.19
,-9.435,-1.0,-3.209,-9.505,-0.771,-2.558,-0.63,-1.12,-1.12
37481.0,-9.474,-0.854,-2.335,-9.598,-0.845,-2.273,0.77,-0.35,-0.63
,-9.428,-0.888,-2.185,-9.483,-0.96,-2.407,0.91,0.42,-0.56
,-9.543,-0.883,-2.149,-9.474,-0.969,-2.534,1.47,1.19,-0.63
,-9.608,-0.888,-2.158,-9.49,-0.919,-2.726,1.61,1.68,-0.56
37557.0,-9.373,-0.826,-2.771,-9.435,-0.924,-3.163,3.08,3.78,-0.21
,-9.421,-0.732,-2.783,-9.292,-1.06,-3.175,3.01,3.99,-0.07
,-9.533,-0.646,-2.965,-9.361,-1.039,-3.168,2.03,3.64,-0.28
,-9.552,-0.761,-3.101,-9.49,-0.811,-3.221,1.47,3.5,-0.49
37632.0,-9.483,-0.699,-3.206,-9.392,-0.914,-3.056,5.11,2.38,-0.21
,-9.457,-0.687,-3.149,-9.433,-0.814,-3.008,3.71,2.1,-0.21
,-9.392,-0.873,-3.144,-9.5,-0.711,-2.96,2.38,1.82,-0.28
,-9.383,-1.019,-3.089,-9.493,-0.72,-2.938,3.08,1.75,-0.21
37708.0,-9.495,-0.816,-2.867,-9.34,-0.991,-2.883,2.66,0.84,-0.49
,-9.447,-0.864,-2.883,-9.397,-1.01,-2.754,2.31,0.91,-0.42
,-9.495,-0.933,-2.938,-9.397,-0.933,-2.67,2.24,0.63,-0.56
,-9.445,-0.952,-2.936,-9.495,-0.806,-2.594,2.8,0.77,-0.42
37783.0,-9.543,-0.785,-2.541,-9.426,-1.017,-2.783,3.85,1.75,0.07
,-9.488,-0.814,-2.563,-9.411,-0.983,-2.833,2.66,2.03,0.07
,-9.402,-0.883,-2.558,-9.514,-0.979,-2.948,2.03,2.31,0.0
