Timestamp,AccX,AccY,AccZ,GyroX,GyroY,GyroZ,MagnX,MagnY,MagnZ
0.0,-9.268,-1.493,-3.273,-9.287,-1.359,-3.46,1.05,1.05,1.12
,-9.21,-1.481,-3.25,-9.206,-1.421,-3.515,1.54,1.33,1.12
,-9.21,-1.462,-3.34,-9.11,-1.469,-3.577,2.1,1.54,1.12
,-9.184,-1.433,-3.405,-9.153,-1.479,-3.561,2.45,1.68,1.12
76.0,-9.189,-1.407,-3.609,-9.232,-1.45,-3.494,3.64,1.05,0.77
,-9.194,-1.39,-3.644,-9.222,-1.417,-3.434,3.43,0.7,0.63
,-9.186,-1.381,-3.546,-9.229,-1.347,-3.4,3.15,0.49,0.56
,-9.136,-1.354,-3.484,-9.232,-1.34,-3.29,2.73,0.28,0.63
152.0,-9.296,-1.213,-3.168,-9.213,-1.603,-2.998,1.26,0.21,0.07
,-9.332,-1.17,-3.032,-9.198,-1.575,-3.046,0.07,0.28,-0.28
,-9.294,-1.196,-3.025,-9.229,-1.421,-3.13,-2.31,0.28,-0.91
,-9.282,-1.412,-2.948,-9.325,-1.251,-3.195,-3.85,0.49,-0.98
227.0,-9.337,-1.228,-3.19,-9.251,-1.476,-3.403,-0.28,2.59,-0.7
,-9.263,-1.347,-3.18,-9.241,-1.321,-3.542,-1.19,2.87,-1.05
,-9.234,-1.508,-3.218,-9.222,-1.292,-3.618,-1.19,3.01,-1.12
,-9.184,-1.524,-3.295,-9.131,-1.311,-3.666,0.14,3.43,-0.84
302.0,-9.184,-1.362,-3.671,-9.119,-1.39,-3.594,1.75,3.08,-1.12
,-9.158,-1.424,-3.637,-9.196,-1.316,-3.544,1.75,2.94,-1.26
,-9.172,-1.488,-3.611,-9.186,-1.328,-3.589,1.82,2.66,-1.33
,-9.146,-1.474,-3.585,-9.196,-1.397,-3.609,2.24,2.45,-1.12
378.0,-9.158,-1.448,-3.508,-9.229,-1.424,-3.451,1.47,1.75,-1.61
,-9.194,-1.429,-3.534,-9.208,-1.424,-3.451,1.75,1.82,-1.75
,-9.227,-1.498,-3.467,-9.213,-1.455,-3.508,2.1,1.89,-1.61
,-9.194,-1.448,-3.467,-9.177,-1.469,-3.53,2.59,1.96,-1.68
454.0,-9.153,-1.563,-3.558,-9.206,-1.311,-3.434,3.22,1.68,-2.1
,-9.177,-1.536,-3.544,-9.225,-1.345,-3.362,3.99,1.61,-2.1
,-9.201,-1.503,-3.544,-9.225,-1.45,-3.314,4.9,1.68,-2.17
,-9.203,-1.426,-3.446,-9.112,-1.565,-3.252,5.46,1.54,-2.1
530.0,-9.179,-1.558,-3.285,-9.261,-1.51,-3.379,4.34,1.61,-2.66
,-9.134,-1.488,-3.288,-9.306,-1.539,-3.384,4.83,1.96,-2.66
,-9.203,-1.455,-3.288,-9.27,-1.62,-3.408,4.97,1.96,-2.87
,-9.222,-1.462,-3.29,-9.148,-1.644,-3.434,4.69,2.17,-3.01
605.0,-9.076,-1.627,-3.475,-9.174,-1.57,-3.599,4.9,2.52,-3.08
,-9.107,-1.57,-3.496,-9.177,-1.61,-3.611,5.6,2.73,-3.08
,-9.1,-1.553,-3.57,-9.139,-1.651,-3.565,5.67,2.38,-3.15
,-9.107,-1.517,-3.589,-9.105,-1.68,-3.534,5.67,2.31,-3.08
681.0,-9.095,-1.697,-3.527,-9.148,-1.639,-3.57,6.02,1.68,-3.57
,-9.134,-1.658,-3.489,-9.112,-1.685,-3.551,6.58,1.82,-3.57
,-9.129,-1.689,-3.534,-9.146,-1.768,-3.577,6.86,1.68,-3.5
,-9.165,-1.642,-3.546,-9.155,-1.79,-3.594,6.93,1.61,-3.57
757.0,-9.134,-1.649,-3.561,-9.1,-1.981,-3.398,8.47,1.05,-4.06
,-9.103,-1.594,-3.58,-9.191,-1.833,-3.441,8.61,0.91,-4.2
,-9.067,-1.685,-3.539,-9.217,-1.558,-3.448,8.4,0.98,-4.41
,-9.069,-1.835,-3.494,-9.215,-1.297,-3.424,9.1,1.12,-4.27
833.0,-9.182,-1.204,-3.391,-9.165,-1.637,-3.283,13.86,1.26,-5.25
,-9.131,-1.39,-3.364,-9.198,-1.522,-3.29,11.48,1.26,-6.02
,-9.172,-1.579,-3.324,-9.184,-1.457,-3.269,10.85,1.33,-6.51
,-9.198,-1.709,-3.285,-9.182,-1.493,-3.204,11.48,1.33,-6.72
909.0,-9.165,-1.61,-3.202,-9.162,-1.74,-2.845,8.05,1.54,-9.38
,-9.172,-1.685,-3.128,-9.167,-1.831,-2.663,7.21,1.61,-9.94
,-9.158,-1.759,-3.041,-9.146,-1.826,-2.546,7.14,1.96,-10.57
,-9.146,-1.73,-2.907,-9.194,-1.778,-2.362,7.28,2.38,-10.85
984.0,-9.189,-1.67,-2.13,-9.182,-1.553,-0.945,8.12,6.51,-13.23
,-9.196,-1.644,-1.895,-9.282,-1.531,-0.72,7.91,8.12,-13.86
,-9.141,-1.656,-1.591,-9.466,-1.474,-0.486,7.0,10.08,-14.49
,-9.134,-1.656,-1.266,-9.686,-1.493,-0.431,6.3,12.6,-14.7
1060.0,-9.883,-1.452,-0.455,-10.969,-1.096,-0.799,-2.17,29.54,-16.31
,-10.189,-1.352,-0.744,-10.581,0.199,-0.57,-5.25,32.97,-16.45
,-10.524,-1.242,-0.957,-10.653,1.582,-0.019,-10.5,35.07,-16.66
,-10.952,-1.345,-0.909,-9.33,2.012,-1.134,-20.09,34.79,-17.08
1135.0,-9.895,1.941,-1.362,-11.134,-0.778,-3.812,-59.99,43.26,-6.72
,-9.844,1.28,-1.998,-11.146,-0.861,-3.958,-64.82,56.14,-3.29
,-10.811,0.648,-2.716,-10.907,-0.615,-4.149,-64.4,65.17,-1.19
,-10.983,0.101,-4.049,-10.672,-0.184,-4.436,-61.67,70.77,-1.75
1211.0,-10.558,0.378,-4.637,-10.727,1.405,-5.08,-23.52,74.97,-8.26
,-10.84,0.802,-4.855,-10.127,1.385,-5.54,-28.35,72.38,-10.01
,-11.077,1.043,-4.779,-9.785,1.237,-5.683,-36.54,67.41,-11.76
,-11.216,1.271,-4.786,-9.672,0.993,-5.832,-48.72,60.13,-13.37
1287.0,-9.658,0.491,-5.846,-8.598,-0.814,-6.076,-109.13,18.76,-17.92
,-9.742,-0.053,-5.784,-8.368,-0.871,-6.198,-115.99,9.17,-19.46
,-9.395,-0.562,-5.805,-8.428,-0.962,-6.1,-119.7,-0.07,-20.16
,-9.076,-0.639,-5.927,-8.509,-0.991,-5.954,-119.91,-10.01,-20.44
1363.0,-8.476,-1.132,-5.934,-8.208,-1.802,-6.214,-94.64,-57.89,-13.3
,-8.33,-1.333,-5.863,-8.296,-1.78,-6.064,-87.57,-66.15,-10.92
,-8.143,-1.517,-5.939,-8.332,-1.835,-5.92,-79.24,-74.13,-8.19
,-8.177,-1.675,-6.104,-8.105,-1.816,-5.925,-69.02,-81.62,-5.46
1438.0,-8.023,-1.823,-5.82,-8.098,-1.237,-5.958,-26.74,-116.69,10.64
,-7.865,-1.685,-5.934,-8.203,-1.084,-5.788,-22.12,-122.85,13.86
,-7.956,-1.508,-5.925,-8.272,-1.058,-5.678,-18.48,-128.45,16.94
,-8.083,-1.414,-5.961,-8.385,-1.058,-5.511,-16.03,-133.84,19.53
1514.0,-8.564,-1.204,-5.257,-8.531,-1.517,-4.432,-19.81,-155.05,26.95
,-8.332,-1.034,-5.26,-8.775,-1.579,-3.666,-21.07,-158.2,27.72
,-8.062,-1.168,-5.307,-8.784,-1.374,-2.977,-20.72,-157.36,28.49
,-8.349,-1.383,-4.901,-8.311,-1.101,-2.505,-19.88,-156.03,28.0
1589.0,-8.284,-0.859,-1.869,-9.316,0.022,-1.029,-17.64,-147.84,20.58
,-8.203,-0.684,-1.187,-9.282,-0.005,-0.869,-19.46,-139.79,19.18
,-8.782,-0.488,-0.727,-8.847,-0.371,-0.431,-17.92,-130.83,17.22
,-9.119,-0.306,-0.885,-8.605,-0.759,-0.132,-19.39,-122.36,13.86
1665.0,-8.579,-0.952,0.232,-8.5,-0.354,0.589,-33.6,-70.42,-0.49
,-8.626,-0.928,0.352,-8.241,-0.313,0.517,-31.01,-57.47,-1.05
,-8.624,-0.756,0.615,-8.289,-0.11,0.299,-29.68,-44.94,-1.54
,-8.634,-0.388,0.414,-8.552,0.246,-0.163,-29.61,-32.34,-2.1
1741.0,-8.531,0.495,-0.491,-12.51,-2.991,1.273,-36.33,35.07,-0.7
,-8.543,0.419,-0.687,-15.396,-4.491,4.566,-41.02,46.83,-1.54
,-8.483,0.045,-0.818,-14.834,-2.388,2.809,-45.92,57.54,-1.61
,-9.347,-0.701,-0.704,-10.5,-0.663,0.826,-48.16,66.92,-1.19
1817.0,-8.413,-1.788,-0.079,-9.251,0.476,-2.62,-40.53,60.48,-2.24
,-9.186,-2.333,-0.318,-8.54,2.223,-2.781,-48.86,67.62,-1.33
,-10.201,-2.776,-0.799,-8.614,3.12,-3.197,-41.37,72.24,-1.61
,-10.313,-1.527,-2.003,-9.098,2.812,-3.984,-25.48,72.8,-0.56
1893.0,-8.818,1.754,-4.286,-9.895,-0.634,-3.702,-41.79,79.59,0.56
,-8.569,0.39,-3.92,-9.887,-0.239,-3.747,-43.47,77.7,1.82
,-9.052,-0.615,-3.527,-9.849,-0.124,-3.704,-33.25,74.41,1.75
,-9.567,-0.928,-3.546,-9.837,0.101,-3.398,-20.72,69.51,0.42
1968.0,-9.464,0.366,-3.149,-9.186,1.371,-4.812,0.14,57.4,6.93
,-8.983,0.514,-3.441,-9.404,0.842,-4.74,-2.03,54.46,5.6
,-8.638,0.952,-3.953,-9.411,0.002,-4.862,-7.42,51.31,1.61
,-8.935,1.452,-4.609,-9.366,-1.364,-4.401,-17.43,48.51,-2.38
2044.0,-9.378,-2.034,-4.125,-9.414,0.361,-3.838,-21.63,39.2,1.68
,-9.404,-1.472,-3.965,-9.476,0.747,-4.051,-3.22,38.57,4.13
,-9.397,-0.739,-3.829,-9.474,0.749,-4.307,9.59,38.01,6.72
,-9.378,-0.163,-3.695,-9.284,0.218,-4.417,15.61,37.03,7.98
2120.0,-9.124,-0.658,-4.417,-9.612,1.244,-4.247,-2.73,27.72,6.16
,-9.335,-0.962,-4.417,-9.311,1.318,-3.929,4.34,26.53,6.86
,-9.584,-0.371,-4.422,-9.363,0.847,-3.754,14.98,24.64,7.21
,-9.72,0.718,-4.36,-9.521,0.491,-3.824,20.79,22.75,6.93
2196.0,-9.634,0.373,-3.85,-9.402,0.651,-2.781,7.07,16.8,2.03
,-9.385,0.237,-3.704,-9.5,0.928,-2.419,10.15,16.66,1.54
,-9.198,0.22,-3.295,-9.411,0.95,-2.252,14.21,17.85,1.68
,-9.258,0.33,-3.113,-9.196,0.378,-1.919,17.64,18.69,1.82
2271.0,-9.299,0.022,-1.723,-9.21,0.249,-2.197,11.9,26.04,0.84
,-9.349,0.072,-1.665,-9.194,-0.05,-2.266,14.63,28.0,1.54
,-9.387,0.17,-1.783,-9.217,-0.16,-2.359,15.96,29.96,2.03
,-9.292,0.211,-1.919,-9.311,-0.112,-2.199,15.4,31.57,2.1
2347.0,-9.395,0.026,-2.436,-9.342,-0.306,-4.07,7.49,41.44,-0.63
,-9.438,0.237,-2.716,-9.258,-0.361,-4.391,5.74,42.84,-0.84
,-9.43,0.263,-3.099,-9.182,-0.57,-4.393,4.69,43.89,-1.26
,-9.371,0.005,-3.539,-9.234,-0.495,-4.319,1.26,45.15,-1.89
2422.0,-9.49,-0.043,-4.355,-10.072,-0.062,-4.171,7.77,49.56,-0.07
,-9.663,0.144,-4.116,-10.234,-0.325,-4.13,9.87,50.05,0.21
,-9.854,0.196,-4.087,-10.333,-0.388,-3.915,11.06,51.03,0.14
,-9.969,0.17,-4.087,-10.323,-0.01,-3.668,12.39,52.08,0.07
2498.0,-10.313,0.156,-3.546,-10.038,-0.313,-3.312,23.31,61.04,-4.76
,-10.187,-0.062,-3.47,-10.007,-0.191,-3.24,22.12,63.07,-6.58
,-10.11,-0.352,-3.415,-10.266,0.041,-3.185,22.96,65.8,-7.98
,-10.014,-0.421,-3.355,-10.876,1.251,-3.307,26.25,68.67,-8.82
2574.0,-12.249,3.111,-3.754,-10.598,-0.079,-0.873,37.52,79.52,-17.01
,-11.244,-0.019,-3.005,-10.364,-0.333,-0.823,21.14,84.14,-21.28
,-10.33,-3.254,-1.756,-10.12,-1.639,-0.605,18.27,93.03,-20.58
,-10.802,-1.931,-0.976,-10.151,-1.764,-0.723,34.3,97.51,-16.31
2650.0,-10.78,-1.414,0.079,-11.589,-1.35,0.038,45.29,128.8,-6.23
,-11.579,-1.522,1.316,-10.78,-0.51,-1.721,57.05,137.34,-1.47
,-11.754,-2.139,1.776,-10.476,0.175,-3.764,63.98,145.11,3.15
,-11.761,-2.197,1.773,-10.294,0.57,-5.169,73.57,152.25,10.29
2725.0,-10.854,1.031,-7.119,-10.388,0.876,-9.459,67.34,150.36,10.29
,-11.704,0.62,-8.452,-9.385,1.551,-9.742,56.84,146.37,8.47
,-11.792,-0.424,-8.902,-8.691,1.254,-10.223,43.47,141.47,7.07
,-11.211,-0.148,-9.072,-7.176,0.031,-10.751,44.66,134.75,5.39
2801.0,-6.327,-0.754,-11.366,-6.303,-0.78,-10.409,7.84,64.26,10.22
,-6.056,-1.046,-11.208,-5.767,-1.043,-10.045,7.42,55.37,10.92
,-6.312,-0.993,-10.948,-6.047,-1.0,-9.16,7.21,41.72,13.44
,-6.822,-0.715,-10.412,-5.75,-1.206,-9.131,6.44,21.98,17.78
2877.0,-4.989,-1.603,-9.299,-3.534,-1.876,-8.823,-11.06,-73.5,33.74
,-4.697,-1.74,-9.016,-3.049,-1.955,-8.653,-12.25,-88.69,35.98
,-4.47,-1.706,-8.93,-3.163,-2.29,-7.832,-13.23,-104.3,39.34
,-4.075,-1.713,-8.868,-3.577,-2.075,-8.031,-16.45,-120.19,43.12
2953.0,-3.692,-1.869,-8.236,-3.565,-1.888,-7.985,-14.21,-185.08,51.59
,-3.762,-1.692,-8.138,-3.731,-2.027,-8.071,-17.08,-195.51,53.97
,-4.039,-1.649,-7.746,-4.034,-2.221,-8.452,-22.12,-206.08,56.35
,-3.817,-1.716,-7.911,-4.018,-2.388,-8.519,-26.81,-217.56,58.31
3029.0,-4.592,-2.12,-8.851,-6.382,-1.314,-8.373,-22.26,-266.63,54.6
,-4.515,-1.728,-9.21,-6.801,-1.292,-8.279,-16.94,-272.72,52.08
,-5.386,-1.266,-8.952,-7.27,-1.35,-7.875,-14.84,-278.11,48.93
,-5.741,-0.967,-9.299,-7.631,-1.048,-6.963,-15.96,-284.97,45.29
3104.0,-7.676,-0.864,-5.908,-10.964,-0.115,-2.965,-29.68,-297.78,19.81
,-8.469,-0.766,-4.748,-10.876,0.462,-2.266,-29.47,-289.03,15.61
,-9.562,-0.694,-4.082,-9.974,0.33,-1.591,-25.13,-276.99,10.22
,-10.593,-0.735,-3.149,-9.067,-0.787,-1.809,-22.47,-264.18,3.64
3180.0,-7.748,-3.147,-0.316,-7.318,0.287,3.745,-50.96,-159.04,-9.94
,-7.327,-3.609,2.69,-7.588,0.861,2.527,-31.08,-124.11,-3.57
,-7.346,-2.52,3.687,-7.487,1.405,1.302,-7.28,-91.14,0.14
,-7.42,-1.046,4.061,-7.583,2.127,-0.098,4.69,-57.61,2.52
3256.0,-7.612,2.29,-1.792,-24.369,-8.55,7.198,-42.42,98.07,-2.31
,-7.662,1.9,-3.498,-15.738,-1.809,-0.306,-58.31,119.14,-4.48
,-8.82,0.256,-4.695,-8.093,1.082,-3.285,-70.07,133.84,-5.25
,-15.178,-5.631,-2.288,-9.533,-4.037,-1.472,-76.37,129.64,-0.07
3332.0,-9.806,-5.528,-3.314,-10.443,2.204,-6.559,-32.06,101.64,3.99
,-6.384,-3.235,-5.039,-8.09,2.893,-7.722,-1.96,99.33,7.7
,-6.08,-1.431,-3.726,-6.963,2.986,-8.033,20.51,105.49,14.84
,-9.67,0.431,-4.958,-7.72,1.426,-8.358,32.34,106.33,18.69
3407.0,-8.926,-0.665,-6.872,-9.56,0.397,-2.84,-24.64,88.13,-1.19
,-9.366,-1.472,-5.441,-8.722,1.263,-3.451,-23.73,81.83,-1.68
,-10.881,-1.383,-3.577,-9.261,1.445,-3.577,-16.87,75.67,3.36
,-10.562,-1.163,-2.991,-9.275,2.142,-3.711,-4.62,69.51,8.26
3483.0,-9.167,2.273,-3.68,-9.548,0.287,-3.673,5.32,58.87,9.1
,-9.753,1.855,-3.58,-9.533,0.656,-4.116,1.82,54.88,8.12
,-9.878,1.347,-3.656,-9.531,1.359,-4.683,-2.17,51.03,6.86
,-9.588,0.727,-3.676,-9.55,1.486,-4.884,-3.57,49.28,6.44
3558.0,-9.576,0.711,-4.908,-9.366,-0.4,-4.133,5.53,40.67,3.71
,-9.639,0.189,-4.757,-9.411,0.084,-3.757,4.48,37.8,3.71
,-9.249,-0.196,-4.726,-9.34,0.613,-3.501,7.49,34.51,4.2
,-9.196,-0.529,-4.551,-9.445,1.022,-3.319,12.95,32.97,4.41
3634.0,-9.555,1.321,-3.254,-9.06,0.565,-3.446,24.5,28.42,4.9
,-9.459,1.297,-3.257,-9.052,0.196,-3.276,20.37,27.72,3.99
,-9.397,1.225,-3.352,-9.182,0.459,-3.089,16.94,27.51,3.36
,-9.332,1.007,-3.472,-9.184,1.106,-2.936,14.49,27.37,3.15
3710.0,-9.074,1.519,-2.879,-9.057,1.646,-2.986,18.76,31.5,2.59
,-9.0,1.862,-2.749,-9.031,1.101,-3.017,12.53,32.2,1.61
,-9.083,1.96,-2.587,-8.88,0.495,-3.369,5.04,32.55,0.35
,-9.076,1.907,-2.757,-8.899,-0.376,-3.668,-2.8,32.62,-1.12
3786.0,-9.186,-1.314,-3.64,-9.225,-0.438,-3.173,-3.85,38.99,0.56
,-9.395,-1.773,-3.616,-9.337,-0.849,-2.881,8.19,41.37,1.89
,-9.466,-1.486,-3.427,-9.543,-0.95,-2.845,18.55,43.33,3.43
,-9.275,-0.581,-3.195,-10.105,-0.235,-2.668,23.03,44.59,5.25
3861.0,-10.239,1.517,-2.639,-10.045,1.053,-2.496,19.39,50.47,5.11
,-9.94,1.744,-2.142,-10.103,0.771,-2.96,9.03,52.29,3.92
,-10.012,1.469,-2.029,-10.012,0.29,-3.51,0.42,53.76,2.03
,-9.904,1.199,-2.063,-10.031,0.153,-4.046,-1.47,56.49,1.33
3937.0,-10.127,-0.282,-4.286,-11.862,2.23,-3.666,9.94,69.44,-1.47
,-10.337,-0.287,-4.188,-11.498,0.665,-2.747,15.26,72.31,-2.87
,-10.629,0.115,-4.011,-10.933,-1.359,-1.694,20.51,74.83,-4.55
,-11.163,1.043,-3.898,-11.613,-0.842,-0.747,23.59,77.07,-6.79
4013.0,-11.972,0.524,-0.526,-11.347,-3.582,-0.062,32.97,100.03,-12.67
,-11.996,0.184,-0.433,-11.412,-3.161,0.998,27.58,105.21,-14.7
,-11.584,-1.589,-0.337,-12.288,-3.321,2.292,18.83,111.65,-16.59
,-11.273,-3.314,0.014,-12.766,-2.864,3.144,18.69,119.98,-15.47
4089.0,-12.551,-2.848,3.384,-10.66,1.297,-4.637,94.64,167.65,7.42
,-12.213,-2.003,1.804,-11.01,1.646,-6.865,100.59,173.25,12.25
,-11.697,-0.503,-0.67,-11.673,0.524,-8.447,103.46,174.93,16.38
,-11.055,0.921,-3.065,-12.522,-0.558,-8.119,101.43,173.32,15.61
4165.0,-12.529,0.084,-8.952,-7.753,0.0,-11.431,64.33,153.79,5.46
,-11.101,0.933,-8.784,-7.827,-1.01,-11.594,54.04,134.89,2.38
,-10.172,2.149,-10.72,-6.942,-0.529,-11.979,39.69,111.02,0.0
,-8.437,1.531,-11.57,-4.815,-0.239,-12.864,27.02,92.89,1.61
4240.0,-4.762,-0.565,-11.943,-4.587,-0.22,-10.06,20.02,28.14,10.99
,-6.222,-0.17,-10.431,-3.714,-1.127,-10.211,19.74,10.92,11.34
,-6.628,0.081,-9.861,-2.754,-1.855,-10.031,14.77,-17.08,12.39
,-5.762,0.194,-9.954,-2.314,-1.764,-9.703,5.18,-46.97,14.42
4316.0,-2.168,-1.555,-9.469,-1.572,-1.45,-8.871,-4.2,-139.37,28.7
,-2.285,-1.673,-8.966,-1.575,-1.852,-9.048,-5.53,-155.89,30.38
,-2.386,-1.735,-8.282,-1.957,-1.668,-8.753,-7.56,-173.53,31.85
,-2.075,-1.551,-8.555,-2.687,-1.074,-8.354,-8.47,-191.73,31.78
4391.0,-2.936,-0.306,-8.894,-4.006,-2.017,-8.804,-11.2,-256.62,35.7
,-3.245,-0.091,-8.768,-4.716,-2.053,-9.107,-25.76,-269.36,37.1
,-3.374,-0.28,-9.545,-4.992,-1.744,-9.598,-40.88,-282.03,37.66
,-3.022,-1.189,-9.612,-5.365,-1.543,-9.371,-44.66,-289.1,38.29
4467.0,-6.368,-1.117,-9.198,-8.526,-0.479,-6.212,-25.48,-315.77,22.68
,-6.64,-0.175,-9.304,-9.215,-1.156,-4.728,-24.01,-316.75,21.21
,-7.504,0.196,-9.277,-10.062,-0.491,-3.336,-27.93,-314.23,19.74
,-8.026,0.048,-7.813,-11.505,-0.28,-2.532,-37.17,-308.21,17.71
4543.0,-11.39,0.421,-1.967,-6.147,-3.546,2.907,-9.87,-238.7,-5.6
,-9.399,0.452,-1.943,-6.695,-1.649,3.214,-25.69,-214.06,-8.19
,-7.913,-1.618,-0.445,-6.6,0.179,3.293,-42.98,-181.51,-5.88
,-7.088,-3.434,-0.266,-6.647,1.591,2.924,-47.25,-147.7,-2.66
4619.0,-6.557,2.338,1.716,-21.352,-6.442,5.166,-12.39,38.71,5.18
,-6.935,2.302,0.026,-16.554,-3.786,0.893,-32.76,69.58,1.19
,-8.598,1.199,-1.771,-7.195,-0.952,-1.658,-54.18,94.01,-1.75
,-14.604,-2.319,-2.62,-5.927,-3.929,-1.256,-73.22,101.08,-1.75
4694.0,-9.854,-6.329,-0.689,-8.066,2.338,-7.459,-57.68,112.98,5.53
,-12.948,-3.144,-2.611,-7.794,0.66,-7.502,-13.79,113.4,10.08
,-10.519,2.345,-6.114,-7.31,1.613,-7.164,12.88,113.4,10.08
,-7.7,4.011,-6.994,-7.712,2.496,-6.987,5.88,120.05,12.04
4770.0,-8.725,1.596,-6.717,-10.177,-1.955,-3.388,-34.79,87.99,-0.35
,-9.653,0.672,-6.241,-9.804,-1.096,-3.403,-36.61,84.14,-5.25
,-9.373,-0.503,-5.248,-9.308,-0.043,-3.072,-36.54,77.0,-7.0
,-9.564,-1.429,-4.262,-8.753,-0.275,-3.041,-32.55,71.12,-4.62
4845.0,-9.007,-0.668,-3.166,-9.665,0.646,-4.322,-23.94,60.48,3.92
,-9.009,-0.227,-3.568,-9.517,0.615,-4.123,-18.34,58.8,5.04
,-9.241,0.809,-4.08,-9.43,0.397,-4.037,-12.81,57.05,5.6
,-9.608,0.792,-4.255,-9.488,0.335,-3.965,-10.29,54.95,6.3
4921.0,-9.335,0.562,-4.118,-9.519,0.258,-4.781,1.19,43.19,5.88
,-9.426,0.462,-4.329,-9.33,0.517,-4.917,-0.98,41.44,5.81
,-9.715,0.361,-4.57,-9.215,0.467,-5.02,-2.94,38.78,5.32
,-9.624,0.146,-4.681,-9.155,0.23,-4.8,-3.36,35.91,4.41
4997.0,-9.313,0.055,-4.413,-9.282,0.146,-3.699,1.75,23.8,2.31
,-9.55,0.158,-4.113,-9.299,-0.045,-3.503,2.87,22.26,2.24
,-9.485,0.165,-3.905,-9.375,-0.297,-3.41,3.22,20.3,1.75
,-9.296,0.357,-3.857,-9.33,-0.278,-3.324,2.66,19.32,1.61
5073.0,-9.261,-0.05,-3.297,-9.392,-0.474,-2.934,5.25,19.46,2.31
,-9.287,0.115,-3.319,-9.517,0.048,-3.044,6.51,19.6,2.66
,-9.241,0.06,-3.259,-9.373,0.742,-3.101,6.51,20.09,2.45
,-9.15,-0.299,-3.123,-9.347,0.876,-3.01,6.72,21.21,2.66
5149.0,-9.328,0.498,-3.061,-9.349,0.457,-2.769,3.99,24.43,1.96
,-9.344,-0.117,-2.883,-9.253,0.62,-2.706,3.15,26.67,2.24
,-9.256,-0.263,-2.824,-9.22,0.079,-2.52,6.65,28.49,3.08
,-9.273,0.036,-2.702,-9.072,-0.337,-2.501,9.73,29.47,3.5
5224.0,-9.124,-0.371,-2.395,-10.014,0.976,-2.213,11.34,37.94,3.99
,-9.337,-0.038,-2.307,-9.94,0.854,-2.491,13.93,39.9,4.2
,-9.533,0.316,-2.18,-9.995,0.428,-2.795,14.07,42.0,4.13
,-9.823,0.538,-2.079,-10.108,0.237,-3.319,13.58,44.45,3.78
5300.0,-10.306,-0.112,-3.63,-10.223,-0.969,-3.774,19.81,54.6,1.4
,-10.426,-0.426,-3.757,-10.242,-0.909,-3.678,22.54,56.49,0.14
,-10.529,-0.634,-3.824,-10.278,-0.79,-3.453,24.78,58.24,-1.4
,-10.388,-0.914,-3.786,-10.301,-0.376,-3.161,25.83,59.92,-2.87
5376.0,-10.072,-0.057,-2.974,-10.385,-0.737,-2.718,30.8,70.35,-8.96
,-10.244,0.199,-2.982,-10.201,-2.69,-1.843,30.24,72.87,-10.15
,-11.237,2.778,-3.228,-10.357,-1.005,-1.792,33.67,74.13,-12.04
,-11.646,2.728,-3.508,-10.44,-0.254,-1.811,24.08,74.76,-17.29
5452.0,-10.144,-1.244,-1.723,-9.548,-2.376,-1.094,32.27,98.98,-13.44
,-9.675,-2.264,-1.967,-10.366,-2.233,-0.132,31.5,104.72,-13.79
,-9.82,-2.474,-1.969,-10.806,-1.823,0.792,38.15,109.62,-12.95
,-9.892,-2.292,-1.969,-10.816,-1.366,0.579,45.71,114.17,-12.11
5527.0,-10.584,-1.228,-0.034,-8.866,-0.847,-6.08,78.4,142.94,9.87
,-10.311,-0.995,-1.364,-9.675,-0.608,-7.574,73.36,143.85,15.05
,-9.679,-0.663,-3.384,-10.323,-1.027,-8.344,67.69,143.08,17.22
,-9.174,-0.57,-5.171,-10.656,-1.098,-8.583,62.93,141.89,16.31
5603.0,-10.412,-0.122,-9.421,-6.219,-1.144,-10.342,55.72,120.26,11.13
,-9.395,0.998,-9.476,-6.382,-1.68,-10.457,47.81,106.33,10.22
,-7.865,1.352,-10.275,-5.788,-1.634,-10.514,36.68,92.61,11.27
,-6.406,-0.048,-10.388,-5.954,-1.003,-10.069,21.21,83.72,10.85
5678.0,-5.934,-0.455,-9.627,-4.235,-0.526,-8.906,49.42,17.92,23.38
,-5.607,0.081,-9.261,-3.417,-0.792,-9.378,43.19,-2.73,25.97
,-5.322,0.096,-8.854,-3.204,-0.888,-9.402,29.82,-25.62,28.28
,-4.659,-0.376,-8.787,-3.386,-0.979,-9.318,15.47,-48.3,29.26
5754.0,-3.656,-1.031,-8.811,-4.152,-0.436,-9.251,-15.19,-126.28,29.68
,-3.757,-1.06,-8.758,-4.276,-0.625,-9.765,-15.4,-143.99,27.72
,-3.745,-0.826,-8.938,-4.381,-1.139,-9.404,-17.5,-160.23,26.74
,-3.836,-0.526,-8.947,-4.891,-1.977,-9.002,-21.7,-173.25,26.6
5830.0,-4.901,-2.785,-8.679,-6.832,-2.486,-8.409,-49.07,-220.99,33.11
,-4.96,-3.403,-8.748,-7.093,-1.711,-8.509,-42.98,-228.48,32.13
,-5.351,-3.329,-9.081,-6.805,-1.196,-8.801,-32.69,-235.41,30.87
,-6.085,-2.824,-8.969,-7.346,-0.986,-8.485,-19.88,-240.1,30.24
5906.0,-7.944,-0.885,-8.153,-7.777,-3.367,-5.616,-25.97,-252.7,35.91
,-7.894,-0.993,-8.172,-8.016,-3.391,-4.956,-34.3,-251.51,36.75
,-7.523,-1.965,-7.193,-8.105,-2.654,-4.314,-39.62,-246.4,37.17
,-7.471,-2.852,-6.219,-8.251,-1.51,-3.951,-35.77,-238.21,35.63
5981.0,-8.787,-0.517,-3.465,-7.894,0.433,-1.299,63.98,-180.67,31.22
,-9.241,0.388,-2.565,-7.684,-0.859,-0.79,64.96,-168.98,29.82
,-9.06,0.988,-2.314,-8.055,-2.106,-0.199,53.62,-157.01,27.09
,-8.634,0.995,-1.673,-8.279,-2.331,0.06,37.38,-144.62,24.15
6057.0,-7.961,-1.61,0.086,-7.906,0.785,-0.589,40.6,-54.88,24.71
,-7.734,-1.003,0.103,-7.99,1.263,-0.773,46.62,-36.61,23.52
,-7.739,-0.546,0.103,-8.138,1.378,-1.074,50.19,-18.41,22.12
,-7.861,-0.077,-0.115,-8.416,1.079,-1.22,49.84,-2.24,19.88
6133.0,-8.777,0.751,-1.414,-15.037,0.364,1.493,-15.26,54.88,2.38
,-10.826,-0.574,-1.397,-7.909,0.68,-0.01,-29.12,59.43,-0.07
,-15.894,-4.173,1.594,-6.908,-1.96,2.536,-39.9,51.66,-0.07
,-18.174,-3.475,5.166,-11.357,-1.4,0.718,-15.47,43.12,4.83
6209.0,-12.237,-0.804,-1.393,-9.275,-0.979,-4.879,-79.17,67.69,-5.25
,-12.204,-0.261,-1.618,-6.913,-2.702,-4.719,-59.57,83.02,-7.35
,-10.89,-0.318,-2.548,-6.992,-3.317,-4.929,-57.12,91.42,-9.31
,-10.629,-0.637,-4.118,-8.265,-2.694,-5.592,-60.2,91.98,-10.22
6285.0,-8.708,-1.05,-5.023,-9.598,3.451,-2.893,26.39,64.61,3.43
,-9.493,0.55,-4.396,-8.686,0.857,-2.68,48.16,58.52,8.19
,-10.148,1.67,-3.637,-9.148,-1.565,-2.496,55.3,52.43,7.49
,-10.273,3.922,-3.063,-9.734,-2.338,-2.257,36.61,46.97,2.03
6360.0,-9.959,-1.859,-1.948,-9.801,0.991,-2.06,-4.9,40.6,-0.35
,-9.631,-0.041,-1.665,-9.887,1.567,-2.3,6.02,38.71,1.19
,-9.452,1.261,-1.665,-9.541,1.503,-2.532,5.6,37.94,2.45
,-9.392,1.039,-1.898,-9.555,1.115,-2.692,1.05,38.43,2.52
6436.0,-9.572,0.881,-2.986,-9.363,-0.182,-3.922,-13.44,33.11,-1.96
,-9.72,0.778,-3.451,-9.423,-0.361,-3.855,-11.06,31.78,-2.38
,-9.715,0.62,-3.632,-9.457,-0.282,-3.948,-10.92,29.19,-2.52
,-9.416,0.4,-3.905,-9.474,-0.325,-3.891,-10.64,26.95,-2.24
6511.0,-9.404,-0.254,-3.877,-9.572,-0.201,-3.843,8.19,20.93,0.21
,-9.435,-0.369,-3.888,-9.519,0.007,-3.912,11.76,19.88,0.7
,-9.392,-0.457,-3.795,-9.366,0.019,-3.92,15.54,18.83,1.4
,-9.474,-0.352,-3.812,-9.373,0.029,-3.814,19.6,17.43,1.96
6587.0,-9.636,-0.036,-3.63,-9.603,0.103,-2.982,28.49,9.24,2.31
,-9.545,-0.115,-3.527,-9.517,0.371,-2.893,29.54,8.33,2.03
,-9.435,-0.215,-3.336,-9.552,0.553,-2.826,30.24,7.7,2.31
,-9.433,-0.096,-3.087,-9.538,0.328,-2.778,32.48,7.35,2.38
6663.0,-9.354,-0.172,-2.603,-9.653,0.675,-2.469,38.36,7.77,2.45
,-9.373,-0.388,-2.333,-9.519,0.474,-2.448,41.58,8.75,3.08
,-9.612,-0.069,-2.324,-9.423,-0.096,-2.331,46.62,9.38,3.22
,-9.804,0.309,-2.297,-9.502,-0.256,-2.304,49.21,9.24,2.73
6739.0,-9.777,-0.156,-2.326,-9.567,0.132,-3.204,48.93,11.13,1.47
,-9.682,0.17,-2.51,-9.555,-0.096,-3.345,49.7,11.06,0.7
,-9.509,0.29,-2.733,-9.356,-0.352,-3.221,48.51,11.34,-0.07
,-9.569,0.251,-2.991,-9.373,-0.4,-3.156,46.62,11.76,-0.98
6814.0,-9.452,-0.349,-3.072,-9.423,-0.627,-2.721,58.31,14.35,-1.54
,-9.34,-0.57,-3.106,-9.493,-0.361,-2.63,60.48,15.12,-1.26
,-9.27,-0.756,-2.936,-9.682,-0.026,-2.651,63.21,16.31,-0.42
,-9.323,-0.778,-2.886,-9.799,0.33,-2.934,67.41,16.8,0.0
6890.0,-9.78,0.57,-3.309,-9.438,0.589,-4.183,65.73,16.94,-3.36
,-9.732,0.718,-3.731,-9.438,0.309,-4.123,61.32,15.96,-4.83
,-9.691,0.749,-3.991,-9.438,-0.06,-3.879,57.33,14.77,-6.44
,-9.572,0.744,-4.166,-9.308,-0.656,-3.494,53.76,13.16,-8.05
6965.0,-9.189,-1.285,-3.288,-9.619,-1.309,-2.678,41.23,10.43,-12.95
,-9.122,-1.742,-2.986,-9.782,-1.022,-2.716,43.61,10.92,-13.3
,-9.22,-1.716,-2.864,-10.172,-0.986,-3.125,47.81,11.13,-13.44
,-9.56,-1.665,-2.764,-10.656,-1.074,-3.944,51.31,11.41,-13.09
7041.0,-10.529,-1.117,-4.886,-9.201,-2.52,-5.587,54.53,10.99,-9.1
,-10.266,-1.268,-5.453,-9.115,-2.123,-5.243,56.7,9.1,-7.07
,-10.002,-1.732,-5.891,-9.146,-1.653,-5.027,60.97,7.14,-5.46
,-9.567,-2.589,-5.922,-9.335,-1.527,-4.836,67.83,4.83,-3.29
7117.0,-9.462,-1.608,-4.585,-9.177,-0.921,-3.709,99.75,-10.01,7.49
,-9.641,-1.524,-4.369,-8.473,-1.074,-3.793,98.91,-13.51,8.12
,-9.672,-1.058,-4.113,-8.019,-1.354,-4.2,96.46,-17.22,9.38
,-9.55,-0.919,-3.886,-7.952,-2.352,-4.262,90.86,-20.72,10.36
7193.0,-8.019,-3.252,-4.633,-8.014,-1.668,-5.358,110.25,-6.72,30.52
,-8.007,-3.745,-4.759,-8.004,-1.508,-5.394,128.87,-1.96,38.36
,-7.755,-3.592,-4.659,-7.83,-1.756,-4.905,151.48,3.08,47.53
,-8.277,-2.316,-4.953,-7.533,-2.173,-4.903,176.82,8.68,56.28
7269.0,-7.42,-2.283,-4.494,-8.526,-1.941,-3.798,227.64,30.45,84.98
,-7.538,-2.371,-4.087,-8.765,-2.041,-3.372,239.19,33.25,87.78
,-7.961,-2.111,-4.042,-8.753,-2.245,-2.797,250.11,34.65,88.13
,-8.33,-1.78,-4.24,-8.839,-2.307,-2.682,256.62,35.91,86.45
7344.0,-8.952,-2.266,-2.663,-9.048,-2.733,-2.864,242.55,41.79,70.49
,-9.282,-2.381,-2.807,-9.409,-2.596,-2.795,231.7,38.57,67.69
,-9.22,-2.4,-2.802,-9.67,-2.541,-2.74,220.5,35.28,64.75
,-8.957,-2.668,-2.833,-9.698,-2.209,-2.668,209.65,34.37,61.74
7420.0,-9.943,-1.754,-2.57,-9.732,-0.962,-3.025,192.99,31.71,43.19
,-10.134,-1.407,-2.367,-9.73,-1.283,-2.845,185.29,28.07,38.36
,-10.132,-0.912,-2.807,-9.89,-1.498,-2.702,175.28,23.66,33.11
,-9.897,-0.735,-2.97,-9.844,-1.61,-2.642,164.5,19.11,28.21
7496.0,-9.811,-1.603,-2.393,-9.926,-0.897,-2.106,141.12,-6.23,18.55
,-9.698,-1.405,-2.498,-9.861,-0.519,-2.12,142.24,-12.04,16.94
,-9.605,-1.211,-2.424,-9.624,-0.124,-1.96,144.41,-15.82,15.61
,-9.768,-1.161,-2.163,-9.45,0.261,-1.831,146.93,-18.76,14.98
7572.0,-9.409,0.258,-1.788,-9.189,0.168,-1.993,147.91,-32.76,11.48
,-9.442,0.012,-1.828,-8.93,0.242,-1.972,145.11,-33.46,11.34
,-9.462,-0.108,-1.922,-9.024,0.208,-1.665,144.06,-34.09,12.11
,-9.421,-0.12,-1.866,-9.162,0.34,-1.352,144.06,-35.49,12.88
7647.0,-9.404,0.56,-1.297,-9.067,0.349,-0.912,146.02,-31.99,16.38
,-9.38,0.84,-1.06,-9.079,0.132,-0.907,144.9,-30.1,16.94
,-9.273,0.905,-1.074,-9.165,0.048,-0.797,141.05,-27.72,17.29
,-9.117,0.677,-0.936,-9.251,0.165,-0.701,136.71,-23.87,18.06
7723.0,-8.983,0.493,-0.778,-8.99,0.663,-0.634,129.85,-4.76,24.5
,-8.849,0.737,-0.775,-8.926,0.905,-0.591,125.86,-0.28,25.06
,-8.832,0.637,-0.668,-8.918,1.34,-0.66,121.38,5.25,25.76
,-8.868,0.526,-0.553,-8.782,1.642,-0.711,118.02,11.34,26.74
7798.0,-8.648,1.496,-0.78,-14.001,-1.469,0.436,83.3,38.36,24.92
,-8.567,1.316,-0.967,-15.142,-3.618,5.049,75.46,44.66,25.48
,-9.203,1.426,-0.933,-14.111,-0.804,5.092,67.55,48.02,25.83
,-10.897,1.082,-0.89,-11.809,1.261,1.955,57.4,46.34,25.55
7874.0,-10.366,0.771,1.589,-10.634,-0.902,-0.881,-5.81,16.31,13.72
,-10.079,-0.457,1.639,-9.624,-1.187,-2.395,-33.67,23.03,13.72
,-9.024,-1.309,0.713,-9.139,-2.18,-3.104,-45.5,32.76,12.04
,-9.713,-1.18,0.019,-8.808,-2.893,-3.953,-41.3,45.57,12.88
7950.0,-8.701,-2.431,-5.339,-9.304,-0.701,-5.183,-7.14,54.04,20.02
,-8.457,-2.139,-6.152,-9.78,0.096,-4.714,4.76,51.59,21.21
,-8.454,-1.945,-6.25,-10.005,1.05,-4.118,17.78,50.61,24.29
,-8.825,-1.407,-5.769,-10.079,1.503,-3.857,30.94,48.44,27.16
8026.0,-9.768,1.594,-3.563,-9.418,0.517,-2.917,27.51,30.24,24.15
,-9.407,1.302,-3.001,-9.44,0.313,-2.804,16.03,28.42,21.91
,-9.383,1.156,-2.706,-9.66,0.098,-2.917,7.28,26.88,19.39
,-9.505,0.928,-2.893,-9.517,-0.519,-2.936,-1.4,24.71,16.59
8101.0,-9.332,-1.019,-2.809,-9.481,0.531,-3.357,-16.03,21.63,17.29
,-9.5,-0.981,-2.967,-9.557,0.512,-3.23,-5.25,22.75,18.2
,-9.718,-0.421,-3.247,-9.61,0.443,-3.408,4.83,22.75,18.27
,-9.703,0.187,-3.302,-9.541,0.498,-3.513,9.66,21.98,18.97
8177.0,-9.579,0.637,-3.582,-9.495,0.191,-3.9,8.54,16.8,18.41
,-9.818,0.601,-3.664,-9.416,0.041,-3.896,8.96,15.19,17.5
,-9.629,0.512,-3.817,-9.49,0.136,-3.81,10.08,13.65,16.73
,-9.605,0.424,-3.85,-9.55,0.507,-3.733,13.37,12.74,16.52
8253.0,-9.576,0.919,-3.343,-9.414,0.665,-2.017,33.32,9.87,15.47
,-9.512,1.28,-3.082,-9.524,0.663,-1.912,32.41,9.31,14.63
,-9.43,1.283,-2.73,-9.608,1.11,-1.888,29.19,9.24,13.93
,-9.354,1.036,-2.395,-9.586,1.433,-2.041,27.09,10.15,13.79
8329.0,-9.526,1.512,-2.273,-9.39,-0.089,-2.45,27.44,14.07,12.04
,-9.414,1.11,-2.391,-9.32,0.328,-2.458,21.07,14.63,10.99
,-9.27,0.347,-2.417,-9.402,0.704,-2.474,16.45,15.75,10.57
,-9.22,-0.177,-2.383,-9.471,0.881,-2.395,16.87,17.01,10.78
8405.0,-9.43,0.742,-2.402,-9.354,0.675,-2.486,13.3,21.77,10.43
,-9.349,0.625,-2.335,-9.373,0.914,-2.522,10.92,22.47,9.94
,-9.407,0.567,-2.391,-9.416,1.053,-2.508,9.87,23.24,9.45
,-9.383,0.522,-2.448,-9.306,0.936,-2.618,9.1,24.22,9.24
8480.0,-9.275,0.648,-2.752,-9.229,0.369,-3.257,2.1,28.84,7.63
,-9.174,0.172,-2.936,-9.031,0.103,-3.154,1.96,30.24,7.56
,-9.194,-0.038,-3.02,-9.057,-0.06,-2.941,4.27,31.36,8.05
,-9.284,0.208,-3.271,-9.162,0.038,-2.716,6.93,32.2,8.26
8556.0,-9.239,0.433,-2.754,-8.973,0.495,-3.616,11.48,38.92,10.22
,-9.32,0.641,-2.771,-9.062,0.605,-3.92,10.85,39.69,10.29
,-9.095,0.72,-3.003,-9.244,0.646,-4.221,9.03,40.46,10.36
,-8.961,0.677,-3.3,-9.574,0.759,-4.697,7.84,41.51,10.57
8631.0,-9.368,0.512,-5.078,-9.39,0.223,-5.305,12.18,45.08,12.53
,-9.337,0.062,-5.346,-9.526,0.311,-5.054,15.33,45.78,13.51
,-9.222,-0.077,-5.525,-9.825,0.503,-4.712,20.72,46.06,14.7
,-9.258,-0.012,-5.475,-9.777,0.89,-4.448,27.37,46.69,16.03
8707.0,-9.873,0.905,-4.104,-9.703,0.589,-3.448,35.49,48.72,13.16
,-9.978,1.053,-3.917,-9.615,0.409,-3.266,32.06,48.72,11.83
,-9.964,1.132,-3.865,-9.574,0.481,-3.142,29.19,49.49,11.2
,-9.818,0.893,-3.647,-9.785,0.909,-3.34,26.74,51.52,11.06
8783.0,-11.218,4.267,-3.211,-10.462,-1.586,-1.575,37.8,65.38,8.33
,-11.831,3.46,-3.549,-10.526,0.101,-1.898,22.75,65.94,1.19
,-9.914,-1.673,-2.661,-10.148,-0.778,-1.972,3.36,73.64,-1.68
,-9.897,-4.183,-1.67,-9.789,-2.173,-1.821,11.69,82.32,2.73
8859.0,-9.983,-2.419,-1.967,-10.986,-2.922,-0.053,32.13,105.91,9.52
,-10.388,-2.388,-1.598,-11.266,-2.936,0.045,40.32,111.02,12.04
,-10.591,-2.381,-1.141,-11.125,-2.446,-0.976,49.77,116.62,15.26
,-10.948,-2.534,-0.397,-10.737,-2.24,-2.723,61.74,124.11,18.9
8934.0,-9.852,-2.309,-4.113,-11.407,-0.127,-8.641,101.57,144.41,35.49
,-9.825,-1.285,-5.322,-11.397,-0.51,-9.165,110.53,146.72,36.05
,-10.392,-0.251,-6.908,-10.27,-0.56,-9.143,112.28,146.93,33.95
,-10.833,0.086,-7.889,-10.23,-0.773,-10.115,103.6,145.74,31.08
9010.0,-9.167,0.081,-9.964,-6.274,-0.993,-11.204,73.43,90.51,22.54
,-7.875,0.213,-10.318,-6.662,-0.866,-10.457,66.29,70.49,25.55
,-6.679,-0.823,-10.835,-7.806,-0.287,-9.395,55.37,56.07,26.46
,-6.348,-0.909,-10.931,-7.636,0.282,-9.481,50.19,47.11,27.3
9086.0,-6.7,0.153,-9.474,-3.824,-0.62,-9.811,29.82,-27.02,38.64
,-6.155,-0.27,-9.182,-3.565,-1.254,-9.076,16.03,-46.55,40.46
,-5.604,-0.665,-9.012,-3.716,-1.5,-8.758,5.53,-66.43,44.17
,-4.635,-1.055,-9.05,-3.618,-1.795,-8.509,-1.82,-83.51,49.35
9162.0,-3.659,-1.898,-8.519,-3.994,-1.596,-8.002,1.12,-145.46,58.31
,-3.589,-1.953,-8.031,-4.013,-1.498,-8.11,9.24,-156.38,57.12
,-3.754,-2.017,-7.851,-4.075,-1.582,-7.779,18.27,-169.19,55.16
,-3.805,-1.814,-8.074,-4.08,-1.505,-8.203,23.03,-181.93,54.46
9238.0,-3.704,-1.63,-8.318,-5.942,0.215,-7.418,35.21,-231.28,56.35
,-4.128,-1.677,-8.39,-6.413,0.694,-7.396,37.94,-237.72,56.49
,-4.353,-1.445,-8.332,-6.837,0.225,-7.363,41.86,-242.83,55.51
,-5.169,-0.945,-7.43,-6.772,-0.737,-7.399,45.5,-246.54,53.76
9313.0,-6.494,-1.754,-7.27,-8.619,0.486,-5.518,-14.91,-259.21,42.07
,-7.145,-1.912,-6.413,-8.287,0.491,-3.697,-10.15,-255.78,37.24
,-7.877,-1.055,-6.569,-8.799,0.361,-3.128,-3.08,-254.31,32.55
,-8.478,-0.359,-5.915,-9.418,0.227,-3.01,-3.01,-251.3,29.19
9389.0,-9.938,0.467,-2.745,-8.528,-1.429,-0.007,-17.01,-205.87,1.26
,-10.081,0.665,-2.175,-8.332,-2.34,0.625,-19.67,-194.95,-5.25
,-9.909,0.471,-1.493,-8.007,-2.647,1.151,-30.8,-181.72,-9.94
,-9.103,-0.378,-0.905,-7.736,-2.056,1.862,-42.7,-164.43,-11.69
9464.0,-7.614,-0.751,2.151,-8.129,1.689,-0.273,-12.95,-50.12,2.8
,-7.669,0.814,1.878,-8.033,1.388,-1.122,-11.55,-25.13,3.5
,-7.863,1.744,1.251,-7.947,1.062,-2.125,-18.97,-0.7,2.24
,-8.172,1.977,0.572,-8.583,0.632,-3.022,-32.34,22.61,-0.07
9540.0,-11.876,-1.299,-3.52,-8.619,-1.773,0.476,-75.81,102.9,-2.87
,-21.165,-8.253,8.112,-9.653,-4.52,-0.443,-66.15,88.69,8.75
,-20.907,-4.441,4.831,-9.284,-4.769,-3.393,-23.31,62.51,7.28
,-10.569,0.33,0.191,-7.267,-3.216,-4.98,-26.53,61.39,-1.96
9616.0,-7.423,-2.374,-3.324,-7.315,4.606,-6.667,-2.94,106.68,11.76
,-9.387,-0.601,-3.151,-8.502,3.865,-6.174,13.65,98.14,11.34
,-9.213,2.163,-4.216,-9.588,2.754,-5.614,11.97,88.13,6.58
,-7.93,4.262,-5.915,-9.876,0.687,-5.025,-2.31,82.11,5.46
9692.0,-9.308,-1.675,-4.573,-8.875,0.22,-3.757,-54.88,78.75,-3.85
,-9.529,-2.245,-3.769,-8.191,-0.031,-4.111,-36.82,74.27,1.05
,-10.404,-1.536,-2.984,-9.179,0.555,-4.468,-13.37,70.49,5.81
,-10.062,-0.469,-3.003,-9.861,1.663,-4.59,2.03,66.43,9.38
9767.0,-8.885,1.694,-4.783,-9.576,-0.306,-4.53,-8.4,52.36,7.84
,-8.811,0.12,-4.669,-9.706,0.101,-4.35,-19.95,51.24,7.0
,-9.44,-1.247,-4.453,-9.581,0.364,-4.221,-17.71,50.05,5.67
,-9.653,-1.106,-4.503,-9.478,0.471,-4.188,-6.86,47.46,6.44
9843.0,-9.514,0.476,-4.104,-9.454,0.538,-4.269,21.07,37.38,10.99
,-9.591,0.605,-4.25,-9.512,0.146,-4.101,22.75,34.72,10.5
,-9.505,0.916,-4.458,-9.478,0.311,-3.967,22.82,31.85,9.38
,-9.38,0.909,-4.393,-9.433,0.627,-3.967,19.46,29.89,8.82
9919.0,-9.347,0.866,-3.814,-9.306,0.304,-3.221,22.19,21.07,5.67
,-9.426,1.036,-3.707,-9.325,0.108,-2.996,20.51,20.16,5.11
,-9.488,0.988,-3.656,-9.332,0.189,-2.675,17.71,19.39,4.2
,-9.395,0.699,-3.518,-9.469,0.471,-2.367,14.56,19.32,3.64
9995.0,-9.514,0.696,-2.266,-9.347,0.617,-2.053,16.03,23.45,3.64
,-9.564,0.806,-2.041,-9.289,0.11,-2.044,14.35,24.71,2.8
,-9.483,0.893,-1.938,-9.344,-0.019,-2.106,11.34,26.32,1.61
,-9.416,0.974,-2.022,-9.313,0.17,-2.221,6.93,27.79,0.42
10070.0,-9.234,0.455,-2.388,-9.261,-0.359,-2.929,6.02,37.87,1.05
,-9.196,0.529,-2.651,-9.337,-0.158,-2.915,3.92,39.55,0.77
,-9.081,0.223,-2.788,-9.442,0.024,-2.797,1.4,41.16,0.35
,-9.146,-0.079,-2.984,-9.34,0.244,-2.769,0.91,43.05,0.14
10146.0,-9.306,0.304,-2.838,-9.859,-0.053,-3.934,5.88,51.73,2.1
,-9.33,0.105,-3.053,-9.868,0.074,-3.999,5.11,53.41,1.75
,-9.481,-0.029,-3.429,-9.792,0.122,-3.939,5.88,55.16,1.47
,-9.619,0.002,-3.781,-9.931,0.235,-4.075,7.77,56.49,1.54
10221.0,-10.024,0.019,-4.173,-10.1,-0.034,-3.513,12.74,61.95,-1.75
,-10.091,-0.29,-4.212,-10.062,-0.024,-3.142,12.6,63.7,-3.08
,-10.218,-0.333,-4.044,-9.904,-0.218,-2.776,13.16,65.59,-4.27
,-10.141,-0.151,-3.826,-9.844,-0.4,-2.572,13.93,67.48,-5.25
10297.0,-9.966,-0.426,-2.436,-9.988,-3.183,-1.515,23.1,84.49,-8.12
,-10.471,1.022,-2.728,-10.881,-3.393,-0.835,29.19,87.78,-9.31
,-12.182,3.8,-3.427,-11.096,-1.455,-0.873,29.75,87.78,-13.93
,-11.519,1.204,-2.525,-11.194,-1.12,-0.991,10.15,92.12,-20.37
10373.0,-11.096,-1.895,-0.132,-13.072,-2.005,1.022,34.09,129.43,-7.28
,-12.106,-1.572,1.091,-12.859,-1.472,-0.469,44.66,137.76,-2.59
,-13.02,-1.077,1.67,-12.197,-0.847,-2.446,58.38,144.41,-1.68
,-13.168,-1.639,2.146,-11.598,-0.275,-4.585,63.21,151.69,0.98
10449.0,-10.873,0.402,-5.714,-11.742,0.503,-9.718,76.37,163.52,13.65
,-11.362,0.558,-7.373,-10.278,1.342,-9.954,73.64,163.45,10.99
,-11.847,0.053,-8.083,-9.804,1.572,-9.938,71.33,163.17,9.1
,-12.23,-0.065,-8.851,-9.146,1.61,-10.098,71.82,157.92,5.95
10525.0,-8.296,1.168,-10.577,-5.26,-2.082,-10.543,15.96,56.42,3.85
,-5.846,-0.304,-11.862,-6.171,-1.251,-10.029,4.06,40.74,3.36
,-4.29,-1.206,-12.62,-6.097,-0.426,-9.624,0.56,35.91,2.24
,-3.929,-2.072,-12.156,-5.631,0.112,-9.313,4.83,35.56,2.66
10600.0,-4.968,-0.098,-8.856,-2.053,-1.433,-9.423,2.31,-63.91,11.62
,-4.365,-0.615,-9.103,-2.273,-1.438,-8.863,-9.45,-89.39,15.12
,-3.278,-1.462,-9.375,-2.936,-1.333,-8.399,-13.86,-108.36,18.48
,-2.577,-1.701,-9.414,-3.139,-1.455,-8.021,-12.67,-121.87,20.58
10676.0,-2.836,-1.579,-8.349,-2.84,-1.216,-8.519,-14.49,-187.32,20.72
,-2.936,-1.548,-8.782,-3.192,-0.653,-8.576,-14.14,-200.41,20.93
,-2.967,-1.548,-8.815,-3.604,-0.311,-8.839,-13.65,-210.21,23.73
,-2.673,-1.496,-8.655,-3.812,-0.529,-9.012,-12.6,-218.75,26.88
10752.0,-3.888,-1.161,-9.112,-5.26,-1.232,-9.612,-39.41,-263.13,38.43
,-4.133,-1.163,-9.591,-5.963,-1.062,-9.734,-34.37,-270.06,39.48
,-4.228,-1.764,-9.191,-6.521,-0.854,-8.914,-31.29,-276.92,39.69
,-4.427,-1.402,-9.777,-7.047,-0.115,-8.564,-26.04,-282.1,39.76
10828.0,-7.928,-0.012,-7.782,-10.019,1.07,-3.063,6.79,-289.1,32.2
,-8.447,-0.005,-6.734,-10.902,1.388,-2.675,5.18,-287.21,31.01
,-9.217,-0.179,-5.135,-11.18,0.948,-0.972,6.51,-282.17,29.68
,-9.703,0.297,-4.166,-10.316,0.565,-0.608,11.83,-275.45,25.9
10903.0,-9.153,-0.038,-0.581,-6.497,-0.309,4.058,-33.67,-187.46,4.69
,-8.009,-1.838,0.242,-6.482,0.78,3.879,-42.42,-157.64,4.62
,-6.588,-2.036,2.962,-6.731,1.61,2.883,-34.3,-121.03,8.4
,-6.609,-1.35,3.807,-6.985,2.032,1.474,-21.98,-84.98,11.48
10979.0,-7.389,1.864,0.067,-15.939,-4.41,-1.845,-64.96,77.42,4.48
,-7.605,1.687,-1.342,-23.47,-7.935,10.916,-81.13,99.12,1.61
,-7.849,1.393,-2.697,-19.557,-4.08,0.431,-93.87,115.99,-0.49
,-9.038,0.534,-3.836,-9.359,0.682,-3.089,-102.69,125.44,-2.31
11054.0,-6.738,-1.639,-2.45,-10.744,-0.366,-4.604,-98.35,80.78,-14.07
,-7.088,-3.46,-3.838,-11.584,2.012,-6.987,-103.67,84.14,-5.46
,-5.879,-4.64,-5.037,-9.883,3.64,-7.05,-80.15,88.55,-6.72
,-7.128,-2.12,-3.448,-6.348,3.238,-6.056,-40.95,99.61,-2.31
11130.0,-6.595,1.472,-6.21,-9.277,-2.285,-4.068,-39.76,98.49,3.57
,-9.055,-0.103,-5.865,-10.416,-1.563,-3.214,-41.02,91.84,-5.67
,-9.734,-1.297,-5.602,-10.27,0.122,-3.58,-40.6,85.05,-7.98
,-9.019,-2.199,-4.949,-9.71,2.225,-4.078,-34.37,80.01,-3.15
11206.0,-8.78,2.321,-4.563,-9.416,0.366,-4.702,-5.6,59.78,5.18
,-8.66,1.869,-5.083,-9.739,0.201,-4.238,-20.37,56.63,3.43
,-8.887,0.895,-4.91,-9.708,0.706,-3.963,-25.9,55.51,3.71
,-9.048,0.579,-5.039,-9.722,1.043,-3.932,-23.8,53.06,3.64
11282.0,-9.811,0.601,-3.884,-9.588,0.39,-4.666,-11.9,40.6,3.71
,-9.636,0.117,-4.104,-9.464,0.428,-4.858,-12.04,38.29,4.27
,-9.282,-0.055,-4.255,-9.268,0.215,-4.829,-8.82,36.26,4.48
,-9.438,0.122,-4.422,-9.294,-0.321,-4.523,-5.39,33.88,3.43
11358.0,-9.203,-0.704,-4.283,-9.363,0.105,-3.644,-7.07,19.95,1.75
,-9.282,-0.802,-4.037,-9.485,0.122,-3.558,-4.9,18.06,1.61
,-9.466,-0.555,-3.814,-9.33,-0.014,-3.513,-2.94,16.52,1.54
,-9.452,-0.048,-3.692,-9.43,-0.098,-3.477,-2.45,14.98,1.61
11433.0,-9.363,-0.208,-3.364,-9.342,-0.11,-3.259,2.24,16.52,3.85
,-9.485,0.045,-3.293,-9.227,-0.821,-3.063,4.9,16.59,3.99
,-9.44,0.235,-3.388,-9.249,-1.041,-2.611,5.81,16.45,4.27
,-9.45,0.364,-3.403,-9.368,-0.581,-2.044,4.76,16.87,4.55
11509.0,-9.538,0.637,-1.565,-9.318,0.38,-0.388,18.06,24.99,7.84
,-9.576,1.558,-1.06,-9.275,0.318,-0.479,15.54,26.88,5.81
,-9.435,1.778,-0.967,-9.344,0.481,-0.668,8.47,29.47,3.29
,-9.354,0.964,-0.459,-9.253,0.421,-0.876,1.82,32.97,1.82
11585.0,-9.332,0.062,-1.333,-9.751,-0.124,-3.838,2.45,49.0,3.5
,-9.318,-0.081,-1.847,-9.792,-0.232,-4.137,2.31,51.73,3.01
,-9.442,-0.079,-2.484,-9.837,-0.249,-4.293,3.71,53.9,2.59
,-9.608,-0.089,-3.204,-9.94,-0.187,-4.262,5.11,55.65,1.96
11661.0,-10.072,-0.385,-4.149,-10.158,-0.156,-3.888,16.66,62.86,1.61
,-10.23,-0.469,-4.145,-10.05,0.072,-3.74,20.16,64.33,2.24
,-10.22,-0.148,-4.049,-10.258,0.28,-3.551,24.43,65.73,3.71
,-10.211,0.026,-3.963,-10.213,0.187,-3.422,27.51,67.69,3.64
11736.0,-10.165,-0.069,-3.209,-11.766,2.312,-3.132,20.51,77.35,-7.28
,-10.108,-0.005,-3.094,-10.792,-0.938,-2.469,20.58,79.87,-8.12
,-10.354,0.357,-3.077,-10.821,-2.881,-1.529,21.56,82.95,-9.03
,-11.283,2.489,-2.986,-10.986,-1.721,-1.527,24.71,85.12,-11.13
11812.0,-11.048,-1.089,-1.778,-11.601,-1.481,0.981,30.94,109.62,-10.71
,-10.826,-2.075,-1.828,-11.991,-1.254,1.579,29.68,116.76,-9.24
,-10.471,-2.907,-1.788,-11.725,-1.117,1.433,36.75,124.95,-6.09
,-10.936,-2.63,-0.285,-11.364,-1.232,0.28,53.55,134.82,-0.21
11887.0,-11.019,-1.577,-0.952,-10.062,-0.038,-7.935,89.67,161.35,22.05
,-10.404,-1.122,-2.618,-10.881,-0.376,-8.543,93.94,159.95,24.01
,-9.809,-0.672,-4.573,-11.787,-0.809,-10.007,94.01,157.5,23.03
,-9.629,-0.309,-6.037,-11.113,-0.189,-9.878,88.55,156.17,20.72
11963.0,-9.342,1.271,-10.479,-5.992,-2.467,-11.467,66.99,105.0,12.32
,-7.045,1.572,-11.105,-6.238,-2.345,-11.007,49.21,90.93,14.7
,-5.985,0.479,-11.699,-5.726,-1.371,-10.964,28.98,78.82,16.38
,-5.528,-1.113,-11.926,-5.564,-0.395,-10.167,21.7,70.77,18.62
12039.0,-5.762,0.438,-9.253,-3.747,-1.275,-9.512,49.7,-16.38,36.96
,-5.434,0.304,-8.945,-3.324,-1.534,-9.344,31.01,-43.61,37.38
,-5.008,-0.378,-9.316,-3.247,-2.063,-8.916,11.41,-68.81,37.94
,-4.235,-0.924,-9.5,-3.305,-2.8,-8.05,-4.69,-88.55,38.99
12115.0,-3.632,-2.718,-8.327,-3.798,-1.551,-9.072,-31.43,-163.38,44.52
,-3.623,-2.776,-8.126,-4.647,-1.821,-8.026,-23.17,-176.54,47.04
,-3.821,-2.505,-8.078,-4.893,-2.649,-8.016,-13.93,-187.6,49.35
,-3.75,-1.993,-9.134,-4.85,-3.223,-8.713,-12.53,-198.73,51.66
12190.0,-4.714,-3.587,-8.705,-5.824,-1.35,-8.313,-8.96,-228.27,54.53
,-5.054,-3.532,-8.09,-6.078,-1.208,-8.143,4.55,-230.3,53.27
,-5.439,-2.793,-8.052,-6.037,-0.878,-8.055,14.56,-234.08,52.57
,-5.803,-1.831,-8.138,-5.793,-0.534,-8.114,17.29,-236.88,52.36
12266.0,-6.023,-0.428,-7.782,-8.033,-0.687,-6.107,-12.81,-249.34,37.17
,-6.765,-0.404,-7.389,-8.437,-0.9,-5.796,-18.9,-249.9,30.03
,-7.404,-0.457,-6.987,-9.043,-1.11,-4.939,-24.43,-250.25,21.77
,-7.746,-0.598,-6.569,-9.873,-1.584,-3.798,-28.0,-249.9,13.51
12342.0,-9.756,-1.639,-3.003,-8.418,-2.106,-0.412,-31.36,-226.1,-18.2
,-9.564,-1.711,-1.893,-7.856,-1.531,1.242,-31.08,-218.47,-19.32
,-9.244,-1.979,-1.168,-7.887,-1.151,2.178,-29.89,-206.99,-17.99
,-9.17,-2.194,-1.05,-7.557,-0.902,3.254,-29.96,-193.76,-15.89
12418.0,-6.846,-0.68,4.372,-7.923,2.041,2.694,-17.64,-87.92,-10.64
,-6.655,-0.799,4.977,-8.186,2.357,1.4,-20.23,-57.96,-6.58
,-7.136,-0.467,4.829,-8.306,1.776,0.407,-20.65,-28.98,-3.22
,-7.648,0.775,3.869,-8.289,0.916,-0.357,-21.98,-3.92,-1.68
12494.0,-8.536,0.438,-1.419,-17.825,-6.726,2.343,-86.94,89.6,-7.35
,-9.308,-0.062,-2.63,-8.873,1.926,-0.048,-90.51,99.82,-6.79
,-14.673,-3.522,-4.886,-8.466,0.01,0.383,-96.39,94.36,-4.06
,-22.108,-10.514,8.069,-9.263,-3.652,0.263,-63.98,68.95,16.31
12569.0,-8.739,-4.279,0.211,-9.797,-0.098,-4.374,-38.85,92.12,18.69
,-9.832,-3.029,-0.9,-6.382,2.407,-4.898,-7.98,112.84,28.84
,-11.608,-3.893,-0.223,-5.58,3.379,-4.59,12.67,123.34,29.4
,-12.568,-2.773,-2.843,-7.492,2.436,-4.685,27.86,118.86,28.84
12645.0,-9.617,0.431,-5.147,-9.261,-0.158,-3.845,-39.13,76.02,7.56
,-10.22,-0.524,-5.03,-9.89,-0.574,-3.082,-40.18,74.06,7.91
,-9.598,-0.373,-4.073,-10.141,-0.383,-2.816,-34.09,73.08,9.94
,-9.452,0.103,-4.216,-10.244,0.412,-2.663,-28.35,69.79,11.48
12720.0,-9.667,0.761,-3.142,-9.32,1.18,-3.427,-5.04,51.8,11.34
,-9.438,0.392,-3.159,-9.093,0.172,-3.46,-1.12,52.78,12.25
,-9.332,0.455,-3.343,-9.277,-1.388,-3.257,1.47,51.87,12.32
,-9.397,0.787,-3.214,-9.758,-1.845,-3.013,-2.1,48.37,10.99
12796.0,-9.952,-1.23,-2.982,-9.619,0.95,-2.62,-1.33,39.9,12.81
,-9.701,-0.28,-2.915,-9.483,0.376,-2.398,10.15,38.01,14.63
,-9.445,0.543,-2.709,-9.612,-0.191,-2.278,16.8,37.24,15.75
,-9.603,0.938,-2.764,-9.837,-0.376,-2.379,19.25,36.4,15.26
12872.0,-9.832,0.383,-2.639,-9.414,0.66,-3.486,23.94,34.09,14.63
,-9.682,1.424,-3.051,-9.483,-0.182,-3.285,26.39,31.99,13.65
,-9.488,2.053,-3.415,-9.526,-0.491,-3.044,22.26,29.89,12.39
,-9.39,1.646,-3.544,-9.481,-0.412,-2.977,13.51,28.28,10.99
12948.0,-9.679,-0.017,-3.034,-9.263,0.225,-3.597,19.32,25.34,8.05
,-9.809,0.357,-3.223,-9.39,0.034,-3.676,20.3,24.5,6.93
,-9.608,0.57,-3.355,-9.28,0.275,-3.704,17.64,23.8,6.09
,-9.34,0.476,-3.453,-9.162,0.704,-3.68,13.79,23.38,5.81
13023.0,-9.316,0.893,-3.589,-9.402,0.644,-3.924,15.47,20.65,4.76
,-9.397,0.943,-3.542,-9.354,0.464,-4.015,11.69,19.74,3.78
,-9.552,0.962,-3.664,-9.296,0.249,-4.015,7.91,18.34,2.94
,-9.445,0.847,-3.771,-9.435,0.237,-3.829,5.67,17.36,2.38
13099.0,-9.404,0.172,-3.563,-9.351,0.555,-2.673,6.44,14.98,2.1
,-9.299,0.333,-3.29,-9.383,0.299,-2.364,7.7,14.84,2.17
,-9.392,0.481,-3.001,-9.469,0.163,-2.106,7.98,14.84,2.17
,-9.349,0.553,-2.857,-9.423,0.129,-1.766,6.3,15.33,2.03
13174.0,-9.411,0.096,-1.424,-9.402,0.972,-1.335,4.97,22.68,1.89
,-9.368,0.12,-1.173,-9.308,0.622,-1.579,6.51,25.13,2.17
,-9.485,0.45,-1.048,-9.306,0.124,-1.79,6.58,27.65,2.45
,-9.459,0.952,-1.218,-9.287,-0.187,-1.977,4.48,29.68,2.24
13250.0,-9.373,-0.194,-2.154,-9.284,-0.163,-3.312,-5.11,41.51,-0.49
,-9.517,-0.034,-2.345,-9.344,-0.177,-3.62,-3.29,43.82,-0.42
,-9.375,-0.026,-2.603,-9.32,-0.325,-3.857,-3.71,45.5,-0.91
,-9.232,-0.139,-2.97,-9.49,-0.091,-3.975,-4.27,47.32,-0.98
13326.0,-9.605,0.357,-4.322,-9.44,0.089,-4.98,4.76,52.01,-0.07
,-9.555,0.483,-4.575,-9.39,-0.007,-5.016,4.06,51.38,-0.14
,-9.593,0.366,-4.829,-9.387,0.182,-4.958,3.64,51.52,-0.42
,-9.627,0.227,-4.963,-9.337,0.179,-4.975,3.99,51.94,-0.98
13402.0,-9.43,-0.024,-4.786,-9.407,-0.203,-4.212,12.32,54.95,-3.92
,-9.45,-0.053,-4.669,-9.426,-0.184,-4.032,15.61,56.14,-3.57
,-9.478,0.101,-4.558,-9.768,1.005,-4.085,18.83,56.98,-3.29
,-9.416,0.069,-4.436,-10.608,2.917,-4.494,20.65,58.38,-3.36
13478.0,-10.66,1.855,-4.408,-9.512,-0.124,-3.24,14.14,63.0,-13.65
,-9.801,-1.043,-3.829,-9.459,-0.23,-3.309,3.64,67.13,-15.89
,-9.531,-2.692,-2.831,-9.304,-0.969,-3.3,8.96,71.68,-13.58
,-9.485,-1.347,-3.07,-9.564,-0.931,-3.326,23.31,73.85,-10.57
13553.0,-9.655,-0.634,-3.489,-10.172,-3.259,-1.675,16.59,87.85,-13.3
,-9.273,-1.268,-2.924,-10.33,-2.991,-1.57,15.12,92.61,-13.02
,-9.337,-2.264,-2.257,-10.457,-2.156,-2.563,19.95,98.91,-10.71
,-9.88,-2.596,-2.273,-9.895,-1.438,-3.178,33.46,104.09,-7.49
13629.0,-9.363,-0.586,-3.79,-9.284,0.419,-7.126,68.67,118.3,12.39
,-9.057,0.098,-4.618,-9.081,0.639,-7.722,62.93,117.53,11.62
,-9.124,0.309,-5.669,-9.361,0.357,-7.739,53.13,115.71,7.84
,-8.99,0.404,-6.468,-9.275,0.438,-7.712,41.23,113.82,3.36
13705.0,-8.49,0.885,-8.325,-7.377,-0.524,-9.04,5.95,80.57,-15.33
,-6.863,0.761,-9.5,-8.169,0.11,-8.603,4.27,71.68,-16.94
,-5.915,0.108,-10.282,-7.097,0.883,-9.414,4.76,69.3,-18.13
,-6.427,-0.684,-9.978,-5.698,0.763,-9.706,12.74,68.74,-18.06
13781.0,-5.374,0.294,-9.462,-5.164,-0.144,-8.851,-0.14,-7.91,-21.07
,-5.377,-0.203,-8.985,-4.728,0.165,-9.115,-11.48,-21.35,-20.44
,-5.343,-0.38,-8.758,-4.185,0.364,-9.009,-12.53,-36.4,-19.53
,-5.166,-0.505,-8.844,-4.535,0.457,-8.598,-8.19,-51.87,-19.6
13856.0,-4.685,0.579,-8.595,-4.951,0.096,-8.629,-7.63,-114.31,-26.32
,-4.592,0.433,-8.452,-5.324,0.266,-8.866,-14.7,-126.14,-28.56
,-4.535,0.23,-8.538,-5.556,0.79,-8.6,-23.38,-137.9,-32.55
,-4.527,-0.062,-8.638,-5.824,1.524,-8.354,-30.38,-147.63,-38.36
13932.0,-5.702,2.146,-8.48,-6.889,1.847,-8.83,-73.78,-187.11,-64.82
,-5.451,2.319,-9.081,-6.729,1.689,-8.887,-94.57,-193.48,-69.58
,-5.463,2.003,-9.249,-6.652,0.936,-8.629,-115.22,-195.65,-75.18
,-6.301,1.795,-8.94,-6.782,0.397,-8.634,-133.7,-197.26,-80.85
14007.0,-6.645,0.036,-8.311,-7.607,1.752,-6.899,-186.55,-191.94,-111.51
,-7.061,0.01,-7.77,-7.72,1.855,-6.391,-182.7,-186.41,-114.31
,-7.076,0.409,-7.641,-7.729,1.137,-6.076,-180.95,-180.67,-115.78
,-7.203,1.096,-7.076,-7.308,0.598,-5.482,-181.51,-173.11,-116.2
14083.0,-7.629,0.888,-5.441,-6.789,1.429,-6.296,-224.63,-115.5,-116.62
,-7.377,1.256,-5.609,-6.446,1.029,-5.927,-226.52,-101.08,-117.81
,-7.715,1.462,-5.642,-6.75,0.648,-6.372,-230.86,-87.78,-118.37
,-7.447,1.464,-5.975,-6.908,-0.108,-6.961,-238.28,-76.51,-117.81
14159.0,-7.073,-0.299,-6.983,-6.691,-0.002,-6.461,-237.3,-29.96,-93.31
,-7.128,-0.553,-6.796,-6.755,-0.349,-6.595,-223.58,-24.64,-87.78
,-7.117,-0.665,-6.6,-6.703,-0.9,-6.523,-208.95,-21.35,-82.6
,-6.908,-0.352,-6.511,-6.729,-1.295,-6.133,-193.48,-19.25,-76.3
14235.0,-6.76,-1.137,-6.645,-8.538,-0.345,-7.117,-128.31,3.29,-38.57
,-6.772,-0.909,-7.136,-9.206,1.225,-7.109,-121.38,9.03,-32.41
,-7.289,-1.292,-7.337,-9.78,1.656,-6.75,-115.43,14.07,-25.48
,-7.796,-1.61,-7.633,-10.191,1.68,-6.004,-104.44,16.87,-16.31
14310.0,-10.359,0.739,-5.903,-10.943,-5.779,-4.597,-80.22,-2.03,8.4
,-10.196,-0.802,-5.788,-10.821,-6.135,-4.515,-72.66,-3.85,10.36
,-10.211,-2.458,-5.602,-10.227,-5.116,-4.223,-62.72,-4.69,12.46
,-10.505,-4.434,-5.185,-9.284,-2.728,-4.365,-51.66,-5.32,13.93
14386.0,-8.646,-0.584,-4.259,-8.839,0.117,-3.451,-32.41,-7.49,1.47
,-8.655,0.754,-4.2,-9.143,0.625,-3.408,-47.18,-8.54,0.35
,-8.863,0.615,-4.044,-9.541,0.895,-3.542,-56.35,-9.38,-0.56
,-8.808,0.089,-3.764,-9.497,0.364,-3.704,-57.19,-9.66,0.35
14462.0,-8.906,-0.972,-3.238,-9.541,-0.998,-2.465,-37.03,-9.8,5.74
,-8.868,-1.677,-2.761,-9.361,-0.735,-2.527,-37.45,-8.82,5.6
,-9.251,-1.766,-2.575,-8.995,-1.062,-2.606,-38.5,-8.75,2.87
,-9.56,-1.441,-2.458,-8.914,-1.407,-2.513,-42.07,-8.61,-0.42
14538.0,-9.213,-1.376,-2.623,-9.304,0.615,-4.609,-48.44,2.38,-3.64
,-9.619,-0.455,-2.919,-9.261,-0.402,-4.913,-36.75,4.2,-3.01
,-9.763,0.89,-3.618,-8.981,-0.395,-5.202,-32.34,3.78,-3.08
,-9.442,1.094,-4.2,-9.158,-0.333,-5.365,-35.84,3.64,-3.85
14614.0,-9.213,-0.263,-5.379,-8.861,-1.407,-5.121,-32.69,-0.84,-8.19
,-9.134,-0.495,-5.504,-9.198,-0.838,-4.87,-32.69,-2.1,-8.61
,-8.981,-1.007,-5.525,-9.256,-0.129,-4.594,-31.64,-3.29,-8.68
,-8.93,-1.364,-5.413,-9.079,-0.17,-4.269,-28.21,-4.62,-8.4
14689.0,-9.117,-0.546,-3.793,-9.363,0.476,-3.609,-22.89,-6.93,-8.12
,-9.251,-0.694,-3.379,-9.318,-0.129,-3.766,-18.48,-6.44,-7.91
,-9.253,-0.177,-3.343,-9.036,-0.931,-3.795,-13.37,-6.44,-7.84
,-9.222,0.318,-3.362,-9.107,-1.577,-3.845,-12.39,-6.51,-8.26
14765.0,-8.904,-1.766,-3.577,-9.11,-0.656,-3.257,-16.94,-6.44,-10.01
,-8.952,-1.137,-3.367,-9.129,-0.979,-3.405,-16.59,-7.35,-10.08
,-9.105,-0.38,-3.415,-9.139,-1.175,-3.47,-19.74,-7.84,-10.43
,-9.184,-0.462,-3.29,-9.091,-1.266,-3.451,-26.81,-7.91,-10.99
14840.0,-9.103,-1.0,-3.498,-9.311,-0.01,-3.687,-19.18,-5.81,-9.38
,-9.239,-0.589,-3.451,-9.294,-0.007,-3.9,-16.45,-5.6,-9.59
,-9.32,-0.103,-3.467,-9.301,-0.287,-4.183,-17.22,-5.88,-10.43
,-9.361,0.139,-3.587,-9.198,-0.531,-4.2,-20.09,-6.37,-11.62
14916.0,-9.069,-0.723,-3.979,-9.292,-0.256,-2.687,-23.17,-7.21,-14.0
,-9.141,-0.933,-3.716,-9.203,-0.893,-2.204,-20.37,-6.93,-13.86
,-9.17,-0.759,-3.386,-9.158,-1.125,-2.197,-18.97,-6.44,-14.0
,-9.249,-0.407,-3.051,-9.22,-1.196,-2.271,-19.88,-6.23,-14.56
14992.0,-9.385,-0.993,-2.247,-9.34,-0.124,-2.613,-30.1,-1.33,-18.06
,-9.517,-0.44,-2.321,-9.373,-0.495,-2.649,-29.82,-0.14,-18.9
,-9.55,-0.012,-2.364,-9.332,-0.538,-2.84,-31.85,0.42,-20.3
,-9.409,0.146,-2.517,-9.344,-0.333,-2.929,-34.37,1.33,-21.56
15068.0,-9.28,-0.495,-3.075,-9.241,-0.914,-3.159,-20.79,8.05,-23.24
,-9.28,-0.641,-3.072,-9.222,-0.991,-3.206,-19.04,8.68,-23.87
,-9.088,-0.814,-3.022,-9.301,-0.751,-3.403,-16.73,9.87,-24.22
,-9.131,-0.723,-3.08,-9.194,-0.364,-3.551,-15.33,10.85,-24.71
15143.0,-9.194,-0.481,-3.618,-8.997,-0.67,-3.417,-9.8,12.04,-27.65
,-9.11,-0.759,-3.599,-8.954,-0.481,-3.307,-10.22,11.76,-28.42
,-8.997,-0.998,-3.656,-8.997,-0.72,-3.068,-7.84,12.39,-28.49
,-9.141,-1.003,-3.534,-9.155,-0.637,-2.907,-5.25,12.53,-28.63
15219.0,-9.495,-0.012,-2.977,-9.086,-2.077,-3.348,-0.98,16.17,-32.69
,-9.55,0.737,-2.934,-9.306,-1.28,-3.475,0.21,16.17,-34.72
,-9.076,0.122,-3.463,-8.935,-1.833,-3.448,-4.06,17.43,-36.68
,-8.815,-1.235,-3.254,-9.167,-2.302,-3.369,-6.23,19.32,-37.73
15295.0,-9.564,-3.003,-3.465,-11.005,-2.072,-2.446,-0.14,23.94,-41.72
,-9.966,-2.843,-3.475,-10.89,-1.34,-2.077,3.5,25.48,-43.82
,-10.22,-2.606,-3.36,-10.878,-0.986,-1.744,3.57,27.16,-45.78
,-10.646,-2.565,-2.929,-10.77,-0.715,-1.333,1.61,29.75,-47.11
15371.0,-10.589,-0.689,-0.809,-10.969,0.321,-0.928,-22.19,48.44,-54.6
,-10.835,-0.83,-0.297,-10.491,0.452,-1.271,-28.28,53.62,-56.49
,-10.912,-0.239,-0.696,-10.424,0.254,-2.125,-31.64,58.52,-58.1
,-10.936,0.136,-0.766,-9.923,0.297,-2.97,-36.89,63.14,-59.29
15446.0,-10.103,-0.124,-4.044,-8.961,-0.364,-6.059,-61.53,78.82,-65.45
,-10.017,0.067,-4.862,-7.885,-0.4,-7.253,-58.94,76.51,-67.27
,-9.907,0.06,-5.264,-8.387,0.83,-8.665,-59.36,71.12,-69.58
,-9.373,0.065,-5.731,-10.39,3.125,-8.48,-59.71,65.38,-71.12
15522.0,-10.888,5.418,-7.629,-7.978,1.926,-7.296,-58.59,37.59,-71.75
,-9.813,6.379,-6.377,-8.354,0.629,-7.54,-86.73,30.24,-74.34
,-8.363,6.018,-6.346,-8.691,-0.5,-6.985,-123.9,30.45,-74.76
,-8.114,4.192,-7.789,-8.866,-0.897,-6.99,-151.9,28.21,-73.36
15598.0,-8.818,-0.747,-7.205,-7.782,0.991,-7.899,-118.72,2.8,-59.22
,-8.586,-0.354,-7.289,-7.763,0.983,-7.923,-101.5,-6.16,-57.96
,-8.378,0.275,-7.564,-7.834,0.964,-7.999,-90.86,-16.03,-56.21
,-8.064,0.814,-7.772,-7.633,0.658,-7.992,-87.57,-26.6,-54.25
15673.0,-7.487,0.337,-7.842,-6.772,-1.015,-7.966,-109.2,-76.3,-40.81
,-7.282,-0.024,-7.911,-6.856,-1.192,-7.971,-114.59,-87.15,-38.29
,-7.004,-0.457,-7.964,-6.983,-1.388,-7.892,-118.3,-98.14,-35.91
,-6.849,-0.802,-8.009,-7.061,-1.491,-7.901,-119.35,-108.43,-33.67
15749.0,-6.966,-1.424,-8.234,-7.152,-1.625,-7.222,-96.18,-150.64,-23.52
,-6.889,-1.5,-7.964,-7.356,-1.4,-7.121,-89.46,-155.61,-20.44
,-7.222,-1.608,-7.578,-7.619,-1.345,-6.971,-84.14,-161.91,-17.71
,-7.124,-1.62,-7.475,-7.724,-1.204,-6.959,-79.17,-168.0,-14.7
15825.0,-7.803,-1.335,-6.92,-7.643,-1.347,-6.492,-78.33,-187.81,0.28
,-7.818,-1.388,-6.492,-8.031,-1.206,-6.293,-80.22,-190.68,2.45
,-7.696,-1.412,-6.545,-7.959,-1.161,-5.975,-81.27,-193.62,3.85
,-7.516,-1.469,-6.458,-8.155,-1.122,-5.721,-81.97,-195.44,4.76
15901.0,-8.397,-1.283,-5.339,-8.65,-1.137,-2.735,-83.58,-199.22,-0.77
,-8.062,-0.983,-4.937,-9.184,-1.146,-2.714,-84.77,-199.08,-3.22
,-8.038,-0.943,-4.188,-9.505,-0.833,-2.376,-87.43,-195.86,-5.18
,-8.157,-1.077,-3.027,-9.301,-0.701,-1.814,-89.18,-190.54,-6.3
15976.0,-9.1,-1.005,-1.357,-7.365,-2.252,0.146,-83.72,-146.65,-16.31
,-8.55,-0.897,-1.132,-7.286,-1.931,0.345,-86.24,-131.95,-16.31
,-8.2,-1.376,-0.998,-7.449,-1.622,0.486,-87.92,-115.85,-15.19
,-7.825,-2.015,-0.811,-7.492,-0.912,0.34,-84.91,-98.7,-13.16
16052.0,-7.468,-0.014,-0.014,-7.765,-0.268,-2.637,-46.34,12.11,3.64
,-7.621,0.651,-0.591,-8.634,-1.326,-3.391,-48.51,32.06,4.55
,-7.72,0.811,-1.256,-14.123,-6.018,-0.481,-55.02,49.7,4.34
,-7.708,0.452,-2.044,-21.067,-10.904,5.54,-62.02,65.03,4.27
16128.0,-15.922,-7.265,1.591,-8.902,-2.546,-2.941,9.52,55.02,18.62
,-8.466,-2.864,-0.854,-7.566,-1.247,-2.383,24.71,58.73,9.24
,-9.014,-3.549,-0.16,-10.703,-1.295,-3.084,15.19,69.37,11.48
,-10.139,-3.396,-1.653,-11.402,-0.526,-5.243,6.72,71.33,13.37
16204.0,-9.624,1.359,-6.25,-9.938,1.165,-5.456,30.52,94.5,23.8
,-7.047,2.702,-5.908,-9.476,-0.541,-4.618,19.39,86.73,20.37
,-7.609,2.938,-5.982,-9.39,-1.292,-3.877,1.61,79.94,12.39
,-9.131,2.414,-5.987,-9.73,-1.192,-2.948,-19.6,75.11,2.17
16279.0,-10.282,-0.373,-2.17,-9.124,0.692,-3.374,-14.35,53.55,6.51
,-10.294,0.658,-2.125,-9.529,0.792,-3.532,-9.73,50.68,8.26
,-9.71,1.206,-2.728,-9.564,1.017,-3.63,-11.27,48.65,8.82
,-8.969,0.983,-3.068,-9.608,0.474,-3.518,-12.04,47.53,9.38
16355.0,-9.675,-0.136,-3.317,-9.5,-0.902,-3.396,-20.3,37.17,6.3
,-9.569,-0.141,-3.518,-9.474,-0.464,-3.522,-17.99,35.56,6.09
,-9.438,-0.445,-3.384,-9.488,0.141,-3.635,-16.24,35.0,6.79
,-9.493,-0.833,-3.307,-9.552,0.443,-3.424,-12.6,35.0,7.7
16430.0,-9.641,0.66,-3.235,-9.524,1.388,-2.745,5.18,31.15,7.14
,-9.844,0.914,-3.082,-9.684,1.024,-2.747,1.89,28.98,6.23
,-9.684,1.256,-2.977,-9.6,0.596,-2.694,-2.94,26.81,5.81
,-9.45,1.412,-2.915,-9.435,-0.069,-2.69,-8.75,25.13,5.74
16506.0,-9.32,-0.84,-2.68,-9.452,-0.486,-2.915,-17.22,24.29,2.1
,-9.392,-1.06,-2.656,-9.407,-0.828,-2.876,-11.76,25.06,2.45
,-9.493,-0.881,-2.757,-9.354,-1.017,-2.706,-7.14,25.55,2.66
,-9.447,-0.524,-2.895,-9.328,-0.983,-2.656,-5.81,25.9,2.45
16582.0,-9.323,-1.034,-2.594,-9.524,0.663,-2.436,-7.14,29.26,2.73
,-9.411,-0.663,-2.536,-9.186,0.763,-2.52,-4.41,29.82,3.36
,-9.411,-0.215,-2.522,-9.328,0.579,-2.362,-2.45,30.59,4.2
,-9.727,0.156,-2.371,-9.06,0.225,-2.481,-1.75,31.29,4.13
16658.0,-9.15,-0.278,-2.563,-9.225,0.187,-2.766,-12.18,36.54,4.27
,-9.17,-0.464,-2.642,-9.275,0.077,-3.008,-13.09,37.38,4.13
,-9.098,-0.512,-2.682,-9.232,0.103,-3.405,-12.81,38.78,4.27
,-9.162,-0.101,-2.575,-9.251,-0.055,-3.85,-12.74,40.18,3.92
16734.0,-9.282,-0.213,-4.348,-9.813,-0.287,-4.221,-11.41,46.62,2.17
,-9.366,-0.445,-4.518,-9.962,-0.486,-4.056,-7.49,47.95,2.17
,-9.509,-0.476,-4.487,-10.187,-0.531,-3.853,-2.59,48.93,2.45
,-9.701,-0.409,-4.391,-10.287,0.019,-3.522,3.29,50.05,2.94
16809.0,-10.199,0.503,-3.369,-10.069,0.182,-3.096,20.86,55.86,4.13
,-10.105,0.742,-3.075,-10.096,0.337,-3.422,19.46,57.33,3.78
,-10.098,0.574,-2.936,-10.182,0.112,-3.635,18.48,59.71,2.73
,-10.184,0.115,-2.891,-10.189,-0.007,-3.769,19.95,62.23,1.19
16885.0,-10.414,-0.122,-3.836,-11.85,1.137,-3.309,29.61,75.32,-3.64
,-10.459,-0.392,-3.733,-10.256,-2.74,-2.108,32.48,78.68,-4.55
,-10.806,-0.079,-3.747,-10.282,-2.788,-1.139,37.1,81.76,-5.6
,-12.189,2.659,-3.845,-10.4,-0.581,-0.849,42.49,81.97,-8.68
16961.0,-10.373,-0.002,-0.802,-10.833,-1.433,0.526,34.51,105.63,-11.34
,-10.045,-0.969,-0.73,-11.373,-1.292,0.804,22.75,112.07,-12.95
,-9.864,-1.799,-0.617,-11.342,-2.056,1.302,16.73,118.23,-12.67
,-10.182,-1.594,-0.488,-11.594,-1.831,0.378,21.21,124.95,-9.38
17037.0,-11.606,-1.785,-0.687,-10.433,0.558,-7.272,65.03,152.95,14.0
,-10.876,-1.46,-2.603,-11.22,0.242,-8.279,73.08,152.32,16.59
,-10.038,-0.95,-4.357,-11.627,0.512,-9.823,78.05,150.85,16.1
,-9.643,-0.184,-5.386,-11.474,0.436,-9.6,78.19,150.22,12.53
17112.0,-10.093,0.931,-9.73,-7.294,-2.498,-10.447,26.88,103.25,-2.73
,-7.624,0.792,-10.816,-8.033,-1.567,-9.536,11.83,88.48,-0.91
,-6.992,-0.771,-10.969,-7.779,-0.282,-9.911,1.05,81.2,-0.14
,-6.889,-2.13,-10.897,-7.373,0.416,-9.706,2.73,73.64,0.98
17188.0,-7.03,0.514,-9.026,-4.539,-1.249,-9.371,19.11,-13.58,12.04
,-6.798,0.136,-9.057,-4.128,-1.39,-9.076,3.36,-36.26,15.19
,-6.021,-0.677,-9.062,-3.869,-1.807,-8.887,-9.24,-58.66,19.39
,-5.171,-1.053,-9.225,-3.865,-2.213,-8.648,-13.51,-76.65,23.03
17263.0,-4.085,-2.233,-8.26,-3.51,-1.443,-8.708,-12.46,-142.94,32.55
,-4.176,-2.134,-7.964,-3.726,-1.335,-8.595,-5.53,-159.39,30.8
,-3.857,-1.771,-8.217,-3.74,-1.058,-8.629,1.61,-175.56,30.87
,-3.613,-1.51,-8.78,-4.003,-0.763,-8.193,4.55,-188.72,32.97
17339.0,-4.597,-0.617,-8.404,-5.54,-1.11,-8.641,-6.79,-234.5,38.29
,-4.434,-0.823,-8.569,-5.887,-1.031,-8.839,-13.09,-244.37,38.85
,-4.42,-1.019,-9.081,-6.1,-1.153,-8.536,-15.33,-251.51,38.99
,-4.786,-1.187,-8.899,-6.844,-1.433,-7.99,-16.73,-256.27,38.36
17415.0,-7.681,-1.508,-7.576,-9.007,-0.464,-5.619,-14.0,-276.64,25.13
,-7.54,-1.263,-7.483,-8.914,-0.687,-4.066,-10.71,-277.83,23.38
,-7.564,-1.041,-7.463,-9.012,-0.357,-3.295,-8.12,-273.91,22.68
,-8.021,-0.565,-6.667,-9.253,-0.002,-2.998,-7.14,-267.54,21.98
17491.0,-9.696,0.201,-2.201,-8.275,-1.742,0.196,-19.67,-220.99,7.77
,-9.842,0.196,-1.235,-7.593,-2.668,0.321,-24.85,-203.91,3.15
,-9.708,-0.108,-0.565,-7.05,-2.474,1.663,-37.52,-186.06,-1.33
,-8.918,-0.955,0.081,-7.318,-1.586,2.178,-51.31,-165.97,-3.78
17566.0,-7.519,-0.194,1.943,-7.318,0.526,-1.761,-24.08,-28.28,0.35
,-7.432,0.579,1.517,-7.767,-0.012,-3.216,-25.06,0.98,-1.12
,-7.064,0.907,0.603,-9.837,-1.826,-3.999,-33.74,28.7,-2.87
,-7.023,0.916,-0.371,-18.11,-9.206,3.848,-44.31,54.46,-4.27
17642.0,-22.276,-7.952,4.965,-8.772,-2.379,-4.484,-13.72,82.25,22.82
,-12.539,-1.206,-0.998,-5.982,-0.237,-5.303,12.88,83.86,13.93
,-8.598,-2.747,-2.324,-7.164,0.172,-4.456,0.63,106.12,10.15
,-10.275,-4.008,-2.142,-10.435,-0.045,-6.037,-4.76,115.43,10.43
17718.0,-10.29,1.756,-7.294,-9.241,1.302,-5.846,15.19,98.35,13.09
,-7.741,3.996,-7.562,-9.512,-0.782,-4.771,11.48,94.22,12.88
,-7.236,4.877,-7.229,-9.732,-1.534,-3.719,-7.21,90.79,6.72
,-8.327,3.786,-6.71,-10.304,-1.204,-2.745,-33.88,86.52,-2.94
17794.0,-10.254,-0.431,-2.759,-9.088,0.23,-3.862,-22.89,62.93,2.24
,-9.761,0.694,-3.183,-9.139,0.165,-4.075,-12.32,62.37,4.41
,-9.105,0.921,-3.384,-9.241,-0.206,-4.288,-9.8,60.76,6.79
,-8.973,0.29,-3.527,-9.428,-0.581,-4.324,-8.26,57.89,7.56
17870.0,-9.478,-0.256,-4.448,-9.488,-0.014,-4.786,-3.5,50.61,3.08
,-9.488,0.208,-4.52,-9.43,-0.256,-4.652,-4.69,47.95,2.66
,-9.55,0.38,-4.575,-9.378,-0.371,-4.633,-7.21,45.22,3.22
,-9.557,0.136,-4.609,-9.349,-0.555,-4.499,-7.77,42.98,3.99
17945.0,-9.521,-0.345,-4.276,-9.469,0.45,-3.63,17.15,31.43,5.81
,-9.529,-0.096,-4.257,-9.39,0.572,-3.553,17.43,29.05,5.53
,-9.445,0.124,-3.984,-9.383,0.625,-3.374,14.98,27.16,5.39
,-9.378,0.177,-3.862,-9.459,0.648,-3.314,11.76,25.55,4.97
18021.0,-9.438,0.558,-3.089,-9.198,-0.203,-3.01,3.5,20.79,3.29
,-9.378,0.455,-3.099,-9.17,-0.598,-2.73,4.06,21.14,3.08
,-9.375,0.194,-3.099,-9.323,-0.522,-2.647,4.97,21.63,2.59
,-9.347,-0.026,-3.013,-9.423,-0.031,-2.388,5.88,22.47,2.31
18096.0,-9.686,0.392,-2.06,-9.15,0.778,-1.565,8.33,28.56,2.45
,-9.773,0.749,-1.78,-9.354,0.699,-1.479,1.26,28.28,0.49
,-9.617,0.873,-1.68,-9.069,0.402,-1.644,-7.21,28.42,-1.19
,-9.227,1.134,-1.749,-9.206,0.029,-1.828,-11.69,29.12,-1.12
18172.0,-9.191,-0.191,-2.075,-9.679,-0.086,-3.326,-11.76,44.1,-1.61
,-9.143,-0.503,-2.374,-9.663,-0.105,-3.752,-10.92,46.69,-1.96
,-9.227,-0.766,-2.611,-9.768,-0.347,-4.262,-8.82,48.72,-1.82
,-9.502,-0.376,-3.125,-9.933,-0.761,-4.745,-5.95,50.54,-1.82
18248.0,-10.244,-0.998,-4.968,-10.345,0.129,-3.367,4.34,59.08,-1.05
,-10.433,-1.0,-4.838,-9.962,0.232,-2.888,11.83,61.53,0.14
,-10.749,-0.692,-4.331,-9.94,0.089,-2.568,19.81,63.42,0.98
,-10.634,-0.139,-3.903,-9.887,0.0,-2.426,25.41,65.1,0.42
18324.0,-9.837,-0.053,-2.426,-10.991,2.338,-3.044,14.0,75.88,-10.64
,-9.835,-0.103,-2.606,-12.015,3.139,-3.687,14.77,79.24,-10.92
,-9.794,-0.074,-2.67,-10.909,-0.136,-2.809,16.17,82.74,-10.85
,-9.983,0.187,-2.891,-10.579,-2.742,-1.795,18.27,86.1,-11.41
18399.0,-10.883,-1.653,-1.371,-11.716,-0.73,0.045,18.62,108.08,-18.34
,-11.172,-0.517,-1.345,-12.496,-0.799,1.606,28.84,112.42,-16.17
,-11.038,-0.725,-1.139,-12.998,-1.876,2.45,27.44,119.56,-15.54
,-11.127,-0.711,-1.027,-13.175,-2.496,2.539,28.98,127.05,-14.56
18475.0,-13.049,-2.381,1.218,-10.579,2.053,-6.569,78.89,166.81,14.77
,-12.295,-1.433,-0.01,-11.862,0.991,-7.961,92.82,167.72,21.0
,-11.807,0.424,-2.479,-12.702,-0.065,-9.708,102.69,162.75,19.53
,-10.486,1.077,-4.743,-11.235,-0.457,-10.213,94.08,157.92,12.81
18550.0,-10.608,0.215,-9.605,-5.992,-3.24,-11.902,29.75,114.73,-3.15
,-8.981,0.991,-10.203,-7.061,-2.96,-10.455,17.57,92.47,0.63
,-6.834,0.089,-11.22,-8.141,-1.484,-10.045,5.18,74.69,4.48
,-5.97,-2.034,-12.12,-7.504,-0.211,-10.227,-1.26,66.57,4.2
18626.0,-6.518,0.313,-9.718,-4.259,-0.974,-9.39,36.68,-18.83,13.02
,-5.745,0.682,-9.189,-4.104,-1.575,-9.33,21.91,-39.41,15.19
,-5.262,0.254,-9.17,-3.537,-2.12,-9.258,1.75,-62.3,17.15
,-4.7,-0.416,-9.387,-3.046,-2.501,-9.325,-14.77,-83.51,19.32
18702.0,-2.831,-2.867,-8.705,-3.683,-1.699,-8.543,-28.07,-160.65,27.86
,-3.017,-2.68,-8.37,-3.419,-1.675,-8.744,-18.41,-175.0,27.37
,-3.099,-2.34,-8.145,-3.711,-1.338,-8.413,-8.61,-188.51,27.86
,-3.544,-1.919,-8.141,-3.958,-1.201,-8.447,-4.69,-201.53,29.26
18778.0,-3.745,-1.622,-8.684,-5.595,-0.94,-8.385,-13.65,-248.15,42.56
,-3.965,-1.9,-8.686,-5.86,-0.905,-8.547,-11.62,-253.96,41.65
,-4.348,-1.534,-8.849,-6.123,-0.768,-8.76,-9.1,-258.93,40.18
,-4.795,-1.225,-8.49,-6.214,-0.665,-8.516,-10.85,-262.71,39.34
18854.0,-6.289,-0.656,-8.148,-8.564,0.263,-5.434,-27.51,-277.48,31.71
,-6.786,-0.603,-7.928,-8.933,0.495,-4.288,-25.69,-275.8,28.84
,-7.588,-0.273,-7.583,-9.344,0.256,-3.372,-23.03,-274.19,25.06
,-8.485,0.144,-6.743,-9.899,-0.17,-2.319,-23.45,-270.41,21.63
18929.0,-9.72,-0.232,-2.024,-7.37,-0.931,1.536,-23.17,-221.13,-3.71
,-9.249,-0.634,-1.374,-7.609,-0.66,2.788,-26.88,-199.85,-2.66
,-9.11,-1.055,-0.747,-7.284,-0.261,3.252,-30.24,-176.96,0.0
,-8.48,-1.441,-1.149,-7.294,0.053,3.345,-34.65,-153.44,1.89
19005.0,-7.432,0.605,2.503,-8.275,1.539,-2.056,-15.47,3.22,8.82
,-7.437,0.969,1.57,-9.519,0.581,-3.096,-25.69,32.9,8.96
,-7.717,1.407,0.318,-17.183,-3.92,0.349,-38.36,58.17,8.26
,-7.794,1.888,-0.732,-24.063,-7.954,6.391,-53.2,79.66,8.19
19081.0,-15.875,-2.95,-0.524,-8.402,-4.46,-4.164,-62.58,68.67,-1.4
,-7.461,-0.395,-2.044,-8.698,-0.79,-3.434,-82.39,77.28,-15.47
,-6.774,-2.804,-1.577,-9.71,1.206,-5.315,-112.77,91.07,-9.52
,-7.054,-4.85,-4.441,-10.371,2.273,-6.214,-110.74,97.86,-3.92
19157.0,-8.402,3.12,-6.832,-8.792,-2.34,-4.944,-52.71,102.69,2.1
,-7.394,3.214,-5.91,-9.411,-2.97,-3.881,-63.42,99.05,1.19
,-7.913,1.744,-6.226,-10.077,-1.831,-2.73,-65.94,95.83,-0.56
,-8.964,-0.304,-5.58,-9.974,0.282,-3.336,-60.62,91.84,-2.31
19232.0,-9.213,1.541,-4.221,-8.799,1.096,-5.181,20.58,71.05,19.88
,-8.306,1.28,-5.03,-9.28,0.318,-4.898,8.26,67.83,15.47
,-8.976,1.01,-5.207,-9.615,-0.237,-4.451,-6.51,66.08,9.73
,-9.016,1.039,-5.166,-9.526,0.084,-4.281,-20.58,62.51,6.65
19308.0,-9.459,0.366,-4.365,-9.44,0.493,-4.424,-11.62,47.74,8.54
,-9.629,-0.258,-4.006,-9.471,1.089,-4.807,-5.18,46.69,10.78
,-9.452,-0.648,-3.944,-9.536,0.73,-4.965,2.52,45.99,12.04
,-9.39,-0.373,-4.125,-9.454,-0.163,-4.874,10.43,43.96,11.62
19383.0,-9.409,-0.969,-4.7,-9.418,0.861,-3.838,-2.94,31.92,7.56
,-9.373,-0.902,-4.367,-9.416,0.67,-3.687,7.14,29.89,7.91
,-9.306,-0.237,-4.14,-9.361,-0.024,-3.513,17.29,27.65,7.84
,-9.318,0.45,-3.989,-9.351,-0.29,-3.352,21.56,26.11,7.63
19459.0,-9.337,-0.263,-3.317,-8.904,0.601,-3.539,15.12,25.27,6.37
,-9.332,0.196,-3.367,-9.117,-0.124,-3.297,18.41,25.06,6.72
,-9.529,0.725,-3.446,-9.366,-0.191,-3.027,18.06,24.43,6.44
,-9.244,1.211,-3.683,-9.485,0.05,-2.824,13.86,22.61,6.09
19535.0,-9.512,0.737,-2.704,-9.182,0.323,-2.283,20.37,26.11,7.98
,-9.44,1.309,-2.548,-9.055,-0.014,-2.367,18.62,27.44,7.63
,-9.476,1.393,-2.405,-8.935,-0.139,-2.568,12.95,28.91,6.51
,-9.392,0.797,-2.252,-9.215,-0.184,-2.649,6.44,30.52,5.11
19611.0,-9.402,-0.096,-2.816,-9.825,-0.806,-3.781,7.56,40.74,5.6
,-9.411,0.191,-3.072,-9.926,-0.077,-3.515,9.03,42.63,5.53
,-9.679,0.127,-3.597,-9.998,0.727,-3.175,8.61,44.03,5.04
,-9.835,-0.352,-3.821,-9.988,0.924,-2.831,8.75,45.43,4.83
19686.0,-9.957,0.737,-2.563,-9.921,-0.581,-3.144,32.13,56.91,8.82
,-9.945,0.419,-2.666,-9.981,-0.409,-3.386,29.19,58.31,6.51
,-9.962,-0.146,-2.733,-10.024,-0.376,-3.587,25.69,59.85,4.27
,-9.919,-0.605,-2.874,-9.947,-0.313,-3.817,23.1,61.74,2.31
19762.0,-9.935,-0.342,-4.032,-11.34,1.555,-4.027,18.55,72.73,-4.69
,-10.129,-0.112,-4.111,-10.077,-2.484,-2.91,21.35,75.32,-5.11
,-10.699,1.362,-4.374,-10.476,-2.68,-1.692,26.18,77.0,-6.16
,-12.268,4.082,-4.759,-10.732,-0.447,-1.474,26.53,76.23,-10.08
19838.0,-10.498,-0.084,-1.192,-10.89,-2.491,-0.519,37.31,99.96,-5.81
,-9.871,-1.249,-1.163,-11.103,-3.398,0.761,30.52,106.54,-6.51
,-10.077,-1.694,-1.247,-11.63,-3.577,1.053,31.29,112.21,-6.16
,-10.636,-1.725,-1.426,-11.759,-3.063,0.701,38.22,116.97,-5.04
19914.0,-11.522,-2.462,0.251,-9.677,0.802,-6.815,106.89,155.68,25.55
,-11.223,-1.096,-1.433,-10.122,0.632,-8.165,113.12,156.45,29.54
,-10.483,-0.112,-3.266,-10.988,-0.156,-8.672,110.88,154.56,29.19
,-9.509,0.409,-4.779,-10.854,-0.347,-9.629,100.17,150.78,24.57
19990.0,-10.538,-0.101,-9.83,-5.619,-1.685,-11.388,47.95,122.85,13.51
,-9.251,0.309,-9.433,-5.523,-2.441,-11.268,41.79,110.11,13.3
,-8.157,0.469,-10.021,-6.054,-2.072,-10.378,33.81,95.34,13.09
,-7.038,-0.28,-10.926,-6.339,-1.07,-10.057,23.31,80.22,12.53
20065.0,-5.552,-0.567,-10.021,-4.489,-1.194,-8.878,42.56,11.06,27.44
,-5.188,-0.297,-9.806,-4.252,-1.244,-8.99,34.79,-6.86,28.77
,-5.142,-0.199,-9.091,-4.032,-1.309,-9.143,23.94,-24.71,30.1
,-4.86,-0.651,-8.928,-3.539,-1.23,-9.237,12.25,-45.29,30.94
20141.0,-3.101,-1.29,-9.32,-3.867,-0.826,-8.782,-5.74,-125.37,36.82
,-3.408,-1.644,-8.339,-3.534,-0.897,-9.069,-8.05,-136.36,36.05
,-3.625,-1.759,-8.038,-3.836,-1.036,-8.729,-5.88,-151.34,34.65
,-3.877,-1.426,-8.212,-4.578,-1.05,-8.334,-6.51,-167.3,32.83
20216.0,-4.85,-1.062,-8.215,-4.439,-3.19,-9.155,-37.1,-217.56,36.12
,-4.937,-1.589,-8.469,-5.461,-2.874,-8.571,-46.62,-228.13,36.12
,-4.733,-2.453,-8.727,-6.157,-2.142,-8.528,-48.37,-236.39,35.84
,-4.74,-2.989,-9.079,-6.229,-1.747,-8.492,-42.91,-243.11,34.79
20292.0,-6.296,-1.318,-8.574,-7.21,-1.393,-6.717,-22.12,-258.02,28.28
,-6.497,-1.445,-8.11,-7.99,-1.18,-5.906,-24.71,-257.6,26.88
,-6.774,-1.527,-7.667,-8.504,-0.952,-5.489,-24.99,-256.76,25.13
,-6.731,-1.409,-7.411,-9.103,-0.694,-5.056,-21.35,-255.57,22.68
20368.0,-9.78,-0.531,-4.207,-9.935,-1.594,-1.034,1.68,-227.22,2.52
,-10.148,-0.522,-3.647,-9.002,-1.639,-0.778,0.35,-218.26,-2.52
,-9.971,-0.852,-2.754,-7.904,-1.979,-0.775,-2.73,-206.29,-5.04
,-9.952,-1.05,-2.111,-7.341,-2.247,1.158,-5.88,-192.36,-5.88
20444.0,-7.552,-1.579,1.747,-7.798,1.345,1.412,14.77,-91.28,0.14
,-7.224,-0.591,2.211,-7.442,1.407,0.957,21.35,-66.08,0.91
,-7.55,0.246,2.316,-7.452,1.335,0.29,20.65,-39.9,2.03
,-7.863,0.964,2.041,-7.856,1.094,-0.51,16.24,-14.35,2.1
20519.0,-8.538,0.584,-1.22,-13.13,-1.072,0.861,-39.62,81.83,-4.83
,-10.096,-0.433,-2.309,-8.696,0.4,-0.187,-47.74,90.16,-4.2
,-16.638,-5.719,0.677,-9.119,-2.314,0.885,-53.34,81.9,1.61
,-19.289,-5.762,6.435,-8.705,-3.841,-0.438,-25.2,66.85,14.7
20595.0,-8.854,-2.922,-1.527,-8.48,3.094,-5.91,-39.41,85.54,2.24
,-10.364,-0.031,-2.13,-7.49,2.273,-6.047,-15.47,92.82,8.54
,-10.658,1.938,-3.764,-7.906,0.692,-5.913,-2.73,94.57,12.25
,-10.201,2.848,-4.403,-8.897,-0.579,-5.918,-5.46,93.59,9.73
20671.0,-9.344,-0.833,-5.556,-9.811,0.967,-3.527,-29.19,78.96,3.15
,-9.689,-1.108,-4.865,-8.806,0.995,-3.25,-17.43,74.06,4.83
,-10.144,-1.491,-3.853,-9.069,0.342,-3.159,-3.64,68.67,7.84
,-10.256,-1.211,-3.582,-9.143,-0.124,-3.376,9.1,62.09,8.26
20747.0,-9.198,-0.151,-3.692,-9.502,0.163,-3.542,-33.25,49.63,1.61
,-9.564,-0.469,-3.654,-9.588,0.498,-3.625,-29.05,47.74,3.5
,-9.634,-0.799,-3.53,-9.493,1.11,-3.891,-19.67,45.43,5.81
,-9.488,-0.313,-3.625,-9.485,1.481,-4.128,-7.28,43.4,7.98
20823.0,-9.466,1.168,-3.989,-9.509,-0.9,-3.013,-8.75,31.29,7.56
,-9.524,0.263,-3.659,-9.505,-0.4,-3.032,-15.19,29.19,7.07
,-9.672,-0.749,-3.412,-9.651,0.089,-3.005,-13.51,27.86,6.72
,-9.667,-1.244,-3.144,-9.646,0.352,-3.029,-5.46,27.23,7.21
20898.0,-9.619,0.299,-3.106,-9.385,0.385,-3.441,15.61,23.38,8.19
,-9.387,0.364,-3.264,-9.21,0.062,-3.35,15.47,22.68,7.84
,-9.399,0.443,-3.302,-9.351,0.091,-3.405,16.73,22.4,7.63
,-9.45,0.438,-3.405,-9.438,0.268,-3.307,17.43,21.7,7.07
20974.0,-9.481,0.397,-3.451,-9.306,0.22,-3.183,20.16,18.48,6.37
,-9.239,0.414,-3.412,-9.239,0.251,-3.039,18.76,17.78,5.95
,-9.229,0.395,-3.264,-9.385,0.273,-2.783,16.8,17.64,5.6
,-9.421,0.366,-3.29,-9.488,0.414,-2.776,15.47,17.08,4.97
21049.0,-9.481,0.486,-2.941,-9.517,0.491,-3.254,11.55,16.73,4.69
,-9.536,0.416,-3.125,-9.483,0.287,-3.163,11.13,16.52,4.62
,-9.383,0.321,-3.317,-9.385,0.148,-3.113,11.41,16.66,4.76
,-9.407,0.304,-3.34,-9.39,0.103,-3.077,12.95,16.8,4.41
21125.0,-9.474,0.321,-3.254,-9.198,-0.203,-3.424,14.35,16.31,1.82
,-9.289,0.136,-3.415,-9.344,0.172,-3.582,16.38,16.94,2.03
,-8.892,-0.481,-3.534,-9.56,0.388,-3.659,19.53,18.62,3.15
,-9.014,-0.555,-3.546,-9.387,0.246,-3.743,26.46,19.39,4.55
21201.0,-9.268,-0.148,-3.778,-9.337,-0.084,-3.944,33.67,19.11,3.57
,-9.052,-0.799,-3.989,-9.335,0.12,-3.841,34.58,19.39,4.06
,-9.064,-0.988,-3.955,-9.371,0.211,-3.805,39.34,19.81,5.25
,-9.318,-0.534,-3.936,-9.447,0.373,-3.831,46.06,19.6,5.74
21277.0,-9.454,0.668,-4.089,-9.335,0.321,-4.494,52.57,20.72,4.2
,-9.232,0.704,-4.264,-9.143,0.022,-4.424,51.59,20.51,3.43
,-9.234,0.771,-4.446,-9.076,-0.323,-4.374,50.75,20.09,2.73
,-9.316,0.493,-4.475,-9.117,-0.622,-4.255,50.68,20.44,1.75
21352.0,-9.232,-0.847,-4.168,-9.301,0.364,-3.486,66.15,25.13,0.28
,-9.301,-0.885,-3.948,-9.505,0.593,-3.814,72.03,26.6,0.84
,-9.325,-0.656,-3.786,-9.988,0.586,-4.135,77.84,28.07,1.75
,-9.366,-0.151,-3.542,-10.249,0.172,-4.52,82.88,29.47,2.73
21428.0,-10.218,-0.648,-4.805,-9.753,-2.06,-5.085,82.25,29.82,3.22
,-10.268,-1.486,-4.86,-9.581,-2.07,-5.025,84.77,30.38,3.64
,-10.067,-1.943,-4.908,-9.533,-1.531,-4.87,89.67,29.96,4.34
,-9.933,-2.003,-5.09,-9.296,-0.771,-4.774,94.01,28.77,5.32
21504.0,-9.34,-0.471,-4.587,-8.67,-0.905,-4.154,85.89,16.87,5.95
,-9.38,-1.098,-4.475,-8.619,-0.378,-4.279,77.98,15.33,5.67
,-9.052,-1.433,-4.202,-8.074,-0.629,-4.712,75.95,13.86,7.42
,-8.437,-1.23,-4.343,-7.813,-1.57,-4.922,79.73,13.44,10.64
21580.0,-7.514,-2.094,-5.083,-7.377,-0.584,-6.293,99.82,19.95,34.65
,-7.416,-1.922,-5.501,-7.442,-0.242,-6.49,113.19,21.7,40.39
,-7.435,-1.534,-5.681,-7.621,0.196,-6.676,124.53,23.31,45.29
,-7.325,-1.015,-5.932,-7.664,0.639,-6.863,132.72,24.71,49.56
21655.0,-7.748,0.61,-6.707,-7.021,-2.493,-6.58,125.37,21.56,58.31
,-7.753,-0.019,-6.722,-7.538,-2.111,-5.59,120.82,21.21,61.32
,-7.528,-1.158,-6.698,-7.452,-1.316,-6.157,120.4,20.93,65.45
,-7.351,-2.024,-6.973,-7.069,-0.933,-6.042,128.45,20.51,70.63
21731.0,-7.231,-1.134,-5.997,-7.921,-0.972,-5.329,171.71,13.65,94.78
,-7.284,-1.701,-5.889,-8.1,-0.622,-4.913,172.76,11.9,95.13
,-7.396,-1.9,-5.523,-8.342,-0.627,-4.673,172.48,9.94,94.08
,-7.681,-1.503,-5.353,-8.385,-0.998,-4.379,179.48,7.98,91.7
21806.0,-8.818,-1.328,-4.044,-8.916,-2.51,-3.463,159.18,6.51,79.31
,-8.904,-1.558,-4.073,-8.717,-2.678,-3.927,156.1,6.16,77.35
,-8.839,-1.711,-4.039,-8.827,-2.929,-3.891,154.77,6.65,76.02
,-8.94,-1.965,-3.927,-9.036,-2.962,-3.855,155.61,7.14,74.76
21882.0,-8.973,-2.726,-3.891,-9.261,-1.627,-3.381,178.15,6.51,72.17
,-9.057,-2.338,-3.819,-9.481,-1.517,-3.278,184.38,6.58,71.4
,-9.067,-1.998,-3.735,-9.529,-1.488,-3.262,187.53,6.44,70.77
,-9.136,-1.866,-3.661,-9.435,-1.342,-3.338,188.23,6.02,69.86
21958.0,-9.442,-1.304,-3.214,-9.538,-1.907,-2.771,170.52,-4.76,59.01
,-9.584,-1.103,-3.032,-9.557,-2.099,-2.766,166.53,-7.0,56.7
,-9.658,-1.127,-2.785,-9.629,-2.039,-2.73,161.14,-9.31,54.32
,-9.61,-1.539,-2.893,-9.713,-1.551,-2.654,154.35,-11.55,52.36
22034.0,-9.631,-1.153,-2.754,-9.531,-1.376,-2.589,155.19,-20.02,46.48
,-9.435,-0.857,-2.479,-9.55,-1.163,-2.623,152.81,-20.44,44.73
,-9.603,-0.696,-2.575,-9.519,-0.993,-2.611,148.47,-21.84,42.84
,-9.466,-1.106,-2.692,-9.462,-0.701,-2.34,142.31,-23.73,41.02
22110.0,-9.507,-0.787,-2.343,-9.536,-1.12,-1.713,136.22,-33.95,36.26
,-9.562,-1.201,-2.324,-9.502,-0.787,-1.625,135.1,-35.14,35.63
,-9.61,-1.512,-2.027,-9.469,-0.383,-1.431,137.55,-35.28,35.98
,-9.572,-1.443,-1.814,-9.395,-0.203,-1.18,143.36,-34.65,36.75
22185.0,-9.124,0.067,-1.139,-9.139,-0.261,-1.153,151.9,-27.09,34.23
,-8.964,-0.194,-1.22,-9.162,0.091,-1.151,147.14,-24.36,33.88
,-8.933,-0.469,-1.187,-9.191,0.426,-1.194,143.92,-21.0,34.09
,-9.043,-0.543,-1.158,-9.184,0.574,-1.316,143.08,-17.85,34.72
22261.0,-9.263,0.591,-1.218,-8.859,0.775,-1.029,122.08,-4.2,30.1
,-9.11,0.529,-1.144,-8.926,0.859,-1.137,114.24,-1.33,28.42
,-8.856,0.574,-1.015,-8.818,0.845,-1.117,106.54,2.24,27.02
,-8.837,0.68,-1.062,-9.062,0.826,-1.283,98.84,6.37,26.04
22337.0,-9.634,0.39,-0.849,-11.874,0.206,0.462,56.28,35.98,24.29
,-10.45,-0.129,-0.534,-11.366,0.022,0.225,47.32,40.04,24.08
,-11.445,-0.491,0.148,-10.598,-0.474,0.313,40.46,40.88,23.8
,-12.134,-0.22,0.591,-10.589,0.089,0.089,35.77,36.89,21.84
22413.0,-10.041,0.873,-0.78,-9.407,-1.809,-2.922,-20.02,28.14,6.72
,-9.021,0.931,-1.464,-9.206,-1.917,-3.455,-29.89,34.79,6.37
,-8.909,0.196,-1.543,-8.971,-1.85,-4.226,-36.61,42.14,7.49
,-9.397,-0.955,-2.314,-8.782,-2.065,-4.685,-39.06,45.01,7.63
22488.0,-9.115,-1.981,-4.334,-9.244,0.452,-4.011,-3.99,40.95,16.52
,-9.608,-1.362,-4.013,-9.189,0.546,-4.106,6.37,38.99,19.18
,-9.713,-0.565,-3.872,-9.349,0.23,-4.168,12.32,36.12,19.6
,-9.478,0.148,-3.903,-9.292,-0.663,-4.135,12.88,33.81,19.18
22564.0,-9.217,-1.747,-3.932,-9.569,-0.809,-4.159,-8.19,27.51,19.81
,-9.208,-2.635,-3.853,-9.519,0.51,-4.348,0.49,27.58,22.19
,-9.227,-2.929,-3.826,-9.378,0.976,-4.262,14.28,27.79,25.2
,-9.483,-2.307,-3.936,-9.141,0.421,-3.793,30.66,27.23,27.44
22639.0,-9.141,-0.158,-3.209,-9.545,1.977,-2.661,24.43,18.97,26.18
,-9.474,-0.072,-2.891,-9.34,2.067,-2.793,25.83,18.55,25.9
,-9.667,0.617,-2.723,-9.287,1.596,-3.022,28.21,18.06,24.22
,-9.665,1.316,-2.575,-9.292,0.936,-3.032,28.14,17.64,22.54
22715.0,-9.318,0.57,-3.084,-9.383,1.318,-3.872,14.35,18.9,19.18
,-9.366,0.692,-3.161,-9.299,1.012,-4.113,18.76,19.11,18.62
,-9.464,1.077,-3.295,-9.328,0.615,-4.415,21.63,19.32,17.99
,-9.452,1.364,-3.609,-9.268,0.409,-4.515,20.23,18.76,16.87
22791.0,-9.323,0.593,-4.633,-9.217,0.151,-4.149,17.01,14.28,14.14
,-9.344,0.967,-4.628,-9.366,0.057,-4.054,19.6,12.74,13.44
,-9.244,0.943,-4.52,-9.378,0.373,-3.908,18.55,11.27,12.53
,-9.186,0.637,-4.456,-9.349,0.632,-3.733,16.17,10.43,12.04
22867.0,-9.34,0.861,-3.635,-9.323,0.823,-3.099,21.91,8.89,9.17
,-9.323,0.773,-3.429,-9.337,0.902,-3.183,19.67,8.82,8.33
,-9.239,0.668,-3.283,-9.251,1.0,-3.171,17.64,9.38,8.05
,-9.287,0.768,-3.18,-9.227,0.897,-3.202,17.71,9.8,8.12
22943.0,-9.215,0.72,-3.159,-9.308,0.742,-2.661,9.66,12.39,6.02
,-9.155,0.4,-3.039,-9.251,0.794,-2.611,7.84,13.16,5.67
,-9.222,0.313,-2.807,-9.234,0.665,-2.601,8.26,14.42,5.6
,-9.325,0.491,-2.716,-9.196,0.34,-2.556,9.59,15.68,5.67
23018.0,-9.201,-0.194,-2.374,-9.189,0.536,-2.697,9.38,23.94,5.6
,-9.215,-0.165,-2.316,-9.313,0.56,-3.029,12.95,26.04,6.58
,-9.292,0.158,-2.371,-9.251,0.139,-3.338,15.61,27.72,7.21
,-9.258,0.467,-2.515,-9.043,-0.459,-3.597,14.7,29.19,6.93
23094.0,-8.839,-0.383,-3.817,-8.971,0.136,-4.197,12.04,36.75,8.33
,-8.93,0.081,-4.049,-8.949,-0.007,-4.307,16.73,37.8,9.38
,-9.014,0.349,-4.08,-9.335,0.29,-4.353,18.2,38.71,9.8
,-8.985,0.337,-4.152,-9.206,0.835,-4.633,18.06,39.9,10.08
23170.0,-9.263,0.95,-4.733,-9.629,0.488,-4.707,18.34,40.6,11.41
,-9.177,0.737,-4.769,-9.581,0.718,-5.217,16.24,41.37,11.27
,-9.385,0.438,-4.657,-9.541,0.467,-5.229,16.87,42.42,11.27
,-9.342,0.407,-4.578,-9.505,-0.024,-5.248,19.46,43.4,11.27
23246.0,-9.713,-0.124,-5.13,-9.916,0.246,-3.58,19.74,45.5,7.49
,-9.722,-0.022,-4.805,-9.993,0.335,-3.144,24.08,46.97,6.72
,-9.835,0.163,-4.41,-10.05,0.993,-2.977,26.88,49.07,6.02
,-9.909,0.29,-4.003,-10.957,3.037,-2.934,27.79,51.17,5.04
23321.0,-11.39,2.663,-3.068,-10.517,-0.235,-2.144,21.14,63.21,-3.64
,-10.103,-0.821,-2.515,-10.201,-0.988,-2.017,7.98,68.88,-6.16
,-9.861,-2.69,-2.046,-10.036,-1.615,-1.713,12.88,75.32,-3.99
,-10.366,-1.235,-1.984,-10.33,-1.173,-1.582,28.49,78.96,-0.14
23397.0,-10.529,-0.881,-1.467,-11.103,-3.034,-0.165,29.61,102.41,2.66
,-10.373,-1.05,-1.515,-11.263,-2.79,-0.512,28.21,107.73,3.78
,-10.215,-1.761,-1.089,-11.385,-2.209,-1.74,29.68,114.31,6.02
,-10.495,-2.618,-0.507,-10.83,-1.888,-3.46,39.76,122.36,11.41
23472.0,-9.77,-1.826,-4.35,-11.06,-1.285,-7.408,91.63,141.26,33.25
,-9.536,-1.307,-5.506,-10.603,-0.486,-8.48,94.92,143.43,34.02
,-9.954,-0.864,-6.571,-9.88,0.574,-9.447,98.49,144.06,33.6
,-10.366,-0.833,-7.545,-8.696,1.027,-9.878,100.31,143.57,32.9
23548.0,-7.643,0.895,-9.974,-8.284,-0.818,-9.665,64.75,87.92,21.14
,-6.925,-0.062,-10.902,-7.473,0.005,-9.519,50.05,77.42,22.96
,-6.502,-1.443,-10.541,-6.406,0.383,-9.852,40.39,72.87,26.6
,-7.775,-1.357,-10.081,-6.016,0.211,-9.567,46.97,62.93,30.52
23624.0,-5.583,0.017,-9.421,-5.006,-0.78,-8.751,12.95,-29.47,38.64
,-5.073,-0.416,-9.337,-3.795,-1.022,-9.351,3.29,-45.78,41.86
,-4.81,-0.723,-9.332,-3.766,-1.586,-8.916,-3.99,-61.74,44.66
,-4.755,-0.905,-8.885,-4.185,-1.692,-8.552,-6.23,-76.16,46.97
23700.0,-4.386,-1.809,-8.145,-4.659,-1.039,-8.619,2.73,-141.26,44.03
,-4.654,-1.378,-8.035,-4.501,-1.184,-8.404,8.61,-155.61,42.28
,-4.707,-0.979,-8.507,-4.518,-1.029,-8.299,9.17,-169.26,40.74
,-4.702,-0.926,-8.526,-4.743,-0.835,-8.215,7.28,-179.9,39.62
23775.0,-4.893,-0.706,-8.502,-5.377,-0.751,-8.37,-8.89,-223.23,35.56
,-4.767,-0.639,-8.964,-5.664,-0.9,-8.418,-13.37,-229.95,35.0
,-4.889,-0.771,-8.763,-6.013,-1.345,-8.253,-18.83,-233.87,34.09
,-5.059,-0.656,-8.559,-6.119,-1.68,-8.296,-24.85,-237.02,32.62
23851.0,-6.183,-2.288,-7.724,-8.081,-1.189,-6.267,-34.86,-256.76,18.76
,-6.396,-2.501,-7.542,-8.282,-1.278,-4.879,-24.71,-257.95,16.73
,-6.767,-2.333,-7.253,-8.825,-1.517,-3.884,-12.95,-257.25,15.54
,-7.818,-1.797,-6.789,-9.22,-1.395,-2.934,-4.48,-256.69,15.47
23927.0,-9.411,-0.782,-2.24,-9.036,0.524,-0.297,24.57,-224.28,7.84
,-9.785,-0.134,-1.79,-8.454,-0.641,0.452,24.99,-211.33,3.92
,-9.911,0.742,-1.443,-7.775,-2.003,1.127,15.89,-196.0,0.35
,-9.545,0.715,-0.615,-7.016,-2.233,2.051,1.4,-178.71,-3.01
24003.0,-7.15,-1.759,2.316,-7.856,1.153,0.199,-16.03,-55.65,-1.68
,-7.535,-0.632,1.965,-7.789,1.055,-0.572,-5.11,-27.37,-0.35
,-7.767,0.419,1.51,-7.899,0.897,-1.503,-3.92,-0.28,-0.21
,-7.801,1.077,0.766,-8.72,0.309,-2.381,-11.13,24.92,-1.68
24079.0,-11.718,-1.673,-3.903,-8.004,0.187,-1.06,-56.7,103.32,-3.08
,-19.095,-8.856,6.932,-9.232,-2.565,-0.682,-45.15,92.19,10.78
,-19.526,-4.563,3.79,-9.842,-3.415,-1.764,17.15,73.78,19.11
,-11.854,0.459,-0.51,-8.638,-1.936,-2.601,22.96,63.07,6.51
24154.0,-9.366,-0.491,-3.113,-7.085,3.293,-6.456,7.7,94.29,14.07
,-10.069,1.199,-4.046,-8.32,1.728,-5.729,18.69,95.2,16.87
,-9.868,3.616,-5.135,-9.552,0.914,-5.274,17.36,92.05,13.65
,-7.863,4.197,-6.267,-10.005,0.096,-4.901,-2.52,85.19,7.7
24230.0,-9.876,-1.204,-4.374,-9.579,-0.416,-2.769,-43.12,68.81,-4.9
,-9.421,-1.96,-4.018,-9.402,0.225,-2.881,-36.19,65.59,-3.15
,-9.562,-1.878,-3.451,-9.11,0.565,-3.173,-23.17,62.65,-0.56
,-9.605,-1.163,-3.08,-9.186,1.055,-3.678,-10.29,60.9,3.22
24305.0,-9.189,1.692,-3.91,-9.677,-0.352,-3.374,7.35,51.59,7.28
,-9.261,1.541,-3.932,-9.943,0.254,-3.419,-0.42,49.98,7.28
,-9.407,0.763,-3.711,-9.954,1.184,-3.556,-5.11,48.16,7.56
,-9.509,0.012,-3.597,-9.761,1.491,-3.829,-3.5,46.48,7.7
24381.0,-9.507,1.055,-3.967,-9.435,0.01,-4.099,10.15,36.26,6.58
,-9.296,0.297,-4.137,-9.445,-0.038,-3.944,7.77,34.51,6.3
,-9.342,-0.184,-4.295,-9.524,0.196,-3.673,9.38,32.62,5.95
,-9.418,-0.129,-4.166,-9.481,0.156,-3.46,13.16,31.01,5.81
24457.0,-9.49,0.002,-3.321,-9.478,0.842,-3.388,7.84,23.17,2.73
,-9.569,0.22,-3.403,-9.505,0.763,-3.254,7.56,22.12,2.31
,-9.445,0.581,-3.417,-9.402,0.553,-2.96,7.77,21.21,2.31
,-9.344,0.742,-3.46,-9.38,0.292,-2.642,7.35,20.72,1.96
24533.0,-9.39,-0.031,-2.414,-9.452,0.993,-1.874,6.51,22.47,1.33
,-9.359,0.089,-2.132,-9.536,1.01,-1.931,7.98,23.59,1.96
,-9.517,0.481,-1.981,-9.481,0.768,-1.993,9.8,24.29,1.75
,-9.5,0.952,-1.912,-9.323,0.069,-1.933,8.26,24.99,1.19
24608.0,-9.265,-0.438,-1.831,-9.249,-0.605,-2.647,1.75,35.84,-1.12
,-9.282,-0.392,-1.969,-9.201,-0.869,-2.903,5.32,37.94,-0.35
,-9.311,-0.065,-2.249,-9.32,-0.672,-3.01,5.32,39.69,0.14
,-9.227,-0.112,-2.436,-9.263,0.304,-3.266,2.31,41.65,-0.14
24684.0,-9.17,0.723,-3.393,-9.768,0.739,-3.568,-2.1,47.81,-0.42
,-9.196,0.345,-3.333,-9.617,0.89,-3.817,-6.09,49.28,-0.63
,-9.251,-0.034,-3.273,-9.82,0.302,-3.869,-5.53,50.82,-0.91
,-9.507,0.191,-3.309,-10.002,-0.278,-3.932,-1.4,51.94,-1.05
24759.0,-10.12,-0.313,-3.884,-9.943,0.751,-3.257,7.49,58.73,-0.56
,-10.249,-0.057,-3.671,-9.911,0.196,-3.223,14.77,61.53,0.56
,-10.242,0.136,-3.374,-10.053,-0.352,-3.118,20.23,63.98,0.28
,-10.146,0.572,-3.262,-10.055,-0.479,-3.137,22.54,65.59,-1.4
24835.0,-10.055,-0.546,-3.013,-11.627,1.697,-2.819,27.44,80.08,-8.12
,-10.28,-0.249,-2.883,-10.079,-2.936,-2.044,31.64,83.58,-8.89
,-10.696,1.338,-2.955,-10.763,-3.053,-1.086,35.84,86.1,-10.5
,-12.335,4.451,-3.369,-10.866,-0.364,-1.24,33.74,86.03,-15.68
24911.0,-10.787,-0.017,-1.07,-11.874,-1.967,0.72,22.33,112.7,-18.34
,-10.414,-1.086,-1.206,-12.01,-3.63,1.749,11.83,120.12,-19.25
,-10.747,-1.285,-1.28,-12.254,-3.542,0.581,12.11,126.56,-17.15
,-11.484,-1.323,-0.335,-12.204,-3.204,-0.55,19.53,132.93,-13.51
24987.0,-11.618,-2.039,-2.259,-11.132,0.378,-8.495,94.01,161.0,18.27
,-10.964,-0.179,-4.125,-11.244,0.223,-9.938,100.8,159.6,19.74
,-10.017,1.055,-5.592,-12.134,-0.373,-10.045,94.36,156.52,16.59
,-10.287,1.397,-7.294,-10.105,0.357,-9.813,80.08,153.65,11.9
25063.0,-8.71,1.019,-9.895,-3.972,-0.943,-12.67,55.09,106.68,5.39
,-8.71,0.905,-9.574,-4.618,-1.292,-11.869,44.17,89.04,4.76
,-8.5,0.61,-10.237,-5.449,-1.969,-11.163,31.99,64.05,5.04
,-6.107,-0.115,-11.62,-6.033,-1.761,-9.964,22.19,45.64,8.61
25138.0,-5.989,-1.079,-9.538,-4.087,-1.06,-9.284,38.01,12.67,22.96
,-6.363,-0.744,-9.016,-3.783,-1.945,-8.892,35.49,-7.14,24.5
,-5.776,-0.299,-9.127,-3.795,-2.173,-8.519,18.97,-32.06,24.22
,-4.704,-0.51,-9.155,-3.594,-1.658,-8.528,-0.07,-52.57,26.32
25214.0,-2.089,-0.95,-9.476,-3.786,-1.687,-7.875,-14.7,-122.78,36.33
,-1.601,-1.345,-9.811,-3.64,-0.684,-8.375,-21.42,-124.25,36.26
,-2.888,-1.883,-8.272,-3.537,-0.072,-8.39,-24.08,-128.17,34.3
,-3.508,-1.91,-7.901,-2.97,-0.218,-8.449,-18.83,-140.0,30.38
25290.0,-2.812,-0.634,-8.26,-3.867,-1.749,-8.899,-38.29,-196.28,30.31
,-2.936,-1.103,-8.279,-3.441,-2.022,-8.878,-44.94,-206.01,29.54
,-3.352,-1.646,-8.016,-4.343,-1.78,-8.739,-46.62,-216.72,28.0
,-3.821,-1.859,-8.138,-4.542,-1.314,-8.827,-44.66,-229.46,26.67
25366.0,-5.293,-0.445,-8.818,-6.774,-1.141,-8.236,-6.09,-266.56,19.32
,-5.992,0.179,-9.002,-7.519,-1.45,-7.578,-14.63,-274.12,17.43
,-6.241,0.153,-9.182,-8.078,-1.543,-6.954,-26.04,-280.84,16.38
,-6.255,-0.426,-8.871,-8.959,-1.699,-5.901,-34.37,-283.85,14.77
25441.0,-9.062,-1.778,-4.47,-10.77,-0.476,-0.371,-45.78,-273.56,8.96
,-9.086,-2.027,-2.644,-10.275,0.766,0.254,-38.22,-259.14,8.4
,-9.806,-1.881,-1.397,-9.158,1.223,0.835,-22.4,-241.99,3.71
,-10.524,-1.194,-1.06,-8.251,0.66,0.718,-10.01,-223.3,-0.63
25517.0,-7.291,-0.972,1.323,-7.519,0.754,1.692,-50.47,-97.3,-1.12
,-6.693,-1.701,3.13,-7.528,0.842,0.759,-41.51,-62.02,3.22
,-7.064,-1.247,3.386,-7.612,0.467,-0.357,-25.83,-28.77,5.74
,-7.179,-0.237,2.857,-8.203,-0.007,-1.369,-16.17,1.47,7.63
25592.0,-10.916,-1.285,-2.249,-6.473,-0.378,-1.653,-45.99,106.75,9.24
,-19.787,-7.947,5.97,-8.765,-3.396,-1.637,-51.8,93.66,16.1
,-21.022,-6.277,5.564,-8.614,-5.173,-3.733,-20.65,73.5,19.81
,-12.953,0.043,0.804,-7.547,-3.096,-3.955,-22.19,70.07,0.56
25668.0,-8.988,0.371,-3.477,-6.949,3.96,-6.822,-1.61,110.25,6.44
,-9.758,2.661,-5.882,-7.928,1.888,-7.253,0.49,111.09,7.84
,-9.773,4.31,-7.325,-9.225,-0.053,-6.219,-15.89,106.47,4.76
,-7.31,4.774,-7.057,-9.385,-1.182,-5.681,-40.67,99.26,2.03
25744.0,-10.033,-1.673,-4.487,-8.33,-0.842,-4.046,-29.4,73.5,0.14
,-10.608,-1.137,-3.711,-8.756,-0.608,-4.415,-12.18,68.81,4.76
,-10.187,-0.093,-3.776,-9.129,0.249,-4.602,-3.01,66.01,8.4
,-9.141,-0.096,-3.865,-9.036,0.988,-4.74,-2.73,65.1,11.2
25820.0,-9.146,0.704,-4.606,-9.612,0.357,-3.912,-12.95,53.06,7.49
,-9.433,-0.05,-4.563,-9.82,0.577,-3.841,-13.16,51.1,6.51
,-9.643,-0.249,-4.271,-9.749,0.936,-4.075,-6.44,49.07,6.86
,-9.545,0.211,-4.152,-9.538,1.168,-4.31,0.91,47.04,8.26
25895.0,-9.177,0.89,-4.606,-9.49,-0.132,-3.896,7.49,33.25,8.33
,-9.27,0.589,-4.343,-9.567,-0.053,-3.637,4.41,31.15,7.14
,-9.474,0.426,-4.235,-9.5,0.215,-3.714,2.03,28.42,5.46
,-9.519,0.33,-4.063,-9.536,0.68,-3.589,-0.84,26.39,4.27
25971.0,-9.433,1.084,-3.74,-9.332,-0.05,-3.379,-0.28,17.99,1.12
,-9.301,1.117,-3.738,-9.284,-0.524,-3.142,-2.45,18.2,0.49
,-9.426,0.826,-3.618,-9.234,-0.625,-2.831,-4.76,18.9,-0.07
,-9.325,0.409,-3.57,-9.28,-0.474,-2.577,-6.02,19.39,-0.42
26047.0,-9.464,-0.034,-2.503,-9.28,-0.256,-2.35,10.29,24.71,2.45
,-9.421,0.237,-2.434,-9.347,-0.151,-2.462,8.47,25.48,1.96
,-9.344,0.053,-2.395,-9.325,-0.041,-2.611,4.55,26.95,1.47
,-9.289,-0.323,-2.185,-9.351,-0.108,-2.694,0.98,28.77,1.26
26123.0,-9.244,-0.249,-2.843,-9.517,0.419,-3.386,-5.53,36.26,0.77
,-9.337,-0.328,-2.955,-9.629,0.658,-3.687,-7.21,37.66,0.7
,-9.332,-0.479,-3.037,-9.718,0.359,-3.841,-6.93,38.85,0.56
,-9.543,-0.16,-3.199,-9.698,-0.148,-3.826,-4.2,40.11,0.63
26199.0,-9.773,-0.282,-3.637,-10.098,0.029,-2.527,3.85,48.02,1.26
,-9.954,0.112,-3.338,-10.148,0.038,-2.446,10.43,49.63,1.75
,-10.01,0.246,-3.034,-10.227,-0.199,-2.517,13.37,51.45,1.68
,-10.021,0.122,-2.749,-10.175,-0.235,-2.548,14.35,53.69,1.26
26274.0,-10.313,-0.12,-2.548,-9.847,-0.266,-3.154,31.5,69.09,-1.05
,-10.342,0.112,-2.816,-9.899,-0.395,-3.185,32.76,71.4,-2.59
,-10.158,0.227,-2.972,-9.928,-0.242,-3.374,31.85,73.85,-4.34
,-9.94,0.043,-3.123,-10.629,1.563,-3.51,30.45,76.79,-5.53
26350.0,-11.866,3.273,-3.999,-10.543,-0.357,-1.455,35.28,86.87,-14.0
,-10.948,0.203,-3.4,-10.51,-0.491,-1.524,16.03,91.28,-19.11
,-10.079,-3.312,-2.022,-10.431,-1.211,-1.567,9.73,99.82,-18.34
,-10.488,-2.199,-1.503,-10.885,-1.187,-1.503,26.74,103.53,-13.86
26425.0,-11.309,-1.637,-0.242,-12.364,-1.768,-0.309,42.63,130.97,-5.81
,-11.67,-2.41,1.127,-11.479,-1.027,-2.35,53.9,140.21,-0.91
,-12.125,-2.678,1.33,-10.632,-0.428,-4.109,66.71,146.93,4.76
,-12.498,-2.441,0.94,-10.258,-0.103,-5.561,79.24,151.83,11.9
26501.0,-10.665,0.053,-7.303,-9.655,0.512,-9.244,73.29,156.94,20.02
,-11.108,-0.467,-7.614,-9.282,1.24,-9.179,72.38,156.73,20.16
,-11.352,-0.644,-8.064,-8.902,1.22,-9.605,73.71,152.88,18.13
,-10.833,-0.168,-9.0,-7.918,0.455,-10.426,70.91,141.26,14.21
26577.0,-6.078,-0.464,-11.218,-6.013,-0.737,-10.096,11.06,54.25,11.62
,-5.188,-0.916,-11.194,-6.188,-0.342,-9.395,9.03,47.6,10.22
,-5.312,-0.988,-11.22,-5.98,0.045,-9.021,7.14,38.01,10.78
,-5.652,-1.058,-10.636,-4.984,0.038,-9.179,7.98,25.83,12.6
26653.0,-4.336,-0.665,-9.256,-2.821,-1.137,-9.249,-19.88,-77.14,21.98
,-3.991,-1.12,-9.227,-2.919,-1.383,-9.033,-24.29,-95.55,24.92
,-3.192,-1.342,-9.395,-2.927,-1.634,-9.069,-23.17,-111.16,27.44
,-3.151,-1.11,-9.139,-2.86,-2.178,-8.703,-22.12,-125.93,29.26
26728.0,-3.041,-2.24,-8.763,-4.008,-1.508,-8.698,-13.72,-194.46,27.58
,-3.625,-1.981,-8.703,-4.011,-1.498,-9.033,-10.01,-207.34,27.65
,-3.869,-1.653,-8.717,-4.391,-1.723,-8.715,-6.51,-219.17,29.61
,-3.881,-1.529,-8.665,-4.678,-1.785,-8.693,-4.83,-229.32,32.83
26804.0,-5.226,-1.752,-8.421,-6.633,-1.804,-8.562,-17.64,-266.49,37.45
,-5.686,-1.17,-8.746,-7.083,-1.586,-8.323,-23.59,-272.93,36.26
,-5.726,-1.309,-9.141,-7.155,-1.582,-7.81,-33.95,-277.55,34.72
,-5.934,-1.67,-9.103,-7.473,-1.524,-7.002,-42.56,-279.51,32.34
26880.0,-7.997,-1.364,-6.111,-10.177,-0.165,-3.063,-42.63,-271.25,20.3
,-8.693,-1.266,-5.042,-10.546,-0.179,-2.027,-38.71,-262.5,17.92
,-9.107,-1.254,-4.106,-10.055,0.05,-1.996,-32.41,-251.44,14.7
,-9.938,-1.017,-3.317,-9.124,-0.737,-1.283,-22.26,-241.15,8.68
26956.0,-8.457,-2.18,-0.51,-7.243,-0.158,2.402,-36.19,-153.16,-7.56
,-7.887,-2.986,-0.038,-7.325,0.61,2.374,-29.82,-127.4,-4.48
,-7.193,-2.496,1.309,-7.251,1.273,1.541,-13.93,-98.7,0.49
,-7.162,-1.369,2.228,-7.382,1.697,0.476,-0.84,-69.3,3.78
27031.0,-7.595,1.369,-0.735,-16.908,-8.684,3.467,-41.79,64.61,-1.54
,-7.667,0.881,-1.788,-20.603,-6.415,4.972,-54.81,83.65,-2.59
,-8.368,0.136,-2.965,-13.364,-0.165,-0.723,-61.53,98.91,-2.73
,-9.916,-1.866,-4.176,-8.598,-0.713,-2.134,-65.1,105.98,-1.4
27107.0,-8.894,-3.111,-1.991,-11.507,-0.438,-4.039,-26.32,83.09,3.92
,-7.83,-3.793,-2.706,-11.05,2.639,-5.616,-22.26,82.95,5.74
,-6.994,-2.91,-3.764,-8.394,4.283,-6.624,-1.54,85.61,8.68
,-8.452,-2.477,-2.991,-7.143,3.666,-6.609,13.93,92.75,14.77
27183.0,-8.112,1.335,-6.1,-10.768,-0.469,-3.039,-15.47,91.7,8.75
,-8.978,-0.919,-6.035,-10.493,1.022,-3.293,-24.92,87.57,4.34
,-9.21,-2.036,-5.042,-9.253,1.89,-3.419,-19.74,82.25,3.43
,-9.536,-1.761,-4.006,-8.665,1.125,-3.285,-4.83,76.51,5.25
27258.0,-9.253,0.452,-3.061,-9.883,0.634,-3.57,-6.51,59.99,7.42
,-9.107,0.938,-3.245,-9.596,0.979,-3.781,-2.73,57.75,7.98
,-9.16,1.326,-3.484,-9.438,1.11,-3.91,-1.47,56.28,8.68
,-9.737,0.809,-3.384,-9.457,1.283,-4.034,0.0,54.74,9.31
27334.0,-9.39,1.039,-4.336,-9.442,0.115,-4.709,3.08,44.31,5.53
,-9.426,0.534,-4.408,-9.361,0.622,-4.925,0.07,43.4,5.32
,-9.502,-0.117,-4.48,-9.265,0.869,-4.944,0.56,41.58,5.67
,-9.605,-0.299,-4.554,-9.196,0.694,-4.815,6.3,39.27,6.09
27410.0,-9.232,0.146,-4.439,-9.497,0.799,-3.687,10.92,27.86,4.27
,-9.43,-0.175,-4.121,-9.521,0.991,-3.604,12.04,26.32,4.27
,-9.641,-0.002,-3.944,-9.447,0.787,-3.568,16.31,24.57,4.34
,-9.521,0.242,-3.802,-9.342,0.268,-3.4,19.25,22.96,4.13
27486.0,-9.277,-0.093,-3.307,-9.282,0.921,-2.843,9.03,18.76,1.82
,-9.268,0.127,-3.345,-9.306,0.648,-2.606,13.02,18.62,1.82
,-9.256,0.483,-3.178,-9.354,0.581,-2.448,14.28,18.27,1.61
,-9.239,0.854,-3.037,-9.502,0.787,-2.491,12.32,18.27,1.19
27561.0,-9.404,0.921,-2.431,-9.313,-0.486,-2.324,-1.75,21.42,-0.56
,-9.33,0.94,-2.438,-9.5,-0.357,-2.362,-5.46,22.4,-1.19
,-9.258,0.455,-2.388,-9.433,0.12,-2.69,-10.15,23.59,-1.82
,-9.227,-0.062,-2.388,-9.256,0.263,-2.848,-11.9,25.34,-1.82
27637.0,-9.167,0.081,-3.044,-9.507,0.23,-3.628,-9.66,33.39,-1.89
,-9.189,-0.313,-3.281,-9.404,0.572,-3.463,-9.59,35.14,-2.17
,-9.296,-0.491,-3.408,-9.351,0.424,-3.391,-5.88,36.68,-1.75
,-9.514,-0.287,-3.532,-9.397,0.079,-3.218,-0.91,38.01,-1.26
27713.0,-9.493,0.096,-3.12,-9.189,-0.323,-3.826,3.36,44.66,-0.98
,-9.737,0.567,-3.063,-9.447,-0.524,-3.991,3.64,44.66,-1.47
,-9.217,0.859,-3.367,-9.495,-0.5,-4.197,0.42,44.87,-1.89
,-9.167,0.404,-3.501,-9.574,-0.376,-4.47,-3.92,46.2,-2.45
27789.0,-9.622,-0.237,-4.494,-9.541,0.005,-4.558,7.98,53.2,-4.06
,-9.71,-0.134,-4.611,-9.411,-0.235,-4.436,10.36,54.46,-4.48
,-9.864,0.089,-4.582,-9.363,-0.34,-4.305,11.55,55.02,-5.25
,-9.569,0.105,-4.654,-9.275,-0.096,-4.305,12.74,56.21,-5.6
27864.0,-9.608,0.993,-4.642,-9.359,-2.12,-3.628,29.19,64.05,-6.3
,-10.938,4.389,-4.714,-8.949,-1.393,-3.642,30.8,63.07,-10.08
,-11.201,3.774,-4.764,-9.232,-0.041,-3.924,13.51,62.86,-17.5
,-9.878,-0.007,-4.188,-8.935,0.077,-3.922,-3.78,67.69,-21.84
27940.0,-8.756,-0.658,-3.884,-9.098,-1.46,-3.427,8.19,77.49,-14.98
,-8.856,-0.704,-3.874,-9.359,-1.888,-3.106,8.68,79.1,-15.96
,-9.119,-0.591,-3.764,-9.603,-2.35,-2.809,9.73,80.92,-16.1
,-9.124,-0.821,-3.654,-9.691,-3.015,-2.34,8.89,83.65,-15.54
28015.0,-9.667,-3.001,-2.826,-9.146,-0.696,-4.673,62.23,107.17,8.68
,-9.617,-2.917,-2.895,-9.16,-0.132,-5.59,77.21,112.0,15.89
,-9.641,-2.472,-3.302,-9.296,-0.17,-6.138,88.97,115.99,21.42
,-9.194,-1.591,-3.424,-9.524,-0.488,-6.645,95.83,119.77,24.22
28091.0,-9.514,-0.644,-6.887,-7.849,0.713,-8.693,57.96,114.31,19.18
,-9.459,-0.036,-7.516,-6.942,0.677,-9.605,53.06,105.14,15.96
,-9.062,0.579,-7.839,-6.044,-0.249,-10.043,45.64,93.31,12.32
,-8.49,0.682,-8.217,-6.14,-0.771,-9.811,32.2,79.38,9.31
28167.0,-5.568,-0.593,-9.866,-5.334,-0.057,-8.959,13.86,28.98,5.53
,-5.815,-0.471,-9.603,-4.963,-0.392,-8.923,17.78,18.34,4.9
,-6.025,-0.17,-9.239,-4.369,-0.471,-9.351,14.21,4.27,2.8
,-5.899,0.05,-8.875,-3.728,-0.452,-9.849,7.49,-13.65,2.31
28243.0,-3.924,-0.522,-9.378,-4.133,-1.747,-8.897,-14.14,-82.67,5.6
,-4.518,-0.419,-9.031,-4.295,-2.3,-8.612,-16.1,-93.8,4.06
,-4.374,-0.522,-9.028,-4.329,-2.084,-8.703,-16.59,-105.84,2.24
,-4.31,-1.024,-8.94,-4.506,-1.424,-8.777,-17.57,-116.9,1.47
28319.0,-4.487,-0.737,-9.359,-5.724,0.136,-8.638,3.92,-154.7,-10.99
,-4.819,-0.215,-9.368,-5.662,0.005,-8.409,-2.45,-159.11,-12.95
,-5.126,-0.034,-8.909,-5.822,-0.081,-8.232,-11.76,-162.75,-13.65
,-5.226,-0.014,-8.672,-6.119,-0.268,-8.107,-23.66,-166.81,-15.68
28394.0,-6.351,-0.526,-7.858,-7.387,-0.919,-6.815,-82.25,-174.3,-35.91
,-6.612,-0.747,-7.703,-7.231,-0.905,-6.877,-89.04,-170.8,-39.83
,-6.839,-0.857,-7.636,-7.262,-0.974,-6.777,-91.14,-166.39,-43.54
,-6.793,-0.94,-7.212,-7.461,-0.742,-6.348,-91.28,-160.37,-46.55
28470.0,-7.798,-0.512,-5.956,-8.112,-0.029,-5.205,-92.4,-125.79,-51.45
,-8.133,-0.302,-5.841,-8.71,0.33,-5.061,-93.45,-119.0,-52.5
,-8.047,-0.134,-5.755,-8.66,0.909,-5.123,-95.41,-112.63,-53.48
,-8.236,-0.129,-5.786,-8.512,1.192,-4.958,-99.4,-105.91,-54.32
28546.0,-8.681,1.127,-4.738,-8.614,-0.404,-4.322,-142.59,-79.31,-70.98
,-8.459,1.062,-4.649,-8.461,-0.706,-4.252,-157.99,-74.41,-73.71
,-8.603,0.952,-4.74,-8.406,-0.914,-4.298,-172.97,-68.88,-74.83
,-8.636,0.364,-4.652,-8.5,-0.708,-4.25,-186.13,-61.74,-74.76
28622.0,-8.373,-0.483,-4.338,-7.777,-0.988,-4.819,-199.01,-26.39,-68.95
,-8.256,-0.644,-4.585,-7.758,-1.027,-4.877,-199.36,-20.02,-67.83
,-8.043,-0.938,-4.494,-7.827,-0.928,-4.637,-200.34,-13.79,-66.22
,-7.789,-0.974,-4.69,-7.657,-1.017,-4.922,-199.08,-8.82,-63.98
28697.0,-7.617,-1.278,-5.049,-7.856,-3.226,-5.745,-169.89,10.64,-50.19
,-7.93,-2.065,-5.229,-8.315,-3.18,-5.372,-160.65,14.63,-46.76
,-8.11,-2.694,-5.75,-8.586,-2.611,-5.106,-149.73,15.54,-43.61
,-7.82,-3.18,-5.841,-8.612,-1.469,-4.752,-136.92,15.4,-38.99
28773.0,-8.603,-0.06,-4.549,-8.567,-0.321,-5.432,-74.97,2.03,-13.65
,-8.763,1.05,-4.937,-9.107,-0.955,-5.226,-73.22,1.26,-11.69
,-8.866,1.261,-5.229,-9.83,-0.663,-5.018,-78.33,1.82,-9.94
,-8.684,0.615,-5.492,-10.055,-0.392,-4.934,-83.86,3.36,-6.86
28848.0,-10.098,-0.909,-4.673,-10.538,0.208,-3.242,-28.42,-2.52,16.66
,-10.294,-0.96,-4.202,-10.464,-0.632,-2.802,-19.11,-3.99,17.43
,-10.16,-0.644,-3.92,-9.797,-2.446,-2.826,-15.4,-6.09,16.45
,-10.294,-0.055,-3.443,-9.222,-4.475,-2.481,-21.56,-8.33,12.53
28924.0,-9.124,-4.929,-2.529,-9.098,1.067,-4.267,-83.37,-7.98,-0.28
,-9.306,-3.453,-2.838,-9.076,0.022,-4.369,-60.06,-6.16,3.5
,-9.677,-1.165,-3.467,-9.15,-1.318,-4.453,-41.23,-6.16,5.18
,-9.435,0.644,-3.927,-9.323,-2.003,-4.379,-36.12,-7.21,5.18
29000.0,-9.378,-1.721,-4.331,-9.617,-0.61,-3.948,-34.09,-8.96,1.26
,-9.323,-0.763,-4.271,-9.749,-0.474,-3.436,-27.58,-9.94,0.42
,-9.38,-0.045,-4.295,-9.682,0.302,-3.283,-29.4,-11.27,-0.7
,-9.509,-0.263,-4.14,-9.646,0.919,-3.123,-36.47,-12.88,-2.24
29076.0,-9.347,0.945,-2.919,-9.6,-0.093,-2.058,-47.25,-17.78,-7.42
,-9.206,0.266,-2.673,-9.887,1.007,-2.223,-51.59,-15.82,-8.12
,-9.335,-0.689,-2.443,-9.782,1.462,-2.479,-52.08,-12.95,-8.61
,-9.392,-0.684,-2.237,-9.421,0.943,-2.651,-48.86,-11.13,-9.38
29151.0,-9.198,-0.158,-2.663,-9.495,-0.053,-2.675,-71.54,-8.33,-16.45
,-9.316,-0.936,-2.706,-9.454,0.146,-2.788,-68.39,-6.72,-16.31
,-9.519,-0.871,-2.737,-9.464,0.11,-2.948,-61.04,-5.6,-16.24
,-9.567,-0.438,-2.754,-9.407,-0.079,-3.039,-56.07,-5.32,-16.59
29227.0,-9.308,-0.5,-3.151,-9.387,-0.546,-3.111,-68.25,-3.78,-21.42
,-9.244,-0.792,-3.092,-9.27,-0.414,-3.015,-66.57,-3.01,-21.14
,-9.287,-0.79,-3.099,-9.32,-0.476,-3.147,-62.3,-2.03,-20.51
,-9.555,-0.78,-3.063,-9.258,-0.845,-3.128,-58.66,-1.96,-20.37
29303.0,-9.194,-1.247,-3.113,-9.555,0.024,-3.041,-59.71,-0.91,-20.23
,-9.198,-1.618,-2.986,-9.442,0.136,-3.226,-55.44,0.77,-19.11
,-9.416,-1.256,-2.924,-9.347,-0.447,-3.494,-48.02,1.54,-18.62
,-9.569,-0.584,-2.936,-9.244,-1.18,-3.592,-42.42,1.75,-18.62
29379.0,-9.167,-1.644,-3.711,-9.454,-0.782,-3.898,-38.64,2.52,-18.06
,-9.17,-1.699,-3.9,-9.201,-0.68,-3.798,-31.92,2.8,-17.01
,-9.189,-1.646,-3.668,-9.268,-0.593,-3.769,-26.04,2.8,-16.1
,-9.387,-1.125,-3.769,-9.383,-0.55,-3.752,-22.54,1.75,-16.1
29455.0,-9.294,-0.708,-3.616,-9.292,-0.474,-3.072,-22.33,-0.77,-17.64
,-9.332,-0.742,-3.542,-9.342,-0.404,-3.025,-18.06,-0.35,-17.15
,-9.392,-0.732,-3.403,-9.39,-0.531,-3.008,-13.3,-0.14,-16.94
,-9.395,-0.615,-3.252,-9.469,-0.943,-2.986,-9.59,0.07,-16.94
29530.0,-9.289,-1.024,-2.955,-9.313,-0.648,-3.139,-6.37,0.84,-19.46
,-9.32,-0.768,-3.049,-9.452,-0.864,-3.206,-6.51,0.14,-20.65
,-9.347,-0.684,-3.139,-9.423,-0.952,-3.147,-8.33,0.14,-21.56
,-9.325,-0.641,-3.116,-9.32,-0.644,-3.159,-10.08,0.21,-22.54
29606.0,-9.402,-0.203,-3.173,-9.466,-0.761,-2.783,1.47,1.33,-24.92
,-9.301,-0.022,-3.106,-9.399,-0.574,-2.958,0.63,1.4,-26.11
,-9.215,-0.297,-2.977,-9.335,-0.321,-3.104,-1.75,2.03,-27.16
,-9.289,-0.68,-2.785,-9.521,-0.196,-3.118,-2.45,2.8,-28.07
29681.0,-9.586,0.172,-3.008,-9.44,-1.206,-2.022,0.14,3.01,-33.81
,-9.371,-0.098,-2.644,-9.306,-1.342,-1.78,2.03,3.71,-34.65
,-9.146,-0.409,-2.386,-9.112,-1.692,-1.622,3.85,4.48,-35.28
,-9.363,-0.672,-2.142,-9.177,-2.108,-1.283,6.93,5.25,-35.98
29757.0,-9.275,-2.259,-1.019,-10.038,-1.799,-0.797,17.78,13.72,-38.57
,-9.402,-2.12,-0.782,-10.694,-2.228,-1.079,19.39,15.54,-39.69
,-9.416,-1.967,-0.546,-10.952,-1.776,-1.003,21.07,18.06,-40.67
,-9.653,-1.761,-0.601,-11.247,-1.137,-1.07,21.7,20.93,-42.21
29833.0,-11.321,-0.596,-0.926,-11.362,0.313,-1.019,7.7,25.83,-52.08
,-11.644,-0.129,-0.266,-11.132,0.388,-1.601,-2.31,29.4,-52.5
,-11.699,0.091,-0.388,-10.895,0.689,-2.419,-11.76,34.3,-53.13
,-11.479,0.199,-0.593,-10.663,0.888,-3.281,-18.55,39.83,-54.18
29909.0,-10.299,1.381,-4.006,-10.29,5.81,-7.672,-54.46,49.7,-65.38
,-9.746,2.271,-4.944,-9.727,6.133,-8.117,-66.15,49.77,-66.78
,-9.639,3.348,-5.829,-9.146,4.745,-7.77,-80.57,51.24,-68.6
,-9.849,4.532,-6.858,-8.871,2.462,-6.913,-101.22,51.73,-72.1
29984.0,-8.672,0.555,-6.478,-9.06,0.055,-5.946,-205.94,48.02,-67.9
,-8.655,-0.457,-6.128,-9.036,0.938,-6.312,-191.45,47.25,-64.82
,-8.804,-1.187,-5.31,-8.871,1.663,-6.822,-172.06,46.13,-62.09
,-8.973,-0.29,-6.131,-8.933,2.12,-7.31,-146.09,43.54,-59.57
30060.0,-8.947,1.85,-7.322,-8.102,0.436,-7.621,-130.62,5.74,-47.81
,-8.892,1.551,-7.339,-7.813,0.165,-7.705,-138.25,-4.2,-44.59
,-8.404,1.18,-7.588,-7.729,-0.146,-7.767,-144.48,-13.23,-41.79
,-8.232,0.751,-7.631,-7.617,-0.196,-7.846,-146.65,-21.91,-39.48
30135.0,-7.554,-0.419,-7.849,-7.291,-0.969,-7.784,-136.43,-68.88,-26.53
,-7.485,-0.526,-7.842,-7.174,-1.003,-7.825,-131.04,-78.05,-24.43
,-7.519,-0.756,-7.808,-7.217,-1.048,-7.82,-126.49,-88.06,-22.89
,-7.394,-0.897,-7.76,-7.246,-1.098,-7.925,-122.92,-97.79,-21.07
30211.0,-7.475,-1.216,-7.973,-7.471,-1.709,-7.435,-112.07,-138.53,-8.4
,-7.655,-1.397,-7.66,-7.806,-1.68,-7.368,-111.37,-145.53,-6.3
,-7.53,-1.61,-7.392,-7.837,-1.713,-7.65,-111.65,-153.02,-4.2
,-7.408,-1.728,-7.428,-8.143,-1.919,-7.188,-111.79,-159.53,-2.17
30287.0,-8.33,-2.003,-6.549,-8.387,-1.469,-5.683,-112.21,-177.1,1.82
,-8.083,-2.094,-6.248,-8.354,-1.34,-5.623,-113.54,-178.85,1.4
,-8.203,-2.182,-5.975,-8.519,-1.397,-5.324,-113.4,-179.34,0.7
,-8.524,-1.941,-5.817,-8.607,-1.486,-4.862,-112.98,-181.09,-0.56
30363.0,-8.184,-1.723,-3.951,-8.789,-1.151,-2.623,-115.71,-166.74,-2.66
,-8.39,-2.103,-2.938,-8.882,-0.761,-2.259,-109.48,-159.6,-4.76
,-8.672,-2.034,-3.07,-8.763,-0.895,-1.756,-99.75,-155.54,-8.54
,-8.48,-2.003,-2.709,-8.38,-1.335,-1.414,-92.96,-148.4,-11.41
30439.0,-8.114,-2.192,-1.015,-7.463,-1.467,-0.211,-109.69,-94.43,-18.76
,-7.813,-2.737,-0.814,-7.495,-1.132,0.084,-108.22,-79.24,-16.24
,-7.624,-2.637,-0.514,-7.459,-0.89,0.177,-101.5,-62.65,-13.51
,-7.43,-1.917,-0.574,-7.492,-0.553,-0.139,-91.49,-44.45,-11.2
30514.0,-8.021,-0.811,-0.625,-13.352,-4.513,1.23,-73.43,49.49,-7.77
,-9.811,-2.233,-0.759,-9.773,-4.166,-0.459,-70.28,64.19,-3.78
,-13.312,-5.532,2.204,-10.184,-3.486,-0.878,-61.53,74.69,5.88
,-14.977,-6.442,2.479,-10.723,-2.156,-2.056,-32.9,85.75,21.21
30590.0,-9.512,0.347,-3.082,-8.469,1.469,-7.186,20.65,79.66,14.63
,-8.356,1.527,-4.779,-8.863,3.266,-7.356,11.13,79.45,15.82
,-7.985,1.12,-6.59,-8.813,3.197,-7.069,-2.38,83.79,18.48
,-8.208,0.637,-7.432,-9.206,-0.345,-5.686,-4.76,86.31,20.02
30666.0,-9.665,-3.068,-4.992,-9.433,1.005,-2.876,-41.65,70.0,1.61
,-9.797,-3.479,-4.219,-8.837,0.249,-2.883,-24.08,63.7,2.1
,-10.273,-1.62,-3.484,-9.117,-0.498,-3.221,-4.55,58.73,5.32
,-10.306,-0.101,-2.726,-9.469,0.354,-3.546,0.49,53.76,9.03
30742.0,-9.27,1.709,-3.774,-9.801,-0.316,-3.228,-4.76,45.15,8.19
,-9.493,1.534,-3.527,-9.667,-0.258,-3.106,-10.43,43.19,8.33
,-9.734,0.67,-3.343,-9.253,0.01,-3.374,-14.84,41.23,8.19
,-9.849,-0.105,-3.199,-9.469,0.251,-3.455,-14.35,39.13,8.47
30817.0,-9.653,0.218,-3.582,-9.366,0.481,-4.159,-2.8,31.36,8.19
,-9.399,-0.146,-3.623,-9.273,0.828,-4.111,-4.76,29.89,8.89
,-9.488,-0.172,-3.853,-9.215,0.639,-4.037,-1.68,29.54,9.52
,-9.682,0.041,-4.015,-9.27,0.323,-3.833,4.06,28.63,8.96
30893.0,-9.622,0.287,-3.683,-9.476,0.696,-3.417,11.9,24.5,7.35
,-9.404,0.589,-3.683,-9.284,0.144,-3.295,13.23,22.75,6.86
,-9.44,0.79,-3.498,-9.347,-0.146,-3.142,12.74,22.47,6.23
,-9.591,0.873,-3.463,-9.416,0.067,-3.125,10.01,22.12,5.32
30968.0,-9.426,0.146,-3.139,-9.275,0.093,-3.281,12.88,23.45,5.32
,-9.368,0.101,-3.144,-9.342,0.227,-3.333,14.21,24.64,5.6
,-9.385,-0.055,-3.084,-9.308,0.223,-3.446,15.54,25.41,5.81
,-9.225,-0.134,-3.068,-9.402,0.29,-3.47,17.43,26.32,6.23
31044.0,-9.292,0.172,-3.472,-9.282,0.581,-2.974,15.75,29.47,5.81
,-9.103,-0.153,-3.302,-9.349,0.89,-2.886,15.12,30.66,6.09
,-9.083,-0.203,-3.068,-9.33,0.976,-2.795,16.31,31.99,6.86
,-9.179,0.136,-3.005,-9.05,0.888,-2.855,18.34,32.83,7.21
31120.0,-8.985,0.656,-2.587,-9.397,0.297,-2.649,-1.89,35.35,5.6
,-8.866,0.495,-2.484,-9.466,0.275,-2.986,-5.67,36.4,5.11
,-9.112,0.141,-2.367,-9.576,-0.053,-3.348,-6.65,38.08,4.83
,-9.366,0.177,-2.407,-9.761,-0.165,-3.542,-6.02,39.41,4.48
31196.0,-9.66,-0.383,-3.51,-10.158,-0.029,-3.41,3.85,48.37,3.85
,-9.655,-0.675,-3.455,-10.254,-0.132,-3.443,9.73,51.38,5.67
,-9.895,-0.558,-3.391,-10.459,-0.22,-3.577,18.55,54.32,7.98
,-10.115,-0.069,-3.336,-10.615,-0.165,-3.632,26.67,56.7,9.38
31271.0,-10.828,-0.213,-3.503,-10.565,-0.187,-2.24,36.47,69.65,0.35
,-10.897,-0.263,-3.24,-10.727,-0.132,-2.144,35.14,72.52,-2.1
,-10.907,-0.22,-2.943,-11.555,2.151,-2.149,34.37,75.46,-4.34
,-10.692,-0.151,-2.56,-12.572,2.704,-2.517,33.25,78.89,-6.37
31347.0,-10.914,-1.287,-1.345,-10.89,-1.113,-0.529,7.91,99.4,-22.47
,-10.1,-3.977,-0.436,-11.117,-1.56,0.471,9.31,109.9,-19.53
,-10.759,-2.28,0.026,-12.256,-1.673,1.625,28.42,114.66,-15.82
,-10.797,-0.522,-0.476,-12.778,-2.391,2.797,37.8,119.0,-15.12
31423.0,-12.757,-2.544,2.493,-10.447,1.522,-4.97,55.58,155.89,-1.89
,-12.702,-1.656,0.861,-10.514,1.718,-6.253,66.5,160.72,4.76
,-12.12,-0.577,-0.912,-11.685,1.381,-8.512,75.18,161.84,7.91
,-11.414,0.735,-3.087,-13.64,0.928,-10.323,77.91,159.18,6.65
31499.0,-13.027,0.529,-10.699,-5.736,-4.073,-12.45,33.95,115.85,-13.16
,-10.938,1.024,-10.603,-6.884,-4.554,-10.457,21.7,93.52,-12.67
,-7.621,0.732,-12.209,-7.396,-2.795,-9.555,5.46,77.77,-9.38
,-5.946,-1.433,-12.998,-6.143,-1.117,-10.218,-2.59,74.27,-5.39
31575.0,-5.537,0.043,-10.1,-4.003,0.103,-8.997,77.56,0.91,22.68
,-4.779,0.751,-9.761,-3.384,-0.23,-9.119,63.07,-19.32,25.13
,-4.582,0.737,-9.127,-3.273,-0.933,-8.684,42.98,-40.25,27.86
,-4.336,0.421,-8.88,-3.766,-1.278,-8.433,19.95,-63.28,30.45
31650.0,-3.726,-2.02,-8.119,-4.391,-0.991,-8.607,-44.66,-146.72,42.91
,-3.991,-2.29,-7.72,-4.353,-1.034,-8.902,-31.01,-162.47,42.07
,-4.089,-1.807,-7.825,-4.791,-1.24,-8.593,-18.48,-178.57,40.39
,-4.164,-1.285,-8.045,-5.36,-1.151,-8.212,-11.97,-191.94,39.41
31726.0,-5.3,-1.046,-8.416,-6.152,-0.361,-8.291,-19.74,-229.53,33.6
,-5.384,-0.912,-8.624,-6.435,-0.065,-8.2,-21.35,-235.27,30.52
,-5.712,-0.593,-9.067,-6.741,0.132,-8.189,-24.64,-241.01,27.37
,-5.695,-0.378,-8.837,-6.954,0.223,-8.124,-27.58,-242.69,25.62
31801.0,-6.997,0.0,-7.758,-7.954,-2.185,-5.803,-44.38,-247.03,11.62
,-7.006,-0.541,-7.437,-8.15,-1.912,-4.87,-47.25,-245.49,8.75
,-7.423,-1.029,-6.937,-8.232,-1.886,-3.984,-46.83,-243.32,6.16
,-7.605,-1.9,-6.502,-8.38,-1.488,-3.266,-41.93,-240.24,4.41
31877.0,-8.677,-1.153,-2.513,-9.072,-0.208,-1.256,-8.19,-209.16,2.17
,-8.923,-0.955,-2.429,-8.806,-0.211,-0.916,-10.92,-197.33,1.96
,-9.115,-0.859,-1.711,-8.397,-0.529,-0.924,-12.6,-184.24,1.19
,-9.258,-0.431,-1.56,-8.083,-1.065,-0.632,-18.83,-170.59,-0.21
31953.0,-7.904,-1.216,0.175,-7.545,0.641,-0.304,-45.22,-76.72,-7.28
,-8.038,-0.79,0.333,-7.552,0.763,-1.029,-38.85,-53.2,-6.93
,-7.978,-0.254,0.416,-7.789,0.55,-1.759,-35.14,-28.84,-6.65
,-7.727,0.17,0.179,-7.708,0.357,-2.592,-35.0,-4.9,-6.16
32029.0,-7.722,-0.026,-3.542,-21.574,-6.231,4.511,-46.97,93.38,-0.21
,-7.574,-0.675,-3.771,-11.543,0.419,-1.055,-42.07,107.03,4.62
,-11.105,-3.051,-3.226,-7.356,-1.039,-0.404,-36.26,113.12,13.93
,-21.134,-9.392,7.83,-8.945,-2.752,-0.883,-19.88,97.23,24.85
32104.0,-8.811,-2.312,-2.446,-9.986,2.635,-6.796,-26.32,82.39,2.59
,-6.935,-0.711,-4.051,-7.341,4.078,-7.222,-16.31,88.2,2.03
,-9.012,-0.321,-3.786,-7.262,3.963,-7.566,-6.37,96.74,9.03
,-10.491,0.172,-5.82,-8.27,2.051,-7.21,3.99,100.8,12.39
32180.0,-9.313,-0.23,-6.719,-10.115,-1.101,-2.374,-61.95,76.16,-8.12
,-9.55,-2.113,-5.307,-9.708,-0.136,-2.778,-58.66,70.49,-7.84
,-9.718,-2.419,-4.195,-9.203,0.153,-3.001,-43.75,65.94,-4.76
,-10.086,-2.0,-3.065,-8.985,0.213,-3.503,-25.2,62.93,-0.42
32256.0,-9.34,0.835,-3.802,-9.562,-0.081,-4.594,3.5,55.37,6.44
,-9.21,1.407,-4.164,-9.493,-0.287,-4.724,-0.56,52.99,5.95
,-9.244,1.225,-4.491,-9.5,-0.309,-4.544,-7.35,51.03,5.32
,-9.557,0.366,-4.518,-9.603,-0.287,-4.549,-10.29,49.28,4.41
32332.0,-9.636,0.014,-4.642,-10.017,0.309,-3.963,14.14,39.06,5.81
,-9.433,0.369,-4.681,-9.421,0.806,-4.2,15.4,36.4,5.11
,-9.397,0.424,-4.401,-9.292,0.838,-4.061,14.42,34.02,4.2
,-9.67,0.086,-4.267,-9.488,1.07,-3.745,11.48,31.5,2.38
32408.0,-9.574,1.208,-3.506,-9.363,-0.313,-3.388,-7.07,17.57,-2.31
,-9.457,0.921,-3.436,-9.325,-0.359,-3.333,-13.37,15.61,-3.36
,-9.457,0.57,-3.403,-9.318,-0.364,-3.3,-17.92,14.42,-3.64
,-9.337,0.129,-3.472,-9.32,-0.457,-3.264,-18.76,14.14,-3.71
32483.0,-9.263,-0.598,-3.228,-9.368,-0.493,-3.058,-7.7,18.97,-3.01
,-9.253,-0.718,-3.12,-9.215,-0.811,-3.025,-6.51,20.16,-2.52
,-9.397,-0.596,-3.12,-9.182,-1.151,-2.943,-5.81,20.37,-2.17
,-9.311,-0.378,-3.142,-9.383,-1.206,-2.706,-6.44,20.79,-1.47
32559.0,-9.325,-0.926,-2.469,-9.203,-0.019,-1.352,-0.98,28.14,0.84
,-9.476,-0.385,-2.261,-9.203,0.055,-1.072,0.98,29.47,0.98
,-9.442,-0.158,-1.866,-9.323,0.074,-0.945,-0.21,30.87,0.77
,-9.308,0.05,-1.582,-9.34,0.538,-0.809,-1.4,32.83,0.56
32634.0,-9.366,0.438,-0.495,-9.395,0.218,-2.721,-3.78,46.13,-2.31
,-9.366,0.445,-0.598,-9.404,-0.297,-3.491,-1.75,49.63,-2.8
,-9.387,0.646,-1.062,-9.552,-0.404,-4.279,2.1,52.22,-3.08
,-9.49,0.706,-1.881,-9.885,-0.534,-4.774,3.99,54.67,-3.78
32710.0,-10.065,-0.916,-5.181,-10.687,-0.156,-4.611,15.68,63.28,-6.51
,-10.345,-1.127,-5.415,-10.689,-0.11,-4.101,19.53,64.19,-6.51
,-10.522,-0.907,-5.355,-10.574,-0.179,-3.632,23.87,65.38,-6.37
,-10.514,-0.433,-5.114,-10.584,-0.084,-3.204,26.39,66.64,-6.65
32786.0,-10.727,-0.163,-2.802,-10.684,-3.869,-2.034,24.5,78.47,-17.71
,-11.072,0.407,-2.828,-10.751,-3.455,-1.34,26.6,81.41,-19.32
,-12.508,2.589,-3.242,-10.756,-1.048,-1.433,28.42,81.9,-22.82
,-11.857,0.101,-2.931,-10.641,-0.168,-1.665,13.51,85.61,-27.3
32862.0,-10.218,-0.562,-1.591,-11.125,-1.74,0.979,28.35,116.13,-19.53
,-10.294,-0.715,-0.924,-11.297,-2.41,1.089,24.99,123.34,-19.39
,-10.912,-0.323,-0.388,-11.297,-2.656,0.926,29.68,129.08,-19.32
,-11.213,-0.388,-0.026,-11.208,-1.773,-0.376,31.78,134.54,-18.62
32937.0,-11.132,-0.531,-2.259,-11.589,1.61,-9.507,78.82,151.48,6.16
,-10.816,0.124,-3.695,-11.094,-0.287,-10.124,81.48,148.4,5.74
,-10.385,0.983,-5.322,-10.227,-0.115,-9.646,76.3,145.25,2.1
,-10.122,1.706,-6.241,-9.895,0.562,-9.873,65.45,143.08,-2.87
33013.0,-8.449,0.983,-10.505,-5.999,-2.584,-10.414,10.5,90.72,-2.24
,-7.2,-0.134,-11.137,-6.832,-1.689,-9.395,-4.13,73.01,2.87
,-5.662,-1.773,-11.881,-6.779,-0.562,-8.88,-7.35,62.65,7.7
,-5.595,-2.692,-11.878,-6.08,-0.024,-8.746,1.33,55.72,11.34
33089.0,-5.765,-0.172,-8.545,-3.795,-2.23,-8.854,10.85,-43.4,34.37
,-4.927,-0.388,-9.016,-3.867,-2.493,-8.741,-4.69,-66.01,36.68
,-3.936,-0.847,-9.43,-3.8,-2.788,-8.256,-16.17,-82.25,40.18
,-3.616,-1.546,-9.304,-3.843,-2.556,-8.071,-24.57,-94.64,43.75
33165.0,-4.082,-1.852,-7.997,-4.401,-1.689,-8.282,-12.67,-171.71,47.18
,-3.915,-1.307,-8.516,-4.769,-1.881,-7.961,-16.52,-187.04,49.0
,-3.35,-1.409,-9.057,-5.013,-2.422,-7.846,-24.22,-197.4,51.8
,-3.568,-1.582,-8.89,-5.209,-2.855,-7.875,-28.63,-202.02,55.02
33240.0,-5.315,-2.84,-8.315,-5.944,-1.984,-7.961,-31.57,-244.65,54.18
,-5.272,-2.501,-8.708,-6.485,-1.515,-7.952,-24.85,-250.74,52.92
,-5.348,-2.501,-8.555,-6.894,-1.263,-7.686,-18.97,-256.48,51.24
,-5.607,-2.111,-8.39,-7.377,-1.027,-7.502,-14.91,-261.38,48.79
33316.0,-7.559,-0.782,-6.832,-9.813,-0.694,-2.737,-14.49,-273.91,29.05
,-8.038,-0.792,-5.367,-10.278,-0.732,-2.034,-16.87,-268.38,24.43
,-8.624,-1.05,-4.269,-10.407,-0.055,-1.682,-17.08,-261.66,19.46
,-9.131,-1.065,-3.364,-9.593,-0.421,-0.747,-11.62,-254.1,13.09
33392.0,-8.82,-1.204,-0.136,-7.174,-1.043,1.917,-43.19,-180.67,-9.03
,-8.591,-2.575,-0.098,-7.495,-0.981,2.288,-54.46,-158.76,-8.19
,-8.122,-3.013,0.218,-7.894,-0.196,1.625,-53.76,-136.15,-7.28
,-7.605,-2.051,1.431,-8.119,0.66,0.656,-41.37,-109.97,-5.18
33467.0,-8.289,1.117,-0.503,-12.625,-4.41,-2.893,-38.5,33.39,-8.96
,-8.473,0.897,-1.637,-16.066,-5.312,1.866,-47.67,55.09,-10.78
,-8.835,-0.036,-2.706,-14.159,-2.142,1.065,-53.76,73.5,-10.57
,-9.347,-1.328,-3.661,-11.519,-0.51,-1.586,-53.9,88.13,-8.05
33543.0,-9.031,-2.759,-2.402,-8.177,3.017,-5.02,-10.78,103.67,3.36
,-10.201,-4.317,-2.711,-8.026,2.893,-6.011,-13.23,106.26,4.62
,-9.739,-2.173,-3.623,-8.275,0.787,-6.49,4.83,101.43,7.42
,-8.947,0.928,-4.207,-8.397,-1.211,-5.841,19.46,96.25,10.92
33619.0,-8.387,-0.495,-5.501,-9.653,-1.656,-4.542,-11.13,82.74,13.02
,-9.103,0.907,-5.26,-9.725,-1.077,-3.934,-6.65,81.69,10.22
,-9.892,0.428,-5.14,-10.05,-0.407,-3.546,-11.9,80.22,4.48
,-9.959,-1.053,-4.96,-9.442,0.651,-3.752,-16.52,77.56,0.98
33695.0,-8.835,0.584,-3.714,-9.174,2.285,-4.762,-7.14,55.65,6.02
,-9.036,-0.627,-3.786,-9.67,1.019,-4.697,-4.48,57.12,6.51
,-9.856,-0.141,-3.888,-9.677,0.17,-4.48,2.52,55.02,4.97
,-9.241,2.132,-4.614,-9.605,-0.048,-4.233,1.89,49.28,4.55
33770.0,-9.529,0.211,-3.903,-9.478,0.256,-3.695,5.32,38.08,7.49
,-9.45,0.692,-3.735,-9.552,-0.17,-3.769,9.03,36.61,6.79
,-9.49,0.962,-3.695,-9.555,-0.294,-3.699,8.19,35.56,5.39
,-9.655,0.818,-3.676,-9.426,-0.148,-3.793,3.99,33.95,4.62
33846.0,-9.347,0.098,-3.75,-9.677,0.538,-3.271,13.79,26.6,4.41
,-9.392,0.302,-3.618,-9.634,0.5,-3.592,16.17,25.55,4.27
,-9.395,0.455,-3.489,-9.411,0.56,-3.74,16.52,24.29,3.57
,-9.493,0.505,-3.29,-9.277,0.476,-3.766,14.56,23.52,2.8
33922.0,-9.17,0.182,-3.635,-9.416,0.364,-2.979,7.0,20.37,0.28
,-9.237,0.22,-3.475,-9.304,0.246,-2.807,8.26,20.51,0.49
,-9.304,0.352,-3.302,-9.261,0.354,-2.697,9.17,20.44,0.42
,-9.308,0.438,-3.13,-9.318,0.438,-2.699,8.05,20.72,0.21
33998.0,-9.414,0.574,-2.721,-9.282,1.091,-2.804,-0.35,24.22,-1.05
,-9.423,0.491,-2.735,-9.203,1.022,-2.888,-3.85,24.99,-1.68
,-9.454,0.395,-2.692,-9.04,0.565,-2.8,-6.3,26.11,-1.75
,-9.316,0.653,-2.74,-8.995,0.124,-2.845,-7.49,26.74,-1.61
34073.0,-9.05,-0.179,-2.74,-9.342,0.481,-2.063,-9.38,32.76,-2.24
,-9.093,-0.354,-2.551,-9.368,0.333,-2.221,-4.83,34.44,-1.61
,-9.213,-0.311,-2.134,-9.407,-0.191,-2.58,-0.21,36.33,-0.84
,-9.249,0.263,-2.18,-9.718,-0.488,-2.893,5.18,38.01,-0.35
34149.0,-10.045,-0.34,-3.096,-9.71,0.323,-3.072,5.88,47.53,-3.36
,-10.005,0.464,-3.13,-9.813,0.239,-3.226,4.55,47.53,-3.78
,-9.474,1.11,-3.187,-9.811,0.06,-3.484,-0.49,48.58,-3.57
,-9.643,0.675,-3.077,-9.856,-0.12,-3.699,-5.81,51.03,-3.92
34224.0,-9.878,-0.476,-3.855,-11.242,1.974,-4.628,2.52,62.79,-5.67
,-9.794,-0.852,-3.814,-11.807,2.249,-5.2,5.18,65.24,-6.58
,-9.964,-0.651,-3.982,-10.866,-0.943,-4.661,8.19,67.62,-7.21
,-10.203,-0.268,-4.279,-10.56,-2.766,-3.362,12.04,69.51,-7.98
34300.0,-10.488,-0.866,-3.173,-9.775,-1.357,-2.685,28.35,82.11,-12.74
,-10.605,0.366,-2.97,-10.048,-0.936,-2.824,32.97,83.51,-12.25
,-10.227,-0.27,-2.812,-9.986,-1.302,-2.532,24.99,86.8,-13.93
,-9.727,-1.417,-2.568,-9.902,-1.989,-1.742,18.2,90.72,-14.63
34376.0,-10.246,-1.893,-1.031,-11.031,-2.716,-0.625,35.63,114.31,-6.79
,-10.658,-1.625,-0.309,-10.77,-2.503,-1.452,42.63,120.05,-3.22
,-10.72,-1.912,-0.172,-10.392,-1.926,-2.56,48.16,126.07,1.12
,-10.78,-2.402,-0.325,-9.852,-0.986,-4.02,56.14,132.44,7.42
34452.0,-9.158,-0.215,-5.403,-10.665,0.991,-9.165,100.8,137.06,20.3
,-9.363,0.529,-6.612,-10.017,1.541,-9.064,97.86,136.5,15.54
,-9.947,1.046,-7.502,-9.182,1.989,-9.765,87.43,135.52,11.41
,-10.457,0.981,-8.588,-8.145,1.515,-9.895,75.6,132.09,7.56
34528.0,-7.253,0.589,-10.153,-5.855,-0.928,-10.206,-0.42,76.79,-7.77
,-6.293,-0.313,-10.964,-5.97,-0.536,-9.78,-5.04,66.15,-7.91
,-6.164,-1.036,-10.89,-5.379,-0.455,-9.612,-5.53,54.67,-6.86
,-5.635,-1.266,-10.692,-4.831,-0.309,-9.361,-1.54,42.14,-4.06
34603.0,-4.573,-0.536,-8.99,-3.565,-0.993,-8.763,-6.02,-46.41,7.35
,-4.078,-0.78,-8.873,-3.491,-0.967,-8.693,-9.8,-62.79,8.26
,-3.623,-0.94,-8.83,-3.276,-0.632,-8.782,-12.88,-78.12,8.89
,-3.695,-1.0,-8.737,-2.938,-0.548,-9.007,-14.77,-92.4,9.52
34679.0,-3.242,-0.675,-9.174,-4.882,-0.184,-8.605,-17.64,-158.48,5.25
,-3.814,-0.325,-8.873,-4.98,-0.325,-8.579,-18.55,-166.95,4.06
,-4.535,0.014,-8.528,-4.812,-0.651,-8.748,-21.35,-176.54,3.92
,-4.494,0.153,-8.806,-4.759,-1.058,-8.945,-27.72,-186.62,4.2
34755.0,-5.09,-1.632,-8.497,-6.135,-1.484,-8.708,-55.37,-218.26,6.09
,-5.82,-1.639,-8.502,-6.281,-1.898,-8.289,-52.15,-222.18,6.3
,-5.961,-1.594,-8.339,-6.662,-1.979,-7.935,-48.16,-224.91,7.35
,-6.183,-1.57,-8.459,-6.973,-1.941,-7.676,-44.8,-227.43,9.45
34831.0,-7.038,-2.07,-7.53,-7.796,-1.292,-5.099,-18.97,-231.42,22.96
,-7.502,-1.857,-7.394,-8.138,-1.316,-4.269,-12.46,-231.98,25.55
,-7.607,-2.012,-6.925,-8.626,-0.861,-3.463,-5.11,-230.86,29.26
,-7.789,-1.347,-6.222,-9.347,-0.605,-2.781,3.15,-227.36,30.59
34906.0,-9.818,0.261,-2.915,-8.741,-0.718,-0.737,32.13,-190.68,25.2
,-9.883,0.641,-2.321,-8.598,-1.381,-0.373,27.93,-179.55,20.44
,-9.481,0.701,-1.845,-7.99,-1.9,-0.079,18.13,-167.16,14.77
,-8.971,0.187,-1.357,-7.507,-2.048,0.431,8.19,-152.88,9.59
34982.0,-7.688,-1.84,0.768,-8.346,0.483,-0.091,6.3,-60.27,3.99
,-8.052,-1.137,0.704,-8.404,0.258,-0.438,12.67,-39.69,3.64
,-8.308,-0.196,0.467,-8.552,0.067,-0.914,14.63,-20.3,2.52
,-8.5,0.407,0.177,-8.672,0.189,-1.472,9.59,-1.75,0.42
35057.0,-9.014,0.115,-1.893,-16.743,-1.46,2.828,-21.56,69.37,-5.67
,-9.66,-0.385,-2.331,-11.424,1.584,-0.28,-26.95,76.93,-5.32
,-12.737,-3.123,-1.33,-8.966,0.285,-0.191,-31.71,77.14,-0.63
,-16.382,-4.8,4.142,-9.239,-1.685,-0.112,-11.48,73.22,13.3
35133.0,-9.593,-2.68,-0.644,-9.301,3.125,-3.343,-39.55,58.17,-4.76
,-9.698,-1.438,-0.926,-8.981,1.969,-3.68,-19.6,64.61,-0.84
,-10.077,0.916,-1.364,-9.038,0.957,-3.668,-4.2,70.07,4.27
,-9.639,2.733,-2.656,-9.079,0.364,-4.097,-4.34,72.17,5.81
35209.0,-9.299,-0.089,-4.137,-10.012,-1.307,-3.125,-33.81,64.61,-0.35
,-9.73,-0.739,-3.652,-9.519,-1.158,-2.905,-28.42,62.51,-1.05
,-9.871,-1.359,-3.522,-9.287,-1.031,-2.742,-23.8,58.94,-2.31
,-10.012,-1.536,-3.419,-9.27,-0.677,-2.938,-16.45,56.14,-2.03
35285.0,-9.363,0.491,-3.233,-9.39,-0.615,-2.919,-2.03,46.97,-0.07
,-9.569,1.658,-3.259,-9.734,-1.254,-2.728,-13.02,43.96,-3.22
,-9.45,1.682,-3.242,-9.83,-0.727,-2.525,-30.31,40.67,-4.48
,-9.27,0.68,-3.063,-9.691,0.349,-2.359,-43.12,38.22,-4.13
35360.0,-9.672,0.663,-2.493,-9.323,-0.483,-3.352,-3.36,35.77,2.66
,-9.66,0.522,-2.754,-9.6,-0.756,-3.13,-5.11,34.72,1.96
,-9.531,0.443,-3.185,-9.842,-0.251,-3.008,-8.33,33.39,1.61
,-9.361,0.101,-3.381,-9.765,0.378,-3.163,-9.73,32.69,2.1
35436.0,-9.548,0.699,-3.305,-9.378,-0.469,-3.699,14.28,27.3,5.39
,-9.335,0.414,-3.51,-9.284,-0.261,-3.589,12.32,26.25,5.04
,-9.328,0.019,-3.644,-9.519,0.069,-3.637,11.97,25.27,4.9
,-9.445,-0.325,-3.716,-9.457,0.51,-3.611,14.14,24.22,4.83
35512.0,-9.474,0.644,-3.678,-9.39,0.263,-3.08,22.33,17.36,4.27
,-9.347,0.359,-3.707,-9.529,0.538,-2.891,20.93,16.17,3.71
,-9.308,0.067,-3.553,-9.481,0.304,-2.649,21.77,15.54,3.36
,-9.351,0.002,-3.391,-9.373,-0.16,-2.398,24.43,14.7,3.15
35588.0,-9.416,-0.364,-2.316,-9.337,-0.105,-3.183,22.12,15.61,1.19
,-9.533,-0.134,-2.63,-9.378,0.007,-3.149,24.92,15.75,1.05
,-9.514,0.01,-2.96,-9.624,0.254,-3.216,26.25,15.82,0.91
,-9.275,0.048,-3.199,-9.742,0.4,-3.506,26.81,16.45,1.33
35664.0,-9.517,0.072,-3.812,-9.416,0.153,-3.678,31.15,15.33,-0.56
,-9.299,-0.309,-4.015,-9.416,0.22,-3.539,32.76,15.82,-0.42
,-9.234,-0.526,-4.006,-9.452,0.022,-3.47,37.45,15.75,0.0
,-9.22,-0.273,-3.838,-9.351,-0.27,-3.362,42.84,15.33,0.07
35739.0,-9.349,-0.469,-3.398,-9.545,-1.235,-3.017,52.08,17.71,-0.56
,-9.206,-0.964,-3.29,-9.641,-0.601,-3.168,57.12,19.53,-0.14
,-9.153,-1.273,-3.24,-9.615,0.364,-3.436,62.72,21.77,0.49
,-9.414,-1.419,-3.089,-9.265,0.739,-3.735,69.51,23.66,0.84
35815.0,-9.454,0.342,-3.764,-9.591,0.361,-4.384,62.72,21.21,-2.17
,-9.409,-0.091,-3.807,-9.67,0.553,-4.556,61.32,21.35,-2.8
,-9.493,-0.124,-4.027,-9.481,0.503,-4.551,63.49,20.93,-3.5
,-9.552,0.074,-4.171,-9.268,0.299,-4.475,65.59,20.72,-4.13
35890.0,-9.186,-0.038,-4.243,-9.521,-0.27,-4.135,55.02,20.3,-8.47
,-9.11,-0.127,-4.161,-9.562,-0.692,-4.235,56.28,19.6,-9.1
,-9.1,-0.146,-4.022,-9.682,-1.395,-4.451,58.94,18.83,-9.52
,-9.351,-0.086,-4.161,-9.95,-1.862,-4.733,57.82,17.15,-9.66
35966.0,-10.234,-1.883,-4.934,-9.533,-1.615,-5.233,66.22,11.27,-5.6
,-10.462,-1.778,-5.193,-9.335,-1.24,-5.035,74.13,9.17,-3.08
,-9.938,-1.701,-5.389,-9.1,-1.0,-4.769,80.36,7.14,-0.63
,-9.605,-1.804,-5.425,-8.83,-0.919,-4.599,86.45,4.9,1.89
36042.0,-8.641,-0.562,-4.592,-8.416,-1.031,-4.501,98.91,-7.14,11.27
,-8.758,-0.503,-4.594,-7.944,-1.675,-4.508,99.26,-8.26,13.44
,-8.782,-0.651,-4.489,-7.851,-2.266,-4.647,99.12,-8.96,16.1
,-8.713,-0.828,-4.42,-7.992,-2.436,-4.664,100.1,-10.08,18.9
36118.0,-8.014,-2.376,-4.87,-8.366,-1.618,-4.159,142.03,-6.72,41.65
,-7.952,-2.405,-4.862,-8.148,-1.041,-4.606,154.21,-4.48,47.46
,-8.021,-2.477,-4.666,-8.284,-0.818,-4.343,167.02,-1.89,53.48
,-8.007,-2.144,-4.489,-8.495,-0.168,-4.113,182.14,0.84,59.78
36193.0,-8.626,0.761,-3.979,-8.842,-0.376,-3.343,207.62,9.8,79.73
,-8.679,1.127,-3.975,-8.543,-1.742,-3.18,200.06,11.27,78.26
,-8.557,0.835,-3.486,-8.404,-3.061,-2.986,189.07,14.14,75.88
,-8.973,0.273,-2.965,-8.574,-3.632,-2.977,179.55,16.24,72.94
36269.0,-8.775,-3.475,-3.094,-9.244,-2.156,-2.821,173.53,25.06,70.35
,-8.892,-2.96,-3.269,-9.466,-1.943,-2.661,181.02,25.9,70.77
,-8.983,-2.544,-3.259,-9.38,-2.12,-2.599,187.18,27.37,70.35
,-9.033,-2.173,-3.061,-9.146,-2.302,-2.594,190.12,28.91,69.16
36344.0,-9.16,-2.405,-2.503,-9.89,-1.247,-2.91,181.58,27.86,60.34
,-9.399,-2.144,-2.493,-9.765,-1.756,-2.79,181.58,26.32,58.73
,-9.749,-1.756,-2.67,-9.543,-2.209,-2.711,179.48,23.8,56.14
,-9.897,-1.213,-3.001,-9.521,-2.393,-2.407,174.86,20.93,52.92
36420.0,-9.684,-2.297,-2.259,-9.732,-1.354,-1.608,154.56,8.26,39.76
,-9.813,-2.228,-2.039,-9.95,-1.168,-1.74,155.26,5.39,37.38
,-9.749,-2.13,-1.84,-9.998,-1.137,-1.709,154.42,3.15,35.14
,-9.651,-1.838,-1.575,-9.964,-1.249,-1.608,154.07,1.68,33.25
36496.0,-9.859,-1.488,-1.591,-9.579,-0.802,-1.737,143.5,-6.51,23.45
,-9.926,-1.608,-1.543,-9.753,-0.811,-1.764,144.62,-8.05,22.75
,-9.943,-1.469,-1.63,-10.0,-1.065,-1.878,146.51,-10.43,21.98
,-9.742,-1.146,-1.677,-9.89,-1.175,-1.888,147.98,-13.23,21.14
36572.0,-9.73,-1.07,-1.874,-9.675,0.134,-1.517,153.16,-22.68,21.28
,-9.672,-0.881,-1.797,-9.557,0.17,-1.498,157.15,-23.8,21.98
,-9.768,-0.639,-1.716,-9.493,0.053,-1.536,161.14,-25.13,22.19
,-9.727,-0.256,-1.584,-9.476,0.019,-1.419,164.36,-26.18,22.26
36648.0,-9.39,0.311,-1.5,-9.225,0.778,-0.993,170.38,-20.93,26.32
,-9.332,0.364,-1.383,-8.899,1.196,-1.027,170.03,-18.41,27.51
,-9.265,0.548,-1.405,-8.576,1.275,-0.931,170.03,-15.19,28.56
,-9.136,0.586,-1.163,-8.617,0.976,-0.742,168.07,-11.27,29.68
36723.0,-8.794,0.962,-0.639,-8.461,1.63,-0.708,131.39,8.54,30.24
,-8.777,1.338,-0.598,-8.519,1.481,-0.838,124.11,12.74,29.68
