Timestamp,AccX,AccY,AccZ,GyroX,GyroY,GyroZ,MagnX,MagnY,MagnZ
0.0,-9.153,-0.187,-3.738,-9.213,-0.156,-3.731,2.87,1.26,0.7
,-9.21,-0.235,-3.661,-9.203,-0.163,-3.74,2.66,1.33,0.7
,-9.215,-0.242,-3.661,-9.203,-0.184,-3.774,2.73,1.19,0.63
,-9.222,-0.199,-3.697,-9.208,-0.199,-3.704,3.01,1.19,0.7
75.0,-9.225,-0.184,-3.666,-9.234,-0.203,-3.649,2.38,1.12,0.49
,-9.215,-0.223,-3.652,-9.182,-0.242,-3.599,2.59,0.91,0.35
,-9.232,-0.146,-3.597,-9.249,-0.218,-3.664,2.66,1.05,0.42
,-9.198,-0.199,-3.637,-9.165,-0.182,-3.707,2.66,1.19,0.42
150.0,-9.186,-0.191,-3.747,-9.172,-0.22,-3.64,2.94,1.4,0.56
,-9.165,-0.182,-3.743,-9.222,-0.235,-3.625,2.8,1.19,0.56
,-9.201,-0.203,-3.745,-9.237,-0.275,-3.577,2.52,1.19,0.42
,-9.22,-0.213,-3.652,-9.256,-0.225,-3.604,2.59,1.12,0.49
226.0,-9.217,-0.223,-3.628,-9.261,-0.249,-3.711,3.15,1.33,0.63
,-9.268,-0.194,-3.671,-9.246,-0.282,-3.69,3.22,1.4,0.56
,-9.189,-0.208,-3.683,-9.251,-0.206,-3.687,3.01,1.54,0.56
,-9.213,-0.225,-3.671,-9.251,-0.23,-3.716,2.8,1.54,0.56
302.0,-9.234,-0.201,-3.745,-9.215,-0.266,-3.728,3.01,1.4,0.7
,-9.229,-0.187,-3.757,-9.208,-0.235,-3.664,2.87,1.61,0.84
,-9.201,-0.199,-3.788,-9.213,-0.203,-3.632,2.66,1.33,0.7
,-9.158,-0.203,-3.75,-9.198,-0.199,-3.659,2.31,1.26,0.7
378.0,-9.215,-0.206,-3.647,-9.158,-0.141,-3.644,2.66,1.33,0.63
,-9.203,-0.215,-3.654,-9.177,-0.199,-3.618,2.87,1.12,0.7
,-9.237,-0.232,-3.707,-9.239,-0.225,-3.666,2.87,1.12,0.77
,-9.194,-0.191,-3.687,-9.234,-0.302,-3.613,3.15,1.12,0.77
453.0,-9.215,-0.239,-3.692,-9.265,-0.337,-3.656,3.64,1.54,0.91
,-9.172,-0.201,-3.695,-9.253,-0.182,-3.711,3.15,1.82,0.84
,-9.206,-0.206,-3.731,-9.215,-0.136,-3.745,2.31,1.68,0.63
,-9.239,-0.359,-3.719,-9.15,-0.244,-3.788,1.89,1.54,0.49
529.0,-9.215,-0.124,-3.764,-9.234,-0.165,-3.723,2.87,1.4,0.7
,-9.234,-0.163,-3.783,-9.206,-0.22,-3.752,2.52,1.54,0.7
,-9.203,-0.292,-3.702,-9.222,-0.266,-3.723,2.1,1.47,0.84
,-9.191,-0.256,-3.719,-9.241,-0.28,-3.699,2.45,1.19,0.77
605.0,-9.22,-0.215,-3.697,-9.215,-0.254,-3.606,2.45,1.05,0.84
,-9.225,-0.246,-3.661,-9.213,-0.263,-3.585,2.59,0.98,0.98
,-9.213,-0.199,-3.695,-9.241,-0.306,-3.597,2.59,1.05,0.98
,-9.189,-0.182,-3.673,-9.206,-0.215,-3.609,2.38,1.05,0.91
681.0,-9.206,-0.182,-3.659,-9.234,-0.201,-3.697,3.15,1.47,0.98
,-9.241,-0.158,-3.697,-9.196,-0.215,-3.731,3.01,1.47,0.91
,-9.201,-0.235,-3.731,-9.234,-0.232,-3.692,2.87,1.47,1.05
,-9.201,-0.227,-3.754,-9.177,-0.182,-3.678,3.08,1.47,1.12
757.0,-9.225,-0.223,-3.666,-9.172,-0.182,-3.707,2.87,1.26,1.05
,-9.244,-0.235,-3.661,-9.215,-0.191,-3.697,2.59,1.19,1.19
,-9.232,-0.239,-3.716,-9.258,-0.263,-3.68,2.87,1.33,1.19
,-9.21,-0.187,-3.726,-9.225,-0.304,-3.642,2.94,1.26,1.12
832.0,-9.217,-0.256,-3.652,-9.227,-0.33,-3.69,3.15,1.26,1.4
,-9.22,-0.242,-3.69,-9.179,-0.182,-3.728,3.01,1.19,1.33
,-9.213,-0.206,-3.695,-9.098,-0.002,-3.752,2.52,1.12,1.26
,-9.239,-0.302,-3.687,-9.191,-0.079,-3.692,2.45,1.12,1.33
908.0,-9.232,-0.251,-3.585,-9.258,-0.309,-3.692,1.89,0.91,1.47
,-9.265,-0.383,-3.585,-9.177,-0.237,-3.728,3.01,1.12,1.61
,-9.256,-0.287,-3.573,-9.048,0.081,-3.714,4.2,0.98,1.89
,-9.162,-0.27,-3.532,-8.969,0.627,-3.821,4.69,1.05,2.03
983.0,-9.007,0.687,-3.62,-9.375,-0.598,-3.18,0.91,1.47,0.77
,-9.162,0.165,-3.408,-9.05,0.357,-3.623,-0.63,1.68,1.26
,-9.421,-0.232,-3.927,-9.067,0.948,-3.807,2.31,1.33,2.31
,-9.284,-0.89,-3.467,-9.162,1.074,-4.649,8.75,0.77,3.99
1059.0,-9.167,0.596,-4.549,-9.433,-1.893,-3.69,13.72,0.56,6.3
,-9.588,-0.749,-4.47,-9.675,-1.716,-3.501,6.65,1.12,7.07
,-9.459,-1.747,-4.207,-9.608,-1.34,-3.542,4.83,1.4,8.26
,-9.294,-1.84,-4.111,-9.43,-0.852,-3.486,7.28,0.98,8.89
1135.0,-9.296,-0.648,-3.285,-9.143,-0.213,-3.472,3.01,-0.56,10.01
,-9.325,-0.462,-3.233,-9.005,0.235,-3.503,1.89,-0.28,10.57
,-9.493,-0.409,-3.324,-9.048,0.208,-3.386,1.4,-0.35,11.34
,-9.433,-0.56,-3.367,-9.074,0.144,-3.18,2.17,-0.07,12.18
1211.0,-9.141,0.407,-3.108,-9.237,0.101,-3.01,-3.92,2.73,8.89
,-9.174,0.345,-3.092,-9.275,-0.182,-2.776,-4.76,3.29,8.33
,-9.122,0.321,-3.106,-9.251,0.115,-2.881,-4.48,3.92,7.98
,-9.105,0.359,-3.142,-9.217,0.041,-2.84,-3.92,4.83,7.56
1286.0,-9.368,-0.141,-2.948,-8.949,0.201,-3.891,-1.61,9.24,7.91
,-9.332,-0.163,-3.238,-9.16,0.024,-3.723,-2.1,10.15,8.26
,-9.263,-0.048,-3.561,-9.402,-0.359,-3.475,-3.29,11.06,8.19
,-9.22,0.101,-3.869,-9.481,-0.553,-3.448,-4.83,11.34,7.98
1362.0,-9.354,-0.462,-3.498,-8.933,0.713,-4.441,-2.8,11.69,11.69
,-9.325,-0.065,-3.972,-9.091,0.333,-4.058,0.21,11.13,12.53
,-8.997,0.251,-4.223,-9.299,-0.313,-3.855,0.35,10.92,12.88
,-8.904,0.704,-4.525,-9.268,-0.519,-3.912,-1.33,10.43,12.74
1438.0,-9.052,-0.024,-3.958,-9.158,0.249,-3.879,3.5,9.66,16.8
,-9.026,0.251,-3.97,-9.11,0.227,-3.836,1.61,10.08,16.66
,-9.139,0.235,-3.951,-8.981,0.524,-3.994,-2.73,10.36,16.94
,-9.115,0.16,-3.841,-8.966,0.66,-3.97,-5.95,10.78,16.94
1514.0,-9.062,0.838,-4.075,-9.275,-0.23,-3.542,-9.66,11.83,19.04
,-9.203,0.842,-4.025,-9.32,-0.275,-3.503,-11.76,11.9,19.46
,-9.146,0.433,-3.8,-9.39,-0.132,-3.587,-13.65,11.76,20.37
,-9.076,-0.089,-3.652,-9.289,-0.17,-3.661,-14.56,11.97,21.0
1590.0,-8.988,-0.144,-3.783,-8.882,-0.347,-4.771,-3.92,11.41,27.37
,-9.299,-0.175,-3.821,-8.885,-0.144,-5.061,-2.31,11.9,28.91
,-9.426,-0.44,-3.817,-9.146,-0.156,-4.956,0.77,11.55,31.22
,-9.316,-0.514,-4.386,-9.217,-0.692,-4.872,4.06,11.06,32.83
1665.0,-9.155,-0.845,-5.147,-8.808,0.94,-5.702,3.43,7.7,41.09
,-8.959,-0.419,-5.31,-8.914,0.565,-5.587,6.72,6.37,42.77
,-8.842,0.285,-5.805,-8.882,0.546,-5.54,8.61,5.32,44.52
,-8.77,0.785,-5.707,-8.887,1.022,-5.561,6.02,4.41,45.85
1741.0,-8.868,1.089,-5.587,-9.524,1.287,-5.267,-4.48,-2.87,50.05
,-8.435,0.981,-5.889,-9.61,1.553,-5.054,-5.18,-4.34,49.98
,-9.249,1.182,-5.599,-10.079,1.716,-4.671,-6.23,-6.02,50.47
,-9.215,1.177,-5.379,-10.565,2.106,-4.365,-8.47,-7.84,50.68
1816.0,-10.378,2.804,-4.042,-11.381,1.441,-1.981,-11.55,-13.65,38.29
,-10.184,3.317,-3.714,-8.861,0.593,-0.634,-15.75,-12.46,30.73
,-10.026,2.726,-2.946,-9.593,-1.108,0.392,-25.55,-11.83,23.24
,-10.223,1.237,-1.744,-8.646,-0.471,0.416,-34.65,-10.15,15.82
1892.0,-7.485,3.168,-0.605,-9.074,-5.441,-3.037,-38.5,4.76,-28.84
,-6.446,5.183,-2.266,-8.947,-7.849,-3.106,-65.31,17.29,-42.0
,-7.935,3.326,-2.19,-8.76,-7.418,-3.647,-111.23,27.86,-57.19
,-9.512,-1.089,-2.278,-8.497,-4.716,-4.621,-135.45,36.47,-68.18
1968.0,-8.732,-1.874,-5.307,-8.119,-0.759,-5.355,57.89,38.5,-81.97
,-8.533,-0.407,-5.86,-8.167,-0.282,-5.303,57.68,37.17,-82.67
,-8.222,-0.507,-5.829,-8.153,0.438,-4.779,42.49,34.93,-82.53
,-8.007,-0.701,-5.059,-7.997,1.115,-4.731,31.01,31.5,-82.46
2044.0,-8.354,1.584,-5.121,-9.162,-0.536,-5.197,32.83,14.84,-83.16
,-8.753,1.747,-5.65,-9.174,-0.687,-5.08,29.96,10.71,-81.55
,-8.897,1.457,-6.03,-8.547,0.78,-5.657,30.87,5.46,-79.59
,-8.904,0.316,-5.48,-8.05,2.565,-5.989,34.58,-0.21,-76.16
2119.0,-7.791,4.101,-5.97,-9.462,3.74,-5.475,129.78,-35.49,-45.78
,-7.59,5.188,-5.877,-9.423,3.955,-5.427,125.79,-39.06,-42.35
,-8.244,5.217,-5.695,-9.256,5.006,-5.343,108.99,-40.67,-38.78
,-9.1,4.484,-5.487,-9.44,5.398,-5.142,89.11,-41.02,-34.44
2195.0,-9.593,4.85,-4.882,-11.457,5.473,-1.496,28.28,-28.91,-26.95
,-9.615,4.054,-4.451,-13.647,12.111,-2.814,17.36,-25.76,-25.34
,-9.907,3.754,-4.247,-11.871,14.475,-1.362,14.14,-23.45,-21.98
,-9.813,3.819,-3.759,-8.251,7.693,-1.945,14.63,-22.12,-17.85
2271.0,-9.148,4.956,-3.187,-8.636,0.158,-4.578,39.76,2.52,19.39
,-10.548,3.697,-2.807,-8.71,0.55,-5.671,27.37,1.82,6.23
,-10.335,0.596,-2.264,-9.215,0.105,-5.379,22.47,2.24,11.2
,-9.426,-0.433,-2.711,-9.215,-1.792,-4.298,23.8,6.09,14.98
2347.0,-8.748,-4.353,-3.766,-8.658,4.922,-5.456,-62.51,5.25,-14.14
,-9.069,-4.267,-3.924,-9.167,5.549,-5.875,-28.07,1.82,-10.08
,-9.052,-0.51,-4.621,-9.866,5.221,-5.568,7.63,2.73,-8.54
,-8.799,3.242,-4.944,-10.462,4.573,-5.183,18.62,6.65,-9.38
2422.0,-10.732,5.044,-4.776,-9.713,6.427,-4.393,-56.28,19.95,-28.84
,-9.99,5.528,-4.592,-10.376,6.442,-3.613,-69.65,21.7,-24.57
,-9.691,5.918,-4.989,-10.402,5.674,-4.35,-81.34,21.63,-18.48
,-9.718,6.399,-4.929,-10.146,4.984,-4.946,-92.05,23.24,-13.86
2498.0,-10.263,4.951,-5.164,-9.777,5.264,-5.659,-86.38,25.76,29.68
,-10.584,4.695,-5.09,-9.792,5.664,-5.738,-75.46,22.61,40.81
,-10.412,4.515,-5.217,-10.036,5.485,-5.712,-61.95,18.48,51.8
,-9.82,4.673,-5.468,-9.854,5.209,-5.664,-49.07,14.91,61.46
2574.0,-9.61,4.661,-5.767,-9.239,1.385,-4.841,-63.84,6.86,84.56
,-9.816,3.415,-5.461,-8.112,0.732,-4.86,-75.32,5.39,86.17
,-9.832,2.3,-5.384,-8.186,1.5,-4.939,-80.22,2.03,88.69
,-10.089,1.871,-5.19,-9.0,2.151,-4.937,-77.07,-2.66,91.77
2649.0,-9.28,1.845,-4.657,-8.679,-0.261,-4.31,-62.79,-16.87,95.97
,-8.863,1.024,-4.645,-8.478,-0.397,-4.482,-65.45,-20.02,94.71
,-8.71,0.28,-4.451,-7.992,-0.56,-4.168,-65.87,-23.1,92.19
,-8.76,-0.141,-4.46,-8.088,-0.637,-3.769,-62.23,-27.09,90.02
2725.0,-8.023,-1.046,-3.408,-7.301,-2.802,-1.029,-35.77,-44.38,78.68
,-8.081,-1.414,-3.02,-7.076,-1.206,-1.977,-25.76,-45.57,76.79
,-7.971,-2.065,-2.379,-7.215,-0.12,-2.149,-13.93,-45.85,75.11
,-7.571,-2.974,-1.46,-6.968,-0.251,-2.046,3.71,-43.33,73.71
2801.0,-6.793,-1.821,-1.926,-6.135,0.838,-3.13,37.38,-11.83,49.49
,-6.427,-2.268,-2.245,-6.095,1.228,-3.23,43.26,-4.83,42.07
,-5.678,0.012,-3.238,-6.786,3.97,-4.264,54.74,5.25,32.76
,-6.133,1.62,-3.309,-8.543,4.125,-4.709,48.16,16.1,18.13
2877.0,-9.294,2.127,-4.757,-11.213,-1.546,-3.599,-36.05,32.41,-66.71
,-9.899,0.787,-3.97,-10.11,1.519,-3.853,-53.97,28.28,-69.86
,-9.818,-1.311,-3.384,-9.49,3.714,-4.669,-50.68,24.5,-65.24
,-11.184,-3.18,-2.788,-9.864,3.144,-5.317,-18.27,21.21,-57.96
2952.0,-10.936,2.584,-4.771,-12.075,-4.118,-3.96,40.18,12.74,-64.47
,-12.513,4.506,-3.218,-2.278,-6.911,-6.131,36.89,9.59,-70.14
,-17.004,12.462,-0.998,-6.284,-0.069,-8.076,39.69,6.65,-75.95
,-21.283,12.426,-5.324,-9.069,0.948,-7.296,17.08,10.85,-64.19
3028.0,-9.395,-1.218,-6.569,-9.421,1.089,-5.465,40.67,-2.8,-50.19
,-8.705,-1.953,-6.114,-9.241,2.015,-5.243,21.14,-3.22,-52.08
,-8.768,-1.129,-5.824,-8.894,1.61,-4.97,13.86,-6.09,-50.61
,-9.268,-0.457,-5.669,-8.921,0.541,-4.494,17.71,-9.94,-46.34
3104.0,-9.129,-0.572,-4.202,-9.045,1.039,-3.4,15.89,-13.37,-34.72
,-8.933,-0.696,-3.798,-9.203,1.055,-3.503,19.46,-14.0,-32.9
,-9.134,0.105,-3.611,-9.165,0.993,-3.965,24.71,-14.28,-30.73
,-9.304,0.68,-3.417,-9.024,0.845,-4.197,26.74,-13.86,-28.21
3180.0,-8.997,0.933,-4.123,-9.567,-0.218,-2.946,16.66,-10.78,-22.68
,-9.007,1.182,-3.917,-9.273,0.16,-3.247,16.59,-9.73,-21.49
,-9.229,1.182,-3.431,-9.036,0.876,-3.582,13.37,-8.75,-20.58
,-9.411,0.443,-2.907,-8.543,1.586,-3.74,9.24,-7.42,-19.88
3255.0,-8.44,1.809,-3.336,-9.06,0.366,-2.747,5.32,-2.8,-20.93
,-9.5,1.287,-2.996,-8.981,0.663,-2.998,0.0,-1.82,-20.58
,-9.593,0.476,-2.587,-8.811,1.237,-3.319,0.21,-0.49,-18.76
,-9.191,0.213,-2.556,-8.873,1.417,-3.599,5.39,1.26,-17.64
3331.0,-9.107,0.938,-3.544,-9.33,-1.211,-5.111,-0.84,6.16,-20.51
,-9.241,-0.043,-3.623,-9.127,-1.292,-5.229,-3.01,6.72,-19.6
,-9.275,-0.687,-3.922,-9.844,-0.127,-5.446,-0.98,6.72,-17.92
,-9.407,-1.007,-4.575,-8.241,14.724,-7.48,2.1,6.09,-16.59
3407.0,-9.014,8.038,-9.782,-10.445,10.012,-4.853,-19.53,0.63,8.19
,-9.679,-17.944,-1.668,-9.383,1.216,-3.546,-62.16,0.63,-3.15
,-4.853,-20.033,-1.737,-10.957,-2.867,-1.519,42.98,-10.78,-19.32
,-10.402,4.346,-4.434,-11.038,-3.987,-0.737,118.37,-13.86,-18.06
3482.0,-10.148,-0.048,-1.78,-9.43,-0.024,-2.663,28.21,-2.73,-5.25
,-9.313,2.544,-2.639,-9.832,-0.225,-2.745,31.78,-0.07,-2.38
,-8.327,2.288,-2.943,-9.38,-0.282,-3.12,15.82,2.03,-2.52
,-8.533,0.864,-2.793,-9.052,-0.407,-3.766,4.06,3.15,-3.01
3558.0,-8.904,0.263,-4.688,-9.1,-0.404,-4.654,13.02,7.28,1.47
,-8.792,0.072,-5.341,-9.273,-0.699,-4.149,11.76,6.02,1.96
,-8.983,-0.184,-5.358,-9.488,-1.151,-3.771,9.59,4.83,2.38
,-9.117,-0.304,-5.054,-9.574,-0.921,-3.738,7.91,3.36,2.38
3634.0,-9.335,-0.191,-3.819,-9.206,-0.491,-4.087,1.54,0.21,4.69
,-9.344,0.057,-3.948,-9.277,0.187,-4.453,-0.14,0.56,5.25
,-9.244,-0.098,-3.908,-8.954,0.744,-4.645,-2.73,0.98,6.02
,-9.282,-0.529,-3.987,-8.861,1.053,-4.551,-3.36,0.7,6.51
3710.0,-9.033,0.852,-3.982,-9.036,0.5,-3.175,-21.42,-0.28,3.57
,-9.378,0.062,-3.446,-9.33,0.593,-3.405,-22.68,-0.7,3.92
,-9.521,-0.227,-3.077,-9.028,0.543,-3.508,-17.43,-0.56,5.39
,-9.198,0.235,-3.063,-8.978,0.199,-3.333,-11.34,-0.14,6.09
3785.0,-9.277,-0.055,-3.204,-9.447,-0.074,-2.831,-18.76,2.8,5.32
,-9.328,-0.278,-2.881,-9.354,0.567,-3.29,-16.1,3.29,6.37
,-9.28,-0.402,-2.781,-8.873,0.548,-3.405,-12.74,3.85,7.49
,-9.347,-0.359,-2.697,-8.894,0.433,-3.424,-9.31,4.62,8.54
3861.0,-9.265,0.081,-3.384,-9.253,-0.488,-3.656,-12.6,8.4,10.36
,-9.474,-0.246,-3.352,-9.033,-0.256,-3.644,-9.87,8.68,11.76
,-9.383,-0.354,-3.381,-9.127,0.223,-3.372,-6.93,8.89,12.95
,-9.399,-0.474,-3.477,-9.028,0.849,-3.376,-6.09,9.03,13.86
3937.0,-9.033,1.141,-3.094,-9.411,-0.206,-3.07,0.28,10.01,18.76
,-9.282,0.852,-2.802,-9.275,0.139,-3.635,-3.15,11.48,19.32
,-9.301,0.297,-2.723,-9.007,0.359,-3.92,-5.53,13.16,20.16
,-9.385,-0.074,-2.783,-8.782,0.586,-4.18,-5.18,14.35,21.14
4013.0,-8.808,0.785,-4.255,-9.062,0.017,-4.046,-5.74,16.87,24.43
,-8.976,0.838,-4.257,-9.136,0.124,-4.221,-7.84,16.66,24.92
,-9.112,0.756,-4.195,-9.488,0.223,-4.018,-8.82,16.73,26.18
,-9.237,0.481,-4.142,-9.249,-0.144,-4.298,-8.12,16.24,27.86
4088.0,-9.107,-0.27,-4.563,-9.617,-0.053,-5.791,3.71,11.62,34.65
,-9.134,-0.23,-4.685,-9.464,0.146,-6.044,5.04,10.71,35.98
,-9.258,-0.191,-4.858,-9.186,0.12,-6.846,7.21,9.59,38.29
,-9.469,-0.333,-5.051,-8.89,0.524,-7.291,10.99,8.33,41.37
4164.0,-8.741,0.792,-7.361,-9.928,0.029,-6.013,5.11,0.35,51.59
,-8.928,0.249,-7.169,-9.854,0.871,-5.769,-4.41,-1.96,53.13
,-9.203,-0.196,-6.32,-11.113,0.089,-4.53,-8.68,-4.9,55.09
,-9.727,-0.191,-6.006,-9.988,1.85,-4.92,-7.35,-7.7,57.61
4239.0,-10.132,2.151,-4.602,-9.318,1.974,-3.786,5.53,-17.08,66.08
,-9.95,1.953,-4.202,-9.464,2.249,-3.831,7.0,-15.96,58.73
,-10.435,2.58,-4.195,-9.488,2.601,-3.733,0.14,-14.91,53.48
,-9.598,2.017,-3.79,-9.567,1.96,-3.436,-10.92,-14.35,47.74
4315.0,-9.426,0.689,-2.678,-6.458,0.775,-0.048,-55.93,-12.6,3.71
,-9.416,-1.675,-1.493,-6.162,4.066,-0.725,-57.33,-15.26,-2.24
,-9.05,-2.508,-0.648,-7.016,2.704,-1.077,-44.24,-18.34,-6.58
,-8.184,-1.622,-0.017,-8.21,-2.225,-2.402,-28.56,-20.23,-12.53
4391.0,-8.375,-6.159,-3.924,-7.818,-2.539,-6.042,-86.45,34.16,-67.41
,-7.492,-6.908,-4.939,-8.77,-0.933,-5.966,-42.77,41.16,-74.41
,-7.535,-5.233,-5.408,-8.894,-0.852,-5.561,-2.17,43.96,-80.99
,-7.724,-3.92,-5.767,-8.835,-1.68,-4.396,24.08,44.03,-87.71
4467.0,-8.952,-1.412,-4.245,-8.818,-0.258,-5.97,24.57,37.87,-98.98
,-9.284,-0.72,-4.633,-9.275,0.309,-5.774,36.82,35.35,-98.35
,-9.856,-0.172,-4.673,-9.663,0.129,-5.382,49.63,31.57,-97.86
,-9.481,-0.495,-5.162,-9.421,-0.266,-5.08,61.46,24.85,-96.39
4543.0,-9.588,-0.261,-5.516,-8.133,6.746,-8.49,126.07,-6.09,-61.53
,-9.837,0.17,-5.65,-7.148,10.491,-8.325,146.3,-12.95,-48.79
,-9.818,0.948,-5.781,-7.447,11.455,-7.992,166.11,-20.58,-36.05
,-9.474,2.123,-6.253,-8.708,10.132,-7.442,185.36,-28.42,-25.76
4618.0,-9.459,7.554,-6.509,-9.241,4.085,-4.307,51.8,-39.41,-45.22
,-9.28,5.336,-6.164,-9.648,3.391,-3.728,20.37,-40.95,-42.35
,-8.78,4.19,-5.535,-9.38,3.647,-3.173,7.77,-40.46,-38.71
,-9.155,4.008,-4.649,-11.371,10.376,-2.618,4.9,-39.97,-35.7
4694.0,-10.29,25.575,-6.135,-14.109,-7.729,-0.957,57.4,-28.42,24.29
,-10.364,23.613,-3.077,-11.792,-7.724,-1.364,-11.83,-11.9,52.08
,-8.33,8.579,-3.649,-10.251,-1.235,-2.522,-82.25,-6.44,38.5
,-10.318,-0.749,-2.209,-9.586,2.355,-4.116,-80.36,-4.55,8.61
4770.0,-9.619,2.163,-4.063,-9.751,-1.85,-3.046,-29.54,4.76,-6.02
,-9.495,-1.263,-3.348,-9.739,1.912,-3.281,-86.03,4.2,-10.22
,-9.237,-5.159,-2.752,-8.782,4.013,-3.719,-89.25,-0.21,-4.06
,-9.399,-5.552,-2.611,-8.476,4.704,-3.85,-46.97,-4.9,3.15
4846.0,-8.524,4.149,-3.451,-12.041,0.938,-1.656,28.7,3.5,3.5
,-8.72,3.3,-3.364,-9.217,3.013,-3.025,10.29,8.12,-1.89
,-9.165,2.57,-2.728,-9.213,4.578,-3.58,-7.14,12.04,-7.98
,-9.6,1.922,-2.376,-9.069,4.238,-3.707,-20.93,15.61,-13.09
4921.0,-9.749,3.218,-3.912,-9.064,5.58,-5.087,-47.25,31.5,-11.69
,-10.002,3.321,-4.396,-9.263,5.745,-5.02,-45.78,31.85,-6.09
,-10.077,4.219,-4.523,-9.442,5.123,-4.848,-40.39,31.71,2.31
,-9.435,5.128,-4.98,-9.349,4.288,-4.946,-37.31,30.59,10.22
4997.0,-9.392,4.195,-4.989,-9.593,3.419,-4.908,-59.92,18.62,35.42
,-9.509,4.544,-5.128,-9.428,2.891,-4.692,-58.73,17.08,40.53
,-9.61,4.53,-5.164,-9.512,2.565,-4.523,-62.58,14.49,45.36
,-9.679,3.958,-4.903,-9.636,2.757,-5.025,-68.18,11.2,50.05
5072.0,-9.648,2.862,-4.683,-9.737,2.905,-4.063,-59.08,-4.34,68.18
,-9.306,2.941,-4.59,-9.904,1.955,-3.654,-58.24,-7.56,70.63
,-9.22,3.34,-4.85,-10.249,1.493,-3.558,-58.03,-10.29,72.38
,-9.533,3.676,-4.788,-9.957,1.625,-3.702,-60.48,-12.88,72.52
5148.0,-9.887,1.464,-3.355,-8.897,0.981,-3.271,-56.07,-23.24,78.61
,-9.976,1.723,-3.482,-8.684,0.878,-3.29,-52.99,-25.27,79.52
,-9.883,1.804,-3.388,-8.478,1.194,-3.192,-52.5,-27.72,80.36
,-9.459,1.668,-3.553,-8.222,1.752,-3.352,-52.22,-29.68,80.57
5224.0,-8.15,1.601,-2.795,-8.301,-0.782,-1.101,-44.38,-29.33,72.17
,-8.402,0.95,-2.309,-8.093,-1.048,-1.242,-48.3,-28.77,69.51
,-8.538,0.201,-1.895,-7.794,-1.601,-1.314,-47.25,-27.3,67.48
,-8.466,-0.206,-1.57,-7.571,-2.309,-1.486,-40.18,-24.57,64.96
5300.0,-7.04,-2.01,-3.427,-6.231,-1.938,-5.42,48.09,-4.55,59.22
,-6.243,-0.936,-3.85,-6.908,1.314,-5.506,76.02,3.85,54.04
,-7.432,-0.479,-4.14,-7.418,5.233,-6.042,83.79,8.47,43.82
,-7.267,-2.245,-4.647,-9.021,7.373,-5.257,90.09,9.73,36.33
5376.0,-8.681,4.24,-3.805,-10.79,-0.637,-4.18,-3.99,10.64,-41.51
,-9.064,-2.362,-2.826,-10.163,3.326,-4.188,-33.67,9.45,-49.28
,-10.56,-6.456,-2.895,-9.89,4.86,-3.783,-16.24,8.96,-49.14
,-11.539,-4.908,-3.419,-9.806,4.145,-3.862,34.86,7.7,-43.4
5451.0,-10.78,4.19,-4.02,-7.425,-3.661,-3.656,19.11,5.04,-67.55
,-13.664,6.849,-3.12,-5.207,-2.79,-5.111,13.3,2.03,-71.75
,-16.659,8.949,-3.36,-8.459,2.288,-6.195,14.21,1.05,-68.39
,-14.314,3.673,-4.118,-9.328,2.584,-5.702,13.3,4.55,-51.52
5527.0,-9.091,-0.235,-4.939,-9.028,0.986,-4.518,24.5,-6.93,-44.17
,-9.296,-1.161,-4.721,-8.789,2.864,-4.393,13.02,-7.98,-45.29
,-9.32,-1.149,-4.353,-9.076,2.405,-4.101,12.53,-9.59,-44.03
,-9.213,-0.962,-4.221,-9.399,0.708,-3.326,19.81,-11.9,-40.32
5603.0,-9.603,-0.665,-2.687,-9.459,1.713,-2.379,15.68,-11.83,-29.89
,-9.457,-0.572,-2.4,-9.502,1.244,-2.453,21.63,-11.06,-28.7
,-9.055,0.823,-2.417,-9.284,1.01,-2.692,26.95,-10.01,-28.07
,-9.155,1.852,-2.493,-9.012,1.129,-2.938,24.01,-7.98,-28.14
5679.0,-9.184,1.048,-3.159,-9.811,-0.223,-2.857,14.35,0.07,-23.03
,-9.289,1.043,-3.329,-9.507,-0.266,-3.015,14.84,0.28,-21.28
,-9.021,0.421,-3.223,-9.206,0.079,-3.092,15.96,0.14,-19.74
,-9.421,-0.06,-3.068,-9.45,0.299,-3.338,17.36,0.07,-18.97
5754.0,-9.667,0.302,-3.563,-9.383,1.06,-4.061,19.67,0.07,-16.31
,-9.22,-0.249,-3.833,-9.375,0.924,-3.843,20.44,-0.98,-15.89
,-9.179,0.309,-4.07,-9.222,1.117,-3.836,24.43,-1.75,-15.96
,-9.201,0.792,-4.104,-9.012,1.39,-3.757,24.85,-2.31,-15.82
5830.0,-9.189,1.113,-3.405,-9.5,-0.598,-3.008,7.77,-1.05,-16.66
,-9.402,0.412,-3.061,-9.531,-0.782,-3.489,5.04,-0.35,-16.17
,-9.387,-0.122,-2.84,-9.373,5.025,-2.381,5.67,0.56,-15.26
,-9.524,-0.364,-2.864,-10.555,15.135,-5.846,6.93,1.47,-14.28
5905.0,-4.403,1.05,-5.312,-9.641,10.773,-4.666,-73.08,10.29,-2.59
,-9.777,-21.842,1.316,-9.28,0.536,-3.613,-64.33,5.11,-9.03
,-7.645,-15.561,-0.809,-10.031,-2.828,-3.204,63.0,-3.64,-21.14
,-12.268,8.67,-4.29,-10.105,-3.039,-3.331,117.18,-3.29,-17.92
5981.0,-10.311,-1.208,-3.314,-9.342,-0.603,-3.697,16.8,6.51,-5.04
,-9.258,-0.771,-3.139,-9.107,-0.165,-4.02,17.92,5.81,-1.26
,-9.021,0.101,-3.388,-9.217,1.184,-4.405,10.92,5.46,-1.19
,-9.344,0.622,-3.764,-8.926,1.658,-4.57,0.56,5.39,-1.61
6057.0,-8.827,0.905,-4.381,-9.277,-0.014,-4.125,1.82,2.59,2.1
,-9.203,-0.069,-4.487,-9.258,-0.184,-3.637,2.17,0.98,2.73
,-9.203,-0.294,-4.48,-9.098,0.103,-3.35,5.95,-0.14,3.22
,-9.17,-0.031,-4.451,-9.584,-0.213,-3.022,6.37,-0.63,2.87
6133.0,-9.966,-0.431,-3.061,-9.296,-0.086,-3.632,-10.43,-0.7,2.94
,-9.651,-0.821,-3.257,-9.351,0.278,-3.544,-7.98,-0.21,4.48
,-9.359,-0.919,-3.451,-9.234,0.402,-3.352,-4.69,-0.42,5.6
,-9.277,-0.67,-3.561,-9.342,0.203,-3.235,-1.82,-0.77,6.51
6209.0,-9.371,0.392,-3.355,-9.098,1.223,-3.089,-7.21,-0.84,7.42
,-9.036,0.883,-3.408,-9.356,0.924,-2.752,-6.44,-0.35,7.14
,-9.045,1.194,-3.417,-9.526,0.354,-2.568,-9.87,0.14,6.3
,-8.885,1.357,-3.29,-9.418,0.0,-2.424,-15.05,1.12,5.11
6284.0,-9.273,0.127,-2.501,-9.402,0.345,-2.398,-20.23,6.65,4.34
,-9.308,0.392,-2.496,-9.313,0.637,-2.513,-19.81,8.05,4.27
,-9.296,0.519,-2.469,-9.1,0.854,-2.522,-21.7,9.8,4.06
,-9.33,0.316,-2.213,-9.153,1.292,-2.496,-24.5,11.48,3.92
6360.0,-9.253,1.429,-2.01,-9.328,-0.115,-0.323,-30.59,20.86,4.41
,-9.474,0.835,-1.713,-9.502,-0.043,0.416,-36.89,23.45,4.48
,-9.428,0.302,-1.256,-9.416,-0.455,-0.412,-40.04,26.32,5.32
,-9.323,-0.11,-0.845,-9.198,-0.794,-0.751,-38.78,29.26,6.23
6436.0,-9.45,-0.969,-1.536,-7.806,1.567,-6.554,-9.45,41.86,12.95
,-9.469,-1.173,-3.053,-7.808,1.027,-7.394,3.78,41.93,16.8
,-8.725,-0.33,-4.283,-7.889,0.124,-8.339,18.06,42.07,19.18
,-8.267,1.168,-5.664,-8.126,-0.438,-8.193,23.8,41.86,18.76
6512.0,-8.873,-0.493,-7.32,-9.177,-1.644,-6.992,-9.1,24.85,25.69
,-9.66,-0.129,-6.473,-9.445,-1.871,-7.193,-4.34,22.05,27.58
,-10.108,-0.232,-6.001,-9.38,-2.166,-7.514,-0.56,18.06,31.43
,-9.433,-1.22,-6.75,-9.457,-2.146,-7.279,2.31,13.65,35.7
6587.0,-9.442,-2.02,-7.478,-8.737,-0.187,-7.686,20.51,-5.46,53.13
,-9.134,-1.618,-7.526,-8.894,-0.385,-7.676,24.85,-8.54,55.79
,-9.299,-0.443,-7.315,-8.775,-0.771,-7.48,27.3,-11.34,58.17
,-9.06,-0.12,-7.77,-8.449,0.412,-7.207,23.87,-15.05,62.02
6663.0,-8.296,1.677,-6.784,-9.263,2.278,-4.908,10.29,-27.93,72.59
,-8.607,1.424,-5.975,-9.519,3.187,-4.458,-0.21,-30.31,74.06
,-8.854,1.34,-5.525,-9.591,3.972,-3.582,-4.13,-32.76,75.81
,-8.964,1.871,-5.233,-10.254,4.573,-2.912,-2.45,-33.88,75.88
6738.0,-10.177,6.006,-2.876,-11.122,-2.063,0.134,-18.13,-28.84,50.47
,-10.414,5.03,-2.194,-9.842,-3.515,0.914,-33.67,-25.69,38.71
,-10.749,3.321,-1.503,-8.933,-2.182,0.785,-52.43,-22.12,26.25
,-11.364,0.909,-1.074,-8.04,0.854,-0.002,-66.36,-19.46,17.92
6814.0,-6.789,4.202,-0.732,-7.794,-3.374,-2.702,-29.61,-1.82,-28.56
,-7.231,5.051,-0.706,-8.043,-5.351,-2.443,-67.41,10.08,-47.53
,-7.545,2.429,-2.096,-7.904,-5.367,-2.513,-104.72,20.93,-68.04
,-7.971,-1.187,-2.819,-7.988,-3.898,-2.958,-113.68,28.84,-84.77
6890.0,-8.055,-2.857,-3.546,-8.82,-0.787,-4.836,21.28,48.16,-107.03
,-7.906,-3.532,-3.305,-9.318,-0.878,-5.138,24.36,48.86,-102.97
,-8.248,-2.455,-3.699,-9.189,-0.72,-5.693,32.34,48.65,-99.12
,-8.375,-1.28,-4.518,-8.681,-0.11,-6.162,38.29,48.16,-97.16
6966.0,-8.696,0.72,-6.138,-10.148,-0.136,-5.492,61.53,23.59,-88.9
,-8.547,0.938,-6.004,-9.83,-0.196,-5.578,64.47,15.61,-86.87
,-8.985,0.605,-5.843,-10.012,0.737,-5.975,68.74,6.79,-84.28
,-9.495,0.134,-5.336,-10.218,1.933,-5.463,76.16,-2.45,-80.15
7041.0,-9.457,3.778,-5.401,-9.545,7.229,-5.611,165.27,-43.68,-44.8
,-8.83,5.52,-5.59,-9.667,6.561,-5.219,165.2,-45.64,-39.41
,-8.636,6.81,-5.832,-9.622,5.695,-5.09,151.48,-46.13,-35.91
,-8.978,7.246,-5.796,-9.268,5.324,-4.963,129.85,-45.71,-33.32
7117.0,-9.483,5.343,-4.743,-10.732,6.822,-1.972,57.47,-39.76,-24.15
,-9.519,5.54,-4.515,-12.718,20.201,-5.255,49.07,-36.61,-21.77
,-9.529,5.355,-4.042,-12.898,29.421,-4.314,39.9,-34.72,-18.2
,-9.222,4.891,-3.702,-9.974,14.439,-3.111,30.31,-33.25,-14.7
7193.0,-8.071,-1.251,-1.17,-9.354,-0.979,-3.821,-100.38,9.38,5.95
,-9.746,-6.451,-0.747,-8.871,0.196,-4.532,-79.94,7.42,1.61
,-11.438,-7.784,-0.972,-9.225,1.807,-4.795,-16.52,5.39,12.11
,-10.357,-4.803,-2.438,-8.935,0.89,-4.137,47.46,6.93,20.51
7269.0,-8.777,-2.864,-3.096,-9.552,2.4,-4.003,-83.16,9.24,-12.18
,-8.976,-4.882,-2.838,-9.998,1.948,-3.427,-60.62,6.86,-7.7
,-9.459,-3.094,-3.285,-9.414,0.428,-2.996,-17.5,5.18,-3.71
,-9.78,0.514,-3.836,-9.076,0.321,-2.852,12.46,4.27,-2.17
7345.0,-8.866,1.567,-3.192,-10.67,2.924,-3.034,32.13,1.05,-1.19
,-8.557,3.448,-3.259,-13.204,1.524,-2.123,26.53,8.12,-7.07
,-9.189,4.329,-3.228,-9.684,4.319,-3.429,3.99,14.42,-14.42
,-10.084,3.606,-2.922,-9.876,7.308,-3.128,-24.71,18.34,-20.51
7420.0,-10.553,7.904,-3.573,-10.16,5.212,-4.614,-68.74,41.72,-17.64
,-10.383,6.76,-4.673,-9.785,4.654,-5.078,-84.28,41.3,-16.38
,-10.483,5.846,-4.798,-9.667,4.355,-5.413,-91.91,40.6,-10.92
,-10.287,5.609,-4.666,-9.617,4.42,-5.575,-92.26,38.36,-1.05
7496.0,-9.954,4.214,-5.544,-8.607,4.616,-5.068,-58.45,15.4,53.34
,-9.433,4.221,-5.633,-8.933,3.987,-5.063,-52.5,9.03,63.84
,-9.17,4.561,-5.291,-9.701,4.35,-5.26,-48.58,2.94,72.24
,-8.928,4.831,-4.932,-10.354,4.054,-5.071,-47.39,-3.43,77.91
7571.0,-10.275,3.235,-4.716,-9.871,1.953,-4.774,-66.92,-18.55,86.87
,-9.995,2.223,-4.616,-9.995,1.831,-4.759,-70.14,-20.65,88.62
,-9.708,2.067,-4.992,-9.775,1.429,-4.853,-67.41,-22.54,90.72
,-9.789,1.977,-4.958,-9.256,0.579,-4.468,-65.8,-23.59,93.03
7647.0,-9.081,-0.22,-3.668,-8.988,0.325,-3.132,-70.42,-42.56,98.49
,-9.136,-0.67,-3.226,-8.392,0.749,-2.673,-59.64,-46.06,100.03
,-8.904,-0.5,-3.214,-7.944,0.711,-2.659,-42.0,-47.67,100.59
,-8.945,-0.177,-3.046,-7.375,0.744,-2.345,-32.06,-47.11,97.23
7723.0,-7.423,0.637,-1.933,-7.018,-1.948,-2.29,-35.56,-24.71,73.36
,-7.633,-0.737,-1.814,-7.913,-1.551,-2.156,-36.26,-18.9,68.74
,-7.401,-2.163,-1.11,-7.641,-2.249,-2.091,-25.9,-12.67,65.52
,-7.073,-2.816,-2.099,-7.59,-2.714,-1.799,-0.42,-5.25,63.98
7799.0,-8.169,-2.158,-1.658,-8.65,4.142,-3.099,111.09,9.24,44.38
,-8.658,-0.775,-2.316,-8.638,1.926,-3.75,126.14,5.32,31.15
,-9.483,1.737,-2.85,-10.22,-3.814,-3.96,120.33,1.89,14.0
,-9.275,2.584,-2.635,-11.622,-4.872,-4.384,99.68,2.03,-5.74
7874.0,-11.067,-1.18,-3.936,-9.82,4.432,-5.48,72.17,9.1,-53.9
,-9.873,2.623,-4.049,-9.933,1.101,-4.819,76.09,8.12,-56.49
,-9.261,3.549,-4.118,-11.945,2.611,-4.015,58.31,9.94,-60.48
,-8.923,4.011,-4.783,-15.822,9.301,-3.577,36.68,11.9,-68.74
7950.0,-16.059,8.849,-4.688,-10.342,0.888,-4.42,30.8,-1.4,-49.49
,-8.701,-1.5,-3.513,-10.223,-1.737,-3.57,39.27,4.34,-36.19
,-4.807,-3.159,-3.927,-9.627,-2.075,-3.307,63.28,3.15,-37.1
,-7.968,0.771,-4.788,-9.928,-1.323,-2.994,63.7,-1.61,-44.1
8025.0,-9.629,-1.039,-3.135,-9.591,-0.952,-2.95,29.19,-5.81,-38.08
,-9.064,0.053,-3.206,-9.466,-0.491,-2.907,43.54,-6.16,-33.95
,-9.531,0.584,-3.168,-9.531,0.56,-2.974,45.78,-5.6,-30.8
,-9.619,-0.45,-3.037,-9.691,1.096,-3.087,41.44,-5.67,-27.79
8101.0,-9.325,0.902,-3.226,-9.414,1.055,-4.269,41.79,-5.04,-18.83
,-9.342,0.57,-3.403,-9.17,0.677,-4.353,38.22,-4.34,-17.99
,-9.478,0.175,-3.587,-9.287,0.572,-4.439,35.49,-4.34,-16.66
,-9.186,0.546,-3.982,-9.196,0.811,-4.508,34.79,-4.41,-16.24
8177.0,-9.299,1.287,-4.556,-8.806,1.943,-4.161,31.57,-9.1,-12.53
,-9.124,1.823,-4.829,-9.263,1.309,-3.692,25.9,-9.59,-13.72
,-8.674,1.89,-4.767,-9.265,0.806,-3.355,18.06,-10.29,-15.4
,-8.485,2.051,-4.618,-9.115,0.768,-2.934,12.6,-10.57,-16.52
8253.0,-9.277,0.725,-2.548,-9.423,0.488,-1.984,7.14,-9.66,-16.73
,-9.474,0.349,-2.302,-9.624,-0.069,-2.091,5.11,-8.47,-16.59
,-9.335,0.589,-2.094,-9.643,0.069,-2.338,5.6,-6.79,-16.87
,-9.519,0.708,-1.919,-9.284,-0.11,-2.496,5.04,-4.83,-17.08
8329.0,-9.22,0.536,-4.621,-7.327,-12.752,-0.179,19.88,-0.63,-13.44
,-11.835,4.539,-3.905,-10.239,-8.04,-1.819,17.71,-2.1,-14.35
,-9.459,8.859,-6.224,-11.555,6.518,-3.46,16.38,-1.05,-4.48
,-5.018,1.697,-4.063,-10.297,5.724,-2.611,-22.33,3.43,-1.26
8404.0,-9.892,-3.687,-2.067,-8.636,1.464,-3.599,-40.95,7.91,-13.51
,-10.342,-2.515,-3.238,-9.962,-0.282,-3.589,-8.19,10.64,-8.12
,-9.497,0.809,-3.97,-9.725,-0.763,-3.628,17.5,12.46,-5.88
,-8.019,2.486,-3.862,-8.89,-0.495,-3.709,15.26,12.67,-6.02
8480.0,-8.679,0.251,-4.276,-9.246,0.031,-4.185,-5.46,11.06,-6.23
,-9.186,0.869,-4.666,-8.885,0.794,-4.374,-10.57,9.87,-7.07
,-9.725,0.031,-4.367,-9.215,0.782,-4.396,-16.66,8.68,-6.58
,-9.533,-0.476,-4.154,-9.507,0.337,-4.377,-13.3,7.28,-3.99
8556.0,-9.292,-0.086,-4.082,-9.45,-0.849,-2.627,-6.3,1.96,0.84
,-9.385,-0.325,-3.86,-9.519,-0.861,-2.419,-7.14,1.47,0.91
,-9.529,-0.402,-3.451,-9.71,-0.641,-2.635,-7.91,1.12,0.98
,-9.476,-0.66,-3.025,-9.517,-0.206,-2.821,-8.19,1.05,1.61
8632.0,-9.375,-0.057,-2.97,-9.397,0.431,-3.247,3.99,1.96,5.46
,-9.478,0.189,-3.139,-9.32,0.577,-3.525,3.08,2.24,6.02
,-9.268,0.302,-3.154,-9.129,0.704,-3.585,2.38,2.52,6.3
,-9.335,0.45,-3.245,-9.146,0.704,-3.702,1.54,3.15,6.65
8707.0,-9.237,0.416,-3.637,-9.337,-0.012,-2.938,-8.12,4.34,7.0
,-9.433,0.048,-3.403,-9.409,-0.177,-2.948,-9.31,4.48,7.42
,-9.366,-0.012,-3.367,-9.308,0.191,-3.211,-7.42,4.76,8.4
,-9.241,0.112,-3.144,-9.251,0.45,-3.431,-5.67,4.83,8.82
8783.0,-9.229,0.491,-3.817,-9.354,-0.201,-3.654,-0.7,6.02,12.88
,-9.191,0.378,-4.044,-9.411,-0.27,-3.307,-3.15,5.95,13.3
,-9.308,0.172,-4.106,-9.385,-0.184,-3.015,-5.81,5.6,13.51
,-9.328,-0.031,-3.932,-9.612,0.278,-3.003,-7.77,5.32,14.35
8858.0,-9.418,0.345,-3.037,-9.076,1.216,-3.032,-9.94,6.37,19.11
,-9.222,0.034,-2.965,-9.22,1.235,-3.039,-10.29,6.72,20.23
,-9.414,0.357,-3.032,-9.34,0.893,-3.01,-7.84,7.14,21.42
,-9.246,0.749,-3.072,-9.32,0.61,-3.195,-5.18,7.91,22.61
8934.0,-9.189,0.361,-3.23,-9.275,0.213,-3.489,-14.14,12.74,25.9
,-9.258,0.361,-3.266,-9.344,0.287,-3.721,-13.72,13.23,26.53
,-9.287,0.22,-3.228,-9.232,0.39,-4.104,-13.58,13.65,27.37
,-9.265,0.27,-3.357,-9.06,0.404,-4.346,-12.25,14.0,28.49
9010.0,-9.117,0.414,-4.341,-9.512,0.424,-3.841,-6.23,12.11,34.58
,-8.885,0.591,-4.434,-9.38,0.151,-3.647,-4.48,11.41,36.05
,-8.782,0.988,-4.298,-9.567,0.148,-3.4,-3.78,10.92,36.96
,-9.093,0.782,-4.104,-9.653,0.476,-3.532,-4.34,10.36,38.43
9086.0,-9.421,0.842,-3.664,-10.0,1.51,-5.217,5.53,10.22,48.02
,-9.313,1.196,-3.932,-10.079,2.058,-5.568,1.26,10.85,48.93
,-9.373,1.335,-4.336,-10.543,2.225,-5.552,-4.13,11.48,49.77
,-9.842,1.158,-4.575,-10.991,2.517,-5.75,-8.05,11.13,50.82
9162.0,-11.771,2.257,-5.049,-11.072,1.321,-4.025,-19.88,4.48,52.36
,-10.993,3.049,-5.221,-12.027,0.079,-3.154,-20.93,2.31,52.71
,-11.05,2.369,-3.841,-10.962,-6.301,4.563,-21.49,1.4,50.89
,-10.964,1.826,-4.022,-10.017,-5.286,4.815,-21.7,1.89,49.0
9237.0,-9.861,-1.299,-0.22,-7.574,1.338,-4.082,-35.91,-0.7,35.63
,-9.117,1.539,-3.726,-7.722,-0.62,-2.883,-18.69,-2.1,28.98
,-8.492,3.096,-5.427,-7.571,-1.792,-1.584,-23.38,-2.8,22.19
,-8.11,3.161,-5.499,-7.277,-0.694,-1.46,-39.06,-3.36,16.17
9313.0,-6.171,2.608,-1.874,-8.342,-2.965,-5.13,-49.0,-6.23,-17.29
,-6.511,2.998,-2.845,-8.416,-3.944,-4.64,-72.66,2.03,-28.91
,-7.011,-0.239,-3.41,-7.971,-4.262,-4.609,-100.94,10.22,-42.91
,-7.528,-2.17,-5.669,-8.148,-3.204,-4.142,-99.75,15.89,-55.09
9389.0,-8.799,-0.974,-3.034,-8.028,0.754,-2.551,21.84,-0.35,-90.02
,-9.086,1.007,-2.656,-8.851,-0.014,-2.972,28.98,0.42,-93.38
,-8.672,1.771,-2.532,-10.569,2.34,5.329,26.18,2.66,-95.41
,-8.26,1.546,-2.45,-9.478,-0.866,-1.965,20.65,4.62,-98.21
9465.0,-8.938,-2.35,1.28,-9.828,2.103,-4.75,-38.08,23.31,-97.51
,-8.863,-0.22,-0.548,-10.234,1.039,-4.482,11.41,23.17,-97.02
,-8.591,1.847,-3.027,-10.256,1.251,-4.975,38.43,23.17,-97.23
,-9.299,2.826,-4.513,-9.689,2.74,-5.87,45.92,23.87,-96.6
9540.0,-9.261,4.267,-6.188,-8.538,3.039,-5.367,78.19,19.32,-85.4
,-9.005,5.202,-6.573,-8.646,2.201,-4.853,69.65,16.17,-86.66
,-8.478,5.875,-6.81,-8.574,2.096,-4.633,56.28,13.09,-87.85
,-8.368,4.58,-5.805,-8.576,2.891,-4.618,36.19,10.64,-87.5
9616.0,-9.277,3.613,-4.149,-9.617,5.073,-3.613,56.35,-19.53,-39.06
,-9.782,4.037,-3.821,-10.39,5.248,-3.166,64.96,-26.11,-29.12
,-9.6,4.413,-3.991,-11.338,5.26,-2.132,72.24,-31.43,-19.88
,-9.304,4.659,-3.759,-14.786,7.231,-0.634,76.37,-33.39,-12.32
9691.0,-12.979,15.298,-2.977,-12.893,5.753,-2.824,100.94,-35.84,48.16
,-10.995,15.633,0.804,-10.826,-1.95,-1.33,84.21,-27.02,75.32
,-7.492,10.124,-3.582,-9.139,-4.082,-2.084,69.93,-20.44,58.17
,-9.957,9.225,-2.795,-8.746,-2.362,-3.654,56.63,-12.88,19.88
9767.0,-9.923,-1.206,-3.977,-9.588,-1.804,-3.168,11.06,7.0,7.07
,-10.325,-0.306,-3.589,-9.414,-0.952,-3.204,-21.14,7.14,-2.38
,-9.6,-0.938,-3.116,-8.981,0.019,-3.23,-45.99,6.51,-4.13
,-9.409,-1.984,-3.13,-9.174,1.194,-3.159,-52.01,4.41,-1.47
9843.0,-9.033,1.383,-2.917,-9.124,2.905,-2.659,12.25,-1.96,9.24
,-8.413,1.01,-2.74,-8.914,2.869,-2.618,17.78,-1.05,10.64
,-8.744,1.496,-2.539,-9.485,2.458,-2.685,23.66,2.03,8.82
,-9.15,2.544,-2.733,-10.266,1.572,-2.63,23.66,6.09,4.62
9919.0,-10.177,0.629,-2.699,-9.162,4.882,-4.381,-41.23,18.27,-16.24
,-12.309,-0.44,-2.376,-9.172,5.709,-4.822,-44.45,20.09,-13.65
,-9.957,0.514,-3.247,-9.368,5.516,-4.676,-32.2,21.21,-8.05
,-9.036,2.974,-3.704,-9.844,5.059,-4.451,-21.14,21.84,-3.99
9995.0,-10.103,4.092,-4.319,-9.459,3.601,-4.688,-66.5,14.42,4.9
,-9.931,3.245,-4.264,-9.636,4.063,-4.558,-67.41,12.95,11.97
,-9.753,3.13,-4.441,-9.447,3.917,-4.161,-63.56,11.2,17.5
,-9.574,3.245,-4.494,-9.04,3.987,-4.19,-59.64,8.54,22.47
10070.0,-9.239,3.972,-4.061,-9.416,3.204,-3.654,-63.28,-1.61,38.36
,-9.629,3.604,-3.673,-9.608,2.405,-3.18,-68.6,-1.54,39.97
,-9.586,3.364,-3.664,-9.801,2.012,-3.089,-69.58,-1.89,41.65
,-9.438,3.326,-3.673,-9.77,2.393,-3.52,-68.88,-1.82,42.84
10146.0,-9.33,2.91,-4.066,-9.648,1.811,-3.821,-49.77,-0.56,55.93
,-9.617,2.979,-3.869,-9.801,2.046,-3.783,-49.21,-2.24,58.03
,-9.608,2.802,-4.147,-9.859,2.379,-3.666,-50.05,-6.02,60.34
,-9.476,2.178,-4.011,-9.304,2.548,-3.79,-51.03,-8.4,63.21
10222.0,-9.17,2.41,-3.52,-8.842,2.659,-3.427,-39.76,-19.04,69.58
,-9.596,2.204,-3.465,-8.83,2.486,-3.07,-42.77,-20.79,68.53
,-9.804,2.675,-3.676,-9.127,2.213,-2.749,-42.07,-22.68,67.9
,-9.325,2.714,-3.527,-9.129,2.276,-2.534,-43.75,-23.17,66.99
10298.0,-9.031,1.847,-2.151,-8.559,2.371,-1.524,-44.31,-22.26,59.85
,-8.995,1.831,-2.156,-8.681,1.764,-1.261,-37.94,-21.91,57.96
,-8.665,2.28,-2.134,-8.447,1.247,-1.321,-31.57,-21.49,55.72
,-8.571,2.702,-1.979,-7.815,1.055,-1.228,-29.61,-20.51,53.34
10373.0,-7.514,0.981,-1.137,-7.2,-0.299,-1.266,-3.99,-17.15,49.77
,-7.475,0.914,-1.397,-7.093,-0.531,-0.876,6.37,-16.1,49.0
,-7.605,0.715,-1.539,-6.356,0.692,-2.52,13.37,-14.42,48.93
,-7.306,0.282,-1.661,-5.616,1.711,-2.388,22.54,-11.83,49.0
10449.0,-6.884,1.443,-2.673,-8.772,4.487,-4.941,92.47,27.79,27.3
,-7.906,-1.79,-3.132,-9.438,4.226,-4.834,96.39,33.6,19.25
,-7.574,-1.524,-4.082,-9.526,1.993,-3.912,117.18,33.67,10.57
,-8.287,2.828,-4.46,-9.335,-1.302,-4.267,134.89,29.54,-0.7
10524.0,-10.026,-2.797,-4.853,-9.428,4.85,-6.049,45.29,17.92,-38.78
,-10.589,-1.682,-5.406,-9.313,2.692,-5.841,79.38,13.58,-38.22
,-9.88,2.929,-6.243,-9.462,1.938,-5.841,101.43,10.64,-40.74
,-9.27,5.805,-6.131,-9.014,2.795,-6.131,89.88,8.82,-44.87
10600.0,-9.079,3.386,-6.222,-14.288,1.529,-3.096,10.08,0.63,-70.42
,-10.467,3.506,-5.224,-7.37,-2.623,-3.558,-10.15,-1.33,-76.09
,-13.407,3.728,-2.584,-5.607,-0.914,-4.551,-23.03,-5.39,-77.14
,-16.501,5.164,-1.883,-8.868,0.993,-4.728,-13.23,-8.4,-68.18
10676.0,-10.189,-0.194,-4.209,-9.45,-0.711,-3.486,19.25,-8.61,-47.18
,-9.959,-1.529,-3.991,-9.186,-0.529,-3.254,4.48,-8.19,-45.78
,-9.509,-1.33,-3.754,-9.634,0.041,-3.187,4.55,-8.12,-44.1
,-9.706,-0.723,-3.69,-9.648,-0.223,-3.235,10.78,-8.89,-41.09
10752.0,-9.466,-0.235,-3.285,-9.258,2.034,-3.321,42.49,-13.44,-23.1
,-9.282,0.354,-3.307,-9.363,1.551,-3.185,43.33,-13.3,-22.75
,-9.246,1.163,-3.446,-9.251,0.988,-3.113,41.3,-12.95,-22.47
,-9.165,2.058,-3.396,-9.088,0.809,-3.185,36.26,-11.83,-21.56
10827.0,-9.033,1.12,-3.309,-9.514,0.756,-4.003,20.23,-6.58,-18.06
,-8.993,1.407,-3.513,-8.954,0.995,-3.982,18.97,-5.74,-18.2
,-9.217,1.498,-3.525,-8.871,1.141,-3.853,14.49,-4.76,-18.41
,-9.452,0.979,-3.68,-9.306,0.916,-3.587,8.89,-3.99,-18.69
10903.0,-9.383,0.562,-3.242,-9.509,0.273,-2.455,4.55,-4.55,-16.31
,-9.232,0.376,-2.745,-9.416,0.39,-2.747,6.23,-3.57,-15.68
,-9.397,0.215,-2.474,-9.531,0.658,-3.082,6.72,-2.66,-15.26
,-9.385,0.275,-2.371,-9.457,0.883,-3.396,6.72,-1.61,-14.98
10979.0,-9.361,0.517,-3.58,-9.56,-0.203,-3.738,-2.59,2.24,-15.47
,-9.56,-0.182,-3.513,-9.572,-0.488,-3.647,-5.6,2.03,-15.19
,-9.093,-0.062,-3.664,-9.33,-0.201,-3.594,-2.94,1.33,-14.91
,-9.05,0.115,-3.697,-9.143,1.357,-4.664,-1.82,0.21,-14.7
11055.0,-9.804,5.781,-3.51,-10.912,-9.091,-1.094,0.14,-4.9,-15.54
,-9.95,8.394,-4.927,-10.337,4.865,-3.345,-14.49,-0.91,-11.97
,-5.724,-2.398,-4.393,-9.751,6.868,-3.592,-62.16,5.11,-9.73
,-9.966,-12.752,-0.847,-10.172,-1.086,-2.096,-50.05,-1.4,-12.32
11131.0,-10.036,-4.41,-1.424,-9.598,0.412,-2.608,-28.56,0.28,-7.77
,-9.631,-1.462,-1.948,-9.758,-0.761,-2.656,17.22,0.42,-2.73
,-8.916,2.383,-2.654,-9.56,-0.785,-2.635,35.14,2.73,-2.8
,-8.988,2.568,-2.802,-9.375,-0.11,-2.924,20.16,4.13,-3.43
11206.0,-9.462,-0.012,-2.974,-9.052,0.601,-4.451,6.02,8.12,0.42
,-9.732,-0.225,-3.142,-8.794,1.017,-4.738,5.95,7.91,2.17
,-9.686,-0.541,-3.393,-9.158,0.773,-4.659,9.73,7.35,3.92
,-9.32,-0.266,-3.903,-9.39,0.0,-4.319,14.28,6.65,4.83
11282.0,-9.395,-0.665,-3.912,-9.371,-0.194,-3.4,-3.57,2.31,2.87
,-9.521,-0.792,-3.697,-9.488,-0.364,-3.137,1.61,0.7,3.99
,-9.5,-0.328,-3.664,-9.608,-0.593,-2.85,6.51,-0.14,5.25
,-9.313,-0.048,-3.62,-9.596,-0.579,-2.893,7.84,-0.49,5.81
11357.0,-9.44,-0.342,-2.845,-9.399,0.73,-3.13,11.48,-0.63,9.66
,-9.39,0.273,-3.065,-9.246,0.366,-3.015,12.95,-0.42,10.36
,-9.136,0.933,-3.214,-9.287,0.311,-2.974,12.04,0.42,10.36
,-9.17,1.115,-3.175,-9.411,0.371,-3.058,7.28,1.19,9.8
11433.0,-9.361,0.476,-3.13,-9.225,0.565,-3.575,2.94,3.99,10.85
,-9.198,0.751,-3.434,-9.375,0.254,-3.431,1.12,4.13,10.57
,-9.373,0.584,-3.558,-9.464,0.084,-3.283,-1.68,3.78,10.57
,-9.328,0.474,-3.687,-9.596,-0.089,-3.324,-2.45,3.78,10.99
11509.0,-9.524,0.038,-3.518,-9.636,-0.239,-3.187,0.98,3.08,14.56
,-9.141,0.421,-3.506,-9.311,-0.163,-2.994,2.1,3.5,14.77
,-9.263,0.44,-3.472,-9.265,0.232,-3.056,-1.12,3.71,14.7
,-9.555,0.132,-3.317,-9.335,0.833,-3.321,-4.55,3.78,15.33
11585.0,-9.273,1.01,-3.424,-9.418,0.141,-3.01,0.84,4.41,19.04
,-9.306,0.637,-3.398,-9.579,0.079,-2.788,-3.92,4.97,19.39
,-9.433,0.395,-3.345,-9.495,0.103,-2.635,-6.51,5.32,19.95
,-9.383,0.232,-3.226,-9.402,-0.062,-2.398,-7.07,5.67,20.86
11660.0,-9.335,0.086,-2.455,-9.093,1.61,-3.187,-1.05,8.05,26.39
,-9.452,0.481,-2.51,-9.184,1.433,-3.443,0.21,9.24,27.51
,-9.313,0.665,-2.702,-9.237,0.751,-3.309,0.07,10.36,28.63
,-9.005,1.311,-3.058,-9.387,0.153,-3.281,0.21,11.55,29.4
11736.0,-9.153,0.139,-3.266,-9.708,-0.55,-2.781,-4.76,14.21,35.56
,-9.308,0.299,-3.068,-9.464,-0.086,-3.276,-0.49,14.21,37.17
,-9.483,0.067,-2.998,-9.493,0.928,-4.046,1.68,14.14,39.27
,-9.675,-0.333,-2.692,-9.146,1.251,-4.757,5.04,14.35,41.37
11812.0,-9.191,0.237,-5.013,-9.105,2.395,-6.229,-0.84,16.59,48.02
,-9.407,-0.168,-5.183,-9.351,2.139,-6.138,-0.28,14.49,50.61
,-9.153,0.218,-5.583,-9.529,1.503,-5.91,4.48,12.46,52.29
,-9.158,1.436,-5.937,-9.77,1.776,-5.513,6.44,10.78,53.48
11888.0,-10.266,2.233,-4.958,-10.94,7.507,-9.56,-12.6,0.35,54.04
,-11.094,1.661,-3.695,-11.074,4.496,-6.98,-14.42,0.07,53.76
,-6.298,8.315,-4.618,-10.581,2.041,-4.36,94.15,-5.25,55.23
,-11.223,9.335,-10.089,-10.299,1.122,-3.228,76.79,-5.88,51.66
11964.0,-10.23,1.127,-3.719,-9.098,1.991,-4.637,-51.45,-4.55,31.85
,-10.603,2.436,-4.822,-8.332,0.34,-3.448,-47.04,-7.14,26.11
,-10.402,3.766,-5.575,-7.653,-0.153,-2.091,-52.5,-9.52,19.81
,-9.708,3.625,-5.42,-7.26,-0.486,-1.295,-65.94,-11.55,12.81
12039.0,-7.076,-0.562,-0.503,-7.164,0.541,-5.489,-80.92,-13.86,-15.4
,-6.734,0.321,-1.347,-7.212,-1.0,-4.353,-79.73,-3.29,-19.25
,-7.248,-0.706,-3.264,-6.961,-2.345,-3.618,-73.64,8.47,-24.29
,-6.49,-0.041,-5.083,-7.406,-2.41,-2.931,-64.4,18.69,-35.07
12115.0,-8.153,-1.63,-2.783,-8.241,-0.235,-2.113,6.86,17.99,-68.53
,-8.325,-0.625,-2.309,-8.83,0.117,-2.414,21.35,19.74,-69.65
,-7.798,0.0,-2.319,-8.969,0.053,-2.804,29.82,22.33,-69.86
,-7.722,-0.022,-2.589,-8.969,-0.05,-3.539,33.46,24.71,-71.26
12190.0,-9.88,16.576,-12.692,-9.495,-0.287,-2.125,50.54,27.44,-76.3
,-8.2,9.658,-16.279,-9.43,0.543,-3.649,77.0,28.56,-73.43
,-9.282,3.661,-6.42,-8.416,2.41,-5.544,49.98,30.52,-70.63
,-9.507,0.914,-2.635,-8.715,3.276,-5.559,41.65,28.14,-69.51
12266.0,-9.182,3.948,-5.743,-9.531,2.553,-5.269,103.53,15.33,-72.52
,-8.961,3.46,-5.492,-9.854,2.874,-4.96,94.22,11.41,-73.64
,-8.871,2.737,-5.456,-9.471,2.663,-4.338,87.43,5.81,-70.98
,-8.89,2.529,-5.595,-9.627,2.436,-4.312,85.19,0.7,-65.52
12342.0,-9.66,2.637,-4.7,-9.294,5.64,-4.338,95.13,-19.95,-31.5
,-9.677,3.719,-4.712,-9.962,4.867,-4.298,102.76,-22.89,-26.95
,-9.34,5.044,-4.762,-10.203,4.094,-4.078,105.56,-24.43,-24.99
,-9.009,5.719,-4.568,-10.002,3.771,-4.106,99.05,-24.85,-24.85
12418.0,-9.567,3.982,-4.176,-8.141,6.609,-4.606,45.15,-26.46,-22.33
,-9.402,4.08,-4.089,-9.739,11.737,-3.826,34.23,-25.83,-21.7
,-9.418,3.886,-4.164,-11.656,18.461,-5.702,20.86,-25.76,-20.37
,-8.918,4.03,-3.664,-10.316,18.126,-3.865,10.36,-24.99,-18.06
12493.0,-8.614,8.232,-3.178,-10.495,-3.786,-1.979,-108.71,0.14,25.69
,-8.43,-2.029,-3.515,-11.163,0.045,-2.647,-110.88,3.92,3.15
,-11.094,-7.487,-2.357,-10.179,0.615,-2.735,-70.98,1.26,-5.88
,-11.182,-7.562,-1.529,-10.033,1.263,-3.376,-3.64,-3.78,6.16
12569.0,-9.966,0.646,-2.97,-9.505,-0.907,-2.388,-57.05,9.73,-14.98
,-9.689,-1.586,-2.273,-9.34,0.668,-2.63,-81.27,9.87,-13.58
,-9.251,-2.95,-1.955,-9.311,1.316,-2.472,-72.24,8.75,-8.12
,-9.423,-2.615,-2.058,-9.026,1.374,-2.726,-42.14,7.49,-3.64
12645.0,-8.677,1.615,-3.001,-11.132,1.486,-2.907,48.3,1.68,8.4
,-8.684,2.125,-3.271,-9.931,1.804,-3.302,52.43,5.04,6.51
,-8.794,2.517,-3.408,-10.636,1.053,-3.058,44.52,8.68,1.19
,-9.45,2.374,-3.403,-10.333,0.656,-3.422,27.44,12.39,-4.41
12721.0,-9.866,1.256,-3.965,-9.581,6.044,-5.059,4.76,18.97,-2.24
,-9.655,2.603,-4.324,-9.349,5.949,-4.704,9.45,19.11,-1.47
,-9.71,4.07,-4.776,-9.423,4.867,-4.305,7.77,18.55,0.07
,-9.864,5.288,-5.063,-9.641,3.731,-4.171,-0.07,18.13,2.1
12797.0,-9.655,3.02,-4.037,-9.409,4.401,-4.633,-51.45,12.25,18.76
,-9.112,3.264,-4.341,-9.026,4.558,-4.793,-42.91,11.27,24.99
,-9.131,3.654,-4.42,-9.036,4.298,-4.637,-36.12,10.71,30.03
,-9.313,4.003,-4.484,-9.016,4.645,-5.018,-33.6,9.59,34.93
12872.0,-8.935,4.704,-4.877,-9.418,2.733,-4.286,-53.55,6.65,49.7
,-9.0,4.8,-4.977,-9.768,2.455,-4.034,-59.92,6.58,50.19
,-9.507,4.334,-4.448,-9.926,2.888,-4.058,-65.38,3.64,52.22
,-9.115,3.422,-4.334,-9.562,2.95,-4.001,-70.28,1.82,55.51
12948.0,-9.718,2.898,-4.054,-10.239,2.386,-4.477,-51.59,4.27,72.8
,-9.72,3.137,-4.499,-9.765,2.407,-4.41,-51.17,5.74,74.34
,-9.978,3.025,-4.439,-9.292,2.407,-4.111,-55.02,7.42,74.83
,-10.242,2.62,-4.398,-9.258,1.811,-3.747,-59.5,7.56,75.6
13023.0,-9.021,1.271,-3.783,-8.576,1.467,-3.417,-66.08,-6.65,78.12
,-8.696,0.861,-3.472,-8.636,1.615,-3.64,-63.14,-9.94,78.12
,-8.583,0.699,-3.216,-8.418,1.405,-3.312,-58.45,-12.39,76.3
,-8.512,1.05,-3.472,-8.55,1.091,-3.254,-50.89,-14.35,73.5
13099.0,-8.378,0.806,-2.984,-7.442,-1.419,-1.833,-56.77,-25.83,55.79
,-8.227,0.854,-3.08,-7.251,-3.522,-1.048,-55.02,-26.95,52.57
,-7.983,0.696,-2.804,-6.782,-5.03,-1.094,-55.51,-28.0,49.7
,-8.023,0.074,-2.577,-6.978,-3.752,-2.201,-55.3,-29.12,46.76
13175.0,-7.557,-1.594,-2.218,-5.882,4.879,-4.293,79.1,-17.85,39.55
,-7.241,-0.491,-2.448,-6.865,4.324,-4.889,90.86,-15.82,37.24
,-6.329,-0.546,-2.515,-6.959,1.651,-5.276,92.89,-12.32,30.66
,-5.205,1.548,-3.281,-8.112,3.166,-5.863,100.24,-1.96,22.82
13251.0,-9.861,3.625,-5.884,-10.936,2.123,-4.628,56.98,20.44,-38.99
,-10.22,4.164,-5.635,-10.732,0.342,-4.372,50.61,12.04,-42.28
,-10.079,3.367,-4.716,-10.115,1.318,-4.635,39.76,7.84,-44.17
,-10.416,3.302,-4.731,-9.909,2.532,-4.458,30.94,6.58,-43.12
13326.0,-8.993,2.486,-4.444,-11.962,1.065,-3.058,63.84,-1.75,-46.69
,-8.78,1.354,-4.389,-16.021,8.342,-2.268,42.77,-1.4,-54.11
,-9.428,0.589,-4.681,-17.451,9.804,-4.214,24.5,-1.89,-62.65
,-10.268,-0.816,-4.19,-9.746,-1.161,-3.135,12.32,-3.99,-67.62
13402.0,-4.075,-3.661,-3.991,-9.318,-0.639,-4.07,62.44,-1.96,-30.59
,-7.497,0.431,-5.059,-9.153,0.438,-3.838,72.45,-8.12,-38.36
,-10.199,1.34,-4.815,-9.392,-0.215,-3.489,49.35,-12.04,-43.19
,-10.249,-0.467,-4.2,-9.471,-0.189,-3.309,24.01,-11.9,-43.89
13478.0,-9.256,1.316,-3.64,-9.155,0.936,-3.676,40.46,-14.07,-30.38
,-9.091,1.522,-3.695,-9.292,1.263,-3.589,34.93,-13.65,-29.89
,-9.342,0.646,-3.577,-9.375,1.409,-3.364,23.87,-13.44,-29.47
,-9.198,0.369,-3.592,-9.172,1.072,-3.163,18.76,-13.23,-28.56
13554.0,-9.155,0.976,-3.08,-9.552,0.538,-2.522,9.66,-9.73,-24.57
,-8.849,1.366,-2.977,-9.541,0.273,-2.747,10.57,-8.54,-24.08
,-8.942,1.567,-2.883,-9.509,0.546,-3.166,8.68,-7.49,-23.8
,-9.282,1.242,-2.754,-9.395,0.914,-3.69,4.9,-6.02,-22.82
13629.0,-9.019,1.213,-4.051,-9.586,-0.292,-3.336,2.38,-2.73,-20.65
,-8.894,1.352,-4.125,-9.407,-0.546,-3.025,-1.61,-3.22,-20.93
,-9.294,0.96,-4.011,-9.225,0.127,-3.106,-4.76,-4.13,-20.3
,-9.56,0.352,-3.62,-9.392,0.883,-3.302,-5.32,-4.48,-18.69
13705.0,-9.397,1.23,-3.29,-9.71,-0.168,-3.017,0.42,-4.76,-16.8
,-9.311,0.936,-3.089,-9.531,-0.378,-3.063,-9.03,-3.43,-17.78
,-9.548,0.469,-2.905,-9.414,-0.246,-3.07,-14.98,-2.52,-18.13
,-9.643,0.053,-3.013,-9.256,0.747,-3.154,-16.59,-2.24,-17.92
13781.0,-9.076,1.766,-3.07,-9.49,-0.732,-2.271,0.14,-3.5,-15.19
,-9.079,1.993,-2.845,-9.586,-0.835,-2.328,-4.27,-2.31,-15.89
,-9.474,0.857,-2.529,-9.88,-0.749,-2.558,-9.87,-1.33,-15.61
,-9.557,-0.268,-2.371,-9.574,-0.369,-2.642,-8.61,-0.77,-14.42
13856.0,-8.686,0.345,-2.57,-9.225,-2.242,-2.45,3.85,1.19,-12.81
,-9.292,1.536,-2.771,-9.887,-4.274,-2.304,5.32,0.98,-12.95
,-9.988,2.123,-2.709,-9.859,-2.142,-2.941,4.97,1.47,-10.5
,-9.411,1.101,-2.793,-9.67,0.933,-3.671,3.64,3.64,-7.42
13932.0,-9.301,0.818,-3.697,-9.445,0.648,-3.257,0.77,1.89,-8.68
,-9.399,-0.809,-3.386,-8.533,2.063,-3.632,-6.93,1.61,-7.35
,-9.866,-1.122,-3.135,-8.684,2.082,-3.63,2.8,0.77,-4.48
,-9.921,-0.328,-3.132,-9.531,1.015,-3.381,15.54,0.77,-1.4
14008.0,-9.648,-0.156,-3.015,-9.584,-0.33,-3.123,-2.38,3.08,-1.47
,-9.531,-0.486,-2.711,-9.387,-0.325,-3.417,2.17,3.5,-0.63
,-9.562,-0.44,-2.651,-9.481,-0.23,-3.778,7.0,4.13,0.49
,-9.655,-0.376,-2.759,-9.354,0.007,-3.965,9.52,4.34,1.61
14084.0,-9.344,-0.053,-3.955,-9.483,-0.065,-3.317,3.43,3.36,3.5
,-9.418,-0.045,-3.9,-9.325,0.079,-3.206,0.7,2.87,3.78
,-9.359,-0.105,-3.699,-9.418,0.273,-3.139,-2.03,2.17,3.85
,-9.471,-0.206,-3.491,-9.433,0.27,-3.01,-3.08,1.68,4.55
14159.0,-9.457,0.139,-2.888,-9.311,0.34,-2.682,-3.99,1.26,5.88
,-9.438,0.357,-2.785,-9.454,0.261,-2.84,-3.22,1.68,6.16
,-9.411,0.371,-2.682,-9.488,0.325,-2.986,-3.71,2.17,6.09
,-9.435,0.414,-2.754,-9.34,0.258,-3.125,-4.13,3.01,6.23
14235.0,-9.435,0.227,-3.163,-9.478,-0.072,-3.355,-3.29,5.04,7.49
,-9.428,0.127,-3.18,-9.256,0.33,-3.561,-3.71,5.11,7.84
,-9.392,-0.069,-3.149,-9.237,0.727,-3.668,-4.48,5.25,8.19
,-9.459,-0.175,-3.175,-9.251,0.663,-3.592,-3.71,4.97,8.75
14311.0,-9.407,0.086,-3.319,-9.447,0.081,-3.022,-7.21,4.76,11.27
,-9.541,-0.388,-3.025,-9.452,0.139,-3.01,-7.07,4.55,12.25
,-9.593,-0.5,-2.84,-9.567,0.012,-3.068,-4.34,4.34,13.16
,-9.509,-0.208,-2.85,-9.598,0.079,-3.223,-1.89,4.48,13.93
14387.0,-9.316,0.177,-3.343,-9.294,0.395,-4.197,-4.2,5.95,18.2
,-9.191,0.562,-3.628,-9.409,0.282,-4.286,-4.2,5.74,18.48
,-9.287,0.845,-3.996,-9.564,0.16,-4.238,-6.58,5.25,18.41
,-9.34,0.68,-4.185,-9.378,0.211,-4.216,-10.43,4.76,18.76
14462.0,-9.289,0.445,-4.109,-9.375,0.144,-2.809,-10.15,-0.77,24.71
,-9.026,0.684,-4.034,-9.493,0.153,-2.431,-11.41,-1.47,24.92
,-9.328,0.747,-3.671,-9.182,1.199,-2.41,-14.28,-2.24,25.2
,-9.375,0.457,-3.266,-9.196,1.663,-2.257,-15.19,-2.52,26.53
14538.0,-9.38,0.962,-2.079,-9.541,0.859,-2.29,-8.05,1.26,30.31
,-9.423,0.593,-2.053,-9.273,0.663,-2.24,-6.72,2.59,31.71
,-9.313,0.416,-2.044,-9.34,0.414,-2.199,-1.12,3.64,33.18
,-9.529,0.57,-2.108,-9.483,0.342,-2.221,4.48,4.9,34.86
14614.0,-9.246,0.696,-2.496,-9.435,1.464,-3.257,7.98,10.99,39.62
,-9.273,1.194,-2.757,-9.28,0.976,-3.319,9.8,11.97,40.74
,-9.273,1.579,-3.106,-9.095,0.969,-3.312,9.38,12.67,42.14
,-9.273,1.637,-3.331,-9.162,1.115,-3.527,8.26,13.37,43.19
14689.0,-9.481,1.469,-4.192,-9.873,4.018,-7.495,9.31,14.7,47.39
,-7.365,-2.355,0.141,-10.208,3.475,-6.159,24.36,28.42,73.57
,-10.165,0.972,-4.824,-10.488,3.171,-4.642,37.17,17.92,56.84
,-9.636,3.441,-7.272,-10.529,2.864,-4.104,35.07,11.34,48.58
14765.0,-10.871,2.563,-4.293,-10.443,1.601,-4.348,-28.14,8.19,42.77
,-10.945,2.68,-4.666,-10.115,2.412,-4.477,-30.59,6.23,40.88
,-10.735,1.503,-4.408,-9.639,2.764,-4.415,-32.06,4.27,38.85
,-10.634,1.445,-4.247,-9.493,2.97,-4.573,-30.8,3.01,37.52
14841.0,-9.514,3.132,-4.52,-8.433,2.257,-3.551,-45.57,-8.26,20.58
,-9.576,3.197,-4.391,-8.375,1.898,-3.01,-54.39,-10.01,15.68
,-9.363,2.778,-4.197,-7.99,1.505,-1.996,-63.0,-11.69,10.36
,-9.005,2.577,-3.97,-7.801,0.9,-0.938,-68.67,-13.3,5.25
14917.0,-7.605,0.433,-0.811,-7.854,1.397,-5.377,-66.08,-15.75,-21.0
,-6.463,0.945,-1.414,-8.083,-0.112,-4.549,-59.36,-8.96,-28.0
,-6.19,0.541,-2.73,-7.487,-2.436,-3.329,-60.62,1.33,-34.93
,-6.825,0.215,-5.083,-7.76,-2.938,-2.434,-57.05,9.52,-40.39
14992.0,-8.05,-1.603,-1.493,-8.528,2.233,-2.151,-0.7,6.65,-60.62
,-8.196,-0.225,-1.122,-8.411,1.283,-1.922,15.33,10.71,-63.21
,-8.217,0.826,-1.742,-8.559,0.282,-1.965,21.91,16.03,-66.71
,-8.418,1.553,-1.972,-9.258,-0.273,-1.814,22.89,21.21,-71.82
15068.0,-8.693,0.512,-3.027,-8.842,7.88,-11.704,32.69,36.05,-72.03
,-8.361,1.378,-3.946,-9.34,1.953,-3.927,45.15,40.39,-71.96
,-8.48,2.386,-3.965,-9.196,-0.361,-1.747,48.58,42.77,-75.04
,-13.644,9.634,-23.843,-9.416,0.127,-2.919,37.24,47.74,-79.24
15144.0,-9.304,2.843,-5.549,-9.244,3.539,-6.289,83.79,40.74,-66.08
,-9.127,4.209,-6.066,-9.718,2.563,-6.329,84.42,40.32,-69.16
,-9.215,4.377,-5.587,-9.691,2.036,-5.719,72.03,37.94,-73.57
,-9.007,4.269,-6.068,-8.894,1.45,-5.193,57.54,33.88,-77.35
15220.0,-8.892,1.041,-4.645,-9.095,3.211,-4.355,33.11,11.27,-67.34
,-9.139,1.586,-4.63,-9.39,3.216,-4.369,39.9,4.55,-60.55
,-9.15,2.307,-4.558,-9.313,3.269,-4.353,46.2,-0.7,-52.78
,-9.016,2.91,-4.417,-9.586,3.305,-3.805,51.94,-4.97,-44.8
15295.0,-9.799,3.264,-3.551,-9.521,3.427,-3.128,59.01,-21.56,-13.58
,-8.899,4.168,-3.731,-12.01,3.575,-2.115,60.97,-23.24,-7.42
,-8.576,4.726,-3.587,-12.35,9.409,-3.982,55.58,-24.85,-4.2
,-8.55,4.611,-3.532,-10.665,12.766,-2.73,43.05,-26.53,-3.29
15371.0,-8.423,8.047,-2.536,-12.776,-0.768,-1.505,42.56,-30.52,51.73
,-7.308,3.309,-2.103,-11.211,-0.689,-2.192,39.9,-22.89,31.01
,-11.18,3.111,-1.843,-11.019,-0.031,-2.582,48.09,-15.54,11.83
,-13.4,1.127,-1.285,-10.809,0.883,-3.092,50.47,-9.1,11.48
15446.0,-9.672,0.637,-3.092,-9.076,-0.749,-3.69,-18.76,3.01,-1.68
,-8.878,-0.677,-3.058,-8.99,0.928,-3.632,-35.0,4.55,-0.21
,-8.859,-1.845,-3.204,-8.768,2.123,-3.69,-32.34,3.43,4.13
,-8.99,-2.039,-3.558,-8.832,2.572,-3.546,-14.63,1.19,7.35
15522.0,-8.626,2.819,-3.589,-9.765,1.402,-2.745,36.26,-1.26,7.84
,-8.552,2.836,-3.245,-11.115,1.285,-2.304,24.78,3.08,2.59
,-9.289,2.271,-2.915,-10.792,0.912,-2.58,9.24,5.74,-3.5
,-9.442,1.572,-2.871,-9.146,2.158,-2.881,-4.41,8.61,-8.19
15598.0,-9.555,3.503,-3.628,-9.871,5.083,-4.719,-20.23,24.71,-6.93
,-10.026,3.467,-3.96,-9.782,4.302,-4.527,-25.76,24.29,-7.21
,-9.952,3.453,-4.369,-9.605,3.546,-4.487,-27.44,23.87,-6.37
,-9.849,4.36,-4.616,-9.306,3.649,-4.628,-26.11,23.94,-3.43
15674.0,-8.995,4.075,-4.905,-8.571,4.429,-4.506,-33.39,14.49,27.44
,-9.045,4.724,-4.975,-9.28,3.915,-4.049,-31.5,11.41,31.5
,-9.072,4.903,-4.724,-9.701,3.173,-3.513,-34.51,7.0,35.14
,-8.579,4.666,-4.594,-9.763,2.919,-3.388,-41.16,3.29,39.13
15750.0,-9.359,2.871,-3.52,-9.83,3.702,-3.589,-50.96,-3.78,56.42
,-9.519,2.898,-3.209,-9.902,3.343,-3.776,-48.58,-2.52,57.05
,-9.844,3.369,-3.178,-9.919,2.644,-3.958,-47.53,-1.12,58.17
,-9.852,3.989,-3.573,-10.177,2.125,-3.884,-48.72,1.12,59.22
15825.0,-10.156,1.807,-4.121,-9.72,2.118,-4.417,-64.26,5.39,62.51
,-10.077,1.831,-4.508,-9.22,2.371,-4.829,-59.85,3.64,64.61
,-9.911,1.933,-4.353,-8.985,2.309,-4.484,-57.47,1.05,65.31
,-9.598,2.118,-4.448,-8.741,2.364,-4.202,-56.98,-1.82,65.38
15901.0,-8.794,2.309,-3.915,-8.957,1.421,-2.589,-62.02,-22.82,68.88
,-9.182,1.989,-3.467,-8.387,1.888,-2.307,-63.14,-26.39,68.25
,-9.385,1.591,-2.876,-8.279,2.0,-2.175,-61.32,-29.26,67.48
,-9.452,1.003,-2.395,-8.131,1.967,-2.077,-55.72,-32.06,67.06
15977.0,-8.203,1.682,-1.9,-7.353,-0.445,-1.345,-31.99,-31.43,56.56
,-8.234,0.969,-1.697,-7.478,-0.924,-1.369,-28.63,-30.24,55.51
,-8.014,0.581,-1.804,-7.385,-0.665,-1.859,-20.37,-28.42,54.95
,-7.487,0.048,-1.859,-7.102,0.002,-1.721,-8.4,-26.32,53.76
16053.0,-6.973,0.392,-1.637,-5.875,1.907,-3.522,62.16,-7.91,45.71
,-6.798,0.22,-1.967,-7.394,2.723,-3.802,68.88,-3.64,42.14
,-6.437,-0.5,-1.735,-7.329,1.048,-3.865,72.94,1.96,36.89
,-6.054,0.057,-3.025,-7.863,1.106,-3.934,86.45,11.62,31.43
16128.0,-8.404,3.635,-4.69,-9.531,1.211,-5.353,81.27,26.6,-21.98
,-9.627,4.085,-4.815,-9.655,1.989,-6.1,60.69,21.7,-32.41
,-9.596,2.886,-4.688,-9.844,3.79,-6.382,42.63,18.62,-39.13
,-9.268,1.601,-4.671,-9.43,5.336,-6.157,38.64,17.15,-43.12
16204.0,-9.146,5.506,-5.98,-9.67,2.058,-4.561,44.73,2.45,-51.24
,-9.301,4.508,-5.497,-10.055,1.503,-4.252,27.02,1.33,-55.3
,-9.28,3.486,-5.106,-11.01,1.85,-3.728,14.21,0.49,-59.15
,-9.428,2.682,-4.771,-13.089,3.108,-2.438,3.64,-0.56,-62.51
16279.0,-15.224,4.054,-2.048,-8.727,-0.529,-4.018,8.68,-8.26,-60.69
,-13.367,1.156,-2.376,-9.651,-0.168,-4.061,14.63,-4.55,-50.75
,-8.655,-2.699,-2.443,-9.624,-0.486,-3.853,29.33,-1.75,-41.65
,-7.341,-2.599,-3.36,-9.198,-0.089,-3.888,48.37,-3.71,-39.13
16355.0,-8.787,0.471,-3.833,-9.308,0.038,-4.29,29.12,-8.12,-39.9
,-9.057,1.412,-3.984,-9.485,-0.589,-4.405,34.72,-8.82,-36.89
,-9.222,1.833,-4.145,-9.464,-0.553,-4.417,36.33,-8.89,-34.02
,-9.206,1.132,-4.238,-9.38,0.517,-4.503,32.48,-8.61,-32.34
16431.0,-9.411,1.376,-4.566,-9.43,-0.407,-2.922,7.28,-11.76,-29.75
,-9.299,1.692,-4.391,-9.217,-0.33,-2.711,-0.98,-11.83,-28.91
,-9.265,1.254,-3.85,-9.124,0.672,-2.867,-7.77,-11.27,-27.51
,-9.418,0.342,-3.276,-9.1,1.232,-2.754,-9.87,-11.13,-25.27
16507.0,-9.356,1.175,-2.635,-9.043,1.206,-2.57,9.66,-9.17,-18.34
,-9.275,0.84,-2.505,-9.423,1.402,-2.649,4.69,-7.49,-17.99
,-9.344,0.431,-2.383,-9.684,0.766,-2.711,2.17,-6.09,-17.85
,-9.256,0.713,-2.474,-9.514,-0.05,-2.785,3.15,-5.04,-17.85
16583.0,-9.739,-0.397,-2.666,-9.533,0.237,-3.305,3.85,-1.82,-15.33
,-9.454,-0.11,-2.836,-9.304,0.452,-3.386,7.98,-1.89,-14.77
,-9.483,0.249,-2.965,-9.131,1.249,-3.728,7.84,-1.68,-14.77
,-9.631,0.172,-3.101,-8.83,1.79,-3.606,4.97,-1.54,-14.49
16658.0,-9.086,1.134,-3.362,-9.584,-0.426,-2.771,0.84,-1.12,-13.93
,-9.526,0.187,-3.053,-9.789,-1.062,-2.764,0.35,-0.91,-12.39
,-9.555,-0.342,-2.804,-8.897,1.874,-3.173,5.81,-0.35,-10.64
,-9.517,-0.325,-2.807,-10.61,1.768,-3.364,11.06,0.14,-9.45
16734.0,-8.947,1.464,-3.271,-9.332,-0.175,-3.168,-17.36,1.12,-10.15
,-8.502,2.154,-3.939,-10.033,4.599,-3.664,-15.89,3.36,-5.53
,-7.973,-4.587,-3.508,-9.072,1.462,-3.001,-18.13,1.82,-7.7
,-10.474,-6.155,-2.592,-9.686,-2.553,-1.807,11.34,-1.96,-9.17
16810.0,-10.041,-2.651,-1.711,-9.734,-0.323,-2.321,-7.77,-0.91,-7.63
,-9.689,0.809,-2.304,-9.998,-1.974,-2.4,25.2,-0.49,-3.85
,-9.177,2.714,-2.422,-9.739,-2.029,-2.635,29.4,1.54,-2.31
,-9.306,1.819,-2.438,-9.474,-0.938,-3.23,15.89,3.71,-1.26
16886.0,-9.438,0.139,-3.958,-8.99,1.467,-4.893,12.46,5.53,0.77
,-9.124,1.225,-4.46,-9.074,-0.012,-4.367,8.4,4.9,0.28
,-9.031,2.003,-4.877,-9.351,-0.948,-3.927,3.08,4.34,0.21
,-9.04,2.233,-5.03,-9.313,-0.68,-3.855,-1.54,3.71,0.91
16961.0,-9.198,-0.201,-3.795,-9.665,-0.938,-2.455,0.98,-1.89,0.98
,-9.306,0.036,-3.64,-9.744,-0.782,-2.271,-4.13,-1.96,0.28
,-9.509,-0.112,-3.262,-9.737,-0.481,-2.429,-8.26,-2.31,0.42
,-9.677,-0.514,-2.757,-9.581,-0.096,-2.615,-7.91,-2.24,1.68
17037.0,-9.38,0.287,-2.879,-9.397,0.096,-2.785,7.63,0.0,7.63
,-9.438,0.476,-2.955,-9.349,0.328,-2.812,3.43,0.7,7.28
,-9.502,0.28,-2.864,-9.435,0.459,-2.938,-0.49,1.19,7.42
,-9.512,-0.002,-2.816,-9.239,0.584,-3.118,-0.77,1.47,7.98
17112.0,-9.323,0.445,-3.171,-9.395,0.077,-2.974,-1.4,3.08,9.38
,-9.454,0.208,-3.178,-9.545,0.103,-3.053,-2.73,3.22,9.73
,-9.404,0.062,-3.087,-9.409,0.177,-3.233,-3.01,3.64,10.29
,-9.392,0.074,-3.008,-9.232,0.371,-3.376,-3.08,4.06,10.57
17188.0,-9.49,0.505,-3.451,-9.435,0.11,-3.393,-4.83,4.2,12.18
,-9.524,0.364,-3.427,-9.351,-0.01,-3.348,-4.9,4.41,13.37
,-9.469,0.067,-3.381,-9.399,-0.091,-3.317,-3.99,4.34,14.56
,-9.454,0.002,-3.36,-9.483,-0.091,-3.159,-1.89,3.92,15.47
17264.0,-9.356,0.431,-3.154,-9.418,0.359,-3.065,2.31,2.8,19.25
,-9.495,0.704,-3.087,-9.395,0.29,-3.027,1.47,3.08,19.74
,-9.313,0.747,-3.041,-9.521,0.392,-3.029,-1.68,3.78,20.02
,-9.306,0.495,-2.924,-9.363,0.345,-2.982,-4.9,4.62,20.51
17340.0,-9.502,0.266,-2.656,-9.172,0.988,-2.608,-7.49,6.58,24.64
,-9.529,0.299,-2.527,-9.366,1.082,-2.745,-5.46,7.28,26.32
,-9.397,0.581,-2.589,-9.347,0.625,-2.692,-3.36,8.19,27.02
,-9.241,0.955,-2.52,-9.265,0.641,-2.797,-3.36,9.45,27.58
17416.0,-9.351,0.816,-2.886,-9.371,0.38,-3.285,-7.84,14.42,31.99
,-9.292,0.73,-3.128,-9.206,0.66,-3.453,-8.47,15.05,32.69
,-9.253,0.615,-3.135,-9.074,1.256,-3.716,-8.47,15.4,33.74
,-9.239,0.371,-3.247,-9.186,1.448,-3.826,-7.42,14.98,35.21
17491.0,-9.229,0.876,-3.812,-9.344,1.29,-3.807,-6.16,14.84,42.07
,-9.354,0.263,-3.865,-9.524,1.117,-3.898,-6.58,14.42,43.61
,-9.469,-0.005,-3.774,-9.73,0.601,-4.353,-4.27,13.86,45.15
,-9.39,0.546,-3.764,-10.017,0.483,-4.812,-1.26,13.72,46.41
17567.0,-7.425,10.225,-15.585,-10.837,1.46,-4.209,16.73,7.35,57.26
,-9.526,4.221,-9.471,-11.316,2.242,-4.893,-20.16,5.88,57.05
,-9.962,1.831,-5.676,-11.139,3.233,-5.334,-42.63,3.92,56.49
,-10.297,0.708,-4.109,-11.034,3.223,-4.815,-41.58,0.56,56.14
17643.0,-10.826,2.402,-4.24,-10.146,1.357,-2.941,-38.29,-8.82,45.29
,-10.849,1.771,-3.802,-9.653,1.649,-2.97,-45.57,-10.01,41.72
,-10.574,1.792,-3.307,-9.344,2.367,-3.125,-48.86,-11.34,38.22
,-10.187,1.673,-3.101,-8.981,3.068,-3.35,-51.31,-12.67,34.02
17719.0,-8.696,2.761,-3.096,-7.406,0.313,0.146,-69.3,-17.08,6.16
,-8.191,2.125,-2.874,-6.607,0.79,-0.11,-76.79,-17.99,0.63
,-7.693,1.106,-1.941,-6.123,0.055,-1.156,-80.36,-19.39,-5.25
,-7.425,0.45,-0.759,-7.588,-2.048,-2.237,-76.02,-20.51,-10.22
17794.0,-7.413,-1.859,-4.338,-7.672,-0.905,-2.915,-25.55,19.81,-31.43
,-7.42,-0.546,-4.511,-8.5,-0.002,-2.752,-3.71,21.77,-35.49
,-7.495,-0.373,-4.247,-8.811,1.007,-3.094,12.11,20.16,-41.58
,-7.363,-0.926,-3.609,-8.705,1.553,-3.003,25.41,16.94,-48.79
17870.0,-8.471,1.591,-2.661,-8.323,-0.005,-3.853,29.61,26.81,-81.27
,-8.445,1.441,-2.711,-9.134,0.648,-4.123,26.04,28.84,-85.12
,-8.545,0.471,-2.807,-9.67,1.242,-4.824,22.82,29.47,-88.13
,-8.5,-0.23,-2.903,-9.012,3.111,-7.073,25.69,29.75,-88.62
17945.0,-8.337,6.93,-13.328,-8.174,2.836,-4.676,147.49,28.28,-81.9
,-8.971,6.305,-11.194,-8.488,4.46,-5.468,136.01,28.84,-76.86
,-9.426,3.355,-6.77,-8.873,5.011,-5.977,89.81,28.77,-69.58
,-9.045,2.01,-5.073,-9.139,3.91,-5.511,82.67,25.69,-62.93
18021.0,-9.684,2.659,-5.25,-9.371,4.379,-6.181,85.05,10.22,-55.3
,-10.103,1.869,-5.059,-9.533,4.913,-5.662,89.74,6.09,-50.4
,-9.753,1.835,-5.008,-9.196,4.566,-5.817,98.21,3.43,-45.43
,-9.72,3.017,-5.628,-8.658,4.29,-6.013,105.7,1.26,-41.44
18097.0,-8.717,4.073,-5.803,-9.129,4.147,-4.733,61.32,-12.88,-38.57
,-9.16,4.078,-5.511,-8.971,4.164,-4.439,53.13,-15.82,-37.94
,-9.395,4.082,-5.374,-8.918,3.656,-3.879,44.31,-18.34,-35.14
,-9.28,4.056,-5.047,-9.165,2.946,-3.269,34.65,-21.0,-31.57
18173.0,-9.301,2.96,-3.015,-9.579,15.284,-1.151,3.71,-28.84,-11.34
,-10.988,4.051,-1.989,-8.37,5.322,-1.371,9.66,-33.25,-5.95
,-12.965,10.608,-4.736,-9.773,-2.843,-1.864,39.97,-38.71,12.04
,-11.005,18.641,-3.927,-10.636,-7.631,-0.505,44.87,-33.11,35.14
18248.0,-11.007,-5.827,-1.187,-10.179,1.127,-2.687,40.67,-12.25,20.51
,-11.156,-0.66,-2.58,-9.753,-0.838,-2.264,82.32,-10.08,24.22
,-11.022,1.646,-3.374,-9.454,-2.651,-1.771,65.31,-7.84,16.94
,-10.651,1.519,-3.049,-9.048,-2.651,-1.768,13.65,-5.46,3.57
18324.0,-8.938,-1.508,-1.893,-8.636,1.338,-1.697,-4.13,-2.38,7.28
,-9.136,0.239,-2.096,-9.217,1.474,-1.866,19.67,-3.22,8.89
,-9.39,1.828,-2.204,-9.689,1.972,-2.175,33.11,-3.57,10.57
,-9.1,1.972,-1.797,-9.39,2.125,-2.797,36.12,-3.22,11.48
18400.0,-8.82,2.34,-3.113,-11.287,1.161,-3.549,21.0,11.34,-0.21
,-8.985,2.69,-3.264,-9.995,2.357,-3.984,6.65,16.17,-6.37
,-9.584,2.692,-3.496,-9.725,2.874,-4.013,-10.15,20.09,-12.39
,-10.962,1.838,-3.47,-9.859,3.168,-4.228,-27.93,22.61,-15.33
18476.0,-9.753,3.814,-4.807,-9.502,3.367,-4.781,-30.17,18.2,-6.51
,-9.923,4.422,-4.86,-8.875,3.63,-4.872,-35.49,18.06,-6.37
,-10.323,4.274,-4.724,-9.153,3.781,-4.683,-45.85,16.73,-4.34
,-10.153,3.726,-5.006,-9.349,3.788,-4.506,-52.71,13.65,0.91
18552.0,-9.062,3.52,-4.212,-9.459,3.204,-3.003,-52.29,-3.43,28.49
,-8.909,3.587,-3.81,-9.395,2.876,-2.869,-49.49,-6.65,32.13
,-8.708,3.841,-3.68,-9.457,2.649,-2.836,-49.21,-7.63,35.35
,-9.282,3.616,-3.331,-9.598,2.539,-2.824,-51.94,-7.35,38.85
18627.0,-9.801,2.474,-2.745,-9.641,2.895,-3.352,-39.62,-5.53,53.76
,-9.799,2.594,-3.046,-9.588,2.962,-3.482,-37.31,-4.13,55.37
,-9.959,2.776,-2.994,-9.464,2.558,-3.393,-36.4,-3.08,56.84
,-9.78,2.977,-3.434,-9.55,1.694,-3.685,-36.68,-2.03,58.45
18703.0,-9.531,1.419,-3.783,-9.636,2.824,-3.585,-48.58,-6.51,62.23
,-9.761,1.785,-3.795,-9.363,2.862,-3.654,-44.31,-7.98,63.56
,-9.842,2.295,-3.644,-9.198,2.797,-3.776,-42.21,-10.29,64.61
,-9.698,2.714,-3.659,-9.074,2.568,-3.293,-42.84,-13.02,64.96
18778.0,-9.251,2.034,-2.943,-8.871,1.589,-1.874,-68.39,-21.98,59.15
,-9.313,1.469,-2.56,-8.595,1.785,-1.67,-68.53,-24.22,59.92
,-9.258,1.06,-2.113,-8.547,1.11,-1.455,-64.47,-26.11,59.78
,-9.172,1.108,-1.972,-8.538,0.486,-1.431,-54.74,-26.95,59.08
18854.0,-8.327,0.402,-1.718,-7.947,1.441,-1.539,-13.09,-22.75,54.6
,-8.224,0.773,-1.563,-7.72,0.706,-1.663,-0.28,-20.72,54.25
,-8.162,1.5,-1.833,-7.643,-0.28,-1.036,10.85,-18.55,53.83
,-7.662,1.725,-1.855,-7.597,-0.945,-1.12,16.31,-15.75,52.85
18930.0,-7.21,-1.129,-1.031,-7.109,0.852,-3.082,69.86,0.91,46.9
,-6.93,0.158,-1.802,-6.698,0.416,-3.283,90.16,7.21,45.43
,-6.573,2.005,-2.814,-7.339,2.434,-3.594,100.24,14.63,40.46
,-7.186,2.087,-2.714,-7.942,4.03,-3.869,94.29,21.14,33.25
19006.0,-8.689,3.939,-4.154,-9.651,-0.601,-4.501,74.48,27.44,-17.85
,-9.083,2.675,-4.487,-10.452,-0.806,-5.02,52.99,21.91,-28.0
,-9.698,1.369,-4.159,-10.172,1.326,-5.006,38.99,19.67,-35.84
,-9.325,0.002,-3.982,-9.667,4.731,-4.764,38.57,19.88,-39.9
19081.0,-9.605,5.762,-5.197,-9.88,3.269,-6.143,51.94,11.34,-56.84
,-9.964,3.652,-5.214,-10.687,4.654,-5.48,23.8,11.06,-63.35
,-10.258,1.62,-5.3,-12.742,6.597,-4.223,9.52,9.17,-65.94
,-9.99,1.529,-5.731,-14.46,6.959,-3.52,10.43,5.95,-65.66
19157.0,-12.103,1.457,-3.3,-10.024,-1.106,-3.242,0.28,0.0,-49.7
,-8.141,-3.879,-2.761,-9.873,-1.862,-3.132,16.38,0.49,-40.6
,-7.344,-2.793,-3.518,-9.533,-0.828,-3.386,43.61,-2.8,-37.94
,-9.05,-0.558,-3.69,-9.117,0.01,-3.403,50.89,-5.6,-39.48
19233.0,-8.954,0.881,-3.589,-9.481,-0.041,-4.597,34.16,-6.72,-37.17
,-9.165,1.752,-3.664,-9.22,-0.158,-4.96,39.06,-6.79,-33.46
,-9.481,1.78,-4.03,-9.182,0.426,-5.135,38.43,-6.37,-30.03
,-9.478,0.653,-4.317,-9.074,1.055,-4.824,33.81,-6.3,-28.0
19309.0,-9.351,1.232,-4.453,-8.964,0.95,-3.821,7.21,-9.87,-26.67
,-9.351,0.605,-3.872,-9.141,1.426,-3.831,2.87,-9.8,-25.34
,-9.234,0.115,-3.611,-9.363,1.357,-3.482,2.38,-9.52,-24.15
,-9.11,0.249,-3.671,-9.289,0.742,-3.051,5.18,-9.8,-23.03
19385.0,-9.251,0.163,-2.572,-9.227,0.615,-2.903,2.8,-7.7,-17.99
,-9.095,0.268,-2.539,-9.423,0.471,-2.86,7.0,-7.14,-17.29
,-9.148,0.546,-2.67,-9.672,0.34,-2.58,9.8,-6.51,-16.73
,-9.323,0.574,-2.747,-9.641,-0.096,-2.34,10.64,-5.81,-15.96
19460.0,-9.591,-0.455,-2.469,-9.457,0.768,-3.862,1.68,-0.42,-14.42
,-9.306,-0.237,-2.742,-9.421,0.811,-3.853,3.5,0.14,-14.28
,-9.411,0.199,-3.24,-9.098,0.639,-3.654,3.43,0.49,-14.56
,-9.521,0.627,-3.661,-9.127,0.402,-3.539,-0.14,1.05,-14.98
19536.0,-9.244,0.397,-3.479,-9.459,-0.242,-3.273,-2.94,-1.19,-13.09
,-9.186,0.732,-3.463,-9.433,0.273,-4.197,2.52,-1.26,-12.25
,-9.17,0.993,-3.441,-9.328,8.27,-3.673,2.45,-0.91,-12.53
,-9.246,0.68,-3.415,-10.067,10.479,-4.575,-3.43,-0.28,-13.37
19611.0,-6.829,-8.813,-2.953,-8.969,3.295,-3.941,-80.85,6.23,-10.15
,-10.546,-17.696,1.299,-10.17,-2.527,-2.379,-24.99,-0.35,-10.78
,-8.746,-3.817,-2.388,-10.06,-2.553,-2.266,72.8,-4.2,-16.17
,-11.007,8.933,-4.343,-10.029,-0.022,-2.934,57.75,-1.4,-14.77
19687.0,-9.222,1.06,-3.096,-9.734,-0.921,-3.632,11.9,3.29,-2.73
,-8.837,0.223,-3.144,-9.596,-0.988,-3.656,7.07,3.29,-1.33
,-9.442,-0.373,-3.18,-9.275,-0.754,-3.814,4.13,3.85,-0.91
,-9.785,-0.524,-3.494,-9.265,0.038,-3.963,-0.14,4.69,-0.84
19763.0,-9.282,0.148,-3.958,-9.335,-0.232,-3.776,-8.54,1.75,1.61
,-9.177,0.242,-3.989,-9.332,-0.189,-3.805,-9.31,1.26,1.89
,-9.103,0.191,-3.874,-9.27,-0.014,-3.609,-10.57,0.77,1.89
,-9.234,0.038,-3.917,-9.294,-0.053,-3.307,-12.46,0.21,2.1
19839.0,-9.5,-0.275,-3.001,-9.332,0.014,-3.214,-8.12,-2.73,5.18
,-9.596,-0.373,-2.886,-9.335,0.079,-3.262,-5.11,-3.01,6.16
,-9.478,-0.201,-3.008,-9.445,0.313,-3.24,-2.03,-2.8,7.0
,-9.34,0.074,-3.039,-9.521,0.536,-3.111,-1.26,-2.66,7.35
19914.0,-9.337,0.701,-2.958,-9.591,0.012,-2.51,-5.11,-1.4,8.75
,-9.21,0.428,-2.754,-9.495,0.005,-2.673,-6.65,-0.77,8.82
,-9.361,0.237,-2.575,-9.368,0.077,-2.85,-5.53,-0.56,9.52
,-9.514,0.158,-2.453,-9.349,0.117,-2.946,-2.8,0.14,10.5
19990.0,-9.452,0.012,-3.063,-9.608,-0.036,-3.582,-2.17,2.45,12.74
,-9.462,-0.122,-3.183,-9.198,0.641,-3.951,-1.75,2.31,13.72
,-9.438,-0.048,-3.307,-8.961,1.297,-3.908,0.28,2.03,14.56
,-9.529,-0.002,-3.424,-9.177,1.548,-3.781,1.68,1.82,15.4
20065.0,-9.225,1.405,-3.561,-9.462,0.261,-2.673,-9.17,1.12,16.31
,-9.284,0.651,-3.223,-9.653,0.024,-2.572,-11.55,1.33,16.66
,-9.478,0.412,-3.156,-9.627,-0.029,-2.309,-8.75,1.05,17.57
,-9.344,0.562,-2.886,-9.617,-0.06,-2.434,-6.58,1.47,18.48
20141.0,-9.646,-0.101,-2.472,-9.208,1.287,-2.826,-5.95,4.55,22.75
,-9.538,-0.043,-2.587,-9.368,1.12,-2.785,-4.13,5.18,24.08
,-9.478,0.349,-2.718,-9.641,0.493,-2.527,-1.61,5.81,25.41
,-9.316,1.031,-2.867,-9.61,-0.323,-2.376,0.14,6.72,26.32
20217.0,-9.493,-0.268,-2.335,-9.407,0.01,-2.405,-0.49,9.94,32.9
,-9.675,-0.002,-2.417,-9.232,0.493,-2.685,4.48,10.43,34.93
,-9.631,-0.062,-2.556,-9.368,0.727,-3.132,8.54,10.92,36.19
,-9.768,0.103,-2.391,-9.191,0.641,-3.601,13.23,11.55,38.08
20293.0,-8.985,1.342,-4.097,-9.488,1.101,-4.58,19.67,14.56,46.41
,-9.438,1.371,-4.41,-9.639,0.388,-4.774,17.36,13.93,48.51
,-9.375,1.015,-4.568,-9.663,-0.33,-4.937,14.98,13.37,50.33
,-9.143,0.964,-4.582,-6.959,3.577,-9.359,14.56,13.09,51.52
20369.0,-9.531,4.161,-9.94,-11.625,4.123,-4.252,58.24,4.62,59.85
,-9.567,3.711,-8.744,-11.452,2.407,-3.367,29.68,3.71,65.1
,-8.6,7.542,-7.765,-11.328,1.831,-3.424,16.87,1.19,70.28
,-10.005,5.698,-5.587,-11.45,1.304,-3.498,3.15,-0.91,65.38
20444.0,-11.223,1.072,-3.704,-9.713,0.912,-3.35,-31.01,-0.91,46.62
,-10.732,1.347,-3.654,-9.239,0.869,-3.642,-32.83,-0.98,42.14
,-10.244,1.778,-3.46,-8.772,0.979,-3.709,-39.83,-0.77,36.96
,-9.952,1.56,-3.343,-8.344,1.141,-3.929,-49.77,-0.98,30.59
20520.0,-8.325,1.35,-4.02,-7.026,2.197,-2.759,-71.12,-8.61,1.19
,-8.366,1.874,-3.877,-6.301,1.835,-2.056,-75.6,-10.92,-3.78
,-7.755,2.106,-3.721,-6.782,-0.373,-0.859,-79.52,-13.3,-7.21
,-7.428,2.125,-3.312,-7.009,-2.422,-1.108,-83.3,-15.26,-12.53
20596.0,-8.224,-3.305,-2.084,-8.059,-1.596,-2.161,-59.5,2.8,-41.02
,-8.416,-2.443,-3.415,-8.428,0.029,-2.429,-21.07,9.1,-42.14
,-8.861,-2.295,-3.032,-8.916,1.749,-3.017,9.8,10.57,-44.66
,-8.662,-2.209,-2.558,-9.002,2.883,-3.209,37.03,9.17,-47.18
20672.0,-8.507,3.463,-3.094,-9.189,-0.634,-3.408,53.27,25.41,-80.36
,-8.313,3.36,-2.816,-9.292,-0.634,-3.319,36.68,29.89,-87.15
,-8.062,2.783,-3.044,-9.304,0.124,-3.496,19.67,35.14,-94.08
,-8.576,0.926,-3.563,-9.134,1.984,-5.15,4.34,39.76,-98.35
20747.0,-8.751,2.431,-8.502,-8.686,3.654,-5.523,116.06,39.34,-82.95
,-9.383,3.975,-9.318,-8.543,4.262,-6.26,122.01,38.15,-77.14
,-9.318,3.984,-7.612,-8.851,4.865,-6.257,98.21,36.05,-71.33
,-9.086,3.293,-5.25,-8.614,4.728,-6.119,85.33,33.46,-68.25
20823.0,-8.818,3.972,-5.554,-9.677,1.625,-4.13,67.27,3.08,-68.04
,-9.124,2.814,-4.805,-9.806,2.448,-4.243,59.22,-2.73,-64.61
,-9.457,1.886,-4.365,-9.897,3.582,-4.472,58.52,-7.21,-57.12
,-9.586,1.436,-4.18,-9.629,5.147,-4.762,65.38,-13.09,-47.32
20898.0,-9.474,6.614,-4.968,-9.66,3.836,-3.314,101.29,-28.14,-16.31
,-9.538,6.561,-4.472,-9.49,3.218,-3.13,85.75,-27.79,-17.01
,-9.505,5.977,-4.501,-9.048,3.534,-3.061,67.55,-28.21,-17.29
,-9.608,5.001,-3.781,-8.696,4.355,-3.343,50.26,-28.28,-16.87
20974.0,-8.878,4.913,-3.515,-11.268,10.55,-2.96,18.13,-20.86,-9.03
,-9.73,5.169,-3.721,-11.515,9.969,-2.412,2.66,-19.53,-10.64
,-10.395,6.076,-3.79,-10.902,4.532,-1.869,-10.85,-17.64,-12.04
,-10.68,8.224,-3.393,-10.519,-1.4,-1.232,-22.82,-15.12,-11.69
21050.0,-10.553,-3.776,-0.668,-9.658,5.394,-2.582,-30.38,1.82,4.06
,-10.16,-2.977,-0.706,-9.756,4.661,-2.749,16.8,0.98,9.59
,-9.919,0.419,-1.486,-12.034,1.139,-1.926,55.58,3.01,15.47
,-9.368,3.802,-2.228,-9.552,-0.223,-2.68,61.46,8.19,14.0
21126.0,-9.552,0.84,-3.238,-9.919,4.92,-5.03,-30.24,26.81,-2.59
,-9.768,2.929,-4.197,-9.813,3.202,-4.642,-17.29,29.54,-4.9
,-9.95,3.898,-4.815,-9.533,2.185,-4.446,-21.7,30.59,-9.17
,-9.828,4.815,-4.953,-9.395,2.233,-4.444,-34.51,30.94,-11.27
21202.0,-9.074,3.209,-4.762,-9.253,2.735,-4.123,-47.53,15.61,15.12
,-9.356,3.57,-4.503,-9.371,3.388,-4.03,-44.03,10.15,20.51
,-9.505,3.003,-4.267,-9.517,4.245,-4.223,-42.28,3.08,26.39
,-9.409,2.556,-4.075,-9.466,4.255,-4.022,-37.73,-2.8,33.32
21277.0,-9.517,3.996,-3.74,-9.555,3.783,-3.96,-34.65,-11.2,53.62
,-9.73,3.735,-3.824,-9.622,3.776,-4.034,-39.62,-11.06,55.09
,-9.739,3.704,-3.833,-9.631,3.434,-4.14,-41.72,-10.15,56.56
,-9.562,3.833,-3.884,-9.737,2.644,-3.912,-44.38,-8.61,57.75
21353.0,-9.744,2.024,-3.659,-8.82,1.898,-3.709,-60.9,-7.77,69.16
,-9.816,1.919,-3.632,-8.921,2.424,-3.764,-55.02,-10.15,72.31
,-9.653,1.919,-3.726,-8.997,2.819,-3.776,-46.48,-13.65,75.46
,-9.05,1.756,-3.79,-8.981,3.259,-3.896,-41.09,-15.75,77.42
21429.0,-8.995,3.142,-3.728,-9.062,1.692,-2.596,-38.99,-23.59,74.83
,-9.06,2.486,-3.132,-9.024,1.467,-2.338,-45.36,-24.22,73.57
,-9.028,2.06,-2.982,-8.997,1.4,-1.883,-47.53,-24.64,72.17
,-9.005,1.759,-2.673,-8.882,1.362,-1.929,-46.9,-24.64,70.91
21505.0,-8.605,1.089,-1.871,-7.818,1.194,-1.778,-24.92,-21.7,62.86
,-8.165,0.931,-1.886,-7.583,0.921,-1.845,-17.43,-20.3,61.32
,-7.708,1.117,-1.945,-7.351,0.306,-1.481,-11.69,-19.11,58.8
,-7.722,1.524,-2.032,-7.231,-0.658,-1.376,-8.4,-17.57,56.42
21580.0,-7.313,-1.728,-1.098,-5.499,2.91,-3.786,27.09,-2.59,45.5
,-7.54,-1.821,-1.017,-7.657,4.58,-3.819,48.02,2.17,42.98
,-7.21,-1.328,-1.883,-7.358,1.869,-4.176,70.7,6.93,39.48
,-6.533,-0.096,-2.783,-7.935,1.804,-4.188,91.21,14.35,35.56
21656.0,-8.729,4.398,-4.025,-10.577,-2.448,-4.101,65.52,26.74,-28.77
,-8.964,4.42,-4.156,-11.012,-0.541,-4.549,45.64,23.38,-40.81
,-9.555,2.58,-4.104,-10.852,3.065,-4.307,14.42,22.96,-47.88
,-10.127,-0.196,-3.702,-10.132,4.312,-4.336,0.0,22.19,-47.11
21731.0,-9.624,3.12,-4.803,-10.062,-1.055,-4.188,55.16,9.87,-49.56
,-10.742,0.797,-4.279,-11.077,0.627,-4.204,44.8,11.9,-50.26
,-9.014,-1.161,-1.486,-14.317,6.219,-2.97,-1.68,10.5,-55.58
,-9.265,-1.924,-2.58,-17.289,9.488,-4.573,0.7,6.72,-60.97
21807.0,-12.211,1.759,-4.592,-10.266,-0.383,-4.764,32.69,-0.63,-42.14
,-5.738,-3.218,-4.463,-9.742,-1.141,-4.176,42.42,1.61,-35.42
,-6.301,-1.642,-5.492,-9.555,-0.299,-4.099,58.24,-4.9,-38.71
,-9.385,0.464,-5.559,-9.064,0.263,-3.661,53.06,-11.27,-42.84
21883.0,-9.294,0.593,-3.082,-9.237,0.093,-2.369,33.95,-15.26,-36.33
,-9.476,1.663,-2.8,-9.107,0.555,-2.352,36.89,-14.14,-34.23
,-9.253,1.804,-2.632,-9.198,1.488,-2.446,29.82,-12.39,-33.67
,-9.478,0.861,-2.393,-9.596,1.517,-2.321,19.6,-10.71,-33.25
21959.0,-9.686,0.974,-2.469,-9.048,1.622,-4.515,12.04,-1.61,-27.79
,-9.459,0.498,-2.687,-8.835,1.871,-4.539,7.77,0.35,-26.95
,-9.332,0.586,-3.343,-8.823,1.572,-4.034,6.79,1.05,-26.32
,-9.15,1.043,-3.946,-9.162,1.101,-3.632,5.11,1.75,-25.69
22035.0,-9.421,0.962,-3.695,-9.184,1.129,-4.13,-14.56,2.66,-24.36
,-9.002,0.4,-3.8,-9.191,0.663,-3.862,-13.58,3.01,-23.03
,-8.887,0.493,-3.999,-9.368,-0.196,-3.594,-10.71,2.52,-22.54
,-8.997,1.129,-4.219,-9.359,-0.708,-3.199,-9.17,2.03,-22.33
22110.0,-9.002,-1.062,-3.025,-9.854,-0.713,-2.898,-14.28,0.07,-20.44
,-9.555,-0.799,-3.015,-10.045,-1.182,-2.824,-6.79,-0.63,-18.41
,-9.83,-0.548,-3.063,-9.474,-1.603,-3.022,-1.82,-0.42,-16.31
,-9.828,-0.572,-3.001,-9.344,-1.352,-3.331,-0.49,0.42,-15.19
22186.0,-9.33,-0.711,-3.716,-9.756,0.175,-3.297,2.8,-0.14,-11.06
,-9.146,0.491,-4.259,-9.933,-0.218,-2.678,0.35,-0.7,-11.62
,-8.66,1.115,-4.381,-9.548,-0.115,-2.386,-3.36,-1.26,-12.25
,-8.957,0.821,-3.917,-9.407,0.105,-2.302,-5.95,-2.31,-11.41
22262.0,-9.452,0.067,-2.402,-9.519,0.503,-3.285,5.04,-0.56,-6.16
,-9.277,0.146,-2.69,-9.311,0.577,-4.152,2.8,0.77,-6.72
,-8.923,0.936,-3.07,-10.098,0.969,-3.513,1.82,2.03,-7.77
,-9.043,1.07,-3.259,-9.648,-1.316,-3.12,-1.82,2.59,-8.47
22338.0,-9.27,0.983,-3.733,-9.167,1.029,-3.829,4.76,1.61,-1.33
,-8.995,0.06,-3.989,-9.708,0.014,-3.47,4.83,1.54,-2.38
,-9.421,-1.962,-3.293,-9.854,-0.838,-3.082,1.89,1.82,-4.62
,-8.327,-1.034,-3.546,-9.816,-0.529,-2.972,7.42,0.98,-5.81
22413.0,-9.653,-0.129,-2.891,-9.115,0.261,-3.412,4.62,0.21,-0.98
,-9.545,0.168,-2.927,-9.399,0.598,-3.644,7.14,0.56,1.12
,-9.505,-0.261,-3.034,-9.538,0.426,-3.668,6.37,0.84,2.31
,-9.182,-0.239,-3.262,-9.368,0.034,-3.47,8.68,1.05,2.94
22489.0,-9.301,-0.007,-3.384,-9.478,0.254,-3.477,-0.14,1.89,3.71
,-9.418,0.249,-3.355,-9.375,0.024,-3.575,2.31,2.1,4.55
,-9.213,0.62,-3.455,-9.409,0.127,-3.451,4.27,1.89,4.97
,-9.146,0.589,-3.496,-9.505,-0.282,-3.151,3.64,1.61,5.25
22564.0,-9.538,-0.514,-3.025,-9.608,0.34,-3.013,2.87,1.19,7.77
,-9.452,-0.838,-2.754,-9.39,0.239,-3.087,6.02,0.98,8.89
,-9.457,-0.847,-2.663,-9.481,-0.436,-2.96,11.06,0.84,9.87
,-9.732,-0.23,-2.735,-9.505,-0.598,-2.905,14.91,1.26,10.71
22640.0,-9.459,-0.199,-2.991,-8.82,1.036,-3.771,20.02,3.08,14.07
,-9.409,0.38,-3.228,-9.148,0.845,-3.664,20.93,3.22,14.07
,-9.289,0.613,-3.494,-9.428,0.44,-3.429,19.04,3.64,14.21
,-8.938,0.893,-3.647,-9.466,0.168,-3.209,16.73,3.99,13.93
22716.0,-9.459,0.012,-3.08,-9.208,0.704,-3.192,8.4,4.55,14.35
,-9.244,0.012,-3.116,-9.289,0.596,-3.226,9.87,4.76,14.98
,-8.988,0.134,-3.111,-9.366,0.304,-3.264,10.99,5.25,15.33
,-9.1,0.704,-3.151,-9.354,0.546,-3.678,11.41,5.67,15.33
22792.0,-9.167,0.546,-3.891,-9.299,-0.12,-3.989,9.45,7.77,18.06
,-9.292,0.27,-3.967,-9.55,-0.33,-4.027,7.49,7.49,18.9
,-9.45,-0.203,-4.056,-9.524,-0.428,-3.891,6.16,7.0,20.09
,-9.392,-0.177,-4.14,-9.201,-0.254,-3.795,6.72,6.44,20.86
22867.0,-9.28,-0.055,-3.707,-9.184,0.809,-3.644,4.13,3.57,27.16
,-9.392,0.146,-3.69,-9.131,0.938,-3.623,3.99,3.15,28.49
,-9.32,0.345,-3.632,-9.165,1.208,-3.52,2.38,3.43,29.12
,-9.313,0.565,-3.735,-9.189,1.251,-3.448,-0.07,3.64,29.89
22943.0,-9.074,1.194,-3.436,-9.244,0.412,-3.149,-10.71,5.32,33.95
,-9.225,1.158,-3.417,-9.368,0.297,-3.171,-12.25,5.81,34.93
,-9.229,0.816,-3.431,-9.481,0.014,-2.867,-13.93,6.09,35.84
,-9.079,0.543,-3.345,-9.356,0.019,-2.994,-14.35,6.44,36.68
23019.0,-9.682,0.168,-3.118,-9.459,1.405,-4.451,-4.27,7.98,44.8
,-9.873,-0.005,-3.451,-9.349,1.206,-4.817,-2.87,8.4,47.18
,-9.457,0.187,-3.958,-9.698,1.055,-4.798,-1.26,8.82,48.51
,-9.576,1.048,-4.255,-9.689,1.18,-5.24,-2.24,9.17,49.21
23095.0,-9.655,1.948,-5.851,-10.754,2.584,-4.233,-16.59,3.57,53.41
,-9.758,2.797,-5.958,-10.816,3.429,-3.695,-19.81,1.89,52.57
,-10.014,2.941,-5.721,-10.663,2.869,-2.864,-27.37,-0.42,51.31
,-10.388,2.417,-4.85,-10.821,2.166,-2.156,-35.07,-1.96,49.63
23171.0,-10.727,1.409,-1.771,-9.521,2.709,-3.534,-57.96,-1.61,37.45
,-10.488,1.457,-1.816,-8.926,3.089,-4.037,-57.19,-1.96,35.49
,-10.225,1.39,-2.137,-8.552,3.324,-4.422,-55.23,-2.66,33.11
,-10.007,2.089,-2.886,-8.294,2.907,-4.558,-53.9,-3.08,29.61
23246.0,-8.346,2.075,-4.089,-8.004,1.51,-1.594,-95.27,-12.46,1.26
,-8.437,1.208,-3.477,-7.425,1.637,-1.311,-98.7,-16.45,-2.94
,-8.318,0.94,-2.907,-6.49,1.594,-0.847,-95.9,-20.09,-7.35
,-8.334,1.393,-2.395,-6.346,0.136,-0.744,-87.78,-22.89,-11.34
23322.0,-7.928,-2.254,-2.024,-7.636,-1.223,-3.168,-68.46,8.61,-36.19
,-8.325,-2.539,-3.391,-7.971,0.653,-2.63,-46.48,16.24,-36.54
,-9.139,-2.481,-3.558,-8.275,2.312,-2.532,-19.81,18.13,-39.2
,-8.203,-2.733,-3.331,-8.38,3.01,-2.931,13.79,17.36,-41.51
23397.0,-8.634,2.764,-2.795,-8.478,-0.486,-3.508,34.93,32.06,-76.72
,-8.626,2.113,-2.414,-8.5,-1.259,-3.348,24.01,36.68,-81.34
,-8.787,1.318,-2.525,-8.634,-0.73,-3.699,17.71,40.32,-84.91
,-8.763,0.778,-3.34,-9.229,0.28,-4.523,20.51,41.16,-87.99
23473.0,-9.964,0.974,-4.171,-8.93,4.14,-4.769,81.76,34.65,-75.18
,-9.124,2.539,-4.738,-9.49,3.585,-5.178,96.46,32.62,-73.64
,-8.358,3.333,-4.458,-10.782,-3.699,3.331,101.15,31.99,-74.62
,-8.512,3.972,-4.111,-9.328,-2.623,1.184,95.69,30.94,-76.09
23549.0,-9.567,0.385,-2.103,-9.139,3.721,-5.001,59.08,23.52,-65.52
,-9.273,2.601,-4.972,-9.115,4.587,-4.867,84.21,19.18,-62.79
,-9.703,2.874,-5.42,-8.679,5.004,-5.25,83.72,14.42,-58.94
,-9.531,3.116,-5.554,-9.079,3.991,-5.276,81.06,9.73,-53.83
23625.0,-9.538,3.053,-5.339,-9.629,3.577,-4.7,52.57,-4.9,-41.3
,-9.773,2.69,-5.114,-9.404,4.231,-4.41,52.92,-7.35,-34.44
,-9.921,2.74,-4.932,-9.194,5.315,-4.403,57.68,-10.01,-27.51
,-9.842,2.998,-4.645,-9.299,5.805,-4.307,63.21,-12.81,-21.42
23700.0,-9.701,5.903,-4.073,-11.239,12.761,-3.683,37.45,-15.68,-15.26
,-9.837,5.583,-3.743,-10.388,13.975,-2.185,19.04,-13.37,-17.92
,-9.966,5.25,-2.814,-9.732,6.853,-0.919,1.47,-10.43,-19.11
,-11.397,7.035,-2.529,-9.139,-1.481,-0.318,-2.52,-9.45,-12.67
23776.0,-9.844,-5.023,-0.378,-10.407,3.257,-3.991,-25.2,-7.56,5.11
,-9.943,-4.819,-1.149,-10.51,3.683,-3.965,27.65,-3.15,9.73
,-9.801,-1.847,-2.474,-9.502,1.776,-3.482,70.35,2.03,13.79
,-10.065,1.649,-3.711,-8.693,-0.972,-3.053,75.18,7.98,10.01
23852.0,-9.11,-2.149,-2.989,-9.6,1.663,-3.821,-72.38,13.58,-15.89
,-9.591,-1.814,-2.938,-9.775,2.41,-3.936,-52.29,13.65,-15.89
,-9.667,-0.617,-3.34,-9.524,2.711,-4.47,-31.57,12.6,-14.77
,-9.899,0.5,-3.34,-9.852,2.783,-4.547,-16.66,10.22,-13.02
23928.0,-10.156,2.905,-4.805,-9.459,4.054,-5.056,-16.38,12.81,-13.23
,-10.325,2.74,-4.762,-9.682,4.903,-4.922,-27.09,12.88,-13.93
,-9.809,2.996,-5.037,-9.299,5.528,-4.884,-34.65,14.14,-12.53
,-9.404,3.029,-4.867,-9.308,4.929,-4.499,-40.95,15.96,-9.8
24004.0,-9.739,3.707,-3.888,-10.019,4.111,-4.441,-72.59,14.14,11.06
,-9.943,2.948,-4.166,-9.378,4.379,-4.791,-66.5,12.32,19.18
,-9.837,2.785,-4.477,-9.028,4.223,-4.934,-54.04,10.78,28.28
,-9.978,3.376,-4.508,-9.416,4.195,-5.066,-40.11,9.24,37.52
24079.0,-9.756,4.099,-4.759,-9.672,3.032,-4.429,-28.21,-1.26,65.73
,-9.665,4.032,-4.391,-9.923,2.393,-4.527,-32.27,-1.47,70.0
,-9.615,3.999,-4.338,-10.117,1.991,-4.472,-36.12,-1.96,73.15
,-9.457,3.695,-4.386,-10.342,2.175,-4.228,-41.09,-2.38,74.97
24155.0,-9.703,2.469,-4.149,-9.773,1.886,-3.853,-44.94,-14.14,82.74
,-8.581,2.288,-4.068,-9.591,1.788,-3.865,-44.73,-16.24,83.16
,-8.263,2.505,-4.061,-9.258,2.089,-3.707,-46.06,-16.66,80.92
,-9.095,2.285,-3.989,-9.088,2.422,-3.853,-51.59,-18.06,77.7
24230.0,-9.119,2.067,-3.515,-8.923,0.213,-2.769,-52.57,-34.16,75.46
,-9.196,1.522,-3.12,-8.677,0.132,-2.735,-55.37,-36.68,74.55
,-9.086,0.799,-2.9,-8.303,0.211,-2.745,-53.9,-38.78,74.76
,-9.115,0.335,-2.769,-8.069,0.603,-2.793,-48.58,-40.25,74.83
24306.0,-7.856,1.086,-2.525,-7.105,0.072,-1.17,-12.39,-39.69,66.71
,-7.966,1.431,-2.163,-7.04,-1.354,-0.179,-11.62,-37.52,62.93
,-7.839,1.429,-2.453,-7.368,-3.364,-0.179,-12.18,-35.49,60.9
,-7.44,0.797,-2.182,-7.2,-4.121,-1.041,-12.81,-32.9,57.12
24382.0,-7.167,-3.702,-1.12,-8.177,5.102,-5.587,88.69,-2.45,44.1
,-6.655,-2.039,-1.56,-8.2,1.721,-5.743,114.31,4.27,40.6
,-5.709,0.404,-4.192,-8.825,2.57,-4.898,140.7,17.01,38.15
,-4.556,4.661,-4.001,-9.72,2.986,-4.984,146.93,29.82,21.49
24458.0,-10.249,2.74,-4.793,-10.684,-0.318,-2.027,30.31,22.12,-45.64
,-9.485,0.926,-5.037,-10.287,1.015,-1.687,17.99,21.77,-48.23
,-10.687,-1.742,-5.592,-9.789,1.462,-2.716,32.62,18.34,-47.81
,-9.634,1.366,-6.128,-9.904,2.254,-4.413,2.52,15.4,-44.94
24533.0,-10.254,2.331,-5.631,-13.494,6.466,-3.898,23.03,3.92,-63.7
,-10.29,1.421,-5.848,-12.685,4.066,-4.054,13.58,1.47,-65.8
,-10.84,2.106,-5.506,-9.06,-0.316,-4.011,11.13,-1.68,-63.84
,-11.876,4.369,-4.58,-7.437,-1.797,-4.252,14.21,-4.76,-61.32
24609.0,-8.662,-1.759,-4.331,-9.409,0.072,-3.812,34.93,-8.12,-41.58
,-9.751,-1.639,-4.121,-9.182,0.371,-3.652,32.55,-11.06,-41.72
,-9.514,-1.486,-4.142,-9.22,1.096,-3.415,31.08,-12.32,-42.0
,-9.344,-0.433,-4.087,-9.301,1.625,-2.962,29.82,-13.09,-42.07
24685.0,-9.371,1.273,-2.625,-9.478,0.928,-2.766,44.52,-14.7,-27.86
,-9.206,1.385,-2.295,-9.586,0.656,-2.97,43.19,-13.44,-27.37
,-9.107,1.094,-2.221,-9.407,0.4,-3.408,38.85,-11.76,-27.79
,-9.234,1.012,-2.513,-9.136,0.885,-3.793,34.02,-9.87,-27.44
24761.0,-9.067,1.333,-4.231,-9.337,0.081,-3.63,16.31,-3.08,-25.2
,-9.028,1.414,-4.247,-9.174,0.426,-3.53,8.89,-2.87,-25.34
,-9.186,0.967,-4.204,-8.918,1.321,-3.656,4.41,-3.15,-24.08
,-9.442,0.337,-3.855,-8.856,1.929,-3.63,5.11,-3.43,-21.77
24837.0,-9.275,1.594,-3.245,-9.481,-1.017,-2.481,-6.79,-0.07,-21.7
,-9.438,0.194,-3.029,-9.15,-0.409,-2.637,-5.67,-0.35,-19.6
,-9.421,-0.325,-2.761,-8.949,0.349,-2.687,2.8,-0.63,-18.34
,-9.744,-0.359,-2.426,-9.459,0.553,-2.723,10.64,-0.77,-17.22
24912.0,-9.761,0.115,-2.582,-9.304,0.392,-3.673,14.49,1.4,-15.47
,-9.651,-0.347,-2.589,-9.268,0.134,-4.147,14.63,2.73,-14.0
,-9.627,-0.189,-2.893,-9.325,-0.242,-4.487,17.01,3.85,-13.16
,-9.359,0.263,-3.218,-9.464,-0.199,-4.652,16.8,4.97,-13.02
24988.0,-9.318,0.242,-4.901,-8.837,0.524,-4.807,4.41,3.01,-11.27
,-9.21,0.199,-5.044,-8.66,1.397,-4.156,-0.21,2.31,-11.41
,-9.241,-0.012,-5.018,-10.522,3.324,-2.843,-5.88,1.12,-11.69
,-9.213,-0.024,-4.925,-8.82,9.627,-4.484,-8.33,-0.28,-11.62
25063.0,-6.499,0.249,-3.573,-10.708,-0.06,-1.57,-25.83,4.55,-3.22
,-10.787,-9.072,0.225,-10.304,-1.823,-1.989,-11.9,0.91,-10.08
,-7.873,-6.636,-0.39,-9.679,-0.407,-2.355,30.31,-2.8,-15.05
,-10.469,0.493,-1.5,-9.708,0.948,-2.58,31.78,-2.59,-15.68
25139.0,-9.323,0.596,-2.434,-9.524,-0.876,-3.537,3.71,10.71,-6.79
,-9.38,0.835,-2.759,-9.474,-0.452,-4.29,2.03,11.97,-4.97
,-9.347,-0.182,-2.857,-9.098,0.139,-4.953,-0.07,12.95,-3.01
,-9.316,-1.074,-3.008,-8.825,0.847,-5.418,3.5,13.3,-1.61
25215.0,-8.842,0.704,-5.394,-8.916,0.089,-4.635,-2.52,9.73,-1.12
,-9.105,0.134,-5.205,-8.897,0.747,-4.499,-8.26,8.26,-1.33
,-9.229,-0.433,-4.905,-9.105,0.687,-4.034,-9.1,6.58,-1.12
,-9.167,-0.519,-4.695,-9.428,0.132,-3.47,-6.16,4.9,-0.84
25291.0,-9.713,-0.677,-2.838,-9.493,-0.634,-3.838,-10.5,2.1,0.91
,-9.636,-0.943,-2.663,-9.426,-0.553,-4.31,-3.57,2.52,2.45
,-9.49,-0.727,-2.745,-9.6,-0.421,-4.518,2.03,3.43,3.36
,-9.502,-0.668,-3.281,-9.548,-0.211,-4.628,2.24,4.06,4.27
25366.0,-9.375,-0.067,-4.547,-9.036,0.424,-4.326,-6.02,1.12,7.35
,-9.129,0.225,-4.659,-9.043,0.194,-4.147,-5.53,0.21,7.77
,-8.969,0.479,-4.659,-9.119,0.275,-3.836,-6.72,-0.77,7.7
,-8.993,0.72,-4.681,-9.079,0.354,-3.503,-9.45,-1.75,7.35
25442.0,-9.1,0.151,-3.336,-9.122,0.558,-3.659,-21.49,-3.36,5.46
,-9.124,-0.17,-3.245,-9.1,1.182,-3.63,-23.87,-3.15,5.32
,-9.227,-0.598,-3.223,-9.189,0.84,-3.601,-23.94,-3.29,5.67
,-9.416,-0.431,-3.379,-9.131,0.299,-3.431,-19.74,-3.71,6.65
25518.0,-9.253,-0.196,-3.266,-9.397,-0.366,-4.221,-16.94,-2.52,9.31
,-9.457,-0.227,-3.408,-9.258,-0.105,-4.535,-11.9,-2.59,10.78
,-9.43,-0.299,-3.518,-9.289,-0.369,-4.702,-9.66,-2.8,12.32
,-9.476,-0.629,-3.766,-9.232,-0.026,-4.987,-8.75,-3.29,13.58
25594.0,-9.186,0.524,-5.02,-9.294,0.22,-5.023,-15.61,-8.68,16.38
,-9.43,0.163,-4.915,-9.277,-0.089,-4.748,-20.51,-10.43,17.22
,-9.433,-0.311,-4.855,-9.313,0.057,-4.496,-22.12,-12.32,19.53
,-9.395,-0.151,-4.917,-9.155,0.189,-4.149,-20.02,-14.35,21.42
25669.0,-9.081,-0.072,-3.695,-9.414,0.158,-1.876,-25.48,-22.96,28.63
,-9.466,-0.069,-3.508,-9.277,0.285,-1.259,-22.4,-23.94,30.87
,-9.349,0.081,-3.216,-9.229,0.45,-0.57,-18.13,-24.5,32.97
,-9.244,0.203,-2.704,-9.311,0.957,-0.287,-16.94,-24.64,33.81
25745.0,-9.294,1.134,-0.053,-9.684,1.067,-0.536,3.01,-16.45,39.13
,-9.476,1.491,-0.117,-9.517,1.031,-0.651,3.99,-12.81,39.55
,-9.5,1.498,-0.371,-9.646,0.648,-0.546,3.64,-9.03,40.53
,-9.605,1.079,-0.414,-9.698,0.148,-0.732,3.15,-5.53,41.44
25821.0,-9.95,0.148,-0.972,-9.722,1.225,-2.682,5.32,9.1,48.51
,-10.163,0.493,-1.371,-9.823,1.665,-3.063,7.98,10.92,49.77
,-10.005,0.471,-1.735,-9.691,2.302,-3.262,9.17,12.18,51.59
,-9.768,0.577,-2.161,-9.871,2.977,-3.654,10.99,13.16,52.99
25897.0,-10.021,3.522,-3.439,-11.35,2.486,-3.702,6.51,14.28,52.36
,-10.694,3.769,-4.171,-11.082,2.424,-3.836,-0.28,14.07,50.4
,-11.192,3.563,-4.082,-10.828,2.087,-4.054,-8.12,13.58,48.72
,-11.371,2.828,-3.735,-10.416,1.522,-4.314,-13.16,13.09,47.53
25973.0,-10.306,0.995,-4.611,-9.825,1.63,-5.111,-16.8,4.9,37.31
,-10.256,0.297,-4.757,-8.873,1.632,-4.767,-14.98,1.12,33.95
,-10.079,0.191,-4.898,-8.124,0.983,-3.441,-10.78,-2.8,29.89
,-9.775,0.766,-5.032,-7.023,0.29,-2.015,-8.68,-6.86,24.57
26048.0,-6.119,0.682,-1.244,-8.768,-4.073,-4.714,-23.8,-16.17,-8.82
,-5.181,0.785,-0.627,-7.516,-3.506,-4.36,-26.67,-6.02,-18.69
,-6.834,-1.96,-2.517,-6.877,-1.539,-4.063,-34.65,8.47,-26.74
,-8.392,-4.018,-4.834,-7.047,0.328,-4.118,-31.85,18.9,-32.76
26124.0,-7.849,1.249,-3.161,-8.189,-0.4,-3.929,52.15,29.05,-70.56
,-8.531,1.12,-3.369,-7.966,-0.213,-4.702,40.39,34.51,-78.26
,-8.332,0.447,-3.738,-7.935,-0.251,-5.049,31.08,38.36,-82.81
,-8.32,-0.187,-3.587,-8.71,-0.5,-5.154,29.19,40.04,-87.15
26199.0,-9.057,-1.24,-5.013,-7.667,5.293,-7.121,45.78,38.5,-95.2
,-9.698,-1.314,-4.853,-8.081,5.724,-6.667,57.12,32.41,-89.81
,-8.66,0.79,-6.327,-8.725,4.803,-5.803,81.2,27.93,-85.68
,-7.944,3.453,-7.131,-8.559,4.037,-5.726,95.97,26.11,-85.68
26275.0,-8.94,3.211,-5.341,-9.476,3.147,-4.307,21.14,5.74,-92.82
,-9.421,3.384,-4.927,-10.136,2.962,-4.137,21.91,2.38,-89.18
,-9.521,3.427,-4.645,-10.445,2.857,-4.046,22.61,-0.35,-83.3
,-9.287,3.379,-4.535,-10.306,3.163,-4.243,21.77,-2.24,-75.25
26351.0,-10.323,3.472,-3.951,-10.636,3.398,-3.216,51.87,-18.34,-37.66
,-10.352,3.472,-3.745,-10.249,3.984,-3.063,57.33,-19.74,-31.36
,-10.266,3.23,-3.307,-9.665,4.769,-3.35,60.06,-20.09,-24.99
,-10.818,3.001,-3.037,-9.332,5.353,-3.149,62.09,-20.65,-19.32
26427.0,-10.22,5.348,-2.333,-8.287,9.969,-2.264,22.4,-13.79,-9.03
,-13.082,6.913,-1.149,-10.352,4.386,-0.66,17.5,-14.77,-0.56
,-11.859,12.663,-3.68,-11.551,-0.794,0.589,31.85,-13.86,22.54
,-10.086,14.937,-2.568,-11.553,-2.998,1.07,16.38,-8.47,38.78
26502.0,-10.921,-1.441,-0.129,-9.069,2.032,-1.472,30.52,2.66,17.22
,-10.79,0.811,-1.56,-9.818,0.089,-1.613,40.46,10.92,15.89
,-12.185,2.431,-1.539,-10.251,0.658,-2.357,28.35,18.41,12.6
,-8.894,3.625,-1.838,-10.464,2.151,-2.577,5.74,22.54,7.91
26578.0,-9.933,3.685,-3.762,-10.239,3.388,-4.946,2.31,35.56,-6.23
,-10.091,4.125,-4.621,-9.866,2.417,-4.891,-7.49,37.1,-4.62
,-9.962,4.941,-5.413,-9.617,2.376,-4.762,-17.85,37.66,-2.59
,-10.4,4.48,-5.262,-9.131,3.111,-4.97,-31.85,33.81,-0.49
26653.0,-9.06,3.776,-5.011,-9.229,4.379,-4.47,-20.58,6.3,24.85
,-9.648,4.259,-4.683,-9.366,4.41,-4.661,-24.5,1.68,31.15
,-9.471,4.666,-4.905,-9.794,3.991,-4.434,-31.71,-1.96,38.29
,-9.15,4.513,-4.537,-10.062,3.537,-4.267,-39.48,-3.78,43.75
26729.0,-9.686,3.477,-4.496,-9.213,4.357,-5.257,-50.89,-13.23,60.13
,-9.61,3.764,-4.609,-9.574,2.996,-4.841,-47.6,-12.46,63.42
,-9.292,4.922,-5.047,-10.014,1.883,-4.666,-45.36,-11.06,64.61
,-9.289,5.092,-4.984,-10.01,1.285,-4.647,-52.08,-9.94,63.98
26805.0,-9.663,1.302,-4.891,-8.684,0.981,-3.941,-65.8,-13.51,77.63
,-9.45,1.345,-4.606,-9.0,1.381,-3.795,-56.35,-16.45,80.36
,-9.028,1.225,-4.372,-8.892,2.197,-3.778,-50.61,-20.79,82.25
,-8.466,0.974,-4.221,-8.646,2.01,-3.664,-45.22,-23.24,83.79
26881.0,-8.449,1.663,-3.759,-8.241,-0.184,-3.101,-29.89,-21.07,78.19
,-8.217,1.371,-3.537,-8.098,-0.847,-2.96,-31.71,-19.32,73.85
,-8.181,1.177,-3.187,-7.765,-1.407,-3.099,-33.95,-16.8,69.58
,-8.253,0.711,-3.223,-7.365,-2.024,-2.903,-34.65,-14.63,66.64
26957.0,-7.026,-2.127,-2.575,-7.341,-1.292,-3.51,34.02,-11.06,61.81
,-7.657,-1.89,-2.51,-6.564,-0.318,-4.508,52.15,-8.54,60.13
,-7.475,-1.864,-3.094,-5.552,1.515,-4.31,72.24,-7.07,60.62
,-7.181,-1.488,-3.417,-7.385,2.491,-4.472,88.06,-5.88,58.17
27032.0,-7.045,0.849,-4.518,-9.016,2.245,-3.405,97.93,15.4,27.72
,-7.04,1.352,-4.815,-8.885,0.933,-3.238,102.97,14.14,16.66
,-8.32,3.783,-4.817,-9.062,0.34,-3.805,95.48,10.92,0.14
,-9.983,3.831,-4.422,-10.469,-1.139,-4.688,71.4,5.67,-11.2
27108.0,-10.211,1.785,-5.406,-10.316,2.161,-5.456,51.52,0.42,-42.63
,-9.804,3.757,-5.456,-10.124,2.493,-5.205,40.67,-0.7,-48.72
,-9.651,3.317,-5.511,-10.215,2.84,-4.812,19.32,-1.47,-52.43
,-10.127,2.34,-5.834,-10.44,1.922,-4.424,5.04,-2.8,-56.98
27184.0,-10.699,0.849,-4.147,-10.182,4.582,-3.963,-11.06,-10.22,-61.53
,-10.617,0.541,-3.903,-9.428,2.608,-3.673,2.59,-13.23,-55.16
,-10.818,2.113,-3.953,-8.906,-0.007,-3.352,21.98,-15.75,-48.09
,-10.747,4.322,-4.078,-9.237,-1.503,-3.209,35.35,-16.24,-43.26
27260.0,-9.591,-1.835,-3.235,-9.44,1.527,-3.534,0.77,-10.85,-43.75
,-9.397,-2.027,-3.065,-9.232,1.438,-3.58,5.04,-11.62,-42.14
,-9.485,-0.945,-3.235,-8.89,1.218,-3.355,12.18,-12.46,-38.85
,-9.481,0.876,-3.532,-9.244,0.665,-3.151,16.87,-12.11,-35.63
27335.0,-9.813,-0.007,-3.089,-9.383,0.589,-2.974,-8.54,-6.93,-29.68
,-9.71,-0.787,-3.049,-9.543,0.512,-2.721,-3.99,-7.14,-26.81
,-9.273,-0.416,-3.204,-9.44,-0.12,-2.556,3.15,-7.14,-25.2
,-9.217,0.148,-3.166,-9.572,-0.189,-2.498,6.09,-7.35,-23.66
27411.0,-9.44,0.404,-2.778,-9.524,0.057,-2.905,16.94,-6.72,-16.45
,-9.373,1.113,-3.056,-9.485,-0.601,-2.828,20.37,-6.02,-16.24
,-9.423,1.409,-3.111,-9.206,-0.412,-3.037,17.15,-4.97,-15.96
,-9.342,0.67,-3.008,-9.342,0.163,-3.029,12.67,-4.27,-15.47
27486.0,-9.407,0.084,-3.168,-9.021,1.673,-4.07,29.61,-4.48,-10.08
,-9.763,0.146,-3.355,-9.028,1.352,-3.97,28.28,-4.55,-9.52
,-9.471,0.44,-3.506,-9.32,0.964,-3.733,27.72,-4.41,-9.45
,-9.088,1.196,-3.821,-9.493,0.376,-3.546,25.76,-4.06,-10.43
27562.0,-9.395,0.045,-3.295,-9.686,0.416,-2.175,10.29,-4.55,-9.31
,-9.552,0.163,-3.029,-9.761,-0.034,-1.855,9.8,-4.62,-9.17
,-9.217,0.613,-2.927,-9.722,-0.543,-1.799,9.24,-4.41,-9.1
,-9.232,0.682,-2.517,-9.675,-0.773,-1.905,6.79,-3.71,-9.24
27638.0,-9.569,-0.199,-2.316,-9.715,-0.172,-3.202,17.5,1.82,-5.18
,-8.985,1.0,-2.828,-9.61,-0.73,-3.424,20.65,2.59,-5.6
,-9.083,1.409,-3.082,-9.488,-0.426,-3.912,16.45,3.57,-6.37
,-9.524,0.873,-3.173,-9.263,0.747,-4.219,10.78,4.48,-5.81
27714.0,-8.691,0.972,-4.403,-9.311,0.871,-3.553,-0.21,3.43,-7.07
,-9.129,1.108,-4.401,-9.459,-0.168,-3.209,-5.74,3.01,-7.42
,-9.048,1.517,-4.353,-9.77,-0.876,-2.917,-5.81,2.45,-6.51
,-9.347,1.644,-3.967,-9.859,-1.799,-2.663,-6.23,2.8,-6.23
27790.0,-9.732,-1.524,-2.541,-9.66,-0.132,-2.862,4.41,2.45,0.0
,-9.414,-0.493,-2.659,-9.691,-0.292,-3.053,8.96,2.66,0.84
,-9.294,-0.005,-2.793,-9.466,-0.337,-3.175,8.54,3.01,1.4
,-9.481,0.096,-2.879,-9.517,-0.182,-3.324,6.65,3.64,2.31
27865.0,-9.464,0.002,-3.453,-9.452,-0.007,-3.123,6.02,6.02,6.79
,-9.39,0.163,-3.436,-9.136,0.223,-2.996,2.73,6.23,6.86
,-9.418,0.031,-3.185,-9.21,0.409,-3.101,-0.14,6.72,7.07
,-9.655,-0.024,-3.039,-9.301,0.371,-3.223,-1.26,6.58,7.56
27941.0,-9.426,0.287,-3.312,-9.258,0.364,-3.594,0.56,7.0,9.66
,-9.318,0.383,-3.484,-9.256,0.598,-3.551,0.35,7.14,9.8
,-9.203,0.562,-3.623,-9.232,0.455,-3.465,-1.54,7.42,9.66
,-9.306,0.34,-3.486,-9.27,0.098,-3.412,-3.64,7.35,9.8
28017.0,-9.428,-0.115,-3.508,-9.27,0.034,-3.745,-1.68,6.79,12.67
,-9.354,0.11,-3.747,-9.421,-0.165,-3.618,0.84,6.72,13.37
,-9.277,0.199,-3.862,-9.531,-0.014,-3.769,0.42,6.44,13.86
,-9.373,0.06,-3.833,-9.213,0.151,-3.853,-0.56,6.09,14.84
28093.0,-9.162,0.254,-3.838,-9.452,0.503,-3.362,0.42,4.55,20.02
,-9.067,0.414,-3.752,-9.239,0.682,-3.422,-1.4,4.62,20.58
,-9.129,0.562,-3.589,-9.06,0.732,-3.419,-3.43,4.76,20.72
,-9.399,0.61,-3.355,-9.296,0.641,-3.494,-6.37,5.11,21.14
28168.0,-9.186,0.833,-3.68,-9.165,0.842,-3.35,-20.3,8.19,24.29
,-9.076,1.05,-3.649,-9.313,0.849,-3.362,-23.8,8.96,24.64
,-9.165,1.153,-3.656,-9.392,0.713,-3.226,-28.07,9.38,25.06
,-9.134,1.177,-3.52,-9.337,0.333,-3.175,-31.78,9.8,26.04
28244.0,-9.591,0.27,-3.125,-9.495,0.699,-3.19,-29.12,10.64,32.2
,-9.505,0.091,-2.919,-9.404,0.457,-3.245,-26.88,10.85,34.16
,-9.426,0.333,-3.025,-9.471,0.29,-3.209,-22.61,10.92,36.26
,-9.368,0.459,-3.113,-9.703,0.392,-2.938,-19.53,11.27,37.66
28319.0,-9.718,0.457,-3.037,-9.617,1.685,-5.111,-9.52,11.41,47.25
,-9.574,0.833,-3.343,-9.876,2.455,-5.358,-8.12,11.9,48.58
,-9.5,1.39,-3.999,-10.024,3.053,-5.24,-9.8,12.11,48.86
,-9.598,1.462,-4.697,-10.402,2.95,-4.7,-14.0,11.9,49.49
28395.0,-10.936,1.496,-4.123,-10.462,3.245,-3.927,-36.33,5.74,48.51
,-11.218,1.35,-3.798,-10.349,2.809,-3.905,-31.78,3.99,50.05
,-10.945,2.249,-3.764,-10.077,1.785,-3.877,-23.66,2.8,51.31
,-10.656,3.137,-3.994,-9.99,1.225,-3.843,-21.49,2.45,51.17
28471.0,-9.605,0.249,-3.637,-9.21,2.539,-4.085,-37.73,-1.12,38.71
,-9.514,0.565,-3.807,-8.792,2.35,-4.082,-29.12,-3.57,36.61
,-9.426,1.759,-3.967,-8.397,2.391,-4.022,-24.36,-5.6,32.97
,-9.397,2.508,-3.944,-7.514,2.737,-3.68,-27.23,-7.07,27.3
28547.0,-7.045,3.142,-2.97,-7.176,-0.261,-1.34,-58.59,-11.13,-4.48
,-6.559,3.479,-2.577,-7.126,-0.357,-1.744,-69.3,-9.8,-10.85
,-7.255,2.58,-2.099,-7.672,-0.246,-2.221,-92.75,-7.42,-16.73
,-7.669,0.45,-1.338,-7.597,-0.866,-2.867,-104.65,-5.25,-22.4
28623.0,-7.767,-1.369,-3.321,-8.184,0.981,-3.783,-10.64,16.87,-52.15
,-8.145,-2.022,-3.752,-8.466,2.781,-3.149,9.03,16.03,-58.45
,-7.901,-2.134,-4.087,-8.729,3.57,-2.675,30.59,13.79,-63.21
,-7.796,-0.938,-4.207,-8.746,3.343,-2.843,48.72,11.41,-67.9
28698.0,-8.705,2.0,-2.647,-9.469,0.285,-3.525,0.84,19.53,-92.26
,-9.014,0.132,-2.022,-9.27,0.857,-3.714,-9.94,22.4,-93.59
,-9.115,-0.706,-2.161,-8.983,2.209,-4.336,-2.1,23.45,-91.7
,-9.359,-0.333,-2.63,-8.744,3.386,-4.855,16.59,25.34,-87.99
28774.0,-8.82,3.929,-5.159,-9.844,-0.591,-4.408,71.82,24.99,-89.46
,-9.203,2.498,-4.666,-10.156,0.261,-4.838,60.55,22.96,-90.09
,-9.112,0.945,-4.812,-10.043,1.017,-4.975,55.93,19.53,-85.68
,-9.478,-0.488,-4.434,-9.206,3.381,-5.528,62.93,17.78,-76.37
28850.0,-8.378,6.231,-6.506,-9.464,3.903,-5.468,148.54,-1.12,-42.07
,-8.763,6.947,-6.454,-8.914,3.417,-5.307,134.26,-3.85,-46.76
,-9.464,6.348,-5.987,-9.028,3.281,-4.685,106.82,-7.35,-49.91
,-9.971,5.032,-5.508,-9.296,3.185,-4.367,82.6,-10.36,-49.77
28926.0,-9.186,3.35,-4.561,-9.131,4.944,-3.948,42.28,-17.99,-32.83
,-9.083,3.348,-4.381,-9.184,4.846,-3.707,40.18,-19.74,-27.51
,-9.064,3.654,-4.307,-9.282,4.307,-3.329,40.46,-20.51,-22.82
,-9.146,4.446,-4.29,-9.103,3.75,-2.955,41.37,-20.72,-18.83
29001.0,-9.103,3.879,-3.005,-11.531,13.317,-3.364,11.55,-18.76,-8.89
,-10.153,4.362,-2.984,-10.828,5.994,-2.472,6.93,-17.22,-8.05
,-11.634,7.286,-3.565,-10.354,-1.838,-1.646,9.38,-16.03,-2.94
,-11.687,12.544,-4.089,-10.718,-5.185,-1.089,9.38,-12.88,4.27
29077.0,-10.912,-4.413,-0.938,-9.914,5.461,-3.017,3.22,0.63,5.04
,-10.522,-1.376,-1.582,-10.94,2.534,-2.314,45.57,0.14,11.48
,-10.122,1.907,-2.527,-9.567,0.849,-2.608,61.46,1.82,12.11
,-9.502,4.697,-3.005,-9.428,1.455,-3.192,44.24,6.02,5.25
29152.0,-9.792,2.331,-3.618,-9.921,3.522,-4.35,-31.22,25.27,-10.85
,-9.454,3.331,-4.212,-9.631,2.316,-3.764,-33.95,28.07,-14.63
,-9.799,4.161,-4.434,-9.596,2.316,-3.714,-43.82,30.38,-15.33
,-10.065,4.511,-4.649,-9.33,3.139,-4.212,-56.77,31.08,-11.69
29228.0,-9.55,3.427,-4.106,-9.495,2.989,-4.195,-41.58,21.07,21.77
,-9.684,3.056,-3.743,-9.481,3.604,-4.18,-34.16,14.7,27.86
,-9.311,2.496,-3.845,-9.418,4.178,-4.369,-25.9,9.24,34.79
,-9.225,2.522,-4.19,-9.545,4.334,-4.35,-17.01,6.02,41.37
29304.0,-9.6,4.264,-4.48,-9.969,3.561,-4.312,-24.78,-2.1,58.52
,-9.564,3.814,-4.396,-10.062,3.367,-3.982,-34.93,-2.8,59.71
,-9.646,3.467,-4.209,-9.32,2.864,-3.79,-42.07,-3.57,61.11
,-9.777,3.379,-4.31,-8.82,2.302,-3.754,-45.22,-4.62,63.07
29380.0,-9.316,1.804,-3.96,-9.052,2.106,-4.331,-48.02,-14.7,74.41
,-10.124,1.362,-3.69,-8.959,2.776,-3.812,-44.45,-15.82,76.86
,-10.184,1.196,-3.953,-9.476,2.233,-3.369,-35.7,-17.92,80.85
,-9.715,1.137,-4.044,-9.481,1.469,-3.238,-24.08,-20.23,85.19
29455.0,-9.332,0.378,-2.659,-8.028,2.539,-2.929,-18.27,-24.43,86.94
,-9.079,-0.168,-2.261,-7.626,2.79,-3.046,-8.4,-24.78,89.25
,-8.849,0.462,-3.24,-7.763,2.51,-2.68,10.64,-25.48,91.63
,-8.208,1.517,-2.86,-8.107,1.871,-3.139,24.43,-24.01,91.63
29531.0,-8.122,1.094,-2.979,-7.009,2.381,-2.434,10.5,-11.34,75.18
,-8.078,0.601,-2.647,-6.834,2.094,-2.455,10.36,-9.1,72.03
,-7.574,0.78,-2.548,-6.762,0.759,-2.441,13.23,-6.79,67.83
,-7.365,1.531,-2.436,-6.688,-0.5,-2.273,12.81,-3.5,60.41
29607.0,-6.906,-1.508,-2.175,-8.574,-3.668,-3.12,-7.98,15.12,23.59
,-6.59,-1.728,-2.998,-8.155,-3.003,-3.345,14.14,20.51,21.84
,-4.913,0.558,-3.848,-9.239,1.151,-3.57,40.88,30.8,17.71
,-8.11,0.739,-3.403,-10.06,4.3,-3.965,39.2,34.79,6.02
29683.0,-8.875,4.81,-4.558,-10.646,1.697,-5.066,36.12,16.87,-30.66
,-9.861,0.639,-4.508,-10.325,2.886,-5.056,5.88,17.36,-41.02
,-9.993,-2.393,-4.704,-10.132,2.848,-5.461,15.4,16.24,-47.32
,-10.888,-1.192,-4.917,-10.287,2.965,-5.997,40.88,13.58,-48.86
29759.0,-10.364,3.147,-6.159,-14.719,7.174,-4.8,27.23,1.82,-57.19
,-10.639,3.807,-6.224,-10.498,0.682,-4.446,21.28,-0.84,-59.01
,-11.615,5.104,-5.537,-6.844,-2.412,-4.726,14.14,-3.64,-59.99
,-13.92,7.385,-4.336,-7.66,-2.237,-4.822,9.17,-4.9,-59.78
29834.0,-9.174,-1.936,-4.764,-9.177,0.833,-4.331,22.47,-9.87,-43.75
,-9.43,-1.309,-4.664,-9.036,0.081,-3.989,20.44,-11.13,-44.87
,-9.213,-0.445,-4.465,-9.182,0.641,-3.991,14.0,-11.2,-46.2
,-9.217,0.383,-4.326,-9.17,1.196,-3.872,6.44,-12.11,-46.06
29910.0,-9.234,1.151,-3.558,-9.478,-0.103,-2.508,22.96,-16.31,-31.01
,-9.052,0.617,-3.175,-9.466,0.05,-2.62,19.6,-15.82,-30.45
,-9.311,0.373,-2.807,-9.234,0.847,-2.642,16.24,-15.4,-30.17
,-9.471,0.074,-2.558,-9.146,0.981,-2.611,13.72,-14.49,-29.05
29985.0,-9.284,0.931,-2.529,-9.337,0.84,-3.352,20.37,-8.75,-20.72
,-9.337,0.814,-2.67,-9.275,0.677,-3.422,20.58,-7.63,-19.39
,-9.337,0.802,-2.982,-9.28,0.67,-3.508,21.07,-6.16,-18.62
,-9.213,0.974,-3.221,-9.289,0.761,-3.714,19.46,-4.83,-18.34
30061.0,-9.22,0.613,-3.664,-9.45,0.44,-2.931,12.46,-3.15,-15.68
,-9.414,0.124,-3.47,-9.608,-0.184,-2.702,13.58,-3.78,-14.14
,-9.139,-0.112,-3.448,-9.622,-0.05,-2.458,20.51,-4.97,-12.04
,-8.947,0.323,-3.29,-9.445,-0.017,-2.407,27.23,-5.11,-10.99
30137.0,-9.617,-0.017,-2.393,-9.206,0.651,-3.944,30.38,-1.47,-8.4
,-9.655,-0.024,-2.761,-9.079,1.125,-4.271,29.05,-0.84,-8.61
,-9.483,0.27,-3.187,-9.174,1.072,-4.255,28.07,0.0,-8.68
,-9.258,0.246,-3.577,-9.153,0.909,-4.161,27.51,0.35,-8.4
30213.0,-9.165,0.823,-3.941,-8.921,1.515,-4.078,17.15,-0.98,-8.05
,-9.313,0.648,-3.766,-8.787,1.598,-3.996,14.28,-1.12,-8.4
,-9.249,0.488,-3.664,-9.308,0.845,-3.843,11.2,-0.91,-8.68
,-9.368,0.534,-3.635,-9.481,0.002,-3.704,8.33,-0.63,-9.38
30288.0,-8.957,1.072,-3.783,-8.05,-3.501,-2.044,-3.5,0.14,-13.16
,-7.571,3.881,-3.86,-10.033,-5.176,-1.74,0.0,1.47,-14.91
,-10.325,3.482,-3.74,-9.876,-2.938,-2.673,-16.8,0.28,-12.88
,-9.005,1.486,-2.991,-9.177,0.244,-3.601,-22.26,1.05,-6.72
30364.0,-9.892,0.345,-3.731,-9.275,0.101,-3.393,-12.81,2.66,-15.33
,-10.27,-0.117,-3.855,-9.098,-0.251,-3.372,-22.54,4.34,-13.93
,-9.943,-0.39,-3.664,-9.354,-1.12,-3.465,-19.46,5.6,-10.15
,-9.49,-0.115,-3.544,-9.533,-1.426,-3.568,-11.06,6.02,-6.44
30440.0,-9.351,-0.715,-3.96,-9.313,-0.225,-4.145,-3.22,2.66,0.42
,-9.052,0.191,-4.353,-9.119,-0.057,-4.145,-3.99,2.17,0.07
,-9.17,0.34,-4.226,-9.203,0.115,-4.123,-9.66,1.4,-0.91
,-9.447,-0.086,-4.128,-9.409,0.45,-4.243,-13.37,0.35,-0.21
30516.0,-9.335,0.455,-4.233,-9.375,-0.012,-3.525,-6.23,-3.78,4.34
,-9.275,0.151,-4.061,-9.512,0.045,-3.427,-10.78,-4.48,3.99
,-9.328,-0.038,-3.908,-9.361,0.024,-3.25,-12.88,-5.32,4.27
,-9.237,-0.026,-3.793,-9.399,-0.048,-3.101,-12.46,-5.81,4.69
30592.0,-9.524,-0.132,-3.063,-9.411,0.103,-2.783,-7.49,-7.0,7.21
,-9.378,-0.101,-2.953,-9.471,0.438,-2.874,-6.16,-7.0,7.91
,-9.395,-0.249,-2.788,-9.356,0.648,-2.883,-5.18,-6.93,8.61
,-9.514,-0.282,-2.73,-9.306,0.56,-2.735,-3.43,-6.72,9.45
30667.0,-9.38,0.412,-2.584,-9.502,0.33,-2.345,-5.88,-3.15,10.57
,-9.284,0.325,-2.419,-9.435,0.225,-2.627,-5.25,-2.24,10.78
,-9.469,0.168,-2.316,-9.399,0.053,-2.773,-4.83,-1.26,11.2
,-9.548,0.194,-2.245,-9.466,0.395,-3.005,-3.57,-0.28,11.76
30743.0,-9.213,0.806,-3.228,-9.576,0.01,-2.948,-3.92,3.5,12.81
,-9.265,0.586,-3.187,-9.605,0.263,-2.974,-6.58,3.78,12.95
,-9.399,0.467,-3.151,-9.359,0.404,-3.044,-7.63,3.92,13.86
,-9.44,0.136,-3.029,-9.316,0.555,-2.857,-7.49,4.06,14.84
30818.0,-9.509,0.5,-2.783,-9.653,0.215,-2.115,-10.22,6.16,18.41
,-9.567,0.129,-2.422,-9.593,0.39,-2.216,-13.3,7.28,19.04
,-9.706,-0.074,-2.216,-9.351,0.419,-2.386,-13.65,8.33,20.02
,-9.497,-0.11,-2.101,-9.38,0.431,-2.659,-11.62,9.52,21.07
30894.0,-9.299,0.751,-3.113,-9.095,0.895,-3.817,-8.89,15.82,24.78
,-9.287,0.962,-3.405,-9.143,0.933,-3.903,-9.94,16.17,25.27
,-9.325,0.775,-3.609,-9.103,0.955,-3.965,-10.78,16.1,26.6
,-9.153,0.864,-3.762,-9.067,0.756,-3.798,-9.17,15.68,28.28
30970.0,-9.213,0.632,-3.898,-9.136,0.787,-4.257,-4.34,13.09,33.81
,-9.203,0.378,-3.841,-9.158,0.869,-4.216,-3.85,12.46,35.0
,-9.311,0.323,-3.81,-9.174,0.591,-4.137,-1.82,11.41,36.47
,-9.239,0.38,-3.999,-9.194,0.572,-4.08,1.47,10.29,38.57
31046.0,-9.232,0.57,-4.03,-9.184,1.931,-3.963,0.14,7.56,45.5
,-9.488,0.55,-3.831,-9.17,2.388,-4.152,0.49,6.72,46.97
,-9.206,0.823,-3.79,-9.122,2.58,-4.436,2.73,5.95,48.86
,-9.139,1.328,-3.855,-9.552,2.45,-4.702,5.74,5.53,50.26
31121.0,-9.825,2.292,-4.91,-11.196,2.819,-4.066,-14.84,4.62,50.75
,-10.11,2.525,-4.965,-11.4,2.666,-3.553,-17.99,4.06,50.19
,-10.531,3.163,-5.037,-11.479,2.254,-2.948,-23.24,3.36,48.65
,-10.873,3.082,-4.477,-11.297,2.089,-2.596,-31.29,2.59,46.76
31197.0,-11.096,2.271,-2.414,-9.552,2.857,-3.984,-42.21,0.98,38.99
,-10.974,2.106,-2.359,-9.32,2.608,-4.714,-43.61,0.84,36.82
,-10.68,2.261,-2.73,-8.995,2.364,-5.444,-44.8,0.77,34.16
,-10.081,2.685,-3.218,-8.871,1.383,-5.449,-46.83,0.77,30.03
31272.0,-8.368,0.842,-5.02,-7.038,-2.17,-2.027,-91.98,-9.52,1.33
,-8.124,0.692,-4.652,-6.583,-0.833,-2.228,-96.11,-12.18,-3.01
,-7.712,-0.514,-3.08,-7.282,0.022,-3.668,-95.9,-15.61,-7.07
,-8.081,-2.785,-1.866,-6.817,1.187,-4.647,-92.82,-17.99,-11.06
31348.0,-7.789,1.799,-4.384,-8.062,-0.072,-1.201,-14.35,2.94,-49.7
,-7.586,0.17,-3.264,-8.423,0.799,-1.137,-13.3,3.08,-57.33
,-7.571,-1.335,-1.893,-7.983,1.61,-1.62,-4.48,3.5,-65.73
,-7.894,-1.161,-1.46,-7.54,1.374,-2.204,12.46,5.81,-72.94
31424.0,-7.801,0.383,-2.158,-9.294,-0.998,-2.9,19.18,30.45,-89.32
,-8.591,0.345,-2.197,-8.961,0.11,-3.999,15.82,34.09,-88.2
,-9.189,0.294,-2.166,-8.528,2.637,-5.272,19.04,36.12,-85.4
,-9.497,0.05,-2.477,-8.552,4.42,-5.398,26.46,37.24,-81.83
31500.0,-8.54,5.157,-5.506,-9.615,0.069,-4.637,71.47,39.69,-88.06
,-8.655,3.687,-5.185,-10.127,-0.491,-4.36,53.2,38.43,-90.72
,-8.952,2.553,-4.834,-10.538,-0.313,-4.527,35.49,33.25,-87.29
,-9.581,0.79,-4.269,-10.407,0.438,-4.752,31.85,27.37,-81.27
31576.0,-10.239,1.598,-4.989,-8.792,6.315,-6.08,110.39,5.88,-46.41
,-9.677,3.522,-5.767,-9.019,5.188,-5.166,122.99,1.47,-42.07
,-9.038,5.245,-6.324,-9.234,3.558,-4.678,126.0,-2.24,-42.07
,-8.813,6.298,-6.435,-9.495,2.515,-4.8,117.25,-6.44,-46.06
31651.0,-9.617,2.654,-5.264,-8.67,5.183,-4.757,48.72,-20.86,-33.67
,-9.067,3.537,-5.449,-8.947,4.616,-4.243,50.68,-25.13,-25.41
,-8.397,4.556,-5.24,-9.552,4.7,-3.762,48.86,-29.75,-19.95
,-8.435,5.262,-5.245,-10.414,5.145,-2.726,41.79,-35.7,-16.59
31727.0,-10.802,5.748,-0.773,-10.208,9.081,-2.589,1.05,-42.21,-8.05
,-12.881,8.519,0.933,-8.94,5.858,-1.721,8.68,-36.89,-2.24
,-15.327,10.969,-1.012,-9.682,-0.12,-0.878,20.93,-21.28,7.42
,-14.621,10.237,-2.845,-9.495,-3.656,-0.811,16.38,1.68,14.14
31803.0,-9.289,-2.489,-1.505,-9.079,-0.459,-3.597,22.96,0.07,24.71
,-9.031,0.089,-2.374,-9.524,-1.967,-2.984,39.13,6.58,22.61
,-8.263,0.749,-3.398,-9.304,-2.943,-2.735,24.57,10.5,15.75
,-8.698,0.61,-3.862,-9.038,-2.347,-2.726,-4.48,11.55,6.72
31879.0,-9.538,-0.761,-2.501,-10.141,1.371,-2.446,-15.61,8.89,-7.7
,-9.457,0.522,-2.498,-10.481,1.137,-2.62,-10.5,9.52,-8.26
,-9.067,0.995,-2.484,-10.581,0.974,-3.104,-11.13,11.83,-9.66
,-9.474,1.283,-2.345,-10.388,1.297,-3.544,-11.27,14.56,-11.41
31954.0,-10.153,2.027,-4.128,-9.744,4.745,-5.049,-7.7,13.37,-10.5
,-10.897,2.58,-4.302,-9.464,4.671,-5.248,-13.37,13.37,-9.59
,-9.524,3.422,-4.69,-9.201,4.207,-5.075,-18.06,12.88,-9.38
,-9.73,4.322,-4.884,-9.414,4.149,-4.532,-28.35,11.2,-9.8
32030.0,-9.758,4.168,-3.898,-9.299,2.29,-3.02,-99.89,7.7,-12.18
,-9.658,3.788,-3.448,-9.335,2.288,-3.118,-107.17,7.84,-7.63
,-9.445,3.106,-3.238,-9.603,2.699,-3.319,-109.97,7.0,-3.29
,-9.203,2.606,-3.092,-9.88,2.998,-3.537,-107.38,4.97,0.77
32105.0,-9.864,3.216,-3.855,-10.065,1.974,-3.297,-67.2,-5.25,30.31
,-10.045,3.128,-3.821,-10.28,1.127,-3.254,-63.98,-6.09,34.09
,-10.062,3.273,-3.721,-10.246,1.397,-3.556,-61.25,-6.72,37.52
,-10.048,2.785,-3.52,-10.05,1.783,-3.281,-61.18,-6.72,41.23
32181.0,-9.761,1.78,-2.984,-9.328,1.747,-3.68,-25.9,-13.23,66.57
,-9.497,1.479,-2.876,-9.227,2.472,-3.513,-21.63,-14.77,70.28
,-9.653,1.173,-2.793,-9.095,3.352,-3.513,-17.01,-17.15,73.78
,-9.622,1.278,-3.211,-8.988,3.264,-3.283,-9.59,-19.6,77.14
32257.0,-9.124,2.036,-2.74,-8.873,0.586,-2.395,-27.02,-25.27,77.98
,-9.45,0.658,-2.582,-8.643,1.086,-2.709,-32.2,-27.93,77.28
,-9.536,0.05,-2.481,-8.5,1.39,-2.709,-26.53,-30.17,77.7
,-9.227,0.428,-2.565,-8.681,1.598,-2.575,-17.08,-31.08,77.91
32333.0,-8.885,1.476,-2.467,-8.327,-0.323,-1.596,-7.42,-29.54,66.78
,-8.801,1.163,-2.613,-7.731,-0.885,-1.187,-7.28,-28.0,64.68
,-8.466,1.089,-2.422,-7.487,-1.019,-1.192,-6.44,-25.69,61.18
,-8.449,0.663,-2.245,-7.739,-1.003,-1.335,-5.74,-23.38,57.89
32409.0,-7.808,-0.818,-1.579,-7.188,2.012,-3.558,50.4,0.07,45.78
,-7.698,-0.924,-1.852,-8.107,0.792,-4.24,62.23,4.55,42.42
,-6.647,-1.347,-1.259,-6.509,-0.034,-4.85,72.59,9.94,38.01
,-5.899,0.479,-3.805,-7.392,3.826,-5.592,95.06,22.82,34.44
32484.0,-9.438,5.829,-5.52,-9.517,-0.029,-3.972,69.72,26.53,-14.21
,-9.354,3.329,-4.824,-11.469,-1.926,-3.831,36.33,22.47,-20.79
,-9.162,2.271,-4.279,-9.945,1.484,-4.64,20.79,19.39,-25.83
,-9.239,0.287,-4.247,-9.742,4.506,-4.685,16.73,16.87,-29.33
32560.0,-9.684,4.791,-4.676,-11.646,3.625,-3.233,49.98,8.82,-46.55
,-9.947,4.348,-4.444,-12.725,4.006,-3.101,25.2,10.36,-55.44
,-10.44,3.711,-3.948,-12.491,3.065,-3.594,3.22,11.41,-64.26
,-10.787,3.515,-3.719,-10.093,0.792,-4.369,-12.32,12.11,-70.28
32636.0,-7.875,-0.012,-5.106,-8.859,-0.481,-5.181,41.86,7.07,-38.43
,-7.636,0.991,-5.647,-9.273,-0.921,-4.724,51.03,3.71,-38.01
,-8.155,1.096,-5.698,-9.502,-0.79,-4.276,40.95,0.56,-39.41
,-8.643,0.256,-5.43,-9.718,-0.392,-4.113,24.15,-1.4,-41.93
32712.0,-9.478,-0.266,-3.908,-9.287,0.637,-3.826,4.83,-8.26,-40.81
,-9.514,0.447,-4.013,-9.316,0.337,-3.501,13.23,-9.03,-36.19
,-9.45,1.091,-4.128,-9.299,0.136,-3.185,17.78,-9.45,-33.11
,-9.265,0.988,-4.039,-9.33,0.313,-3.015,15.26,-9.1,-32.27
32787.0,-9.409,0.512,-2.912,-9.098,-0.62,-2.936,-7.0,-5.53,-29.61
,-9.682,0.376,-2.869,-9.45,-0.29,-2.548,-7.91,-4.55,-27.58
,-9.612,-0.124,-2.958,-9.469,-1.043,-2.28,-7.28,-3.99,-25.62
,-9.495,-0.558,-2.962,-9.923,-0.615,-1.993,-4.69,-3.92,-23.66
32863.0,-9.902,-0.132,-2.0,-8.988,0.117,-3.24,24.71,-2.94,-13.02
,-9.562,0.39,-2.302,-9.165,0.323,-3.393,25.13,-1.12,-12.6
,-9.356,0.34,-2.661,-9.273,0.66,-3.484,21.77,0.49,-12.18
,-9.134,0.179,-2.967,-9.344,0.708,-3.745,20.37,0.98,-11.62
32938.0,-9.095,0.838,-3.881,-9.538,0.749,-3.702,28.0,0.7,-7.56
,-8.66,1.173,-4.092,-9.514,0.345,-3.465,25.62,0.77,-8.12
,-9.115,1.151,-4.054,-9.416,-0.062,-3.269,21.91,0.42,-8.4
,-9.548,1.106,-4.018,-9.457,-0.261,-3.324,20.23,0.14,-8.12
33014.0,-9.409,-0.067,-3.532,-9.88,0.471,-2.965,9.94,1.61,-9.45
,-9.184,0.577,-3.786,-10.727,6.231,-3.403,8.89,1.54,-10.29
,-9.292,1.046,-3.69,-8.086,4.755,-5.054,3.22,2.1,-11.69
,-9.359,0.589,-3.431,-8.524,-8.282,-1.546,-5.11,2.66,-12.39
33090.0,-8.031,-8.916,-1.369,-10.041,-2.201,-2.943,23.87,1.54,-12.46
,-8.557,0.838,-3.228,-9.49,1.575,-3.941,38.29,0.42,-15.33
,-10.644,2.017,-3.419,-9.82,1.536,-3.568,-2.52,0.0,-13.23
,-10.347,-2.582,-2.867,-9.069,0.952,-3.408,-28.28,0.7,-11.55
33166.0,-9.361,0.591,-3.431,-8.909,0.184,-4.57,7.28,4.55,3.22
,-9.634,-0.543,-3.443,-8.739,0.203,-4.676,5.74,4.83,4.13
,-9.433,-0.988,-3.623,-9.134,0.041,-4.52,7.84,4.69,4.34
,-9.122,-0.464,-4.089,-9.435,0.182,-4.554,8.82,4.06,3.64
33242.0,-9.373,0.378,-4.353,-9.359,0.507,-3.683,2.45,-1.82,4.97
,-9.308,0.436,-4.18,-9.478,0.23,-3.312,3.78,-2.8,5.53
,-9.397,0.409,-4.044,-9.617,-0.036,-2.979,3.5,-3.43,6.09
,-9.191,0.392,-3.874,-9.584,-0.213,-2.742,2.38,-3.71,6.3
33317.0,-9.402,-0.378,-2.594,-9.277,0.23,-3.271,-1.96,-1.82,7.63
,-9.34,-0.33,-2.663,-9.15,0.246,-3.372,-0.21,-1.26,8.19
,-9.342,-0.184,-2.757,-9.17,0.45,-3.451,0.84,-1.12,8.47
,-9.45,0.036,-3.118,-9.117,0.373,-3.329,1.4,-0.91,8.75
33393.0,-9.273,0.304,-3.147,-9.462,-0.426,-2.508,-2.45,-0.21,9.45
,-9.488,0.352,-2.927,-9.435,-0.29,-2.668,-2.59,0.14,10.01
,-9.605,0.055,-2.716,-9.354,-0.225,-2.745,-2.8,0.84,10.78
,-9.622,-0.285,-2.52,-9.292,0.055,-3.027,-2.52,1.68,11.55
33469.0,-9.454,0.127,-3.144,-9.44,0.034,-3.553,-3.64,4.9,13.51
,-9.407,0.287,-3.372,-9.349,0.055,-3.582,-4.9,5.04,13.86
,-9.16,0.254,-3.431,-9.323,0.452,-3.558,-4.76,5.32,14.98
,-9.287,0.206,-3.604,-9.402,0.33,-3.52,-3.64,5.04,16.66
33545.0,-9.454,0.002,-3.333,-9.378,0.534,-3.496,-8.68,4.62,20.58
,-9.418,0.014,-3.293,-9.299,0.462,-3.589,-8.47,4.76,21.42
,-9.332,0.093,-3.238,-9.454,0.313,-3.714,-7.21,4.9,22.54
,-9.469,0.304,-3.271,-9.411,-0.081,-3.743,-5.88,5.25,23.94
33620.0,-9.323,0.096,-3.766,-9.275,0.835,-3.3,-6.86,4.13,28.56
,-9.162,0.529,-3.733,-9.378,0.773,-2.989,-5.67,3.43,29.61
,-9.215,0.861,-3.721,-9.21,0.768,-2.927,-6.09,3.22,30.59
,-9.263,0.818,-3.527,-9.024,0.96,-2.668,-6.86,3.08,31.78
33696.0,-9.462,0.943,-2.359,-9.684,0.96,-2.58,1.47,4.55,37.31
,-9.438,0.519,-2.304,-9.742,0.392,-2.486,2.59,5.95,39.2
,-9.505,0.431,-2.338,-9.66,-0.041,-2.824,5.32,6.86,40.74
,-9.325,0.601,-2.56,-9.675,0.206,-3.489,7.63,8.54,42.07
33772.0,-9.603,1.015,-4.623,-9.39,2.079,-6.365,12.53,11.27,49.98
,-9.268,1.799,-5.765,-9.995,2.125,-5.729,10.08,10.5,51.03
,-9.036,2.369,-6.451,-10.129,2.484,-5.071,1.96,9.03,51.38
,-9.206,2.472,-6.762,-10.751,2.927,-4.226,-6.86,6.86,51.38
33848.0,-10.96,3.623,-3.951,-11.079,1.027,-3.24,-25.9,-3.01,48.02
,-11.362,2.831,-3.448,-10.656,1.22,-3.357,-33.04,-3.15,44.94
,-11.563,1.804,-3.022,-10.27,1.505,-3.719,-39.34,-3.08,42.77
,-11.302,1.165,-2.962,-9.675,1.943,-4.154,-39.69,-3.22,41.65
33923.0,-9.016,2.386,-4.52,-8.325,1.816,-4.41,-34.86,-11.83,27.79
,-8.739,2.781,-4.824,-8.15,0.866,-3.326,-41.3,-14.28,22.68
,-8.653,2.927,-4.953,-7.444,-0.084,-2.005,-49.91,-16.59,17.36
,-8.686,2.714,-4.882,-7.27,-0.864,-0.625,-58.24,-19.11,12.32
33999.0,-6.463,-0.605,-0.704,-7.837,-0.648,-3.398,-48.79,-17.92,-8.96
,-6.559,-1.5,-0.833,-7.32,-0.919,-3.659,-44.87,-6.44,-13.72
,-7.887,-3.228,-2.182,-7.198,-0.73,-3.776,-31.71,4.62,-14.77
,-7.468,-1.771,-3.379,-7.521,0.122,-3.893,-6.72,12.74,-15.89
34074.0,-8.191,1.017,-3.532,-8.361,1.098,-2.843,56.49,15.68,-54.39
,-8.392,1.28,-3.166,-8.583,0.68,-3.178,49.28,17.36,-61.53
,-8.011,1.06,-2.974,-9.162,-0.318,-3.08,39.83,19.81,-68.11
,-8.236,0.95,-2.58,-8.918,-0.572,-3.211,33.11,22.82,-74.69
34150.0,-9.143,-0.031,-3.544,-9.572,0.249,-3.953,41.3,29.4,-87.71
,-9.445,0.416,-3.616,-9.162,1.682,-4.74,51.45,30.66,-87.01
,-9.308,0.287,-3.793,-8.823,2.879,-5.544,55.58,30.66,-85.47
,-9.378,-0.263,-3.702,-8.832,3.647,-6.289,62.16,29.54,-81.62
34226.0,-8.911,3.908,-6.542,-9.136,2.967,-5.367,98.35,14.91,-79.87
,-9.521,3.723,-6.334,-9.263,3.089,-5.209,89.11,8.89,-82.04
,-9.524,3.302,-5.975,-9.701,3.549,-4.884,78.05,4.48,-82.39
,-9.734,2.8,-5.14,-9.658,3.587,-4.716,68.53,0.77,-80.36
34302.0,-9.464,3.216,-4.556,-9.88,5.068,-4.424,40.46,-15.12,-57.68
,-9.567,3.128,-4.329,-9.725,5.671,-4.257,42.49,-17.08,-51.94
,-9.749,3.494,-4.491,-9.328,5.848,-4.044,46.2,-19.11,-45.43
,-9.842,4.267,-4.472,-9.318,5.564,-3.558,48.93,-20.86,-39.13
34378.0,-9.45,4.882,-3.297,-11.046,17.71,-3.216,5.74,-21.14,-23.66
,-9.651,4.279,-2.723,-9.907,15.542,-2.675,-3.99,-19.32,-21.98
,-11.881,4.137,-0.701,-10.156,8.021,-1.969,-4.83,-18.9,-15.54
,-12.733,10.234,-2.675,-10.763,1.56,-0.979,29.33,-21.84,8.96
34453.0,-10.692,-3.592,-0.069,-10.682,3.149,-3.18,-21.42,3.92,1.75
,-11.239,-4.147,-0.268,-8.574,4.446,-3.386,15.61,5.46,11.27
,-10.486,-2.324,-1.737,-9.0,1.989,-3.075,49.0,7.77,15.05
,-12.144,0.184,-2.393,-9.797,-0.457,-2.907,49.84,13.02,10.64
34529.0,-10.057,-0.711,-3.096,-9.931,3.754,-4.458,-25.83,18.2,-2.8
,-10.17,0.916,-3.29,-9.876,4.006,-4.683,-8.54,16.73,-3.57
,-9.952,2.513,-3.477,-9.639,3.522,-4.537,-3.5,17.22,-3.01
,-9.873,3.214,-3.817,-9.402,2.319,-4.235,-9.59,20.16,-2.45
34605.0,-9.342,1.031,-3.678,-9.289,3.417,-3.975,-58.1,15.96,5.67
,-9.311,1.096,-3.644,-9.395,2.534,-3.735,-43.82,13.37,11.06
,-9.213,2.156,-3.963,-9.598,2.115,-3.707,-27.65,10.99,16.8
,-9.273,3.271,-4.104,-9.622,2.565,-3.991,-19.67,9.03,21.7
34681.0,-9.325,3.613,-4.257,-9.596,3.85,-4.594,-7.35,0.91,46.97
,-9.158,4.283,-4.183,-9.691,3.549,-4.453,-9.66,1.54,47.81
,-9.409,4.544,-4.649,-9.651,3.551,-4.539,-17.5,1.12,47.95
,-9.517,4.223,-4.647,-9.679,3.546,-4.834,-28.21,1.12,49.28
34756.0,-9.531,3.216,-4.826,-9.182,2.458,-4.535,-50.33,-2.8,63.21
,-9.533,2.651,-4.532,-9.028,2.333,-4.247,-53.34,-4.55,64.96
,-9.605,2.601,-4.846,-9.009,2.029,-4.231,-52.71,-6.86,67.83
,-9.61,2.58,-4.846,-8.878,1.85,-4.252,-51.24,-10.01,71.26
34832.0,-9.031,1.768,-4.104,-8.83,1.158,-3.293,-54.46,-21.84,75.67
,-9.232,1.637,-3.692,-8.882,0.998,-3.369,-53.69,-23.8,74.76
,-9.117,1.759,-3.477,-8.832,1.082,-3.62,-51.03,-25.62,73.64
,-8.849,1.546,-3.352,-8.557,1.204,-3.599,-50.05,-26.81,71.26
34907.0,-8.392,1.328,-3.422,-8.026,0.419,-3.015,-46.27,-27.37,56.28
,-8.303,1.196,-3.441,-7.854,-0.187,-2.558,-46.55,-27.23,53.06
,-7.98,1.194,-3.494,-7.865,-0.438,-2.218,-46.62,-26.32,49.28
,-7.937,0.826,-3.02,-8.021,-1.0,-1.553,-49.56,-25.13,45.15
34983.0,-7.729,-1.474,-0.883,-8.076,-0.55,-1.732,-5.39,-17.01,34.79
,-7.542,-2.134,-0.864,-7.784,-3.307,-3.58,13.72,-13.09,34.3
,-6.585,-2.254,0.093,-7.751,-1.771,-4.061,37.87,-6.51,35.0
,-6.226,-0.153,-1.89,-7.976,3.81,-4.566,77.77,8.75,35.07
35059.0,-10.0,8.303,-4.697,-10.435,-1.945,-4.147,126.91,17.57,-2.66
,-10.548,5.832,-2.816,-10.426,-0.574,-4.798,66.29,15.05,-15.47
,-9.624,0.022,-1.878,-9.636,2.91,-5.473,25.13,12.25,-23.59
,-9.392,-1.967,-2.934,-9.27,4.59,-5.686,25.76,11.13,-29.61
35135.0,-9.241,4.563,-5.913,-13.108,5.975,-3.862,40.32,2.8,-46.62
,-9.524,3.283,-6.004,-14.697,6.542,-3.771,17.85,1.61,-52.29
,-9.854,2.345,-5.631,-11.591,1.108,-3.62,5.11,-0.14,-57.68
,-10.761,3.644,-4.996,-7.219,-2.967,-3.62,-1.05,-2.45,-61.6
35211.0,-7.16,-1.603,-4.25,-9.256,-0.371,-3.149,25.97,-6.72,-43.96
,-9.474,0.242,-4.307,-9.289,0.189,-2.974,31.99,-11.13,-44.38
,-10.084,-0.108,-3.819,-9.478,-0.029,-2.666,24.22,-12.18,-45.36
,-9.476,-0.876,-3.3,-9.698,-0.007,-2.553,15.89,-11.83,-46.41
35286.0,-9.442,0.201,-2.635,-9.44,0.598,-2.716,19.74,-10.5,-34.23
,-9.414,0.17,-2.759,-9.646,0.474,-2.764,22.26,-9.66,-32.06
,-9.598,0.189,-2.663,-9.686,0.258,-2.666,22.05,-9.17,-30.73
,-9.493,0.495,-2.678,-9.612,0.132,-2.596,20.02,-8.12,-29.96
35362.0,-9.557,0.782,-2.625,-9.694,-0.16,-2.462,12.81,-3.29,-23.52
,-9.655,1.208,-2.539,-9.514,0.079,-2.527,11.34,-2.59,-22.54
,-9.615,0.294,-2.611,-9.371,0.866,-2.553,7.91,-2.73,-21.0
,-9.447,-0.392,-2.558,-9.462,0.591,-2.455,9.31,-2.59,-20.09
35438.0,-9.823,-0.4,-2.515,-9.485,0.57,-3.501,14.42,-0.49,-14.7
,-9.854,-0.711,-2.649,-9.313,0.847,-3.697,20.86,-0.49,-12.6
,-9.615,-0.424,-2.864,-8.93,0.491,-3.573,28.63,-0.98,-10.92
,-9.39,0.022,-3.3,-9.227,0.735,-3.482,32.48,-1.26,-10.57
35514.0,-9.323,0.919,-3.321,-9.361,0.854,-2.759,33.04,-4.2,-8.96
,-9.464,0.771,-3.393,-9.512,0.488,-2.474,32.69,-4.06,-8.75
,-9.332,1.086,-3.142,-9.517,0.249,-2.206,29.26,-3.36,-9.24
,-9.241,0.955,-2.943,-9.557,0.361,-2.099,25.06,-2.38,-10.15
35589.0,-9.454,0.517,-2.237,-9.409,0.268,-3.525,12.11,4.34,-10.85
,-9.45,0.357,-2.603,-9.541,-0.041,-3.604,10.22,5.25,-10.64
,-9.414,0.189,-2.922,-9.703,-0.251,-3.745,8.47,5.95,-10.29
,-9.27,0.139,-3.302,-9.392,0.055,-3.855,6.93,6.44,-10.15
35665.0,-9.423,0.22,-3.958,-10.014,4.307,-4.188,-10.01,6.44,-10.01
,-9.533,0.292,-4.176,-9.119,1.615,-3.611,-13.79,5.6,-10.22
,-8.801,1.668,-4.554,-8.581,-2.826,-2.68,-13.58,4.9,-11.27
,-8.275,3.348,-4.46,-9.189,-5.91,-2.364,-15.33,4.34,-12.88
35740.0,-10.0,-2.316,-2.525,-10.194,-2.027,-2.206,11.13,-0.07,-10.99
,-9.758,1.134,-2.678,-9.995,-1.251,-2.304,2.17,0.07,-12.04
,-9.921,0.816,-2.551,-9.694,-0.01,-2.608,-20.72,1.82,-11.62
,-9.512,-1.077,-2.441,-9.086,0.376,-2.807,-28.77,2.87,-9.8
35816.0,-9.251,0.029,-3.029,-9.478,-0.22,-3.336,2.52,5.88,1.68
,-9.55,-0.632,-3.166,-9.641,-0.371,-3.238,-1.61,5.95,1.75
,-9.675,-0.809,-3.3,-9.67,-0.598,-3.211,-1.68,5.95,2.31
,-9.55,-0.459,-3.326,-9.478,-0.342,-3.233,-0.98,6.16,3.01
35892.0,-9.356,-0.022,-3.384,-9.184,0.467,-3.9,0.0,5.32,7.0
,-9.418,0.211,-3.597,-9.22,0.392,-3.865,-0.7,4.9,7.21
,-9.395,0.404,-3.774,-9.385,0.168,-3.821,-1.75,4.41,7.35
,-9.191,0.452,-3.841,-9.33,0.218,-3.855,-3.57,4.06,7.28
35968.0,-9.253,0.251,-3.831,-9.428,0.22,-2.97,-4.69,0.63,8.61
,-9.308,0.093,-3.594,-9.507,0.081,-2.874,-5.67,0.0,8.89
,-9.416,-0.05,-3.271,-9.378,-0.017,-2.915,-5.46,-0.56,9.52
,-9.39,0.105,-3.154,-9.373,0.144,-2.922,-3.43,-0.56,9.94
36044.0,-9.445,0.156,-2.938,-9.366,0.27,-3.051,-0.84,0.77,12.18
,-9.541,0.263,-2.994,-9.404,0.151,-3.075,-1.12,0.98,12.6
,-9.497,0.263,-2.905,-9.469,0.048,-3.072,-2.03,1.26,12.95
,-9.5,0.337,-3.072,-9.366,0.235,-3.233,-2.24,1.75,13.16
36119.0,-9.225,0.505,-3.171,-9.438,0.514,-2.864,1.4,1.33,15.54
,-9.306,0.682,-3.147,-9.43,-0.053,-2.709,2.17,1.4,16.31
,-9.234,1.098,-3.173,-9.56,-0.251,-2.635,2.31,1.82,16.87
,-9.33,0.993,-3.01,-9.56,-0.232,-2.649,0.0,2.66,17.29
36195.0,-9.502,0.127,-2.685,-9.263,0.517,-2.989,-3.36,6.44,20.79
,-9.407,0.519,-2.821,-9.462,0.258,-3.032,-4.48,7.28,21.63
,-9.335,0.677,-2.929,-9.418,0.124,-3.235,-6.02,8.05,22.19
,-9.359,0.919,-2.862,-9.514,0.333,-3.405,-6.86,8.89,23.24
36271.0,-9.318,0.479,-3.537,-9.203,0.814,-3.326,-7.42,9.45,28.49
,-9.091,0.775,-3.484,-9.39,0.488,-3.19,-9.03,9.45,29.19
,-9.337,0.773,-3.446,-9.521,0.117,-2.876,-10.29,9.38,30.38
,-9.292,0.852,-3.486,-9.545,-0.223,-2.938,-9.8,9.1,31.85
36347.0,-9.519,-0.096,-2.855,-9.464,0.464,-3.238,-4.27,9.66,40.46
,-9.684,-0.12,-2.797,-9.433,0.833,-3.625,-3.08,10.01,42.56
,-9.73,-0.251,-2.929,-9.344,0.866,-3.843,-1.26,10.29,44.8
,-9.629,-0.055,-3.029,-9.407,1.043,-4.381,1.82,10.78,46.2
36422.0,-9.232,1.773,-4.838,-9.538,2.807,-5.659,1.33,10.29,51.17
,-9.117,1.972,-5.083,-9.612,3.573,-5.662,-0.49,9.03,51.59
,-9.062,2.041,-5.449,-10.048,4.36,-5.386,-3.5,7.14,52.08
,-9.206,2.283,-5.678,-10.474,4.058,-4.817,-6.16,5.04,52.36
36498.0,-11.003,3.293,-4.271,-10.579,1.95,-3.338,-43.19,-1.54,40.53
,-11.041,2.857,-3.939,-10.223,2.19,-3.357,-48.44,-2.03,38.43
,-10.976,2.07,-3.472,-10.053,2.075,-3.29,-51.45,-2.94,36.75
,-10.787,1.764,-3.367,-9.77,1.759,-3.084,-52.43,-3.71,34.65
36573.0,-9.28,1.802,-3.039,-9.083,2.745,-3.422,-54.95,-11.27,18.69
,-8.887,2.146,-3.08,-8.538,2.201,-3.29,-53.34,-12.95,15.05
,-8.753,2.565,-3.297,-8.043,1.57,-2.599,-54.39,-14.35,10.99
,-8.801,3.001,-3.508,-7.485,0.802,-1.835,-58.1,-15.68,6.93
36649.0,-6.401,0.692,-1.292,-8.708,-1.101,-4.602,-65.38,-16.1,-14.63
,-6.143,0.369,-1.156,-7.676,-0.921,-4.336,-65.87,-4.83,-18.34
,-7.956,-2.343,-2.687,-7.069,0.129,-3.343,-63.63,9.31,-20.65
,-7.976,-2.278,-4.566,-7.444,1.565,-2.599,-44.94,18.83,-25.27
36725.0,-8.026,2.005,-2.553,-7.892,-0.184,-2.893,24.78,20.58,-62.16
,-8.282,1.914,-2.824,-7.983,-1.845,-2.357,17.22,25.06,-70.07
,-7.906,1.797,-2.903,-8.973,-1.716,-2.285,10.57,29.12,-77.07
,-7.985,1.431,-2.647,-8.748,-0.306,-3.357,8.26,32.41,-81.27
36801.0,-8.366,0.675,-3.963,-9.359,2.156,-4.685,64.19,35.28,-66.57
,-8.203,1.225,-4.24,-9.227,1.907,-4.85,75.46,33.95,-66.99
,-8.138,1.886,-4.582,-9.268,1.898,-4.884,80.22,32.48,-68.67
,-9.009,2.084,-4.422,-9.476,2.271,-5.066,80.5,30.38,-69.44
36876.0,-9.249,2.118,-5.109,-9.744,1.625,-4.987,74.06,23.45,-71.12
,-9.28,1.756,-4.755,-9.708,2.352,-4.8,70.35,22.4,-72.1
,-9.696,1.323,-4.877,-9.718,3.305,-5.142,67.9,18.27,-71.82
,-9.789,1.484,-5.269,-9.502,3.494,-5.367,73.36,15.26,-71.12
36952.0,-9.289,3.376,-4.989,-9.629,3.996,-4.561,85.75,-0.35,-59.29
,-9.892,3.072,-4.343,-9.629,4.697,-4.508,80.57,-3.08,-52.36
,-10.043,3.015,-4.319,-9.581,5.307,-4.477,79.66,-5.88,-43.89
,-9.816,3.412,-4.456,-9.418,5.666,-4.427,80.92,-8.05,-36.47
37028.0,-9.342,5.552,-4.209,-10.278,4.795,-3.484,40.6,-16.59,-20.65
,-9.557,5.133,-3.989,-11.077,8.993,-3.242,24.64,-17.71,-19.46
,-9.916,4.611,-3.869,-10.83,16.131,-4.341,11.06,-18.34,-18.13
,-9.945,4.257,-3.553,-10.596,15.061,-1.823,-1.26,-18.9,-16.45
37104.0,-8.765,5.616,-1.115,-11.208,0.562,-2.527,-86.52,-16.94,20.86
,-8.882,-3.218,-0.522,-12.402,3.628,-2.685,-77.21,-10.01,11.2
,-10.414,-7.315,-0.486,-11.938,3.455,-2.197,-25.55,-5.6,8.26
,-10.814,-5.135,-1.194,-9.832,1.474,-1.649,46.83,-3.99,14.35
37180.0,-9.442,-1.184,-1.263,-9.232,1.649,-2.355,-54.32,10.01,-2.8
,-9.155,-2.802,-1.457,-9.804,2.596,-2.41,-45.92,10.15,-1.47
,-9.354,-2.07,-1.744,-10.069,2.776,-2.661,-20.02,11.2,-1.61
,-9.411,-0.112,-2.063,-10.177,2.632,-3.104,2.24,11.06,-3.71
37255.0,-10.17,2.051,-3.34,-9.222,2.125,-4.128,-7.63,20.93,-8.19
,-10.112,1.536,-3.494,-9.698,3.151,-4.326,-10.57,22.05,-8.12
,-10.024,1.316,-3.585,-9.631,4.087,-4.367,-8.47,22.26,-7.0
,-9.349,1.39,-3.812,-8.854,4.568,-4.592,-3.64,22.33,-4.34
37331.0,-8.751,4.355,-4.401,-9.756,3.563,-4.408,-14.98,19.39,13.51
