Timestamp,AccX,AccY,AccZ,GyroX,GyroY,GyroZ,MagnX,MagnY,MagnZ
0.0,-9.311,-0.601,-3.501,-9.344,-0.577,-3.482,2.45,1.19,0.84
,-9.284,-0.67,-3.534,-9.34,-0.565,-3.439,2.8,1.33,0.91
,-9.256,-0.653,-3.527,-9.337,-0.593,-3.374,3.15,1.26,0.91
,-9.273,-0.586,-3.534,-9.337,-0.613,-3.429,3.71,1.05,0.91
76.0,-9.296,-0.672,-3.412,-9.265,-0.505,-3.508,1.89,1.05,0.63
,-9.306,-0.653,-3.436,-9.306,-0.524,-3.467,2.17,0.77,0.63
,-9.318,-0.708,-3.367,-9.325,-0.546,-3.484,2.38,0.98,0.7
,-9.328,-0.603,-3.376,-9.261,-0.68,-3.534,2.94,0.91,0.7
152.0,-9.296,-0.637,-3.467,-9.354,-0.572,-3.283,1.68,0.35,0.28
,-9.287,-0.66,-3.498,-9.325,-0.608,-3.285,2.31,0.14,0.35
,-9.287,-0.699,-3.364,-9.28,-0.648,-3.34,2.87,0.42,0.63
,-9.328,-0.577,-3.364,-9.265,-0.668,-3.434,3.22,0.49,0.7
227.0,-9.261,-0.692,-3.355,-9.38,-0.591,-3.285,2.38,0.77,0.63
,-9.316,-0.648,-3.285,-9.325,-0.584,-3.372,3.01,0.7,0.7
,-9.304,-0.672,-3.259,-9.299,-0.541,-3.482,3.01,0.91,0.77
,-9.325,-0.605,-3.238,-9.277,-0.646,-3.503,2.87,0.91,0.84
302.0,-9.253,-0.682,-3.436,-9.409,-0.574,-3.214,1.47,0.91,0.7
,-9.289,-0.665,-3.384,-9.318,-0.57,-3.326,1.96,0.77,0.7
,-9.268,-0.541,-3.257,-9.351,-0.66,-3.259,2.66,0.77,0.77
,-9.342,-0.55,-3.223,-9.296,-0.639,-3.582,2.1,1.19,0.84
378.0,-9.251,-0.751,-3.587,-9.337,-0.682,-3.285,0.28,1.26,0.63
,-9.287,-0.773,-3.23,-9.33,-0.723,-3.041,0.14,1.12,0.77
,-9.347,-0.715,-3.431,-9.368,-0.574,-3.252,0.42,1.05,0.91
,-9.385,-0.804,-3.781,-9.294,-0.608,-3.12,0.77,0.91,0.98
454.0,-9.253,-0.584,-3.338,-9.383,-0.718,-3.496,-0.49,0.77,0.98
,-9.28,-0.663,-3.503,-9.418,-0.646,-3.546,-0.28,0.63,0.84
,-9.265,-0.797,-3.498,-9.229,-0.345,-3.336,0.84,0.84,1.19
,-9.311,-0.696,-3.518,-9.167,-0.428,-3.362,1.12,0.49,1.12
530.0,-9.227,-0.541,-3.015,-9.497,-0.282,-2.508,-5.04,-0.28,0.42
,-9.373,-0.778,-2.795,-9.383,-0.146,-2.915,-4.76,0.35,0.63
,-9.411,-0.687,-2.302,-9.201,-0.194,-3.415,-4.48,1.26,0.77
,-9.452,-0.536,-2.01,-9.189,-0.531,-3.714,-5.46,2.17,0.91
605.0,-9.162,-0.83,-3.81,-9.253,-1.091,-2.051,-11.48,3.22,0.21
,-9.196,-0.809,-3.687,-9.426,-1.127,-1.278,-8.12,3.5,0.7
,-9.083,-0.948,-3.19,-9.517,-0.821,-0.804,-6.16,4.06,1.26
,-9.172,-1.043,-2.668,-9.49,-0.471,-0.043,-3.92,4.9,2.1
681.0,-9.782,0.56,-1.63,-8.555,1.534,-5.154,-3.71,15.12,3.92
,-9.299,1.125,-2.733,-8.571,0.94,-4.812,-16.1,13.93,1.82
,-9.117,1.388,-4.037,-8.801,-0.311,-3.951,-27.65,12.32,0.7
,-8.866,1.866,-4.982,-9.263,-1.627,-3.173,-36.54,10.99,-0.35
757.0,-9.837,-1.938,-2.029,-8.875,0.168,-1.266,-21.35,15.54,-4.06
,-9.945,-1.524,-1.347,-9.026,0.017,-2.166,-8.75,17.85,-3.22
,-9.442,-1.067,0.134,-9.203,-0.629,-3.544,-0.35,21.14,-1.82
,-9.342,-0.424,-0.055,-8.581,-1.871,-3.826,6.79,24.29,0.07
833.0,-8.208,-3.053,-4.046,-9.162,-0.83,-3.503,-3.99,34.65,4.06
,-7.897,-3.23,-4.319,-8.899,0.608,-2.793,8.54,35.91,5.67
,-8.409,-2.675,-4.59,-8.454,2.503,-4.202,21.49,36.68,6.58
,-9.129,-1.895,-4.439,-8.849,2.929,-6.289,34.51,37.66,7.91
909.0,-9.493,1.168,-7.322,-7.755,-3.53,-5.791,-6.09,20.44,1.82
,-9.361,-1.876,-7.495,-8.047,-2.302,-5.461,-18.48,18.76,5.53
,-8.947,-4.427,-6.32,-8.959,-1.302,-5.451,-9.52,19.25,9.52
,-8.282,-4.561,-5.954,-9.234,-0.924,-5.652,14.07,18.13,10.64
984.0,-8.825,-0.962,-5.561,-9.112,1.134,-6.143,19.88,13.23,19.25
,-8.385,0.014,-5.549,-9.703,0.79,-5.24,19.46,12.88,20.44
,-7.648,1.266,-6.841,-10.067,0.342,-4.307,16.17,8.54,19.39
,-7.827,1.594,-7.03,-9.89,0.055,-3.781,7.98,3.99,17.85
1060.0,-8.916,-0.27,-3.848,-8.624,-1.618,-3.276,7.35,-0.07,10.36
,-8.428,-0.833,-3.946,-8.837,-0.833,-3.635,7.14,1.33,10.71
,-8.385,-1.62,-3.776,-9.136,0.696,-4.039,8.12,3.92,11.41
,-8.641,-2.063,-3.592,-9.244,2.065,-4.377,11.13,6.3,12.46
1135.0,-9.162,2.52,-4.554,-8.823,0.763,-3.475,2.38,2.45,15.75
,-8.911,2.233,-4.259,-9.028,0.514,-3.422,-6.23,2.52,14.49
,-8.626,1.586,-4.13,-9.308,0.562,-4.054,-10.57,2.73,12.46
,-8.564,1.127,-3.9,-9.062,0.352,-4.602,-9.52,4.55,9.66
1211.0,-8.882,0.244,-4.774,-8.686,1.941,-5.032,9.8,5.81,4.48
,-8.567,0.735,-5.284,-8.854,1.462,-4.721,13.51,3.71,3.01
,-8.248,1.668,-5.642,-9.215,0.804,-4.927,16.31,2.31,-0.07
,-8.356,2.041,-5.611,-9.021,-0.376,-5.051,11.62,2.66,-3.92
1287.0,-9.21,-1.744,-4.905,-7.985,-2.51,-5.865,-5.67,4.48,-12.11
,-8.93,-2.005,-5.494,-8.533,-1.91,-5.81,-0.35,2.59,-11.55
,-8.375,-2.426,-5.595,-9.038,-1.804,-5.221,5.67,0.98,-8.96
,-7.997,-3.113,-5.525,-9.524,-1.445,-4.697,9.73,0.49,-4.69
1363.0,-9.007,-1.151,-4.752,-8.926,-1.101,-4.329,8.68,-2.24,3.85
,-8.689,-1.18,-4.676,-8.521,-0.333,-4.494,5.46,-2.1,6.09
,-8.808,-1.369,-4.549,-8.373,0.065,-4.697,3.99,-1.68,8.33
,-9.043,-1.744,-4.3,-8.753,0.648,-4.609,4.97,-1.75,10.64
1438.0,-8.571,-0.297,-4.913,-9.813,2.448,-5.114,13.37,0.98,18.41
,-9.186,1.062,-4.491,-9.476,1.974,-5.166,15.68,3.92,17.92
,-9.072,1.914,-4.69,-8.794,0.591,-5.035,15.33,6.58,15.82
,-9.316,2.565,-4.984,-8.744,-0.409,-5.008,11.41,8.26,11.27
1514.0,-8.921,-0.72,-4.645,-8.722,0.687,-5.552,-0.63,15.47,2.73
,-9.021,-0.17,-5.035,-8.737,0.838,-5.676,1.4,12.6,2.59
,-8.437,0.395,-5.42,-8.603,1.0,-5.688,0.07,11.13,2.38
,-8.557,0.644,-5.556,-8.413,0.754,-5.776,-4.06,10.5,2.1
1590.0,-8.705,0.555,-5.853,-8.952,-0.124,-5.698,-20.37,8.47,0.49
,-8.835,0.249,-5.891,-9.225,-0.268,-5.075,-19.11,7.63,-0.35
,-8.792,0.002,-5.915,-8.997,0.038,-5.257,-16.31,7.14,-0.98
,-8.902,-0.213,-5.808,-8.471,0.323,-5.619,-12.25,6.93,-1.47
1666.0,-8.311,0.431,-5.877,-8.878,-0.644,-5.908,-8.61,-1.82,-1.61
,-8.48,0.225,-5.855,-8.806,-0.641,-6.013,-9.73,-2.52,-2.03
,-8.741,-0.215,-5.82,-8.832,-0.534,-5.97,-9.66,-2.59,-2.17
,-9.062,-0.512,-5.654,-8.612,-0.258,-6.033,-7.77,-2.87,-1.89
1742.0,-8.476,-0.014,-6.037,-8.464,0.273,-5.599,6.37,-12.39,0.21
,-8.452,0.17,-6.037,-8.839,0.337,-5.379,4.83,-15.05,1.4
,-8.258,0.321,-6.128,-8.839,0.73,-5.142,3.22,-17.29,1.82
,-8.43,0.304,-5.788,-8.842,0.258,-4.338,0.63,-19.46,1.82
1817.0,-9.189,0.443,-4.575,-8.646,0.215,-5.236,-3.92,-28.28,-1.68
,-8.832,0.861,-4.879,-8.409,-0.005,-5.159,-2.1,-30.17,-2.73
,-8.748,0.849,-4.953,-8.557,-0.225,-4.633,-2.8,-31.5,-4.06
,-8.727,0.553,-5.032,-7.858,0.369,-3.965,-4.34,-32.69,-4.41
1893.0,-8.985,0.849,-4.554,-8.947,0.117,-3.812,9.17,-38.99,-5.95
,-9.155,1.182,-4.535,-9.591,0.481,-3.46,4.62,-39.27,-6.44
,-8.825,0.778,-4.307,-9.622,1.184,-3.441,-3.85,-39.13,-7.28
,-8.71,0.27,-4.262,-9.313,1.173,-2.905,-5.6,-38.78,-8.68
1968.0,-9.182,0.605,-2.73,-8.973,-1.108,-3.537,-12.95,-36.33,-16.1
,-9.117,-0.014,-2.563,-8.952,-1.094,-3.089,-18.48,-35.91,-17.08
,-8.947,-0.806,-2.412,-8.906,-0.928,-2.876,-18.62,-34.93,-16.87
,-8.981,-1.098,-2.864,-8.918,-0.531,-2.704,-15.54,-35.0,-16.24
2044.0,-8.892,-0.163,-1.953,-9.117,0.711,-1.125,25.9,-30.66,-13.51
,-9.22,0.23,-1.359,-8.952,0.488,-1.017,29.33,-29.61,-12.74
,-9.44,0.55,-0.62,-9.1,-0.306,-0.699,28.56,-27.93,-12.25
,-9.402,0.536,-0.823,-9.064,-1.661,0.304,24.85,-26.74,-12.88
2120.0,-9.368,-2.312,0.651,-9.371,-0.115,-0.861,23.8,-11.62,-7.0
,-9.574,-1.96,0.591,-8.988,-0.921,-1.359,29.47,-8.47,-5.25
,-9.56,-0.998,0.486,-9.052,-1.378,-1.63,30.45,-5.39,-4.41
,-9.598,-0.077,-0.246,-9.359,-1.153,-2.221,23.1,-2.59,-4.76
2196.0,-9.608,-0.897,-2.46,-9.66,0.223,-3.178,3.08,9.38,-3.71
,-9.706,-0.591,-2.647,-9.541,0.101,-3.522,4.34,9.87,-3.01
,-9.734,-0.505,-3.053,-9.524,-0.632,-3.63,4.13,10.08,-2.73
,-9.646,-0.23,-3.106,-9.526,-1.039,-3.929,2.52,9.52,-3.57
2271.0,-9.354,-0.936,-4.101,-9.368,-0.68,-3.025,-7.56,4.06,-4.48
,-9.385,-0.933,-4.044,-9.395,-1.005,-2.525,-3.99,2.66,-3.78
,-9.392,-0.744,-3.898,-9.433,-1.292,-2.127,-0.91,1.19,-3.29
,-9.311,-0.598,-3.498,-9.375,-1.129,-2.017,1.26,0.07,-2.87
2347.0,-9.323,-1.163,-1.756,-9.548,-1.326,-1.103,1.96,3.01,0.77
,-9.287,-1.352,-1.479,-9.648,-0.924,-1.469,-0.21,4.83,1.89
,-9.363,-1.374,-1.5,-9.402,-0.818,-1.771,-1.96,6.65,3.15
,-9.43,-1.548,-1.184,-9.258,-0.785,-1.668,-2.87,8.47,4.27
2422.0,-9.318,-0.689,-1.835,-9.363,-2.218,-0.378,-6.23,16.38,8.96
,-9.299,-0.849,-1.565,-9.476,-1.426,-0.826,-5.32,18.48,9.94
,-9.33,-1.23,-1.438,-9.387,-0.467,-0.931,-4.41,21.07,11.69
,-9.292,-1.843,-1.242,-9.45,0.199,-1.709,-3.64,24.43,13.79
2498.0,-9.387,0.313,-2.034,-7.461,0.766,-2.883,3.71,32.13,15.47
,-9.153,0.333,-2.338,-7.995,0.759,-2.364,-2.38,32.41,15.4
,-8.839,0.56,-3.075,-8.722,0.842,-1.165,-4.62,32.76,15.33
,-8.373,0.828,-3.903,-9.452,1.247,-1.517,-6.44,30.31,13.37
2574.0,-9.06,1.639,-2.651,-8.827,-1.441,-3.257,-17.64,31.36,0.63
,-9.256,1.426,-3.257,-9.849,-1.311,-5.14,-26.81,29.4,-0.14
,-8.629,0.684,-2.864,-9.698,-0.558,-6.631,-32.13,32.83,2.73
,-9.04,-0.861,-3.352,-9.215,-0.246,-7.205,-31.08,37.8,6.09
2650.0,-8.165,-0.007,-7.566,-9.892,0.627,-6.458,14.7,35.28,10.85
,-7.083,-0.637,-5.358,-9.371,0.313,-5.611,23.66,42.07,12.39
,-8.05,-0.522,-5.42,-8.617,-0.371,-5.403,31.64,41.44,9.94
,-9.198,0.459,-6.174,-8.547,-1.015,-4.929,30.73,35.49,5.04
2726.0,-9.232,-1.651,-6.377,-7.664,-1.378,-5.843,7.42,21.0,6.72
,-10.421,-2.094,-6.604,-8.035,-0.237,-6.198,4.9,10.5,9.52
,-9.265,-2.56,-6.868,-8.887,0.773,-5.877,3.43,5.81,14.42
,-7.803,-2.458,-6.052,-9.318,1.464,-5.513,7.63,8.33,18.06
2801.0,-9.509,1.771,-4.611,-8.792,-0.756,-4.898,6.23,9.1,15.12
,-9.189,1.359,-4.458,-8.933,-0.727,-4.85,-2.87,9.73,14.7
,-9.21,0.62,-4.386,-8.753,-0.383,-4.815,-7.14,8.75,13.79
,-8.847,-0.172,-5.111,-8.734,-0.756,-4.355,-5.39,6.23,13.3
2877.0,-8.952,-0.031,-3.884,-8.373,1.256,-3.381,20.37,0.91,12.39
,-8.947,1.019,-4.286,-8.715,1.589,-3.862,19.46,-0.35,11.41
,-8.806,1.371,-4.063,-8.756,1.783,-4.286,14.14,0.07,10.43
,-8.44,1.491,-3.845,-8.82,1.962,-5.205,9.66,1.47,10.43
2953.0,-8.538,1.977,-5.578,-9.643,-0.72,-4.037,10.15,-0.91,-1.33
,-8.04,1.266,-5.303,-10.115,-0.495,-4.056,11.83,0.07,-3.08
,-7.581,-0.156,-4.759,-10.278,-0.206,-4.389,10.71,2.31,-4.55
,-8.445,-0.622,-4.125,-10.029,0.172,-5.133,13.65,3.43,-4.97
3029.0,-9.064,-0.151,-5.501,-8.562,-1.749,-5.317,7.56,-1.47,-1.89
,-8.033,-0.732,-5.796,-9.292,-1.053,-5.176,6.79,-2.8,-0.49
,-7.657,-1.692,-6.107,-8.964,-0.89,-4.975,7.35,-1.89,2.59
,-8.662,-1.972,-5.525,-8.947,-0.56,-4.755,10.29,-1.96,6.3
3104.0,-8.861,-0.467,-4.858,-8.526,2.264,-5.008,5.74,0.77,15.19
,-8.914,-0.129,-4.874,-8.806,2.642,-4.891,4.9,1.19,17.08
,-8.696,0.766,-4.834,-8.847,2.824,-4.681,4.76,1.33,17.15
,-8.378,1.649,-4.958,-9.014,2.307,-4.515,3.57,2.8,15.61
3180.0,-9.117,1.716,-4.671,-9.6,0.0,-4.757,-14.0,7.56,3.43
,-8.734,1.091,-4.956,-10.01,0.371,-4.968,-15.54,8.26,1.89
,-8.538,0.325,-4.891,-9.993,0.562,-5.095,-15.61,9.8,1.26
,-8.806,-0.012,-4.81,-9.263,0.268,-5.329,-12.81,10.99,0.7
3255.0,-8.818,-0.144,-5.403,-8.215,0.44,-5.664,-11.97,9.45,-0.84
,-8.681,-0.436,-5.114,-7.65,0.395,-5.836,-10.29,11.62,-1.12
,-8.713,-0.318,-5.066,-7.964,0.201,-5.762,-6.65,11.97,-0.84
,-8.815,0.045,-4.982,-8.804,0.024,-5.922,-4.62,9.94,-0.56
3331.0,-9.1,0.225,-6.157,-8.698,0.766,-5.87,-0.35,0.56,-1.12
,-8.952,0.737,-6.281,-8.703,0.799,-6.023,3.78,-1.12,-1.68
,-8.847,0.718,-6.207,-8.763,0.613,-6.076,5.67,-1.54,-2.31
,-8.906,0.531,-5.927,-9.026,0.392,-6.157,7.14,-1.89,-3.29
3407.0,-9.076,0.354,-6.157,-8.107,0.761,-6.269,6.79,-13.3,-2.59
,-8.806,0.479,-6.234,-8.342,0.615,-6.327,7.63,-16.31,-2.31
,-8.521,0.591,-6.272,-8.588,0.349,-5.906,7.35,-19.18,-2.03
,-8.026,0.806,-6.37,-8.536,0.479,-5.315,5.11,-22.05,-1.89
3483.0,-8.763,0.443,-5.238,-9.368,0.811,-4.422,5.11,-31.85,-3.92
,-9.213,0.28,-4.815,-9.014,1.067,-4.302,4.2,-33.53,-5.04
,-9.454,0.175,-4.573,-8.543,1.225,-4.257,4.9,-34.93,-4.97
,-9.411,0.488,-4.341,-8.349,1.285,-4.286,6.65,-35.77,-4.9
3559.0,-8.44,1.086,-4.298,-8.526,-0.189,-3.458,-10.64,-39.9,-11.69
,-8.562,0.692,-4.269,-8.923,-0.002,-2.934,-12.39,-40.46,-12.32
,-8.454,0.124,-3.941,-9.33,0.323,-2.268,-11.2,-40.67,-12.88
,-8.605,-0.17,-3.69,-9.536,0.438,-2.505,-6.37,-40.81,-13.37
3634.0,-9.392,0.665,-1.534,-8.583,0.067,-1.01,9.1,-36.26,-14.84
,-9.648,0.476,-1.436,-8.77,-0.33,-0.694,9.1,-34.37,-15.19
,-9.375,0.771,-2.137,-9.06,-0.306,-0.677,6.16,-34.23,-17.43
,-8.801,0.658,-1.493,-9.174,0.218,-0.981,3.85,-32.62,-19.18
3710.0,-9.404,0.471,-1.01,-9.16,-2.434,-0.881,13.02,-21.91,-18.27
,-9.387,0.074,-0.785,-9.409,-1.979,-0.974,5.95,-18.83,-18.2
,-9.359,-0.948,-0.799,-9.474,-1.73,-0.687,0.7,-15.05,-17.29
,-9.103,-1.831,-1.024,-9.481,-1.452,-0.481,-0.21,-12.11,-15.75
3786.0,-9.708,-0.598,-1.651,-9.251,-1.12,-3.372,9.17,2.03,-6.58
,-9.478,-0.067,-2.245,-9.34,-1.711,-3.089,3.99,2.38,-7.0
,-9.471,0.184,-3.104,-9.629,-1.378,-2.936,-3.36,2.52,-8.05
,-9.38,-0.395,-3.29,-9.579,-0.61,-2.943,-10.22,3.43,-8.12
3862.0,-9.447,-0.617,-2.644,-9.239,-0.522,-3.853,3.22,4.13,-2.73
,-9.533,-0.67,-2.79,-9.043,-0.699,-3.982,0.49,4.69,-1.82
,-9.6,-0.665,-3.434,-9.05,-0.885,-4.135,-1.05,3.92,-1.82
,-9.306,-0.505,-3.506,-9.241,-0.924,-4.078,-2.52,2.87,-2.31
3937.0,-9.289,-0.802,-3.597,-9.844,-0.756,-2.326,1.82,-2.52,-0.49
,-9.409,-0.732,-3.223,-9.631,-0.974,-2.113,5.11,-2.94,0.21
,-9.495,-0.634,-2.898,-9.56,-0.603,-2.718,6.51,-3.36,0.56
,-9.794,-0.749,-2.508,-9.454,-0.361,-3.195,7.63,-2.94,1.05
4013.0,-9.478,-0.342,-3.264,-9.237,-0.876,-1.342,-3.85,-4.27,-0.63
,-9.395,-0.024,-2.953,-9.55,-1.094,-1.417,-11.83,-5.32,-2.52
,-9.16,0.792,-2.194,-9.77,-1.33,-1.785,-22.33,-7.07,-3.99
,-8.938,-0.017,-1.529,-9.794,-0.747,-1.878,-36.12,-8.26,-5.11
4088.0,-9.392,-0.519,-1.809,-9.639,-1.998,-0.292,-22.82,-2.73,-0.14
,-9.237,-1.096,-1.61,-9.462,-1.668,-0.203,-23.66,1.26,1.68
,-9.019,-1.697,-1.115,-9.366,-1.922,0.261,-21.84,5.81,3.64
,-9.081,-2.223,-0.577,-9.749,-1.732,0.242,-15.54,10.85,6.37
4164.0,-9.643,-1.039,-0.428,-8.837,-0.546,-2.125,8.26,26.32,17.15
,-9.282,-0.51,-1.074,-8.868,-0.354,-3.005,9.8,27.58,17.57
,-9.086,-0.282,-1.476,-8.447,0.225,-2.465,9.8,29.54,19.04
,-8.99,-0.16,-2.044,-9.21,0.754,-2.967,9.66,32.06,20.65
4240.0,-9.17,1.807,-4.714,-8.452,0.718,-5.707,16.45,33.46,16.8
,-9.155,2.185,-4.975,-7.997,-0.33,-4.599,8.19,30.17,14.07
,-8.94,2.146,-6.382,-8.983,-1.558,-2.991,-2.31,26.46,11.83
,-9.038,1.575,-5.939,-9.452,-1.663,-1.153,-13.51,24.5,10.57
4316.0,-10.189,-0.916,-0.182,-9.866,2.07,-7.423,23.52,42.77,10.99
,-9.115,0.495,-0.292,-9.495,0.311,-7.985,29.47,40.11,9.87
,-10.098,1.957,-2.52,-7.528,-1.539,-6.983,29.61,32.13,8.05
,-9.433,3.278,-6.353,-6.87,-2.402,-5.654,9.17,20.79,5.88
4392.0,-7.77,-2.402,-4.424,-9.682,1.577,-3.778,22.96,38.15,6.3
,-9.057,-1.228,-3.793,-10.254,0.816,-4.779,34.23,36.05,5.32
,-8.935,0.503,-3.051,-9.543,0.443,-6.049,33.18,35.14,5.95
,-9.423,1.529,-2.51,-8.643,0.471,-6.076,24.99,32.69,7.35
4467.0,-7.956,0.215,-5.731,-9.225,0.584,-4.427,7.35,16.59,8.12
,-7.808,-0.007,-5.118,-9.462,0.12,-3.958,11.13,15.26,5.11
,-7.988,0.668,-5.109,-9.301,-0.498,-4.18,11.83,13.23,3.01
,-8.777,0.68,-4.614,-9.174,-0.692,-4.558,8.96,14.28,2.73
4543.0,-9.179,-0.696,-4.716,-8.648,1.402,-5.609,1.47,11.27,6.86
,-9.172,0.546,-5.197,-9.057,0.067,-4.618,6.09,7.21,7.56
,-8.799,1.326,-5.669,-9.064,-1.141,-4.14,7.28,5.53,5.95
,-8.679,1.608,-5.525,-9.131,-2.314,-4.401,3.36,5.67,3.29
4619.0,-8.914,-3.372,-4.788,-8.055,1.385,-5.41,-3.64,2.52,11.83
,-8.667,-3.455,-5.693,-8.698,2.934,-5.501,8.19,-0.28,15.75
,-8.069,-2.225,-5.987,-9.538,3.412,-4.657,24.5,-1.82,18.27
,-7.932,-0.388,-5.875,-10.696,3.044,-4.326,38.15,-2.24,17.71
4695.0,-10.227,2.213,-4.759,-7.26,-2.082,-5.647,3.36,-5.39,-2.59
,-9.864,0.952,-5.418,-7.875,-2.469,-5.532,-2.52,-6.65,-3.08
,-8.181,-0.428,-5.788,-8.938,-1.862,-5.027,-0.35,-6.37,-1.89
,-7.507,-1.436,-5.238,-9.526,-0.842,-5.183,5.39,-6.51,0.7
4770.0,-9.586,-0.524,-4.896,-8.562,0.048,-3.735,24.15,-7.56,11.69
,-9.88,-0.816,-4.436,-8.708,1.125,-3.893,17.29,-7.0,13.51
,-9.373,-1.326,-3.678,-8.607,2.249,-4.166,11.62,-6.16,15.61
,-8.961,-0.708,-3.857,-8.562,3.331,-4.487,10.92,-5.95,16.31
4846.0,-8.77,4.654,-4.623,-8.734,1.536,-4.061,7.07,-1.05,9.66
,-8.696,4.46,-4.748,-8.818,1.476,-4.446,-2.1,0.63,6.16
,-8.818,3.247,-4.305,-9.146,1.192,-4.731,-10.15,3.08,2.87
,-8.933,1.799,-3.786,-9.43,1.003,-4.929,-14.7,5.39,0.91
4921.0,-9.428,0.634,-5.025,-8.887,-0.96,-4.965,-14.0,10.08,-5.11
,-9.308,0.491,-4.795,-8.926,-1.084,-4.867,-13.86,9.45,-5.11
,-8.842,-0.024,-5.386,-9.062,-0.73,-5.08,-14.77,7.91,-4.69
,-8.756,-0.488,-5.166,-8.899,-0.428,-5.384,-14.35,8.4,-4.13
4997.0,-8.653,-0.443,-5.363,-9.923,-0.888,-5.305,-10.22,6.72,2.24
,-9.122,-0.747,-5.164,-9.409,-0.531,-5.731,-10.22,7.84,3.85
,-9.579,-0.89,-5.317,-8.38,-0.29,-6.066,-9.17,8.89,5.46
,-9.84,-0.928,-5.365,-7.999,0.036,-6.131,-6.16,9.94,6.93
5073.0,-7.736,0.206,-6.289,-8.911,1.864,-5.65,9.94,-2.59,8.12
,-8.136,0.459,-6.234,-8.784,2.18,-5.875,13.37,-4.9,7.42
,-8.648,0.876,-6.056,-8.76,2.099,-5.834,16.87,-6.58,6.72
,-9.009,1.318,-5.719,-8.691,2.024,-5.882,19.04,-8.19,5.88
5149.0,-8.619,1.977,-5.865,-9.308,0.519,-5.331,9.87,-16.31,0.0
,-8.772,1.711,-5.554,-8.978,0.782,-5.432,8.47,-19.18,-1.96
,-8.93,1.493,-5.532,-8.794,0.438,-5.157,5.04,-23.03,-3.43
,-9.136,0.967,-5.784,-8.933,1.072,-5.116,0.56,-26.67,-4.34
5224.0,-8.471,1.529,-5.386,-9.016,-0.488,-3.975,-9.17,-44.17,-10.99
,-7.999,1.393,-5.58,-9.581,-0.242,-3.611,-13.58,-44.8,-11.48
,-8.248,0.562,-5.219,-9.763,0.057,-3.266,-16.66,-43.12,-12.46
,-8.677,-0.045,-4.561,-9.758,0.335,-2.965,-15.75,-41.44,-13.37
5300.0,-9.562,0.263,-2.934,-9.076,0.299,-2.663,-0.84,-41.02,-15.26
,-9.177,0.639,-3.08,-9.16,0.517,-2.517,-4.41,-44.52,-15.12
,-8.2,0.871,-3.075,-8.93,0.318,-1.754,-9.52,-45.71,-15.68
,-8.165,0.682,-2.637,-8.765,-0.031,-1.359,-11.69,-43.75,-16.31
5376.0,-8.973,-0.404,-1.122,-9.684,0.017,-0.196,-9.59,-35.14,-18.62
,-8.756,-0.4,-0.713,-9.588,-0.481,-0.053,-5.6,-32.62,-19.53
,-9.127,-0.055,-0.694,-9.605,-0.579,0.33,-2.03,-30.31,-18.69
,-9.596,0.153,-0.73,-9.617,-0.385,-0.069,-1.54,-27.86,-18.27
5452.0,-9.514,0.622,-0.871,-9.409,-1.584,-2.039,4.62,-12.32,-18.13
,-9.586,0.986,-2.874,-9.399,0.005,-2.651,-3.85,-14.14,-18.62
,-9.182,-0.041,-2.764,-9.239,0.902,-3.436,-9.38,-13.23,-17.01
,-9.06,-1.22,-1.823,-9.325,-0.12,-2.845,-4.34,-9.87,-13.79
5528.0,-9.284,-1.541,-2.333,-9.758,-0.354,0.115,-7.63,-11.48,-12.74
,-9.131,-2.943,-1.194,-9.777,-0.608,-0.127,-1.12,-7.56,-9.8
,-9.581,-2.96,-0.412,-9.749,-0.878,-0.383,10.85,-5.39,-8.26
,-9.619,-1.137,-0.086,-9.517,-0.852,-1.055,14.07,-4.48,-7.56
5603.0,-9.383,-0.866,-1.338,-9.954,-0.462,-2.735,-1.68,6.09,-1.54
,-9.146,-0.828,-1.271,-9.746,0.115,-3.695,-0.42,8.82,-0.63
,-9.292,-0.787,-1.139,-9.459,0.311,-4.281,0.35,10.99,0.49
,-9.775,-0.768,-1.771,-9.189,-0.297,-4.283,0.56,11.55,0.77
5679.0,-9.251,-0.864,-4.221,-9.495,0.881,-3.3,-4.13,8.26,0.91
,-9.541,-1.05,-4.168,-9.529,0.782,-3.022,2.59,7.49,1.47
,-9.885,-0.737,-4.044,-9.557,0.354,-2.517,11.48,5.18,1.61
,-9.861,0.263,-3.814,-9.337,0.127,-2.178,15.54,2.1,0.98
5754.0,-9.447,-0.34,-1.924,-9.34,-0.696,-2.257,-16.45,-4.13,-4.9
,-9.742,-0.711,-1.948,-9.435,-0.998,-2.108,-17.5,-3.78,-5.25
,-9.746,-0.407,-2.101,-9.502,-0.775,-2.094,-17.36,-3.64,-5.39
,-9.562,-0.491,-2.29,-9.414,-0.73,-1.886,-18.41,-3.22,-5.04
5830.0,-9.509,-0.888,-1.819,-9.454,-2.008,-0.653,-14.77,-0.35,-2.31
,-9.49,-1.074,-1.567,-9.471,-2.28,-0.208,-14.7,0.7,-1.75
,-9.378,-1.565,-1.22,-9.617,-2.06,-0.16,-13.09,2.8,-0.35
,-9.524,-1.941,-1.0,-9.49,-1.917,0.495,-8.4,5.32,1.68
5906.0,-9.907,-1.06,-0.302,-8.737,-0.763,-2.063,20.44,19.95,13.3
,-9.73,-0.249,-0.964,-8.67,-1.749,-1.531,21.14,20.3,13.58
,-9.612,0.103,-1.371,-8.947,-2.362,-0.529,19.39,21.42,14.35
,-9.067,0.366,-2.508,-10.053,-1.572,-1.113,13.3,22.12,14.63
5982.0,-9.885,0.299,-2.094,-8.15,-0.658,-2.919,41.93,36.12,19.6
,-10.122,1.261,-2.639,-8.007,-0.785,-2.168,34.65,35.07,17.92
,-9.234,1.395,-3.826,-8.686,0.11,-3.692,16.1,34.93,17.29
,-8.624,0.428,-3.553,-9.16,0.842,-3.75,2.17,38.22,17.85
6057.0,-9.612,0.842,-3.944,-8.878,-0.57,-3.601,15.82,34.37,10.5
,-9.129,0.27,-3.419,-9.337,-0.177,-5.083,9.94,38.5,12.6
,-8.435,-0.768,-1.034,-9.196,-0.651,-5.781,15.68,47.6,15.61
,-8.99,-1.405,-1.228,-8.918,-1.232,-5.217,28.63,50.05,16.73
6133.0,-8.296,-0.57,-5.104,-8.804,2.577,-4.602,18.55,29.05,20.65
,-7.971,0.553,-5.386,-8.78,1.548,-3.719,24.71,29.47,16.03
,-8.591,2.041,-5.485,-9.213,0.302,-3.879,26.95,29.96,10.36
,-9.019,2.883,-5.592,-10.146,-0.969,-4.489,19.46,30.8,5.46
6209.0,-10.177,-1.22,-5.367,-8.638,-0.558,-4.987,-18.97,13.79,10.99
,-9.237,-1.606,-5.31,-9.328,0.761,-5.286,-9.38,10.71,14.28
,-8.004,-1.828,-4.585,-9.06,2.247,-5.882,2.45,15.61,15.54
,-8.244,-1.546,-4.441,-8.478,2.982,-5.76,14.98,18.55,14.35
6285.0,-8.603,3.36,-5.693,-8.993,0.483,-4.628,-0.42,12.74,10.71
,-8.981,3.606,-5.621,-10.177,-1.216,-3.475,-10.43,13.51,6.3
,-8.744,3.015,-5.437,-10.136,-2.324,-3.592,-18.13,13.3,2.1
,-8.765,1.993,-4.92,-9.576,-2.541,-3.867,-23.17,12.11,-0.35
6361.0,-8.875,-1.895,-4.489,-8.2,1.893,-5.877,21.28,5.25,3.29
,-8.514,-0.981,-5.339,-7.973,1.536,-5.36,31.36,4.55,3.78
,-8.22,0.012,-5.544,-9.531,1.201,-4.764,37.87,5.25,3.71
,-8.263,1.247,-5.872,-9.976,0.943,-4.922,39.83,4.76,2.59
6436.0,-9.689,0.225,-5.185,-7.978,-0.964,-5.841,3.08,-0.7,-4.13
,-9.885,-0.89,-5.011,-8.406,-0.713,-5.686,1.47,-2.31,-4.13
,-9.792,-1.275,-4.771,-8.514,-0.33,-5.767,3.99,-4.2,-0.91
,-8.89,-1.125,-5.497,-8.49,-0.306,-5.619,7.91,-5.25,0.91
6512.0,-8.536,0.196,-5.154,-8.806,-1.132,-4.133,19.39,-7.98,6.93
,-8.488,0.725,-5.298,-9.184,-1.369,-3.922,17.36,-8.61,7.14
,-8.521,0.402,-5.188,-9.552,-0.905,-4.02,11.55,-8.96,7.56
,-8.591,-0.488,-4.542,-9.753,-0.493,-4.011,7.21,-8.19,8.33
6587.0,-9.308,0.258,-3.807,-8.995,2.357,-4.276,12.6,-1.89,10.01
,-8.433,0.735,-3.821,-9.208,1.924,-4.156,10.85,0.35,10.5
,-8.49,1.369,-3.845,-8.976,1.536,-4.243,8.54,1.89,9.87
,-8.734,2.199,-4.104,-8.744,1.173,-4.374,5.25,2.73,7.91
6663.0,-8.849,1.156,-4.398,-9.165,0.883,-4.685,-10.08,9.31,0.28
,-9.012,1.496,-4.838,-9.22,0.294,-4.932,-9.59,8.54,-1.54
,-8.808,1.441,-4.937,-9.007,0.036,-4.757,-10.71,8.82,-2.94
,-8.708,1.283,-4.999,-8.983,-0.05,-4.748,-12.18,9.59,-4.27
6739.0,-9.081,-0.057,-5.109,-8.976,-0.948,-4.75,-18.13,7.7,-4.69
,-9.112,-0.397,-5.264,-9.371,-0.493,-4.949,-19.74,7.63,-3.78
,-8.866,-0.704,-5.238,-9.141,-0.034,-5.116,-19.6,7.7,-2.17
,-8.667,-0.948,-5.09,-8.88,0.457,-5.157,-17.43,7.84,-0.49
6815.0,-8.871,0.849,-5.363,-9.433,0.285,-5.662,-5.53,-2.66,1.89
,-8.94,0.806,-5.494,-9.311,0.325,-6.104,-5.11,-3.01,0.35
,-9.036,0.476,-5.444,-8.705,0.146,-6.289,-4.27,-3.29,-2.1
,-9.136,0.309,-5.626,-8.483,0.093,-6.018,-2.24,-3.57,-4.34
6890.0,-8.55,0.412,-6.109,-9.194,-0.254,-5.946,4.41,-15.61,-4.41
,-8.466,0.443,-6.028,-9.304,-0.254,-5.702,2.59,-17.22,-4.06
,-8.804,0.235,-5.977,-9.428,-0.237,-5.669,0.49,-18.48,-3.85
,-9.098,0.077,-5.867,-9.062,0.191,-6.006,-0.84,-19.53,-3.71
6966.0,-8.758,0.371,-5.817,-8.804,1.184,-4.482,17.22,-24.29,-2.17
,-8.155,0.928,-5.908,-9.22,1.259,-4.319,17.43,-27.16,-1.26
,-8.007,1.223,-5.631,-9.237,1.196,-4.247,15.54,-28.35,-1.26
,-8.267,1.137,-4.98,-9.134,1.039,-4.027,13.16,-28.35,-1.75
7042.0,-9.158,1.022,-3.843,-8.65,0.464,-3.405,1.89,-36.47,-6.02
,-9.174,1.031,-3.896,-8.354,-0.292,-3.412,0.98,-38.99,-7.63
,-9.028,1.086,-4.121,-8.21,-0.878,-2.876,0.35,-41.09,-10.01
,-9.141,0.89,-4.087,-8.593,-0.694,-2.599,-2.66,-41.93,-11.83
7118.0,-9.32,-0.103,-2.711,-8.964,0.12,-0.565,10.78,-44.45,-13.09
,-9.495,-0.103,-2.161,-8.859,0.639,-1.165,8.96,-43.47,-12.81
,-9.485,-0.235,-1.28,-9.162,0.68,-0.45,9.24,-39.9,-12.04
,-9.366,-0.136,-0.474,-9.818,0.586,-1.06,11.48,-35.77,-11.9
7194.0,-9.481,0.574,-0.962,-8.99,-0.873,-0.232,-6.23,-26.95,-16.8
,-9.265,-0.16,0.091,-9.275,-1.204,0.244,-2.38,-22.61,-15.54
,-9.17,-0.404,-0.876,-9.797,-1.122,-0.835,0.49,-20.3,-15.75
,-9.038,-0.476,-0.469,-9.631,-0.873,-0.945,4.06,-18.27,-15.68
7269.0,-9.385,-1.144,-0.802,-9.622,-1.431,-1.268,4.41,-6.3,-9.38
,-9.27,-1.318,-0.897,-9.806,-0.818,-1.821,0.21,-2.87,-7.98
,-9.304,-1.661,-1.055,-9.596,-0.39,-1.771,-2.1,0.49,-6.44
,-9.34,-1.768,-1.158,-9.459,-0.45,-1.833,-1.61,3.08,-5.25
7345.0,-9.349,-0.771,-1.823,-9.935,0.663,-3.446,-5.6,10.85,0.14
,-9.483,-1.163,-1.46,-9.474,0.833,-4.231,-2.8,12.46,1.33
,-9.825,-0.919,-1.498,-8.978,0.419,-4.85,1.89,13.79,2.1
,-10.11,-0.12,-2.173,-8.871,-0.45,-5.018,2.24,13.23,1.47
7420.0,-9.04,-1.029,-4.456,-9.466,-0.615,-2.778,-10.22,5.6,-0.7
,-9.562,-1.065,-3.9,-9.426,-0.737,-2.419,-0.49,3.71,0.21
,-9.847,-0.806,-3.41,-9.6,-0.589,-2.489,5.6,1.82,0.77
,-9.787,-0.591,-3.142,-9.67,-0.464,-2.436,7.14,0.28,1.12
7496.0,-9.641,-0.526,-2.228,-9.634,0.036,-3.192,1.96,1.19,1.82
,-9.581,-0.536,-2.056,-9.32,-0.084,-3.475,2.1,1.75,1.96
,-9.792,-0.263,-2.359,-9.234,-0.316,-3.769,3.57,1.82,1.75
,-9.765,-0.041,-2.673,-9.246,-0.33,-3.853,2.59,1.47,1.26
7572.0,-9.328,-0.361,-3.613,-9.541,-0.141,-3.185,3.99,-3.15,0.77
,-9.562,-0.225,-3.455,-9.691,-0.881,-2.962,4.76,-4.2,0.56
,-9.634,-0.211,-3.108,-9.404,-0.395,-2.615,4.13,-5.25,0.28
,-9.66,-0.179,-3.077,-9.371,-0.184,-2.178,3.71,-6.37,-0.14
7648.0,-9.335,-0.68,-1.553,-9.399,-0.313,-0.34,-8.05,-9.87,-1.82
,-9.552,-1.283,-1.24,-9.421,-1.405,0.323,-4.69,-7.77,-0.91
,-9.976,-1.031,-0.842,-9.713,-1.395,-0.06,-1.68,-7.0,-0.91
,-9.66,-0.098,-0.584,-9.6,-1.089,-0.105,-3.08,-6.37,-0.56
7723.0,-9.643,-1.101,-0.278,-9.517,-0.818,-1.117,0.42,10.08,6.23
,-9.452,-0.938,-0.902,-9.493,-0.57,-0.866,1.05,12.67,7.91
,-9.112,-1.103,-0.706,-9.521,-0.495,-0.995,2.1,15.68,9.38
,-9.306,-1.237,-0.215,-9.493,-0.517,-1.22,7.7,20.3,11.2
7799.0,-9.509,-0.584,-1.402,-9.155,2.3,-4.092,20.16,37.66,18.69
,-9.356,0.026,-2.211,-9.098,1.752,-3.664,24.64,37.1,18.06
,-8.595,1.168,-2.529,-8.83,0.11,-2.764,24.36,34.65,14.98
,-8.997,1.898,-3.175,-8.258,-1.041,-1.969,21.56,32.62,12.81
7875.0,-8.296,-1.388,-0.921,-8.859,0.629,-2.726,2.03,41.72,7.21
,-9.624,-0.9,-1.799,-9.155,0.211,-3.565,11.62,39.55,5.46
,-9.935,0.017,-2.446,-8.866,0.337,-4.568,14.56,36.47,3.71
,-9.832,0.536,-2.927,-9.131,0.34,-5.485,12.18,36.89,4.41
7951.0,-8.794,0.416,-6.001,-9.079,0.306,-5.776,-10.85,27.58,2.8
,-8.095,0.091,-6.114,-9.55,1.359,-6.049,-10.85,30.66,2.52
,-8.198,-0.436,-4.322,-9.545,1.515,-6.116,-5.6,37.94,2.03
,-8.859,-0.218,-5.047,-9.476,0.907,-5.762,2.94,35.91,0.7
8026.0,-9.0,-0.464,-5.037,-9.002,-1.668,-3.539,-11.83,20.58,-1.19
,-8.588,-1.469,-4.446,-9.139,-1.448,-3.501,-9.8,23.8,-0.98
,-8.524,-1.718,-4.013,-9.052,-1.354,-3.47,-2.59,27.09,-0.28
,-9.076,-1.685,-3.659,-9.069,-1.086,-3.235,4.13,28.84,1.68
8102.0,-9.217,-0.471,-4.145,-8.294,0.936,-4.413,13.02,19.46,13.51
,-9.342,0.371,-4.647,-8.227,0.208,-4.247,15.12,16.66,12.39
,-9.325,0.907,-4.755,-8.959,-0.419,-4.357,14.91,15.61,12.11
,-8.741,1.161,-4.633,-9.371,-0.218,-4.819,10.71,15.68,12.39
8178.0,-9.476,0.328,-5.398,-8.397,1.046,-5.408,14.14,14.42,9.17
,-9.122,1.039,-5.497,-8.562,0.902,-5.578,20.02,12.81,7.42
,-8.679,1.338,-5.812,-8.868,0.318,-5.762,21.42,11.69,4.62
,-8.564,1.433,-5.7,-8.784,-0.495,-5.616,19.46,11.55,1.54
8253.0,-8.698,-1.33,-5.571,-8.99,-1.003,-5.48,5.67,10.29,-1.96
,-8.978,-1.644,-5.829,-8.72,-0.723,-5.403,8.68,7.91,0.0
,-9.016,-1.503,-6.042,-8.043,-0.558,-5.257,14.0,5.25,1.4
,-9.378,-1.134,-5.741,-8.428,-0.323,-5.142,16.94,2.59,2.8
8329.0,-9.366,-0.184,-4.468,-8.428,0.383,-5.449,8.4,0.63,6.58
,-9.16,-0.206,-4.355,-8.878,-0.055,-4.989,7.77,-0.14,6.86
,-9.069,0.089,-4.513,-8.617,0.211,-5.224,9.17,-0.42,7.63
,-8.629,0.593,-5.092,-8.772,0.127,-4.748,10.57,-1.12,9.1
8405.0,-8.882,-0.005,-4.35,-9.105,1.263,-4.848,17.15,-3.15,9.03
,-8.5,-0.325,-4.338,-8.593,1.082,-4.836,14.28,-2.1,8.96
,-8.732,-0.141,-4.374,-8.631,0.754,-5.111,14.84,0.28,8.4
,-9.117,0.704,-4.3,-9.122,0.67,-5.025,14.63,1.54,6.65
8481.0,-9.088,0.452,-4.941,-8.813,1.579,-5.41,0.84,8.33,0.63
,-8.859,0.168,-4.661,-9.325,1.843,-5.568,-0.91,8.4,1.19
,-8.538,0.455,-4.884,-9.265,1.431,-5.43,-2.24,7.84,2.1
,-8.411,0.785,-5.269,-8.976,0.397,-5.286,-2.73,7.63,1.89
8556.0,-8.851,-0.136,-5.243,-8.772,0.005,-5.583,-23.24,4.2,-1.61
,-8.746,-0.361,-5.485,-8.701,-0.285,-5.116,-19.88,4.06,-2.31
,-8.729,-0.345,-5.595,-8.961,-0.67,-4.841,-15.54,3.78,-2.52
,-8.78,-0.112,-5.796,-8.827,-0.907,-5.085,-11.76,2.8,-2.1
8632.0,-8.583,-1.12,-5.286,-8.952,-0.108,-5.434,-7.21,0.63,2.87
,-9.081,-1.151,-5.422,-8.471,0.694,-5.619,-5.67,-0.42,4.13
,-9.435,-1.096,-5.583,-8.552,1.187,-5.365,-2.87,-1.82,4.41
,-9.332,-0.794,-5.451,-8.827,1.508,-5.36,0.77,-3.64,4.69
8708.0,-9.021,1.701,-5.554,-8.677,-0.282,-5.7,-5.18,-11.55,-1.26
,-9.019,1.271,-5.607,-8.801,-0.328,-5.707,-8.75,-12.32,-2.59
,-8.744,0.67,-5.736,-8.851,-0.134,-5.803,-9.38,-12.46,-3.22
,-8.497,0.053,-5.867,-8.717,0.05,-5.86,-6.51,-12.25,-3.71
8784.0,-8.634,0.084,-5.796,-8.775,0.072,-4.879,13.72,-17.5,-1.89
,-8.574,0.062,-6.023,-8.847,0.048,-4.824,11.62,-18.48,-0.35
,-8.588,0.206,-5.977,-8.878,0.175,-4.91,8.96,-20.44,0.56
,-8.445,-0.127,-5.068,-8.626,0.244,-4.834,4.9,-21.14,0.63
8859.0,-8.619,0.227,-4.697,-9.361,1.318,-4.554,8.26,-29.26,1.68
,-8.777,0.553,-4.484,-9.363,1.429,-4.704,10.99,-31.71,0.49
,-9.146,0.629,-4.202,-9.115,1.22,-4.36,12.53,-34.16,-1.12
,-9.574,0.957,-4.389,-9.028,1.003,-4.022,11.62,-37.59,-2.52
8935.0,-8.722,1.0,-3.898,-8.93,-0.242,-2.668,-5.53,-41.93,-12.25
,-8.469,1.017,-3.52,-9.361,-0.682,-2.761,-6.3,-41.93,-14.84
,-8.464,0.67,-3.472,-9.265,-0.974,-2.123,-9.17,-42.49,-16.17
,-8.459,0.299,-3.118,-9.28,-0.938,-1.266,-10.99,-43.05,-16.73
9011.0,-9.282,-0.742,-1.407,-9.359,0.309,-1.826,10.36,-36.89,-13.79
,-9.206,-0.469,-1.323,-9.146,0.471,-1.414,10.43,-35.63,-14.28
,-9.04,-0.313,-0.687,-9.232,0.696,-2.367,10.22,-33.25,-13.79
,-9.215,0.022,-1.115,-9.057,0.706,-2.391,11.76,-31.29,-13.16
9086.0,-8.894,-0.359,-1.412,-9.765,-0.134,-0.84,0.35,-22.47,-17.15
,-8.954,-1.273,-0.436,-9.428,0.163,-0.553,5.39,-19.18,-14.63
,-9.416,-1.519,-0.39,-9.258,-0.665,-0.349,11.13,-17.43,-13.02
,-9.672,-1.067,-0.203,-9.347,-1.491,-0.443,17.99,-16.31,-11.97
9162.0,-9.531,-2.151,-0.313,-9.347,-1.031,-0.345,-1.61,-1.96,-8.19
,-9.718,-2.254,-0.237,-9.39,-0.574,-0.591,0.56,0.42,-6.44
,-9.792,-1.967,-0.471,-9.646,-0.565,-0.94,-0.84,2.38,-5.18
,-9.418,-1.756,-0.208,-9.773,-0.34,-2.094,-1.4,5.46,-3.43
9238.0,-9.67,-0.541,-3.104,-9.342,-0.986,-4.125,-15.68,13.51,-0.56
,-9.433,-0.809,-3.762,-9.488,-0.727,-4.082,-15.82,12.6,-0.21
,-9.318,-0.993,-4.113,-9.629,-0.302,-4.135,-12.25,12.18,0.98
,-9.325,-1.139,-4.14,-9.569,-0.12,-4.068,-5.88,11.34,2.1
9314.0,-9.517,-0.16,-3.915,-9.686,0.007,-2.84,3.29,2.1,2.59
,-9.404,-0.436,-3.683,-9.591,-0.182,-2.544,3.71,1.4,2.8
,-9.397,-0.526,-3.104,-9.462,-0.431,-2.536,6.65,0.77,3.22
,-9.588,-0.232,-2.86,-9.387,-0.684,-2.472,9.1,-0.07,2.87
9389.0,-9.44,-0.842,-2.321,-9.672,0.019,-2.749,2.1,-0.14,1.82
,-9.519,-0.768,-2.3,-9.354,-0.251,-2.848,3.78,0.49,2.45
,-9.557,-0.51,-2.103,-9.363,-0.663,-2.869,5.11,1.05,2.66
,-9.739,-0.146,-2.364,-9.598,-0.625,-3.206,5.6,0.91,2.24
9465.0,-9.639,-0.287,-3.381,-9.524,-0.828,-2.714,3.99,-1.12,0.98
,-9.593,0.105,-3.475,-9.576,-0.919,-2.328,3.71,-2.1,0.91
,-9.469,-0.034,-3.209,-9.715,-0.596,-2.206,1.47,-2.73,0.42
,-9.351,-0.598,-2.905,-9.667,-0.345,-2.012,1.4,-2.8,0.56
9541.0,-9.531,-0.383,-1.663,-9.402,-1.177,-1.584,6.72,-1.54,1.82
,-9.531,-0.378,-1.464,-9.404,-1.225,-1.395,4.69,-0.35,2.03
,-9.615,-0.486,-1.405,-9.555,-1.067,-0.991,2.24,0.7,2.03
,-9.543,-0.857,-1.596,-9.459,-0.715,-0.488,-0.28,1.89,2.31
9617.0,-9.385,-0.555,-0.187,-9.708,-0.39,-1.125,2.31,12.81,6.37
,-9.442,-0.756,0.512,-9.354,-0.127,-1.462,0.35,16.24,7.63
,-9.77,-0.658,-0.258,-9.072,-0.895,-1.618,-0.49,18.62,8.19
,-9.89,-0.799,-0.543,-9.081,-1.723,-2.111,-4.34,20.09,7.77
9692.0,-9.119,-1.953,-1.914,-9.584,1.685,-3.441,3.36,33.53,15.4
,-9.04,-1.452,-1.752,-9.225,1.675,-3.484,19.18,35.42,17.5
,-9.024,-0.479,-2.28,-8.71,1.173,-3.02,29.4,35.49,17.5
,-9.296,0.694,-3.003,-8.2,0.196,-3.345,28.56,33.39,15.12
9768.0,-8.248,-0.627,-1.814,-9.672,0.16,-2.843,-1.33,36.61,7.42
,-9.081,-0.747,-2.721,-8.873,0.249,-3.226,2.87,37.1,6.51
,-9.354,-0.562,-2.639,-8.655,-0.203,-4.104,3.92,36.54,5.04
,-9.804,-0.38,-2.228,-8.667,-0.45,-4.748,5.95,36.96,5.67
9843.0,-8.509,-0.337,-5.331,-9.617,0.505,-5.252,-3.29,32.97,9.03
,-8.368,-0.261,-4.58,-10.11,0.739,-5.927,1.26,35.14,9.31
,-8.758,0.129,-4.405,-9.804,0.543,-6.09,8.33,35.35,8.4
,-8.67,0.361,-4.934,-8.629,-0.089,-5.666,8.82,31.92,5.25
9919.0,-7.81,-1.062,-4.949,-9.232,1.137,-4.393,-4.9,25.41,5.88
,-7.794,-1.584,-4.551,-9.34,1.919,-4.338,-2.17,24.01,4.62
,-8.571,-1.352,-3.881,-9.057,2.06,-4.381,3.92,22.26,5.04
,-9.244,-0.266,-4.087,-9.263,1.656,-4.231,9.87,19.67,6.79
9995.0,-9.548,1.268,-4.082,-8.246,-0.56,-4.568,-8.68,21.0,2.45
,-9.598,1.153,-4.329,-8.933,-0.995,-4.616,-9.59,19.04,1.33
,-8.744,0.952,-4.525,-9.653,-1.055,-4.374,-9.31,18.55,1.12
,-8.256,0.201,-4.882,-9.517,-0.376,-4.415,-8.4,18.76,0.84
10071.0,-8.945,0.455,-4.35,-8.665,0.857,-5.875,15.4,13.09,1.26
,-8.196,0.993,-5.193,-8.638,0.55,-5.53,12.81,14.63,1.26
,-8.191,1.122,-5.468,-8.516,-0.524,-5.315,8.54,15.61,-0.28
,-8.334,1.041,-5.664,-8.344,-1.551,-5.516,6.23,15.61,-1.89
10147.0,-8.581,-2.491,-5.142,-8.55,-1.132,-5.662,5.74,11.48,0.56
,-10.005,-2.608,-5.068,-8.512,-0.601,-5.693,12.95,11.27,-0.63
,-9.952,-2.142,-5.073,-8.71,-0.436,-6.035,20.16,9.45,-2.59
,-9.361,-1.462,-5.341,-8.756,-0.045,-5.642,24.71,7.56,-2.45
10222.0,-8.607,0.268,-5.64,-8.775,-0.89,-5.609,17.01,-0.56,6.44
,-8.332,0.282,-5.772,-8.839,-1.163,-5.312,15.89,-2.03,4.83
,-8.437,-0.412,-5.664,-8.5,-0.983,-5.068,13.37,-2.45,6.09
,-8.894,-0.804,-5.19,-8.866,-0.421,-4.922,11.9,-2.52,9.87
10298.0,-9.375,0.12,-4.903,-8.732,1.225,-4.925,19.32,-2.59,12.11
,-9.222,0.972,-4.783,-8.478,0.847,-4.908,20.09,-0.91,10.57
,-9.323,1.802,-4.707,-8.574,0.584,-4.822,16.52,0.42,8.96
,-9.158,1.764,-4.824,-8.648,0.345,-4.673,8.12,1.05,7.14
10374.0,-8.574,-0.045,-4.542,-8.758,0.857,-5.647,-5.18,5.53,4.9
,-8.579,0.156,-4.989,-8.772,0.84,-5.631,-6.72,4.9,5.39
,-8.856,0.503,-5.367,-8.844,0.62,-5.528,-9.17,4.62,5.32
,-9.005,0.586,-5.532,-8.77,0.29,-5.48,-11.9,3.71,4.2
10450.0,-8.892,0.215,-5.36,-8.265,0.861,-5.642,-21.21,2.94,-0.07
,-9.052,0.414,-5.341,-8.385,0.428,-5.458,-20.72,1.68,-0.98
,-8.837,0.491,-5.188,-8.756,-0.491,-5.252,-21.98,0.63,-0.7
,-8.354,0.814,-5.336,-9.239,-1.189,-4.941,-22.33,0.14,0.63
10525.0,-9.261,-0.983,-5.109,-8.899,0.44,-4.805,-16.1,-1.96,3.71
,-8.842,-0.739,-5.2,-8.794,0.67,-4.872,-8.89,-2.87,3.78
,-8.789,-0.206,-5.185,-8.583,0.974,-5.039,-2.45,-3.78,3.78
,-8.969,0.263,-5.185,-8.55,0.876,-5.293,1.54,-5.88,3.43
10601.0,-8.772,0.593,-5.298,-8.722,0.447,-5.331,-5.18,-8.47,0.0
,-9.148,0.22,-5.341,-8.404,0.704,-5.485,-4.55,-8.96,-0.49
,-9.083,0.141,-5.183,-8.512,0.503,-5.523,-1.61,-9.45,-1.19
,-9.009,0.103,-5.054,-9.275,0.302,-5.441,1.75,-11.13,-1.05
10676.0,-9.586,0.352,-5.444,-8.509,0.201,-5.863,4.76,-16.1,-4.83
,-9.213,0.378,-5.516,-8.626,0.404,-5.743,4.62,-16.94,-4.06
,-9.117,-0.089,-5.209,-8.705,0.83,-5.492,1.05,-17.78,-2.66
,-8.698,0.112,-5.812,-8.758,0.993,-5.468,-1.19,-19.88,-0.56
10752.0,-8.552,0.885,-5.427,-9.088,0.481,-4.558,2.87,-26.88,-0.77
,-8.772,0.345,-5.102,-9.215,0.993,-4.647,1.47,-26.46,0.21
,-8.866,-0.089,-4.788,-9.16,1.194,-4.501,4.34,-26.53,0.56
,-8.947,-0.014,-4.762,-9.282,1.266,-4.283,10.71,-27.72,0.0
10828.0,-9.079,1.326,-4.578,-8.909,0.914,-3.989,9.1,-36.61,-5.04
,-8.734,1.07,-4.642,-9.045,1.017,-3.104,5.81,-37.87,-6.37
,-8.253,0.768,-4.259,-9.208,0.89,-1.809,5.81,-38.64,-7.21
,-8.485,0.665,-4.152,-9.39,1.302,-2.876,8.54,-39.83,-8.54
10904.0,-9.024,1.488,-2.977,-8.971,-0.964,-0.94,2.94,-44.66,-17.64
,-9.162,1.048,-2.654,-8.799,-0.33,-0.055,-3.64,-44.31,-18.34
,-9.201,0.474,-2.575,-8.906,0.318,-0.244,-10.01,-43.12,-19.04
,-9.014,-0.447,-1.266,-9.115,0.672,-1.175,-7.77,-39.06,-19.67
10980.0,-9.141,0.184,-1.101,-9.294,-1.12,-0.196,-7.28,-30.94,-20.93
,-9.112,-0.668,-0.608,-9.55,-1.149,0.215,-5.81,-27.58,-18.69
,-9.091,-1.156,-0.436,-9.624,-1.299,-0.045,0.21,-24.08,-17.71
,-9.098,-1.323,0.103,-9.651,-1.96,0.153,6.79,-20.37,-17.22
11055.0,-9.474,-2.252,0.172,-9.653,-1.094,-0.33,-0.63,-3.99,-9.1
,-9.462,-1.996,-0.098,-9.531,-0.806,-0.266,0.98,-0.14,-7.21
,-9.493,-1.9,-0.089,-9.801,-0.316,-0.876,2.38,3.78,-4.83
,-9.548,-1.579,-0.105,-9.909,0.139,-1.711,3.15,7.35,-2.8
11131.0,-9.706,0.115,-1.962,-9.234,-0.689,-4.235,-13.09,17.64,-0.84
,-9.715,0.122,-2.831,-9.208,-1.072,-4.231,-17.08,17.92,-1.33
,-9.428,-0.311,-3.269,-9.354,-1.129,-4.2,-19.25,17.92,-1.26
,-9.323,-0.689,-3.546,-9.584,-0.833,-4.226,-16.38,17.78,-0.63
11207.0,-9.536,-0.634,-4.171,-9.368,-0.826,-3.063,7.07,10.15,2.8
,-9.414,-0.158,-4.049,-9.629,-0.916,-2.682,7.84,8.4,2.94
,-9.332,-0.108,-3.683,-10.0,-0.498,-2.814,5.46,7.28,2.8
,-9.385,-0.328,-3.429,-9.873,-0.057,-2.891,3.43,6.44,2.59
11283.0,-9.603,0.227,-3.13,-9.316,-0.467,-3.367,9.66,5.18,2.73
,-9.438,0.05,-3.324,-9.375,-0.414,-3.348,3.92,4.34,1.82
,-9.17,-0.407,-3.333,-9.538,-0.517,-3.099,1.89,3.99,1.47
,-9.251,-0.491,-3.467,-9.524,-0.747,-3.195,2.73,3.29,1.12
11358.0,-9.442,-0.957,-2.96,-9.648,-0.23,-2.484,3.92,0.56,1.61
,-9.44,-0.857,-2.876,-9.698,-0.275,-2.328,8.47,0.77,2.31
,-9.543,-0.498,-2.886,-9.667,-0.034,-2.536,11.41,0.84,2.59
,-9.567,-0.23,-2.766,-9.555,0.065,-2.659,11.62,1.12,2.87
11434.0,-9.335,-0.065,-2.804,-9.495,-0.352,-2.776,2.31,1.19,1.54
,-9.263,-0.34,-2.965,-9.411,-0.498,-2.563,1.96,1.47,1.82
,-9.268,-0.445,-2.891,-9.435,-0.725,-2.266,3.92,1.54,2.03
,-9.404,-0.524,-2.804,-9.39,-0.924,-1.754,5.95,1.82,2.31
11509.0,-9.474,-1.067,-1.168,-9.258,0.237,-2.898,4.76,6.79,5.88
,-9.593,-1.196,-0.668,-8.698,0.357,-3.719,4.55,9.03,7.07
,-9.811,-0.763,-0.885,-8.49,-0.273,-3.946,4.55,10.57,7.77
,-9.775,-0.129,-1.821,-8.72,-0.861,-3.592,-0.63,10.64,6.79
11585.0,-9.196,-1.464,-2.632,-9.378,0.519,-1.153,-5.95,12.39,7.91
,-9.71,-1.725,-1.575,-9.55,1.117,-2.082,5.88,14.49,10.85
,-10.019,-1.572,-0.651,-9.284,1.388,-2.082,16.66,16.52,13.3
,-9.943,-0.436,-1.565,-8.894,1.134,-3.527,22.96,16.73,13.3
11661.0,-8.303,0.646,-4.697,-9.689,-1.464,-3.159,-13.58,16.73,5.67
,-8.631,-0.093,-4.484,-9.344,-0.981,-1.898,-17.29,15.68,4.41
,-9.313,-0.771,-4.671,-9.21,0.017,-1.931,-13.93,15.75,6.02
,-9.713,-1.311,-3.781,-8.772,0.603,-1.022,-4.55,17.64,8.12
11737.0,-9.383,0.591,-1.275,-8.373,-1.756,-2.936,29.68,25.48,8.12
,-9.5,0.613,-1.297,-8.198,-2.285,-4.214,19.67,26.88,7.28
,-9.39,0.282,-2.175,-8.586,-2.953,-4.343,8.89,28.07,8.05
,-8.392,-0.749,-2.458,-8.72,-2.773,-4.554,-4.9,28.7,8.96
11813.0,-8.65,-1.582,-3.915,-9.792,2.414,-3.747,24.43,36.4,23.03
,-8.775,0.158,-4.097,-9.679,2.216,-3.293,34.58,34.65,19.46
,-9.179,1.493,-4.231,-8.892,1.531,-3.022,32.48,31.08,13.23
,-9.722,2.187,-4.243,-8.887,0.313,-3.448,21.7,29.4,9.52
11888.0,-8.705,-0.445,-3.695,-8.514,2.24,-5.418,-15.05,28.21,11.55
,-8.93,-0.658,-4.058,-8.559,2.802,-5.252,-7.07,26.81,12.39
,-8.82,-0.067,-4.078,-8.82,2.788,-5.571,4.06,28.42,12.46
,-8.887,1.309,-4.535,-9.189,2.41,-5.224,15.54,27.72,10.57
11964.0,-9.079,1.555,-5.875,-8.428,-1.199,-4.925,-20.86,18.48,1.89
,-9.409,0.589,-5.461,-9.115,-1.486,-4.867,-24.22,17.5,1.26
,-8.753,-0.306,-5.487,-9.201,-1.024,-5.114,-22.61,16.45,0.28
,-8.071,-0.546,-5.386,-9.105,0.797,-5.465,-15.68,15.96,-0.07
12040.0,-8.497,2.096,-6.267,-9.742,0.431,-4.97,20.79,8.4,-0.91
,-8.035,2.544,-6.286,-8.519,-0.838,-5.02,19.11,7.28,-5.46
,-8.074,2.347,-5.755,-7.988,-1.5,-5.482,15.75,7.84,-9.59
,-9.277,1.395,-5.15,-8.495,-1.754,-5.949,9.87,7.28,-10.99
12116.0,-8.741,-2.149,-5.767,-10.335,-0.266,-5.41,12.11,4.48,1.61
,-8.614,-1.881,-5.918,-9.289,-0.586,-5.494,18.97,3.78,2.38
,-9.079,-1.184,-6.241,-8.54,-1.137,-5.173,24.01,1.61,3.99
,-9.619,-0.376,-6.425,-8.279,-1.529,-4.712,24.15,-0.84,6.44
12191.0,-8.423,-0.864,-4.676,-8.775,3.013,-5.03,11.62,-2.52,12.46
,-8.593,-0.007,-4.877,-8.476,2.185,-4.59,12.74,-0.56,12.67
,-9.153,1.326,-4.992,-8.397,1.5,-4.896,12.53,0.14,12.11
,-8.969,2.723,-5.145,-8.825,1.24,-4.834,9.87,0.49,10.08
12267.0,-8.763,1.534,-5.087,-9.093,0.426,-5.049,-7.63,6.86,0.07
,-8.536,1.634,-5.48,-8.93,0.574,-5.465,-10.85,7.77,-1.96
,-8.624,0.928,-5.585,-8.954,0.177,-5.659,-15.68,8.89,-3.36
,-9.009,0.503,-5.257,-8.804,-0.191,-5.741,-17.36,9.45,-3.78
12342.0,-8.859,-0.323,-5.681,-9.012,-0.66,-5.458,-24.64,7.56,-3.71
,-8.868,-0.68,-5.748,-8.973,-0.146,-5.37,-24.08,6.65,-1.19
,-8.978,-0.842,-5.64,-8.969,0.177,-5.207,-21.7,5.6,1.61
,-9.055,-0.866,-5.351,-9.177,0.464,-5.114,-17.15,4.13,3.71
12418.0,-9.086,0.57,-5.406,-8.397,0.323,-5.906,-4.76,-1.89,-0.77
,-8.859,0.701,-5.865,-8.265,0.275,-6.133,-4.55,-3.57,-0.07
,-8.787,0.436,-5.664,-8.813,0.237,-6.145,-5.6,-5.39,0.14
,-8.681,0.337,-5.86,-9.395,0.215,-6.123,-4.76,-8.19,-0.7
12494.0,-9.325,0.337,-6.143,-8.275,0.172,-5.726,8.12,-15.47,-2.24
,-8.892,0.206,-6.291,-8.607,0.345,-5.556,8.33,-15.82,-1.75
,-8.5,0.086,-6.21,-8.696,0.455,-5.709,9.38,-15.82,-0.63
,-8.33,0.132,-5.93,-8.827,0.268,-5.609,12.81,-15.89,0.56
12570.0,-8.921,0.51,-6.006,-8.509,1.091,-5.106,17.57,-25.13,2.03
,-9.282,0.718,-5.999,-8.512,0.921,-4.75,18.83,-28.49,0.42
,-9.294,0.651,-5.779,-8.586,0.919,-4.542,18.76,-31.78,0.28
,-8.78,1.0,-5.453,-8.725,1.11,-4.518,16.24,-34.09,0.77
12645.0,-8.753,1.275,-4.599,-8.847,0.811,-3.604,4.55,-43.82,-5.81
,-8.985,1.395,-4.53,-8.715,0.912,-3.573,1.61,-46.27,-6.79
,-9.05,1.211,-4.343,-8.461,0.804,-3.29,0.21,-47.11,-7.63
,-8.885,0.912,-3.898,-8.442,1.316,-3.759,1.68,-46.9,-8.82
12721.0,-8.77,1.689,-3.687,-8.823,0.215,-0.792,10.78,-51.73,-17.57
,-9.476,1.594,-3.003,-8.598,-0.17,-0.148,10.29,-50.61,-17.99
,-9.722,1.127,-2.472,-8.703,-0.366,0.857,6.44,-48.37,-18.83
,-9.371,0.782,-1.374,-9.155,0.242,-0.244,4.62,-44.94,-20.44
12797.0,-9.217,0.893,-0.165,-8.772,-1.302,1.22,10.92,-36.47,-25.9
,-9.426,0.57,0.361,-9.158,-1.261,1.395,6.16,-32.41,-26.46
,-9.519,0.089,0.129,-9.598,-1.074,1.01,1.54,-27.86,-26.46
,-9.052,-0.565,0.785,-9.588,-1.448,0.723,-0.98,-23.52,-25.27
12873.0,-9.603,-1.689,0.06,-9.713,-2.965,-1.584,-6.44,-4.83,-18.2
,-9.435,-2.419,-0.536,-9.854,-2.331,-1.531,-10.85,-0.35,-15.75
,-9.246,-3.472,-0.782,-9.806,-1.287,-1.768,-10.57,4.34,-12.18
,-9.418,-3.592,-1.326,-9.517,-0.732,-2.254,-3.43,7.91,-8.33
12949.0,-9.328,-0.682,-2.405,-9.308,0.105,-3.869,4.27,14.42,0.14
,-9.469,-0.5,-2.903,-9.107,0.045,-3.989,5.6,14.49,0.98
,-9.672,-0.294,-3.283,-9.093,-0.438,-3.747,8.12,13.79,1.33
,-9.574,0.036,-3.888,-9.385,-0.706,-3.819,9.1,12.18,1.12
13024.0,-9.507,-0.797,-3.63,-9.249,-0.282,-2.402,-0.77,4.27,-0.21
,-9.509,-0.766,-3.283,-9.119,-0.629,-2.154,-3.36,3.15,-0.56
,-9.756,-1.015,-3.398,-9.454,-1.474,-2.024,-7.21,1.89,-0.91
,-9.351,-0.766,-3.053,-9.751,-1.436,-2.096,-9.87,0.35,-2.17
13100.0,-9.689,-0.859,-2.161,-9.864,-0.407,-2.938,-3.92,2.17,1.4
,-9.648,-0.177,-2.41,-9.713,-0.498,-3.183,-2.03,3.15,1.96
,-9.586,-0.05,-2.467,-9.517,-0.433,-3.518,-2.73,4.41,1.89
,-9.866,0.041,-2.816,-9.363,-0.443,-3.762,-3.99,4.62,1.26
13175.0,-9.208,-0.309,-3.853,-9.576,-0.847,-2.391,0.35,0.42,-0.07
,-9.153,-0.593,-3.606,-9.651,-0.907,-2.295,1.4,0.0,0.42
,-9.261,-0.704,-3.36,-9.564,-1.055,-2.039,3.78,-0.63,0.91
,-9.44,-0.773,-2.771,-9.56,-0.845,-1.833,6.09,-0.84,1.4
13251.0,-9.514,-0.735,-1.668,-9.201,-1.354,-0.23,2.66,0.7,3.92
,-9.378,-0.826,-1.46,-8.878,-1.79,0.531,-0.35,2.03,4.41
,-9.524,-1.242,-1.084,-8.993,-2.383,1.307,-2.38,3.57,5.18
,-9.538,-1.307,-0.936,-9.387,-2.692,1.981,-2.94,5.04,5.53
13327.0,-9.756,-2.441,1.847,-9.438,1.153,-2.374,14.98,30.24,18.27
,-10.06,-1.496,1.036,-9.081,1.457,-4.322,21.14,34.23,20.09
,-9.957,-0.321,-0.196,-8.796,1.333,-4.434,20.23,36.26,20.3
,-9.758,0.232,-0.83,-8.672,0.979,-4.984,12.46,37.73,19.53
13403.0,-8.361,0.567,-4.058,-8.983,1.031,-3.542,-28.77,34.79,16.03
,-8.172,0.251,-4.176,-9.55,0.036,-3.051,-24.92,33.74,14.98
,-8.138,0.701,-3.539,-9.811,-1.216,-3.381,-18.27,30.73,11.41
,-8.346,1.251,-3.518,-9.146,-1.883,-2.197,-15.54,27.79,8.4
13478.0,-9.241,-1.778,-3.676,-8.543,1.225,-5.47,-4.34,35.91,15.68
,-9.182,-0.861,-3.9,-7.808,0.105,-3.869,7.7,32.55,14.28
,-10.01,0.572,-5.331,-7.485,-0.727,-3.716,14.98,26.39,12.6
,-9.418,1.656,-5.829,-8.179,-1.326,-3.017,11.76,24.5,11.83
13554.0,-9.366,-1.706,-3.726,-8.837,-1.431,-4.654,-1.61,35.14,11.62
,-9.696,-2.525,-3.778,-8.141,0.321,-5.513,-0.49,34.44,16.87
,-9.71,-3.022,-3.8,-8.011,1.474,-5.516,3.78,35.35,23.94
,-9.033,-2.714,-3.999,-8.074,2.52,-5.678,12.39,35.98,28.91
13629.0,-8.22,2.936,-5.159,-8.916,-0.249,-4.762,22.47,28.42,22.54
,-8.887,2.876,-4.745,-8.863,-0.627,-4.367,10.57,29.68,20.02
,-9.612,1.919,-4.547,-8.734,-0.514,-4.702,-1.82,27.58,17.78
,-9.627,0.727,-4.692,-9.265,0.361,-5.075,-9.66,25.48,18.2
13705.0,-9.289,2.065,-5.848,-8.837,5.444,-6.379,29.33,12.04,16.87
,-8.717,4.255,-6.64,-9.088,4.123,-5.839,33.32,7.7,13.58
,-8.272,5.836,-7.265,-8.593,2.893,-5.604,28.49,6.3,10.08
,-8.557,6.104,-6.657,-7.88,0.864,-5.535,14.49,9.1,3.5
13781.0,-7.952,-1.362,-5.587,-7.959,0.146,-6.229,-17.08,5.88,-13.09
,-8.629,-3.058,-5.686,-7.655,1.661,-6.241,-9.03,3.85,-11.27
,-9.643,-3.393,-5.678,-7.956,1.977,-6.033,4.55,2.45,-9.66
,-9.507,-1.701,-5.908,-8.696,0.907,-5.669,20.65,0.14,-10.15
13857.0,-9.153,-0.809,-4.915,-9.074,-1.656,-5.207,-8.33,-1.19,-5.81
,-9.574,-2.146,-4.771,-8.689,-0.672,-5.197,-7.63,-1.61,-3.43
,-9.483,-3.058,-4.362,-8.354,0.821,-4.965,-0.21,-2.66,-1.96
,-9.057,-2.501,-4.503,-7.882,1.642,-4.975,11.27,-3.85,-0.56
13933.0,-8.354,2.115,-4.594,-7.949,1.053,-4.463,18.69,-4.41,10.36
,-9.82,2.749,-4.039,-8.016,0.964,-4.767,11.2,-3.22,6.09
,-9.38,2.223,-4.477,-9.012,0.787,-4.953,2.8,-2.8,2.24
,-8.698,1.531,-4.094,-9.572,0.804,-5.085,-3.85,-0.7,0.07
14008.0,-9.098,0.73,-5.286,-8.835,0.488,-5.753,-7.84,7.35,-4.13
,-8.495,-0.101,-4.996,-9.115,0.069,-5.82,-10.85,8.96,-2.52
,-8.433,-0.66,-4.453,-9.146,-0.443,-5.805,-11.76,10.08,-0.77
,-8.562,0.108,-5.097,-9.112,-0.648,-5.408,-11.34,9.38,-0.42
14084.0,-9.1,-0.687,-5.016,-8.794,-1.137,-5.324,-11.97,9.1,2.8
,-8.851,-0.416,-5.291,-8.799,-0.713,-5.434,-9.17,7.21,2.8
,-8.536,-0.711,-5.583,-8.531,0.196,-5.683,-8.19,6.58,3.15
,-8.559,-0.912,-5.473,-8.562,0.689,-5.87,-7.07,6.72,4.62
14160.0,-8.65,0.622,-5.879,-9.179,-0.498,-4.992,-2.17,0.84,10.22
,-8.772,0.589,-5.918,-9.016,0.455,-5.475,-5.32,0.07,10.29
,-8.815,0.297,-5.793,-8.574,1.488,-5.999,-7.28,-0.35,11.34
,-8.725,-0.328,-5.528,-8.471,2.058,-6.334,-7.07,0.0,10.78
14236.0,-8.885,1.876,-6.226,-8.648,0.751,-5.798,10.29,-9.45,3.15
,-9.167,1.517,-6.164,-8.397,0.732,-5.351,9.52,-9.8,0.98
,-9.021,1.407,-6.241,-8.454,1.11,-5.642,10.92,-9.94,-0.28
,-8.684,1.031,-6.08,-8.598,1.476,-6.001,12.67,-10.36,-0.28
14311.0,-8.746,1.467,-6.253,-8.586,1.098,-5.848,8.4,-22.26,-1.89
,-9.162,1.692,-6.169,-8.476,0.833,-5.889,7.91,-24.36,-3.57
,-9.335,1.237,-5.956,-8.509,0.615,-5.714,5.53,-26.6,-6.3
,-8.909,1.323,-5.982,-8.37,0.445,-5.709,3.43,-28.07,-6.51
14387.0,-8.504,0.38,-5.645,-9.062,1.438,-4.743,5.46,-39.06,-10.15
,-8.859,0.428,-5.252,-8.681,1.732,-4.604,7.14,-40.95,-9.31
,-9.072,0.794,-5.02,-8.145,1.491,-4.369,9.03,-42.63,-9.03
,-9.244,1.079,-4.783,-8.093,1.168,-3.884,9.24,-44.66,-10.15
14462.0,-8.437,0.778,-3.273,-8.887,-0.029,-1.776,-1.05,-47.6,-18.2
,-8.787,0.675,-2.958,-9.05,-0.026,-1.718,1.89,-47.88,-19.39
,-9.012,0.806,-2.986,-8.861,0.182,-1.922,2.59,-49.07,-20.72
,-8.866,0.347,-2.544,-8.78,0.077,-0.055,2.38,-49.0,-20.58
14538.0,-8.947,-0.093,0.139,-9.263,0.842,0.993,19.18,-37.45,-20.09
,-8.859,-0.165,1.33,-9.222,0.488,0.713,19.11,-32.83,-19.81
,-8.964,-0.077,1.747,-9.093,-0.306,0.275,19.25,-28.77,-20.44
,-9.452,0.404,0.818,-8.918,-1.4,0.136,14.28,-26.81,-21.63
14614.0,-9.206,-2.292,-0.034,-9.567,-2.319,-2.051,-2.8,-6.23,-14.98
,-9.598,-2.283,-0.799,-9.421,-1.871,-2.335,2.31,-3.71,-12.67
,-9.581,-2.324,-1.173,-9.414,-1.443,-2.34,3.78,-1.33,-10.85
,-9.562,-2.343,-1.472,-9.395,-0.912,-2.228,3.08,1.4,-8.96
14690.0,-9.6,-0.266,-2.082,-9.478,0.043,-2.515,4.76,9.66,-1.4
,-9.825,-0.019,-2.053,-9.383,-0.56,-2.541,3.85,10.22,-1.54
,-9.797,0.388,-2.228,-9.538,-0.615,-3.156,2.66,10.5,-1.61
,-9.634,0.388,-2.257,-9.646,-0.191,-3.987,1.19,10.85,-1.12
14766.0,-9.392,0.132,-4.609,-9.378,-1.366,-3.881,-3.29,7.84,-1.82
,-9.141,-0.168,-5.042,-9.655,-0.967,-3.498,-7.56,5.81,-1.82
,-9.038,-0.771,-5.001,-9.715,-0.287,-3.171,-6.37,3.99,-1.05
,-9.127,-1.295,-4.458,-9.555,0.486,-3.015,1.4,3.15,0.07
14841.0,-9.328,0.495,-2.759,-9.816,-0.617,-2.259,9.8,-2.03,1.05
,-9.244,-0.177,-2.532,-9.646,0.11,-2.697,3.22,-1.4,0.56
,-9.407,-0.969,-2.233,-9.38,0.357,-2.994,2.94,-0.7,0.56
,-9.751,-1.017,-2.3,-9.294,-0.158,-3.374,6.72,-0.35,0.49
14917.0,-9.141,-0.663,-3.333,-9.67,-0.105,-2.548,-3.22,-1.12,-1.54
,-9.153,-0.857,-2.977,-9.624,-0.129,-2.635,-0.77,-0.98,-1.26
,-9.43,-0.794,-2.661,-9.409,-0.311,-2.706,2.38,-0.7,-0.7
,-9.584,-0.555,-2.434,-9.347,-0.625,-2.599,4.76,-0.35,-0.28
14993.0,-9.34,-0.723,-2.529,-9.636,-0.416,-2.338,-2.24,0.35,-0.21
,-9.507,-0.61,-2.407,-9.531,-0.785,-2.491,0.07,0.98,0.07
,-9.631,-0.486,-2.194,-9.485,-1.091,-2.68,0.63,1.68,0.35
,-9.603,-0.4,-2.051,-9.497,-1.115,-2.737,0.28,2.59,0.77
15069.0,-9.44,-1.151,-2.594,-9.462,0.089,-2.778,6.58,5.25,4.62
,-9.514,-0.637,-2.632,-9.672,-0.414,-2.606,10.01,5.74,5.25
,-9.545,-0.103,-2.766,-9.6,-0.299,-2.027,9.52,5.53,5.18
,-9.474,0.103,-2.692,-9.622,-0.093,-1.333,6.86,5.32,4.76
15144.0,-9.495,-0.419,-0.849,-9.103,-1.352,-0.715,-18.76,4.2,1.47
,-9.569,-0.972,-0.589,-9.27,-1.395,-1.187,-22.47,6.02,2.59
,-9.502,-0.964,-0.818,-9.256,-1.194,-1.759,-24.08,6.58,2.87
,-9.05,-1.237,-0.598,-9.239,-0.909,-1.201,-23.1,8.82,4.83
15220.0,-9.208,-0.246,-2.345,-8.911,-0.538,-2.381,-4.2,29.75,15.82
,-8.49,0.359,-2.938,-9.033,-0.538,-2.206,-5.67,28.56,14.35
,-8.32,0.287,-2.838,-8.502,-0.246,-0.957,-5.32,28.77,13.44
,-8.794,-0.141,-3.104,-9.385,0.263,-2.264,-4.83,30.73,14.07
15295.0,-9.624,1.273,-3.475,-7.856,-1.242,-4.07,12.53,31.71,10.01
,-10.067,1.113,-4.415,-8.021,-0.972,-4.171,-2.87,26.32,9.87
,-9.119,0.275,-4.659,-8.71,-0.431,-4.2,-13.16,27.44,12.67
,-8.332,-0.861,-3.408,-9.033,-0.024,-2.9,-8.12,35.42,15.75
15371.0,-9.273,0.821,-2.967,-9.928,1.452,-6.08,18.83,38.36,15.19
,-8.593,1.819,-4.228,-9.641,0.141,-5.226,12.39,31.64,11.83
,-8.801,2.115,-5.836,-9.143,-0.603,-5.599,1.47,25.69,7.91
,-9.261,2.099,-6.234,-8.605,-0.948,-5.647,-6.58,23.66,7.56
15447.0,-8.428,-1.412,-5.501,-8.593,-2.182,-4.18,-6.79,19.67,7.77
,-8.569,-2.034,-5.714,-8.959,0.275,-4.523,-4.13,19.32,10.5
,-8.514,-2.508,-5.183,-9.509,2.86,-4.604,-0.42,19.88,13.16
,-8.275,-2.953,-4.822,-9.471,4.389,-4.922,6.02,21.91,17.36
15523.0,-9.069,5.037,-4.702,-9.012,-1.455,-3.3,9.87,10.01,10.22
,-8.825,4.145,-4.527,-8.971,-1.096,-3.704,-13.09,11.9,9.94
,-9.215,2.02,-4.599,-8.593,-0.318,-4.535,-30.45,14.7,10.36
,-8.801,-0.421,-3.666,-9.098,0.725,-4.87,-31.5,18.9,10.85
15599.0,-9.191,2.101,-5.272,-10.304,2.489,-4.829,36.33,12.32,-1.61
,-9.119,3.879,-5.592,-9.177,1.579,-5.846,39.62,10.22,-6.65
,-9.409,4.156,-5.336,-8.052,0.031,-6.43,32.55,9.45,-12.95
,-9.655,3.532,-4.913,-6.537,-2.448,-6.485,21.14,8.75,-17.99
15674.0,-6.911,-4.599,-5.946,-8.72,-2.005,-6.011,-1.82,8.12,-8.19
,-8.851,-5.446,-6.004,-8.492,-1.857,-5.248,6.16,7.14,-2.52
,-9.871,-4.702,-6.147,-9.131,-1.926,-4.889,16.31,3.22,2.45
,-9.521,-3.228,-5.982,-9.33,-1.598,-5.15,21.84,0.07,7.35
15750.0,-8.861,-0.799,-5.157,-9.679,5.051,-4.575,11.48,-1.75,20.44
,-8.325,0.218,-4.98,-8.988,4.487,-4.166,17.15,0.0,19.32
,-8.165,1.986,-4.951,-8.236,3.283,-4.094,22.33,2.17,16.73
,-9.127,3.881,-4.853,-8.392,2.192,-4.087,23.87,3.92,12.6
15826.0,-8.205,1.637,-4.606,-9.287,0.168,-5.779,-10.78,7.28,-2.59
,-8.531,1.601,-4.903,-9.158,-0.546,-5.47,-9.73,8.89,-5.53
,-8.971,1.543,-5.269,-8.839,-0.522,-5.659,-11.2,8.75,-7.84
,-9.261,0.969,-5.676,-8.227,-0.51,-6.033,-16.17,8.05,-9.52
15902.0,-8.196,-0.912,-6.176,-8.882,-1.333,-5.446,-24.99,5.11,-3.64
,-8.837,-1.381,-5.968,-8.684,-0.617,-5.54,-24.43,4.62,-0.56
,-9.036,-1.754,-5.741,-8.983,-0.684,-5.032,-21.21,3.78,2.52
,-8.973,-2.02,-5.377,-9.335,-0.471,-5.013,-16.24,2.59,5.95
15977.0,-9.311,-0.462,-5.08,-8.866,0.108,-5.899,4.34,0.07,8.75
,-9.308,-0.179,-5.051,-8.906,0.524,-6.097,6.37,-2.17,10.29
,-8.732,0.0,-5.729,-8.799,1.158,-6.391,7.14,-4.06,10.08
,-8.555,0.019,-5.812,-8.545,1.474,-6.456,9.24,-4.83,8.4
16053.0,-8.382,1.543,-6.403,-8.844,1.486,-5.839,9.17,-13.09,4.83
,-8.485,1.385,-6.202,-9.165,1.354,-5.652,7.63,-13.44,3.43
,-8.643,1.321,-6.061,-8.873,1.405,-5.846,7.35,-14.28,2.03
,-8.825,1.445,-6.09,-8.521,1.297,-5.817,7.91,-15.68,0.63
16128.0,-8.234,1.189,-5.851,-8.693,0.972,-4.97,8.68,-24.71,1.4
,-8.308,1.153,-6.023,-8.799,0.955,-4.561,11.13,-27.09,-1.12
,-8.557,0.859,-5.552,-8.954,1.06,-4.547,12.39,-28.98,-3.22
,-8.748,0.914,-5.212,-8.892,1.242,-4.515,11.97,-30.94,-5.25
16204.0,-8.89,1.323,-4.439,-8.703,0.452,-3.719,0.77,-39.48,-9.38
,-8.823,1.395,-4.326,-8.792,0.302,-3.271,-1.82,-41.02,-10.36
,-8.885,1.225,-4.276,-9.002,0.254,-3.195,-5.53,-42.84,-11.83
,-8.684,0.854,-4.185,-9.072,0.337,-3.329,-7.42,-43.19,-12.88
16280.0,-9.074,0.098,-2.97,-8.66,-0.481,-1.653,0.42,-44.8,-16.87
,-8.851,-0.184,-2.819,-9.048,-0.371,-1.558,0.7,-44.31,-15.4
,-8.849,-0.196,-2.938,-9.21,0.237,-2.012,0.14,-44.52,-15.12
,-8.835,-0.156,-2.778,-9.387,0.337,-2.18,2.1,-43.12,-15.33
16356.0,-9.33,0.457,-2.412,-9.395,0.83,-1.388,3.36,-37.31,-17.01
,-9.241,0.225,-1.421,-9.155,1.218,-0.912,3.22,-34.16,-15.82
,-9.143,-0.194,-0.897,-9.239,0.531,-0.613,8.26,-30.17,-15.12
,-9.136,0.098,-0.325,-9.395,-0.464,-0.352,16.66,-27.16,-16.31
16432.0,-9.447,-1.56,-0.194,-9.617,-1.173,-0.967,-8.68,-17.22,-16.94
,-9.411,-2.185,0.134,-9.722,-0.814,-1.388,-3.01,-13.65,-15.26
,-9.631,-2.103,-0.333,-9.555,-0.826,-1.998,3.64,-10.64,-13.58
,-9.725,-1.682,-0.775,-9.261,-1.211,-1.871,7.63,-8.54,-12.04
16507.0,-9.311,-1.235,-2.008,-9.737,-0.574,-1.259,3.85,-0.28,-6.23
,-9.426,-1.0,-1.831,-9.746,-0.689,-1.134,6.86,0.49,-5.25
,-9.485,-0.873,-1.558,-9.727,-0.763,-1.354,9.1,1.89,-3.99
,-9.576,-0.687,-1.275,-9.634,-0.849,-1.78,8.61,3.29,-2.59
16583.0,-9.72,-0.847,-2.62,-9.301,-0.94,-3.192,-3.15,7.28,-1.12
,-9.524,-0.409,-3.101,-9.533,-0.945,-3.19,-5.18,6.58,-2.17
,-9.316,-0.096,-3.18,-9.567,-0.546,-3.245,-7.77,6.23,-2.1
,-9.119,-0.23,-3.156,-9.588,-0.34,-3.242,-10.85,6.16,-1.4
16659.0,-9.78,-0.591,-3.221,-9.828,-0.89,-1.809,2.38,1.54,0.0
,-9.483,-0.191,-2.769,-9.758,-0.514,-1.776,-1.4,0.56,-0.77
,-9.296,-0.156,-2.166,-9.789,-0.184,-2.106,-6.16,0.42,-1.12
,-9.536,-0.593,-2.029,-9.751,0.084,-2.556,-8.19,1.4,-1.05
16735.0,-9.713,0.304,-2.91,-9.514,-0.548,-3.001,-4.41,3.29,-1.05
,-9.55,0.33,-3.104,-9.526,-0.933,-2.737,-6.23,2.94,-1.68
,-9.414,0.06,-3.159,-9.579,-0.972,-2.534,-8.54,2.8,-2.38
,-9.361,-0.261,-3.113,-9.598,-1.055,-2.434,-9.03,2.38,-2.66
16810.0,-9.631,-1.086,-2.345,-9.493,-0.579,-2.493,5.53,3.43,-0.84
,-9.634,-0.957,-2.371,-9.454,-0.486,-2.613,7.84,3.43,-0.21
,-9.442,-0.682,-2.352,-9.509,-0.376,-2.737,9.03,3.43,0.7
,-9.459,-0.553,-2.347,-9.481,-0.519,-2.79,9.73,3.78,1.47
16886.0,-9.44,-0.672,-2.723,-9.435,-0.12,-2.819,4.83,3.85,2.1
,-9.722,-0.785,-2.867,-9.543,-0.625,-2.79,5.39,3.36,1.96
,-9.605,-0.316,-2.982,-9.512,-0.538,-2.984,4.9,2.17,0.77
,-9.557,0.115,-2.838,-9.349,-0.352,-2.919,1.89,1.47,0.07
16961.0,-9.361,-0.517,-2.685,-9.777,-0.61,-1.161,-4.41,-0.91,-0.49
,-9.354,-0.644,-2.369,-9.548,-0.495,-0.804,-3.64,-0.28,0.07
,-9.533,-0.773,-1.941,-9.45,-0.72,-0.383,-2.52,0.35,0.42
,-9.756,-0.715,-1.543,-9.452,-1.34,0.112,-2.73,0.63,0.7
17037.0,-9.574,-1.859,0.491,-9.481,-0.558,-0.952,-15.96,12.11,4.76
,-9.593,-2.13,0.955,-9.284,-0.546,-2.06,-11.41,17.85,7.21
,-9.72,-1.852,0.955,-8.801,-0.584,-3.003,-4.62,22.54,9.87
,-9.725,-1.0,-0.278,-8.524,-1.041,-2.848,-2.24,24.57,10.78
17113.0,-8.681,-1.24,-3.025,-9.026,0.811,-3.489,-0.42,33.32,19.53
,-9.17,-1.275,-2.587,-8.878,0.646,-3.563,5.88,34.79,21.07
,-9.433,-0.83,-2.063,-8.894,0.053,-3.769,11.83,36.47,22.47
,-9.742,-0.077,-2.726,-8.916,-0.581,-2.759,13.79,35.14,21.63
17189.0,-8.861,-0.424,-2.867,-9.124,2.233,-4.176,10.85,40.81,19.11
,-8.413,0.309,-2.539,-9.009,1.106,-2.644,19.46,40.81,16.45
,-8.713,1.354,-3.542,-9.091,0.352,-2.692,21.7,37.38,12.6
,-9.019,2.369,-4.066,-9.081,-0.012,-3.264,14.63,33.67,9.38
17264.0,-9.797,0.12,-4.271,-8.37,1.311,-7.138,-4.06,30.8,4.41
,-9.514,-0.072,-5.126,-8.78,1.843,-7.186,-6.79,28.28,5.6
,-8.741,-0.28,-4.015,-8.528,2.046,-7.124,-1.68,32.48,8.54
,-8.949,0.256,-5.367,-8.839,0.802,-5.939,7.28,29.19,7.28
17340.0,-9.227,-0.227,-4.898,-9.222,-3.69,-5.152,-18.97,17.57,-0.28
,-8.753,-1.608,-4.982,-8.708,-3.384,-4.738,-23.87,17.64,0.42
,-9.024,-2.659,-4.654,-8.531,-2.654,-4.48,-23.17,18.34,4.41
,-9.337,-3.338,-5.097,-8.935,-1.173,-4.295,-16.17,17.64,10.29
17416.0,-9.229,0.464,-4.281,-8.141,1.632,-4.659,39.48,13.16,19.81
,-9.579,1.613,-4.168,-8.315,0.785,-3.69,34.44,8.33,20.23
,-9.684,2.245,-4.161,-8.99,0.127,-2.97,20.16,3.5,22.61
,-8.804,2.271,-4.649,-9.454,0.543,-3.317,3.15,3.29,23.73
17492.0,-9.471,1.744,-4.338,-9.162,2.924,-5.358,18.27,7.77,10.57
,-9.21,2.843,-5.552,-8.696,2.41,-4.901,23.45,3.71,9.03
,-9.115,3.096,-5.736,-7.803,1.582,-4.841,23.59,2.73,5.74
,-9.56,2.867,-5.528,-8.196,0.613,-4.616,22.19,2.52,1.05
17568.0,-9.203,-0.342,-4.994,-8.827,-1.57,-5.762,5.67,0.07,-5.81
,-9.485,-1.608,-5.386,-8.016,-0.531,-6.157,2.38,-1.89,-0.63
,-9.411,-2.757,-5.537,-6.942,-0.883,-5.406,4.76,-2.31,2.17
,-9.32,-2.874,-5.106,-6.827,-1.378,-4.941,13.58,-2.87,4.76
17643.0,-8.715,-1.283,-4.75,-8.514,1.029,-4.183,9.8,-1.96,16.73
,-10.498,-1.103,-4.161,-8.299,2.199,-4.168,11.06,-3.15,18.76
,-10.392,-0.622,-3.953,-8.868,3.326,-4.288,13.79,-4.62,18.69
,-9.744,0.342,-4.2,-9.799,3.518,-3.848,14.56,-5.25,17.64
17719.0,-9.828,2.46,-3.551,-8.844,1.898,-4.011,7.49,5.53,-0.91
,-9.184,2.345,-3.34,-9.06,1.196,-3.831,4.97,6.79,-2.17
,-8.636,2.577,-3.735,-9.162,0.577,-3.833,2.45,9.1,-3.22
,-8.571,2.412,-3.953,-8.808,0.708,-4.448,-2.45,12.11,-4.97
17794.0,-8.488,1.055,-5.027,-8.832,-1.082,-5.453,-13.44,18.55,-7.56
,-8.796,0.928,-5.078,-8.48,-1.302,-5.451,-15.89,19.32,-8.05
,-9.316,0.333,-5.544,-8.603,-1.192,-5.248,-20.44,18.48,-8.47
,-9.251,-0.737,-5.418,-8.928,-0.838,-5.53,-23.8,18.27,-7.28
17870.0,-9.273,-0.409,-5.587,-8.981,-0.543,-5.473,-5.81,14.63,-0.42
,-9.545,0.034,-5.489,-9.438,-0.591,-5.59,-6.37,12.67,0.07
,-9.229,-0.065,-5.599,-9.251,-0.543,-6.059,-9.73,11.83,1.33
,-8.827,-0.34,-5.638,-8.782,-0.443,-6.291,-11.9,12.25,2.24
17946.0,-8.27,-0.445,-6.513,-8.614,1.381,-6.856,1.33,1.12,4.83
,-8.358,-0.182,-6.284,-8.636,1.455,-7.006,5.88,-0.77,4.34
,-8.533,0.151,-6.384,-8.61,0.948,-6.841,9.03,-3.5,2.87
,-8.76,0.818,-6.473,-8.722,0.462,-6.633,11.55,-6.16,1.12
18022.0,-8.866,-0.132,-6.513,-8.397,1.199,-6.064,5.18,-11.9,0.56
,-8.997,-0.239,-6.403,-8.729,1.608,-6.068,9.03,-14.77,1.96
,-8.844,0.022,-6.353,-9.012,1.244,-5.671,14.7,-17.78,2.87
,-8.464,0.56,-6.277,-9.198,1.426,-5.54,19.46,-20.93,2.94
18097.0,-8.612,1.407,-5.54,-8.667,1.007,-4.326,-2.66,-38.08,-1.33
,-8.244,1.153,-5.238,-8.861,1.287,-3.872,-6.02,-39.55,-1.96
,-8.009,0.885,-4.891,-9.162,1.316,-3.609,-6.86,-40.53,-2.59
,-8.277,0.797,-4.518,-9.198,1.263,-3.618,-4.97,-41.09,-3.36
18173.0,-9.062,0.936,-3.642,-8.636,0.701,-3.592,1.68,-43.19,-11.83
,-9.067,0.663,-3.276,-8.648,0.531,-3.786,4.62,-42.49,-14.0
,-9.098,0.72,-3.64,-8.801,0.388,-2.998,6.79,-43.68,-15.33
,-8.868,0.744,-3.776,-8.904,0.22,-3.025,5.6,-45.15,-16.73
18249.0,-9.031,-0.005,-2.69,-9.04,-0.763,-1.524,-1.68,-44.73,-18.2
,-8.985,-0.282,-2.472,-9.026,-0.974,-0.467,-3.5,-44.1,-18.48
,-8.899,-0.199,-2.489,-8.806,-0.835,0.211,-3.08,-43.47,-17.92
,-9.033,-0.419,-2.412,-8.969,-0.378,0.605,-2.03,-42.49,-17.99
18325.0,-9.454,0.744,-0.134,-8.796,0.029,0.44,22.4,-28.35,-14.63
,-9.885,1.409,-1.529,-8.804,-1.199,0.689,12.25,-28.63,-17.15
,-9.761,1.096,-0.967,-9.39,-1.871,0.01,-1.75,-27.44,-19.18
,-9.237,0.78,0.055,-9.809,-1.969,-0.098,-8.47,-23.17,-18.62
18401.0,-9.921,-2.185,-0.407,-9.328,-0.962,-2.099,-6.79,-5.74,-11.41
,-10.038,-2.091,-0.933,-9.356,-1.18,-2.084,-2.66,-3.29,-8.33
,-9.852,-1.649,-1.742,-9.672,-1.113,-2.127,0.0,-1.89,-6.65
,-9.507,-1.144,-2.027,-9.811,-0.699,-2.096,1.89,-0.21,-5.6
18476.0,-9.737,-0.354,-2.132,-9.474,-0.103,-2.149,10.08,6.16,0.0
,-9.505,-0.452,-1.893,-9.373,-0.129,-2.082,10.29,6.79,0.77
,-9.493,-0.369,-1.886,-9.694,-0.345,-2.479,12.25,7.91,1.54
,-9.605,-0.239,-1.991,-9.665,0.034,-2.876,11.97,8.47,1.26
18552.0,-9.407,0.191,-3.101,-9.842,-0.677,-2.443,-8.54,6.65,-2.03
,-9.299,-0.445,-3.137,-10.0,-0.093,-2.596,-10.99,6.51,-1.75
,-9.349,-1.117,-2.974,-9.816,0.208,-2.788,-6.72,7.14,-1.12
,-9.548,-1.084,-2.718,-9.634,0.22,-3.13,2.1,7.77,0.0
18627.0,-9.404,-0.299,-3.257,-9.703,-0.431,-2.419,3.29,4.9,0.0
,-9.316,-0.79,-3.269,-9.737,-0.232,-2.173,4.76,4.9,0.28
,-9.335,-0.823,-3.07,-9.629,-0.148,-2.398,8.19,4.76,0.7
,-9.433,-0.665,-2.73,-9.495,-0.273,-2.568,10.64,5.04,1.19
18703.0,-9.517,-0.313,-2.831,-9.361,-0.61,-3.147,3.43,4.41,0.77
,-9.438,-0.359,-3.118,-9.469,-0.562,-3.132,3.43,4.2,0.7
,-9.354,-0.555,-3.252,-9.488,-0.364,-3.037,2.94,3.71,0.77
,-9.301,-0.653,-3.206,-9.519,-0.203,-2.888,2.94,3.08,0.91
18779.0,-9.777,-0.203,-2.804,-9.552,-0.905,-2.032,2.45,0.98,0.0
,-9.765,-0.392,-2.587,-9.627,-0.349,-2.178,1.68,1.05,-0.42
,-9.897,-0.775,-2.326,-9.505,0.022,-2.343,0.77,1.61,-0.56
,-9.689,-1.125,-2.06,-9.457,-0.084,-2.46,2.17,2.24,0.28
18855.0,-9.387,-0.558,-2.661,-9.536,-0.211,-3.472,-1.12,3.57,0.49
,-9.361,-0.912,-2.828,-9.416,0.014,-3.532,-0.84,3.85,0.63
,-9.385,-0.888,-2.974,-9.299,-0.057,-3.47,2.31,3.64,1.05
,-9.497,-0.548,-3.214,-9.28,-0.378,-3.269,5.74,3.15,1.33
18930.0,-9.366,-0.536,-3.032,-9.842,-0.809,-1.828,2.87,-0.77,1.47
,-9.428,-0.632,-2.702,-9.78,-0.653,-1.371,3.92,-0.84,1.75
,-9.49,-0.562,-2.331,-9.629,-0.479,-1.342,4.48,-0.77,2.17
,-9.569,-0.503,-2.003,-9.351,-0.735,-1.22,3.99,-0.49,2.59
19006.0,-9.43,-1.168,-1.455,-9.162,-0.483,-1.843,-15.4,2.87,2.59
,-9.32,-1.254,-1.577,-9.385,-0.112,-2.053,-12.6,4.62,3.99
,-9.32,-1.129,-1.723,-9.407,0.189,-1.95,-6.93,6.86,5.81
,-9.323,-0.699,-2.065,-9.43,0.048,-1.436,-3.57,7.7,7.07
19082.0,-9.667,-0.263,-1.0,-9.165,-1.969,-0.165,-15.47,12.95,9.24
,-9.811,-0.483,-0.727,-8.741,-1.627,-0.297,-19.32,15.26,10.08
,-9.605,-0.938,-0.651,-8.61,-1.048,1.189,-19.95,19.39,11.9
,-9.581,-1.575,-0.615,-9.385,0.172,-0.452,-16.87,24.01,14.28
19158.0,-9.021,1.84,-1.986,-8.409,-0.95,-3.408,21.56,41.58,12.18
,-8.842,2.087,-1.752,-8.653,-1.455,-3.214,4.27,41.72,10.36
,-8.88,1.259,-2.721,-8.777,-0.981,-3.781,-12.11,42.77,11.48
,-8.421,0.156,-3.211,-8.495,-0.175,-4.235,-22.68,43.96,12.46
19234.0,-8.961,0.148,-5.363,-9.311,-0.359,-4.642,18.83,42.21,11.83
,-9.076,0.438,-5.772,-8.741,0.127,-5.047,17.71,35.77,10.15
,-9.131,0.184,-6.021,-8.947,0.998,-5.506,12.74,31.78,10.36
,-8.768,-0.232,-5.226,-9.014,1.776,-6.705,10.43,34.37,11.83
19309.0,-9.198,1.673,-6.71,-8.466,-1.256,-4.269,2.59,21.14,7.7
,-8.737,1.187,-6.856,-9.124,-1.235,-4.515,-8.19,18.62,8.47
,-8.545,0.163,-5.93,-9.842,-1.005,-4.585,-16.24,18.97,9.03
,-8.279,-0.615,-5.051,-10.139,-0.376,-5.178,-16.8,19.88,9.52
19385.0,-9.552,0.065,-5.497,-9.134,2.685,-4.75,11.06,11.62,14.07
,-8.772,0.428,-5.492,-9.229,2.881,-4.597,13.65,12.6,13.93
,-8.232,0.864,-5.451,-8.861,1.886,-3.97,15.12,13.09,12.95
,-8.552,1.649,-4.64,-8.887,0.057,-3.3,17.43,13.16,10.57
19460.0,-9.342,-1.261,-2.659,-8.744,1.23,-5.386,-22.89,15.19,6.79
,-9.615,-2.173,-2.749,-8.519,3.695,-6.064,-11.9,15.4,7.7
,-9.701,-2.324,-3.113,-8.356,4.599,-5.93,3.57,12.81,8.12
,-9.679,-1.543,-3.841,-7.997,4.695,-4.633,20.3,8.33,8.4
19536.0,-8.358,4.429,-3.934,-9.445,-4.771,-5.276,23.66,6.16,-18.97
,-8.813,2.398,-3.709,-9.483,-5.147,-5.733,4.27,7.14,-19.95
,-8.715,-0.61,-3.958,-8.918,-3.63,-6.327,-8.75,7.0,-16.31
,-8.461,-3.247,-4.736,-8.136,-1.91,-6.758,-10.78,7.28,-10.08
19612.0,-7.629,-1.689,-6.344,-8.366,-0.39,-4.731,34.23,1.4,11.27
,-8.555,-1.582,-5.327,-8.531,1.149,-4.826,28.56,0.91,16.94
,-9.478,-1.412,-4.75,-8.48,3.257,-4.932,22.26,-0.7,21.84
,-9.081,-1.177,-4.585,-8.818,5.116,-4.977,18.55,-0.49,24.15
19688.0,-9.201,5.508,-5.181,-8.521,1.335,-4.965,3.22,6.79,8.68
,-9.483,4.415,-4.702,-8.445,0.751,-5.322,-4.13,8.75,0.49
,-9.399,3.015,-4.298,-8.677,0.443,-5.331,-7.63,10.71,-5.25
,-8.997,1.996,-4.3,-8.985,0.246,-5.37,-9.66,11.41,-7.21
19763.0,-9.189,-0.187,-5.205,-8.643,0.055,-5.583,-20.93,13.86,-10.15
,-9.507,-0.634,-4.8,-8.763,0.034,-5.657,-24.15,13.02,-7.56
,-9.093,-0.715,-5.284,-8.495,-0.436,-6.004,-25.76,12.25,-4.97
,-8.54,-0.206,-5.64,-8.457,-0.775,-5.654,-24.29,12.39,-3.43
19839.0,-8.882,-1.156,-5.482,-8.727,0.627,-5.788,-21.77,7.77,1.33
,-9.213,-0.962,-5.384,-8.911,0.577,-6.001,-14.7,6.3,1.4
,-9.079,-0.613,-5.31,-9.337,0.352,-5.803,-7.28,5.11,1.61
,-8.89,-0.031,-5.24,-9.533,0.325,-5.597,-3.01,3.57,1.96
19915.0,-8.782,0.426,-5.836,-8.89,0.022,-6.588,-6.93,-5.11,-2.31
,-8.299,0.376,-6.083,-8.433,-0.053,-6.59,-6.65,-6.02,-1.75
,-8.406,0.206,-6.358,-8.636,-0.156,-6.446,-5.74,-7.21,-1.89
,-9.069,-0.16,-6.066,-9.134,-0.258,-6.265,-5.39,-10.29,-2.03
19991.0,-8.894,-0.055,-6.384,-9.39,1.268,-5.992,0.98,-23.1,-1.26
,-8.495,0.158,-6.336,-9.277,1.551,-6.102,3.15,-23.03,0.35
,-8.586,0.45,-6.406,-9.141,1.723,-5.918,6.09,-23.38,1.47
,-8.856,0.771,-6.025,-8.717,1.89,-5.621,10.29,-23.45,0.98
20066.0,-8.504,1.653,-5.408,-8.55,0.701,-4.654,11.83,-29.54,-3.22
,-8.459,1.299,-4.941,-9.17,0.464,-4.482,8.47,-31.78,-4.83
,-8.351,1.098,-4.738,-9.387,0.622,-4.374,6.16,-34.79,-6.16
,-8.358,1.0,-4.726,-9.246,0.687,-4.032,4.34,-36.82,-6.93
20142.0,-9.344,0.794,-4.13,-8.452,0.596,-3.24,6.72,-44.66,-14.56
,-8.612,0.964,-4.465,-9.136,0.263,-2.536,2.31,-46.62,-15.61
,-8.287,0.821,-4.147,-9.076,0.16,-2.326,-1.89,-46.06,-16.17
,-8.105,0.806,-3.903,-9.141,0.12,-2.462,-2.87,-44.94,-16.03
20218.0,-9.1,-0.282,-1.974,-8.713,1.019,-0.153,6.93,-43.4,-17.92
,-8.978,-0.768,-0.871,-8.959,2.0,-0.67,14.21,-40.53,-15.96
,-8.923,-0.816,0.215,-9.112,1.464,0.325,26.04,-36.4,-14.42
,-8.844,-0.251,0.409,-9.174,-0.211,-0.187,34.65,-33.74,-14.91
20293.0,-9.107,-1.433,0.797,-9.337,-0.115,-0.06,-2.66,-17.36,-17.78
,-9.375,-1.89,0.608,-9.253,-1.259,-0.232,8.96,-13.44,-15.89
,-9.622,-0.907,0.579,-9.5,-2.364,-0.871,14.91,-11.13,-15.4
,-9.651,0.134,-0.06,-9.713,-2.704,-1.754,10.5,-8.68,-14.98
20369.0,-9.531,-2.297,-2.005,-9.983,-0.318,-2.015,-2.73,6.86,-8.33
,-9.32,-1.9,-1.912,-9.94,0.069,-2.539,0.56,9.24,-5.74
,-9.282,-1.543,-1.788,-9.584,-0.294,-2.785,2.17,11.97,-3.43
,-9.507,-1.074,-1.575,-9.442,-0.524,-3.278,2.94,13.93,-2.03
20445.0,-9.39,-0.727,-3.609,-9.21,-0.491,-4.24,-4.13,13.58,-0.63
,-9.385,-0.797,-3.503,-9.04,-0.668,-4.377,0.56,13.02,0.28
,-9.502,-0.66,-3.589,-8.99,-1.041,-4.164,3.57,11.76,0.84
,-9.351,-0.491,-3.872,-9.229,-1.127,-3.735,3.29,10.15,0.77
20521.0,-9.622,-0.792,-3.508,-9.454,-0.404,-2.678,10.99,3.92,2.45
,-9.639,-0.412,-2.982,-9.579,-0.112,-2.747,11.76,3.01,2.59
,-9.624,-0.287,-2.864,-9.588,0.194,-3.01,10.5,2.87,2.38
,-9.552,-0.443,-2.659,-9.49,-0.158,-2.788,9.17,2.87,2.17
20596.0,-9.44,-0.235,-2.979,-9.447,-0.517,-2.97,2.66,3.08,0.49
,-9.38,-0.352,-2.97,-9.466,-0.775,-3.037,0.63,3.01,-0.21
,-9.361,-0.153,-2.941,-9.43,-0.924,-2.96,-1.4,3.22,-0.77
,-9.445,-0.242,-3.02,-9.483,-0.739,-3.01,-4.69,3.43,-1.26
20672.0,-9.526,-0.392,-2.998,-9.375,-0.567,-2.869,2.1,3.36,-0.28
,-9.521,-0.488,-2.797,-9.282,-0.83,-3.029,1.89,3.5,-0.07
,-9.765,-0.294,-2.79,-9.351,-0.893,-3.132,0.21,3.71,-0.35
,-9.555,-0.29,-2.852,-9.366,-0.725,-3.195,-3.22,3.36,-0.91
20748.0,-9.308,-0.361,-3.343,-9.43,-0.469,-3.819,1.26,3.5,0.84
,-9.287,-0.39,-3.352,-9.438,-0.479,-3.766,0.28,3.01,0.77
,-9.466,-0.201,-3.709,-9.373,-0.469,-3.63,-0.63,2.31,0.49
,-9.445,-0.292,-3.757,-9.318,-0.426,-3.479,-2.87,1.4,-0.14
20824.0,-9.28,-0.407,-3.348,-9.263,-0.962,-2.788,1.19,-2.03,0.14
,-9.253,-0.426,-3.139,-9.332,-0.806,-2.709,0.42,-2.59,0.14
,-9.261,-0.608,-2.977,-9.402,-0.601,-2.666,-1.26,-2.66,0.35
,-9.28,-0.857,-2.874,-9.466,-0.364,-2.556,-1.54,-2.31,0.84
20899.0,-9.55,-0.45,-2.546,-9.217,-1.144,-2.008,0.7,-0.56,3.15
,-9.505,-0.715,-2.481,-9.416,-0.895,-1.673,-1.05,0.07,3.57
,-9.373,-1.01,-2.558,-9.526,-0.864,-1.371,-1.19,0.56,4.27
,-9.208,-1.091,-2.34,-9.612,-0.974,-1.163,0.42,1.19,5.39
20975.0,-9.387,-0.529,-1.658,-9.134,-0.9,-2.776,0.91,7.56,9.03
,-8.866,-0.249,-1.84,-9.418,-1.156,-2.678,-3.15,8.19,8.54
,-8.859,-0.246,-2.395,-9.557,-1.228,-2.247,-6.51,8.75,8.47
,-8.966,-0.462,-2.828,-9.763,-1.323,-1.639,-9.59,9.59,8.68
21050.0,-9.825,-0.809,-2.111,-8.923,0.782,-2.273,8.19,17.92,14.77
,-9.552,-0.17,-1.924,-8.385,0.701,-2.714,9.1,18.83,14.84
,-9.485,0.168,-1.881,-8.318,0.45,-1.582,7.7,20.23,15.47
,-9.512,0.321,-1.692,-8.684,0.335,-3.226,2.17,21.0,15.26
21126.0,-8.574,0.302,-2.668,-8.823,-1.055,-2.845,-4.2,26.11,11.62
,-9.16,0.29,-3.589,-8.82,-1.807,-0.9,-3.85,25.41,10.85
,-9.483,0.402,-4.075,-8.837,-1.273,-1.457,-5.6,24.78,10.29
,-9.237,-0.151,-3.786,-8.746,-0.644,-1.835,-3.22,27.16,11.27
21202.0,-9.201,-0.019,-3.226,-8.447,1.098,-4.367,23.38,34.3,13.37
,-9.617,0.414,-3.35,-7.664,1.043,-5.243,20.72,33.32,12.11
,-9.718,1.058,-3.769,-8.346,1.338,-5.836,17.15,33.46,11.62
,-9.117,1.259,-2.967,-8.49,1.297,-6.274,13.79,36.82,11.69
21278.0,-9.0,0.921,-5.774,-8.703,0.761,-5.181,-14.21,25.83,5.18
,-9.081,0.136,-5.231,-9.361,1.07,-4.932,-14.7,28.42,6.58
,-8.777,-0.026,-4.628,-9.287,1.299,-4.752,-10.57,30.87,7.49
,-8.617,0.526,-5.001,-9.392,1.287,-4.518,-3.36,30.94,6.72
21354.0,-9.265,0.804,-4.788,-9.062,-0.802,-5.315,1.12,26.46,0.42
,-9.383,-0.268,-4.537,-8.961,-0.17,-5.128,-1.61,24.99,1.96
,-9.521,-0.974,-4.283,-8.758,0.629,-5.676,-0.91,22.12,4.27
,-9.337,-0.948,-4.793,-8.598,1.68,-5.501,2.52,19.67,6.3
21429.0,-8.019,2.192,-5.408,-8.708,-1.141,-5.358,16.38,13.51,-3.57
,-7.81,1.96,-5.006,-8.631,-2.359,-5.252,9.52,15.19,-4.34
,-8.334,1.51,-5.162,-9.076,-2.601,-5.334,1.82,15.4,-3.78
,-8.603,0.414,-5.494,-9.05,-1.859,-5.812,-1.89,14.77,-4.76
21505.0,-8.825,-0.972,-6.439,-8.914,-1.613,-5.946,32.83,7.98,0.7
,-8.6,-0.531,-6.241,-8.186,-2.285,-5.922,32.06,6.72,0.77
,-9.012,-0.469,-6.157,-7.837,-2.051,-5.702,26.88,5.18,2.31
,-8.787,-0.823,-6.305,-7.916,-0.579,-6.023,19.6,3.01,4.83
21581.0,-8.445,0.443,-5.997,-8.418,0.218,-4.398,15.68,-3.29,20.23
,-9.246,0.462,-5.592,-8.349,1.534,-4.243,12.81,-4.76,18.34
,-9.387,0.022,-5.406,-9.048,2.587,-4.393,9.94,-5.88,17.92
,-9.124,-0.345,-5.004,-8.93,3.427,-4.826,11.97,-4.41,17.85
21657.0,-8.66,3.599,-5.26,-9.019,1.022,-5.446,1.4,3.01,6.65
,-8.729,3.396,-5.312,-9.117,-0.062,-5.556,-3.85,4.97,1.82
,-8.83,2.723,-5.281,-9.026,-0.983,-5.669,-8.89,5.95,-3.22
,-8.942,1.859,-5.353,-8.746,-1.101,-6.123,-12.39,6.37,-6.44
21732.0,-8.823,-1.046,-6.303,-8.55,0.751,-5.571,-9.52,8.47,-5.46
,-8.921,-1.122,-6.006,-8.394,0.876,-5.877,-7.49,8.96,-3.43
,-9.05,-0.514,-5.731,-8.342,0.866,-6.312,-4.9,6.65,-2.87
,-8.921,-0.014,-5.315,-8.203,0.51,-6.504,-7.35,3.57,-3.64
21808.0,-8.447,-0.268,-6.2,-8.344,-0.237,-6.006,-23.94,-4.76,1.96
,-9.086,-1.024,-5.595,-8.406,0.318,-6.317,-19.04,-5.32,1.75
,-9.33,-0.737,-5.566,-8.65,0.766,-6.341,-10.92,-7.07,0.77
,-8.693,-0.572,-5.875,-8.665,0.972,-6.097,-4.83,-8.4,0.49
21883.0,-8.696,0.72,-5.776,-8.835,0.132,-5.54,5.46,-12.6,-4.13
,-8.835,0.407,-5.386,-8.681,-0.081,-5.461,1.54,-12.81,-4.48
,-8.851,0.311,-5.355,-8.629,-0.153,-5.24,-0.91,-13.86,-3.99
,-8.882,0.323,-5.499,-8.679,-0.328,-5.221,-1.54,-15.61,-3.78
21959.0,-8.514,-0.395,-5.118,-8.916,0.486,-4.963,6.09,-24.15,1.33
,-8.404,-0.321,-5.214,-8.859,0.938,-4.977,9.24,-25.06,2.45
,-8.966,-0.132,-4.731,-8.717,1.194,-4.709,11.2,-26.81,4.06
,-9.083,0.256,-4.915,-8.758,1.742,-4.427,11.48,-29.61,5.18
22035.0,-8.818,2.412,-4.482,-8.562,0.404,-4.616,11.97,-33.74,-3.01
,-8.88,2.312,-4.635,-8.964,0.134,-4.482,5.04,-35.28,-5.6
,-8.574,1.826,-4.456,-9.261,0.251,-4.18,-1.68,-35.21,-6.3
,-8.586,1.005,-4.513,-9.27,0.505,-4.046,-4.2,-36.05,-6.58
22111.0,-9.127,0.78,-4.24,-8.583,0.074,-3.953,5.95,-42.0,-12.88
,-8.964,0.704,-3.843,-8.737,-0.38,-3.092,3.43,-41.09,-13.51
,-8.921,0.55,-3.704,-9.177,-0.603,-1.953,1.26,-40.95,-13.72
,-8.861,0.263,-4.044,-9.512,-0.359,-1.488,-0.49,-42.42,-14.7
22187.0,-9.421,0.196,-1.041,-9.019,-0.134,-0.866,18.69,-38.01,-15.68
,-9.325,0.601,-0.955,-8.88,-0.282,-0.014,13.58,-37.59,-16.17
,-8.942,0.541,-0.385,-8.952,-0.335,0.024,7.63,-35.91,-14.7
,-9.107,0.16,-0.933,-9.083,0.081,0.385,3.5,-33.39,-14.28
22262.0,-9.292,0.471,-0.519,-9.213,-1.005,-1.409,17.5,-17.08,-15.75
,-9.423,0.761,-0.924,-9.392,-1.034,-1.859,10.36,-16.1,-16.87
,-9.507,0.376,-1.046,-9.538,-1.103,-2.163,5.04,-14.14,-17.01
,-9.387,-0.359,-1.455,-9.574,-1.725,-1.759,-0.07,-11.9,-17.01
22338.0,-9.596,-2.182,-1.405,-9.945,-0.838,-0.656,-6.16,-0.21,-10.99
,-9.588,-2.682,-0.754,-9.852,-0.275,-0.869,-3.71,2.73,-7.98
,-9.727,-2.831,-0.309,-9.686,-0.144,-1.441,4.13,5.81,-5.25
,-10.005,-1.96,-0.359,-9.493,-0.445,-1.721,11.13,8.12,-3.36
22414.0,-9.509,-0.689,-2.087,-8.88,0.091,-4.793,-4.9,16.73,-1.54
,-9.679,-0.653,-2.654,-8.514,-0.333,-4.755,-5.6,16.59,-1.68
,-9.643,-0.352,-3.484,-8.693,-0.928,-4.767,-5.32,15.05,-1.61
,-9.426,0.026,-4.422,-9.043,-1.244,-4.487,-6.72,12.39,-2.38
22490.0,-9.421,-1.206,-3.781,-9.67,-0.919,-2.261,6.02,3.71,0.28
,-9.61,-1.036,-3.022,-9.701,-0.62,-2.309,9.1,3.15,1.4
,-9.715,-1.117,-2.69,-9.914,-0.34,-2.443,9.73,3.01,2.1
,-9.648,-1.027,-2.314,-9.847,-0.077,-2.644,10.36,3.64,2.87
22565.0,-9.61,0.055,-2.934,-9.282,-0.196,-3.743,-0.42,4.62,1.61
,-9.311,-0.235,-3.084,-9.296,-0.38,-3.721,-4.48,4.34,1.12
,-9.194,-0.476,-3.357,-9.335,-0.56,-3.74,-4.62,4.06,0.77
,-9.325,-0.263,-3.695,-9.397,-0.778,-3.649,-3.29,3.22,0.35
22641.0,-9.567,-1.027,-3.405,-9.328,-0.505,-2.685,1.33,-1.26,1.26
,-9.622,-0.988,-3.305,-9.414,-0.471,-2.51,3.85,-1.96,1.89
,-9.414,-0.905,-3.12,-9.433,-0.412,-2.266,5.88,-2.24,2.38
,-9.361,-0.701,-2.943,-9.519,-0.493,-2.118,7.35,-2.38,2.87
22716.0,-9.505,-0.512,-1.924,-9.5,-0.531,-2.048,1.4,-0.49,3.43
,-9.529,-0.565,-2.044,-9.423,-0.483,-1.998,0.77,0.42,3.64
,-9.536,-0.491,-2.134,-9.524,-0.548,-1.785,-0.35,1.12,3.64
,-9.509,-0.541,-1.993,-9.584,-0.567,-1.809,-1.82,1.96,3.71
22792.0,-9.586,-0.701,-1.902,-9.074,-0.991,-1.364,-6.37,6.23,4.55
,-9.825,-1.445,-1.881,-9.299,-1.364,-1.11,-9.45,6.79,4.55
,-9.658,-1.218,-1.701,-9.387,-1.555,-0.936,-10.15,7.35,4.9
,-9.342,-0.866,-1.519,-9.526,-1.333,-0.981,-10.57,7.63,5.95
22868.0,-9.641,-0.639,-1.096,-8.327,1.716,-3.144,-1.75,19.53,14.98
,-9.404,-0.029,-1.117,-8.543,1.438,-3.649,-1.05,22.54,16.52
,-9.074,0.622,-1.481,-8.835,0.526,-3.233,0.28,25.62,17.15
,-8.698,1.438,-2.467,-8.756,-0.483,-2.436,-0.7,25.76,15.19
22944.0,-8.957,-1.225,-2.821,-9.316,0.098,-1.015,-14.77,34.02,12.25
,-8.873,-1.567,-2.379,-9.727,0.29,-2.709,-7.0,34.58,11.06
,-9.215,-1.254,-1.689,-9.213,0.617,-2.647,4.34,35.49,11.76
,-9.485,-0.369,-2.295,-9.174,0.847,-4.066,9.94,34.93,11.27
23020.0,-8.409,0.828,-5.145,-9.086,1.639,-3.963,-6.16,33.25,11.13
,-7.748,0.218,-4.999,-10.136,2.876,-4.838,-9.59,36.68,12.11
,-7.705,-0.136,-4.07,-10.455,3.175,-5.2,-1.82,43.47,12.32
,-8.138,0.61,-4.484,-10.098,2.556,-5.621,8.19,42.84,7.07
23095.0,-8.655,0.881,-5.068,-8.344,-2.364,-5.657,-27.02,31.15,0.14
,-8.325,-0.821,-4.518,-8.303,-1.149,-5.583,-28.07,31.36,1.96
,-8.404,-2.046,-4.889,-8.198,0.239,-5.523,-23.03,26.53,2.1
,-8.636,-2.663,-5.24,-8.296,1.108,-5.08,-12.74,21.42,2.52
23171.0,-8.488,1.357,-5.042,-8.942,-1.01,-4.75,5.95,19.95,3.92
,-8.949,1.388,-4.29,-8.607,-1.941,-4.389,-4.41,19.53,5.11
,-9.943,1.199,-4.484,-8.66,-1.979,-4.298,-15.54,16.87,6.72
,-9.873,0.567,-4.692,-8.935,-1.541,-4.599,-24.57,15.89,7.63
23247.0,-9.148,-0.859,-4.846,-8.93,3.269,-6.595,17.22,17.43,13.51
,-9.206,0.223,-5.291,-8.844,3.262,-6.516,27.65,15.75,13.3
,-9.148,1.811,-5.769,-8.815,2.639,-6.059,33.53,13.72,10.71
,-8.99,2.592,-6.183,-8.533,2.015,-5.867,32.2,12.6,6.51
23323.0,-8.832,1.129,-5.566,-8.504,-1.575,-6.004,6.51,6.3,-13.44
,-9.1,0.227,-5.339,-7.751,-1.96,-6.265,6.37,3.92,-14.84
,-9.217,-0.452,-5.353,-7.617,-2.419,-6.176,7.63,1.82,-13.93
,-9.103,-0.931,-5.726,-7.992,-2.922,-5.769,9.73,0.56,-11.34
23398.0,-8.44,-2.714,-6.097,-8.787,-1.441,-4.949,16.73,-3.85,8.26
,-8.969,-2.192,-6.114,-8.854,-1.469,-4.513,17.29,-5.88,12.6
,-9.15,-1.91,-5.578,-8.739,-0.799,-4.384,17.36,-7.63,14.98
,-9.217,-1.606,-5.291,-8.636,0.577,-4.781,16.94,-8.05,15.75
23474.0,-8.662,1.926,-4.819,-9.275,3.049,-3.979,22.89,-5.88,18.06
,-8.638,2.85,-4.733,-8.72,2.532,-3.812,21.98,-4.97,14.98
,-8.906,3.3,-4.556,-8.291,1.766,-4.089,19.6,-4.41,11.69
,-9.167,3.467,-4.499,-8.591,1.275,-4.19,15.61,-3.5,8.19
23549.0,-8.866,0.919,-4.324,-9.024,-0.957,-5.477,-2.1,6.86,-3.78
,-8.894,0.713,-4.841,-8.93,-1.443,-5.159,-3.22,8.12,-3.92
,-9.04,0.244,-5.25,-8.638,-1.254,-5.08,-5.39,9.45,-3.5
,-9.299,-0.002,-5.549,-8.598,-0.84,-4.908,-6.37,9.31,-3.57
23625.0,-8.935,-0.517,-4.748,-8.236,0.325,-5.559,5.74,10.99,2.38
,-9.15,-0.251,-4.96,-8.557,0.16,-5.556,5.04,8.4,2.8
,-8.859,0.043,-5.128,-8.892,0.057,-5.602,2.94,6.3,3.36
,-8.49,0.27,-5.391,-9.435,0.084,-5.635,-1.68,5.25,4.13
23701.0,-9.342,0.309,-6.033,-8.411,-0.38,-6.071,-15.4,-0.42,3.99
,-8.885,0.069,-5.982,-8.619,-0.251,-5.822,-16.66,-1.47,3.15
,-8.643,-0.304,-6.114,-9.009,0.065,-5.817,-16.03,-1.61,1.82
,-8.509,-0.503,-6.272,-8.914,0.419,-5.906,-12.25,-2.24,0.98
23777.0,-8.49,0.883,-5.92,-9.186,1.4,-5.43,7.21,-8.68,-0.28
,-8.406,1.129,-5.877,-9.237,1.335,-5.446,7.14,-9.66,-0.7
,-8.636,1.175,-5.7,-8.966,1.019,-5.846,6.16,-11.06,-1.47
,-9.06,1.295,-5.477,-8.547,0.39,-5.889,5.18,-12.46,-2.59
23853.0,-8.318,-0.215,-5.683,-8.729,0.306,-5.422,-3.57,-20.02,-3.57
,-8.339,-0.402,-5.535,-8.593,0.27,-5.212,0.49,-20.79,-3.5
,-8.571,-0.335,-5.456,-8.631,0.072,-4.984,3.15,-23.31,-4.55
,-8.815,0.251,-5.525,-8.701,0.065,-4.846,4.97,-26.67,-5.32
23928.0,-8.839,0.302,-4.803,-9.06,0.704,-4.391,0.42,-33.88,-4.62
,-9.05,0.603,-4.74,-8.722,0.38,-4.393,0.42,-36.54,-5.88
,-9.191,1.007,-4.793,-8.581,0.218,-4.178,-0.56,-39.13,-6.79
,-9.136,1.117,-4.692,-8.54,0.249,-3.855,-4.13,-40.32,-7.49
24004.0,-8.969,0.366,-3.704,-9.177,-0.371,-1.967,5.6,-41.51,-10.92
,-9.057,0.385,-3.802,-9.215,-0.06,-1.579,6.16,-42.14,-10.85
,-8.813,0.175,-3.525,-9.258,0.376,-2.065,5.04,-41.93,-10.78
,-8.823,-0.108,-2.453,-8.993,0.914,-1.948,7.98,-39.69,-9.94
24080.0,-8.734,0.854,-1.993,-9.366,0.431,-0.091,5.53,-33.95,-11.62
,-8.713,0.452,-1.476,-9.323,0.665,0.433,8.33,-31.08,-11.48
,-8.983,0.148,-1.194,-9.21,0.931,-0.34,13.51,-28.63,-12.46
,-9.313,0.179,-0.723,-9.229,0.794,-0.581,20.09,-26.04,-13.3
24156.0,-9.146,0.23,-0.608,-9.569,-1.177,-1.522,0.77,-12.39,-17.5
,-9.234,-0.876,-0.34,-9.541,-1.335,-1.321,-2.17,-7.84,-15.89
,-9.476,-1.5,-0.725,-9.629,-1.756,-1.292,-1.33,-4.9,-14.91
,-9.541,-1.661,-0.615,-9.691,-1.871,-1.496,1.12,-2.52,-14.0
24231.0,-9.658,-1.68,-1.536,-9.677,-0.677,-1.864,0.07,9.31,-7.49
,-9.864,-1.204,-1.575,-9.421,-0.546,-2.312,1.75,10.64,-6.44
,-9.658,-0.9,-1.292,-9.172,-0.392,-3.178,0.77,12.67,-5.32
,-9.675,-0.727,-1.584,-9.016,-0.524,-3.69,-0.28,14.7,-4.48
24307.0,-9.067,-0.526,-4.484,-9.009,-0.593,-4.736,-9.31,14.7,-2.45
,-8.947,-0.663,-4.977,-9.366,-0.608,-4.448,-8.33,13.09,-2.1
,-8.849,-0.749,-5.142,-9.356,-0.593,-4.018,-5.25,10.99,-1.47
,-8.873,-0.639,-5.147,-9.368,-0.73,-3.735,-1.33,8.68,-0.91
24382.0,-9.447,-0.593,-3.412,-9.708,-0.668,-2.324,8.4,0.91,0.7
,-9.411,-0.479,-3.015,-9.679,-0.732,-2.412,10.64,1.12,1.05
,-9.55,-0.292,-2.659,-9.581,-0.608,-2.699,10.57,1.4,1.12
,-9.804,-0.373,-2.613,-9.39,-0.534,-2.938,8.12,1.82,0.91
24458.0,-9.273,-0.579,-3.077,-9.423,-0.285,-3.843,-2.59,3.36,-0.14
,-9.191,-0.857,-3.051,-9.229,-0.218,-3.972,-3.43,3.78,0.49
,-9.359,-0.835,-3.276,-9.194,-0.352,-3.922,-1.4,3.71,0.91
,-9.411,-0.629,-3.34,-9.249,-0.34,-4.037,1.19,3.5,1.26
24534.0,-9.361,-0.297,-3.963,-9.622,-0.866,-2.888,4.34,-0.98,0.77
,-9.385,-0.285,-3.678,-9.586,-0.713,-2.788,5.04,-1.82,0.77
,-9.423,-0.503,-3.374,-9.478,-0.62,-2.797,4.41,-2.1,0.91
,-9.483,-0.823,-3.08,-9.356,-0.637,-2.953,4.41,-2.17,1.12
24610.0,-9.246,-0.608,-3.039,-9.332,-0.383,-3.4,2.38,-1.96,1.61
,-9.246,-0.601,-3.144,-9.227,-0.419,-3.226,2.94,-1.96,1.82
,-9.356,-0.483,-3.151,-9.316,-0.579,-3.197,3.5,-1.89,1.96
,-9.375,-0.452,-3.271,-9.313,-0.658,-2.86,3.5,-2.1,1.89
24685.0,-9.476,-0.467,-3.032,-9.433,-0.581,-2.508,2.52,-2.59,1.54
,-9.495,-0.397,-2.824,-9.397,-0.737,-2.331,0.98,-2.45,1.61
,-9.407,-0.445,-2.74,-9.361,-0.749,-2.268,-0.42,-2.38,1.75
,-9.383,-0.555,-2.582,-9.366,-0.672,-2.218,-0.63,-1.82,1.82
24761.0,-9.397,-0.663,-2.247,-9.411,-1.153,-2.544,0.91,1.75,4.27
,-9.397,-0.72,-2.247,-9.497,-1.273,-2.513,-0.28,2.8,4.76
,-9.402,-1.031,-2.252,-9.435,-1.058,-2.185,-2.24,3.71,5.04
,-9.464,-1.295,-2.565,-9.232,-0.67,-1.661,-2.03,3.92,5.46
24837.0,-9.292,-0.706,-1.144,-9.471,0.311,-1.567,-0.28,8.89,8.75
,-9.617,-0.771,-0.881,-9.337,0.445,-2.635,0.07,11.83,9.59
,-9.804,-0.352,-0.747,-9.124,0.323,-2.85,0.14,14.28,10.29
,-9.72,0.079,-1.247,-9.122,0.048,-2.843,-1.89,16.17,10.36
24913.0,-8.945,0.105,-2.615,-9.208,-0.433,-1.771,-17.15,17.92,8.89
,-9.009,0.019,-2.252,-9.038,-0.357,-1.567,-15.33,19.46,8.89
,-9.162,-0.22,-2.187,-8.914,-0.275,-1.168,-12.6,21.84,8.61
,-9.239,-0.366,-1.943,-8.854,-0.17,-1.922,-8.4,25.27,9.24
24989.0,-8.579,0.146,-2.022,-9.028,-0.28,-3.324,8.47,36.89,10.64
,-8.524,0.122,-2.28,-9.026,-0.292,-3.475,7.91,38.36,10.5
,-8.67,0.103,-3.039,-8.629,-0.122,-4.087,5.74,40.11,10.29
,-8.83,-0.139,-3.412,-8.267,0.139,-4.326,3.01,41.51,10.01
25064.0,-8.062,0.258,-5.382,-9.423,0.916,-6.844,2.31,36.05,11.27
,-8.313,0.158,-4.649,-8.823,0.629,-7.538,4.2,38.85,11.34
,-9.198,0.565,-5.413,-8.744,-0.005,-6.758,5.32,37.1,10.22
,-9.411,0.969,-6.205,-8.715,-0.175,-6.578,2.38,33.67,7.84
25140.0,-8.605,-0.053,-6.738,-9.273,0.275,-4.874,-4.2,19.11,5.11
,-8.739,-0.294,-6.123,-9.354,0.483,-5.051,-3.5,19.81,4.13
,-9.081,-0.357,-5.525,-9.17,0.835,-5.135,-2.38,19.88,4.2
,-9.026,-0.127,-5.169,-8.777,0.617,-5.561,-2.1,19.39,3.92
25215.0,-8.54,-0.103,-5.035,-9.06,-0.447,-4.14,-14.84,9.59,5.18
,-8.725,-0.876,-4.614,-8.789,-0.014,-4.403,-13.93,9.94,6.79
,-8.703,-1.161,-4.312,-8.732,0.151,-4.748,-9.1,10.71,7.84
,-9.105,-0.986,-3.877,-8.524,0.735,-5.164,-2.17,10.71,8.89
25291.0,-8.48,1.632,-5.506,-8.784,2.52,-4.463,9.87,7.42,12.25
,-8.631,2.699,-5.621,-9.567,1.314,-4.302,12.88,6.93,8.05
,-8.485,3.333,-4.944,-9.713,0.392,-4.47,11.55,6.93,2.52
,-8.449,3.252,-4.642,-9.543,-0.629,-3.965,6.58,7.56,-1.75
25367.0,-9.081,-0.775,-4.429,-7.875,-1.106,-5.631,16.94,6.23,-11.9
,-8.536,-0.926,-4.843,-8.478,-0.936,-5.58,24.43,5.53,-11.55
,-7.964,-1.048,-5.3,-8.808,-0.869,-5.745,30.73,5.39,-9.03
,-7.712,-1.182,-5.451,-9.026,-0.835,-5.391,34.44,5.11,-5.95
25443.0,-8.938,-0.838,-5.413,-8.665,-2.197,-5.31,26.32,2.66,4.06
,-8.229,-1.223,-5.152,-8.734,-1.275,-5.403,20.93,3.22,6.37
,-7.956,-2.008,-5.162,-8.772,-0.251,-5.224,14.42,3.36,9.8
,-8.454,-2.807,-4.886,-9.131,0.94,-4.989,11.62,3.5,14.77
25518.0,-9.241,1.967,-4.733,-8.794,4.353,-4.927,19.95,1.47,17.71
,-8.787,2.419,-4.499,-9.076,3.642,-4.886,16.59,2.8,14.49
,-8.492,3.257,-4.604,-9.375,2.276,-4.401,15.05,4.62,10.08
,-8.409,4.092,-4.678,-8.653,0.603,-4.542,10.29,6.37,5.18
25594.0,-8.318,-0.096,-5.044,-9.241,-1.161,-5.465,-9.66,14.63,-9.87
,-8.681,-0.172,-5.166,-9.186,-1.108,-5.559,-8.33,14.63,-9.1
,-8.847,-0.244,-5.82,-8.871,-0.541,-5.707,-10.5,13.79,-9.66
,-8.866,-0.694,-5.817,-8.76,0.022,-5.834,-13.23,14.14,-9.31
25669.0,-8.184,0.282,-6.317,-8.823,-2.082,-6.147,-13.58,10.78,-4.83
,-7.997,-0.213,-6.451,-8.567,-1.823,-6.267,-17.99,11.13,-2.73
,-8.519,-1.151,-6.274,-8.473,-1.546,-6.712,-19.67,9.73,0.0
,-8.854,-1.924,-6.296,-8.662,-1.187,-6.839,-16.24,7.84,2.1
25745.0,-8.894,-0.708,-7.064,-8.301,0.481,-6.801,5.18,-1.05,8.4
,-8.887,-0.385,-7.102,-7.983,0.39,-6.834,5.6,-2.87,7.77
,-9.036,0.048,-6.76,-8.32,0.275,-6.856,5.04,-3.99,6.3
,-8.835,0.335,-6.71,-8.641,0.404,-6.77,2.52,-5.6,5.74
25821.0,-8.76,0.699,-6.382,-8.576,1.18,-5.406,5.88,-19.53,5.81
,-8.547,1.086,-6.387,-8.782,1.108,-5.353,9.1,-22.68,4.13
,-8.373,1.479,-6.176,-8.792,0.742,-5.118,10.15,-24.99,2.8
,-8.392,1.383,-5.887,-8.825,0.897,-5.382,7.91,-26.81,1.89
25897.0,-8.894,0.859,-5.224,-8.224,1.452,-4.494,0.63,-34.79,0.14
,-8.696,1.259,-5.212,-8.672,1.06,-4.221,2.59,-35.49,-2.03
,-8.284,1.637,-5.051,-8.839,0.723,-4.125,3.15,-35.77,-3.71
,-7.997,1.721,-4.776,-8.964,0.605,-4.147,2.03,-36.19,-4.55
25973.0,-8.904,0.574,-4.133,-8.593,-0.168,-3.537,-1.61,-41.09,-13.16
,-8.866,0.541,-4.243,-9.007,-0.706,-3.132,-0.91,-41.51,-14.42
,-8.65,0.464,-4.08,-8.909,-0.845,-2.797,-1.68,-41.44,-14.91
,-8.681,0.203,-4.298,-9.06,-0.72,-2.769,-3.43,-41.51,-14.7
26048.0,-9.088,-0.531,-2.95,-8.875,-0.261,-1.857,5.39,-38.5,-13.02
,-9.237,-0.282,-2.785,-9.074,-0.041,-0.931,6.16,-38.85,-11.62
,-9.256,-0.337,-2.721,-9.497,0.586,-1.476,6.72,-37.38,-10.29
,-9.105,-0.325,-2.151,-9.208,1.498,-1.859,8.19,-34.79,-9.73
26124.0,-8.957,1.127,-1.531,-9.38,0.335,-0.601,9.87,-25.41,-13.58
,-8.957,0.239,-0.909,-9.689,0.995,-1.005,10.43,-20.86,-11.97
,-8.827,-0.182,-0.83,-9.56,0.952,-2.426,14.21,-17.64,-12.25
,-8.949,-0.153,-0.529,-8.832,-0.055,-2.034,20.44,-15.33,-13.02
26200.0,-8.753,-1.668,-2.204,-9.797,-1.725,-1.287,-11.62,-7.28,-14.84
,-8.949,-2.73,-1.989,-9.584,-1.429,-1.048,-8.05,-3.85,-12.53
,-9.395,-3.216,-1.586,-9.316,-1.304,-0.936,1.26,-1.96,-9.87
,-9.849,-2.529,-1.369,-9.344,-1.122,-0.687,8.54,-1.05,-7.49
26276.0,-9.462,-0.672,-1.024,-9.395,0.134,-3.912,8.96,12.39,1.54
,-9.605,-0.117,-1.646,-9.347,-0.069,-4.836,6.23,13.72,1.75
,-9.505,0.048,-2.163,-9.0,-0.481,-5.162,1.26,14.49,1.54
,-9.462,0.287,-3.123,-8.952,-0.826,-5.123,-3.57,14.77,1.26
26351.0,-9.153,-0.849,-5.121,-9.38,-0.5,-3.269,0.42,7.07,0.7
,-9.316,-0.739,-4.743,-9.45,-0.342,-3.041,5.53,4.9,1.47
,-9.488,-0.491,-4.161,-9.531,-0.333,-2.84,7.56,3.43,1.89
,-9.445,-0.483,-3.654,-9.55,-0.512,-2.749,7.49,2.59,2.31
26427.0,-9.648,-0.878,-2.644,-9.141,0.383,-3.415,2.87,2.38,1.54
,-9.572,-0.55,-2.776,-9.155,0.151,-3.434,5.46,2.66,1.68
,-9.454,-0.057,-2.958,-9.294,-0.093,-3.29,6.51,2.38,1.61
,-9.299,0.28,-3.175,-9.407,-0.278,-3.276,4.97,1.89,1.26
26502.0,-9.416,-0.505,-3.489,-9.282,-1.094,-3.398,-3.71,0.35,-0.91
,-9.273,-0.775,-3.656,-9.383,-0.534,-3.173,-4.76,-0.49,-0.84
,-9.241,-1.175,-3.735,-9.426,-0.227,-2.972,-3.64,-0.77,-0.21
,-9.249,-1.4,-3.556,-9.438,-0.156,-2.97,0.21,-0.56,0.63
26578.0,-9.414,-0.321,-2.994,-9.392,-0.68,-2.613,-2.31,-1.26,1.89
,-9.349,-0.481,-3.017,-9.531,-0.62,-2.338,-2.8,-1.12,2.1
,-9.215,-0.653,-3.003,-9.495,-0.754,-2.328,-1.82,-1.19,2.38
,-9.263,-0.67,-2.85,-9.323,-1.01,-2.106,-0.21,-0.91,2.94
26654.0,-9.296,-1.216,-2.297,-9.332,-1.11,-2.158,-3.71,3.71,7.07
,-9.361,-1.249,-2.242,-9.268,-0.625,-2.501,-2.24,4.83,8.19
,-9.311,-1.254,-2.309,-9.34,-0.007,-2.706,-0.14,6.16,9.59
,-9.256,-1.225,-2.182,-9.287,0.732,-3.455,2.24,7.56,11.41
26730.0,-9.201,0.974,-3.685,-9.442,0.134,-2.036,3.29,6.65,10.71
,-9.249,0.823,-3.666,-9.182,0.371,-1.161,-0.98,7.56,10.22
,-9.543,0.505,-3.47,-8.942,0.526,-1.161,-4.06,8.82,10.29
,-9.629,-0.148,-2.651,-9.016,0.33,-0.084,-4.06,9.94,9.24
26806.0,-9.526,0.546,-0.141,-9.158,-0.194,-4.379,3.22,20.23,8.75
,-9.493,1.089,-2.182,-8.124,-1.826,-2.948,-5.81,18.55,5.04
,-9.268,1.33,-3.211,-7.832,-3.154,-1.716,-14.91,17.22,1.75
,-9.275,0.646,-4.152,-8.098,-2.955,-1.804,-22.89,18.34,1.82
26881.0,-8.868,-1.924,-2.273,-9.452,-1.603,-3.07,9.66,27.86,7.63
,-9.691,-0.835,-3.424,-8.737,-1.158,-3.465,10.29,23.1,10.15
,-10.234,-0.864,-3.64,-8.148,-0.486,-3.769,5.46,21.77,14.7
,-10.036,-1.409,-3.85,-8.555,0.079,-4.465,0.21,23.73,19.88
26957.0,-9.414,0.816,-4.664,-7.966,2.17,-5.365,9.73,24.36,17.01
,-9.27,1.922,-4.338,-8.961,1.67,-5.063,7.28,24.01,18.62
,-8.557,2.582,-4.642,-9.72,0.598,-4.439,4.83,24.36,18.13
,-7.741,2.654,-5.262,-10.065,-0.206,-4.051,-1.4,24.64,15.33
27033.0,-9.241,-0.479,-3.647,-8.299,2.714,-4.408,-1.47,20.65,10.08
,-8.93,0.251,-3.716,-9.055,2.857,-4.781,5.67,19.32,8.89
,-8.38,1.462,-4.204,-9.658,3.151,-4.941,8.19,18.34,7.7
,-8.126,2.108,-4.551,-9.615,2.86,-5.3,3.92,18.76,7.56
27109.0,-8.65,2.017,-5.619,-9.146,-0.883,-4.867,-28.7,11.34,-0.07
,-7.83,1.106,-5.666,-9.552,-0.981,-4.913,-28.28,13.37,-2.59
,-8.215,0.089,-5.006,-9.469,-0.885,-5.085,-24.08,14.21,-3.64
,-8.825,-0.531,-5.238,-9.194,-0.608,-5.054,-16.73,14.07,-3.92
27184.0,-9.088,0.639,-5.427,-9.509,1.409,-4.922,22.26,8.96,-2.03
,-8.765,1.577,-5.41,-9.249,0.462,-5.255,25.2,7.49,-4.06
,-8.581,2.216,-5.121,-8.837,-0.773,-5.604,25.06,5.95,-7.21
,-8.952,2.099,-5.24,-8.598,-2.072,-5.7,21.0,3.64,-10.15
27260.0,-8.301,-2.728,-5.726,-9.538,-1.778,-5.092,14.49,0.56,-4.48
,-8.028,-3.041,-6.044,-9.773,-1.445,-4.669,19.81,-0.91,1.05
,-8.514,-2.704,-5.934,-10.079,-1.086,-4.377,24.22,-2.73,7.63
,-8.93,-2.096,-5.693,-9.337,-0.629,-4.752,26.04,-4.48,11.55
27335.0,-8.215,-0.034,-4.506,-8.966,4.987,-4.393,18.2,-6.23,18.55
,-8.021,1.515,-4.623,-9.062,4.154,-3.982,19.53,-5.18,19.67
,-8.172,3.037,-4.695,-9.167,3.166,-3.721,19.32,-3.15,16.73
,-8.748,4.602,-4.458,-9.148,2.192,-3.819,16.31,-1.26,10.99
27411.0,-8.954,1.194,-4.279,-8.629,0.108,-5.2,-11.06,10.64,-9.1
,-8.985,0.629,-4.477,-9.048,-0.455,-4.779,-9.03,12.74,-10.08
,-9.014,0.39,-4.48,-9.153,-0.459,-5.123,-7.14,14.0,-10.5
,-8.921,0.629,-5.032,-8.942,-0.782,-5.197,-7.56,13.23,-10.43
27487.0,-8.921,-1.137,-5.169,-8.966,-1.84,-5.556,-22.96,13.09,-4.34
,-8.981,-1.51,-5.245,-9.069,-1.278,-5.633,-23.94,12.81,-1.33
,-8.935,-1.866,-5.549,-9.112,-0.522,-5.693,-22.96,12.53,2.73
,-8.794,-1.893,-5.683,-9.217,0.024,-5.552,-17.85,11.97,6.44
27563.0,-9.091,0.378,-5.8,-8.882,-0.206,-6.018,4.48,2.8,9.17
,-8.224,0.266,-6.092,-9.17,0.266,-6.135,0.07,0.77,11.9
,-7.806,0.093,-6.305,-9.088,0.692,-6.324,-2.59,0.56,13.86
,-8.148,-0.208,-6.212,-8.921,0.861,-6.296,-2.38,-0.14,12.67
27639.0,-8.892,0.79,-6.2,-8.483,1.823,-5.453,13.93,-4.9,8.89
,-8.866,0.845,-5.879,-8.411,1.79,-5.458,17.08,-5.53,7.77
,-8.885,1.041,-5.528,-8.705,1.472,-5.181,19.6,-7.35,6.02
,-8.574,1.543,-5.554,-8.626,1.218,-5.439,20.51,-10.22,4.62
27714.0,-8.208,1.024,-5.473,-8.768,1.579,-5.013,0.28,-25.06,3.5
,-8.612,0.811,-5.214,-8.775,1.637,-4.606,1.12,-25.13,3.78
,-8.88,0.696,-4.97,-8.696,1.857,-4.286,7.77,-27.58,0.77
,-9.091,1.22,-5.288,-8.902,1.941,-3.874,10.85,-30.45,-1.19
27790.0,-9.349,1.957,-3.841,-9.416,0.957,-4.269,1.75,-27.93,-8.26
,-9.153,1.826,-4.331,-8.636,1.345,-4.436,-2.38,-30.73,-9.45
,-8.916,1.374,-4.513,-8.287,1.476,-3.573,-6.86,-32.69,-10.57
,-8.878,0.84,-4.561,-8.581,1.098,-3.455,-7.77,-34.09,-11.06
27866.0,-8.856,0.495,-3.07,-9.452,-0.342,-2.924,-13.02,-34.23,-19.74
,-9.012,0.038,-2.465,-9.809,-0.093,-2.915,-11.13,-30.59,-18.2
,-9.107,-0.225,-2.546,-9.263,0.007,-2.749,-8.68,-28.35,-16.94
,-9.373,-0.431,-2.766,-8.993,-0.249,-2.984,-5.39,-27.3,-17.57
27942.0,-8.416,0.031,-3.482,-9.072,-0.503,-1.706,8.89,-19.53,-14.91
,-8.375,0.029,-3.429,-9.543,-0.038,-1.931,11.69,-18.83,-14.07
,-8.605,-0.242,-3.015,-9.514,0.656,-2.895,15.12,-17.57,-12.53
,-8.861,-0.45,-1.977,-9.067,0.646,-2.3,19.18,-14.77,-10.5
28017.0,-9.095,-0.189,-1.479,-9.804,-0.933,0.297,12.39,-12.81,-9.17
,-9.22,-0.835,-0.723,-10.117,-0.914,-0.019,14.28,-9.17,-8.12
,-9.234,-1.163,-0.419,-9.923,-0.603,-0.598,17.5,-6.79,-7.98
,-9.495,-0.883,-0.036,-9.548,-0.366,-1.201,17.99,-5.25,-8.05
28093.0,-9.158,-0.39,-1.85,-9.911,0.182,-3.173,-6.86,7.0,-6.3
,-8.983,-0.739,-1.96,-9.509,0.878,-4.24,-9.24,10.78,-4.62
,-9.16,-1.345,-1.809,-8.873,0.39,-4.898,-7.28,13.79,-2.8
,-9.569,-1.091,-1.989,-8.559,-0.419,-5.042,-1.4,14.35,-1.68
28168.0,-8.763,-1.173,-4.855,-9.215,0.354,-3.625,-2.94,9.94,-1.33
,-9.019,-1.117,-4.044,-9.251,-0.141,-3.326,5.74,8.82,-0.42
,-9.33,-0.438,-3.786,-9.371,-0.605,-3.453,10.43,6.86,0.07
,-9.33,0.297,-3.64,-9.459,-0.526,-3.534,9.17,5.11,-0.07
28244.0,-9.572,-0.115,-3.932,-9.177,-0.416,-3.869,2.59,2.52,-0.42
,-9.296,0.199,-4.001,-9.335,-0.715,-3.295,0.49,1.26,-0.84
,-9.148,-0.036,-3.908,-9.581,-0.806,-3.106,-0.98,0.7,-0.91
,-9.095,-0.026,-3.941,-9.665,-0.373,-3.19,-1.12,0.35,-1.05
28320.0,-9.497,0.182,-3.429,-9.43,-0.591,-3.163,5.18,-1.61,-0.07
,-9.375,0.39,-3.498,-9.536,-0.469,-3.262,2.59,-1.75,-0.28
,-9.258,0.093,-3.556,-9.651,-0.144,-3.475,0.77,-1.4,-0.21
,-9.313,-0.402,-3.309,-9.416,0.318,-3.812,1.54,-1.26,-0.07
28396.0,-9.026,0.182,-4.137,-9.526,-0.601,-2.709,-1.19,-4.83,-1.47
,-8.897,-0.727,-3.975,-9.66,-0.072,-2.678,-3.15,-4.69,-0.77
,-9.045,-1.295,-3.582,-9.67,0.156,-2.85,1.82,-4.83,0.07
,-9.292,-1.055,-3.309,-9.49,0.124,-2.979,8.4,-4.9,0.7
28471.0,-9.5,-0.084,-3.123,-9.655,-0.993,-2.462,-5.6,-7.14,-1.19
,-9.225,0.555,-2.85,-9.61,-0.809,-2.673,-10.08,-8.82,-2.59
,-9.045,0.507,-2.69,-9.289,-0.383,-2.599,-15.12,-9.24,-3.36
,-9.189,-0.316,-2.565,-9.234,-0.591,-2.3,-17.22,-8.47,-2.94
28547.0,-9.366,-0.928,-1.948,-9.617,-0.132,-0.424,-6.86,-3.99,1.05
,-9.428,-1.039,-1.505,-9.471,-0.146,-0.637,-4.13,-1.12,2.17
,-9.368,-0.976,-0.687,-9.301,-0.739,-0.792,-1.19,2.59,3.92
,-9.663,-0.622,-0.237,-9.222,-1.56,-0.866,2.24,6.02,5.25
28623.0,-9.258,-2.319,-0.957,-8.988,-0.33,-2.747,-7.42,24.71,13.44
,-9.414,-2.498,-0.876,-8.382,0.287,-2.96,1.33,29.75,16.1
,-9.734,-2.163,-1.28,-7.897,0.723,-3.175,11.13,33.6,19.39
,-9.564,-1.223,-2.168,-7.662,1.194,-3.958,18.76,35.91,21.77
28699.0,-8.234,1.443,-4.097,-8.959,0.091,-2.642,20.65,37.45,15.61
,-9.249,1.357,-3.544,-8.557,0.608,-3.843,11.62,36.19,12.46
,-9.849,1.058,-3.034,-8.626,1.211,-5.159,4.48,36.61,11.41
,-9.737,0.335,-2.359,-9.481,0.763,-5.69,0.49,36.89,10.64
28775.0,-9.311,0.12,-5.437,-9.294,-0.091,-4.101,-17.99,19.04,11.2
,-8.074,-0.665,-4.039,-9.866,0.019,-4.063,-12.88,25.2,11.55
,-7.334,-0.974,-3.697,-9.761,0.467,-4.537,-5.74,30.59,9.94
,-8.033,-0.601,-3.589,-8.99,0.926,-5.628,0.77,31.85,7.84
28850.0,-8.354,1.326,-6.643,-8.442,-0.163,-4.128,3.92,19.74,16.17
,-8.851,1.649,-6.478,-8.567,-0.553,-3.687,6.58,17.15,13.23
,-8.985,1.496,-6.394,-8.71,-0.632,-4.125,5.11,15.54,9.8
,-8.65,0.811,-5.437,-9.289,-0.55,-4.283,0.56,18.55,7.0
28926.0,-9.311,-0.333,-4.573,-8.497,3.534,-5.609,0.21,16.52,13.65
,-9.148,0.141,-4.164,-8.181,3.577,-5.205,2.45,18.34,14.84
,-9.347,0.976,-4.429,-8.153,2.879,-4.63,6.23,17.22,13.37
,-8.971,2.56,-5.286,-8.897,1.304,-4.283,9.59,14.28,10.08
29001.0,-9.636,0.055,-4.025,-9.294,0.835,-5.348,-20.79,13.09,0.77
,-9.146,-0.675,-4.609,-8.658,1.613,-6.102,-14.63,12.04,0.63
,-9.189,-0.859,-4.649,-8.153,2.338,-6.183,-4.76,12.39,0.91
,-9.677,-0.235,-4.714,-8.301,2.501,-5.975,5.46,11.69,-0.07
29077.0,-8.555,2.175,-5.394,-8.768,-2.596,-4.81,15.89,4.62,-12.53
,-8.708,1.56,-4.558,-9.371,-2.781,-5.41,12.46,4.13,-15.54
,-8.315,0.579,-4.69,-9.387,-2.501,-5.654,7.28,4.13,-15.75
,-8.346,-1.299,-4.575,-8.99,-1.821,-6.119,1.89,5.11,-11.76
29153.0,-7.959,-1.486,-6.762,-9.055,-0.476,-5.229,29.4,-1.33,4.83
,-7.923,-1.802,-6.578,-9.11,0.62,-4.937,28.0,-2.45,9.59
,-8.234,-1.957,-6.217,-9.141,1.543,-4.884,27.23,-4.34,13.79
,-8.701,-1.457,-5.906,-9.103,1.677,-5.027,27.58,-5.11,16.38
29229.0,-8.454,1.11,-4.913,-9.435,2.723,-4.422,5.04,-5.25,14.91
,-8.153,1.335,-4.515,-9.107,2.424,-4.444,6.86,-2.38,13.93
,-8.375,2.661,-4.645,-8.653,2.221,-4.755,10.36,-1.12,10.15
,-8.935,3.238,-4.798,-8.583,1.314,-4.63,7.07,0.35,4.97
29304.0,-8.796,0.617,-4.748,-9.5,-0.005,-5.25,-12.04,7.63,-7.07
,-8.794,0.692,-5.106,-9.842,-0.316,-5.231,-11.69,7.49,-7.21
,-9.028,1.058,-5.485,-9.445,-0.361,-5.343,-11.97,7.91,-7.14
,-9.234,0.739,-5.508,-8.667,-0.345,-5.374,-14.91,8.33,-7.7
29380.0,-8.04,-0.419,-5.621,-9.019,-0.519,-5.798,-13.09,3.57,-4.06
,-7.973,-0.581,-5.456,-8.973,-0.213,-5.987,-12.18,3.29,-3.15
,-8.217,-0.57,-5.516,-8.638,-0.11,-6.08,-11.76,2.8,-2.52
,-8.76,-0.605,-5.671,-8.701,-0.175,-5.784,-11.97,1.54,-0.14
29456.0,-8.935,0.139,-5.492,-8.619,0.002,-5.468,0.7,-1.26,0.77
,-8.978,0.651,-5.516,-8.595,-0.629,-5.633,3.43,-2.31,-1.4
,-8.921,0.723,-5.406,-8.646,-1.089,-5.812,4.06,-2.52,-3.15
,-8.89,0.297,-5.147,-8.586,-1.106,-5.937,2.24,-3.15,-3.57
29532.0,-8.777,-0.436,-5.989,-8.909,1.158,-5.719,17.22,-14.35,4.06
,-8.825,0.474,-6.04,-8.784,1.029,-5.82,20.37,-16.59,4.55
,-8.839,1.06,-5.987,-8.813,0.9,-5.803,18.76,-18.2,4.9
,-9.024,1.146,-5.899,-8.758,1.407,-5.817,13.86,-19.11,5.25
29608.0,-8.555,1.697,-5.53,-8.775,1.005,-4.267,8.96,-26.67,0.35
,-8.533,1.792,-5.379,-8.906,0.639,-4.398,7.14,-27.79,-2.24
,-8.471,1.35,-4.843,-8.794,0.361,-4.25,6.09,-28.98,-2.94
,-8.547,1.216,-4.508,-8.868,0.337,-3.891,5.46,-30.59,-3.22
29683.0,-8.746,0.842,-3.936,-9.198,1.06,-3.673,11.2,-36.54,-6.65
,-8.689,1.354,-4.128,-9.0,0.555,-3.573,11.76,-37.8,-8.26
,-8.801,1.565,-4.092,-8.674,0.199,-3.623,9.66,-38.71,-9.45
,-9.131,1.378,-3.656,-8.679,0.431,-3.757,6.79,-38.43,-9.52
29759.0,-8.863,0.67,-3.458,-8.966,-0.206,-2.568,7.77,-39.76,-16.38
,-9.04,0.486,-2.809,-8.875,-0.646,-1.886,7.35,-39.34,-15.4
,-9.32,0.577,-3.166,-9.127,-1.015,-0.9,5.74,-39.83,-15.47
,-9.014,0.45,-3.053,-9.213,-0.751,0.012,0.7,-39.55,-16.52
29834.0,-9.411,-0.117,0.098,-9.244,-0.302,0.191,21.21,-26.67,-13.23
,-9.332,0.646,0.017,-8.921,-0.814,0.72,17.57,-25.06,-13.65
,-9.407,0.713,0.215,-9.134,-0.814,0.39,10.43,-22.54,-14.28
,-9.533,0.184,0.211,-9.289,-0.498,0.443,5.39,-18.41,-14.14
29910.0,-9.531,-0.187,-0.436,-9.411,-2.077,-1.869,-2.03,-0.56,-12.04
,-9.517,-0.347,-1.031,-9.488,-1.677,-2.446,-11.48,1.47,-12.32
,-9.246,-1.156,-1.17,-9.347,-1.263,-2.62,-17.29,5.04,-11.2
,-9.289,-1.965,-1.433,-9.397,-1.041,-2.589,-16.03,8.54,-9.03
29986.0,-9.524,-0.948,-2.754,-9.435,-0.201,-3.439,1.19,14.84,-1.12
,-9.713,-0.742,-2.618,-9.179,0.134,-4.054,2.87,15.4,-0.35
,-9.73,-0.349,-2.661,-9.036,0.201,-4.573,2.17,15.61,0.0
,-9.689,-0.206,-3.051,-9.0,-0.017,-4.661,0.28,15.54,0.07
30062.0,-9.093,-0.357,-4.475,-9.162,0.12,-4.286,-0.56,9.87,0.42
,-9.208,-0.388,-4.448,-9.294,-0.163,-3.912,2.87,7.91,0.42
,-9.361,-0.196,-4.525,-9.61,-0.682,-3.367,5.25,5.53,0.0
,-9.32,0.065,-4.554,-9.897,-1.024,-2.869,3.29,2.94,-1.19
30137.0,-9.904,-0.84,-2.785,-9.342,-0.273,-3.108,2.8,0.14,-0.77
,-9.739,-0.871,-2.711,-9.435,-0.342,-3.161,3.57,0.14,-0.14
,-9.526,-0.653,-2.852,-9.387,-0.354,-3.092,4.69,0.35,0.21
,-9.404,-0.354,-3.075,-9.409,-0.282,-3.333,4.69,0.28,0.35
30213.0,-9.256,-0.129,-3.659,-9.56,-0.782,-3.496,3.92,-0.7,0.28
,-9.222,0.0,-3.855,-9.454,-0.017,-3.003,3.15,-1.75,-0.21
,-9.107,-0.024,-3.836,-9.495,0.165,-2.958,1.4,-2.31,-0.56
,-9.117,-0.433,-3.573,-9.438,0.072,-2.761,0.56,-2.52,-0.35
30289.0,-9.414,-0.364,-2.706,-9.273,-1.108,-2.393,-16.1,-8.26,-3.85
,-9.34,-0.687,-2.812,-9.411,-0.993,-2.412,-16.1,-7.63,-3.36
,-9.383,-0.804,-2.831,-9.318,-0.72,-2.245,-12.6,-6.93,-2.52
,-9.21,-0.866,-2.692,-9.497,-0.402,-2.419,-9.24,-5.6,-1.26
30365.0,-9.428,-0.208,-2.481,-9.375,-0.603,-2.235,2.59,-1.19,2.8
,-9.402,-0.318,-2.493,-9.521,-0.543,-1.902,1.19,-0.42,3.08
,-9.483,-0.467,-2.534,-9.581,-0.596,-1.721,0.98,0.21,3.5
,-9.363,-0.517,-2.546,-9.639,-0.883,-1.338,1.12,1.05,3.78
30441.0,-9.619,-1.141,-0.84,-9.708,-0.211,-1.531,7.07,11.55,6.79
,-9.605,-1.187,-0.514,-9.474,-0.163,-2.008,9.38,14.84,8.33
,-9.531,-1.031,-0.223,-9.186,-0.605,-2.63,11.48,18.2,9.73
,-9.512,-0.648,-0.203,-8.918,-1.316,-2.613,12.88,21.0,11.13
30516.0,-8.88,-1.85,-2.343,-9.057,0.95,-3.711,0.84,31.08,17.36
,-9.04,-1.472,-2.379,-8.782,0.759,-3.862,12.53,32.76,18.76
,-9.186,-0.342,-3.233,-8.332,0.057,-2.766,18.97,31.36,18.13
,-9.294,0.656,-3.561,-8.703,-0.263,-2.316,17.43,30.31,16.66
30592.0,-8.856,0.51,-1.857,-9.026,0.16,-1.948,21.07,37.94,14.91
,-9.002,1.371,-2.91,-9.301,-0.225,-2.453,21.56,36.12,11.62
,-8.916,1.716,-3.64,-9.742,0.11,-3.515,10.71,33.6,8.19
,-8.926,1.261,-3.18,-9.971,1.091,-5.372,0.63,34.79,7.63
30667.0,-9.294,1.307,-6.322,-8.825,-0.945,-4.544,-5.18,21.07,3.15
,-7.906,0.407,-6.004,-9.885,0.479,-5.03,-11.27,23.03,6.65
,-7.167,-0.663,-4.74,-9.696,2.235,-6.415,-8.12,29.89,8.82
,-7.576,-1.189,-4.173,-8.638,3.206,-6.626,1.68,34.86,6.65
30743.0,-7.854,3.331,-6.703,-8.715,-3.118,-3.781,-4.06,13.23,0.7
,-7.889,2.036,-6.104,-8.906,-4.073,-3.388,-16.45,13.51,-3.5
,-8.571,0.297,-5.307,-9.153,-4.446,-3.285,-25.62,14.0,-5.46
,-8.729,-1.598,-4.822,-9.663,-3.685,-2.96,-31.22,15.05,-4.76
30819.0,-9.581,-1.613,-4.051,-8.552,4.259,-6.128,13.93,15.4,17.15
,-8.885,0.637,-4.669,-8.878,3.953,-5.968,16.8,12.88,20.79
,-8.433,2.922,-5.769,-9.897,2.706,-5.018,16.38,10.57,21.49
,-8.342,4.219,-6.442,-9.5,1.106,-4.882,10.57,8.82,18.48
30895.0,-8.524,-0.299,-4.673,-9.335,0.469,-5.741,-15.4,13.93,-2.24
,-8.751,-1.144,-4.075,-8.796,2.07,-6.552,-2.31,14.28,-2.45
,-9.225,-0.928,-4.52,-8.086,2.496,-6.044,11.41,11.2,-5.74
,-9.392,-0.938,-5.018,-8.519,1.938,-5.516,21.14,7.84,-7.84
30970.0,-8.887,0.675,-5.688,-8.392,-4.334,-5.659,14.63,-0.35,-15.47
,-8.662,-1.165,-5.592,-8.634,-4.137,-5.913,5.81,-0.56,-11.06
,-8.279,-2.84,-5.171,-9.0,-3.549,-6.525,5.18,-1.33,-5.39
,-8.346,-3.85,-5.676,-8.607,-1.682,-6.583,9.17,-2.1,-0.91
31046.0,-8.43,0.036,-6.308,-9.062,-0.285,-4.204,33.25,-11.34,21.84
,-8.385,0.857,-6.281,-8.574,-0.345,-4.298,25.97,-11.2,20.86
,-9.342,0.684,-5.054,-8.741,0.134,-4.147,17.29,-9.94,18.69
,-9.82,0.017,-4.176,-9.002,1.845,-3.991,12.04,-10.15,18.06
31122.0,-8.947,4.264,-4.57,-8.686,1.795,-4.03,16.31,-3.85,12.11
,-8.885,5.298,-4.764,-8.854,1.039,-4.097,8.26,-2.59,6.65
,-9.213,4.353,-3.97,-9.024,0.55,-4.401,-3.92,-1.33,1.26
,-8.835,2.96,-4.066,-9.117,0.469,-4.611,-12.88,-0.21,-2.59
31198.0,-9.057,0.816,-5.097,-9.261,-1.115,-4.913,-11.41,6.02,-9.45
,-8.732,1.117,-5.64,-8.854,-1.18,-5.145,-12.74,5.11,-8.89
,-8.54,0.256,-5.698,-8.66,-1.359,-5.142,-17.71,5.39,-8.54
,-8.978,-0.749,-5.095,-8.672,-1.759,-5.176,-20.44,6.09,-7.77
31274.0,-8.361,-1.342,-5.217,-9.069,0.067,-4.781,-11.62,4.06,1.47
,-8.193,-0.821,-5.386,-9.038,0.306,-4.884,-7.7,3.71,4.06
,-8.691,-0.517,-5.128,-8.89,0.491,-5.181,-5.18,2.73,4.34
,-9.074,-0.127,-4.783,-8.988,0.474,-5.219,-3.22,1.4,2.66
31349.0,-9.21,0.426,-5.154,-9.095,0.227,-4.826,-7.42,-3.99,3.15
,-9.241,0.699,-4.982,-8.772,0.433,-5.506,-4.9,-4.97,0.0
,-9.124,0.804,-5.025,-8.313,0.168,-5.81,-4.69,-4.76,-2.31
,-8.909,0.699,-4.891,-8.413,-0.373,-5.717,-5.46,-4.06,-3.64
31425.0,-8.873,-0.725,-5.394,-9.206,0.749,-5.291,1.61,-10.43,-1.61
,-9.179,-0.287,-5.374,-8.725,0.62,-5.394,7.28,-12.04,-2.66
,-9.323,0.23,-5.217,-8.466,0.658,-5.561,10.36,-12.81,-2.73
,-9.474,0.596,-5.255,-8.437,0.184,-5.061,9.45,-13.51,-2.31
31500.0,-8.586,0.534,-4.795,-8.983,1.251,-4.898,0.91,-16.8,0.91
,-8.713,0.668,-4.472,-8.751,1.06,-4.783,5.95,-17.92,0.42
,-8.894,0.893,-4.704,-8.765,0.67,-4.451,8.61,-20.02,-0.84
,-9.005,1.077,-4.724,-8.859,0.694,-4.228,9.24,-21.21,-1.4
31576.0,-8.938,1.029,-4.393,-8.784,-0.321,-4.25,3.43,-27.44,-6.72
,-9.167,0.787,-4.353,-8.83,-0.438,-4.3,-1.47,-30.59,-7.14
,-9.086,0.558,-4.771,-8.65,-0.335,-4.231,-5.74,-33.25,-7.21
,-8.751,0.196,-4.678,-8.866,0.002,-3.874,-7.14,-33.88,-7.07
31652.0,-8.909,0.282,-3.329,-9.33,0.378,-1.299,14.84,-33.46,-7.56
,-9.194,0.254,-2.967,-9.514,0.574,-1.522,13.93,-32.48,-7.49
,-9.119,0.045,-2.161,-9.141,1.137,-2.039,12.32,-30.52,-8.33
,-9.342,0.019,-1.95,-9.028,1.271,-2.376,12.6,-28.98,-8.68
31728.0,-9.026,0.773,-1.381,-9.32,1.321,-1.149,4.69,-22.89,-11.69
,-9.177,0.73,-1.957,-9.459,0.787,-1.338,9.52,-21.21,-11.76
,-8.94,0.818,-1.393,-9.237,-0.258,-0.751,11.13,-19.74,-13.16
,-9.091,0.981,-1.292,-9.172,-1.431,-0.184,14.42,-18.55,-14.14
31803.0,-9.342,-1.969,-0.615,-9.06,-1.256,-2.946,-4.69,-5.6,-14.21
,-9.658,-1.512,-0.912,-9.105,-1.993,-2.56,1.05,-4.34,-13.16
,-9.679,-0.476,-2.446,-9.208,-2.185,-2.644,-0.91,-5.18,-13.37
,-9.416,-0.443,-2.824,-9.38,-1.718,-2.18,-6.23,-4.27,-12.81
31879.0,-9.497,-1.089,-1.785,-9.55,-0.888,-0.995,12.32,3.64,-3.08
,-9.579,-0.775,-1.278,-9.734,-0.522,-1.637,9.8,5.6,-1.75
,-9.454,-0.751,-1.0,-9.581,-0.007,-3.058,6.86,7.91,-0.7
,-9.493,-0.873,-0.751,-9.153,0.223,-3.673,5.32,10.5,0.21
31955.0,-8.854,-0.144,-4.185,-9.414,-0.134,-5.212,-9.31,11.97,0.14
,-8.885,-0.567,-4.611,-9.342,-0.194,-4.817,-9.59,11.48,0.63
,-9.043,-0.503,-4.803,-9.103,-0.653,-4.111,-6.58,9.8,0.63
,-9.43,-0.469,-5.219,-9.337,-1.163,-3.463,-6.72,6.09,0.07
32031.0,-9.689,-0.821,-3.025,-9.605,-0.617,-2.618,3.57,0.35,2.45
,-9.876,-0.273,-3.154,-9.631,-0.567,-2.548,6.44,-0.28,2.59
,-9.73,-0.084,-3.065,-9.545,-0.077,-2.682,4.55,-0.7,2.59
,-9.502,-0.359,-2.857,-9.545,0.184,-2.989,3.01,-0.07,3.01
32106.0,-9.428,0.005,-3.35,-9.378,-0.117,-3.379,5.6,1.05,2.52
,-9.323,0.108,-3.664,-9.217,0.627,-3.08,5.25,0.21,1.96
,-9.206,-0.005,-3.616,-9.273,0.426,-2.781,5.6,-0.21,2.03
,-9.447,-0.522,-3.63,-9.38,-0.495,-2.737,6.44,-0.63,2.1
32182.0,-9.483,-0.782,-2.386,-9.517,-0.172,-3.101,-11.13,-2.52,-0.91
,-9.395,-0.804,-2.355,-9.459,-0.318,-3.266,-7.84,-1.05,-0.35
,-9.469,-0.615,-2.467,-9.318,-0.146,-3.494,-4.83,0.14,-0.07
,-9.538,-0.313,-2.711,-9.227,-0.022,-3.515,-2.45,0.91,0.21
32258.0,-9.44,-0.067,-3.587,-9.34,-0.366,-2.582,3.43,-0.28,0.63
,-9.567,-0.022,-3.491,-9.462,-0.306,-2.493,0.91,-2.38,0.07
,-9.17,0.172,-3.19,-9.442,-0.428,-2.45,-4.55,-4.13,-0.7
,-9.296,-0.11,-2.845,-9.584,-0.507,-2.546,-8.26,-4.2,-0.91
32333.0,-9.706,-0.531,-2.685,-9.347,-0.488,-2.998,-7.0,-1.33,-0.63
,-9.505,-0.45,-2.955,-9.354,-0.452,-2.759,-6.3,-1.54,-0.21
,-9.397,-0.562,-2.934,-9.347,-0.55,-2.343,-4.97,-1.47,0.28
,-9.373,-0.548,-2.915,-9.356,-0.687,-1.785,-2.1,-0.91,0.84
32409.0,-9.426,-0.888,-1.086,-9.861,-0.215,-1.594,10.08,8.05,5.39
,-9.572,-0.89,-0.51,-9.34,0.005,-2.096,13.65,10.92,6.72
,-9.866,-0.517,-1.285,-9.005,-0.191,-2.335,14.84,11.69,7.14
,-9.727,-0.309,-1.067,-8.885,-0.292,-2.711,12.32,12.67,7.35
32485.0,-8.928,-0.526,-2.395,-9.428,0.038,-1.199,-6.79,17.08,9.45
,-9.165,-0.792,-2.108,-9.567,1.354,-2.991,-3.29,20.44,10.99
,-9.246,-0.936,-1.991,-9.311,1.584,-3.53,-0.28,23.94,12.39
,-9.373,-0.864,-1.685,-9.04,0.593,-3.673,3.85,27.02,13.37
32561.0,-8.894,-0.615,-3.912,-9.062,1.199,-3.24,-19.39,26.88,10.01
,-8.258,-1.4,-2.735,-9.143,1.335,-3.664,-3.29,33.11,12.39
,-8.603,-1.299,-2.867,-8.894,-0.026,-2.414,19.25,34.51,11.55
,-8.619,-0.057,-2.924,-8.868,-1.082,-1.283,32.27,32.27,7.98
32636.0,-8.981,-0.998,-2.324,-8.169,0.237,-5.063,6.3,35.98,9.52
,-9.476,-0.433,-3.352,-7.222,0.428,-5.836,7.14,30.66,6.79
,-9.952,0.397,-4.726,-7.559,0.455,-5.379,4.41,26.6,7.28
,-9.194,0.514,-5.3,-8.672,0.727,-5.315,-3.78,26.81,10.5
32712.0,-9.292,0.826,-5.276,-9.033,0.598,-6.569,0.21,24.78,3.85
,-9.952,0.639,-4.736,-9.222,-0.33,-6.341,-3.08,24.36,5.46
,-9.883,0.747,-5.444,-9.318,-1.692,-5.597,-6.65,20.37,5.81
,-9.351,0.983,-6.028,-9.021,-2.592,-4.913,-7.7,16.94,5.11
32788.0,-8.425,-3.183,-4.678,-9.086,-0.505,-4.46,1.19,11.41,9.8
,-8.447,-3.396,-4.489,-8.83,0.634,-4.862,6.44,12.39,14.0
,-8.806,-2.907,-4.403,-7.887,1.448,-5.267,12.6,11.97,17.01
,-8.973,-1.704,-4.372,-7.842,1.704,-5.027,17.71,9.66,19.6
32864.0,-8.562,1.986,-4.738,-8.823,0.948,-3.388,7.98,7.28,25.62
,-9.347,2.075,-4.539,-8.976,0.957,-3.29,10.15,7.49,21.7
,-9.359,2.063,-4.039,-9.356,1.661,-3.549,11.13,6.86,19.32
,-9.072,1.586,-3.764,-9.287,2.852,-4.269,9.73,7.42,17.92
32939.0,-9.083,4.07,-4.63,-9.651,3.238,-5.068,32.62,7.77,5.46
,-9.253,4.673,-4.968,-8.995,2.134,-4.793,29.05,5.46,1.4
,-8.844,4.666,-5.741,-8.215,0.94,-3.984,22.47,4.48,-4.76
,-8.894,4.02,-5.59,-7.664,0.199,-4.362,15.89,4.69,-11.13
33015.0,-8.05,-0.826,-4.764,-7.377,-1.438,-5.652,7.0,3.64,-15.82
,-9.177,-1.419,-5.006,-7.944,-1.957,-5.731,6.86,4.48,-13.02
,-9.433,-1.201,-5.609,-9.316,-2.302,-5.358,10.08,3.85,-12.46
,-8.411,-1.127,-5.875,-9.71,-2.412,-4.937,12.39,3.64,-12.04
33090.0,-9.253,-2.249,-4.877,-8.607,0.567,-5.185,6.16,2.38,4.83
,-9.155,-1.618,-4.949,-8.684,1.488,-5.317,8.26,2.66,5.81
,-9.005,-1.07,-4.733,-8.789,2.087,-5.315,8.89,2.59,6.44
,-8.808,-0.538,-4.81,-8.703,1.967,-5.542,9.38,2.87,7.84
33166.0,-8.722,1.244,-5.095,-8.949,0.256,-4.803,-1.12,6.02,-0.14
,-8.899,0.565,-4.815,-8.772,-0.038,-4.243,-1.47,7.49,-1.33
,-9.32,0.38,-4.776,-8.909,0.325,-4.19,-0.7,8.61,-2.03
,-9.344,0.313,-4.556,-8.861,0.534,-4.252,0.21,8.89,-2.59
33242.0,-9.095,0.519,-3.898,-8.837,-1.326,-5.051,-7.14,10.01,-1.82
,-8.902,0.756,-4.384,-9.117,-1.28,-5.2,-10.71,9.17,-2.59
,-8.631,0.285,-4.867,-8.899,-0.203,-5.501,-15.47,9.66,-1.54
,-8.538,-0.663,-4.999,-8.464,0.483,-5.8,-18.41,10.92,1.05
33318.0,-8.619,0.821,-5.609,-8.143,-0.191,-5.631,0.07,5.46,0.07
,-8.775,0.503,-5.666,-8.737,-0.263,-5.662,-6.02,4.06,0.42
,-8.586,0.325,-5.841,-9.155,-0.179,-5.736,-10.57,3.15,1.89
,-8.148,0.179,-5.822,-9.194,-0.273,-5.867,-12.39,3.29,3.57
33394.0,-9.028,-0.28,-5.896,-8.94,1.225,-5.671,-4.13,-2.31,2.03
,-8.923,-0.215,-5.721,-9.098,1.433,-5.774,-0.42,-3.5,2.31
,-8.638,0.139,-5.446,-9.421,1.22,-5.784,4.48,-4.76,1.4
,-8.66,0.739,-5.671,-9.162,0.799,-5.889,7.21,-5.95,-0.7
33469.0,-8.612,0.29,-5.918,-8.717,0.763,-5.154,-4.83,-13.79,-4.55
,-8.315,-0.089,-5.635,-8.878,1.39,-5.535,-2.24,-12.81,-4.2
,-8.445,-0.007,-5.664,-9.062,1.615,-5.812,2.87,-13.44,-4.41
,-8.672,0.596,-5.654,-8.892,1.405,-5.875,6.79,-15.26,-4.83
33545.0,-8.717,0.849,-5.59,-8.49,-0.12,-4.889,-6.93,-22.12,-6.23
,-8.851,0.61,-5.307,-9.1,0.053,-4.85,-10.5,-25.48,-6.65
,-8.212,0.246,-5.276,-9.445,0.227,-4.712,-12.67,-28.56,-8.05
,-8.153,-0.101,-5.068,-9.258,0.246,-4.365,-10.08,-30.1,-8.82
33621.0,-8.93,0.0,-4.068,-8.638,0.024,-4.547,-0.14,-31.01,-10.29
,-8.583,-0.069,-4.281,-8.497,-0.065,-4.204,1.4,-31.36,-9.66
,-8.488,-0.041,-4.712,-8.722,-0.014,-4.116,2.45,-33.32,-9.17
,-8.512,-0.038,-4.549,-8.964,0.33,-3.996,3.78,-34.72,-7.28
33697.0,-8.99,0.701,-3.917,-9.139,0.179,-1.625,20.65,-39.06,-7.7
,-9.06,0.782,-4.013,-8.947,0.062,-1.175,15.68,-40.46,-9.1
,-9.174,0.759,-3.491,-8.859,0.206,-0.919,11.83,-39.9,-10.36
,-9.141,0.447,-2.391,-9.052,0.357,-1.62,10.22,-38.15,-10.92
33772.0,-9.107,0.672,-1.862,-8.923,-0.266,0.536,6.3,-32.48,-15.33
,-9.162,0.141,-1.376,-9.265,0.249,0.529,5.32,-29.96,-14.77
,-9.057,-0.457,-0.713,-9.579,0.313,0.488,10.78,-25.69,-12.6
,-9.009,-0.519,-0.366,-9.653,-0.584,0.51,18.62,-21.63,-11.27
33848.0,-9.689,-1.73,0.079,-9.524,-1.472,-1.235,-16.1,-5.04,-11.06
,-9.5,-2.58,-0.249,-9.586,-1.06,-1.263,-15.19,-0.91,-8.96
,-9.332,-2.702,-0.79,-9.813,-0.584,-1.68,-8.75,2.94,-6.44
,-9.514,-2.185,-1.161,-9.847,-0.12,-2.709,-1.12,5.95,-3.99
33923.0,-9.476,0.11,-3.869,-9.28,0.194,-5.482,-8.12,12.18,-0.49
,-9.158,-0.187,-4.355,-9.241,0.747,-5.166,-10.01,11.62,-0.14
,-9.067,-0.378,-4.896,-9.186,0.871,-4.642,-6.09,10.78,0.63
,-9.179,-0.352,-5.384,-9.155,0.189,-4.123,0.63,8.68,0.91
33999.0,-9.325,-0.761,-3.551,-9.347,-0.548,-2.292,-6.16,-2.17,-2.38
,-9.61,-1.115,-3.314,-9.433,-0.78,-2.309,-4.76,-3.15,-2.45
,-9.462,-0.773,-2.998,-9.462,-0.648,-2.35,-4.76,-4.41,-3.01
,-9.395,-0.522,-2.376,-9.402,-0.541,-2.606,-6.37,-4.34,-2.73
34075.0,-9.342,-0.663,-2.568,-9.488,-0.397,-2.28,-2.66,-0.07,0.84
,-9.373,-0.682,-2.551,-9.541,-0.457,-2.379,-0.28,0.42,1.33
,-9.442,-0.447,-2.376,-9.512,-0.268,-2.857,0.28,0.56,1.61
,-9.462,-0.302,-2.197,-9.471,-0.409,-3.003,0.49,1.19,2.1
34151.0,-9.555,-0.476,-3.123,-9.292,-0.256,-3.683,3.29,3.71,2.45
,-9.629,-0.239,-3.455,-9.354,-0.57,-3.814,5.53,3.29,2.59
,-9.574,-0.005,-3.642,-9.378,-0.682,-3.652,5.53,2.59,2.1
,-9.433,-0.014,-3.774,-9.426,-0.665,-3.561,4.41,2.17,2.17
34227.0,-9.574,-0.56,-3.475,-9.428,-0.103,-2.62,13.86,-0.28,3.64
,-9.519,-0.132,-3.266,-9.49,-0.141,-2.666,12.95,-1.4,3.01
,-9.481,0.191,-3.037,-9.505,-0.443,-2.814,9.66,-2.03,2.59
,-9.462,0.244,-2.895,-9.265,-0.562,-2.706,4.48,-2.52,1.75
34302.0,-9.284,-0.663,-2.484,-9.445,0.06,-2.216,-5.11,-2.66,0.42
,-9.426,-0.701,-2.386,-9.359,-0.407,-1.955,-2.38,-1.96,0.84
,-9.572,-0.227,-2.304,-9.366,-0.672,-1.699,-1.4,-1.89,0.7
,-9.536,0.175,-2.3,-9.397,-0.902,-1.397,-3.5,-1.68,0.63
34378.0,-9.485,-0.897,-1.17,-9.483,-1.096,-1.527,0.7,7.49,3.99
,-9.493,-0.773,-1.263,-9.421,-1.23,-1.412,2.31,8.89,4.76
,-9.373,-0.955,-1.156,-9.399,-0.983,-1.862,2.66,11.06,6.16
,-9.485,-1.01,-1.307,-9.208,-0.811,-1.979,3.99,13.65,7.77
34454.0,-9.225,-0.613,-2.558,-9.146,-1.412,-3.503,8.26,22.05,13.16
,-9.273,-0.596,-2.728,-9.124,-1.56,-2.747,4.83,22.61,13.58
,-9.521,-0.663,-2.891,-9.203,-1.005,-2.089,2.73,24.57,15.4
,-9.292,-1.12,-2.836,-9.414,0.548,-2.044,3.92,28.49,18.41
34530.0,-9.167,2.027,-1.969,-8.263,1.78,-2.156,35.56,30.52,18.48
,-9.241,2.979,-2.161,-8.701,0.333,-2.637,25.76,29.61,14.07
,-8.823,3.52,-2.405,-8.287,-0.546,-3.049,6.65,28.42,9.31
,-8.464,3.053,-2.666,-8.784,-0.974,-3.592,-13.65,29.4,5.74
34605.0,-9.155,-0.574,-4.594,-8.275,0.833,-4.736,-24.01,28.14,2.31
,-8.66,-0.361,-4.968,-8.61,1.376,-5.08,-11.2,31.22,5.6
,-8.031,-0.857,-4.508,-9.768,1.084,-5.391,2.66,36.68,9.1
,-8.021,-0.55,-3.743,-10.01,0.826,-5.315,18.48,38.36,11.2
34681.0,-9.378,0.701,-5.027,-9.27,0.804,-4.968,8.82,28.98,4.48
,-8.435,0.531,-5.188,-9.316,-0.273,-4.374,1.75,29.12,0.98
,-8.421,0.321,-4.491,-8.588,-1.881,-4.183,-3.92,29.33,-2.31
,-9.172,0.629,-4.58,-7.48,-3.266,-3.582,-7.98,26.04,-4.06
34756.0,-7.954,-4.02,-3.668,-8.988,1.826,-6.782,-19.46,34.51,15.68
,-9.287,-3.491,-4.511,-8.047,3.836,-7.172,-3.01,29.19,18.76
,-10.065,-2.295,-5.508,-7.595,4.633,-7.018,11.97,23.45,20.86
,-9.861,-0.567,-6.719,-8.349,4.405,-5.954,24.5,18.55,22.61
34832.0,-9.184,3.599,-5.24,-8.586,-1.608,-5.071,-9.31,13.86,4.2
,-9.517,2.091,-4.281,-9.091,-1.213,-5.298,-20.72,15.05,2.94
,-9.399,0.491,-4.192,-9.117,0.979,-5.633,-24.22,14.56,1.54
,-9.033,-0.878,-4.503,-8.361,2.91,-5.913,-18.41,13.58,0.84
34908.0,-7.574,3.752,-6.09,-8.241,-1.216,-5.413,34.02,3.71,-13.23
,-8.196,3.661,-5.59,-8.174,-1.256,-5.949,21.49,4.83,-15.96
,-9.091,2.154,-4.975,-7.999,-1.0,-6.152,6.58,6.09,-14.56
,-9.016,0.136,-4.781,-8.035,-0.637,-6.647,-2.8,7.0,-13.37
34984.0,-8.181,-0.78,-6.547,-9.531,-2.563,-5.293,11.62,0.21,-5.81
,-8.708,-1.496,-6.205,-9.292,-2.434,-5.264,8.19,-0.77,-3.08
,-9.033,-2.02,-5.925,-8.648,-2.115,-5.063,7.28,-2.17,-1.05
,-9.505,-2.582,-5.508,-7.956,-0.84,-5.214,7.63,-3.99,1.68
35060.0,-8.148,0.893,-5.602,-8.356,0.203,-4.19,15.12,-2.8,12.39
,-9.033,2.123,-5.465,-8.004,0.072,-4.346,12.74,-3.92,11.9
,-9.292,2.57,-5.444,-8.339,0.763,-4.755,6.37,-3.92,10.01
,-8.902,1.527,-4.783,-8.945,1.823,-5.303,-0.7,-1.75,8.54
35135.0,-9.536,2.441,-5.686,-8.471,-0.163,-5.346,1.47,4.06,0.98
,-9.38,1.814,-5.774,-8.677,0.112,-5.396,-5.39,4.13,-1.47
,-9.639,0.543,-5.116,-8.988,0.33,-5.686,-11.41,4.41,-3.92
,-9.201,-0.124,-5.047,-9.1,0.242,-5.851,-14.14,3.43,-4.9
35211.0,-8.813,-0.445,-5.705,-8.392,-1.448,-5.674,-18.41,-2.17,-6.02
,-8.433,-1.455,-5.7,-8.299,-0.706,-5.834,-19.88,-2.1,-3.57
,-8.361,-2.324,-5.446,-8.129,0.0,-5.82,-17.15,-1.47,-0.42
,-8.6,-2.046,-5.233,-8.275,0.144,-5.506,-9.87,-3.08,3.43
35287.0,-8.76,-0.122,-4.831,-8.835,0.828,-5.085,-2.45,-6.58,9.66
,-9.086,0.05,-4.889,-9.292,0.759,-4.963,-1.47,-6.37,9.52
,-8.928,0.414,-4.922,-9.227,0.579,-4.556,2.1,-6.02,8.89
,-8.775,0.687,-5.068,-9.21,0.507,-4.125,6.23,-5.25,7.63
35363.0,-8.227,0.991,-4.872,-9.263,1.505,-5.327,10.85,-10.29,2.31
,-7.798,1.141,-5.233,-8.89,1.603,-5.753,7.63,-10.29,2.8
,-8.425,1.132,-5.26,-8.399,1.019,-5.769,4.97,-11.2,3.01
,-9.277,1.199,-5.19,-8.394,0.302,-5.659,2.03,-13.93,1.89
35438.0,-8.787,0.062,-5.937,-9.067,0.251,-5.401,-6.65,-17.22,-0.49
,-8.871,0.206,-6.145,-9.158,0.369,-5.365,0.21,-21.0,-1.68
,-8.715,0.151,-6.009,-8.976,0.378,-5.415,4.06,-22.82,-1.68
,-8.653,0.337,-5.705,-8.873,0.33,-5.41,6.79,-23.03,-2.31
35514.0,-8.808,0.34,-5.415,-8.595,0.572,-4.757,10.71,-25.62,-0.91
,-8.868,0.426,-5.418,-8.153,0.436,-4.602,12.81,-27.58,-1.12
,-8.926,0.457,-5.008,-8.339,0.268,-4.334,13.02,-28.91,-2.03
,-9.1,0.357,-4.666,-8.799,0.541,-4.602,11.13,-32.2,-3.5
35589.0,-9.131,0.708,-4.022,-9.112,1.381,-3.015,12.6,-38.64,-3.99
,-9.378,0.909,-3.525,-9.256,1.316,-3.022,15.89,-36.54,-4.41
,-9.237,1.228,-3.13,-8.954,0.9,-2.967,18.06,-34.86,-5.74
,-9.217,1.505,-3.317,-8.839,0.196,-2.795,16.52,-35.42,-8.05
35665.0,-8.514,-0.299,-2.431,-9.304,0.06,-0.905,7.35,-32.41,-11.9
,-8.619,-0.251,-1.807,-9.129,0.199,-1.122,14.07,-30.94,-12.74
,-8.899,-0.101,-1.847,-9.217,0.426,-1.003,17.29,-30.45,-13.16
,-8.954,0.263,-0.797,-9.229,0.684,-1.271,16.73,-28.77,-12.81
35741.0,-9.206,0.785,-1.204,-9.591,-0.739,-1.283,5.81,-20.79,-15.26
,-9.299,0.414,-1.278,-9.313,-0.828,-0.799,3.36,-18.41,-15.75
,-9.392,-0.079,-1.318,-9.263,-0.957,-0.921,3.15,-16.1,-15.61
,-9.593,-0.565,-1.505,-9.407,-1.132,-0.972,2.24,-14.98,-16.03
35817.0,-9.524,-0.84,-1.565,-9.66,-1.522,-2.539,0.35,-4.97,-12.25
,-9.572,-0.713,-2.312,-9.529,-1.036,-2.027,-4.06,-3.99,-11.9
,-9.438,-1.115,-2.345,-9.514,-0.574,-1.369,-6.09,-2.03,-10.43
,-9.555,-1.381,-2.513,-9.648,-0.28,-1.711,-3.5,-0.21,-8.68
35892.0,-9.612,-0.455,-1.711,-9.756,-0.775,-2.101,3.92,5.04,-4.9
,-9.426,-0.861,-1.632,-9.706,-0.263,-2.367,1.68,6.72,-4.06
,-9.454,-1.338,-1.496,-9.529,-0.251,-2.726,2.17,8.89,-2.73
,-9.667,-1.443,-1.658,-9.359,-0.436,-3.094,6.79,10.36,-1.61
35968.0,-9.273,-0.586,-3.587,-9.347,-0.648,-3.807,-0.21,10.36,-1.4
,-9.237,-0.663,-3.941,-9.34,-0.481,-3.592,2.31,9.66,-0.84
,-9.203,-0.814,-3.994,-9.39,-0.431,-3.486,4.83,8.75,-0.35
,-9.296,-0.931,-3.865,-9.442,-0.512,-3.209,8.12,7.56,0.21
36044.0,-9.624,-0.62,-3.149,-9.411,-0.498,-3.242,7.14,3.78,0.98
,-9.627,-0.524,-3.278,-9.373,-0.354,-3.338,5.39,3.08,0.49
,-9.584,-0.577,-3.214,-9.265,-0.189,-3.226,3.36,2.52,0.21
,-9.505,-0.668,-3.173,-9.191,-0.065,-3.094,2.59,2.03,0.28
36120.0,-9.241,-0.29,-3.001,-9.435,-1.194,-2.582,-3.57,-0.28,-1.19
,-9.308,-0.603,-2.682,-9.421,-1.314,-2.381,-4.48,-0.35,-1.12
,-9.416,-0.61,-2.848,-9.521,-1.156,-2.35,-4.41,-0.63,-1.12
,-9.426,-0.933,-2.783,-9.686,-0.73,-2.386,-4.41,-0.28,-0.84
36196.0,-9.682,-0.402,-2.498,-9.316,-0.38,-3.362,4.41,3.22,2.59
,-9.675,-0.249,-2.601,-9.263,-0.531,-3.496,1.12,3.71,2.31
,-9.612,-0.395,-2.757,-9.256,-0.586,-3.515,-1.47,3.99,2.03
,-9.526,-0.388,-3.12,-9.354,-0.505,-3.558,-1.75,3.64,1.96
36271.0,-9.38,-0.311,-3.443,-9.464,-0.732,-2.864,5.67,1.47,2.8
,-9.344,-0.438,-3.343,-9.44,-0.505,-2.766,3.64,0.91,2.73
,-9.349,-0.747,-3.144,-9.411,-0.292,-2.737,1.47,0.77,2.94
,-9.39,-0.9,-2.95,-9.371,-0.342,-2.63,2.24,0.91,3.43
36347.0,-9.399,-0.445,-2.651,-9.33,-0.048,-2.266,0.63,1.47,3.71
,-9.395,-0.517,-2.675,-9.076,-0.048,-2.106,-0.28,1.54,3.57
,-9.572,-0.873,-2.673,-9.275,-0.665,-1.634,-0.49,1.4,3.5
,-9.584,-0.613,-2.592,-9.256,-0.945,-1.431,-0.28,0.84,2.45
36422.0,-9.294,-1.196,-0.909,-9.351,-1.871,-1.299,-3.36,7.42,4.55
,-9.476,-0.916,-1.381,-9.466,-2.156,-1.091,-2.03,8.96,5.18
,-9.354,-1.019,-1.575,-9.493,-1.503,-1.357,-3.08,10.92,5.88
,-9.246,-1.424,-1.448,-9.6,-0.23,-1.725,-3.22,13.93,8.12
36498.0,-9.462,0.797,-2.962,-9.33,0.369,-3.845,6.72,16.03,12.18
,-9.421,1.007,-3.245,-9.246,0.792,-3.606,-0.98,17.15,12.18
,-9.407,0.488,-3.439,-8.935,1.579,-5.106,-6.23,19.6,13.51
,-9.411,0.321,-3.565,-8.605,1.857,-4.702,-6.93,21.28,14.35
36574.0,-8.909,1.225,-4.85,-8.856,-0.124,-1.685,-11.55,15.82,5.74
,-8.878,0.605,-4.168,-9.227,0.282,-0.694,-11.55,16.38,5.53
,-8.808,-0.242,-3.441,-9.787,0.33,-1.156,-6.51,19.25,5.46
,-8.873,-0.522,-2.438,-9.981,-0.12,-1.558,4.2,23.17,5.18
36650.0,-9.899,-0.933,-2.496,-8.095,-0.407,-4.204,-3.43,27.93,3.43
,-9.134,-1.414,-2.903,-8.181,-0.029,-4.994,-2.24,31.78,7.49
,-8.658,-1.716,-3.427,-8.614,-0.694,-4.862,6.3,35.21,10.5
,-8.107,-1.218,-3.398,-9.06,-1.534,-4.07,15.47,35.98,9.8
36725.0,-8.844,-1.795,-3.317,-9.617,0.517,-4.621,0.49,33.81,17.43
,-8.777,-1.251,-3.273,-8.99,1.467,-4.977,6.16,33.32,17.22
,-9.232,-1.029,-3.312,-8.531,2.816,-5.039,8.96,31.64,13.65
,-9.945,-0.476,-3.872,-7.59,4.087,-5.765,9.1,27.37,11.34
36801.0,-7.401,4.762,-5.508,-9.677,-0.014,-4.807,-2.38,19.74,4.76
,-8.849,4.661,-5.023,-8.5,-1.828,-5.221,-10.29,19.32,-1.89
,-9.782,3.948,-4.714,-7.796,-3.439,-5.236,-22.4,18.41,-5.46
,-10.014,2.142,-4.896,-9.179,-3.295,-4.908,-33.04,18.41,-6.02
36877.0,-9.533,-1.555,-5.104,-9.062,0.773,-5.604,21.21,12.53,-2.38
,-8.686,0.134,-5.418,-9.383,-0.249,-6.279,29.4,11.48,-3.36
,-7.968,1.335,-5.248,-8.926,-1.862,-6.6,26.67,10.64,-2.52
,-7.758,1.508,-5.358,-8.404,-4.145,-6.494,17.36,10.5,-2.66
36953.0,-8.258,-5.485,-6.566,-9.885,0.514,-5.489,4.97,3.43,12.46
,-8.756,-5.245,-6.193,-9.136,1.816,-5.329,20.16,2.52,16.38
,-9.797,-3.893,-5.705,-8.354,2.247,-5.075,35.07,-0.77,17.71
,-10.055,-1.685,-5.312,-8.203,2.632,-5.461,43.33,-5.04,18.06
37029.0,-8.382,2.603,-4.769,-8.813,2.194,-4.075,11.62,-5.11,15.75
,-8.634,2.438,-4.508,-8.368,2.661,-4.561,8.82,-5.18,13.37
,-8.995,2.17,-4.623,-8.059,3.041,-4.57,7.77,-4.06,11.2
,-9.064,1.773,-4.252,-8.346,3.649,-4.678,8.05,-2.1,9.66
37104.0,-9.273,3.417,-5.049,-8.442,-1.096,-5.367,-9.03,7.21,-10.99
,-9.983,2.201,-4.944,-9.15,-0.256,-5.633,-18.48,7.98,-14.63
,-9.311,0.548,-4.846,-9.366,0.424,-5.592,-25.41,8.61,-15.4
,-8.351,-0.732,-5.128,-9.299,0.426,-5.52,-27.79,10.29,-14.0
37180.0,-9.265,-0.593,-5.157,-8.442,-1.383,-5.776,-26.39,7.28,-13.02
,-9.249,-1.598,-4.867,-8.854,-1.701,-5.329,-28.98,6.86,-10.85
,-8.897,-1.929,-4.91,-8.851,-1.78,-5.327,-26.18,5.67,-7.7
,-8.368,-1.725,-5.439,-8.653,-1.843,-5.303,-21.07,4.41,-4.41
37255.0,-9.194,-2.335,-5.252,-9.165,-0.349,-5.721,-7.91,0.91,10.08
,-9.421,-2.723,-5.468,-9.256,0.926,-5.707,-5.39,-0.56,13.02
,-9.184,-2.876,-5.327,-9.299,1.732,-5.42,0.56,-1.12,16.03
,-9.249,-1.91,-5.374,-9.608,1.967,-4.499,10.08,-1.54,17.57
37331.0,-8.624,2.907,-5.585,-9.213,1.57,-5.465,9.1,-10.92,5.88
,-7.394,2.469,-5.86,-9.318,1.974,-5.427,-0.84,-10.57,5.25
,-7.097,1.625,-5.717,-8.983,1.79,-5.439,-5.53,-9.31,4.34
,-8.361,1.314,-5.31,-8.665,1.488,-5.64,-4.06,-11.13,1.82
37407.0,-8.404,0.818,-5.922,-9.454,0.658,-5.611,-7.56,-19.04,-2.17
,-8.497,0.165,-5.851,-8.208,1.034,-5.666,-6.3,-19.32,-1.12
,-8.5,-0.101,-6.272,-7.968,0.66,-5.284,-1.54,-20.3,-1.82
,-9.555,-0.22,-5.418,-8.516,0.311,-4.714,5.32,-23.1,-3.78
37483.0,-9.21,0.191,-4.307,-8.911,0.254,-3.912,-2.1,-30.38,-6.37
,-9.629,0.292,-4.156,-9.009,0.34,-3.743,0.98,-30.59,-7.63
,-9.634,0.488,-4.171,-8.904,1.089,-3.915,2.8,-31.36,-7.42
,-9.141,0.409,-4.156,-8.772,1.632,-4.068,4.83,-30.24,-6.02
37558.0,-8.734,1.749,-4.255,-8.904,0.273,-3.642,14.28,-29.96,-9.17
,-8.459,1.505,-4.776,-9.031,-0.01,-2.694,9.8,-31.85,-8.54
,-8.368,1.0,-4.664,-9.249,0.179,-2.06,7.98,-32.41,-7.56
,-8.526,0.596,-4.279,-9.031,0.491,-1.486,10.71,-32.83,-6.93
37634.0,-9.129,0.218,-1.053,-9.227,0.897,-1.244,11.76,-31.92,-12.25
,-9.155,0.28,-0.921,-9.076,0.505,-1.06,5.25,-31.36,-11.97
,-9.471,0.297,-0.644,-9.167,0.062,-1.278,2.45,-29.75,-12.11
,-9.464,0.565,-1.129,-9.148,-0.562,-0.835,-0.77,-28.77,-13.51
37709.0,-9.189,-1.074,-0.414,-9.399,-0.991,-1.993,-0.14,-14.35,-16.17
