Timestamp,AccX,AccY,AccZ,GyroX,GyroY,GyroZ,MagnX,MagnY,MagnZ
0.0,-9.229,-0.397,-3.707,-9.184,-0.4,-3.611,3.57,0.63,0.77
,-9.201,-0.402,-3.64,-9.203,-0.421,-3.618,3.64,0.77,0.77
,-9.182,-0.395,-3.685,-9.222,-0.392,-3.666,3.85,0.91,0.77
,-9.186,-0.428,-3.616,-9.194,-0.469,-3.678,3.78,0.84,0.84
76.0,-9.198,-0.44,-3.637,-9.21,-0.407,-3.721,3.57,1.19,0.84
,-9.194,-0.395,-3.68,-9.203,-0.4,-3.707,3.78,1.05,0.77
,-9.198,-0.316,-3.69,-9.174,-0.323,-3.735,3.29,1.26,0.7
,-9.21,-0.395,-3.678,-9.184,-0.388,-3.769,2.73,1.19,0.63
152.0,-9.119,-0.345,-3.75,-9.229,-0.433,-3.673,3.15,0.98,0.56
,-9.15,-0.325,-3.771,-9.162,-0.428,-3.683,3.22,0.98,0.42
,-9.15,-0.359,-3.776,-9.227,-0.438,-3.594,3.01,0.91,0.28
,-9.194,-0.445,-3.702,-9.203,-0.407,-3.592,3.01,0.63,0.35
227.0,-9.22,-0.39,-3.556,-9.198,-0.452,-3.64,3.5,1.05,0.56
,-9.265,-0.438,-3.565,-9.177,-0.402,-3.664,3.43,1.26,0.56
,-9.229,-0.479,-3.601,-9.227,-0.34,-3.731,3.5,1.26,0.63
,-9.21,-0.445,-3.654,-9.196,-0.376,-3.687,3.71,1.47,0.7
302.0,-9.189,-0.443,-3.728,-9.15,-0.426,-3.75,2.59,1.26,0.42
,-9.196,-0.38,-3.771,-9.213,-0.416,-3.75,2.87,1.4,0.56
,-9.172,-0.395,-3.745,-9.148,-0.404,-3.721,3.01,1.33,0.56
,-9.179,-0.402,-3.754,-9.203,-0.457,-3.721,2.94,1.19,0.49
378.0,-9.196,-0.488,-3.644,-9.234,-0.464,-3.604,3.43,0.98,0.56
,-9.196,-0.373,-3.668,-9.208,-0.447,-3.618,3.64,0.77,0.49
,-9.215,-0.407,-3.647,-9.201,-0.438,-3.623,3.43,0.7,0.42
,-9.215,-0.447,-3.625,-9.237,-0.445,-3.597,3.15,0.63,0.28
454.0,-9.232,-0.469,-3.561,-9.21,-0.505,-3.652,3.29,1.33,0.56
,-9.189,-0.45,-3.613,-9.17,-0.481,-3.673,3.29,1.4,0.63
,-9.229,-0.431,-3.632,-9.184,-0.373,-3.735,3.15,1.54,0.63
,-9.194,-0.495,-3.652,-9.174,-0.359,-3.668,2.87,1.47,0.63
530.0,-9.203,-0.404,-3.661,-9.165,-0.392,-3.687,2.94,1.61,0.63
,-9.249,-0.459,-3.659,-9.256,-0.488,-3.647,2.73,1.68,0.63
,-9.203,-0.476,-3.637,-9.256,-0.507,-3.666,2.73,1.61,0.77
,-9.189,-0.447,-3.697,-9.217,-0.476,-3.687,3.01,1.82,0.84
605.0,-9.203,-0.541,-3.707,-9.229,-0.457,-3.695,2.66,1.61,0.63
,-9.179,-0.524,-3.699,-9.258,-0.514,-3.656,3.01,1.68,0.77
,-9.196,-0.447,-3.68,-9.256,-0.428,-3.644,3.08,1.4,0.77
,-9.191,-0.474,-3.697,-9.182,-0.428,-3.673,3.01,1.54,0.77
681.0,-9.213,-0.438,-3.644,-9.256,-0.459,-3.69,2.87,1.54,0.91
,-9.182,-0.438,-3.671,-9.177,-0.431,-3.704,2.94,1.47,0.91
,-9.191,-0.44,-3.647,-9.213,-0.443,-3.714,2.87,1.47,0.91
,-9.198,-0.364,-3.632,-9.17,-0.426,-3.719,2.66,1.4,0.84
757.0,-9.105,-0.445,-3.716,-9.17,-0.457,-3.659,3.22,1.33,0.84
,-9.208,-0.376,-3.766,-9.186,-0.438,-3.616,3.36,1.26,0.7
,-9.189,-0.412,-3.704,-9.268,-0.433,-3.625,3.15,1.19,0.7
,-9.131,-0.45,-3.671,-9.227,-0.491,-3.606,3.01,1.4,0.84
832.0,-9.213,-0.514,-3.549,-9.203,-0.455,-3.585,2.52,1.26,0.7
,-9.232,-0.467,-3.587,-9.229,-0.467,-3.62,2.8,1.54,0.84
,-9.203,-0.438,-3.551,-9.194,-0.44,-3.671,2.87,1.75,0.91
,-9.186,-0.433,-3.62,-9.217,-0.438,-3.69,2.45,1.68,0.77
908.0,-9.215,-0.462,-3.668,-9.206,-0.366,-3.757,2.38,1.89,0.77
,-9.148,-0.414,-3.699,-9.186,-0.371,-3.747,2.24,2.03,0.84
,-9.194,-0.462,-3.709,-9.237,-0.397,-3.738,2.52,1.89,0.91
,-9.153,-0.431,-3.766,-9.198,-0.433,-3.661,3.08,1.75,0.91
984.0,-9.186,-0.505,-3.704,-9.227,-0.409,-3.659,2.03,1.68,0.63
,-9.194,-0.495,-3.683,-9.182,-0.428,-3.661,2.03,1.47,0.63
,-9.184,-0.419,-3.702,-9.21,-0.371,-3.743,2.38,1.54,0.56
,-9.186,-0.404,-3.661,-9.15,-0.457,-3.692,2.52,1.61,0.7
1060.0,-9.239,-0.471,-3.692,-9.22,-0.455,-3.671,2.52,1.61,0.7
,-9.189,-0.471,-3.522,-9.155,-0.586,-3.486,2.45,1.89,0.84
,-9.201,-0.519,-3.575,-9.186,-0.476,-3.594,1.96,1.61,0.77
,-9.15,-0.462,-3.573,-9.127,-0.455,-3.731,2.24,1.61,0.77
1135.0,-9.162,-0.426,-3.707,-9.201,-0.431,-3.659,3.43,1.47,0.63
,-9.21,-0.416,-3.745,-9.189,-0.455,-3.671,3.15,1.54,0.63
,-9.191,-0.397,-3.723,-9.206,-0.436,-3.611,2.94,1.33,0.63
,-9.189,-0.402,-3.699,-9.201,-0.419,-3.661,2.59,1.26,0.63
1211.0,-9.234,-0.45,-3.692,-9.146,-0.443,-3.649,2.17,1.19,0.42
,-9.229,-0.455,-3.659,-9.139,-0.467,-3.709,2.31,1.26,0.49
,-9.213,-0.467,-3.673,-9.222,-0.424,-3.754,2.59,1.61,0.63
,-9.167,-0.459,-3.678,-9.189,-0.436,-3.745,2.59,1.68,0.7
1287.0,-9.21,-0.409,-3.743,-9.148,-0.445,-3.716,2.45,1.26,0.49
,-9.201,-0.428,-3.697,-9.222,-0.431,-3.726,2.59,1.26,0.56
,-9.201,-0.395,-3.707,-9.182,-0.414,-3.707,2.52,1.19,0.49
,-9.215,-0.45,-3.723,-9.155,-0.397,-3.668,2.31,1.26,0.42
1363.0,-9.184,-0.457,-3.632,-9.194,-0.491,-3.58,2.73,1.05,0.49
,-9.189,-0.438,-3.604,-9.244,-0.481,-3.635,2.8,1.33,0.42
,-9.227,-0.414,-3.661,-9.201,-0.433,-3.616,2.66,1.4,0.49
,-9.213,-0.486,-3.611,-9.208,-0.467,-3.632,2.66,1.47,0.56
1438.0,-9.217,-0.462,-3.656,-9.165,-0.498,-3.778,2.8,1.89,0.77
,-9.203,-0.438,-3.714,-9.143,-0.412,-3.711,2.73,1.89,0.63
,-9.17,-0.397,-3.733,-9.174,-0.445,-3.726,2.52,1.89,0.63
,-9.189,-0.443,-3.743,-9.191,-0.409,-3.757,2.45,1.89,0.63
1514.0,-9.182,-0.428,-3.757,-9.196,-0.467,-3.714,2.52,1.75,0.77
,-9.16,-0.457,-3.733,-9.21,-0.428,-3.683,2.52,1.54,0.63
,-9.16,-0.462,-3.702,-9.215,-0.45,-3.664,2.59,1.54,0.63
,-9.17,-0.479,-3.733,-9.179,-0.447,-3.685,2.8,1.54,0.63
1589.0,-9.196,-0.469,-3.702,-9.206,-0.424,-3.738,2.8,1.4,0.7
,-9.194,-0.462,-3.731,-9.213,-0.503,-3.711,2.73,1.54,0.77
,-9.182,-0.483,-3.707,-9.174,-0.469,-3.683,2.8,1.82,0.91
,-9.177,-0.452,-3.687,-9.196,-0.491,-3.704,2.94,1.54,0.84
1665.0,-9.208,-0.445,-3.702,-9.189,-0.412,-3.652,2.66,1.33,0.7
,-9.177,-0.45,-3.683,-9.182,-0.452,-3.692,2.73,1.4,0.84
,-9.172,-0.443,-3.647,-9.177,-0.447,-3.699,2.66,1.33,0.77
,-9.148,-0.445,-3.676,-9.194,-0.452,-3.671,2.73,1.4,0.77
1741.0,-9.215,-0.471,-3.671,-9.167,-0.409,-3.721,2.73,1.47,0.91
,-9.174,-0.481,-3.716,-9.184,-0.416,-3.752,2.73,1.4,0.91
,-9.177,-0.476,-3.707,-9.208,-0.462,-3.764,2.8,1.47,0.84
,-9.124,-0.459,-3.731,-9.198,-0.507,-3.752,2.73,1.61,0.98
1817.0,-9.189,-0.474,-3.68,-9.146,-0.469,-3.678,3.22,1.4,0.98
,-9.153,-0.433,-3.719,-9.182,-0.498,-3.68,3.22,1.19,1.05
,-9.208,-0.376,-3.769,-9.174,-0.447,-3.721,2.94,1.19,0.91
,-9.208,-0.414,-3.709,-9.177,-0.414,-3.656,2.59,1.26,0.91
1893.0,-9.174,-0.44,-3.642,-9.191,-0.438,-3.644,2.94,0.98,0.91
,-9.222,-0.431,-3.649,-9.196,-0.462,-3.687,2.8,1.12,0.91
,-9.191,-0.495,-3.666,-9.246,-0.467,-3.676,2.66,1.05,0.84
,-9.194,-0.4,-3.659,-9.196,-0.471,-3.64,2.73,1.12,0.77
1968.0,-9.174,-0.436,-3.635,-9.21,-0.486,-3.668,2.87,1.33,0.91
,-9.237,-0.395,-3.649,-9.213,-0.443,-3.666,2.59,1.33,0.77
,-9.249,-0.471,-3.613,-9.227,-0.493,-3.697,2.17,1.54,0.77
,-9.225,-0.488,-3.637,-9.198,-0.467,-3.654,1.89,1.47,0.77
2044.0,-9.213,-0.438,-3.714,-9.146,-0.424,-3.783,2.17,1.75,0.84
,-9.241,-0.414,-3.759,-9.127,-0.383,-3.786,2.17,1.68,0.84
,-9.206,-0.421,-3.783,-9.167,-0.414,-3.728,2.24,1.68,0.91
,-9.158,-0.419,-3.778,-9.158,-0.421,-3.719,2.31,1.47,0.84
2120.0,-9.182,-0.464,-3.685,-9.217,-0.445,-3.704,2.87,1.26,0.84
,-9.17,-0.474,-3.716,-9.213,-0.378,-3.644,2.87,1.12,0.84
,-9.184,-0.452,-3.692,-9.194,-0.45,-3.637,3.01,1.05,0.84
,-9.203,-0.462,-3.716,-9.201,-0.438,-3.628,3.15,1.12,0.77
2196.0,-9.215,-0.407,-3.628,-9.208,-0.385,-3.831,2.94,1.26,0.84
,-9.184,-0.457,-3.625,-9.201,-0.404,-3.8,2.8,1.33,0.98
,-9.198,-0.421,-3.628,-9.129,-0.431,-3.752,2.66,1.61,0.98
,-9.22,-0.462,-3.747,-9.184,-0.431,-3.668,2.52,1.54,0.84
2271.0,-9.174,-0.426,-3.716,-9.196,-0.364,-3.707,2.03,1.47,0.91
,-9.184,-0.424,-3.702,-9.184,-0.433,-3.692,2.17,1.4,0.7
,-9.15,-0.385,-3.759,-9.198,-0.419,-3.683,2.38,1.33,0.63
,-9.174,-0.426,-3.731,-9.124,-0.416,-3.702,2.45,1.19,0.63
2347.0,-9.21,-0.464,-3.676,-9.213,-0.402,-3.745,2.38,1.12,0.84
,-9.196,-0.469,-3.707,-9.174,-0.438,-3.678,2.45,1.26,0.91
,-9.234,-0.45,-3.735,-9.191,-0.424,-3.697,2.73,1.12,0.98
,-9.22,-0.438,-3.707,-9.227,-0.457,-3.719,2.94,1.05,0.84
2422.0,-9.21,-0.462,-3.776,-9.186,-0.44,-3.702,3.01,0.84,0.91
,-9.184,-0.433,-3.668,-9.203,-0.481,-3.647,3.15,0.91,0.91
,-9.172,-0.361,-3.695,-9.148,-0.455,-3.716,3.15,1.05,0.98
,-9.208,-0.366,-3.723,-9.182,-0.424,-3.697,2.94,0.91,0.84
2498.0,-9.213,-0.404,-3.731,-9.225,-0.392,-3.628,2.52,0.63,0.63
,-9.22,-0.462,-3.625,-9.22,-0.431,-3.609,2.38,0.7,0.56
,-9.215,-0.495,-3.632,-9.222,-0.45,-3.585,2.38,0.77,0.7
,-9.179,-0.44,-3.592,-9.229,-0.514,-3.606,2.52,0.84,0.91
2574.0,-9.225,-0.534,-3.632,-9.201,-0.459,-3.726,2.59,1.26,0.98
,-9.189,-0.457,-3.635,-9.198,-0.407,-3.716,2.87,1.47,0.98
,-9.201,-0.414,-3.654,-9.17,-0.412,-3.714,2.87,1.47,1.05
,-9.217,-0.416,-3.668,-9.16,-0.421,-3.702,2.73,1.61,1.05
2650.0,-9.182,-0.419,-3.683,-9.256,-0.459,-3.728,3.01,1.26,0.98
,-9.201,-0.39,-3.781,-9.174,-0.491,-3.577,2.94,1.19,0.91
,-9.179,-0.38,-3.762,-9.229,-0.464,-3.86,2.87,1.12,0.91
,-9.22,-0.433,-3.719,-9.16,-0.359,-3.728,2.73,1.12,0.91
2725.0,-9.198,-0.371,-3.766,-9.198,-0.428,-3.599,2.8,0.77,0.91
,-9.191,-0.514,-3.587,-9.196,-0.45,-3.398,2.45,0.7,0.77
,-9.215,-0.447,-3.609,-9.155,-0.524,-3.46,3.15,0.77,0.77
,-9.206,-0.388,-3.628,-9.201,-0.488,-3.606,2.45,1.05,0.84
2801.0,-9.182,-0.419,-3.64,-9.213,-0.459,-3.654,3.5,1.05,0.77
,-9.186,-0.414,-3.711,-9.162,-0.455,-3.644,3.22,0.98,0.77
,-9.201,-0.507,-3.597,-9.237,-0.436,-3.503,3.08,1.12,0.77
,-9.21,-0.4,-3.702,-9.184,-0.567,-3.513,3.36,0.91,0.7
2877.0,-9.21,-0.426,-3.659,-9.222,-0.354,-3.702,2.94,0.63,0.63
,-9.194,-0.433,-3.68,-9.179,-0.493,-3.685,3.29,0.77,0.7
,-9.198,-0.469,-3.764,-9.203,-0.55,-3.609,3.57,0.91,0.77
,-9.203,-0.321,-3.754,-9.172,-0.431,-3.594,3.64,0.7,0.7
2953.0,-9.292,-0.357,-3.707,-9.232,-0.493,-3.613,3.71,0.84,0.49
,-9.241,-0.371,-3.656,-9.206,-0.421,-3.625,3.43,0.84,0.56
,-9.189,-0.414,-3.606,-9.227,-0.33,-3.613,2.73,1.05,0.63
,-9.21,-0.495,-3.589,-9.21,-0.443,-3.597,2.59,0.91,0.63
3029.0,-9.239,-0.445,-3.506,-9.206,-0.447,-3.652,0.91,1.12,0.42
,-9.206,-0.579,-3.479,-9.184,-0.333,-3.652,1.26,1.19,0.56
,-9.21,-0.565,-3.467,-9.215,-0.364,-3.635,1.47,0.98,0.49
,-9.229,-0.584,-3.549,-9.215,-0.402,-3.64,2.66,1.05,0.63
3104.0,-9.244,-0.436,-3.625,-9.239,-0.457,-3.558,2.8,1.12,0.49
,-9.234,-0.462,-3.561,-9.222,-0.447,-3.594,2.73,1.26,0.63
,-9.22,-0.486,-3.537,-9.253,-0.438,-3.561,2.94,1.33,0.56
,-9.194,-0.45,-3.558,-9.201,-0.471,-3.551,2.94,1.47,0.56
3180.0,-9.217,-0.486,-3.558,-9.208,-0.447,-3.666,2.8,1.96,0.77
,-9.213,-0.476,-3.625,-9.206,-0.404,-3.704,2.59,1.89,0.56
,-9.215,-0.476,-3.594,-9.172,-0.424,-3.673,2.52,1.89,0.63
,-9.17,-0.445,-3.695,-9.196,-0.431,-3.678,2.45,1.96,0.63
3255.0,-9.206,-0.431,-3.74,-9.172,-0.409,-3.719,2.52,1.68,0.56
,-9.208,-0.455,-3.745,-9.165,-0.416,-3.666,2.66,1.61,0.56
,-9.162,-0.467,-3.683,-9.155,-0.476,-3.613,2.87,1.54,0.63
,-9.165,-0.443,-3.757,-9.208,-0.447,-3.654,3.15,1.4,0.7
3331.0,-9.227,-0.455,-3.599,-9.225,-0.45,-3.616,3.01,1.33,0.7
,-9.225,-0.452,-3.616,-9.251,-0.452,-3.604,2.8,1.33,0.56
,-9.222,-0.464,-3.609,-9.213,-0.455,-3.652,2.66,1.47,0.63
,-9.239,-0.469,-3.618,-9.234,-0.471,-3.671,2.87,1.47,0.77
3407.0,-9.194,-0.462,-3.69,-9.206,-0.402,-3.661,2.59,1.61,0.7
,-9.179,-0.457,-3.709,-9.194,-0.443,-3.611,2.59,1.61,0.77
,-9.174,-0.459,-3.695,-9.222,-0.512,-3.616,2.66,1.54,0.84
,-9.186,-0.431,-3.656,-9.227,-0.459,-3.642,2.87,1.54,0.84
3483.0,-9.222,-0.464,-3.64,-9.22,-0.488,-3.668,2.59,1.61,0.77
,-9.222,-0.424,-3.64,-9.256,-0.436,-3.671,2.52,1.47,0.77
,-9.227,-0.45,-3.616,-9.179,-0.45,-3.676,2.52,1.54,0.84
,-9.184,-0.459,-3.64,-9.249,-0.462,-3.716,2.45,1.47,0.84
3558.0,-9.208,-0.469,-3.716,-9.237,-0.438,-3.678,2.66,1.4,0.91
,-9.201,-0.452,-3.687,-9.177,-0.493,-3.707,2.8,1.4,0.91
,-9.184,-0.443,-3.635,-9.21,-0.491,-3.721,2.8,1.4,0.98
,-9.222,-0.459,-3.644,-9.143,-0.452,-3.683,2.87,1.54,1.05
3634.0,-9.141,-0.414,-3.707,-9.258,-0.416,-3.647,3.15,1.12,0.91
,-9.179,-0.402,-3.709,-9.237,-0.483,-3.647,3.08,1.12,0.98
,-9.196,-0.385,-3.652,-9.239,-0.483,-3.628,2.73,1.12,0.77
,-9.208,-0.385,-3.635,-9.208,-0.438,-3.597,2.45,1.12,0.63
3709.0,-9.179,-0.4,-3.582,-9.22,-0.471,-3.592,2.52,0.98,0.7
,-9.227,-0.443,-3.644,-9.165,-0.45,-3.632,2.24,1.12,0.77
,-9.234,-0.507,-3.568,-9.189,-0.426,-3.642,2.24,1.4,0.7
,-9.182,-0.51,-3.613,-9.203,-0.447,-3.609,2.31,1.47,0.7
3785.0,-9.241,-0.445,-3.613,-9.165,-0.416,-3.711,2.17,1.89,0.7
,-9.258,-0.479,-3.637,-9.246,-0.376,-3.652,2.17,1.75,0.7
,-9.186,-0.479,-3.649,-9.189,-0.436,-3.668,2.24,1.68,0.7
,-9.162,-0.457,-3.676,-9.22,-0.44,-3.661,2.45,1.82,0.98
3861.0,-9.215,-0.409,-3.561,-9.189,-0.469,-3.496,2.59,1.54,0.7
,-9.246,-0.424,-3.568,-9.196,-0.577,-3.455,2.59,1.54,0.7
,-9.239,-0.397,-3.532,-9.158,-0.512,-3.431,2.52,1.54,0.63
,-9.229,-0.416,-3.491,-9.261,-0.589,-3.431,2.31,1.61,0.63
3937.0,-9.253,-0.562,-3.424,-9.141,-0.328,-3.671,0.35,2.66,-0.07
,-9.237,-0.419,-3.446,-9.198,-0.258,-3.857,-0.21,2.8,-0.07
,-9.206,-0.416,-3.439,-9.153,-0.347,-3.738,-1.19,3.01,-0.14
,-9.177,-0.421,-3.544,-9.127,-0.431,-3.762,-1.96,3.29,-0.07
4013.0,-9.136,-0.431,-3.805,-9.153,-0.38,-3.778,-0.42,3.08,-0.21
,-9.143,-0.309,-3.845,-9.256,-0.5,-3.836,0.28,2.66,-0.28
,-9.139,-0.349,-3.845,-9.155,-0.476,-3.884,0.35,2.59,-0.42
,-9.112,-0.383,-3.826,-9.105,-0.519,-3.958,0.56,2.31,-0.42
4088.0,-9.095,-0.467,-3.955,-9.122,-0.593,-3.881,2.52,0.63,-0.42
,-9.055,-0.402,-3.953,-9.074,-0.727,-3.824,1.61,0.21,-0.7
,-9.069,-0.479,-3.944,-9.036,-0.646,-3.759,0.35,0.0,-0.84
,-9.083,-0.546,-3.845,-9.043,-0.605,-3.642,-0.7,-0.07,-0.84
4164.0,-9.031,-0.577,-3.408,-9.294,-0.737,-2.958,-0.14,-0.49,0.28
,-9.038,-0.675,-3.139,-9.378,-0.637,-2.812,0.07,0.21,0.56
,-9.055,-0.656,-2.962,-9.38,-0.565,-2.807,0.63,0.98,0.84
,-9.206,-0.613,-2.929,-9.421,-0.608,-2.764,0.98,1.82,0.91
4240.0,-9.392,-0.574,-2.819,-9.174,-0.55,-3.094,-0.07,7.0,2.1
,-9.361,-0.627,-3.008,-9.246,-0.526,-3.061,-0.42,8.05,2.31
,-9.316,-0.694,-3.084,-9.241,-0.38,-3.276,-0.7,8.82,2.31
,-9.21,-0.562,-3.096,-9.174,-0.352,-3.305,-0.42,9.8,2.31
4316.0,-9.143,-0.33,-3.343,-9.263,-0.369,-3.738,-2.94,12.88,3.01
,-9.079,-0.376,-3.498,-9.284,-0.27,-4.133,-3.99,13.16,3.15
,-9.136,-0.586,-3.4,-9.067,-0.337,-4.267,-4.55,13.58,3.57
,-9.17,-0.529,-3.53,-8.935,-0.285,-4.18,-3.78,13.79,3.99
4391.0,-8.926,-0.172,-4.417,-9.174,-0.026,-4.07,-7.63,10.85,3.5
,-8.897,-0.196,-4.341,-9.124,0.055,-3.953,-7.56,10.71,3.29
,-9.146,-0.12,-4.568,-9.014,-0.05,-3.845,-7.77,10.08,2.94
,-9.033,0.014,-4.31,-8.918,-0.333,-3.656,-9.1,9.31,2.59
4467.0,-8.844,-0.692,-3.314,-9.146,-0.237,-3.226,-18.41,8.82,1.33
,-8.964,-0.845,-3.068,-9.021,-0.139,-3.178,-14.98,10.29,1.96
,-9.265,-0.622,-3.254,-8.935,-0.409,-2.91,-10.29,10.92,2.03
,-9.069,-0.373,-3.427,-9.045,-0.768,-2.56,-8.47,10.99,1.89
4542.0,-9.289,-0.857,-3.264,-8.385,-0.347,-4.597,-1.19,20.37,7.91
,-8.894,-0.725,-3.144,-8.488,0.055,-5.437,1.82,20.65,8.96
,-8.954,-0.663,-3.833,-8.583,0.275,-5.7,3.01,20.3,9.94
,-8.624,-0.546,-4.448,-8.681,0.065,-5.743,3.22,18.83,9.59
4618.0,-8.495,-0.053,-5.446,-8.837,-0.531,-4.381,8.89,13.09,10.64
,-8.679,-0.148,-4.714,-8.782,-0.302,-3.802,12.46,14.49,10.5
,-8.789,-0.311,-4.956,-9.069,0.165,-3.757,15.75,15.47,10.01
,-8.78,-0.526,-4.714,-9.131,0.567,-3.632,18.06,15.96,10.5
4694.0,-9.16,0.861,-4.094,-8.445,0.38,-5.353,15.82,16.73,11.48
,-8.77,0.617,-5.095,-8.617,0.727,-5.334,8.89,13.72,9.87
,-8.674,0.227,-5.441,-8.655,0.955,-5.092,4.06,12.25,10.15
,-8.588,0.153,-5.501,-8.698,0.893,-4.925,3.57,12.25,10.78
4770.0,-8.512,0.268,-4.726,-9.103,0.347,-4.838,3.36,15.05,2.03
,-8.744,-0.215,-4.113,-8.763,0.57,-5.312,3.43,16.8,2.52
,-9.026,-0.268,-4.192,-8.617,0.517,-5.446,6.51,16.52,2.73
,-9.241,-0.031,-4.209,-8.39,0.189,-5.348,9.38,15.05,2.87
4845.0,-8.406,-0.191,-4.865,-8.49,-0.101,-4.769,5.53,13.58,3.29
,-8.442,-0.223,-4.8,-8.497,-0.27,-4.578,6.51,13.79,3.15
,-8.361,-0.237,-4.815,-8.71,-0.141,-4.322,7.21,13.58,2.94
,-8.449,-0.12,-4.848,-8.969,0.608,-4.405,7.56,13.09,2.87
4921.0,-8.873,1.208,-4.843,-8.521,0.366,-4.853,12.46,12.39,2.73
,-8.579,1.488,-5.109,-8.559,0.467,-4.738,9.73,12.11,2.03
,-8.279,1.201,-5.243,-8.569,0.414,-4.714,4.97,13.44,1.54
,-8.361,0.778,-4.98,-8.533,0.476,-4.848,1.61,15.26,0.42
4997.0,-8.562,0.292,-5.183,-8.576,-0.641,-5.561,3.5,14.42,-4.76
,-8.378,-0.273,-5.343,-8.265,-0.481,-5.43,0.91,14.77,-3.92
,-8.478,-0.653,-5.446,-7.995,-0.593,-5.559,-0.21,15.12,-3.64
,-8.442,-0.694,-5.59,-7.932,-0.859,-5.386,1.33,14.35,-3.78
5073.0,-8.248,-1.108,-5.312,-7.983,-0.866,-5.398,3.43,11.48,-1.54
,-8.658,-1.333,-5.243,-8.172,-0.56,-5.42,4.69,11.13,-0.28
,-8.701,-1.244,-5.14,-8.339,0.093,-5.621,6.79,9.8,0.28
,-8.325,-1.141,-5.288,-8.344,0.67,-5.796,9.66,8.82,0.77
5149.0,-8.229,1.376,-5.54,-8.478,-0.309,-5.054,16.94,5.81,-2.03
,-8.224,0.95,-5.348,-8.483,-0.763,-5.178,15.89,6.09,-3.36
,-8.581,0.756,-5.281,-8.794,-0.873,-5.214,15.19,6.02,-3.92
,-8.394,0.323,-5.221,-8.643,-0.969,-5.566,13.51,5.81,-4.41
5224.0,-8.382,-0.873,-5.784,-8.177,-0.871,-5.642,25.41,3.15,-3.71
,-8.014,-0.78,-5.913,-8.39,-0.625,-5.884,25.62,2.31,-2.66
,-7.894,-1.094,-5.712,-8.591,-0.474,-5.702,24.71,2.38,-0.49
,-8.1,-1.046,-5.906,-8.727,-0.263,-5.642,24.29,2.59,1.82
5300.0,-8.67,-0.335,-5.468,-8.265,0.371,-5.772,14.63,3.22,6.09
,-8.351,-0.287,-5.41,-8.179,0.402,-5.726,13.51,2.87,6.02
,-8.492,-0.302,-5.343,-7.93,0.392,-6.178,12.18,3.5,6.16
,-8.366,-0.091,-5.485,-7.93,-0.098,-6.044,13.51,2.94,5.04
5375.0,-7.966,-0.761,-5.786,-8.497,-0.598,-5.128,10.71,-0.49,3.99
,-8.275,-0.864,-5.781,-8.375,-0.378,-5.355,12.46,-0.91,4.9
,-8.701,-1.015,-5.446,-8.375,-0.172,-5.506,10.57,-0.21,5.74
,-8.796,-1.46,-5.056,-8.421,-0.28,-5.628,15.26,-1.33,5.6
5451.0,-8.155,0.156,-5.765,-8.464,-0.297,-5.559,13.93,-2.66,3.78
,-7.892,0.239,-5.944,-8.471,-0.328,-5.666,11.97,-2.31,4.06
,-7.983,-0.019,-5.884,-8.425,-0.302,-5.733,9.8,-0.98,4.13
,-8.287,-0.196,-5.75,-8.411,-0.414,-5.808,9.17,0.07,3.36
5527.0,-8.342,-0.538,-5.812,-8.076,-0.84,-6.109,2.87,5.46,0.7
,-8.392,-0.826,-5.867,-8.059,-0.883,-6.03,0.49,6.72,1.33
,-8.44,-0.952,-5.82,-7.985,-1.022,-5.836,-0.7,8.12,2.1
,-8.248,-0.794,-5.97,-7.98,-1.443,-5.745,-1.89,8.33,2.8
5603.0,-8.32,-1.541,-5.731,-8.622,-0.074,-6.109,-8.19,9.66,6.93
,-8.464,-1.168,-5.872,-8.981,0.522,-6.363,-5.32,8.4,7.35
,-8.27,-0.682,-5.846,-9.014,0.842,-6.078,-3.15,7.91,7.91
,-8.227,-0.55,-5.887,-8.39,0.871,-5.93,-3.01,8.68,8.4
5678.0,-8.028,0.694,-5.736,-8.315,-0.96,-5.848,-12.46,4.9,4.27
,-8.09,0.112,-5.54,-8.251,-1.098,-5.824,-15.54,5.11,3.99
,-8.052,-0.476,-5.441,-8.579,-1.211,-5.851,-17.01,5.32,3.92
,-8.375,-0.66,-5.595,-8.614,-0.883,-5.803,-14.28,4.41,4.55
5754.0,-8.239,-0.706,-5.896,-8.086,-0.201,-5.966,-5.74,0.84,11.41
,-8.066,-0.675,-5.901,-8.267,0.048,-5.954,-5.88,1.82,12.6
,-8.004,-0.526,-6.047,-8.2,0.239,-5.951,-5.88,2.24,13.65
,-8.05,-0.4,-5.973,-8.267,0.33,-5.731,-6.02,2.38,14.63
5830.0,-8.339,0.383,-5.633,-8.15,0.629,-5.956,-4.55,-0.77,14.0
,-8.189,0.479,-5.681,-8.217,0.517,-5.848,-3.57,-2.87,12.81
,-8.157,0.459,-5.528,-8.169,0.361,-5.973,-2.66,-4.76,11.55
,-8.179,0.68,-5.822,-8.138,0.402,-5.939,-1.68,-6.51,10.01
5906.0,-8.105,0.378,-5.712,-8.509,0.139,-5.398,7.98,-7.35,4.13
,-8.081,0.45,-5.678,-8.373,0.091,-5.434,9.24,-7.35,3.92
,-8.356,0.392,-5.501,-8.272,0.048,-5.389,9.17,-7.63,2.8
,-8.37,0.218,-5.36,-8.157,0.084,-5.403,7.42,-8.05,2.1
5981.0,-8.189,0.239,-5.418,-8.198,0.352,-5.14,3.78,-13.16,1.54
,-8.222,0.349,-5.408,-8.394,0.323,-5.068,3.85,-13.51,1.19
,-8.15,0.414,-5.284,-8.488,0.479,-5.164,3.85,-13.3,0.91
,-8.272,0.38,-5.25,-8.765,0.249,-5.274,3.43,-12.46,1.12
6057.0,-8.392,0.297,-5.248,-8.588,0.409,-5.24,6.51,-11.41,0.7
,-8.492,0.376,-5.485,-8.571,0.273,-5.054,8.26,-11.76,0.63
,-8.385,0.424,-5.556,-8.559,0.112,-5.095,7.63,-11.62,0.35
,-8.433,0.38,-5.296,-8.502,0.115,-5.197,6.3,-11.83,0.0
6133.0,-8.344,0.134,-5.166,-8.385,0.134,-4.834,-4.34,-17.71,-3.99
,-8.373,0.189,-5.305,-8.559,0.06,-4.635,-3.99,-17.92,-4.06
,-8.454,0.261,-5.279,-8.737,0.019,-4.683,-3.22,-17.36,-3.99
,-8.445,0.328,-5.092,-8.648,0.235,-4.609,-2.73,-16.66,-4.34
6208.0,-8.423,-0.11,-4.046,-8.246,0.232,-4.949,-0.98,-14.49,-3.08
,-8.911,0.077,-4.037,-8.315,0.002,-4.994,-0.49,-14.63,-3.15
,-8.871,0.232,-4.295,-8.555,-0.127,-4.982,-0.49,-14.07,-3.29
,-8.533,0.321,-4.544,-8.617,-0.091,-4.762,-0.56,-13.37,-4.13
6284.0,-8.861,0.019,-4.683,-8.885,0.158,-3.845,4.06,-14.07,-4.48
,-8.753,0.108,-4.561,-8.787,-0.223,-4.02,3.92,-14.14,-5.25
,-8.825,0.127,-4.243,-8.72,-0.388,-4.185,3.29,-13.65,-5.81
,-8.923,0.244,-4.001,-8.801,-0.352,-4.267,1.82,-13.3,-5.95
6360.0,-8.882,-0.359,-3.991,-8.918,0.316,-4.008,-3.85,-14.07,-4.69
,-8.849,-0.397,-3.853,-8.878,0.481,-4.123,-2.17,-13.09,-4.9
,-9.005,-0.258,-3.778,-8.701,0.412,-4.18,-0.21,-12.6,-5.6
,-9.026,0.036,-4.018,-8.6,-0.055,-3.8,1.75,-12.6,-5.67
6436.0,-8.856,-0.498,-3.788,-9.036,0.424,-4.673,-4.83,-11.2,-6.72
,-9.112,-0.553,-3.786,-8.617,0.251,-4.42,-0.63,-10.5,-6.09
,-9.213,-0.316,-3.774,-8.715,0.117,-4.712,3.22,-10.85,-5.53
,-9.294,0.27,-4.52,-8.751,-0.045,-4.843,4.41,-12.04,-6.23
6511.0,-8.827,-0.057,-4.53,-9.129,0.002,-4.164,3.36,-13.72,-7.49
,-8.904,0.132,-4.64,-9.241,-0.366,-3.881,3.99,-14.28,-8.12
,-8.926,0.144,-4.135,-8.89,-0.713,-3.845,2.17,-14.77,-8.26
,-9.115,0.103,-4.286,-8.973,-1.048,-3.577,2.1,-14.91,-8.33
6587.0,-9.012,-0.979,-3.317,-8.897,0.225,-3.786,7.56,-13.23,-5.6
,-9.122,-0.692,-2.9,-8.691,0.041,-3.62,12.53,-12.53,-4.27
,-9.548,-0.17,-3.683,-8.875,-0.397,-3.273,13.37,-12.81,-4.83
,-9.378,0.16,-3.922,-9.105,-0.61,-3.178,10.99,-13.79,-6.09
6663.0,-9.227,-0.622,-2.809,-9.064,-0.397,-3.458,9.31,-9.59,-4.48
,-9.368,-0.373,-2.706,-9.11,-0.512,-3.369,9.8,-8.89,-3.85
,-9.5,-0.266,-3.297,-9.265,-0.632,-3.587,7.91,-8.75,-4.13
,-9.17,-0.395,-3.226,-9.28,-0.656,-3.41,6.37,-8.61,-3.64
6739.0,-9.237,-0.407,-3.41,-9.009,-0.407,-3.41,5.67,-6.02,-2.24
,-9.294,-0.392,-3.525,-9.299,-0.632,-3.393,4.69,-6.16,-2.52
,-9.22,-0.495,-3.513,-9.258,-0.782,-3.001,3.85,-6.16,-3.01
,-9.024,-0.493,-3.582,-9.263,-0.747,-2.716,3.99,-5.81,-2.87
6814.0,-9.129,-0.694,-2.766,-9.392,-0.715,-2.721,11.27,-5.04,-4.9
,-9.191,-0.292,-2.929,-9.464,-0.799,-3.128,10.01,-5.46,-7.56
,-9.639,-0.134,-2.848,-9.337,-0.763,-3.3,5.6,-4.34,-6.51
,-9.292,-0.481,-2.644,-9.127,-0.926,-3.369,1.47,-2.31,-3.15
6890.0,-9.146,-1.055,-3.606,-9.273,-0.491,-3.53,0.0,0.7,0.0
,-9.038,-1.067,-3.63,-9.246,-0.517,-3.508,2.52,1.19,1.12
,-8.988,-0.847,-3.496,-9.265,-0.488,-3.64,4.9,1.61,2.03
,-9.201,-0.577,-3.475,-9.349,-0.495,-3.872,5.88,1.75,2.45
6965.0,-9.177,-0.486,-3.896,-9.294,-0.459,-3.575,1.68,0.28,2.17
,-9.091,-0.481,-3.754,-9.289,-0.361,-3.446,1.05,0.07,2.24
,-9.141,-0.543,-3.678,-9.292,-0.364,-3.475,0.49,0.0,2.17
,-9.239,-0.598,-3.625,-9.253,-0.416,-3.527,0.91,-0.21,2.24
7041.0,-9.22,-0.436,-3.479,-9.332,-0.268,-3.575,-0.14,-0.42,2.1
,-9.277,-0.55,-3.46,-9.277,-0.242,-3.601,-0.14,-0.21,2.1
,-9.359,-0.553,-3.434,-9.172,-0.457,-3.601,0.42,-0.28,2.24
,-9.325,-0.526,-3.477,-9.083,-0.646,-3.431,1.54,-0.28,2.38
7117.0,-9.203,-0.737,-3.185,-9.344,-0.153,-3.075,2.45,0.07,2.52
,-9.234,-0.586,-3.039,-9.337,-0.318,-3.108,4.06,0.7,2.8
,-9.418,-0.388,-3.068,-9.213,-0.61,-3.037,4.41,0.91,2.59
,-9.392,-0.23,-3.087,-9.203,-0.682,-3.084,3.57,1.33,2.45
7193.0,-9.325,-0.493,-3.247,-9.249,0.029,-3.25,2.87,3.57,3.08
,-9.368,-0.218,-3.309,-9.21,-0.165,-3.051,3.78,3.78,3.08
,-9.474,-0.053,-3.463,-9.198,-0.481,-2.802,2.52,3.78,2.73
,-9.404,-0.024,-3.357,-9.249,-0.617,-2.711,-0.28,3.5,1.75
7269.0,-9.351,-0.603,-2.592,-9.289,-0.086,-2.938,-6.86,6.3,1.4
,-9.407,-0.397,-2.501,-9.189,-0.34,-2.982,-5.46,7.49,1.82
,-9.466,-0.096,-2.577,-9.213,-0.553,-2.998,-5.11,8.68,1.89
,-9.407,0.01,-2.709,-9.268,-0.591,-3.07,-6.16,9.94,1.68
7344.0,-9.466,-0.34,-3.728,-9.201,-0.639,-2.888,-1.47,13.65,3.78
,-9.32,-0.168,-4.07,-9.325,-0.818,-2.347,-0.14,13.02,3.64
,-8.887,-0.098,-3.884,-9.342,-0.775,-1.804,-0.35,12.88,4.41
,-8.76,-0.136,-3.422,-9.421,-0.591,-1.149,-1.26,13.72,5.11
7420.0,-9.82,0.0,-1.936,-8.124,0.034,-3.874,-1.68,20.65,4.27
,-9.825,0.024,-2.419,-8.15,-0.759,-3.046,-5.53,20.93,3.22
,-9.679,0.34,-3.821,-8.469,-1.491,-1.718,-10.99,19.25,2.03
,-8.713,0.304,-3.999,-9.366,-1.127,-2.62,-17.36,18.48,1.82
7496.0,-9.686,-0.146,-3.108,-8.016,-1.012,-4.295,5.46,29.47,5.18
,-9.512,0.694,-4.872,-8.485,-1.577,-4.123,2.17,25.06,3.78
,-8.428,0.806,-5.307,-8.899,-1.395,-4.494,-7.98,23.59,4.48
,-7.877,0.093,-4.829,-8.641,-0.969,-5.384,-16.38,25.69,7.28
7572.0,-8.457,-0.593,-5.047,-9.186,1.005,-4.831,20.09,26.74,12.18
,-8.54,-0.258,-3.573,-8.653,1.122,-5.023,22.05,29.12,14.0
,-9.22,0.428,-4.432,-8.614,1.06,-4.625,21.28,27.79,12.74
,-8.993,0.66,-4.432,-8.473,0.744,-4.92,17.08,26.67,11.2
7647.0,-8.184,0.567,-5.004,-8.847,-1.17,-4.18,-7.91,19.81,1.68
,-7.98,0.428,-5.499,-8.983,-1.06,-4.341,-8.61,19.39,0.56
,-8.1,-0.103,-5.322,-9.117,-0.828,-4.223,-9.1,20.93,0.77
,-8.349,-0.696,-4.893,-9.27,-0.285,-4.716,-8.47,23.17,1.4
7723.0,-9.002,0.175,-4.946,-7.952,1.362,-6.535,13.51,18.34,5.95
,-8.78,0.732,-5.609,-8.179,1.268,-6.028,11.69,16.17,5.74
,-8.397,1.18,-6.19,-8.416,1.034,-5.951,8.75,14.28,3.85
,-8.141,1.393,-6.454,-8.818,0.541,-5.659,5.25,13.86,2.03
7798.0,-8.775,0.223,-5.75,-8.303,-0.426,-5.157,-2.45,12.6,-4.83
,-8.397,-0.151,-5.872,-8.44,-0.593,-5.008,-0.63,12.25,-3.5
,-8.313,-0.352,-5.709,-8.54,-0.562,-5.097,2.45,12.32,-1.68
,-8.179,-0.373,-5.427,-8.737,-0.421,-5.106,5.67,12.32,-0.77
7874.0,-8.464,-0.225,-5.15,-8.43,-0.699,-5.236,9.94,11.06,3.92
,-8.179,-0.067,-5.334,-8.447,-0.412,-5.233,6.65,11.41,5.04
,-7.98,-0.239,-5.513,-8.464,0.304,-5.217,3.92,11.83,5.46
,-8.193,-0.651,-5.276,-8.411,0.905,-5.281,2.94,11.48,4.9
7950.0,-8.349,1.007,-5.317,-8.681,0.239,-5.224,10.64,9.45,-0.14
,-8.344,0.926,-5.039,-8.392,-0.254,-5.43,7.28,9.31,-1.68
,-8.509,0.732,-5.09,-8.366,-0.625,-5.441,5.53,9.38,-2.45
,-8.672,0.567,-5.341,-8.248,-0.749,-5.573,4.76,9.38,-2.94
8026.0,-8.148,-0.782,-5.76,-8.337,-0.598,-5.848,14.91,7.21,-1.68
,-8.217,-0.979,-5.705,-8.39,-0.383,-6.013,16.24,7.84,-0.91
,-8.44,-0.854,-5.621,-8.454,-0.292,-6.262,17.5,7.42,-0.49
,-8.404,-0.634,-5.827,-8.361,-0.45,-6.092,18.41,6.79,0.28
8101.0,-8.586,-0.424,-5.855,-8.122,0.919,-5.654,22.33,2.87,1.61
,-8.423,0.072,-6.006,-8.591,0.885,-5.439,25.06,0.77,1.75
,-7.83,0.718,-6.109,-8.6,0.768,-5.666,25.83,0.49,0.77
,-7.676,0.747,-5.554,-8.727,0.514,-5.367,24.01,1.75,0.77
8177.0,-8.49,0.345,-5.793,-8.136,-0.986,-5.832,10.99,0.21,-3.29
,-8.366,-0.361,-6.016,-8.136,-0.921,-5.951,11.69,0.28,-4.27
,-8.375,-1.06,-5.858,-8.026,-1.307,-5.714,14.28,0.28,-5.25
,-8.294,-1.357,-5.681,-8.224,-2.178,-5.475,17.85,-0.42,-4.55
8253.0,-8.533,-2.29,-5.585,-7.916,-1.799,-5.262,12.04,-0.63,6.3
,-8.71,-2.532,-5.243,-7.775,-1.23,-5.31,13.86,-1.26,9.31
,-8.471,-2.316,-5.444,-7.758,-0.179,-5.501,16.59,-3.01,11.62
,-8.323,-2.132,-5.324,-8.287,0.254,-5.48,17.71,-4.76,13.58
8329.0,-8.648,0.715,-5.305,-8.313,1.491,-5.439,17.64,-3.85,13.23
,-8.466,0.995,-5.43,-8.289,1.771,-5.497,16.38,-3.29,11.27
,-8.411,1.027,-5.334,-8.516,1.491,-5.547,13.44,-1.61,10.01
,-8.311,1.074,-5.252,-8.641,1.122,-5.544,10.57,-0.21,8.26
8405.0,-8.634,0.931,-5.508,-8.394,-0.447,-5.645,-2.66,8.05,-1.19
,-8.222,0.794,-5.652,-8.543,-0.598,-5.607,-5.95,7.91,-2.38
,-7.844,0.392,-5.748,-8.461,-0.802,-5.604,-10.22,8.54,-3.43
,-7.999,-0.141,-5.748,-8.296,-0.972,-5.611,-13.51,9.8,-4.06
8480.0,-8.251,-0.95,-5.963,-8.464,-0.833,-5.733,-15.05,10.99,-2.59
,-8.397,-0.89,-6.018,-8.191,-0.924,-5.58,-14.28,11.41,-2.17
,-8.619,-0.62,-6.016,-8.313,-0.723,-5.628,-14.0,11.34,-2.03
,-8.524,-0.479,-5.966,-8.236,-0.541,-6.03,-14.21,10.64,-1.68
8556.0,-8.21,-0.67,-5.985,-8.349,-0.838,-5.989,-13.3,9.59,4.83
,-8.478,-0.723,-5.997,-8.289,-0.881,-5.987,-14.21,8.68,6.37
,-8.466,-0.919,-6.09,-8.294,-0.591,-6.119,-14.91,7.28,7.56
,-8.311,-1.022,-5.908,-8.157,-0.29,-6.32,-13.02,6.86,8.75
8631.0,-8.112,-0.086,-6.265,-8.267,0.117,-6.107,-2.52,5.74,13.44
,-8.112,0.034,-6.068,-8.153,0.189,-6.26,-3.5,5.39,14.07
,-8.04,0.199,-5.982,-8.081,0.223,-6.176,-4.41,4.9,14.21
,-8.236,0.108,-6.08,-8.033,0.342,-6.159,-6.23,4.69,14.21
8707.0,-8.035,0.22,-6.363,-8.076,0.12,-6.107,-2.73,-0.42,11.27
,-8.11,0.177,-6.42,-8.033,0.16,-5.87,-0.84,-0.84,10.71
,-8.179,0.132,-6.301,-8.145,0.062,-5.774,1.47,-1.33,10.29
,-8.076,0.079,-6.171,-8.074,0.172,-5.82,4.55,-1.82,9.52
8783.0,-7.999,0.263,-5.891,-8.241,0.543,-5.666,8.89,-7.28,7.98
,-7.983,0.366,-5.977,-8.198,0.591,-5.485,8.47,-8.68,8.4
,-8.038,0.333,-5.939,-8.222,0.55,-5.343,8.12,-10.08,8.12
,-8.143,0.431,-5.875,-8.232,0.66,-5.391,8.12,-11.48,7.14
8859.0,-8.299,0.838,-5.406,-8.418,0.842,-5.513,6.72,-14.49,3.36
,-8.217,0.751,-5.401,-8.624,0.89,-5.702,5.95,-14.56,2.94
,-8.205,0.704,-5.353,-8.399,1.055,-5.762,4.9,-14.7,2.17
,-8.466,0.471,-5.339,-8.287,0.933,-5.652,4.9,-15.26,1.82
8934.0,-8.157,0.809,-5.585,-8.325,0.115,-5.083,1.61,-17.71,-2.87
,-8.205,0.675,-5.432,-8.607,0.043,-5.162,1.05,-17.57,-4.06
,-8.246,0.732,-5.348,-8.483,-0.048,-5.13,1.82,-17.43,-5.25
,-8.327,0.409,-5.207,-8.38,0.057,-5.202,0.63,-17.43,-5.88
9010.0,-8.495,0.156,-5.279,-8.686,0.426,-4.733,3.5,-19.32,-6.51
,-8.43,0.366,-5.2,-8.605,0.256,-5.25,4.2,-19.46,-6.72
,-8.715,0.457,-4.843,-8.363,0.086,-4.984,3.43,-19.11,-7.14
,-8.337,0.364,-4.63,-8.466,-0.194,-4.702,1.96,-19.74,-7.84
9085.0,-8.512,-0.531,-4.336,-8.66,-0.108,-4.267,-4.83,-19.39,-11.55
,-8.751,-0.493,-4.255,-8.425,-0.23,-4.049,-2.45,-18.76,-10.64
,-8.868,-0.237,-4.185,-8.569,-0.263,-4.118,-0.14,-18.69,-9.94
,-8.808,0.024,-4.288,-8.763,-0.196,-3.893,0.28,-18.76,-9.24
9161.0,-8.818,-0.275,-3.652,-9.045,0.189,-4.18,4.27,-15.05,-5.88
,-8.964,-0.302,-3.625,-8.859,0.45,-3.912,5.39,-14.21,-5.95
,-8.911,-0.34,-3.553,-8.839,0.373,-3.649,5.88,-14.14,-6.58
,-8.952,-0.12,-3.585,-8.909,0.16,-3.786,6.79,-14.14,-6.44
9237.0,-8.909,-0.151,-3.477,-8.993,0.141,-3.721,1.47,-10.15,-8.26
,-8.832,-0.287,-3.463,-9.103,0.187,-3.656,2.73,-9.17,-8.12
,-8.875,-0.089,-3.635,-9.158,0.045,-3.637,3.57,-8.89,-7.84
,-8.952,0.122,-3.726,-9.057,-0.034,-4.008,3.5,-8.61,-7.49
9313.0,-8.978,0.05,-4.501,-8.851,-0.806,-4.515,-0.56,-6.72,-9.87
,-8.801,0.172,-4.963,-9.014,-1.048,-4.286,-1.75,-8.05,-10.15
,-8.653,0.055,-5.109,-9.086,-0.983,-4.257,-3.15,-8.82,-9.66
,-8.559,-0.373,-4.616,-9.04,-0.809,-4.36,-3.5,-8.75,-9.17
9389.0,-8.892,-0.56,-4.061,-9.048,-0.266,-3.977,6.51,-8.96,-5.39
,-8.93,-0.366,-4.262,-9.052,-0.292,-3.932,5.95,-8.75,-4.83
,-9.002,-0.519,-4.046,-8.995,-0.333,-3.759,4.27,-8.89,-4.76
,-8.859,-0.565,-3.735,-9.079,-0.014,-4.451,4.83,-8.4,-4.13
9464.0,-8.923,-0.124,-4.525,-9.134,-0.306,-3.58,5.04,-9.03,-5.18
,-8.823,-0.292,-4.223,-9.289,-0.038,-3.989,3.99,-9.1,-4.9
,-8.887,-0.371,-4.061,-9.194,-0.175,-4.02,4.48,-8.89,-4.41
,-8.904,-0.378,-3.989,-8.909,-0.572,-3.81,5.25,-8.61,-4.41
9540.0,-8.871,-0.928,-3.508,-9.134,-0.625,-3.01,0.07,-8.61,-4.13
,-9.105,-1.079,-3.35,-9.17,-0.78,-2.857,2.94,-7.7,-3.64
,-9.167,-0.852,-3.357,-9.083,-0.926,-2.718,6.51,-7.21,-3.22
,-9.086,-0.613,-3.144,-9.184,-0.931,-2.62,7.91,-6.51,-2.52
9616.0,-9.39,-0.967,-2.508,-9.141,-0.4,-3.218,13.93,-0.42,0.98
,-9.543,-0.96,-2.623,-9.086,-0.366,-3.357,14.84,0.7,1.26
,-9.423,-0.723,-2.804,-9.052,-0.388,-3.515,15.05,1.61,1.4
,-9.28,-0.474,-2.946,-9.036,-0.395,-3.549,13.51,2.45,1.19
9692.0,-9.083,-0.328,-3.711,-9.012,-0.613,-4.642,0.21,5.18,-0.63
,-9.16,-0.306,-3.922,-8.971,-0.895,-4.714,-0.7,5.25,-0.63
,-9.189,-0.244,-4.07,-8.899,-1.058,-4.678,-1.75,4.76,-0.7
,-9.105,-0.294,-4.417,-8.94,-1.005,-4.621,-2.73,3.85,-0.7
9767.0,-8.973,-0.885,-4.338,-9.172,-0.536,-3.795,5.67,0.77,1.89
,-9.069,-0.613,-4.135,-9.076,-0.603,-3.735,6.51,0.35,2.59
,-9.155,-0.548,-3.939,-9.079,-0.663,-3.575,5.74,0.28,2.8
,-9.107,-0.56,-3.802,-9.227,-0.687,-3.561,4.55,0.07,2.87
9843.0,-9.409,-0.778,-3.917,-9.06,-0.392,-3.903,-0.77,-0.56,1.26
,-9.143,-0.617,-4.015,-9.0,-0.4,-3.891,-1.82,-1.19,0.56
,-9.179,-0.395,-4.101,-8.923,-0.409,-3.778,-3.29,-2.17,0.0
,-9.088,-0.311,-4.087,-9.048,-0.565,-3.939,-5.81,-3.01,-0.98
9918.0,-9.148,-0.517,-3.922,-9.263,-0.536,-3.419,-10.92,-3.36,-2.24
,-9.064,-0.45,-3.836,-9.265,-0.148,-3.463,-9.38,-3.08,-1.82
,-9.206,-0.507,-3.75,-9.203,-0.089,-3.539,-8.47,-2.73,-1.68
,-9.033,-0.464,-3.594,-9.265,-0.211,-3.63,-7.49,-2.17,-1.12
9994.0,-9.196,-0.38,-3.518,-9.313,-0.292,-3.398,-6.79,-0.84,-1.89
,-9.139,-0.354,-3.429,-9.328,-0.347,-3.515,-5.11,-0.21,-1.19
,-9.213,-0.345,-3.331,-9.237,-0.39,-3.606,-3.85,0.28,-0.77
,-9.225,-0.376,-3.276,-9.139,-0.469,-3.81,-2.87,0.98,-0.28
10070.0,-9.143,-0.498,-3.879,-9.119,-0.45,-4.176,-0.07,1.12,0.91
,-9.136,-0.5,-4.054,-9.033,-0.493,-3.941,0.84,1.12,0.84
,-9.074,-0.443,-4.152,-9.098,-0.567,-3.79,1.54,0.77,1.05
,-9.143,-0.512,-4.185,-9.258,-0.692,-3.616,1.89,0.42,1.12
10146.0,-9.21,-0.799,-3.427,-9.177,-0.359,-3.302,2.17,0.21,2.1
,-9.179,-0.668,-3.345,-9.146,-0.428,-3.29,2.73,0.35,2.31
,-9.213,-0.512,-3.403,-9.215,-0.512,-3.312,2.87,0.7,2.24
,-9.244,-0.383,-3.374,-9.22,-0.433,-3.4,1.89,1.26,2.03
10221.0,-9.22,-0.514,-3.446,-9.167,-0.428,-3.12,-0.56,2.73,2.45
,-9.349,-0.617,-3.405,-9.325,-0.395,-3.084,-1.82,2.52,1.68
,-9.103,-0.591,-3.245,-9.323,-0.218,-3.491,-2.38,2.66,1.47
,-9.038,-0.5,-3.034,-9.146,-0.146,-3.489,-2.24,3.5,1.68
10297.0,-9.093,-0.093,-3.149,-9.067,-0.505,-3.881,-5.95,7.42,2.73
,-9.191,-0.129,-3.465,-8.847,-0.751,-3.355,-8.12,8.05,2.17
,-9.256,-0.237,-3.372,-9.04,-0.715,-3.266,-9.59,8.61,2.24
,-9.342,-0.23,-4.003,-9.361,-0.505,-3.486,-10.99,8.05,1.96
10373.0,-9.265,-0.242,-3.857,-9.06,-1.469,-2.067,-8.75,8.96,3.01
,-8.921,-0.187,-3.881,-9.579,-1.115,-2.649,-9.38,9.03,3.43
,-8.717,-0.476,-3.616,-9.541,-0.151,-3.582,-10.85,10.01,4.48
,-8.82,-1.079,-2.958,-9.318,0.567,-3.922,-10.36,11.97,6.02
10449.0,-9.095,0.983,-4.52,-9.06,0.256,-3.113,-3.64,12.25,5.88
,-8.595,0.747,-4.154,-9.191,0.608,-2.943,-10.5,13.44,5.32
,-8.813,0.168,-3.683,-9.17,0.672,-4.042,-13.72,15.26,5.18
,-8.933,-0.048,-3.159,-8.588,-0.134,-4.058,-12.67,16.45,4.69
10525.0,-8.741,-1.153,-3.769,-8.827,0.826,-3.771,-17.01,16.38,3.85
,-8.813,-1.732,-3.826,-8.464,1.615,-4.276,-13.37,17.22,6.37
,-9.098,-1.797,-3.204,-8.21,1.591,-4.125,-3.71,18.48,8.75
,-9.351,-0.56,-3.431,-8.536,0.759,-4.042,6.23,16.52,7.35
10600.0,-8.734,0.014,-3.431,-8.804,0.034,-4.018,-9.59,24.08,0.98
,-8.552,-0.325,-4.453,-9.229,0.249,-4.836,-9.24,22.61,0.0
,-8.397,-0.388,-4.578,-9.363,0.196,-4.817,-5.32,21.63,1.12
,-8.421,-0.177,-4.872,-9.311,-0.184,-5.528,-0.98,21.42,2.24
10676.0,-8.545,-0.402,-5.75,-8.741,-0.392,-4.965,3.78,14.98,2.52
,-7.983,-0.921,-5.42,-8.88,-0.034,-5.066,3.99,17.78,3.78
,-7.827,-1.055,-4.8,-8.631,0.273,-4.951,7.28,20.86,4.83
,-8.464,-0.751,-4.585,-8.569,0.457,-4.625,12.39,20.93,4.97
10751.0,-8.595,0.56,-4.582,-8.557,-0.213,-5.047,5.39,19.88,3.71
,-8.78,0.196,-4.877,-8.856,-0.112,-4.934,3.64,18.97,3.15
,-8.708,-0.034,-4.793,-8.827,-0.038,-5.176,4.41,17.99,3.08
,-8.488,-0.122,-4.98,-8.545,0.002,-5.738,6.09,17.71,3.43
10827.0,-8.483,0.196,-6.126,-8.471,-0.352,-6.097,13.79,14.28,2.66
,-8.232,0.223,-6.379,-8.698,-0.187,-6.169,14.0,14.77,2.73
,-8.153,0.132,-6.279,-8.497,0.01,-6.391,12.46,15.75,2.94
,-8.241,-0.038,-6.131,-8.248,-0.144,-6.511,10.99,15.82,3.15
10903.0,-8.119,-0.644,-6.542,-8.672,-0.431,-5.633,4.76,8.75,5.11
,-8.33,-1.163,-6.363,-7.894,0.213,-5.626,4.41,8.33,6.44
,-8.796,-1.362,-5.918,-7.693,0.519,-5.485,7.35,7.21,7.21
,-9.052,-1.125,-5.54,-8.035,0.352,-5.212,10.71,4.27,7.56
10979.0,-8.545,0.101,-5.013,-8.21,0.294,-4.8,-0.42,-0.98,7.77
,-8.844,0.06,-4.836,-8.222,0.268,-4.956,-0.21,-2.1,7.49
,-8.679,0.036,-4.891,-8.363,0.426,-4.925,0.98,-2.73,7.56
,-8.457,0.297,-4.946,-8.756,0.804,-4.647,2.38,-2.59,7.7
11054.0,-8.957,0.883,-4.542,-8.653,1.211,-4.791,12.25,-2.03,2.59
,-9.019,1.053,-4.422,-8.614,0.895,-5.039,12.74,-3.08,2.17
,-8.894,1.474,-4.791,-8.576,0.754,-5.219,12.39,-4.2,1.4
,-8.449,1.508,-5.059,-8.71,0.871,-5.25,10.92,-2.73,0.7
11130.0,-8.595,1.177,-5.154,-8.622,1.783,-4.707,16.94,-0.63,-9.38
,-8.411,1.577,-5.219,-8.581,0.902,-4.738,18.48,-0.49,-10.57
,-8.564,1.563,-4.92,-8.447,-0.084,-4.156,16.73,0.35,-10.57
,-8.758,1.637,-4.63,-8.179,-0.706,-4.432,14.49,-0.35,-11.62
11206.0,-8.576,-0.981,-5.164,-7.985,-2.592,-5.31,5.88,4.69,-11.55
,-8.634,-1.304,-5.427,-7.988,-2.85,-5.434,8.82,4.2,-11.48
,-8.6,-1.385,-5.7,-8.069,-2.86,-5.583,10.15,3.29,-9.94
,-8.019,-1.993,-5.765,-8.519,-3.096,-5.13,9.52,3.92,-7.0
11282.0,-8.775,-2.644,-5.233,-8.107,-1.196,-5.506,17.64,4.06,2.45
,-8.756,-1.967,-5.485,-8.327,-1.18,-5.276,19.25,3.5,3.99
,-8.43,-1.187,-5.709,-8.454,-0.747,-5.473,19.74,2.59,5.67
,-8.308,-0.785,-5.604,-8.488,-0.093,-5.633,17.01,2.1,8.12
11357.0,-8.471,0.223,-5.554,-8.488,0.558,-5.073,17.36,1.61,13.16
,-8.471,0.385,-5.315,-8.634,1.024,-5.135,16.73,1.61,12.39
,-8.435,0.299,-5.231,-8.708,1.359,-5.106,14.84,1.19,11.76
,-8.313,0.424,-5.257,-8.473,1.338,-5.298,13.72,1.47,11.27
11433.0,-8.416,1.034,-5.482,-8.232,0.127,-5.427,2.1,6.02,2.17
,-8.547,0.68,-5.408,-8.131,0.213,-5.568,-1.19,7.56,1.4
,-8.605,0.091,-5.257,-8.157,-0.117,-5.647,-2.8,9.17,1.26
,-8.653,-0.127,-5.013,-8.447,-0.378,-5.597,-2.45,8.4,0.98
11509.0,-8.509,-0.431,-5.657,-8.804,-0.01,-5.906,-9.45,9.8,0.91
,-8.385,-0.273,-5.75,-8.409,-0.017,-5.887,-9.38,9.73,1.05
,-8.406,-0.168,-5.925,-8.078,-0.084,-5.966,-9.66,9.73,1.26
,-8.634,-0.16,-5.884,-8.122,-0.316,-5.791,-11.13,9.45,1.26
11584.0,-8.299,-0.452,-5.793,-8.693,-0.794,-5.674,-15.4,5.25,1.68
,-8.579,-0.613,-5.884,-8.701,-1.031,-5.391,-14.21,4.69,2.73
,-8.756,-0.933,-5.714,-8.447,-0.603,-5.609,-13.23,4.62,3.92
,-8.796,-0.907,-5.65,-8.248,-0.371,-5.721,-9.8,4.69,5.18
11660.0,-8.04,-0.414,-5.765,-8.603,-0.017,-5.707,-4.41,2.87,10.43
,-8.16,-0.376,-5.607,-8.902,-0.024,-5.535,-5.04,3.64,11.48
,-8.332,-0.352,-5.69,-8.725,-0.036,-5.757,-5.32,4.2,12.32
,-8.402,-0.244,-5.676,-8.119,-0.172,-5.729,-3.99,5.39,13.09
11736.0,-7.633,-0.206,-5.848,-8.586,0.048,-5.822,-4.2,2.52,12.67
,-7.76,-0.206,-5.8,-8.559,0.158,-5.645,-2.03,2.66,12.67
,-8.215,-0.268,-5.803,-8.433,0.366,-5.575,0.49,1.82,11.97
,-8.502,-0.179,-5.776,-8.095,0.407,-5.693,3.99,0.91,11.13
11812.0,-8.138,0.349,-5.535,-8.32,0.763,-5.64,10.71,-0.84,11.27
,-8.181,0.522,-5.602,-8.406,0.816,-5.611,11.13,-2.31,10.85
,-8.246,0.665,-5.678,-8.301,0.84,-5.559,11.55,-4.06,10.29
,-8.289,0.823,-5.714,-8.155,0.821,-5.374,11.06,-5.6,9.52
11887.0,-8.275,0.526,-5.367,-8.215,0.648,-5.353,6.65,-8.19,7.0
,-8.282,0.488,-5.451,-8.112,0.641,-5.372,7.42,-8.47,6.02
,-8.469,0.464,-5.415,-8.217,0.981,-5.597,8.54,-9.03,5.46
,-8.402,0.498,-5.477,-8.502,0.648,-5.413,9.31,-10.29,5.46
11963.0,-8.562,0.639,-5.118,-8.543,0.56,-4.994,8.61,-10.99,2.1
,-8.629,0.555,-5.004,-8.344,0.373,-4.941,6.37,-11.62,1.82
,-8.65,0.759,-4.999,-8.294,0.285,-4.867,4.62,-12.46,1.19
,-8.729,0.838,-5.049,-8.356,0.225,-4.781,1.61,-13.16,0.49
12039.0,-8.531,0.141,-4.815,-8.363,0.347,-4.97,1.12,-12.18,-2.03
,-8.689,0.22,-4.882,-8.208,0.33,-4.903,2.38,-12.53,-1.54
,-8.703,0.495,-5.078,-8.284,-0.115,-4.274,3.08,-13.16,-1.4
,-8.471,0.555,-5.087,-8.916,0.28,-3.941,1.4,-13.72,-2.1
12115.0,-9.201,0.9,-4.654,-8.311,0.469,-4.709,2.24,-13.72,-4.76
,-8.954,1.091,-5.011,-8.734,0.359,-4.331,-1.61,-14.35,-6.44
,-8.543,0.991,-5.245,-9.256,0.493,-4.207,-5.81,-14.49,-7.7
,-8.167,0.68,-5.061,-9.213,0.479,-4.245,-8.68,-14.56,-7.77
12190.0,-8.873,0.455,-4.281,-8.648,-0.428,-4.64,-8.05,-13.23,-11.83
,-8.512,0.354,-4.302,-8.753,-0.452,-4.444,-11.27,-13.23,-11.83
,-8.356,0.022,-4.707,-8.751,-0.452,-4.075,-13.86,-13.3,-11.55
,-8.339,-0.378,-4.57,-8.777,-0.407,-4.056,-13.09,-13.09,-10.36
12266.0,-8.985,-0.323,-3.661,-8.868,0.476,-3.915,2.94,-10.5,-5.74
,-9.27,0.182,-3.922,-8.564,0.493,-4.14,4.13,-11.06,-5.25
,-9.024,0.476,-3.719,-8.684,0.656,-4.539,2.94,-10.99,-4.9
,-8.825,0.517,-3.525,-8.751,0.885,-4.956,1.54,-9.45,-5.04
12341.0,-8.631,0.613,-4.786,-8.959,0.593,-4.063,-1.19,-10.08,-7.77
,-8.744,0.306,-4.24,-8.861,0.474,-4.14,0.7,-9.31,-7.56
,-9.107,0.364,-4.276,-8.868,-0.278,-3.946,3.36,-9.38,-9.03
,-9.213,0.505,-4.305,-8.839,-1.012,-3.881,2.8,-9.94,-10.85
12417.0,-8.744,-1.23,-3.513,-9.282,0.931,-3.676,-3.01,-7.7,-10.64
,-8.811,-0.945,-3.314,-9.0,0.802,-3.924,3.78,-7.14,-8.19
,-9.136,-0.23,-3.209,-8.703,0.309,-3.522,9.38,-6.44,-6.37
,-9.287,0.392,-3.233,-8.61,-0.158,-3.302,10.92,-5.81,-6.3
12493.0,-8.928,-0.239,-3.305,-8.971,-0.718,-3.656,-0.14,-2.31,-10.57
,-9.203,-0.031,-3.489,-9.055,-1.106,-3.881,-0.91,-1.96,-11.83
,-9.167,0.163,-3.64,-9.136,-1.091,-4.147,-5.04,-1.68,-12.18
,-8.966,-0.103,-3.546,-8.842,-0.83,-4.271,-9.1,-0.7,-11.34
12569.0,-8.799,-0.694,-4.202,-8.928,-0.067,-4.377,6.16,1.05,-4.9
,-8.995,-0.68,-4.317,-8.954,0.0,-4.441,8.68,1.54,-3.85
,-9.179,-0.512,-4.334,-8.945,-0.057,-4.494,10.78,1.33,-3.15
,-9.079,-0.292,-4.324,-8.949,-0.179,-4.362,11.27,1.19,-2.52
12645.0,-8.99,-0.309,-4.116,-9.095,-0.572,-4.042,8.26,0.28,-2.38
,-9.033,-0.38,-4.08,-8.942,-0.742,-4.097,9.03,0.21,-1.89
,-9.069,-0.402,-3.833,-8.949,-0.754,-4.243,10.08,0.28,-1.33
,-9.189,-0.304,-4.046,-8.894,-0.665,-4.379,9.87,-0.14,-1.4
12720.0,-8.861,-0.558,-4.348,-9.079,-0.378,-3.884,6.79,-0.91,-0.84
,-8.839,-0.486,-4.212,-9.081,-0.495,-3.975,5.67,-0.77,-0.42
,-8.897,-0.436,-3.975,-9.062,-0.656,-4.085,5.46,-0.56,0.21
,-9.05,-0.364,-3.92,-8.933,-0.677,-4.154,5.88,-0.7,0.49
12796.0,-8.938,-0.608,-4.176,-9.146,-0.364,-3.939,7.84,-0.84,1.96
,-8.99,-0.486,-4.214,-9.081,-0.302,-3.745,8.33,-0.91,1.89
,-9.024,-0.44,-4.128,-9.107,-0.139,-3.936,7.35,-0.91,1.61
,-9.079,-0.371,-3.996,-9.048,-0.227,-4.128,6.23,-1.19,1.05
12872.0,-8.835,-0.316,-4.063,-9.16,-0.385,-3.738,3.36,-0.91,0.84
,-8.971,-0.337,-4.066,-9.186,-0.5,-3.589,5.11,-0.56,1.47
,-9.0,-0.354,-3.9,-9.079,-0.476,-3.522,7.0,-0.28,2.03
,-9.086,-0.361,-3.821,-9.16,-0.256,-3.802,8.12,-0.14,2.24
12948.0,-9.124,-0.223,-3.915,-9.038,-0.541,-3.802,3.99,0.91,0.42
,-8.988,-0.311,-3.967,-9.095,-0.261,-3.79,2.03,1.05,0.35
,-8.938,-0.431,-3.936,-9.182,-0.246,-3.654,0.84,1.26,0.28
,-8.952,-0.67,-3.886,-9.17,-0.23,-3.613,1.61,1.33,0.28
13023.0,-9.229,-0.17,-3.774,-8.938,-0.634,-4.037,2.31,2.52,0.56
,-9.119,-0.191,-3.948,-9.04,-0.541,-3.97,1.19,2.59,0.07
,-9.007,-0.359,-4.068,-9.184,-0.424,-3.944,0.35,2.73,0.0
,-8.952,-0.534,-4.092,-9.189,-0.325,-3.877,0.42,2.94,0.14
13099.0,-9.186,-0.28,-4.022,-8.861,-0.658,-4.307,0.07,3.08,-0.14
,-9.045,-0.424,-4.135,-8.952,-0.443,-4.226,-0.98,2.94,0.14
,-8.961,-0.529,-4.231,-9.055,-0.313,-4.135,-0.63,3.08,0.63
,-8.957,-0.646,-4.451,-9.055,-0.316,-4.142,0.77,3.01,1.12
13174.0,-9.007,-0.278,-4.118,-8.969,-0.436,-4.149,3.36,1.96,1.75
,-9.033,-0.361,-4.051,-8.993,-0.347,-4.109,2.52,1.96,1.68
,-9.081,-0.404,-4.161,-8.995,-0.354,-4.025,2.31,1.82,1.54
,-8.981,-0.534,-4.168,-9.009,-0.407,-3.912,2.94,1.82,1.68
13250.0,-9.052,-0.366,-3.92,-9.105,-0.352,-4.154,4.62,1.68,2.24
,-9.05,-0.421,-3.853,-9.0,-0.323,-4.154,4.2,1.89,2.03
,-9.067,-0.443,-3.917,-8.928,-0.306,-4.156,3.78,2.03,1.75
,-9.115,-0.438,-3.929,-9.007,-0.273,-4.183,3.36,2.1,1.68
13326.0,-8.983,-0.268,-4.135,-9.026,-0.23,-4.032,3.85,2.1,1.68
,-9.064,-0.172,-4.063,-9.024,-0.347,-4.025,4.13,1.89,1.61
,-9.06,-0.201,-3.989,-9.002,-0.385,-3.984,3.57,1.82,1.47
,-9.014,-0.249,-4.008,-9.014,-0.447,-3.958,3.36,1.75,1.47
13402.0,-9.0,-0.541,-3.896,-9.04,-0.309,-3.92,1.12,1.89,1.12
,-8.93,-0.653,-3.862,-9.052,-0.199,-3.893,0.98,2.31,1.4
,-8.985,-0.589,-3.946,-9.009,-0.263,-3.812,1.68,2.52,1.54
,-9.062,-0.479,-3.939,-9.019,-0.407,-3.831,2.45,2.59,1.82
13477.0,-9.031,-0.476,-3.821,-9.052,-0.572,-3.927,-0.35,2.87,1.96
,-9.057,-0.507,-3.853,-9.045,-0.436,-3.987,-0.77,3.15,2.1
,-9.024,-0.567,-3.833,-8.959,-0.474,-4.022,-1.47,3.43,2.03
,-9.055,-0.61,-3.867,-8.926,-0.51,-3.912,-1.75,3.85,2.24
13553.0,-9.002,-0.347,-4.056,-8.768,0.105,-4.657,-3.29,4.27,2.73
,-9.134,-0.096,-4.274,-8.737,-0.115,-4.568,-2.59,4.2,2.8
,-9.107,0.179,-4.439,-8.746,-0.215,-4.551,-2.94,3.71,2.66
,-8.914,0.242,-4.542,-8.815,-0.306,-4.566,-3.92,3.22,2.8
13629.0,-8.77,-0.467,-4.453,-9.361,-0.342,-3.833,-0.84,1.75,3.99
,-8.82,-0.55,-4.235,-9.462,0.089,-3.793,0.56,1.61,4.76
,-9.052,-0.543,-4.171,-9.234,0.476,-3.905,1.68,1.33,4.76
,-9.095,-0.402,-4.034,-9.038,0.519,-3.824,2.66,1.19,4.76
13705.0,-8.861,0.455,-3.766,-8.729,-0.416,-3.599,-15.26,-1.12,-0.63
,-8.942,-0.041,-3.482,-8.832,-0.282,-4.07,-18.41,0.28,-1.26
,-9.124,-0.404,-3.53,-8.605,-0.531,-3.915,-18.76,0.84,-1.61
,-8.933,-0.457,-3.711,-8.691,-1.022,-3.544,-16.59,0.77,-1.4
13781.0,-8.871,-1.33,-3.063,-9.16,-0.012,-3.484,-3.57,8.05,5.81
,-9.091,-1.515,-2.441,-9.301,0.57,-3.829,-0.14,10.5,7.77
,-9.45,-1.175,-2.867,-8.947,0.828,-3.912,4.83,11.06,9.1
,-9.21,-0.536,-3.422,-8.818,0.409,-3.3,7.0,9.38,8.47
13856.0,-8.784,0.388,-4.099,-8.981,0.668,-2.735,-7.63,13.86,5.25
,-8.413,0.184,-4.233,-9.155,0.991,-3.618,-6.44,13.44,4.13
,-8.737,0.306,-4.302,-8.818,0.816,-4.319,-4.9,13.23,4.62
,-8.768,0.5,-3.855,-9.136,0.352,-4.439,-2.94,14.21,4.34
13932.0,-9.04,-0.014,-4.257,-8.634,-0.644,-4.424,-2.94,12.04,3.78
,-9.021,-0.129,-4.011,-8.634,-0.66,-4.566,-1.82,13.58,4.13
,-8.942,-0.318,-3.613,-8.409,-0.653,-4.829,0.07,16.03,3.36
,-8.698,-0.397,-4.003,-8.483,-0.416,-4.298,2.17,16.45,1.54
14007.0,-8.892,0.048,-4.635,-8.373,0.881,-5.039,9.1,18.76,6.23
,-8.765,0.158,-5.226,-8.485,1.23,-5.09,8.4,16.52,4.13
,-8.933,0.275,-5.477,-8.674,1.194,-4.879,8.26,15.05,4.55
,-8.605,0.469,-5.427,-9.024,1.146,-4.714,7.84,14.42,5.46
14083.0,-8.758,1.005,-4.769,-9.019,-0.397,-5.049,1.47,12.74,-3.5
,-8.679,0.756,-4.611,-8.576,-0.792,-5.095,0.14,13.58,-3.85
,-8.677,0.357,-4.623,-8.205,-0.948,-4.86,-0.42,14.56,-4.34
,-9.04,-0.086,-4.578,-8.124,-0.821,-4.575,0.0,15.19,-4.27
14159.0,-8.267,-0.823,-4.482,-8.6,-0.773,-5.145,12.18,17.99,3.64
,-8.626,-0.993,-4.523,-8.354,-0.555,-4.891,11.06,17.08,5.11
,-8.861,-1.149,-4.872,-8.33,-0.409,-4.901,9.66,15.82,6.09
,-8.78,-0.952,-4.984,-8.143,-0.503,-4.939,9.45,14.84,7.0
14235.0,-8.406,-0.024,-5.288,-8.43,1.151,-5.554,9.8,15.47,8.54
,-8.543,0.565,-5.525,-8.579,1.01,-5.334,11.06,14.77,8.4
,-8.734,0.905,-5.604,-8.873,0.641,-5.061,10.08,14.07,7.21
,-8.576,1.204,-5.607,-8.741,0.237,-5.209,8.61,13.37,5.88
14310.0,-8.638,-0.218,-5.044,-8.227,0.524,-5.633,2.24,10.01,0.84
,-8.294,-0.428,-5.106,-8.636,0.782,-5.516,2.73,9.87,0.49
,-8.148,-0.311,-5.171,-8.772,1.189,-5.748,5.67,10.57,0.0
,-8.129,-0.031,-5.25,-8.526,1.299,-5.937,10.85,10.64,-0.7
14386.0,-8.617,1.0,-6.03,-7.861,1.295,-5.779,10.64,10.99,-3.15
,-8.918,0.766,-5.547,-8.107,0.84,-5.575,10.5,9.17,-5.6
,-8.528,1.005,-5.686,-8.145,0.144,-5.489,12.46,6.86,-7.49
,-8.002,1.206,-5.772,-8.715,-0.287,-5.257,13.51,6.02,-8.82
14461.0,-8.588,-0.313,-5.597,-8.131,-0.371,-6.25,12.25,3.36,-10.15
,-8.334,-0.555,-5.784,-8.263,-0.854,-6.363,13.86,1.61,-10.43
,-7.865,-0.402,-5.951,-8.26,-1.687,-6.245,16.03,1.4,-10.64
,-7.767,-0.206,-6.09,-8.1,-2.886,-5.906,16.8,2.03,-10.78
14537.0,-8.191,-3.467,-5.772,-8.349,-1.512,-5.824,3.92,-0.56,2.17
,-8.313,-3.546,-5.791,-8.244,-1.213,-5.832,8.54,-1.12,5.04
,-8.526,-3.257,-5.398,-7.839,-1.043,-5.882,14.35,-1.33,7.14
,-8.586,-2.331,-5.528,-8.181,-0.89,-5.808,19.04,-4.06,8.12
14613.0,-8.562,-0.318,-5.901,-8.342,0.806,-4.743,15.54,-4.62,17.36
,-8.679,0.041,-5.528,-8.358,1.184,-4.862,16.73,-4.27,17.15
,-8.643,0.304,-5.207,-8.452,1.484,-4.922,16.03,-4.97,15.54
,-8.48,0.503,-4.913,-8.636,1.407,-4.862,13.86,-5.39,13.44
14689.0,-8.77,1.371,-4.697,-8.315,0.66,-5.173,9.17,0.07,4.76
,-8.43,1.275,-4.865,-8.507,0.182,-5.063,7.0,0.98,3.29
,-8.313,1.122,-4.977,-8.521,0.014,-4.977,4.41,2.24,1.82
,-8.358,1.019,-5.056,-8.409,-0.034,-5.087,1.33,3.22,0.56
14765.0,-8.265,-0.213,-5.272,-8.504,-0.414,-5.824,-8.05,7.49,-2.52
,-8.279,-0.227,-5.47,-8.614,-0.246,-5.822,-9.45,8.47,-2.38
,-8.373,-0.208,-5.731,-8.49,0.081,-5.963,-10.57,8.96,-2.38
,-8.473,-0.292,-5.832,-8.356,0.239,-6.167,-11.76,9.73,-2.03
14840.0,-8.37,0.084,-6.114,-8.473,-1.067,-5.867,-12.46,11.48,-0.14
,-8.442,-0.232,-5.834,-8.507,-1.242,-5.851,-14.21,10.64,0.35
,-8.334,-0.495,-5.812,-8.267,-1.357,-5.887,-15.4,9.38,0.56
,-8.373,-0.852,-5.762,-8.062,-1.33,-6.167,-15.89,9.03,0.77
14916.0,-8.275,-1.646,-5.939,-8.354,-0.431,-6.167,-8.61,10.29,11.69
,-8.394,-1.735,-5.97,-7.98,0.024,-6.021,-6.58,10.78,14.91
,-8.67,-1.481,-5.884,-7.854,0.275,-5.901,-3.08,9.94,16.73
,-8.622,-1.065,-5.958,-7.858,0.292,-5.822,-0.42,7.77,17.64
14992.0,-8.11,0.27,-5.932,-8.246,0.916,-5.942,-4.55,4.27,17.71
,-8.224,0.577,-6.138,-8.267,0.78,-5.832,-3.15,3.22,17.57
,-8.327,0.751,-6.212,-8.208,0.526,-5.822,-1.54,2.1,16.45
,-8.279,0.881,-6.174,-8.165,0.514,-5.848,-1.47,1.82,14.63
15068.0,-8.167,0.45,-5.87,-8.256,0.206,-5.903,6.93,-0.77,7.42
,-8.15,0.483,-6.023,-8.191,0.115,-5.968,8.61,-3.29,6.65
,-8.296,0.337,-5.968,-8.148,0.086,-5.944,8.82,-5.25,6.23
,-8.198,0.23,-5.841,-8.244,0.151,-5.91,9.38,-6.37,6.51
15143.0,-8.203,0.211,-5.958,-8.251,0.565,-5.796,8.19,-12.74,6.37
,-8.256,0.302,-5.968,-8.54,0.352,-5.633,7.84,-13.51,6.3
,-8.265,0.445,-5.901,-8.303,0.438,-5.427,7.56,-14.35,5.6
,-8.306,0.488,-5.822,-8.512,0.261,-5.449,6.72,-15.61,5.39
15219.0,-8.334,0.438,-5.48,-8.366,1.598,-5.324,10.01,-18.48,3.01
,-8.318,0.73,-5.408,-8.351,1.407,-5.25,11.69,-18.76,3.15
,-8.356,1.163,-5.408,-8.229,1.29,-4.999,12.46,-19.25,2.45
,-8.325,1.472,-5.394,-8.402,1.211,-4.87,10.36,-19.81,1.33
15294.0,-8.638,1.175,-4.898,-8.177,0.538,-4.793,0.56,-18.97,-7.0
,-8.689,1.053,-4.815,-8.234,0.864,-5.52,-0.35,-19.18,-8.19
,-8.636,1.046,-4.862,-8.801,0.723,-5.377,-1.89,-19.67,-9.31
,-8.483,0.873,-4.836,-8.77,0.488,-5.03,-4.13,-19.74,-9.59
15370.0,-8.559,0.421,-4.755,-8.839,-0.426,-4.389,-4.2,-19.39,-12.67
,-8.476,0.074,-4.489,-8.763,-0.337,-4.29,-6.51,-19.11,-12.39
,-8.373,-0.306,-4.295,-8.823,-0.376,-4.178,-7.49,-18.69,-12.32
,-8.701,-0.376,-4.29,-8.701,-0.345,-4.034,-5.32,-18.06,-11.48
15446.0,-8.813,-0.416,-4.025,-8.959,0.165,-3.951,1.33,-16.73,-8.75
,-8.756,-0.51,-4.054,-8.88,0.354,-3.52,1.82,-16.66,-7.98
,-8.923,-0.366,-4.075,-8.952,0.349,-3.69,3.64,-16.1,-6.51
,-8.897,-0.208,-3.903,-8.902,0.29,-3.542,6.23,-15.26,-4.9
15522.0,-8.835,0.203,-3.592,-9.086,0.409,-3.683,4.62,-11.9,-6.37
,-8.914,0.081,-3.491,-9.043,0.069,-3.774,4.83,-11.76,-6.58
,-9.038,0.079,-3.924,-8.945,-0.201,-3.57,4.69,-11.76,-7.91
,-9.026,0.407,-3.891,-8.849,-0.313,-3.549,4.55,-11.55,-8.68
15597.0,-8.971,-0.254,-3.556,-9.115,-0.175,-3.408,1.19,-7.28,-9.73
,-9.028,0.002,-3.518,-9.074,-0.115,-3.441,2.24,-6.86,-9.59
,-9.131,0.053,-3.537,-9.081,0.112,-3.752,2.17,-6.23,-9.59
,-9.103,-0.06,-3.403,-8.954,-0.024,-3.855,1.96,-5.04,-9.45
15673.0,-8.892,-0.175,-3.793,-8.935,-0.823,-4.104,-0.28,-2.87,-9.03
,-9.043,-0.108,-3.963,-8.792,-1.065,-3.982,-0.35,-2.8,-9.24
,-9.136,-0.249,-3.972,-8.918,-1.117,-4.042,-2.52,-3.01,-10.08
,-9.038,-0.596,-4.207,-9.038,-1.05,-4.2,-4.97,-2.73,-10.64
15749.0,-8.971,-0.89,-4.039,-9.005,0.081,-4.587,-0.21,-2.03,-7.07
,-9.016,-0.701,-4.022,-8.638,0.038,-4.484,1.33,-1.89,-6.02
,-9.06,-0.5,-3.829,-8.72,-0.182,-4.145,2.8,-1.68,-5.11
,-9.15,-0.184,-4.247,-8.923,-0.419,-4.104,4.69,-1.96,-4.76
15825.0,-8.978,-0.589,-3.924,-9.055,-0.713,-3.082,6.58,-2.94,-3.64
,-8.988,-0.412,-3.853,-9.16,-0.668,-2.905,7.28,-3.01,-3.64
,-8.933,-0.476,-3.585,-9.306,-0.476,-3.096,6.23,-2.66,-3.5
,-8.99,-0.579,-3.391,-9.373,-0.596,-3.197,6.02,-1.89,-2.94
15901.0,-9.162,-0.66,-3.13,-9.033,-0.526,-3.853,5.46,2.87,-1.54
,-9.146,-0.711,-3.288,-8.997,-0.495,-4.078,6.16,3.78,-1.47
,-9.184,-0.689,-3.498,-8.945,-0.491,-4.207,7.49,4.55,-1.4
,-9.103,-0.658,-3.623,-9.014,-0.455,-4.369,8.82,5.18,-1.12
15976.0,-9.024,-0.409,-4.401,-9.002,-0.514,-4.338,12.6,5.32,0.14
,-9.036,-0.407,-4.422,-8.902,-0.555,-4.441,12.46,5.11,0.49
,-9.007,-0.426,-4.386,-8.959,-0.589,-4.561,12.11,4.62,0.35
,-9.055,-0.495,-4.293,-8.93,-0.62,-4.64,11.69,4.2,0.21
16052.0,-8.928,-0.651,-4.499,-9.093,-0.488,-4.046,6.58,1.47,-0.14
,-8.904,-0.684,-4.405,-9.069,-0.581,-3.939,6.23,1.33,0.35
,-8.892,-0.558,-4.355,-9.038,-0.622,-3.958,5.81,1.19,0.56
,-8.985,-0.586,-4.032,-9.057,-0.692,-3.984,4.69,0.84,0.84
16127.0,-9.002,-0.747,-3.96,-8.99,-0.481,-4.094,1.75,0.7,1.05
,-8.978,-0.768,-4.037,-8.997,-0.605,-4.109,2.31,0.56,1.19
,-9.019,-0.68,-4.171,-8.961,-0.651,-4.003,2.8,0.49,1.19
,-9.005,-0.522,-4.2,-8.978,-0.574,-4.015,3.15,0.14,1.26
16203.0,-9.031,-0.565,-4.106,-9.043,-0.534,-4.113,4.27,0.0,1.19
,-9.014,-0.61,-4.006,-8.988,-0.586,-4.044,4.41,-0.21,1.19
,-9.043,-0.55,-4.025,-8.993,-0.675,-3.905,5.25,-0.14,1.19
,-9.11,-0.483,-4.209,-9.055,-0.581,-3.979,5.67,-0.07,1.26
16279.0,-9.15,-0.44,-4.044,-8.978,-0.708,-3.881,5.25,0.07,1.61
,-9.048,-0.414,-4.022,-9.019,-0.641,-3.841,3.64,-0.07,1.54
,-8.997,-0.493,-3.984,-9.131,-0.574,-3.726,1.75,0.0,1.26
,-8.945,-0.658,-3.963,-9.148,-0.519,-3.644,1.12,0.21,1.19
16355.0,-9.194,-0.486,-3.731,-8.93,-0.814,-4.037,0.21,1.05,1.19
,-9.103,-0.584,-3.762,-8.995,-0.768,-3.97,-1.12,1.26,0.98
,-9.136,-0.608,-3.982,-9.131,-0.625,-4.111,-1.54,1.47,0.84
,-8.966,-0.739,-3.977,-9.05,-0.514,-4.008,-0.91,1.75,1.12
16430.0,-9.098,-0.416,-3.987,-9.052,-0.625,-3.975,3.5,1.89,2.1
,-9.11,-0.383,-4.042,-8.993,-0.62,-4.034,3.08,2.03,1.96
,-9.0,-0.412,-3.982,-8.949,-0.526,-4.118,2.24,2.1,1.96
,-9.04,-0.57,-4.013,-8.906,-0.416,-4.18,1.89,2.03,1.75
16506.0,-8.99,-0.361,-4.228,-9.057,-0.481,-4.008,1.68,1.47,1.68
,-8.978,-0.237,-4.173,-9.024,-0.536,-3.994,0.56,1.33,1.47
,-8.969,-0.258,-4.094,-9.055,-0.38,-4.192,-0.91,1.19,1.19
,-9.062,-0.352,-3.979,-9.002,-0.337,-4.259,-1.89,1.26,0.98
16582.0,-8.997,-0.421,-4.197,-9.033,-0.701,-3.798,-1.75,0.28,0.84
,-9.06,-0.529,-4.18,-9.014,-0.675,-3.728,-2.1,0.49,1.05
,-9.016,-0.687,-4.037,-8.954,-0.45,-3.711,-1.68,0.28,1.05
,-8.969,-0.785,-3.824,-8.973,-0.321,-3.845,-0.35,0.42,1.54
16658.0,-8.923,-0.359,-3.812,-9.093,-0.704,-3.372,-0.35,1.61,1.75
,-8.942,-0.436,-3.664,-9.158,-0.759,-3.276,-1.47,2.17,2.03
,-9.06,-0.543,-3.556,-9.217,-0.802,-2.941,-2.1,2.8,2.31
,-9.086,-0.644,-3.542,-9.256,-0.634,-3.092,-1.96,3.29,2.66
16734.0,-9.244,-0.541,-2.953,-9.139,-0.299,-2.891,-3.36,7.14,2.94
,-9.268,-0.354,-3.02,-9.146,-0.249,-2.876,-5.74,7.84,2.24
,-9.115,-0.299,-3.08,-9.143,-0.318,-2.948,-9.66,8.47,1.4
,-8.997,-0.349,-2.747,-9.124,-0.407,-3.104,-13.02,9.45,1.54
16809.0,-9.002,-0.486,-3.345,-8.55,-0.323,-4.348,-20.3,14.49,2.8
,-9.186,-0.704,-3.891,-8.562,-0.242,-4.195,-18.97,15.26,3.71
,-8.966,-0.627,-4.381,-8.739,-0.462,-3.865,-16.94,14.56,4.34
,-8.701,-0.421,-4.568,-8.902,-0.524,-3.771,-15.47,13.51,4.62
16885.0,-9.021,-0.27,-4.573,-8.784,0.067,-4.728,-7.49,15.4,6.44
,-8.928,-0.022,-4.57,-8.646,0.459,-4.764,-4.69,14.42,7.14
,-8.892,0.146,-5.102,-8.61,0.577,-4.767,-3.71,13.37,7.84
,-8.629,-0.053,-4.721,-8.634,0.369,-4.465,-3.64,13.86,8.33
16960.0,-9.014,0.333,-4.506,-8.519,-0.919,-3.702,-2.24,15.61,5.74
,-8.906,-0.179,-4.81,-8.741,-0.543,-4.056,-4.13,14.84,4.83
,-8.65,-0.699,-4.635,-8.504,-0.096,-5.181,-4.76,14.84,4.83
,-8.445,-1.079,-3.953,-8.502,0.036,-5.604,-2.66,16.59,5.67
17036.0,-8.794,-0.12,-5.654,-8.406,0.426,-4.166,2.31,8.89,8.96
,-8.626,-0.385,-5.396,-8.272,0.503,-3.75,1.33,10.15,8.68
,-8.705,-0.531,-4.905,-8.093,0.359,-3.326,4.13,12.74,7.84
,-8.672,-0.086,-4.681,-8.882,0.57,-2.546,9.87,14.14,6.65
17112.0,-9.691,1.065,-3.656,-7.727,-0.323,-5.13,13.37,18.76,5.88
,-9.734,1.424,-4.788,-8.215,-1.208,-4.87,11.9,13.72,5.32
,-9.112,1.534,-5.583,-8.825,-1.278,-4.724,8.19,11.76,5.6
,-7.798,0.96,-5.798,-9.055,-0.818,-4.91,2.73,14.56,5.88
17188.0,-8.691,-0.246,-5.013,-8.756,0.66,-6.119,21.21,17.78,4.06
,-8.337,0.12,-4.893,-8.337,1.015,-6.518,19.18,19.11,4.83
,-8.634,0.462,-5.106,-7.813,1.251,-6.176,15.96,18.13,4.9
,-8.67,0.493,-5.841,-7.576,0.995,-5.992,11.83,14.98,3.78
17263.0,-8.007,0.112,-5.8,-8.875,-1.701,-5.104,-1.89,14.42,-1.61
,-8.77,-0.605,-5.41,-8.478,-1.558,-5.487,-1.12,13.72,-0.56
,-9.241,-1.005,-5.2,-8.418,-1.079,-5.535,2.03,12.46,1.12
,-9.229,-1.486,-4.999,-8.313,-0.471,-5.616,3.43,11.76,2.38
17339.0,-7.956,0.373,-5.695,-8.765,2.211,-5.465,17.36,2.52,4.76
,-8.007,1.278,-5.609,-8.787,2.046,-5.142,14.91,3.29,3.43
,-8.081,1.814,-5.674,-8.679,1.768,-5.334,10.15,4.06,1.61
,-8.382,2.118,-5.635,-8.813,1.266,-4.795,5.74,4.34,-0.91
17415.0,-8.512,0.617,-4.661,-8.545,-0.108,-5.501,-1.33,4.06,-10.15
,-8.452,0.203,-4.7,-8.177,-0.304,-5.867,2.52,4.34,-11.34
,-8.569,-0.28,-4.721,-8.361,-0.12,-6.044,7.49,4.76,-11.55
,-8.54,-0.428,-5.03,-8.09,-0.333,-6.301,13.09,4.9,-11.34
17491.0,-7.932,-0.665,-6.059,-8.681,-2.273,-5.2,18.06,1.33,-12.04
,-7.844,-1.218,-5.944,-8.835,-2.048,-5.226,15.05,1.4,-8.89
,-7.686,-1.919,-5.542,-8.741,-1.347,-5.585,12.11,3.15,-5.46
,-8.177,-2.347,-5.394,-8.454,-0.806,-6.021,12.11,4.62,-2.66
17566.0,-8.299,-0.136,-6.636,-8.033,-1.653,-5.592,17.29,-1.54,0.07
,-8.131,0.127,-6.856,-8.224,-2.249,-5.245,14.28,-2.31,1.05
,-8.055,-0.29,-6.391,-8.294,-2.462,-4.992,9.8,-0.98,4.2
,-7.808,-0.964,-6.104,-8.792,-2.213,-4.939,7.14,-0.49,6.58
17642.0,-8.825,-1.591,-4.889,-8.311,0.586,-5.456,21.07,-3.5,11.83
,-8.464,-1.082,-5.145,-8.196,1.05,-5.614,21.42,-3.43,12.81
,-8.346,-0.687,-5.245,-8.543,1.141,-5.408,20.79,-1.89,13.72
,-8.349,-0.098,-5.185,-8.732,1.28,-5.178,19.81,-1.47,14.07
17717.0,-8.559,1.139,-5.245,-8.591,0.452,-5.858,3.5,3.78,7.49
,-8.382,0.715,-5.212,-8.744,0.23,-5.853,-0.14,5.95,6.02
,-8.256,0.392,-5.279,-8.667,0.158,-5.872,-1.19,7.77,5.11
,-8.428,0.457,-5.647,-8.421,-0.325,-5.671,-1.47,8.33,4.27
17793.0,-8.239,-0.57,-5.611,-8.354,0.031,-5.951,-14.0,7.98,2.73
,-8.32,-0.285,-5.829,-8.306,-0.373,-5.76,-13.3,7.42,2.8
,-8.272,-0.12,-5.882,-8.531,-0.864,-5.434,-14.35,6.3,2.73
,-8.241,0.211,-6.138,-8.538,-1.213,-5.456,-15.68,5.67,2.66
17869.0,-8.459,-1.295,-5.662,-8.66,-0.601,-5.707,-17.08,7.42,10.92
,-8.473,-1.208,-5.827,-8.358,-0.311,-5.796,-13.51,7.42,13.09
,-8.435,-0.756,-6.155,-8.138,0.048,-5.963,-9.87,6.86,14.56
,-8.49,-0.704,-6.047,-8.291,0.369,-6.088,-7.77,6.16,15.05
17945.0,-8.48,0.749,-6.088,-7.932,0.806,-6.305,-4.69,4.13,14.35
,-8.856,1.228,-6.143,-7.959,0.275,-6.143,-5.74,1.12,11.97
,-8.619,1.201,-6.36,-8.11,0.026,-5.973,-8.4,-1.47,9.1
,-8.275,1.098,-6.312,-8.141,-0.366,-6.104,-10.57,-2.17,7.35
18021.0,-8.287,-0.407,-6.133,-8.392,0.129,-6.274,0.7,-4.83,5.25
,-8.143,-0.364,-6.236,-8.236,0.369,-6.219,5.04,-5.95,5.74
,-8.212,-0.208,-6.32,-8.153,0.471,-6.121,8.68,-7.14,6.51
,-8.356,-0.105,-6.308,-8.043,0.512,-6.011,11.69,-7.91,7.42
18096.0,-8.162,0.565,-6.059,-8.409,-0.191,-5.217,10.78,-12.88,9.45
,-8.373,0.483,-5.98,-8.524,-0.01,-5.367,9.87,-14.91,8.54
,-8.418,0.39,-5.827,-8.37,0.531,-5.559,8.82,-16.52,8.05
,-8.284,-0.148,-5.776,-8.2,1.153,-5.741,5.6,-17.57,8.33
18172.0,-8.196,1.625,-5.69,-8.693,1.07,-4.867,15.4,-24.29,4.34
,-8.1,1.493,-5.489,-8.67,1.067,-4.678,10.15,-24.85,2.17
,-8.315,1.28,-5.202,-8.502,1.204,-4.683,5.88,-24.5,0.7
,-8.703,1.184,-5.109,-8.856,1.098,-4.649,3.57,-25.06,-1.33
18248.0,-8.296,1.515,-4.599,-8.574,0.206,-4.087,1.54,-26.6,-9.1
,-8.21,1.486,-4.063,-8.5,-0.175,-4.2,-3.99,-28.42,-12.6
,-9.076,1.096,-4.271,-8.519,-0.101,-3.905,-9.38,-26.67,-13.37
,-8.952,0.849,-4.3,-8.65,-0.098,-3.912,-11.48,-26.25,-14.91
18324.0,-8.727,-0.17,-3.752,-8.71,-1.003,-3.338,-7.14,-24.92,-15.68
,-8.911,-0.278,-3.709,-8.933,-1.074,-3.142,-6.86,-23.94,-15.75
,-8.684,-0.538,-3.865,-9.203,-0.78,-3.049,-7.98,-23.8,-15.12
,-8.306,-0.84,-3.489,-9.208,-0.44,-3.137,-7.21,-23.03,-13.23
18399.0,-9.16,-0.141,-2.948,-9.366,0.495,-2.965,6.86,-18.48,-7.28
,-9.009,0.074,-2.709,-9.301,0.692,-2.84,6.37,-17.15,-6.16
,-8.952,0.038,-2.79,-9.179,0.512,-2.984,5.18,-15.82,-6.09
,-9.067,0.275,-2.515,-8.945,0.359,-3.104,5.32,-14.63,-6.86
18475.0,-8.861,0.074,-3.118,-9.495,-0.199,-3.273,-2.52,-9.66,-10.5
,-8.882,0.007,-3.206,-9.261,-0.165,-3.465,-0.56,-8.54,-10.29
,-9.045,0.002,-2.79,-9.038,-0.237,-3.972,-0.42,-7.21,-9.73
,-9.404,-0.127,-2.994,-8.789,-0.66,-3.711,-0.56,-6.23,-9.1
18550.0,-8.789,-1.017,-3.546,-9.306,-0.117,-3.312,-5.04,-3.01,-7.77
,-9.033,-1.163,-3.288,-9.261,0.041,-3.599,-1.26,-1.82,-6.58
,-9.232,-0.9,-3.247,-9.127,-0.103,-3.546,4.06,-1.12,-5.18
,-9.452,-0.531,-3.312,-9.036,-0.086,-3.707,7.56,-0.63,-4.41
18626.0,-9.074,-0.139,-3.704,-9.148,-0.44,-3.412,6.51,1.68,-3.08
,-9.057,-0.179,-3.671,-9.134,-0.349,-3.479,6.72,1.68,-3.01
,-9.083,-0.268,-3.415,-9.194,-0.29,-3.711,7.07,2.03,-2.59
,-9.215,-0.371,-3.482,-8.997,-0.335,-3.606,7.28,2.66,-2.45
18702.0,-9.002,-0.196,-3.874,-9.244,-0.586,-4.051,6.37,3.78,-1.75
,-8.971,-0.357,-3.891,-9.162,-0.637,-4.231,4.55,3.92,-2.03
,-8.885,-0.505,-3.845,-8.933,-0.574,-4.214,2.94,3.92,-1.96
,-9.06,-0.68,-3.716,-8.854,-0.591,-4.13,2.31,4.06,-1.75
18778.0,-9.072,-0.428,-4.152,-8.942,-0.235,-4.52,7.07,2.94,-0.63
,-9.282,-0.388,-4.149,-8.839,-0.239,-4.523,9.38,2.45,-0.56
,-9.359,-0.22,-4.235,-8.83,-0.213,-4.283,10.01,1.54,-0.84
,-9.244,-0.208,-4.482,-8.923,-0.191,-4.13,8.68,0.77,-1.12
18854.0,-9.131,-0.084,-4.003,-9.127,-0.543,-3.642,8.19,-1.75,-1.4
,-9.206,0.024,-3.963,-9.194,-0.507,-3.812,6.16,-2.03,-1.12
,-9.246,-0.148,-3.944,-9.227,-0.404,-4.051,3.57,-2.52,-1.19
,-9.131,-0.45,-3.731,-9.165,-0.361,-4.099,2.38,-2.45,-0.91
18929.0,-9.069,-0.613,-4.042,-9.268,-0.711,-3.506,2.73,-3.22,-0.56
,-8.88,-0.909,-3.843,-9.354,-0.383,-3.687,3.78,-2.94,0.14
,-8.954,-1.062,-3.587,-9.22,-0.208,-3.843,6.93,-2.38,0.98
,-9.129,-1.005,-3.443,-9.055,-0.299,-3.86,10.5,-1.89,1.82
19005.0,-9.007,-0.407,-3.805,-9.263,-0.251,-3.628,8.12,-1.82,1.89
,-8.952,-0.443,-3.714,-9.213,-0.366,-3.496,8.19,-1.54,1.96
,-9.127,-0.4,-3.68,-9.189,-0.39,-3.649,8.19,-1.19,1.96
,-9.265,-0.294,-3.623,-9.227,-0.38,-3.716,7.63,-1.19,1.82
19081.0,-9.143,-0.29,-3.857,-9.277,-0.275,-3.475,3.57,-0.84,0.91
,-9.141,-0.129,-3.912,-9.287,-0.433,-3.388,3.15,-1.12,0.84
,-9.062,-0.144,-3.714,-9.292,-0.581,-3.348,2.17,-1.05,0.7
,-9.194,-0.316,-3.604,-9.275,-0.811,-3.352,1.47,-0.63,0.7
19157.0,-9.253,-0.763,-3.575,-9.186,-0.385,-3.745,4.76,0.7,1.12
,-9.189,-0.57,-3.687,-9.203,-0.201,-3.783,6.79,0.84,1.54
,-9.153,-0.419,-3.8,-9.258,-0.16,-3.905,7.56,0.7,1.68
,-9.179,-0.309,-3.764,-9.124,-0.184,-3.8,7.14,0.77,1.54
19232.0,-9.124,-0.275,-3.845,-9.277,-0.421,-3.551,4.27,0.07,0.63
,-9.067,-0.493,-3.817,-9.261,-0.357,-3.372,4.2,0.28,0.7
,-9.074,-0.579,-3.685,-9.28,-0.352,-3.309,5.11,0.42,0.98
,-9.206,-0.538,-3.618,-9.275,-0.361,-3.305,6.3,0.42,1.05
19308.0,-9.225,-0.306,-3.393,-9.203,-0.419,-3.704,1.05,1.75,0.28
,-9.234,-0.29,-3.47,-9.139,-0.517,-3.843,0.42,2.17,0.21
,-9.256,-0.349,-3.343,-9.086,-0.522,-3.855,-0.42,2.59,0.07
,-9.237,-0.385,-3.649,-9.048,-0.593,-3.975,-1.05,2.66,-0.21
19383.0,-9.095,-0.546,-3.884,-9.167,-0.306,-3.869,2.24,2.24,0.42
,-9.115,-0.507,-3.819,-9.16,-0.445,-3.79,3.08,2.24,0.49
,-9.249,-0.297,-3.865,-9.165,-0.491,-3.764,3.43,1.96,0.42
,-9.299,-0.16,-3.853,-9.064,-0.493,-3.656,1.82,1.68,0.07
19459.0,-9.067,-0.493,-3.546,-9.201,-0.232,-3.551,2.73,1.61,0.77
,-9.191,-0.342,-3.506,-9.206,-0.306,-3.525,3.08,1.82,0.7
,-9.155,-0.309,-3.506,-9.196,-0.402,-3.527,2.1,2.03,0.56
,-9.17,-0.227,-3.515,-9.232,-0.464,-3.616,0.63,2.03,0.35
19535.0,-9.172,-0.536,-3.649,-9.072,-0.462,-3.879,-3.71,3.29,-0.07
,-9.16,-0.555,-3.92,-9.182,-0.558,-3.752,-3.43,3.08,0.0
,-9.129,-0.543,-4.025,-9.167,-0.491,-3.269,-2.94,2.73,0.21
,-9.06,-0.428,-4.011,-9.399,-0.072,-3.47,-2.45,2.73,0.7
19611.0,-9.478,-0.043,-3.611,-8.808,-0.945,-2.972,-5.11,2.17,-0.7
,-9.387,-0.402,-3.515,-9.093,-0.828,-2.946,-9.52,2.1,-1.54
,-9.172,-0.534,-3.709,-9.44,-0.68,-2.874,-13.02,1.68,-1.89
,-8.914,-0.747,-3.479,-9.533,-0.529,-2.984,-13.86,1.61,-1.33
19686.0,-9.524,-0.287,-3.19,-9.009,-0.725,-2.955,-7.98,5.6,-0.28
,-9.11,-0.11,-3.101,-9.048,-0.864,-2.824,-12.04,5.67,-0.42
,-9.076,-0.239,-3.008,-9.153,-0.78,-3.008,-15.12,6.72,-0.35
,-8.969,-0.392,-3.044,-9.172,-0.622,-3.417,-16.24,8.19,-0.28
19762.0,-9.15,-0.316,-3.91,-8.89,-0.799,-4.073,-5.18,11.48,3.36
,-9.107,-0.115,-4.279,-8.751,-0.689,-4.161,-6.23,9.8,3.29
,-8.854,-0.112,-4.451,-8.916,-0.565,-4.463,-9.1,9.45,3.78
,-8.744,-0.605,-3.778,-8.765,-0.517,-4.551,-12.53,11.2,5.46
19837.0,-8.947,-0.629,-4.279,-9.174,0.505,-3.932,-1.19,11.34,7.98
,-8.94,-0.644,-3.58,-9.095,0.579,-4.393,0.42,12.53,8.61
,-9.081,-0.177,-3.374,-8.839,0.337,-4.532,5.46,13.3,8.68
,-9.076,0.261,-3.798,-8.921,0.002,-4.274,7.14,12.32,6.65
19913.0,-8.758,-0.357,-4.142,-8.926,0.404,-3.678,-2.45,11.48,4.9
,-8.768,-0.354,-3.508,-8.973,0.385,-3.522,2.31,13.72,5.46
,-8.835,-0.031,-3.881,-8.93,0.22,-2.426,6.65,14.98,5.32
,-8.777,0.299,-3.845,-9.557,0.242,-3.106,8.4,14.56,4.48
19989.0,-9.488,0.0,-3.953,-8.524,-0.57,-4.561,2.59,15.12,2.94
,-9.34,-0.412,-4.039,-8.586,0.022,-4.932,-1.54,12.88,3.92
,-8.83,-0.632,-4.46,-8.464,0.574,-5.116,-3.01,12.95,5.11
,-8.26,-0.854,-4.551,-8.337,0.754,-4.999,-1.61,15.26,5.46
20065.0,-8.662,0.589,-4.484,-8.794,-1.457,-4.64,7.91,17.71,2.45
,-9.083,0.498,-4.085,-8.356,-1.936,-4.714,4.48,18.41,1.68
,-9.241,-0.007,-4.384,-8.361,-2.096,-4.439,0.77,17.22,1.26
,-9.146,-0.818,-4.525,-8.524,-1.749,-4.458,-1.54,16.31,2.45
20141.0,-8.902,-1.101,-4.542,-8.351,0.981,-5.386,22.26,18.34,12.88
,-8.947,0.002,-5.133,-8.153,0.438,-4.86,25.97,15.82,12.53
,-8.65,0.78,-5.642,-8.402,-0.06,-4.683,23.31,13.93,11.13
,-8.528,1.122,-5.616,-8.758,-0.244,-4.683,15.96,13.37,9.94
20216.0,-9.148,-0.026,-4.499,-8.492,0.945,-4.798,5.32,15.4,8.12
,-9.012,0.239,-4.453,-8.792,1.137,-4.788,8.47,15.75,8.47
,-8.703,0.431,-4.575,-8.835,1.704,-5.176,8.96,16.87,8.68
,-8.583,0.711,-4.537,-8.681,1.876,-5.37,9.45,17.01,8.4
20292.0,-8.469,1.62,-5.59,-8.605,-0.206,-5.607,2.38,9.8,-2.17
,-8.378,1.175,-5.642,-8.557,-0.491,-5.619,-2.8,9.03,-5.32
,-8.315,0.751,-5.662,-8.552,-0.426,-5.427,-4.9,9.38,-7.07
,-8.564,0.151,-5.609,-8.547,0.002,-5.267,-4.83,8.82,-8.26
20368.0,-8.794,0.467,-5.051,-8.234,1.019,-5.604,12.95,5.81,-7.14
,-8.617,0.644,-4.867,-8.375,0.538,-5.573,13.72,5.88,-6.93
,-8.705,1.065,-5.03,-8.574,-0.203,-5.537,13.86,2.87,-8.61
,-8.409,1.316,-5.578,-8.72,-0.613,-5.506,10.64,1.19,-10.08
20444.0,-8.344,-1.436,-5.516,-8.421,-2.455,-5.786,7.84,3.08,-10.64
,-8.394,-2.149,-5.202,-8.689,-1.9,-5.989,10.22,1.68,-8.47
,-8.241,-2.493,-5.623,-8.83,-1.194,-6.042,13.58,0.35,-4.69
,-8.124,-2.821,-5.743,-8.758,-0.373,-5.985,18.97,-0.49,-1.68
20519.0,-8.339,0.235,-5.93,-8.576,-1.586,-5.284,26.39,-4.62,1.47
,-7.964,0.249,-6.14,-8.923,-2.266,-4.951,19.67,-4.69,1.96
,-8.016,-0.041,-5.712,-8.899,-2.18,-4.561,12.25,-3.08,4.62
,-8.311,-0.821,-5.386,-8.562,-1.656,-4.625,6.51,-1.82,8.05
20595.0,-8.394,-0.94,-4.92,-8.485,1.888,-5.327,23.8,-2.03,14.28
,-8.452,-0.191,-4.759,-8.701,1.622,-5.2,27.51,-1.89,13.58
,-8.567,0.986,-5.097,-8.784,1.218,-5.183,28.91,-4.06,12.04
,-8.385,1.876,-5.43,-8.722,0.902,-4.996,24.78,-3.85,10.22
20670.0,-8.859,0.459,-4.834,-8.289,0.519,-5.427,3.71,2.59,4.34
,-8.875,0.151,-5.056,-8.588,0.682,-5.37,3.22,2.87,3.08
,-8.504,-0.007,-5.025,-8.72,0.412,-5.377,4.48,3.99,2.38
,-8.382,0.498,-5.044,-8.746,0.168,-5.31,5.04,3.29,0.98
20746.0,-8.524,-0.258,-5.296,-8.732,-0.33,-5.42,-9.66,4.2,-3.08
,-8.105,-0.771,-5.111,-8.825,0.105,-5.504,-12.74,4.41,-2.73
,-8.047,-1.225,-4.989,-8.863,0.414,-5.389,-13.86,5.46,-1.75
,-8.368,-1.0,-5.193,-8.638,0.684,-5.43,-11.62,5.67,-0.7
20822.0,-8.545,0.562,-5.257,-8.835,-0.086,-5.329,-12.53,5.81,-2.24
,-8.753,0.225,-5.135,-8.794,-0.132,-5.346,-14.14,6.51,-2.52
,-8.746,-0.069,-5.123,-8.612,-0.148,-5.607,-14.14,7.21,-1.89
,-8.784,-0.258,-4.977,-8.363,-0.615,-5.482,-12.53,6.86,-1.12
20898.0,-8.394,-1.196,-5.365,-8.26,-0.785,-5.508,-15.89,4.48,0.91
,-8.547,-1.505,-5.291,-8.229,-0.684,-5.686,-16.03,4.55,2.59
,-8.567,-1.464,-5.379,-8.33,-0.905,-5.65,-13.65,3.92,3.78
,-8.411,-1.22,-5.444,-8.425,-0.916,-5.571,-11.41,3.5,4.62
20974.0,-8.528,-0.919,-5.422,-8.67,-0.318,-5.676,-9.8,2.1,8.54
,-8.452,-0.682,-5.473,-8.581,0.278,-5.583,-7.7,1.12,9.03
,-8.476,-0.565,-5.549,-8.44,0.493,-5.587,-4.83,0.49,9.38
,-8.445,-0.503,-5.75,-8.296,0.584,-5.544,-2.17,-0.21,9.38
21049.0,-8.349,0.572,-5.537,-8.452,0.342,-5.24,4.34,-4.06,6.65
,-8.466,0.677,-5.477,-8.421,-0.007,-5.26,4.06,-4.41,5.67
,-8.559,0.577,-5.52,-8.495,-0.007,-5.276,3.5,-4.34,4.9
,-8.579,0.474,-5.363,-8.588,0.177,-5.334,1.68,-4.76,3.92
21125.0,-8.564,0.313,-5.37,-8.531,0.323,-5.123,6.09,-7.35,5.32
,-8.662,0.29,-5.092,-8.564,0.33,-5.217,5.67,-8.12,4.55
,-8.574,0.246,-5.025,-8.224,-0.029,-4.707,4.2,-9.45,3.29
,-8.488,0.189,-5.154,-8.49,-0.072,-4.867,3.01,-10.57,2.52
21201.0,-8.495,0.053,-4.996,-8.732,0.144,-4.922,2.66,-12.11,-0.49
,-8.605,-0.017,-5.073,-8.753,0.165,-4.812,3.92,-11.2,0.91
,-8.646,0.043,-5.059,-8.928,0.148,-4.585,5.25,-10.5,2.24
,-8.698,0.148,-4.944,-8.796,0.421,-4.621,7.14,-10.36,2.87
21277.0,-8.564,0.656,-4.702,-8.693,0.715,-4.75,8.26,-10.85,1.61
,-8.583,0.742,-4.697,-8.579,0.749,-4.755,6.79,-11.13,0.77
,-8.698,0.809,-4.925,-9.361,0.625,-5.027,4.34,-11.97,-0.21
,-8.591,0.742,-4.913,-8.564,0.754,-4.877,2.31,-12.18,-1.33
21352.0,-8.605,0.684,-4.937,-8.746,-0.261,-4.922,5.32,-11.2,-4.97
,-7.315,0.725,-3.85,-8.88,0.098,-4.685,3.36,-10.99,-4.69
,-6.186,-0.601,-2.419,-8.748,0.297,-5.133,9.94,-14.14,-3.85
,-9.325,-0.16,-4.515,-8.772,0.325,-4.963,13.51,-12.39,-4.06
21428.0,-8.985,0.218,-4.743,-8.732,-0.091,-4.089,2.59,-14.98,-5.04
,-8.969,0.12,-4.592,-8.67,-0.079,-4.168,-0.77,-14.77,-6.79
,-8.815,-0.065,-4.178,-8.679,-0.089,-4.025,-2.03,-14.42,-8.05
,-8.655,-0.108,-4.092,-8.918,-0.129,-3.891,-0.98,-14.35,-8.4
21503.0,-8.957,-0.304,-3.357,-9.387,0.419,-3.178,2.45,-14.84,-6.09
,-9.143,-0.366,-3.125,-9.313,0.378,-3.135,5.74,-13.93,-6.02
,-9.215,-0.168,-3.156,-9.019,0.045,-2.86,8.47,-13.58,-6.72
,-9.407,-0.002,-3.238,-8.849,-0.412,-2.754,8.33,-14.07,-7.28
21579.0,-8.837,-0.445,-2.915,-9.366,-0.333,-2.843,1.05,-8.89,-10.01
,-8.775,-0.347,-3.005,-9.34,-0.5,-2.977,2.1,-8.26,-9.73
,-9.019,-0.05,-3.044,-9.177,-0.491,-3.068,2.87,-7.28,-8.47
,-9.234,-0.12,-3.003,-9.026,-0.325,-3.137,2.24,-6.02,-7.35
21655.0,-9.069,-0.364,-3.24,-9.179,-0.414,-3.953,3.36,0.49,-6.3
,-9.031,-0.373,-3.384,-8.971,-0.44,-3.91,2.52,1.47,-5.95
,-9.11,-0.505,-3.489,-8.911,-0.299,-4.209,1.89,2.52,-5.46
,-9.115,-0.55,-3.542,-8.978,-0.299,-4.491,2.59,3.08,-4.9
21731.0,-8.906,-0.39,-4.544,-8.952,-0.538,-4.611,1.89,2.24,-4.83
,-8.863,-0.498,-4.664,-8.976,-0.328,-4.434,2.03,1.75,-4.69
,-8.844,-0.605,-4.563,-8.993,-0.158,-4.329,2.31,1.54,-4.34
,-8.904,-0.749,-4.518,-9.05,-0.361,-4.255,3.85,1.12,-4.13
21806.0,-9.031,-0.471,-4.247,-8.882,-0.201,-4.264,1.68,-2.03,-4.2
,-9.129,-0.479,-4.633,-9.038,-0.297,-4.147,2.73,-2.87,-4.27
,-8.813,-0.335,-4.501,-9.134,-0.349,-3.778,3.85,-3.71,-4.2
,-8.696,-0.218,-4.532,-9.237,-0.361,-3.826,4.69,-3.99,-3.92
21882.0,-9.208,-0.565,-3.891,-9.107,-0.787,-3.305,0.14,-5.18,-3.85
,-9.069,-0.857,-3.745,-9.141,-0.531,-3.357,0.07,-5.11,-3.08
,-8.969,-0.976,-3.64,-9.16,-0.514,-3.19,2.45,-4.55,-2.1
,-9.072,-0.995,-3.484,-9.222,-0.495,-3.142,5.6,-4.06,-1.33
21957.0,-9.265,-0.622,-3.137,-9.239,-0.55,-3.226,7.84,0.21,-0.21
,-9.222,-0.543,-3.051,-9.294,-0.467,-3.424,8.26,1.05,0.14
,-9.222,-0.526,-3.092,-9.215,-0.488,-3.613,8.33,1.89,0.35
,-9.182,-0.601,-3.063,-9.119,-0.498,-3.874,7.98,2.87,0.49
22033.0,-8.973,-0.512,-4.123,-9.016,-0.431,-4.305,5.25,4.48,-0.28
,-8.918,-0.586,-4.149,-8.988,-0.474,-4.161,5.46,4.34,-0.07
,-8.985,-0.529,-4.329,-9.119,-0.668,-4.128,5.67,3.99,0.14
,-9.028,-0.443,-4.42,-9.107,-0.84,-4.044,5.74,3.5,0.28
22109.0,-8.985,-0.804,-4.046,-9.15,-0.457,-4.011,-0.42,1.61,0.21
,-9.0,-0.744,-4.037,-9.043,-0.426,-4.085,0.49,1.54,0.35
,-9.045,-0.684,-3.948,-9.036,-0.495,-4.07,1.82,1.4,0.56
,-9.124,-0.584,-4.061,-9.05,-0.625,-4.015,2.94,1.26,0.7
22185.0,-9.026,-0.656,-4.022,-9.119,-0.615,-3.649,2.87,0.42,1.05
,-9.079,-0.68,-3.917,-9.186,-0.541,-3.707,3.57,0.28,1.05
,-9.134,-0.637,-3.819,-9.167,-0.55,-3.79,4.2,0.42,1.05
,-9.124,-0.653,-3.716,-9.177,-0.5,-3.783,4.13,0.28,0.91
22261.0,-9.158,-0.584,-3.857,-9.122,-0.455,-3.984,2.87,0.84,0.84
,-9.095,-0.596,-3.936,-9.1,-0.39,-4.104,3.29,1.12,1.05
,-9.036,-0.593,-3.944,-8.993,-0.443,-4.051,3.85,1.19,1.4
,-8.99,-0.507,-3.929,-8.983,-0.543,-4.056,4.27,1.12,1.47
22336.0,-8.978,-0.704,-3.97,-9.179,-0.503,-3.75,1.75,0.7,1.47
,-9.079,-0.648,-3.896,-9.225,-0.548,-3.836,2.59,0.7,1.68
,-9.167,-0.457,-3.881,-9.227,-0.531,-3.898,2.52,0.56,1.47
,-9.155,-0.407,-3.771,-9.1,-0.605,-3.929,1.12,0.56,1.33
22412.0,-9.055,-0.725,-4.003,-9.048,-0.505,-4.085,-0.28,0.49,0.98
,-9.048,-0.658,-3.982,-9.002,-0.481,-4.054,1.26,0.35,1.19
,-9.115,-0.627,-4.049,-9.05,-0.431,-4.073,2.45,0.28,1.33
,-9.052,-0.488,-4.13,-9.124,-0.39,-4.073,3.01,-0.07,1.4
22488.0,-9.093,-0.342,-4.094,-9.05,-0.617,-3.635,4.27,-1.26,1.54
,-9.105,-0.402,-3.999,-9.167,-0.546,-3.637,3.92,-1.4,1.47
,-9.081,-0.51,-3.944,-9.229,-0.44,-3.465,3.57,-1.26,1.47
,-8.947,-0.696,-3.738,-9.244,-0.412,-3.494,3.92,-0.98,1.68
22564.0,-9.21,-0.364,-3.448,-9.129,-0.503,-3.692,1.82,0.0,1.12
,-9.182,-0.44,-3.508,-9.158,-0.505,-3.757,0.77,0.49,0.91
,-9.148,-0.476,-3.625,-9.131,-0.507,-3.879,0.77,0.84,0.91
,-9.143,-0.457,-3.625,-9.093,-0.462,-3.984,0.98,1.26,0.91
22639.0,-9.079,-0.495,-4.008,-9.081,-0.567,-3.656,0.91,0.98,0.84
,-9.016,-0.548,-3.994,-9.095,-0.5,-3.398,0.98,0.98,0.84
,-9.014,-0.553,-3.867,-9.095,-0.581,-3.195,1.47,0.98,0.98
,-9.005,-0.51,-3.802,-9.122,-0.689,-3.051,2.17,1.05,0.98
22715.0,-9.134,-0.749,-2.958,-9.359,-0.455,-3.587,1.89,4.41,3.01
,-9.32,-0.778,-2.893,-9.301,-0.543,-3.659,2.03,5.46,3.43
,-9.433,-0.67,-3.063,-9.079,-0.493,-3.582,1.82,6.02,3.57
,-9.423,-0.558,-3.333,-9.076,-0.651,-3.283,1.19,6.37,3.5
22790.0,-9.316,-0.567,-3.388,-8.758,-0.553,-3.908,-7.84,7.14,0.63
,-9.222,-0.124,-3.769,-8.911,-0.873,-3.446,-8.96,6.16,-0.14
,-9.012,0.079,-3.984,-8.983,-0.773,-3.477,-12.18,5.18,-0.14
,-8.784,-0.151,-3.967,-9.098,-0.627,-3.281,-15.19,5.25,0.35
22866.0,-9.172,-0.572,-3.065,-8.717,-0.735,-3.697,-6.72,10.85,4.83
,-9.294,-0.364,-2.864,-8.658,-0.756,-3.314,-6.58,11.9,5.46
,-9.521,-0.187,-3.991,-9.014,-0.581,-3.348,-8.68,11.27,4.41
,-9.007,-0.464,-3.922,-9.198,-0.383,-3.561,-11.55,10.85,4.48
22942.0,-9.136,0.117,-4.111,-8.684,-0.866,-4.037,-4.55,11.83,4.83
,-8.849,0.256,-4.334,-9.024,-0.68,-4.36,-8.54,10.43,4.62
,-8.66,-0.11,-4.051,-8.878,-0.503,-4.556,-14.7,10.99,5.81
,-8.725,-0.668,-4.276,-8.811,-0.254,-4.341,-16.8,12.25,6.65
23018.0,-8.835,-0.057,-4.101,-8.983,0.574,-4.202,3.29,15.19,10.08
,-8.698,0.108,-3.951,-9.289,0.421,-4.616,3.64,15.89,10.08
,-8.734,0.378,-3.297,-8.959,0.053,-4.968,4.69,16.87,9.73
,-8.976,0.629,-4.068,-8.507,-0.335,-4.726,4.34,14.63,7.42
23094.0,-8.186,-0.684,-4.207,-9.38,0.292,-3.838,-1.12,14.98,6.09
,-8.267,-0.742,-3.829,-9.471,0.948,-3.994,4.13,17.43,5.74
,-8.607,-0.553,-4.061,-9.229,1.515,-3.704,8.68,17.92,5.25
,-8.957,-0.275,-3.867,-9.136,1.866,-4.494,11.9,18.55,6.23
23169.0,-8.37,1.374,-5.023,-8.483,-1.649,-5.382,-4.2,12.6,0.35
,-8.423,0.177,-5.224,-8.555,-1.431,-5.499,-10.78,13.37,0.49
,-8.411,-0.828,-5.465,-8.882,-0.914,-5.398,-12.32,13.02,1.19
,-8.466,-1.529,-5.154,-8.763,-0.445,-5.157,-8.19,13.51,3.08
23245.0,-8.693,-0.191,-4.934,-8.588,0.531,-5.255,15.75,13.72,6.65
,-8.591,0.275,-4.846,-8.765,0.476,-4.987,13.86,14.07,6.23
,-8.473,0.567,-4.817,-8.485,0.218,-5.14,9.87,14.35,5.67
,-8.629,0.739,-5.121,-8.581,0.038,-5.047,5.88,13.51,4.97
23321.0,-8.547,-0.23,-4.901,-8.799,-0.297,-4.527,4.97,10.5,6.44
,-8.686,-0.553,-5.24,-8.65,-0.127,-4.307,6.86,9.38,6.72
,-8.906,-0.57,-4.992,-8.531,0.093,-4.752,9.8,8.89,6.51
,-8.748,-0.424,-4.75,-8.464,0.28,-4.975,12.81,10.01,6.3
23397.0,-8.428,0.567,-5.284,-8.591,0.653,-5.018,6.93,7.98,6.44
,-8.366,0.94,-5.432,-8.847,0.625,-5.006,5.25,7.98,5.6
,-8.313,1.022,-5.363,-8.954,0.689,-5.044,3.22,9.1,4.34
,-8.435,0.881,-5.095,-8.875,0.601,-5.307,1.26,10.22,2.73
23472.0,-8.76,0.337,-5.468,-8.61,0.912,-5.532,4.34,4.97,-0.98
,-8.423,0.357,-5.702,-8.617,0.979,-5.664,6.72,3.99,-1.75
,-8.229,0.517,-5.791,-8.476,0.802,-5.552,10.29,4.34,-2.31
,-8.368,0.711,-5.54,-8.665,0.44,-5.016,13.37,4.83,-3.92
23548.0,-8.306,-0.194,-4.807,-8.938,-0.629,-5.035,2.8,1.61,-8.47
,-8.267,-0.964,-4.573,-8.636,0.0,-5.568,3.29,3.01,-7.28
,-8.445,-1.266,-4.609,-8.413,0.256,-5.599,8.75,3.15,-6.37
,-8.926,-1.034,-4.86,-8.016,0.019,-5.683,15.89,2.66,-5.18
23623.0,-8.064,-0.258,-5.511,-8.614,-2.776,-5.353,20.3,0.98,-3.01
,-8.339,-0.845,-5.224,-8.366,-2.886,-5.264,17.22,3.08,-0.77
,-8.607,-1.663,-5.214,-8.461,-2.558,-5.492,15.4,3.57,0.91
,-8.607,-2.338,-5.229,-9.012,-2.111,-5.212,14.63,2.8,4.2
23699.0,-8.634,-1.385,-5.322,-8.485,0.962,-5.312,27.51,0.91,18.34
,-8.32,-0.519,-5.159,-8.751,1.062,-5.214,28.07,0.77,17.36
,-7.863,0.227,-5.408,-8.775,1.907,-5.489,26.39,1.4,16.94
,-8.107,0.766,-5.346,-8.725,2.472,-5.513,23.24,2.17,16.52
23775.0,-8.6,2.644,-5.341,-8.418,0.905,-5.377,10.99,5.18,5.39
,-8.495,2.647,-5.319,-8.497,0.254,-5.506,7.35,5.74,2.17
,-8.473,2.498,-5.437,-8.516,0.007,-5.597,2.87,5.39,-0.91
,-8.533,1.78,-5.413,-8.502,0.0,-5.695,-1.75,6.58,-2.94
23851.0,-8.603,0.079,-5.934,-8.229,-0.337,-5.339,-2.45,9.17,-5.53
,-8.581,-0.093,-6.028,-8.679,-0.12,-5.044,-6.16,7.56,-5.95
,-8.177,-0.246,-5.858,-8.713,0.12,-5.245,-9.03,8.05,-5.74
,-8.026,-0.328,-5.492,-8.557,0.079,-5.279,-9.66,9.38,-5.32
23926.0,-8.478,0.376,-5.494,-8.871,-0.574,-5.231,-14.0,7.98,-3.64
,-8.717,0.38,-5.611,-8.492,-0.562,-5.887,-15.12,7.21,-4.06
,-8.959,0.16,-5.822,-7.983,-0.864,-6.061,-17.22,6.02,-5.32
,-8.949,-0.316,-5.583,-8.047,-1.139,-6.119,-18.83,6.16,-5.6
24002.0,-8.229,-1.225,-6.042,-8.306,-1.108,-5.899,-15.61,2.38,-2.94
,-8.397,-1.266,-5.908,-8.385,-0.897,-5.982,-13.58,1.75,-3.43
,-8.354,-1.362,-5.798,-8.363,-0.857,-6.016,-11.97,1.68,-2.59
,-8.253,-1.232,-5.748,-8.315,-0.983,-6.052,-10.15,2.38,-0.77
24078.0,-8.287,-1.129,-6.088,-8.346,-0.471,-6.123,-6.72,-1.61,5.67
,-8.09,-1.132,-6.1,-8.323,-0.172,-6.214,-3.22,-2.31,6.51
,-8.303,-1.0,-5.872,-8.387,0.156,-6.291,0.84,-3.15,7.14
,-8.375,-0.897,-5.982,-8.236,0.428,-6.351,3.5,-4.2,7.98
24154.0,-8.215,0.538,-6.162,-8.275,0.163,-5.702,7.42,-8.26,8.68
,-8.282,0.335,-5.846,-8.241,0.206,-5.683,6.23,-7.7,8.68
,-8.476,0.297,-5.8,-8.44,0.201,-5.602,5.18,-9.45,7.77
,-8.469,0.168,-5.7,-8.562,0.218,-5.437,4.97,-11.13,7.49
24230.0,-8.449,0.385,-5.205,-8.332,0.445,-4.972,10.85,-14.0,8.26
,-8.289,-0.148,-4.611,-8.6,0.55,-5.063,7.98,-14.28,8.26
,-8.291,-0.014,-4.547,-8.775,0.577,-5.018,8.12,-14.7,7.98
,-8.291,0.333,-4.812,-8.698,0.285,-4.905,11.62,-15.54,7.49
24305.0,-8.495,0.208,-4.817,-7.822,0.208,-2.886,9.38,-18.97,4.34
,-8.425,0.335,-4.712,-8.866,0.117,-4.161,9.94,-18.9,4.13
,-8.342,0.278,-4.59,-8.722,0.376,-4.499,9.24,-18.69,4.27
,-8.445,0.22,-4.468,-8.514,0.541,-4.511,8.19,-18.41,4.06
24381.0,-8.442,0.732,-4.355,-8.746,1.079,-4.3,5.53,-18.83,-0.28
,-8.878,1.084,-4.57,-8.83,1.122,-4.07,4.97,-18.9,-1.54
,-8.89,1.223,-4.738,-8.871,0.976,-3.967,2.94,-18.9,-2.8
,-8.813,1.18,-4.527,-8.866,0.543,-3.704,0.7,-18.83,-4.27
24457.0,-9.229,0.572,-4.219,-8.684,-0.156,-3.996,-6.3,-19.18,-12.95
,-9.012,0.706,-4.264,-8.66,-0.548,-3.654,-8.75,-20.16,-13.65
,-8.691,0.553,-3.955,-8.878,-0.593,-3.917,-11.34,-19.74,-13.3
,-8.677,0.246,-4.063,-8.894,-0.548,-3.989,-13.51,-18.97,-14.49
24533.0,-9.024,-0.455,-3.857,-8.969,-0.909,-2.592,-8.4,-17.57,-12.11
,-9.079,-0.553,-3.958,-9.141,-0.498,-2.568,-7.77,-16.87,-11.62
,-8.861,-0.888,-3.475,-9.371,0.103,-2.761,-6.58,-15.68,-11.34
,-8.677,-1.053,-2.718,-9.488,0.603,-3.061,-3.08,-13.65,-9.94
24608.0,-9.332,0.445,-3.058,-9.206,0.096,-2.723,-1.82,-10.43,-8.75
,-9.122,-0.093,-2.625,-9.414,0.23,-3.527,-3.36,-8.33,-8.89
,-9.155,-0.431,-2.563,-9.107,0.096,-3.321,-0.42,-6.09,-8.75
,-9.076,-0.28,-2.254,-8.947,-0.436,-3.35,4.06,-4.69,-8.4
24684.0,-9.062,-0.835,-3.51,-9.287,-0.596,-3.609,-3.29,-0.84,-8.82
,-8.923,-1.091,-3.29,-9.129,-0.574,-3.297,-0.14,0.7,-7.56
,-8.94,-0.995,-3.128,-9.095,-0.495,-3.391,3.57,2.1,-5.81
,-9.239,-0.665,-3.357,-9.139,-0.378,-3.463,4.97,2.73,-5.39
24759.0,-9.1,-0.388,-3.319,-9.16,-0.187,-3.872,4.27,6.3,-3.71
,-9.215,-0.144,-3.419,-8.954,-0.263,-3.819,4.48,6.93,-3.64
,-9.289,-0.067,-3.352,-9.019,-0.369,-3.936,3.08,7.28,-3.71
,-9.206,-0.026,-3.644,-9.079,-0.445,-4.034,2.24,7.63,-3.85
24835.0,-9.033,-0.524,-4.101,-8.832,-0.158,-4.518,-0.49,8.19,-3.92
,-9.019,-0.622,-4.235,-8.863,-0.258,-4.594,-0.42,8.05,-3.57
,-8.957,-0.567,-4.25,-8.899,-0.416,-4.501,0.14,7.77,-3.36
,-8.911,-0.34,-4.408,-8.856,-0.481,-4.286,0.28,7.35,-3.57
24911.0,-8.957,-0.5,-4.257,-8.78,-0.424,-4.798,-3.71,4.76,-4.13
,-9.136,-0.412,-4.228,-8.799,-0.608,-4.757,-3.71,4.55,-4.13
,-9.174,-0.318,-4.532,-8.842,-0.488,-4.654,-4.13,3.92,-4.2
,-8.985,-0.412,-4.633,-8.904,-0.024,-4.264,-5.18,2.94,-4.34
24987.0,-9.091,0.017,-4.19,-8.818,-0.83,-4.444,-10.36,0.49,-6.51
,-9.196,-0.285,-4.106,-8.703,-0.78,-4.353,-15.12,0.28,-7.63
,-9.079,-0.44,-4.212,-8.856,-0.199,-4.381,-17.22,-0.21,-7.77
,-8.878,-0.598,-4.432,-8.916,-0.242,-4.369,-16.8,-0.77,-7.28
25062.0,-8.835,-0.524,-4.049,-8.938,-0.938,-3.62,-4.83,-2.17,-4.06
,-8.954,-0.768,-3.908,-9.079,-0.878,-3.53,-5.53,-2.17,-3.5
,-9.091,-1.094,-3.766,-9.306,-0.907,-3.494,-4.2,-1.61,-2.52
,-9.04,-1.046,-3.678,-9.332,-0.84,-3.606,-0.98,-1.05,-1.47
25138.0,-9.332,-0.464,-3.819,-8.799,-0.522,-4.745,11.76,0.91,4.62
,-9.17,-0.328,-4.223,-8.832,-0.574,-4.453,12.39,1.19,4.97
,-8.988,-0.4,-4.506,-9.028,-0.304,-4.458,11.83,0.91,5.11
,-8.827,-0.493,-4.657,-9.131,-0.378,-4.429,12.18,0.49,5.46
25214.0,-8.973,-0.505,-4.288,-9.258,-0.364,-4.07,14.63,-2.24,5.18
,-8.957,-0.723,-4.111,-9.189,-0.053,-3.984,13.51,-2.45,5.04
,-8.964,-1.046,-3.965,-9.038,0.022,-4.008,13.72,-2.31,5.32
,-9.024,-0.945,-3.912,-9.031,-0.136,-4.044,16.24,-2.03,6.16
25290.0,-8.861,-0.256,-4.051,-9.361,-0.077,-3.829,13.16,-1.89,5.25
,-8.911,-0.246,-3.9,-9.232,-0.093,-3.733,14.91,-1.33,5.53
,-9.162,-0.112,-3.776,-9.074,-0.206,-3.814,16.17,-1.12,5.81
,-9.344,-0.065,-3.699,-8.985,-0.404,-3.776,15.75,-1.33,5.53
25366.0,-8.988,-0.603,-3.661,-9.196,-0.38,-3.446,4.48,-1.05,1.75
,-9.098,-0.713,-3.573,-9.158,-0.323,-3.52,3.85,-0.42,1.54
,-9.232,-0.596,-3.453,-9.194,-0.318,-3.625,4.06,-0.14,1.61
,-9.251,-0.455,-3.463,-9.1,-0.342,-3.695,4.48,0.49,1.75
25441.0,-9.091,-0.433,-3.704,-9.153,-0.27,-3.927,6.86,2.59,2.66
,-9.062,-0.522,-3.594,-9.083,-0.323,-3.991,7.0,2.94,2.45
,-9.112,-0.457,-3.671,-9.019,-0.337,-4.008,7.0,2.87,2.17
,-9.186,-0.34,-3.838,-9.064,-0.345,-4.037,6.79,2.87,1.61
25517.0,-9.038,-0.357,-4.087,-9.1,-0.481,-3.948,1.12,2.73,0.0
,-8.978,-0.371,-4.133,-9.107,-0.529,-4.008,1.75,2.59,0.35
,-9.036,-0.376,-4.03,-9.067,-0.4,-4.121,2.66,2.66,0.7
,-9.048,-0.416,-3.92,-9.005,-0.313,-4.145,2.8,2.66,0.56
25592.0,-9.002,-0.347,-4.238,-9.095,-0.359,-4.113,-0.49,1.75,-0.42
,-9.028,-0.433,-4.13,-9.076,-0.407,-4.13,-0.84,1.61,-0.42
,-9.05,-0.491,-4.051,-9.005,-0.459,-4.137,-0.7,1.26,-0.42
,-9.072,-0.385,-4.082,-9.031,-0.534,-4.101,-0.77,0.7,-0.63
25668.0,-9.036,-0.464,-3.987,-9.222,-0.5,-3.699,-0.28,0.14,-0.35
,-9.016,-0.546,-3.86,-9.203,-0.526,-3.814,-0.07,0.21,-0.42
,-9.079,-0.553,-3.747,-9.081,-0.558,-3.927,0.35,0.28,-0.35
,-9.112,-0.526,-3.604,-9.024,-0.55,-4.178,0.56,0.35,-0.21
25744.0,-8.997,-0.601,-4.216,-8.921,-0.57,-4.118,2.73,0.35,0.56
,-8.966,-0.526,-4.262,-8.969,-0.589,-3.97,3.71,0.07,0.84
,-8.976,-0.455,-4.276,-9.026,-0.584,-3.915,4.34,-0.35,0.98
,-8.959,-0.491,-4.235,-9.026,-0.507,-3.697,4.69,-0.7,1.33
25820.0,-9.038,-0.431,-3.465,-9.277,-0.397,-3.238,6.44,-0.21,2.8
,-9.16,-0.354,-3.285,-9.217,-0.431,-3.18,4.97,0.49,2.73
,-9.215,-0.352,-3.156,-9.234,-0.574,-3.135,3.57,1.33,2.59
,-9.301,-0.335,-3.288,-9.127,-0.725,-2.974,1.75,2.03,1.96
25895.0,-9.38,-0.864,-3.003,-8.748,0.141,-4.245,-5.81,5.74,1.68
,-9.545,-0.51,-3.649,-8.614,-0.555,-4.008,-6.51,5.11,0.35
,-9.261,0.007,-3.783,-8.677,-1.101,-3.539,-9.03,3.64,-0.63
,-8.947,0.316,-4.13,-9.057,-1.235,-3.259,-13.51,2.38,-1.12
25971.0,-9.435,-1.096,-2.986,-8.667,-0.29,-4.692,-10.22,7.84,1.54
,-9.517,-0.371,-3.53,-8.576,-0.756,-4.494,-6.16,7.07,1.96
,-9.402,0.127,-4.281,-8.801,-1.127,-4.168,-7.14,5.32,1.82
,-8.952,0.067,-4.511,-8.914,-1.031,-4.393,-11.2,3.71,1.96
26046.0,-8.914,-0.677,-4.276,-9.43,1.082,-4.348,2.38,3.99,6.58
,-8.973,-0.33,-3.877,-9.024,0.95,-4.36,5.11,4.41,7.0
,-9.313,0.158,-3.788,-8.839,0.373,-4.463,6.51,4.62,7.14
,-9.459,0.73,-3.857,-8.6,-0.146,-4.271,5.11,3.64,6.37
26122.0,-8.847,-0.503,-3.869,-9.067,-0.014,-4.097,-10.15,3.78,4.2
,-9.086,-0.526,-3.769,-9.186,-0.294,-4.039,-5.39,4.13,3.78
,-9.103,-0.156,-3.415,-8.985,-0.507,-4.355,0.84,4.69,4.06
,-9.162,0.285,-4.111,-8.748,-0.979,-3.857,2.87,3.15,3.22
26198.0,-8.894,-1.012,-3.542,-9.038,0.369,-3.424,5.46,8.26,5.95
,-9.055,-0.644,-3.53,-9.038,0.687,-3.116,11.97,8.47,6.09
,-9.072,-0.328,-3.609,-9.335,0.849,-4.046,14.49,8.4,6.3
,-8.976,-0.022,-3.537,-9.186,0.596,-4.444,15.47,9.03,6.65
26274.0,-9.141,0.129,-4.925,-8.99,-1.443,-4.422,1.19,5.74,3.99
,-8.351,-0.809,-4.716,-9.253,-0.754,-4.396,-1.26,7.63,5.25
,-8.232,-1.522,-4.365,-9.002,-0.467,-3.819,1.82,9.94,7.07
,-8.552,-1.768,-4.573,-8.854,-0.273,-3.218,8.82,9.94,8.05
26350.0,-8.815,0.124,-3.463,-8.717,0.605,-3.965,16.59,13.23,8.75
,-9.079,0.424,-3.623,-8.679,0.16,-3.676,14.91,11.97,8.96
,-9.363,0.854,-4.19,-8.985,-0.316,-3.565,12.11,9.38,8.47
,-9.174,0.883,-4.456,-9.22,-0.151,-4.066,6.65,8.4,7.56
26425.0,-8.837,0.23,-4.408,-9.177,0.653,-3.754,10.36,9.59,6.23
,-8.488,0.632,-4.489,-9.177,0.622,-4.259,11.97,10.57,5.6
,-8.509,0.744,-4.101,-9.112,0.495,-4.599,11.34,12.88,4.62
,-8.775,0.579,-3.709,-8.784,0.304,-4.738,10.15,14.77,3.57
26501.0,-8.385,-0.311,-4.307,-8.976,-0.443,-4.477,2.31,17.29,1.89
,-8.337,-0.866,-4.066,-8.835,-0.299,-4.647,2.87,20.23,3.15
,-8.614,-1.058,-3.977,-8.516,-0.404,-4.403,7.0,21.0,4.48
,-8.926,-0.809,-4.2,-8.382,-0.656,-4.183,12.53,19.53,5.46
26577.0,-8.502,-0.859,-4.31,-8.349,0.914,-4.836,9.87,20.58,8.61
,-8.827,-0.747,-4.326,-8.622,1.129,-4.755,11.83,19.18,8.96
,-8.737,-0.062,-4.733,-8.679,1.192,-4.858,15.19,16.8,9.24
,-8.519,0.558,-4.913,-8.787,1.184,-5.243,16.1,16.17,9.24
26653.0,-8.705,1.117,-5.272,-8.806,1.283,-5.776,9.17,11.83,-2.94
,-8.569,0.94,-5.477,-8.586,1.208,-5.714,9.38,11.48,-4.76
,-8.557,0.66,-5.305,-8.33,0.794,-5.408,10.08,11.13,-5.74
,-8.622,0.964,-5.827,-8.351,-0.213,-5.063,14.84,8.68,-7.0
26728.0,-8.488,-0.797,-5.508,-8.356,-2.333,-5.808,8.61,7.42,-8.26
,-8.437,-1.752,-5.65,-8.318,-2.302,-6.102,7.98,8.47,-6.44
,-8.392,-2.089,-5.839,-8.725,-2.221,-5.788,12.32,8.82,-4.2
,-8.246,-2.448,-5.473,-8.949,-1.857,-5.437,16.8,8.4,-2.1
26804.0,-8.811,-1.424,-5.267,-8.567,0.622,-5.607,20.79,3.92,8.12
,-8.772,-0.962,-5.396,-8.952,0.699,-5.772,19.67,5.32,7.7
,-8.713,-0.565,-5.269,-9.081,0.972,-5.853,19.25,7.63,7.77
,-8.617,0.11,-5.315,-8.89,1.184,-5.666,20.37,9.03,7.91
26879.0,-7.983,1.517,-5.619,-8.78,0.835,-5.487,14.07,2.31,8.89
,-7.846,1.512,-5.358,-8.739,0.409,-5.525,11.13,3.22,5.6
,-8.16,1.352,-5.418,-8.437,-0.055,-5.602,8.68,4.06,1.33
,-8.66,1.108,-5.3,-8.382,-0.105,-5.693,6.86,4.55,-2.24
26955.0,-8.574,-0.062,-5.501,-7.961,-0.608,-5.329,4.55,4.13,-2.73
,-8.667,-0.22,-5.037,-8.153,-0.536,-5.786,2.31,4.34,-3.78
,-8.478,-0.297,-5.004,-8.557,-0.385,-5.906,-0.56,3.22,-4.76
,-8.277,-0.483,-5.19,-8.531,-0.352,-5.968,-4.2,1.96,-5.53
27031.0,-8.409,-0.507,-5.805,-8.641,-1.584,-5.839,-7.84,3.01,-3.15
,-8.452,-0.639,-5.781,-8.631,-1.268,-5.977,-9.03,2.31,-3.01
,-8.291,-1.216,-5.664,-8.629,-0.589,-6.013,-10.5,2.1,-1.82
,-8.483,-1.639,-5.674,-8.662,-0.184,-6.054,-10.57,2.1,-0.21
27107.0,-8.799,0.031,-5.815,-8.358,0.17,-5.391,-2.66,1.05,3.71
,-8.729,0.311,-5.781,-8.722,-0.048,-5.281,-4.97,0.35,4.34
,-8.466,0.416,-5.958,-8.665,-0.12,-5.571,-8.19,0.49,5.25
,-8.277,0.292,-5.592,-8.447,-0.115,-5.755,-11.13,1.54,5.88
27182.0,-8.447,0.062,-5.707,-8.586,-0.826,-5.379,-12.74,-3.5,3.85
,-8.337,-0.036,-5.65,-8.471,-0.555,-5.463,-13.16,-4.06,3.57
,-8.454,-0.361,-5.47,-8.509,-0.428,-5.528,-15.12,-3.71,2.94
,-8.543,-0.768,-5.446,-8.775,-0.62,-5.257,-16.45,-3.43,3.22
27258.0,-8.741,-0.5,-5.138,-8.296,0.146,-5.506,-5.88,-3.15,4.69
,-8.49,-0.409,-5.169,-8.375,0.134,-5.721,-4.83,-3.57,4.83
,-8.378,-0.23,-5.164,-8.466,0.146,-5.755,-3.85,-5.11,4.9
,-8.246,0.091,-5.279,-8.459,0.079,-5.64,-2.03,-7.21,4.27
27334.0,-8.483,0.026,-5.657,-8.665,-0.412,-5.243,1.47,-9.8,2.73
,-8.576,-0.069,-5.568,-8.677,-0.354,-5.233,3.08,-9.59,3.15
,-8.516,-0.115,-5.48,-8.672,-0.354,-5.102,4.62,-9.45,3.99
,-8.519,-0.11,-5.408,-8.502,-0.196,-5.039,6.09,-9.66,4.9
27410.0,-8.428,0.086,-5.004,-8.823,0.321,-4.582,12.74,-13.16,7.21
,-8.315,0.364,-4.927,-8.555,0.625,-4.707,11.9,-13.86,7.35
,-8.591,0.385,-4.836,-8.579,0.639,-4.535,9.8,-14.07,7.42
,-8.39,0.12,-4.381,-8.66,0.536,-4.362,7.28,-15.26,6.16
27486.0,-8.782,0.337,-4.085,-8.744,0.294,-4.001,5.04,-15.47,0.84
,-8.871,0.311,-3.982,-8.768,0.153,-3.989,5.46,-15.4,0.49
,-8.971,0.359,-3.972,-8.777,0.11,-3.96,4.76,-15.96,0.0
,-8.875,0.409,-4.08,-8.815,0.184,-4.087,3.01,-16.31,-0.84
27561.0,-8.787,0.172,-4.202,-8.856,0.153,-4.185,-3.78,-15.05,-4.62
,-8.859,0.191,-4.152,-8.765,0.132,-4.499,-4.34,-14.56,-4.76
,-8.839,0.184,-4.106,-8.662,0.086,-4.518,-4.83,-14.28,-5.18
,-8.811,0.17,-4.243,-8.703,-0.048,-4.336,-5.39,-14.28,-5.81
27637.0,-8.686,-0.292,-4.044,-8.988,0.132,-3.793,-1.96,-11.97,-5.53
,-8.825,-0.323,-3.905,-9.04,0.232,-3.659,-0.84,-12.04,-6.02
,-9.088,-0.318,-3.877,-9.22,0.005,-3.628,0.07,-12.53,-5.67
,-9.043,-0.103,-3.941,-9.088,-0.005,-3.656,0.21,-12.95,-5.11
27712.0,-8.904,-0.246,-3.613,-9.32,-0.034,-3.144,-2.59,-9.8,-5.88
,-8.727,-0.275,-3.47,-9.387,0.244,-3.494,-1.89,-9.24,-4.83
,-8.863,-0.311,-3.417,-9.105,0.112,-3.539,0.42,-8.68,-4.06
,-9.052,-0.232,-3.405,-8.89,-0.313,-3.546,2.94,-7.91,-3.71
27788.0,-8.911,-0.416,-3.518,-9.201,0.235,-3.527,-0.56,-5.32,-3.92
,-9.095,-0.371,-3.465,-9.019,0.187,-3.352,1.68,-4.55,-3.78
,-9.292,-0.218,-3.441,-9.067,-0.136,-3.453,1.96,-4.34,-4.62
,-9.347,0.101,-3.372,-9.086,-0.196,-3.726,0.56,-4.27,-5.81
27864.0,-9.055,-0.074,-3.932,-9.246,0.038,-3.812,-1.89,-1.61,-5.81
,-9.107,0.06,-4.058,-9.165,-0.007,-3.932,-0.21,-1.96,-5.6
,-9.081,0.213,-3.912,-8.99,-0.012,-4.006,0.56,-1.96,-5.46
,-9.263,0.29,-3.874,-8.827,-0.153,-4.197,0.84,-1.54,-5.6
27940.0,-8.973,-0.385,-4.161,-9.057,-0.438,-3.757,-6.23,-3.08,-7.63
,-9.074,-0.586,-4.223,-9.177,-0.392,-3.403,-4.76,-2.94,-7.28
,-9.06,-0.711,-3.972,-9.201,-0.278,-3.446,-2.31,-2.87,-6.37
,-8.969,-0.548,-3.805,-9.268,-0.215,-3.297,0.84,-2.66,-5.32
28015.0,-9.165,-0.086,-3.647,-8.916,-0.407,-3.86,1.68,-0.84,-4.2
,-9.177,0.067,-4.209,-9.103,-0.543,-3.467,0.91,-1.19,-4.83
,-8.859,-0.132,-4.195,-9.273,-0.309,-3.235,-0.56,-1.4,-4.62
,-8.614,-0.27,-3.953,-9.392,-0.22,-3.209,0.7,-0.98,-3.64
28091.0,-9.392,-0.345,-3.374,-8.897,-0.761,-3.388,2.66,0.84,-3.43
,-9.237,-0.503,-3.448,-8.993,-0.462,-3.29,1.82,1.47,-3.08
,-9.083,-0.577,-3.551,-9.337,-0.39,-3.058,2.1,2.03,-2.59
,-9.033,-0.816,-3.611,-9.49,-0.273,-2.967,2.87,2.8,-2.24
28166.0,-9.483,-0.237,-3.178,-8.83,-0.66,-4.264,1.61,6.02,-2.1
,-9.361,-0.443,-3.494,-8.887,-0.409,-4.379,-0.63,6.3,-2.17
,-9.086,-0.562,-3.819,-8.995,-0.201,-4.286,-0.63,6.65,-1.89
,-8.933,-0.646,-4.164,-9.04,-0.141,-4.312,1.05,7.0,-1.33
28242.0,-9.11,-0.124,-4.458,-8.775,-0.615,-4.669,7.42,5.25,0.07
,-9.115,-0.117,-4.704,-8.873,-0.739,-4.343,7.21,4.48,-0.07
,-8.928,-0.146,-4.791,-8.921,-0.56,-4.173,7.0,3.36,-0.07
,-8.811,-0.352,-4.771,-9.064,-0.345,-3.9,6.93,2.59,-0.07
28318.0,-9.363,-0.347,-3.537,-9.05,-0.505,-3.441,13.79,0.7,0.98
,-9.397,-0.459,-3.374,-9.014,-0.562,-3.41,11.97,1.05,0.63
,-9.371,-0.548,-3.343,-9.086,-0.553,-3.609,10.22,1.61,0.14
,-9.249,-0.558,-3.41,-9.127,-0.419,-3.81,9.31,2.24,-0.07
28394.0,-9.127,-0.313,-4.006,-8.887,-0.486,-4.496,3.43,3.78,-0.35
,-9.014,-0.203,-4.267,-8.851,-0.481,-4.396,1.61,3.71,-0.63
,-8.873,-0.313,-4.322,-8.976,-0.505,-4.398,0.42,3.29,-0.63
,-8.935,-0.388,-4.537,-9.04,-0.603,-4.183,0.07,2.94,-0.49
28470.0,-9.1,-0.567,-4.121,-9.031,-0.534,-4.125,4.69,1.05,1.05
,-9.155,-0.505,-3.91,-8.993,-0.622,-4.133,4.62,0.91,0.98
,-9.196,-0.486,-3.939,-9.014,-0.581,-4.147,3.92,0.63,0.91
,-9.179,-0.474,-4.13,-9.028,-0.436,-4.173,2.87,0.56,0.63
28545.0,-9.019,-0.309,-4.063,-9.019,-0.505,-3.807,3.71,-0.49,0.91
,-8.995,-0.438,-3.996,-9.019,-0.534,-3.857,2.87,-0.56,0.77
,-9.052,-0.562,-3.977,-9.052,-0.488,-3.867,2.52,-0.56,0.7
,-9.033,-0.538,-3.879,-9.055,-0.493,-3.865,3.01,-0.63,0.7
28621.0,-9.043,-0.431,-3.872,-9.115,-0.34,-3.991,1.89,-0.07,1.19
,-9.091,-0.395,-3.91,-9.107,-0.342,-3.96,1.61,0.14,1.19
,-9.117,-0.459,-3.833,-9.064,-0.445,-4.015,1.4,0.49,1.26
,-9.119,-0.361,-3.982,-9.048,-0.665,-3.975,1.4,0.21,1.12
28697.0,-9.043,-0.543,-3.898,-9.115,-0.498,-3.738,2.38,0.0,1.12
,-9.119,-0.479,-3.884,-9.093,-0.452,-3.695,3.36,0.28,1.26
,-9.103,-0.479,-3.79,-9.103,-0.488,-3.676,3.22,0.07,1.54
,-9.04,-0.421,-3.764,-9.112,-0.586,-3.673,2.94,0.35,1.54
28773.0,-9.095,-0.522,-3.774,-9.052,-0.364,-3.96,2.87,1.54,1.33
,-9.091,-0.445,-3.855,-9.05,-0.459,-3.927,3.08,1.61,1.26
,-9.076,-0.366,-3.884,-9.038,-0.584,-3.759,2.8,1.82,1.12
,-9.057,-0.306,-3.879,-9.189,-0.565,-3.79,2.03,1.89,1.12
28848.0,-9.256,-0.505,-3.826,-8.983,-0.656,-4.061,1.89,2.38,1.61
,-9.222,-0.27,-4.008,-9.007,-0.586,-4.188,1.26,2.17,1.33
,-9.119,-0.28,-4.02,-9.069,-0.464,-4.2,-0.35,2.03,0.98
,-9.026,-0.428,-4.054,-9.055,-0.225,-4.209,-1.54,2.17,0.84
28924.0,-9.064,-0.139,-4.097,-9.045,-0.421,-4.02,2.31,1.4,1.61
,-9.079,-0.218,-4.14,-9.05,-0.419,-3.967,1.61,1.12,1.4
,-9.069,-0.294,-4.123,-9.074,-0.333,-3.747,0.91,0.7,0.98
,-8.969,-0.325,-4.078,-9.179,-0.206,-3.692,0.63,0.42,0.98
28999.0,-9.206,-0.201,-3.795,-8.983,-0.464,-3.714,-1.19,0.42,-0.7
,-9.189,-0.232,-3.893,-8.985,-0.412,-3.716,-2.31,0.56,-1.05
,-9.167,-0.445,-3.905,-8.988,-0.364,-3.637,-2.94,0.49,-1.05
,-9.115,-0.541,-3.881,-9.005,-0.359,-3.577,-2.45,0.42,-0.91
29075.0,-9.083,-0.481,-3.606,-9.127,-0.572,-3.757,0.7,1.26,0.21
,-9.088,-0.648,-3.719,-9.153,-0.404,-3.769,1.47,1.75,0.49
,-9.067,-0.782,-3.771,-9.184,-0.213,-3.855,2.87,1.68,0.98
,-9.043,-0.704,-3.723,-9.122,-0.227,-3.786,4.83,2.03,1.75
29151.0,-9.081,-0.335,-3.644,-9.072,-0.304,-3.405,1.82,3.22,1.96
,-9.179,-0.436,-3.587,-9.072,-0.514,-3.314,0.7,3.57,1.54
,-9.234,-0.424,-3.668,-9.005,-0.804,-3.075,0.07,3.64,0.98
,-9.146,-0.359,-3.553,-9.165,-0.83,-3.192,-1.26,3.5,1.05
29227.0,-9.289,-0.625,-3.427,-8.873,-0.687,-3.539,-2.03,7.84,3.64
,-9.15,-0.519,-3.443,-8.997,-0.727,-3.441,-2.38,7.98,3.78
,-9.155,-0.546,-3.556,-8.916,-0.656,-3.35,-4.41,8.12,3.64
,-8.973,-0.548,-3.589,-8.964,-0.629,-3.214,-6.37,8.12,3.78
29302.0,-9.131,-0.675,-2.807,-8.952,-0.129,-4.57,-4.97,11.55,5.39
,-9.402,-0.452,-3.381,-8.502,-0.182,-4.917,-2.66,11.97,5.53
,-9.153,-0.481,-3.386,-8.313,-0.56,-4.649,-1.54,12.53,5.88
,-9.067,-0.352,-3.453,-8.624,-0.725,-4.436,1.26,13.09,7.49
29378.0,-8.856,-0.749,-3.97,-8.808,0.694,-3.683,7.63,14.21,11.55
,-9.189,-0.309,-3.886,-9.012,0.136,-3.58,13.3,14.56,11.06
,-9.067,0.507,-3.848,-8.909,-0.302,-3.238,15.4,13.44,9.38
,-8.837,0.9,-3.92,-9.057,-0.553,-3.357,11.83,13.02,8.12
29454.0,-8.926,-0.66,-3.905,-8.748,0.536,-4.259,5.39,18.9,5.88
,-8.768,-0.613,-4.001,-8.811,0.749,-4.537,6.23,18.41,6.72
,-8.698,-0.311,-4.494,-8.835,0.713,-4.609,7.63,17.71,7.63
,-8.449,-0.007,-4.365,-8.715,0.299,-4.468,9.1,18.48,7.77
29530.0,-8.476,-0.23,-4.149,-8.949,0.005,-4.958,0.98,23.73,3.71
,-8.545,-0.431,-3.716,-8.404,-0.11,-4.829,3.15,25.41,4.13
,-8.923,-0.108,-4.216,-8.102,-0.361,-4.58,6.23,23.87,3.57
,-9.043,-0.01,-4.484,-8.114,-0.488,-4.836,7.49,21.35,2.87
29606.0,-8.375,-0.404,-4.927,-8.686,0.723,-5.719,5.74,21.07,5.11
,-8.571,-0.11,-5.444,-8.603,0.715,-5.382,8.68,18.83,5.04
,-8.497,0.309,-5.872,-8.504,0.771,-5.315,10.01,17.36,4.2
,-8.593,0.677,-5.798,-8.296,0.603,-5.327,9.17,17.36,2.66
29681.0,-8.193,0.33,-5.432,-8.794,-1.627,-5.284,-0.28,17.57,-4.34
,-8.306,-0.325,-5.087,-8.488,-1.314,-5.607,-1.19,19.67,-3.22
,-8.638,-0.964,-4.604,-8.325,-0.859,-5.604,-1.05,20.65,-1.68
,-8.854,-1.56,-4.786,-7.966,-0.447,-5.937,0.42,19.32,0.49
29757.0,-7.935,-0.17,-5.822,-8.524,0.124,-5.116,13.86,13.09,6.3
,-8.136,0.074,-5.776,-8.428,-0.416,-4.824,13.51,13.16,5.32
,-8.361,0.242,-5.587,-8.282,-0.864,-4.795,12.11,12.18,4.13
,-8.564,0.261,-5.312,-8.361,-0.617,-5.018,9.45,12.6,3.22
29832.0,-8.454,-0.189,-5.312,-8.466,1.022,-5.824,16.94,12.04,6.65
,-8.564,0.144,-5.516,-8.162,1.065,-5.753,20.58,10.78,5.88
,-8.648,0.57,-5.611,-8.313,0.859,-5.456,21.98,10.08,4.2
,-8.713,0.864,-5.714,-8.203,0.785,-5.444,22.82,9.24,2.52
29908.0,-8.413,0.799,-5.547,-7.834,1.335,-6.559,23.66,8.82,-5.53
,-8.483,0.902,-5.748,-8.246,1.163,-6.394,21.98,8.47,-5.04
,-8.27,1.201,-6.068,-8.555,0.797,-6.111,20.93,7.14,-6.93
,-8.349,1.385,-6.47,-8.514,0.273,-6.207,20.79,5.81,-9.03
29984.0,-8.54,-1.017,-5.757,-8.028,-2.233,-6.437,1.54,4.69,-10.36
,-8.689,-1.945,-5.7,-8.055,-2.338,-6.525,3.01,2.52,-10.78
,-8.04,-2.187,-5.987,-8.363,-2.544,-6.368,8.05,1.82,-11.13
,-7.995,-2.393,-6.059,-8.112,-2.979,-5.966,12.11,1.82,-9.8
30060.0,-8.09,-2.989,-5.922,-8.248,-0.692,-5.805,10.99,-4.48,4.48
,-8.234,-2.283,-5.999,-8.368,-0.704,-5.899,14.35,-6.3,7.42
,-8.131,-1.768,-5.934,-8.208,0.074,-5.963,16.24,-6.09,9.59
,-8.009,-1.29,-5.827,-8.129,0.201,-5.925,16.94,-5.46,10.57
30135.0,-8.21,0.483,-5.98,-8.933,-0.546,-4.994,13.79,-8.33,9.45
,-8.349,0.763,-5.942,-8.519,-0.553,-5.181,11.76,-7.98,8.47
,-8.471,0.471,-5.683,-7.76,-0.775,-5.353,8.12,-6.02,7.42
,-8.737,0.01,-5.372,-8.026,-0.995,-5.219,4.62,-4.06,6.79
30211.0,-8.291,-0.615,-5.473,-8.021,0.158,-5.662,-1.12,2.03,5.67
,-8.337,-0.357,-5.709,-7.966,0.026,-5.516,-2.31,3.01,5.81
,-8.48,-0.156,-5.676,-8.186,0.096,-5.437,-4.13,3.78,5.95
,-8.37,0.093,-5.645,-8.397,0.45,-5.398,-7.28,2.45,5.88
30287.0,-8.495,0.756,-5.396,-8.557,1.244,-5.346,-14.14,4.34,3.57
,-8.418,0.455,-5.159,-8.612,0.797,-5.188,-16.52,5.32,2.03
,-8.425,0.668,-5.061,-8.591,0.309,-4.932,-14.91,6.09,-0.28
,-8.413,1.098,-5.296,-8.287,0.0,-5.011,-13.3,6.23,-2.8
30363.0,-8.306,-0.199,-4.843,-8.646,-1.438,-5.75,-17.99,8.75,-4.55
,-8.272,-0.096,-5.188,-8.483,-1.931,-5.583,-16.94,8.12,-5.11
,-8.318,-0.345,-5.585,-8.246,-1.969,-5.805,-16.73,7.42,-5.39
,-8.382,-1.055,-5.659,-7.999,-1.658,-5.796,-17.22,7.49,-4.13
30438.0,-8.069,-1.098,-6.037,-8.315,-0.83,-6.068,-3.22,7.14,5.11
,-8.138,-0.775,-6.317,-8.361,-0.828,-5.951,-3.01,6.44,6.16
,-8.344,-0.869,-6.269,-8.21,-1.086,-5.786,-5.04,6.58,7.91
,-8.325,-0.995,-5.968,-8.272,-1.034,-5.712,-6.09,7.21,9.87
30514.0,-8.191,-0.641,-6.037,-8.344,0.711,-6.011,0.35,3.5,13.16
,-8.153,-0.407,-6.159,-8.299,0.771,-6.104,1.68,2.66,14.0
,-8.131,0.211,-6.322,-8.323,0.749,-6.281,3.78,1.68,13.58
,-8.366,0.567,-6.286,-8.662,0.72,-6.36,3.57,0.84,12.18
30590.0,-8.887,0.773,-6.267,-7.731,0.61,-5.954,0.56,1.82,6.65
,-8.701,0.601,-6.111,-7.528,0.658,-6.303,1.47,1.54,5.04
,-8.452,0.409,-5.956,-8.208,0.369,-6.013,3.64,1.19,3.01
,-8.179,0.56,-5.717,-8.459,0.404,-5.994,6.3,0.84,1.47
30665.0,-8.088,0.29,-6.126,-7.844,-0.263,-6.257,2.31,-12.11,-3.71
,-7.988,0.132,-6.257,-8.119,-0.196,-6.272,0.14,-12.32,-3.43
,-7.619,-0.158,-6.269,-8.413,-0.072,-6.14,-1.47,-11.06,-3.08
,-7.667,-0.323,-6.224,-8.811,-0.194,-5.994,-1.12,-10.22,-2.31
30741.0,-8.368,-0.096,-5.858,-8.004,0.29,-5.877,8.26,-12.39,1.47
,-8.404,-0.215,-5.901,-8.088,0.316,-5.695,10.85,-12.46,1.61
,-8.069,-0.184,-5.942,-8.392,0.299,-5.42,11.48,-14.0,1.26
,-7.952,0.045,-5.839,-8.378,0.251,-5.379,11.97,-15.47,1.96
30817.0,-8.495,0.079,-5.147,-8.416,0.498,-4.946,4.41,-19.6,-0.56
,-8.435,0.203,-5.2,-8.375,0.23,-4.944,5.53,-20.23,-1.05
,-8.447,0.388,-5.238,-8.394,-0.055,-4.996,5.95,-21.28,-1.54
,-8.509,0.524,-5.159,-8.337,-0.246,-4.834,4.69,-22.33,-2.03
30893.0,-8.21,-0.318,-4.736,-8.825,0.5,-4.25,5.53,-21.84,-4.9
,-8.358,-0.225,-4.647,-8.796,0.483,-4.145,8.05,-21.84,-4.9
,-8.559,0.151,-4.604,-8.835,0.369,-4.185,8.96,-21.77,-4.62
,-8.813,0.352,-4.343,-8.679,0.06,-4.29,8.82,-21.35,-3.85
30968.0,-8.658,-0.385,-4.831,-8.679,-0.069,-4.154,1.4,-21.0,-6.72
,-8.658,-0.749,-4.697,-8.77,0.136,-4.159,3.22,-21.28,-5.95
,-8.574,-0.804,-4.228,-9.072,0.359,-4.18,9.17,-20.65,-3.78
,-8.588,-0.548,-4.288,-9.268,0.419,-4.3,15.05,-20.3,-2.8
31044.0,-8.969,0.311,-4.068,-8.55,-0.218,-3.764,5.95,-20.65,-6.51
,-8.894,0.148,-3.743,-8.543,-0.39,-3.577,3.36,-20.23,-7.84
,-8.849,0.002,-3.982,-8.839,-0.507,-3.592,2.17,-20.23,-9.87
,-8.871,-0.168,-4.118,-9.045,-0.598,-3.278,1.4,-20.58,-10.92
31120.0,-9.074,-0.45,-3.108,-9.086,-0.206,-3.235,10.15,-16.31,-7.42
,-9.256,-0.199,-3.4,-9.057,-0.275,-2.974,9.8,-15.96,-8.26
,-9.225,-0.218,-3.396,-9.033,-0.481,-3.238,6.93,-15.68,-8.47
,-9.033,-0.182,-2.927,-9.076,-0.625,-3.171,4.97,-14.63,-7.77
31196.0,-9.024,-0.916,-2.881,-9.241,-0.656,-2.895,-2.66,-8.96,-8.68
,-8.973,-1.273,-2.747,-9.134,-0.421,-2.85,-0.49,-7.07,-7.07
,-9.1,-1.271,-2.462,-9.093,-0.345,-3.053,3.22,-5.11,-5.39
,-9.395,-1.031,-2.9,-9.074,-0.558,-2.948,6.65,-3.5,-4.27
31271.0,-9.43,-0.598,-3.257,-8.945,-0.656,-4.468,3.71,1.96,-3.43
,-9.296,-0.692,-3.582,-8.67,-0.751,-4.374,3.5,2.38,-3.92
,-9.313,-0.701,-3.848,-8.622,-0.766,-4.058,2.17,2.45,-4.55
,-9.189,-0.68,-4.18,-8.78,-0.641,-3.764,1.75,2.38,-4.48
31347.0,-9.177,-0.529,-3.714,-8.777,-0.814,-3.738,4.06,3.08,-2.94
,-9.39,-0.392,-3.642,-8.768,-1.05,-3.637,1.54,2.8,-3.43
,-9.292,-0.407,-3.522,-8.964,-1.177,-3.534,-2.03,2.45,-3.5
,-9.177,-0.474,-3.915,-9.182,-1.079,-3.408,-5.25,2.45,-3.99
31422.0,-9.318,-0.665,-3.654,-9.208,-0.706,-4.216,3.22,5.18,0.07
,-9.208,-0.481,-3.707,-8.916,-0.503,-4.42,2.17,5.25,-0.21
,-9.074,-0.522,-3.824,-8.882,-0.433,-4.362,-0.07,5.46,-0.35
,-9.146,-0.701,-3.912,-8.923,-0.581,-4.14,-1.54,5.74,-0.7
31498.0,-8.957,-0.732,-3.891,-9.143,-0.622,-3.989,-0.7,4.97,-0.77
,-9.069,-0.732,-3.723,-9.055,-0.768,-4.032,0.63,5.18,-0.42
,-9.098,-0.675,-3.613,-8.942,-0.945,-4.082,1.54,5.32,-0.07
,-9.117,-0.512,-3.869,-8.993,-0.96,-4.221,1.54,5.39,-0.14
31574.0,-8.942,-0.785,-4.231,-8.914,-0.412,-4.535,4.2,4.97,0.49
,-9.014,-0.488,-4.156,-8.725,-0.414,-4.539,5.46,5.04,0.56
,-9.201,-0.402,-4.204,-8.818,-0.79,-4.482,4.76,4.62,0.35
,-9.203,-0.474,-4.405,-8.892,-0.94,-4.41,2.87,3.92,-0.21
31650.0,-8.873,-0.696,-4.3,-8.813,-0.572,-4.681,-0.21,2.1,0.42
,-9.021,-0.285,-4.391,-8.746,-0.651,-4.628,-0.35,1.54,0.14
,-9.088,-0.244,-4.456,-8.832,-0.821,-4.417,-2.94,0.56,-0.35
,-8.966,-0.359,-4.592,-8.935,-0.804,-4.269,-4.97,0.0,-0.42
31726.0,-9.028,-0.689,-3.972,-9.141,-0.574,-3.757,-0.49,-1.61,1.05
,-9.098,-0.653,-3.798,-9.136,-0.689,-3.843,-0.49,-1.54,1.12
,-9.155,-0.66,-3.616,-9.045,-0.814,-3.786,-0.49,-1.4,1.26
,-9.196,-0.565,-3.687,-9.007,-0.818,-3.754,-0.42,-0.98,1.12
31801.0,-9.036,-0.696,-3.757,-8.971,-0.431,-4.128,4.69,0.91,2.45
,-9.098,-0.505,-3.778,-8.897,-0.593,-4.24,5.6,1.12,2.38
,-9.107,-0.38,-3.948,-8.854,-0.653,-4.283,5.25,1.19,2.1
,-9.057,-0.349,-4.046,-8.918,-0.617,-4.235,4.34,1.19,1.75
31877.0,-9.081,-0.479,-4.19,-9.005,-0.44,-4.054,5.46,0.7,1.68
,-9.069,-0.433,-4.231,-8.949,-0.586,-3.97,4.97,0.63,1.61
,-9.036,-0.38,-4.061,-9.019,-0.617,-3.908,3.78,0.42,1.61
,-9.11,-0.323,-4.116,-9.069,-0.713,-3.898,2.73,0.28,1.33
31953.0,-8.961,-0.711,-3.826,-9.217,-0.402,-4.082,3.57,1.05,1.96
,-8.997,-0.696,-3.743,-9.148,-0.44,-4.078,4.2,1.54,2.1
,-9.021,-0.62,-3.683,-9.124,-0.476,-4.022,4.41,1.96,1.89
,-9.045,-0.383,-3.872,-9.026,-0.546,-3.953,4.2,2.31,1.68
32029.0,-9.016,-0.613,-4.027,-8.911,-0.534,-4.346,2.17,1.75,1.12
,-9.079,-0.505,-4.166,-8.89,-0.627,-4.324,3.57,1.47,1.19
,-9.062,-0.467,-4.252,-8.976,-0.644,-4.305,3.71,1.26,1.19
,-9.043,-0.445,-4.338,-8.985,-0.55,-4.264,3.29,0.84,0.98
32104.0,-9.026,-0.507,-4.255,-8.964,-0.637,-3.948,3.85,-0.42,0.77
,-9.012,-0.428,-4.228,-9.107,-0.579,-3.92,3.29,-0.7,0.63
,-8.942,-0.498,-4.154,-9.129,-0.627,-3.805,2.24,-1.05,0.42
,-8.911,-0.608,-4.022,-9.057,-0.637,-3.644,1.68,-1.05,0.35
32180.0,-9.014,-0.66,-3.458,-9.16,-0.567,-4.171,1.33,0.14,0.7
,-9.093,-0.629,-3.498,-9.103,-0.735,-4.255,0.91,0.63,0.49
,-9.153,-0.625,-3.676,-8.978,-0.804,-4.209,0.14,0.91,0.21
,-9.16,-0.567,-3.912,-8.89,-0.78,-4.298,-1.05,0.98,0.07
32255.0,-8.892,-0.694,-4.338,-9.057,-0.524,-3.821,0.63,0.0,0.28
,-8.942,-0.57,-4.283,-9.005,-0.593,-3.683,2.1,-0.07,0.84
,-9.009,-0.507,-4.049,-9.112,-0.596,-3.64,2.52,-0.14,1.33
,-9.1,-0.479,-4.039,-9.174,-0.613,-3.63,2.31,-0.14,1.54
32331.0,-9.131,-0.57,-3.769,-9.002,-0.723,-3.738,0.56,0.77,2.24
,-9.141,-0.536,-3.819,-9.033,-0.584,-3.798,-0.84,1.12,2.31
,-9.06,-0.598,-3.814,-9.064,-0.373,-3.975,-2.24,1.47,2.52
,-9.002,-0.727,-3.721,-9.06,-0.304,-4.109,-3.01,1.82,2.8
32407.0,-9.182,-0.436,-4.396,-9.076,-0.785,-3.443,-3.57,1.19,1.89
,-8.902,-0.625,-4.188,-9.45,-0.718,-3.391,-5.04,0.42,1.75
,-8.827,-0.656,-3.927,-9.301,-0.103,-3.415,-4.76,0.28,2.31
,-8.892,-0.694,-3.723,-9.189,0.388,-3.465,-4.2,0.84,2.52
32483.0,-9.136,0.627,-3.697,-9.162,-0.759,-3.123,-18.9,1.12,-2.73
,-8.918,0.17,-3.632,-9.244,-0.369,-3.501,-24.5,2.73,-3.71
,-8.868,-0.395,-3.477,-9.134,-0.11,-3.735,-25.97,4.55,-3.36
,-8.949,-0.747,-3.269,-8.971,-0.184,-3.891,-24.64,5.81,-2.8
32558.0,-8.744,-0.981,-3.776,-8.875,-1.094,-3.613,-24.92,7.77,-1.75
,-8.744,-1.785,-3.953,-8.973,-0.778,-3.041,-22.89,8.61,0.21
,-8.629,-2.166,-3.623,-9.1,-0.366,-3.111,-15.12,9.1,3.22
,-8.794,-1.677,-3.845,-9.201,-0.007,-2.302,-4.97,8.68,5.53
32634.0,-9.538,0.972,-3.623,-8.574,-0.512,-3.403,11.76,12.95,9.31
,-9.182,1.543,-4.176,-8.993,-0.562,-4.022,5.11,11.06,6.93
,-8.978,1.376,-4.338,-8.839,-0.127,-4.413,-3.5,10.78,5.39
,-8.586,0.433,-4.235,-8.959,0.57,-4.29,-9.8,13.3,4.27
32710.0,-9.17,1.007,-4.523,-8.222,-2.314,-4.331,4.83,12.04,1.68
,-9.074,0.672,-4.319,-8.684,-2.264,-4.501,-1.61,13.23,-0.35
,-8.739,-0.318,-4.334,-8.763,-1.651,-4.439,-6.44,15.68,-0.63
,-8.337,-1.508,-4.401,-8.698,-0.84,-3.872,-6.93,17.64,0.49
32786.0,-9.091,0.151,-3.716,-8.327,0.103,-4.74,21.0,19.18,10.36
,-9.196,0.751,-4.29,-8.181,-0.172,-4.178,16.38,16.94,7.91
,-9.136,0.768,-4.539,-8.54,-0.091,-4.235,8.68,14.98,6.79
,-8.789,0.572,-4.81,-8.873,0.306,-4.475,2.73,14.35,6.37
32862.0,-8.945,0.9,-5.147,-8.614,-0.019,-5.195,14.77,15.12,3.85
,-8.823,1.173,-5.561,-8.416,-0.838,-5.296,13.86,14.42,2.94
,-8.698,1.01,-5.537,-8.514,-1.139,-5.169,10.01,15.19,2.1
,-8.629,0.641,-5.341,-8.734,-1.094,-4.846,6.09,16.59,1.47
32937.0,-8.746,-0.675,-4.401,-8.469,0.613,-5.475,12.11,16.52,2.66
,-8.634,-0.06,-4.594,-8.66,0.727,-5.564,13.65,16.52,2.17
,-8.672,0.357,-4.925,-8.772,0.57,-5.465,12.88,15.05,1.82
,-8.569,0.546,-5.413,-8.665,0.342,-5.36,11.34,13.3,1.96
33013.0,-8.459,-0.349,-5.178,-8.796,-1.134,-4.53,7.0,12.6,1.61
,-8.433,-1.151,-4.917,-8.756,-0.105,-4.882,6.86,12.11,2.1
,-8.39,-1.586,-4.628,-8.648,0.555,-5.269,9.1,12.04,3.57
,-8.344,-1.773,-4.592,-8.612,0.876,-5.564,11.76,12.46,4.97
33088.0,-8.136,0.974,-5.64,-8.648,-1.362,-4.879,5.95,3.43,0.7
,-7.882,0.562,-5.788,-8.497,-1.266,-4.829,-1.61,4.41,0.0
,-8.081,-0.115,-5.461,-8.282,-1.173,-4.937,-7.56,5.46,-0.35
,-8.509,-1.039,-5.027,-8.217,-0.89,-5.24,-8.61,5.67,-0.35
33164.0,-8.502,-0.285,-5.123,-8.571,1.589,-5.238,15.26,4.69,4.2
,-8.928,0.589,-5.15,-8.074,0.864,-5.099,18.76,3.71,3.22
,-9.134,1.285,-5.322,-8.136,-0.05,-4.743,19.32,2.73,1.54
,-9.055,1.598,-5.114,-8.447,-0.931,-4.724,16.17,1.54,-0.84
33240.0,-8.638,-1.682,-4.831,-8.114,0.177,-5.793,5.18,7.91,-0.84
,-8.454,-2.048,-5.123,-7.997,0.644,-5.81,14.28,7.21,-0.77
,-8.416,-1.455,-5.427,-8.466,0.885,-5.891,22.47,5.18,-1.89
,-8.33,-0.601,-5.686,-8.971,0.622,-5.894,28.49,3.78,-1.75
33316.0,-8.835,0.347,-5.858,-7.813,-1.814,-5.906,12.46,2.38,-4.97
,-8.768,0.254,-6.013,-8.186,-2.536,-5.784,9.24,2.45,-6.3
,-8.332,-0.251,-6.186,-8.464,-2.637,-5.485,5.67,3.08,-5.46
,-7.827,-0.948,-5.798,-8.684,-2.209,-5.803,3.99,4.06,-3.15
33391.0,-8.796,-1.582,-5.669,-8.162,-0.773,-5.346,23.87,-1.89,3.78
,-9.179,-1.084,-5.315,-7.954,-0.969,-5.456,23.87,-3.15,2.8
,-9.091,-0.62,-5.264,-7.638,-1.108,-5.635,20.51,-5.25,2.1
,-8.591,-0.543,-5.537,-7.873,-1.184,-5.516,15.33,-5.67,2.8
33467.0,-8.004,-0.969,-5.111,-8.947,0.771,-5.229,15.75,-4.48,13.02
,-8.366,-0.479,-5.288,-8.583,0.833,-5.238,18.48,-5.04,13.44
,-8.811,0.124,-5.288,-8.547,0.861,-5.372,20.3,-5.95,12.32
,-9.069,0.538,-5.226,-8.799,0.751,-5.425,19.95,-6.44,10.99
33542.0,-8.521,0.321,-5.334,-8.526,-0.993,-4.92,5.53,-0.77,3.43
,-8.205,-0.275,-5.262,-8.547,-0.921,-4.759,1.96,0.42,3.29
,-8.186,-0.857,-5.068,-8.471,-0.859,-4.719,-0.07,1.19,3.22
,-8.313,-0.924,-5.044,-8.399,-0.419,-4.815,-0.77,1.89,3.08
33618.0,-8.425,0.148,-5.025,-8.638,-0.558,-4.87,-3.64,5.81,3.99
,-8.543,0.491,-5.269,-8.65,-0.711,-4.791,-6.65,6.16,3.92
,-8.595,0.316,-5.303,-8.54,-0.421,-4.91,-10.01,7.0,3.92
,-8.569,-0.041,-5.3,-8.232,-0.065,-5.257,-11.9,8.33,4.27
33694.0,-8.449,0.495,-5.631,-8.574,0.285,-5.396,-6.72,8.4,3.36
,-8.701,0.957,-5.913,-8.607,0.084,-5.221,-7.49,7.63,2.66
,-8.739,0.991,-6.016,-8.5,-0.139,-5.272,-10.57,7.7,2.1
,-8.677,0.526,-5.681,-8.588,-0.646,-5.264,-14.84,9.38,1.47
33770.0,-8.76,-1.263,-4.989,-8.22,-0.632,-5.721,-17.01,10.29,1.19
,-8.476,-1.213,-5.095,-8.406,-0.498,-6.035,-13.37,8.33,2.59
,-8.411,-0.842,-5.611,-8.536,-0.668,-5.918,-9.87,6.93,3.99
,-8.198,-0.692,-5.626,-8.44,-0.73,-5.76,-9.59,6.72,5.25
33846.0,-8.394,-0.687,-5.657,-8.062,0.407,-5.872,-13.23,5.67,8.96
,-8.399,-0.809,-5.693,-7.952,0.22,-5.839,-12.46,7.35,9.59
,-8.909,-0.34,-5.453,-8.136,-0.089,-5.889,-10.5,5.74,9.17
,-8.531,0.311,-5.834,-8.519,-0.246,-5.906,-7.0,1.61,7.49
33921.0,-8.658,-0.311,-6.016,-8.203,-0.12,-6.068,-3.22,-0.14,4.97
,-8.473,-0.151,-6.042,-8.088,-0.144,-6.04,0.7,-1.05,4.41
,-8.351,-0.01,-5.75,-8.141,-0.251,-5.755,3.22,-1.26,3.29
,-8.232,-0.148,-5.918,-8.272,-0.294,-5.626,4.48,-1.96,2.52
33997.0,-8.552,-0.218,-5.602,-8.133,0.007,-5.7,7.49,-5.39,4.2
,-8.756,0.086,-5.604,-8.071,0.144,-5.69,8.89,-6.44,4.13
,-8.787,0.098,-5.654,-8.043,0.273,-5.69,8.33,-7.7,4.34
,-8.342,0.069,-5.702,-8.234,0.433,-5.642,6.79,-8.54,4.9
34073.0,-8.368,0.567,-5.346,-8.603,-0.053,-5.111,9.94,-12.67,3.64
,-8.26,-0.165,-4.999,-8.579,0.057,-5.097,5.81,-12.74,3.71
,-8.521,-0.373,-4.724,-8.576,0.266,-5.09,4.13,-12.25,3.92
,-8.552,-0.304,-4.946,-8.512,0.577,-5.154,6.65,-12.81,3.64
34149.0,-8.512,0.601,-5.001,-8.689,0.385,-4.714,8.19,-15.19,2.38
,-8.574,0.684,-4.956,-8.605,0.512,-4.776,5.25,-15.33,2.38
,-8.495,0.51,-4.846,-8.507,0.514,-4.645,2.94,-15.61,1.68
,-8.586,0.33,-4.599,-8.449,0.543,-4.496,1.96,-15.26,0.56
34224.0,-8.729,0.498,-4.499,-8.54,-0.077,-4.307,-0.98,-15.68,-4.62
,-8.942,0.371,-4.386,-8.524,-0.479,-4.238,-1.96,-15.96,-5.95
,-8.947,0.337,-4.432,-8.612,-0.584,-4.032,-2.94,-16.1,-6.3
,-8.775,0.239,-4.346,-8.66,-0.517,-3.92,-4.2,-15.89,-6.44
34300.0,-8.885,-0.44,-3.977,-8.6,0.469,-4.386,-0.28,-13.86,-5.11
,-8.949,-0.251,-4.02,-8.619,0.443,-4.295,0.49,-13.37,-4.34
,-8.88,0.148,-4.104,-8.782,0.115,-4.295,1.33,-13.16,-4.34
,-8.76,0.436,-4.334,-8.844,0.043,-4.202,0.42,-13.37,-5.04
34375.0,-8.806,-0.122,-3.979,-8.696,-0.065,-3.987,-0.35,-10.78,-6.09
,-8.995,0.072,-4.08,-8.859,-0.452,-3.903,1.26,-10.71,-6.58
,-8.902,0.213,-4.044,-8.93,-0.775,-3.618,1.54,-10.78,-7.0
,-8.751,0.17,-4.089,-9.105,-0.735,-3.807,0.28,-10.57,-6.93
34451.0,-9.098,-0.227,-4.051,-9.016,-0.287,-3.199,7.0,-7.56,-4.55
,-8.973,0.194,-4.068,-9.203,-0.148,-3.3,7.63,-7.84,-3.92
,-8.849,0.184,-3.879,-9.086,0.184,-3.29,5.18,-7.28,-3.01
,-8.906,-0.084,-3.647,-9.043,0.39,-3.865,3.64,-6.23,-3.64
34527.0,-8.969,0.402,-3.886,-9.067,-0.337,-3.151,-0.14,-3.5,-5.81
,-8.859,0.136,-3.666,-9.072,-0.036,-3.202,-1.4,-2.59,-5.11
,-8.978,-0.313,-3.467,-9.16,0.141,-3.446,0.0,-1.26,-5.18
,-9.191,-0.51,-3.333,-9.174,0.232,-3.678,2.52,0.07,-5.67
34603.0,-9.012,-0.024,-3.604,-8.945,-0.433,-3.821,-8.4,3.71,-8.47
,-9.021,-0.459,-3.592,-9.052,-0.072,-4.101,-9.52,4.97,-8.75
,-8.964,-0.732,-3.766,-9.002,0.055,-4.19,-7.77,5.67,-8.61
,-8.985,-0.749,-3.819,-8.878,-0.194,-4.243,-4.97,6.02,-8.12
34678.0,-8.837,-0.459,-3.922,-8.748,-0.242,-4.401,-7.98,7.98,-7.42
,-8.947,-0.493,-4.185,-8.746,-0.158,-4.85,-6.44,7.98,-7.28
,-8.875,-0.459,-4.24,-8.581,-0.223,-4.884,-5.74,8.05,-7.21
,-8.715,-0.285,-4.448,-8.524,-0.311,-4.941,-4.55,8.26,-6.44
34754.0,-8.775,-0.445,-5.3,-8.93,-0.66,-4.697,-3.92,5.18,-4.76
,-8.823,-0.866,-5.016,-8.964,-0.538,-4.515,-3.29,3.99,-4.13
,-8.741,-0.94,-4.905,-8.906,-0.376,-4.491,-1.19,3.15,-3.43
,-8.756,-0.794,-4.769,-8.904,-0.514,-4.31,0.91,2.87,-2.94
34830.0,-8.935,-0.89,-4.173,-8.839,-0.153,-4.697,-2.8,1.82,-1.61
,-8.916,-1.077,-4.121,-8.703,-0.311,-4.614,-0.63,2.24,-0.7
,-9.009,-0.902,-4.128,-8.725,-0.56,-4.537,3.01,2.17,0.21
,-9.009,-0.476,-4.386,-8.82,-0.522,-4.381,5.6,2.24,0.91
34906.0,-8.973,-0.347,-4.482,-8.732,-0.421,-4.786,7.63,1.47,1.54
,-8.981,-0.187,-4.604,-8.614,-0.66,-4.678,7.07,1.12,1.19
,-8.792,-0.148,-4.611,-8.708,-0.615,-4.47,5.88,0.77,1.12
,-8.741,-0.28,-4.728,-8.966,-0.337,-4.556,5.74,0.56,1.05
34982.0,-9.203,-0.23,-4.539,-8.67,-0.345,-4.48,18.13,-1.12,2.94
,-9.213,-0.115,-4.436,-8.729,-0.476,-4.446,17.22,-1.54,2.1
,-9.131,0.191,-4.606,-8.804,-0.455,-4.245,14.63,-2.1,0.91
,-8.839,-0.036,-4.7,-8.796,-0.122,-4.025,9.52,-2.52,-0.28
35057.0,-8.911,0.084,-3.862,-9.284,-0.538,-3.561,-1.47,-1.96,-2.52
,-9.072,-0.055,-3.699,-9.174,-0.704,-3.592,-5.74,-1.26,-3.22
,-9.107,-0.213,-3.558,-9.153,-0.66,-3.776,-9.1,-0.49,-3.92
,-9.172,-0.438,-3.422,-9.014,-0.653,-4.063,-11.55,0.42,-4.06
35133.0,-8.882,-0.519,-4.154,-8.607,-0.373,-4.657,-15.61,4.34,-4.48
,-8.748,-0.419,-4.334,-8.708,-0.431,-4.759,-15.19,4.55,-4.41
,-8.768,-0.371,-4.659,-8.83,-0.378,-4.941,-14.91,4.41,-4.55
,-8.662,-0.385,-4.841,-8.859,-0.294,-5.018,-13.86,3.99,-4.27
35208.0,-8.837,-0.467,-5.032,-8.837,-0.376,-4.556,-3.99,0.42,-1.26
,-8.856,-0.761,-4.972,-8.89,-0.627,-4.429,-2.03,-0.07,-0.42
,-8.916,-0.854,-4.886,-8.878,-0.806,-4.401,1.75,-0.77,0.21
,-8.827,-0.514,-4.74,-8.851,-0.658,-4.329,4.2,-1.47,0.35
35284.0,-8.835,-0.536,-4.326,-8.894,-0.412,-4.049,2.73,-2.03,0.63
,-8.792,-0.438,-4.202,-9.014,-0.39,-4.042,3.01,-1.89,1.12
,-8.904,-0.328,-4.276,-9.038,-0.297,-4.166,2.87,-1.82,1.33
,-8.904,-0.349,-4.135,-9.028,-0.266,-4.322,1.96,-1.61,1.4
35360.0,-8.961,-0.273,-4.434,-8.916,-0.273,-4.415,-2.38,-0.63,0.49
,-8.887,-0.318,-4.472,-8.926,-0.215,-4.367,-3.15,-0.91,0.49
,-8.832,-0.395,-4.561,-8.914,-0.321,-4.216,-2.66,-0.98,0.77
,-8.82,-0.366,-4.456,-8.916,-0.376,-4.137,-1.12,-1.19,1.4
35436.0,-8.964,-0.562,-4.154,-8.851,-0.318,-4.398,2.66,-1.82,3.01
,-9.016,-0.581,-4.343,-8.916,-0.242,-4.298,4.34,-1.89,3.29
,-8.909,-0.577,-4.424,-8.973,-0.16,-4.228,6.23,-2.03,3.71
,-8.765,-0.447,-4.413,-9.062,0.043,-4.082,7.7,-1.89,4.2
35511.0,-9.062,0.036,-4.125,-8.923,-0.706,-4.133,8.26,-2.17,4.34
,-8.938,-0.29,-4.075,-9.04,-0.658,-4.185,5.81,-2.03,3.78
,-8.938,-0.433,-4.116,-9.062,-0.57,-4.113,5.18,-2.31,3.29
,-8.906,-0.562,-4.118,-9.031,-0.505,-4.156,4.69,-2.17,2.8
35587.0,-8.961,-0.357,-4.011,-8.928,-0.069,-4.42,7.56,-1.26,3.43
,-9.045,-0.146,-4.178,-8.902,-0.148,-4.341,7.84,-1.4,3.22
,-9.06,0.007,-4.293,-8.947,-0.242,-4.247,7.7,-1.75,3.01
,-8.957,0.098,-4.362,-8.985,-0.357,-4.223,6.86,-2.1,2.87
35663.0,-8.945,-0.385,-4.018,-9.076,-0.223,-3.922,6.93,-2.73,3.01
,-8.954,-0.474,-3.929,-9.079,-0.122,-3.85,7.21,-2.73,2.94
,-9.016,-0.4,-3.9,-9.119,-0.165,-3.812,7.42,-2.59,2.8
,-9.045,-0.323,-3.85,-9.127,-0.141,-3.774,7.84,-2.17,2.87
35739.0,-9.098,-0.189,-3.9,-8.94,-0.45,-3.886,6.37,-0.84,2.03
,-9.009,-0.048,-3.975,-9.007,-0.359,-3.807,6.37,-0.91,1.61
,-8.969,-0.089,-4.075,-9.11,-0.242,-3.766,5.25,-0.77,1.26
,-8.926,-0.318,-4.042,-9.067,-0.232,-3.568,4.2,-0.49,1.05
35815.0,-9.052,-0.27,-3.441,-8.875,-0.615,-3.362,4.2,1.68,1.75
,-9.107,-0.309,-3.467,-9.055,-0.56,-3.221,4.13,2.38,1.82
,-9.076,-0.421,-3.525,-9.17,-0.235,-3.436,4.34,3.22,2.17
,-8.897,-0.491,-3.494,-9.416,-0.014,-3.879,4.97,4.27,2.73
35890.0,-9.256,0.057,-4.25,-8.938,-0.605,-3.735,2.03,5.67,-0.14
,-8.988,-0.098,-4.216,-9.186,-0.672,-3.695,-3.78,4.55,-1.68
,-8.708,-0.215,-4.003,-9.416,-0.45,-4.073,-7.56,4.06,-1.82
,-8.746,-0.342,-3.853,-9.241,-0.258,-4.13,-8.05,4.69,-1.19
35966.0,-9.139,-0.043,-4.451,-8.959,-0.124,-4.841,-8.47,2.66,-1.19
,-8.825,0.062,-4.81,-8.959,0.297,-4.934,-11.9,1.47,-1.68
,-8.547,-0.189,-4.87,-8.971,0.558,-4.551,-13.65,1.54,-1.54
,-8.626,-0.316,-4.683,-9.11,0.766,-4.937,-11.9,2.03,-1.4
36041.0,-8.878,0.428,-4.848,-9.213,-0.699,-3.369,-23.38,-4.2,-5.46
,-8.76,-0.055,-4.712,-9.141,-1.027,-2.946,-26.18,-4.34,-5.32
,-8.598,-0.584,-4.247,-9.28,-1.144,-2.57,-24.64,-3.08,-4.62
,-9.0,-0.751,-3.771,-9.354,-0.962,-3.297,-19.46,-1.68,-3.5
36117.0,-8.806,-0.878,-3.331,-8.631,-1.385,-3.886,-1.68,5.67,1.96
,-8.832,-0.732,-3.527,-8.375,-1.874,-3.46,1.61,5.46,3.43
,-8.729,-0.696,-3.946,-8.459,-2.209,-2.692,2.66,5.18,4.2
,-8.751,-0.909,-3.589,-8.476,-1.862,-1.321,4.83,6.93,6.16
36193.0,-9.026,-0.708,-1.876,-9.533,1.254,-5.549,33.67,24.22,14.56
,-9.17,-0.103,-1.969,-8.397,0.045,-5.776,35.49,22.12,14.77
,-9.95,0.735,-3.003,-7.329,-1.323,-4.872,31.78,17.08,15.33
,-10.041,1.464,-4.774,-7.554,-1.61,-4.338,22.19,10.5,13.79
36269.0,-7.813,-0.792,-3.963,-9.837,2.017,-4.764,26.39,22.26,8.89
,-8.66,0.302,-3.649,-9.909,1.268,-5.772,35.77,23.24,7.21
,-9.119,1.405,-3.156,-9.217,0.019,-6.499,36.12,23.87,5.6
,-9.636,2.154,-3.331,-8.299,-1.115,-6.066,29.05,22.26,4.27
36344.0,-7.495,-1.716,-5.554,-9.347,0.479,-5.556,-0.56,15.26,4.48
,-7.339,-1.634,-5.126,-9.143,0.665,-5.396,11.13,17.57,4.55
,-8.129,-0.995,-4.987,-8.859,0.404,-5.166,22.12,17.43,4.9
,-8.882,-0.127,-5.468,-8.607,-0.261,-5.212,26.39,14.77,4.34
36420.0,-8.847,-0.711,-5.303,-8.349,-0.895,-4.673,2.59,10.64,6.09
,-8.789,-0.912,-5.434,-8.603,-0.565,-4.554,6.02,8.47,6.79
,-8.547,-0.869,-5.176,-8.808,-0.172,-4.843,9.45,8.05,7.7
,-8.373,-1.01,-4.901,-8.921,0.136,-4.946,10.64,9.03,9.03
36496.0,-8.885,0.431,-4.927,-8.622,0.916,-4.774,17.71,6.58,9.73
,-8.603,0.78,-5.035,-8.976,1.333,-4.982,16.1,5.6,8.26
,-8.442,0.916,-4.932,-9.052,1.692,-5.389,12.53,5.74,6.44
,-8.378,0.883,-4.999,-8.818,1.795,-5.386,9.94,6.65,4.83
36572.0,-8.385,1.457,-5.367,-8.514,-1.338,-4.525,6.51,4.13,-4.55
,-8.315,0.591,-5.006,-8.612,-1.668,-4.494,2.73,3.71,-6.02
,-8.32,-0.055,-4.886,-8.751,-1.919,-4.432,1.68,3.22,-7.7
,-8.378,-0.811,-4.618,-8.916,-1.685,-4.554,2.66,3.85,-8.19
36647.0,-8.854,-0.706,-5.071,-8.382,0.835,-5.451,25.27,5.11,0.84
,-8.844,0.179,-5.389,-8.074,0.426,-5.626,28.63,3.22,-0.21
,-8.622,0.715,-5.719,-8.031,-0.062,-5.693,27.09,3.15,-2.1
,-8.473,1.094,-5.803,-8.538,-0.854,-5.403,23.94,4.13,-2.52
36723.0,-8.555,-1.433,-5.322,-8.918,-1.366,-5.329,8.33,6.37,-1.61
,-8.689,-1.814,-5.236,-8.737,-1.421,-5.319,11.13,5.53,-0.14
,-8.674,-1.577,-5.355,-8.469,-1.397,-5.224,15.12,5.32,2.38
,-8.634,-1.381,-5.597,-8.327,-1.5,-4.872,17.57,4.83,4.62
36799.0,-8.136,-1.383,-4.934,-8.768,1.665,-5.635,11.06,2.03,10.92
,-8.27,-0.993,-4.934,-8.906,1.926,-5.614,12.32,2.94,12.18
,-8.368,0.005,-5.26,-8.837,1.663,-5.394,14.98,1.96,11.41
,-8.552,1.039,-5.575,-8.679,1.335,-5.281,15.82,1.89,9.59
36874.0,-8.303,0.893,-5.114,-8.741,-0.254,-5.848,-2.03,6.79,-0.7
,-8.344,0.67,-5.176,-8.37,-0.491,-5.779,-2.73,7.84,-1.68
,-8.346,0.474,-5.494,-8.263,-0.775,-5.76,-3.85,8.05,-2.52
,-8.641,0.11,-5.8,-8.464,-0.943,-5.913,-5.39,7.7,-3.15
36950.0,-8.562,-0.84,-6.059,-8.507,-0.715,-5.793,-9.03,7.84,-3.15
,-8.571,-0.711,-6.011,-8.658,-0.84,-5.42,-10.08,7.63,-2.1
,-8.543,-0.653,-5.951,-8.622,-0.436,-5.48,-12.11,7.56,-0.98
,-8.509,-0.78,-5.753,-8.301,-0.141,-5.755,-14.35,7.28,-0.35
37026.0,-8.244,-0.127,-5.678,-8.691,-0.869,-5.549,-14.91,6.3,4.41
,-8.437,-0.201,-5.755,-8.418,-0.771,-5.8,-14.98,6.72,4.55
,-8.701,-0.483,-5.631,-8.155,-0.538,-5.891,-15.05,6.79,4.76
,-8.808,-0.785,-5.568,-8.141,-0.364,-5.961,-14.56,6.72,5.32
37102.0,-8.15,-0.012,-6.056,-8.655,0.232,-5.846,-2.66,0.49,6.16
,-8.32,0.206,-6.135,-8.6,-0.034,-5.776,-2.59,0.07,5.67
,-8.492,0.275,-5.966,-8.588,-0.208,-5.671,-3.5,-0.14,5.53
,-8.562,0.273,-6.025,-8.464,-0.333,-5.736,-4.83,-0.49,5.67
37177.0,-8.334,-0.517,-5.724,-8.1,-0.235,-5.753,0.14,-6.02,3.5
,-8.358,-0.536,-5.784,-8.107,-0.117,-5.683,2.73,-8.05,3.29
,-8.26,-0.476,-5.82,-8.102,-0.122,-5.683,5.11,-10.29,2.8
,-8.172,-0.345,-5.788,-8.212,-0.254,-5.269,5.74,-11.97,2.45
37253.0,-8.421,-0.512,-4.963,-8.794,-0.17,-5.197,3.43,-12.88,5.95
,-8.54,-0.644,-4.843,-8.492,-0.036,-4.915,4.2,-12.74,6.72
,-8.461,-0.323,-5.051,-8.382,0.081,-4.7,6.44,-14.21,8.4
,-8.729,-0.05,-5.456,-8.339,0.273,-4.649,10.01,-14.77,8.61
37329.0,-8.418,0.357,-4.547,-8.859,1.213,-4.468,10.01,-14.49,7.77
,-8.595,0.414,-4.362,-8.753,1.555,-4.69,8.68,-14.35,7.14
,-8.713,0.57,-4.36,-8.667,1.493,-4.63,7.42,-14.49,6.16
,-8.782,0.818,-4.281,-8.703,1.393,-4.549,7.0,-14.14,4.97
37405.0,-8.619,1.149,-4.477,-8.777,0.213,-4.357,-4.06,-14.21,-3.71
,-8.624,0.897,-4.554,-8.894,0.29,-4.396,-5.39,-13.86,-5.46
,-8.6,0.526,-4.468,-8.897,0.275,-4.405,-5.81,-13.65,-7.21
,-8.725,0.354,-4.42,-8.839,0.352,-4.508,-5.46,-13.58,-8.54
37480.0,-8.677,0.507,-4.558,-8.832,-0.416,-4.343,-6.37,-13.44,-11.13
,-8.667,0.459,-4.709,-8.725,-0.646,-3.975,-9.03,-13.65,-12.04
,-8.6,0.153,-4.606,-8.82,-0.89,-3.843,-11.76,-13.51,-12.74
,-8.691,-0.218,-4.525,-8.971,-1.039,-3.611,-13.02,-13.3,-12.88
37556.0,-8.938,-1.022,-3.774,-8.71,-0.309,-3.671,-4.97,-10.92,-8.68
,-8.942,-0.797,-4.101,-8.995,-0.29,-3.867,-2.94,-11.41,-7.49
,-8.954,-0.44,-4.08,-8.995,-0.191,-3.824,-2.17,-11.55,-6.09
,-8.882,-0.258,-4.049,-8.815,0.172,-3.936,-2.87,-11.2,-5.18
37631.0,-8.794,0.352,-3.731,-9.136,-0.213,-3.537,0.35,-9.73,-6.02
,-9.012,0.141,-3.58,-9.086,0.036,-3.764,-2.45,-8.96,-5.6
,-9.28,-0.206,-3.479,-8.973,0.045,-3.927,-2.45,-7.63,-5.11
,-9.284,-0.354,-3.348,-8.83,-0.057,-4.104,-0.42,-6.58,-5.74
37707.0,-8.806,-0.139,-3.747,-8.959,0.165,-4.458,0.98,-4.76,-5.88
,-9.016,-0.115,-3.582,-8.961,-0.036,-4.518,2.17,-4.2,-6.16
,-9.253,0.06,-4.135,-8.976,-0.321,-4.542,1.26,-4.2,-7.21
,-9.117,0.06,-4.281,-8.938,-0.617,-4.274,-0.49,-4.76,-7.42
37783.0,-9.007,-0.603,-4.123,-9.064,-0.182,-4.056,3.5,-5.18,-6.3
,-8.964,-0.474,-3.927,-8.981,-0.366,-4.001,6.44,-5.04,-5.6
,-9.088,-0.306,-4.094,-9.122,-0.605,-3.81,8.68,-5.25,-4.97
,-9.141,-0.172,-4.109,-8.89,-0.711,-3.721,7.91,-5.81,-4.9
37859.0,-9.06,-0.598,-3.764,-9.179,-0.476,-3.549,6.86,-5.18,-4.9
,-8.988,-0.488,-3.754,-9.086,-0.491,-3.352,7.07,-5.04,-4.41
,-9.012,-0.529,-3.525,-9.129,-0.421,-3.518,7.14,-4.48,-3.64
,-9.129,-0.471,-3.549,-9.136,-0.517,-3.544,7.98,-4.13,-3.22
37935.0,-9.134,-0.577,-3.498,-8.954,-0.316,-3.821,9.73,-1.61,-1.68
,-9.141,-0.634,-3.51,-8.921,-0.62,-3.587,9.31,-1.19,-1.54
,-9.148,-0.421,-3.726,-9.124,-0.905,-3.396,9.38,-1.33,-1.96
,-9.069,-0.232,-3.967,-9.265,-0.871,-3.228,7.91,-1.47,-2.45
