Timestamp,AccX,AccY,AccZ,GyroX,GyroY,GyroZ,MagnX,MagnY,MagnZ
0.0,-9.258,0.153,-3.419,-9.21,0.306,-3.678,2.31,1.4,0.56
,-9.306,0.144,-3.479,-9.201,0.302,-3.695,2.38,1.47,0.49
,-9.275,0.208,-3.515,-9.225,0.254,-3.668,2.45,1.54,0.49
,-9.263,0.249,-3.666,-9.196,0.292,-3.637,2.73,1.4,0.56
75.0,-9.258,0.232,-3.577,-9.222,0.232,-3.611,3.22,1.33,0.98
,-9.229,0.29,-3.565,-9.229,0.203,-3.539,3.29,1.19,0.84
,-9.249,0.275,-3.47,-9.222,0.172,-3.513,3.01,1.26,0.84
,-9.265,0.249,-3.573,-9.206,0.225,-3.489,2.87,1.47,0.84
150.0,-9.268,0.249,-3.518,-9.222,0.287,-3.683,2.8,1.54,0.77
,-9.292,0.208,-3.52,-9.241,0.321,-3.671,2.52,1.61,0.77
,-9.273,0.27,-3.594,-9.213,0.302,-3.697,2.38,1.61,0.7
,-9.246,0.258,-3.582,-9.189,0.28,-3.68,2.38,1.4,0.77
226.0,-9.194,0.242,-3.671,-9.27,0.227,-3.544,2.52,0.91,0.7
,-9.222,0.235,-3.601,-9.234,0.268,-3.549,2.8,0.91,0.77
,-9.249,0.254,-3.553,-9.244,0.215,-3.537,3.01,1.19,0.84
,-9.263,0.263,-3.58,-9.225,0.187,-3.542,2.94,1.12,0.7
302.0,-9.251,0.235,-3.549,-9.311,0.292,-3.573,3.22,1.4,0.77
,-9.246,0.23,-3.494,-9.273,0.321,-3.585,2.94,1.33,0.7
,-9.249,0.213,-3.508,-9.246,0.34,-3.668,2.87,1.4,0.63
,-9.268,0.258,-3.546,-9.22,0.33,-3.635,3.08,1.47,0.77
378.0,-9.167,0.28,-3.635,-9.208,0.232,-3.465,2.1,1.05,0.21
,-9.215,0.28,-3.647,-9.251,0.244,-3.465,2.1,1.19,0.35
,-9.213,0.246,-3.601,-9.325,0.215,-3.482,1.96,1.12,0.42
,-9.241,0.175,-3.565,-9.325,0.218,-3.455,2.17,1.19,0.35
453.0,-9.225,0.168,-3.515,-9.27,0.325,-3.623,2.1,1.68,0.28
,-9.215,0.172,-3.506,-9.246,0.27,-3.632,2.45,1.82,0.49
,-9.208,0.189,-3.587,-9.203,0.218,-3.618,3.01,1.68,0.63
,-9.225,0.287,-3.599,-9.282,0.223,-3.668,3.29,1.68,0.63
529.0,-9.237,0.261,-3.68,-9.246,0.258,-3.573,3.5,1.54,0.49
,-9.213,0.237,-3.668,-9.227,0.251,-3.587,3.36,1.47,0.49
,-9.282,0.282,-3.632,-9.196,0.244,-3.568,3.29,1.26,0.42
,-9.292,0.302,-3.616,-9.237,0.225,-3.585,3.08,1.19,0.35
604.0,-9.198,0.244,-3.597,-9.282,0.27,-3.532,3.01,1.12,0.21
,-9.232,0.223,-3.623,-9.229,0.292,-3.525,2.94,1.26,0.28
,-9.227,0.203,-3.551,-9.239,0.215,-3.611,2.94,1.12,0.28
,-9.251,0.266,-3.498,-9.258,0.218,-3.601,3.15,1.05,0.14
680.0,-9.258,0.261,-3.611,-9.234,0.201,-3.549,3.29,1.05,0.28
,-9.287,0.268,-3.565,-9.258,0.206,-3.587,3.29,1.19,0.35
,-9.244,0.246,-3.594,-9.22,0.258,-3.604,3.08,1.26,0.35
,-9.17,0.23,-3.565,-9.241,0.23,-3.611,2.73,1.33,0.35
756.0,-9.229,0.211,-3.601,-9.198,0.227,-3.664,2.73,1.05,0.21
,-9.234,0.184,-3.656,-9.203,0.263,-3.632,2.73,1.05,0.21
,-9.201,0.187,-3.666,-9.21,0.194,-3.556,2.66,0.98,0.14
,-9.229,0.179,-3.664,-9.256,0.168,-3.518,2.73,0.77,0.07
832.0,-9.268,0.175,-3.475,-9.229,0.127,-3.53,2.94,0.35,0.21
,-9.316,0.168,-3.415,-9.234,0.163,-3.527,2.94,0.77,0.21
,-9.316,0.227,-3.618,-9.237,0.218,-3.518,2.66,0.84,0.0
,-9.289,0.215,-3.537,-9.284,0.242,-3.498,2.38,0.98,0.07
908.0,-9.249,0.223,-3.525,-9.328,0.175,-3.441,2.17,0.91,0.07
,-9.244,0.153,-3.532,-9.383,0.156,-3.475,2.17,1.05,0.14
,-9.256,0.156,-3.534,-9.287,0.129,-3.381,2.17,0.98,0.14
,-9.241,0.103,-3.484,-9.213,0.105,-3.448,2.38,0.98,0.21
983.0,-9.241,0.124,-3.625,-9.177,0.227,-3.829,1.19,1.47,0.28
,-9.148,0.17,-3.716,-9.172,0.22,-3.865,1.54,1.33,0.28
,-9.208,0.213,-3.731,-9.179,0.261,-3.922,1.89,1.12,0.35
,-9.201,0.258,-3.776,-9.146,0.268,-3.934,2.59,1.12,0.63
1059.0,-9.134,0.297,-3.941,-9.241,0.235,-3.51,4.76,-0.98,0.56
,-9.146,0.292,-3.886,-9.246,0.282,-3.419,4.9,-1.26,0.56
,-9.186,0.313,-3.738,-9.273,0.304,-3.338,4.97,-1.4,0.49
,-9.227,0.232,-3.656,-9.232,0.237,-3.357,4.9,-1.61,0.49
1135.0,-9.232,0.16,-3.264,-9.363,0.148,-3.156,3.29,-1.05,0.21
,-9.225,0.057,-3.25,-9.38,0.182,-3.233,3.43,-0.63,0.35
,-9.289,0.045,-3.175,-9.373,0.261,-3.415,3.71,-0.49,0.49
,-9.325,0.081,-3.175,-9.347,0.311,-3.53,4.34,-0.07,0.63
1211.0,-9.277,0.239,-3.592,-9.373,0.261,-3.494,2.38,0.77,0.0
,-9.311,0.292,-3.69,-9.426,0.17,-3.345,2.31,0.42,-0.21
,-9.203,0.364,-3.63,-9.416,0.165,-3.238,2.24,0.14,-0.49
,-9.292,0.424,-3.623,-9.316,0.187,-3.185,1.61,0.0,-0.84
1286.0,-9.273,0.084,-3.185,-9.198,0.122,-3.372,-4.55,0.14,-2.87
,-9.244,-0.091,-3.187,-9.22,0.237,-3.369,-4.9,0.49,-2.52
,-9.294,-0.089,-3.269,-9.22,0.203,-3.305,-4.2,1.12,-2.52
,-9.325,0.01,-3.448,-9.258,0.136,-3.35,-3.78,1.47,-2.73
1362.0,-9.399,0.012,-3.448,-9.308,-0.062,-3.594,-4.9,2.45,-1.82
,-9.186,-0.072,-3.367,-9.227,-0.055,-3.496,-3.92,2.66,-0.91
,-9.162,-0.112,-3.331,-9.253,0.072,-3.441,-2.24,3.01,0.0
,-9.251,-0.153,-3.381,-9.337,0.196,-3.812,-0.56,3.15,0.77
1437.0,-9.227,0.251,-3.754,-9.249,0.345,-3.494,-1.61,2.66,1.61
,-9.217,0.268,-3.841,-9.289,0.285,-3.352,-2.52,2.24,1.26
,-9.177,0.438,-3.841,-9.28,0.151,-3.106,-3.5,1.82,0.63
,-9.16,0.397,-3.649,-9.28,-0.225,-3.376,-4.76,1.54,0.28
1513.0,-9.215,-0.412,-3.053,-9.158,0.493,-3.733,-6.02,2.31,0.77
,-9.328,-0.361,-3.075,-8.959,0.517,-3.597,-4.13,3.01,1.75
,-9.318,-0.29,-3.099,-9.112,0.242,-3.254,-2.38,3.78,1.96
,-9.347,0.045,-3.369,-9.368,0.022,-3.118,0.07,3.99,2.24
1589.0,-9.519,-0.134,-2.948,-9.198,-0.031,-3.209,0.91,4.97,3.01
,-9.447,-0.452,-2.379,-9.045,0.11,-3.142,3.01,6.37,4.27
,-9.387,-0.385,-2.706,-9.107,0.153,-3.664,5.81,7.63,4.69
,-9.184,-0.299,-2.517,-8.902,0.024,-3.611,7.56,8.33,5.11
1665.0,-9.048,0.036,-3.252,-9.215,-0.821,-3.52,3.36,9.1,5.25
,-9.215,0.266,-3.652,-9.107,-1.184,-3.199,2.66,9.1,3.92
,-9.15,0.05,-3.453,-9.194,-0.73,-3.309,1.4,9.31,3.99
,-9.222,-0.426,-3.252,-9.069,-0.275,-2.534,2.17,9.94,5.18
1740.0,-9.184,0.024,-2.876,-9.229,1.512,-3.049,30.45,16.31,14.07
,-9.177,0.177,-2.467,-9.05,1.376,-2.668,30.1,17.29,14.56
,-9.332,0.689,-2.821,-9.148,0.895,-2.682,28.77,17.57,14.21
,-9.351,1.299,-2.977,-8.966,0.656,-3.338,24.78,17.85,12.53
1816.0,-8.844,0.651,-3.546,-9.256,0.232,-3.604,6.93,23.03,4.9
,-8.806,1.053,-3.896,-8.947,0.072,-3.434,10.92,23.24,5.18
,-8.863,0.986,-4.056,-8.861,0.354,-3.575,11.76,23.87,4.83
,-9.172,0.565,-3.786,-8.722,0.775,-4.159,12.18,24.71,4.48
1892.0,-8.741,0.991,-4.221,-8.938,1.055,-5.118,20.3,27.09,5.32
,-8.78,1.103,-4.305,-8.696,0.811,-5.331,16.94,27.37,4.34
,-8.832,1.149,-4.389,-8.449,0.285,-5.31,13.16,27.16,2.45
,-9.088,1.153,-4.712,-8.399,-0.28,-4.941,8.96,25.69,0.14
1968.0,-8.622,-0.574,-4.805,-8.643,-0.278,-4.815,-4.9,20.51,-3.22
,-8.837,-0.68,-5.008,-8.555,-0.057,-4.829,-0.98,19.81,-1.96
,-8.899,-0.424,-5.078,-8.567,0.378,-4.987,2.94,19.04,-0.21
,-8.794,-0.464,-5.044,-8.622,0.866,-5.078,4.06,18.69,1.26
2044.0,-8.705,1.153,-5.322,-8.545,0.388,-4.91,6.72,15.26,1.33
,-8.617,0.895,-5.272,-8.418,0.467,-5.126,2.24,14.56,-0.21
,-8.708,0.304,-4.958,-8.485,0.742,-4.872,-1.47,14.77,-0.98
,-8.67,0.187,-4.882,-8.696,0.5,-4.724,-1.26,15.33,-0.98
2119.0,-8.705,0.263,-4.7,-8.332,0.404,-4.889,0.63,14.7,-1.68
,-8.641,-0.105,-4.707,-8.373,0.529,-4.98,-0.21,15.75,-1.05
,-8.811,-0.081,-4.578,-8.418,0.651,-4.858,0.63,15.61,-0.77
,-8.662,0.057,-4.829,-8.445,0.787,-4.925,2.17,14.42,-1.12
2195.0,-8.492,0.634,-4.889,-8.334,-0.239,-5.037,3.43,13.93,-5.81
,-8.543,0.447,-4.85,-8.399,-0.175,-5.248,2.1,14.35,-5.39
,-8.536,-0.022,-4.951,-8.423,0.12,-5.508,0.49,14.84,-5.04
,-8.392,0.031,-5.348,-8.227,0.002,-5.712,1.96,14.91,-4.06
2270.0,-8.234,-0.416,-5.614,-8.717,-1.474,-5.803,9.24,11.83,-0.56
,-8.184,-0.797,-5.709,-8.279,-1.256,-5.946,8.61,11.83,1.05
,-8.485,-1.089,-5.767,-8.031,-0.962,-5.776,8.82,11.55,2.8
,-8.703,-1.493,-5.781,-8.119,-0.646,-5.695,8.75,10.29,4.34
2346.0,-8.193,-0.127,-5.635,-8.136,1.299,-5.669,18.55,6.51,7.98
,-8.459,0.641,-5.839,-8.421,0.672,-5.298,18.9,5.39,8.54
,-8.442,1.089,-6.054,-8.887,0.213,-5.293,18.06,4.9,8.47
,-8.387,1.594,-6.25,-9.031,0.029,-5.109,15.89,4.62,6.93
2422.0,-9.093,0.179,-5.106,-8.409,1.287,-5.382,11.34,5.6,4.13
,-8.514,0.426,-5.355,-8.5,1.491,-5.511,12.53,4.13,3.57
,-8.153,0.888,-5.585,-8.492,1.577,-5.403,14.14,3.99,2.45
,-8.145,1.067,-5.611,-8.1,1.094,-5.446,15.26,4.48,1.33
2498.0,-7.983,-0.012,-5.027,-8.459,0.153,-5.58,1.89,6.23,-3.15
,-8.086,-0.342,-5.358,-8.524,0.33,-5.456,3.01,5.74,-2.59
,-8.32,-0.328,-5.432,-8.519,0.493,-5.47,6.51,5.53,-1.61
,-8.512,-0.11,-5.566,-8.473,0.311,-5.339,9.45,5.25,-0.98
2573.0,-8.32,0.084,-5.47,-7.87,-1.187,-5.334,8.54,5.32,-2.73
,-8.136,0.23,-5.843,-8.165,-1.5,-5.552,10.15,6.02,-2.52
,-8.153,0.098,-5.882,-8.246,-1.534,-5.564,10.64,5.67,-2.03
,-8.057,-0.23,-5.846,-8.198,-1.237,-5.666,9.94,4.83,-1.19
2649.0,-8.323,-1.333,-5.535,-8.323,0.306,-5.532,17.08,3.57,7.7
,-8.318,-0.804,-5.329,-8.323,0.285,-5.437,19.53,2.94,8.05
,-8.308,-0.101,-5.559,-8.122,0.371,-5.482,20.44,1.89,7.91
,-8.375,0.273,-5.497,-8.256,0.313,-5.482,18.76,1.47,7.84
2725.0,-8.349,0.048,-5.353,-8.385,0.165,-5.458,11.2,1.75,5.18
,-8.531,-0.026,-5.298,-8.224,0.531,-5.31,11.27,2.03,5.53
,-8.495,-0.196,-5.458,-8.327,0.893,-5.554,11.55,2.52,5.6
,-8.586,-0.053,-5.355,-8.313,0.838,-5.721,12.67,2.73,5.32
2801.0,-8.32,0.617,-5.719,-8.244,-0.608,-5.75,8.05,2.03,0.84
,-8.155,0.005,-5.741,-8.318,-0.648,-5.973,4.2,2.66,1.4
,-8.083,-0.546,-5.695,-8.358,-0.957,-5.865,2.17,3.43,2.1
,-8.088,-0.668,-5.683,-8.172,-1.23,-5.834,1.82,3.57,3.15
2877.0,-8.11,-0.902,-5.903,-8.351,0.4,-6.186,2.66,4.2,6.86
,-8.385,-0.467,-6.035,-8.047,0.385,-6.1,3.78,4.76,7.14
,-8.454,-0.22,-6.092,-8.035,0.048,-5.932,3.78,5.04,7.14
,-8.423,0.06,-6.107,-8.083,-0.179,-5.894,3.08,3.85,6.79
2952.0,-8.155,-0.447,-5.867,-8.275,-0.232,-5.887,-3.29,0.63,6.72
,-8.296,-0.498,-5.882,-8.078,0.002,-6.018,-2.73,0.91,6.93
,-8.433,-0.282,-5.899,-8.165,0.203,-6.102,-2.38,1.05,6.93
,-8.54,-0.302,-5.949,-8.346,0.115,-6.059,-3.64,0.63,6.79
3028.0,-8.524,0.158,-5.98,-8.11,0.847,-5.554,-9.8,-1.05,8.33
,-8.598,0.163,-5.827,-8.248,0.952,-5.556,-10.29,-1.68,8.26
,-8.528,0.323,-5.65,-8.471,0.979,-5.492,-10.01,-2.31,8.05
,-8.311,0.778,-5.559,-8.48,1.158,-5.552,-8.96,-3.15,7.77
3104.0,-8.547,1.182,-5.528,-8.459,0.586,-5.427,-8.26,-3.22,5.6
,-8.457,0.983,-5.437,-8.5,0.529,-5.339,-9.17,-3.01,4.76
,-8.299,0.704,-5.413,-8.502,0.237,-5.578,-9.94,-3.22,4.55
,-8.26,0.529,-5.343,-8.497,0.447,-5.523,-9.8,-3.01,4.69
3180.0,-8.368,0.179,-5.528,-8.459,0.287,-5.628,-9.24,-3.64,6.3
,-8.277,0.089,-5.48,-8.385,0.462,-5.635,-8.61,-3.29,7.28
,-8.198,0.098,-5.559,-8.299,0.902,-5.82,-8.82,-3.08,7.7
,-8.354,0.23,-5.69,-8.232,1.022,-5.925,-7.77,-3.71,7.28
3255.0,-8.301,0.852,-5.867,-8.679,0.861,-5.446,-6.72,-5.39,5.25
,-8.279,0.809,-5.676,-8.378,1.163,-5.767,-5.88,-4.62,4.2
,-8.361,0.847,-5.566,-8.296,1.163,-5.736,-4.2,-4.13,3.64
,-8.43,0.885,-5.346,-8.327,0.993,-5.674,-3.36,-4.69,2.94
3331.0,-8.452,0.72,-5.592,-8.303,0.869,-5.537,-4.27,-8.4,-1.12
,-8.368,0.62,-5.571,-8.351,0.876,-5.382,-4.06,-8.12,-1.19
,-8.267,0.596,-5.64,-8.469,0.806,-5.126,-3.57,-8.19,-0.98
,-8.122,0.699,-5.731,-8.681,0.474,-5.023,-2.52,-8.61,-0.42
3406.0,-8.629,0.474,-4.939,-8.289,0.151,-4.929,-7.0,-10.71,-0.35
,-8.354,0.462,-5.008,-8.358,0.402,-5.095,-6.72,-11.27,0.35
,-8.311,0.459,-5.068,-8.425,0.481,-5.097,-6.02,-11.55,0.56
,-8.32,0.55,-4.91,-8.509,-0.536,-4.348,-5.67,-12.6,0.28
3482.0,-8.299,-0.036,-4.238,-8.619,0.601,-4.781,-6.09,-12.53,2.24
,-8.559,0.263,-4.709,-8.665,0.536,-4.597,-0.7,-13.02,2.52
,-8.394,0.653,-5.13,-8.727,0.45,-4.41,1.4,-14.42,2.66
,-8.413,0.84,-5.071,-8.705,0.38,-4.429,0.56,-14.98,2.94
3558.0,-8.607,0.5,-4.444,-8.82,0.957,-4.097,0.56,-13.37,3.99
,-8.519,0.385,-4.482,-8.83,1.534,-4.343,1.19,-13.16,5.53
,-8.519,0.479,-4.487,-8.708,2.111,-4.264,3.15,-12.53,6.44
,-8.715,0.452,-4.07,-7.791,2.443,-3.793,6.09,-11.55,6.23
3634.0,-8.813,2.35,-4.168,-8.579,0.718,-3.857,-3.57,-12.74,-0.49
,-8.849,1.95,-4.073,-8.77,0.723,-3.991,-7.63,-11.9,-3.64
,-8.823,1.452,-3.975,-8.885,0.804,-4.286,-10.36,-11.13,-5.88
,-8.521,0.974,-3.996,-9.0,0.79,-4.264,-10.01,-10.36,-6.37
3709.0,-8.88,0.603,-4.257,-8.665,0.436,-4.499,-6.3,-9.38,-4.97
,-8.753,0.29,-4.147,-8.66,0.156,-4.398,-7.0,-8.82,-5.11
,-8.787,0.258,-4.171,-8.806,-0.165,-4.336,-6.72,-9.03,-5.18
,-8.813,0.617,-4.331,-9.0,-0.139,-4.393,-6.3,-9.52,-4.41
3785.0,-8.983,0.182,-4.468,-8.995,1.335,-3.865,2.1,-9.59,-0.14
,-8.859,0.773,-4.499,-9.072,1.311,-3.963,3.78,-9.94,0.14
,-8.729,1.132,-4.436,-9.024,1.285,-4.046,3.36,-10.08,-0.28
,-8.851,0.943,-3.731,-9.062,1.283,-4.015,1.33,-9.73,-1.4
3860.0,-9.033,1.223,-4.168,-9.115,0.84,-4.745,-5.6,-10.64,-5.39
,-8.954,0.967,-4.389,-8.961,0.78,-4.496,-6.51,-10.85,-5.81
,-8.868,0.849,-4.475,-9.074,0.816,-3.946,-6.37,-11.13,-5.6
,-9.086,0.792,-4.36,-9.222,0.751,-3.869,-4.34,-11.41,-5.46
3936.0,-9.043,0.617,-3.778,-8.832,0.479,-3.463,-7.63,-13.65,-9.17
,-9.143,0.591,-3.496,-8.899,0.452,-4.075,-8.68,-13.37,-8.96
,-9.284,0.486,-3.869,-8.763,0.593,-4.118,-9.45,-13.23,-9.87
,-9.014,0.383,-3.908,-8.741,0.634,-4.063,-8.47,-12.95,-9.59
4012.0,-9.172,0.498,-3.666,-9.129,0.44,-3.082,-4.2,-13.44,-7.35
,-9.237,0.364,-3.436,-9.0,0.567,-2.915,-2.94,-13.09,-7.28
,-9.395,0.464,-3.242,-9.057,0.768,-2.929,-1.75,-12.6,-7.35
,-9.251,0.517,-3.317,-9.251,1.036,-3.774,-1.47,-12.18,-7.0
4088.0,-8.916,0.897,-3.989,-9.411,0.376,-2.836,-7.28,-10.22,-8.4
,-8.693,0.215,-3.908,-9.529,0.732,-2.321,-9.1,-10.08,-7.35
,-8.93,-0.407,-3.458,-9.617,0.766,-2.529,-4.83,-9.45,-5.32
,-9.328,-0.232,-3.422,-9.399,0.72,-3.01,3.29,-9.03,-4.27
4164.0,-8.954,0.668,-2.867,-9.217,0.787,-3.534,-0.28,-4.76,-4.34
,-9.083,0.392,-2.934,-9.263,0.39,-3.396,1.12,-3.5,-3.64
,-9.172,0.359,-3.264,-9.27,0.38,-3.403,5.81,-3.08,-3.15
,-9.043,0.78,-3.271,-9.464,0.567,-3.869,8.47,-2.8,-2.59
4239.0,-9.203,0.546,-3.965,-9.277,0.275,-3.415,9.24,-2.94,-2.66
,-9.014,0.543,-3.805,-9.33,0.122,-3.273,9.31,-3.29,-2.66
,-9.203,0.251,-3.594,-9.385,0.244,-3.551,9.45,-3.08,-2.45
,-9.246,0.323,-3.589,-9.287,0.5,-3.745,10.5,-3.36,-2.24
4315.0,-9.186,0.469,-3.51,-9.347,0.196,-3.329,12.32,-3.78,-2.8
,-9.088,0.383,-3.704,-9.33,0.211,-3.223,11.34,-4.13,-3.01
,-9.028,0.299,-3.513,-9.416,0.203,-3.154,10.92,-4.34,-2.59
,-9.28,0.34,-3.367,-9.43,0.292,-3.015,10.5,-4.06,-2.17
4391.0,-9.478,0.148,-2.965,-9.474,-0.024,-2.733,7.14,-2.38,-2.1
,-9.385,0.103,-2.611,-9.34,-0.189,-2.852,7.56,-1.54,-1.75
,-9.497,0.235,-2.56,-9.277,-0.031,-2.962,7.98,-0.91,-1.61
,-9.55,0.203,-2.575,-9.32,0.148,-3.015,7.91,-0.28,-1.47
4467.0,-9.268,0.16,-2.934,-9.426,0.481,-2.998,11.06,3.15,0.98
,-9.32,0.223,-2.903,-9.39,0.388,-3.037,11.2,3.71,1.4
,-9.421,0.436,-2.917,-9.325,0.376,-3.283,10.64,3.92,1.33
,-9.418,0.562,-2.917,-9.294,0.263,-3.46,9.1,4.13,1.19
4542.0,-9.273,0.194,-3.623,-9.249,-0.034,-3.513,4.83,4.9,0.7
,-9.308,0.278,-3.711,-9.234,0.041,-3.415,4.69,4.62,0.35
,-9.256,0.337,-3.623,-9.282,0.115,-3.314,3.64,4.13,-0.21
,-9.208,0.254,-3.58,-9.284,-0.038,-3.08,1.75,3.99,-0.63
4618.0,-9.292,-0.026,-2.979,-9.328,0.29,-3.601,1.75,4.97,0.35
,-9.478,0.273,-3.195,-9.28,0.337,-3.752,3.29,5.18,0.63
,-9.447,0.404,-3.317,-9.239,0.4,-3.853,2.31,5.11,0.42
,-9.354,0.328,-3.384,-9.172,0.311,-3.941,0.63,5.04,0.28
4693.0,-9.172,0.249,-3.936,-9.284,0.055,-3.515,1.82,3.29,0.56
,-9.184,0.196,-3.833,-9.344,0.196,-3.405,3.15,2.8,0.84
,-9.191,0.038,-3.752,-9.316,0.263,-3.329,4.27,2.38,1.05
,-9.201,-0.05,-3.58,-9.203,0.345,-3.238,5.74,2.38,1.61
4769.0,-9.296,0.383,-3.228,-9.407,0.366,-3.475,4.13,3.22,1.19
,-9.234,0.242,-3.135,-9.316,0.39,-3.683,2.45,3.57,1.05
,-9.268,0.112,-3.092,-9.232,0.412,-3.874,2.24,3.92,1.26
,-9.328,0.177,-3.183,-9.072,0.45,-4.063,2.59,4.06,1.19
4845.0,-9.043,0.383,-4.212,-9.194,0.12,-3.793,-1.82,2.24,-0.56
,-9.167,0.357,-4.274,-9.201,0.117,-3.439,-2.38,1.4,-0.77
,-9.189,0.22,-4.188,-9.277,0.019,-3.278,-2.24,0.63,-0.77
,-9.162,0.105,-3.982,-9.282,-0.084,-3.082,-1.05,0.07,-0.63
4921.0,-9.397,-0.014,-3.013,-9.304,0.103,-2.903,1.89,0.35,0.91
,-9.356,0.031,-2.9,-9.237,0.034,-2.874,1.96,1.05,1.19
,-9.311,0.017,-2.831,-9.251,0.012,-2.934,1.82,1.68,1.54
,-9.356,0.048,-2.883,-9.294,-0.024,-2.977,2.38,2.66,1.89
4997.0,-9.356,0.038,-3.108,-9.306,0.29,-2.946,3.71,6.86,3.29
,-9.237,0.196,-3.168,-9.289,0.22,-2.922,2.73,7.35,2.73
,-9.196,0.268,-3.008,-9.323,0.256,-3.151,0.77,7.84,2.8
,-9.253,0.318,-2.812,-9.306,0.191,-3.652,-0.77,8.75,2.94
5072.0,-9.093,0.086,-3.766,-9.27,0.794,-3.754,-1.82,10.5,3.99
,-9.016,0.153,-3.676,-9.253,0.725,-3.685,0.07,10.71,4.41
,-9.105,0.304,-3.556,-9.203,0.285,-3.637,1.54,10.71,4.13
,-9.289,0.565,-3.611,-9.198,-0.237,-3.604,2.45,10.71,3.92
5148.0,-9.146,-0.498,-3.513,-9.158,0.732,-3.781,-3.5,11.2,3.29
,-9.067,-0.122,-3.429,-9.117,0.548,-3.781,-0.63,11.34,3.15
,-9.127,0.328,-3.628,-9.055,0.419,-3.527,0.77,11.41,2.66
,-9.055,0.648,-3.747,-9.067,0.249,-3.477,0.49,11.69,2.73
5224.0,-9.036,-0.211,-3.518,-9.016,1.108,-3.977,5.53,14.56,5.53
,-8.981,-0.433,-2.785,-8.997,1.003,-3.91,10.57,15.54,7.63
,-9.275,-0.024,-2.73,-8.949,0.864,-3.539,15.96,15.82,8.33
,-9.246,0.861,-3.857,-9.024,0.493,-3.654,14.0,14.84,5.67
5300.0,-8.861,0.0,-3.403,-8.976,0.101,-4.58,-12.39,16.24,1.19
,-8.756,-0.407,-3.934,-8.995,0.39,-4.099,-11.06,16.17,2.59
,-8.686,-0.488,-4.274,-8.942,0.933,-3.786,-6.09,15.82,3.85
,-8.88,-0.189,-4.803,-9.103,1.448,-4.006,0.91,15.47,5.25
5375.0,-8.964,1.395,-4.491,-8.624,-0.038,-3.965,13.23,14.49,5.53
,-8.952,0.811,-4.561,-8.648,0.237,-4.233,5.18,13.79,3.99
,-8.954,0.371,-4.59,-8.622,0.476,-4.233,-0.14,13.93,3.36
,-8.662,0.136,-4.314,-8.648,0.407,-4.267,-1.26,14.63,3.36
5451.0,-8.579,0.019,-4.424,-8.981,1.027,-4.298,5.67,14.28,3.99
,-8.89,-0.644,-3.64,-8.863,1.761,-4.475,7.14,15.54,5.88
,-9.275,-0.605,-3.848,-8.854,2.278,-4.465,13.86,16.38,7.63
,-9.196,0.275,-4.13,-9.016,3.108,-5.138,19.18,16.59,8.61
5526.0,-8.713,3.484,-5.537,-8.531,-2.462,-4.463,2.8,10.5,-4.06
,-8.368,2.678,-5.614,-8.902,-2.611,-4.367,-11.13,9.31,-6.86
,-8.074,0.835,-5.339,-9.287,-2.166,-4.346,-22.89,9.94,-7.7
,-8.284,-1.378,-4.685,-9.182,-1.563,-4.628,-25.06,11.13,-5.81
5602.0,-8.878,-0.9,-4.688,-8.732,2.111,-4.628,24.29,13.16,11.2
,-8.457,-0.153,-4.523,-8.808,2.687,-5.03,24.85,14.49,12.95
,-8.229,0.567,-4.257,-8.559,2.639,-5.221,24.01,15.89,13.51
,-8.284,1.316,-4.293,-8.497,2.194,-4.752,21.56,15.89,12.04
5678.0,-8.691,1.785,-4.465,-8.878,0.371,-4.417,-5.39,14.35,1.75
,-8.947,1.546,-4.401,-8.715,0.148,-4.427,-3.78,14.77,0.35
,-9.005,1.314,-4.468,-8.571,-0.112,-4.365,-1.89,14.49,-0.84
,-8.854,0.83,-4.625,-8.552,0.038,-4.786,-0.98,14.84,-1.26
5754.0,-8.44,0.275,-5.123,-8.27,1.206,-5.116,5.18,14.56,0.28
,-8.653,0.531,-5.104,-8.248,0.981,-5.173,5.18,14.07,-0.28
,-8.622,0.955,-5.262,-8.37,0.936,-5.372,3.29,13.3,-1.4
,-8.411,1.314,-5.31,-8.502,0.861,-5.453,0.7,12.6,-3.22
5829.0,-8.66,0.68,-5.532,-8.875,0.447,-5.367,-3.64,11.55,-5.32
,-8.495,0.629,-5.721,-8.454,0.648,-5.808,-0.56,11.9,-5.04
,-8.519,0.395,-5.468,-8.189,0.426,-5.499,2.03,12.25,-5.25
,-8.799,0.4,-5.257,-8.064,0.534,-5.255,4.55,11.55,-5.32
5905.0,-7.918,0.452,-5.159,-8.39,0.108,-5.03,4.69,9.52,-6.02
,-8.004,0.124,-5.078,-8.256,-0.098,-4.848,4.48,10.15,-6.02
,-8.346,0.505,-4.982,-8.375,0.038,-4.917,5.39,9.59,-4.97
,-8.27,0.474,-5.233,-8.641,0.273,-5.006,5.88,10.15,-3.92
5981.0,-8.83,0.672,-5.379,-7.676,-0.335,-5.851,12.53,7.84,-2.94
,-8.751,1.232,-5.798,-8.078,-1.218,-5.686,14.42,7.0,-4.55
,-8.258,1.388,-5.956,-8.303,-1.579,-5.753,12.88,7.28,-5.74
,-7.619,0.785,-5.939,-8.552,-1.582,-5.489,8.12,8.26,-5.53
6057.0,-8.54,-1.362,-5.827,-8.571,1.572,-5.853,14.63,4.69,3.92
,-8.533,-0.696,-5.939,-8.758,1.716,-5.611,19.25,3.92,4.34
,-8.538,0.318,-5.942,-8.54,1.472,-5.475,22.05,3.71,4.2
,-8.315,1.206,-5.942,-8.055,1.376,-5.525,21.91,3.78,3.15
6133.0,-7.842,0.964,-5.669,-8.624,-0.907,-5.59,4.62,3.5,-2.1
,-7.667,-0.34,-5.506,-8.385,-0.598,-5.47,3.22,3.99,-0.35
,-7.968,-1.01,-5.508,-8.224,-0.558,-5.303,5.81,4.34,2.73
,-8.44,-1.395,-5.528,-8.119,-0.5,-5.15,11.69,4.13,5.67
6208.0,-8.366,-0.297,-5.214,-8.162,0.091,-5.664,16.45,0.91,8.82
,-8.547,-0.089,-5.374,-8.114,-0.091,-5.575,14.77,1.05,9.52
,-8.418,-0.105,-5.398,-8.366,-0.22,-5.602,14.0,1.47,9.38
,-8.337,0.189,-5.65,-8.44,-0.022,-5.583,12.81,1.05,8.89
6284.0,-8.449,0.447,-5.662,-8.141,1.187,-6.092,14.21,2.17,11.55
,-8.643,0.593,-5.709,-8.349,1.177,-6.097,13.44,1.54,10.99
,-8.629,0.859,-5.731,-8.464,1.18,-6.135,12.04,0.28,10.22
,-8.227,1.039,-5.906,-8.492,1.156,-6.155,10.57,-0.21,9.45
6359.0,-8.504,0.663,-5.913,-8.418,0.56,-5.968,2.59,3.01,3.92
,-8.279,0.72,-5.899,-8.081,0.163,-5.843,1.89,2.31,3.22
,-8.133,0.792,-6.114,-7.849,0.057,-6.042,0.91,1.82,2.31
,-8.425,0.883,-6.253,-8.019,-0.043,-6.018,-0.7,1.89,2.1
6435.0,-8.308,0.096,-6.064,-8.2,0.048,-5.573,-3.78,-0.07,3.5
,-8.681,0.218,-5.961,-8.007,0.12,-5.628,-3.64,-0.91,3.15
,-8.887,0.369,-5.946,-8.342,0.555,-5.537,-4.97,-2.31,2.31
,-8.636,0.254,-5.678,-8.701,1.086,-5.504,-7.28,-3.15,1.96
6511.0,-8.866,1.278,-5.506,-8.248,0.469,-5.575,-3.01,-3.36,0.84
,-8.866,1.316,-5.439,-8.069,0.103,-5.54,-4.97,-3.78,0.07
,-8.65,1.094,-5.508,-8.081,0.014,-5.386,-6.86,-4.06,-0.07
,-8.478,1.036,-5.686,-8.399,-0.117,-5.449,-7.35,-3.92,0.0
6587.0,-8.469,-0.503,-5.307,-8.136,0.364,-5.798,-2.94,-4.13,3.85
,-8.832,-0.182,-5.595,-8.22,0.246,-5.621,-1.47,-4.76,4.76
,-8.495,0.175,-5.482,-8.267,0.077,-5.413,-2.03,-4.62,6.02
,-8.239,0.309,-5.688,-8.356,-0.115,-5.327,-2.52,-4.27,6.79
6662.0,-8.54,0.045,-5.355,-8.586,1.129,-5.465,-2.87,-6.93,7.14
,-8.294,0.395,-5.961,-8.614,1.33,-5.559,1.4,-8.33,6.79
,-8.334,0.883,-5.65,-8.457,1.263,-5.635,3.85,-8.82,5.67
,-8.385,1.027,-5.671,-8.504,1.141,-5.566,4.55,-8.54,4.55
6738.0,-8.464,1.261,-5.654,-8.311,0.864,-5.468,-0.98,-12.18,-1.4
,-8.435,1.158,-5.544,-8.461,0.838,-5.291,-2.66,-12.32,-2.1
,-8.392,0.907,-5.508,-8.586,0.692,-5.08,-3.5,-12.25,-2.38
,-8.325,0.881,-5.573,-8.595,0.725,-5.123,-3.22,-13.09,-2.73
6813.0,-9.043,0.388,-4.886,-7.863,0.199,-4.568,-1.05,-10.92,-2.17
,-9.095,0.68,-4.939,-8.598,0.349,-4.491,-2.31,-13.79,-2.73
,-8.145,0.897,-5.001,-9.079,-0.692,-4.231,-5.32,-15.26,-3.36
,-7.657,0.737,-4.855,-8.705,0.084,-3.881,-7.21,-14.14,-3.08
6889.0,-8.66,0.395,-3.927,-8.909,0.641,-4.267,-0.63,-11.13,-0.21
,-8.483,0.522,-4.264,-8.914,0.663,-4.3,2.52,-9.87,0.77
,-8.512,0.495,-4.384,-8.825,0.517,-4.322,3.78,-8.68,1.33
,-8.825,0.524,-4.365,-8.634,0.278,-4.405,3.71,-8.47,1.26
6965.0,-8.459,0.007,-4.348,-8.756,0.821,-4.353,-0.63,-9.45,1.96
,-8.543,0.06,-4.288,-8.959,0.852,-4.379,2.31,-9.03,2.73
,-8.536,0.369,-4.563,-8.768,0.725,-4.618,5.6,-9.31,2.45
,-8.684,0.842,-4.436,-8.646,0.684,-4.664,6.23,-9.66,2.31
7041.0,-8.591,0.763,-4.621,-9.158,1.491,-3.963,3.71,-11.06,0.14
,-8.643,0.838,-4.532,-9.177,1.407,-4.142,6.09,-10.78,-0.7
,-8.619,1.204,-4.36,-8.945,0.912,-3.958,6.58,-10.78,-2.24
,-8.811,1.515,-4.185,-8.758,0.45,-4.094,4.69,-10.99,-3.78
7117.0,-8.71,0.325,-4.116,-9.062,0.349,-3.884,-5.32,-10.43,-7.56
,-8.622,0.476,-4.154,-8.973,0.12,-3.814,-3.15,-10.5,-7.21
,-8.796,0.749,-4.357,-8.859,-0.201,-3.757,-3.15,-10.85,-7.21
,-8.904,0.615,-4.173,-8.978,-0.311,-3.757,-4.97,-10.57,-7.07
7192.0,-9.081,-0.239,-3.848,-9.083,0.842,-4.001,-1.82,-8.82,-3.57
,-8.978,0.057,-4.034,-9.127,1.12,-4.173,0.56,-8.54,-2.73
,-8.732,0.306,-4.183,-9.194,1.314,-4.53,2.87,-8.26,-1.68
,-8.871,0.548,-4.02,-8.954,0.988,-4.472,4.06,-7.98,-0.98
7268.0,-8.83,0.653,-4.274,-8.904,0.61,-4.48,-8.19,-10.71,-6.16
,-8.863,0.132,-3.853,-8.792,0.871,-4.484,-7.91,-9.45,-6.65
,-8.83,-0.146,-3.805,-8.995,0.414,-3.951,-4.83,-8.82,-7.14
,-8.997,0.218,-3.891,-9.227,-0.045,-4.125,-2.66,-9.45,-7.7
7344.0,-9.026,-0.069,-3.68,-9.174,0.73,-3.072,0.91,-10.5,-6.79
,-8.995,0.246,-3.015,-9.39,0.364,-3.116,4.13,-10.22,-5.74
,-9.299,0.751,-3.467,-9.414,0.34,-2.539,2.24,-10.36,-7.21
,-8.825,0.617,-3.735,-9.572,0.409,-2.831,-0.21,-10.15,-7.42
7420.0,-9.335,0.11,-3.302,-9.383,0.048,-3.128,-9.17,-5.11,-9.38
,-8.751,-0.136,-3.19,-9.337,-0.33,-2.74,-9.1,-4.69,-8.05
,-8.875,-0.395,-3.108,-9.246,-0.096,-2.587,-7.14,-3.5,-6.72
,-9.289,-0.244,-3.238,-9.497,0.258,-2.907,-4.55,-2.52,-6.79
7495.0,-9.725,0.687,-3.465,-9.057,-0.108,-3.692,-7.42,2.87,-8.75
,-8.457,-2.312,-0.739,-9.009,0.268,-3.735,-12.74,2.94,-9.66
,-9.411,-0.019,-2.491,-9.229,1.106,-4.759,-19.04,3.71,-10.22
,-9.186,-0.12,-3.317,-8.976,1.249,-5.027,-17.08,4.13,-10.57
7571.0,-8.507,1.098,-4.891,-8.722,-0.491,-5.061,-22.05,1.12,-14.42
,-8.507,0.701,-5.162,-8.715,-1.029,-4.307,-24.99,-0.14,-15.12
,-8.631,0.452,-5.489,-8.873,-0.596,-4.109,-24.29,-1.89,-15.05
,-8.49,0.179,-5.231,-9.21,0.218,-4.379,-21.7,-4.06,-13.72
7646.0,-9.009,0.591,-4.302,-9.474,-0.823,-2.546,6.37,-9.73,-4.34
,-8.849,-0.038,-3.807,-9.694,-0.735,-2.304,3.64,-9.87,-3.29
,-8.935,-0.732,-3.262,-9.698,-0.586,-2.352,4.41,-9.17,-1.68
,-9.103,-0.974,-2.735,-9.533,-0.376,-2.62,8.82,-7.91,0.28
7722.0,-9.39,-0.261,-3.005,-9.225,0.313,-3.317,11.34,-0.98,3.08
,-9.141,-0.182,-3.072,-9.261,0.414,-3.446,10.92,0.14,3.5
,-9.208,-0.041,-3.108,-9.256,0.213,-3.733,10.78,1.12,4.13
,-9.208,0.086,-3.242,-9.086,0.239,-3.963,10.71,1.82,4.2
7798.0,-9.031,0.22,-4.061,-9.342,0.392,-3.671,6.02,1.89,3.36
,-9.083,0.203,-4.022,-9.277,0.27,-3.62,5.88,1.75,3.5
,-9.146,0.249,-3.905,-9.256,0.223,-3.673,5.6,1.33,3.29
,-9.316,0.34,-3.836,-9.153,0.23,-3.759,4.62,0.77,2.66
7874.0,-9.177,0.213,-3.774,-9.253,-0.067,-3.343,1.05,-0.07,1.19
,-9.11,0.28,-3.74,-9.258,-0.151,-3.218,1.19,0.0,1.05
,-9.124,0.127,-3.656,-9.284,-0.077,-3.192,0.07,0.0,0.77
,-9.184,-0.05,-3.465,-9.299,0.041,-3.144,-0.35,0.07,0.98
7949.0,-9.282,0.158,-3.147,-9.299,0.065,-3.618,3.99,2.1,2.17
,-9.34,0.33,-3.266,-9.167,0.112,-3.582,3.57,2.59,2.17
,-9.246,0.22,-3.331,-9.162,0.144,-3.697,2.17,2.8,1.89
,-9.316,0.127,-3.501,-9.189,0.251,-3.644,1.4,3.15,1.75
8025.0,-9.203,0.359,-3.766,-9.136,0.256,-3.941,1.12,3.36,1.68
,-9.206,0.388,-3.884,-9.174,0.177,-3.898,-0.21,3.22,1.19
,-9.119,0.359,-3.953,-9.155,0.177,-3.731,-1.19,3.01,0.91
,-9.072,0.347,-3.982,-9.198,0.187,-3.553,-1.82,2.73,0.98
8101.0,-9.22,0.148,-3.427,-9.249,0.17,-3.467,0.0,1.96,1.33
,-9.265,0.187,-3.477,-9.239,0.038,-3.565,0.0,2.17,0.98
,-9.222,0.275,-3.35,-9.265,-0.093,-3.606,-0.56,2.1,0.77
,-9.244,0.28,-3.415,-9.249,-0.16,-3.623,-1.54,2.52,0.63
8177.0,-9.249,-0.036,-3.659,-9.165,0.275,-3.625,1.75,3.08,2.52
,-9.261,0.086,-3.685,-9.158,0.194,-3.47,2.94,3.22,3.01
,-9.198,0.16,-3.606,-9.225,0.067,-3.379,3.92,3.22,3.5
,-9.198,0.266,-3.635,-9.289,0.069,-3.398,4.34,3.29,3.71
8253.0,-9.301,0.347,-3.534,-8.952,0.287,-3.8,1.82,4.06,3.78
,-9.249,0.522,-3.783,-9.139,0.244,-3.771,-0.07,4.13,2.87
,-9.074,0.467,-3.939,-9.232,0.179,-3.702,-2.8,4.06,2.59
,-8.949,0.337,-3.92,-9.131,0.084,-3.69,-4.34,4.06,2.52
8328.0,-9.127,-0.002,-3.415,-9.34,-0.266,-3.082,-4.27,4.06,2.87
,-9.162,-0.005,-3.254,-9.294,-0.062,-2.97,-2.87,4.83,3.57
,-9.239,-0.012,-3.209,-9.282,0.282,-3.367,-1.05,5.81,4.13
,-9.232,-0.129,-2.998,-9.215,0.522,-3.723,0.84,6.51,4.83
8404.0,-9.038,0.782,-4.183,-9.186,0.002,-3.434,4.97,7.91,4.06
,-8.871,0.854,-4.281,-9.237,-0.285,-3.163,3.99,7.63,3.78
,-8.878,0.558,-4.037,-9.208,-0.565,-2.654,2.87,7.91,4.2
,-9.024,0.146,-3.817,-9.34,-0.663,-2.534,3.57,8.33,5.11
8479.0,-9.397,-0.074,-2.675,-8.356,1.271,-5.001,19.53,13.16,9.66
,-9.469,0.948,-3.922,-8.732,0.574,-4.436,21.63,12.18,8.05
,-8.997,1.589,-4.846,-9.069,0.201,-4.125,18.27,10.99,6.86
,-8.545,1.785,-5.396,-9.239,0.153,-3.295,11.27,9.8,6.93
8555.0,-9.373,0.416,-3.479,-8.969,0.672,-3.845,15.68,11.62,4.41
,-9.174,0.684,-3.132,-9.129,0.845,-4.681,19.11,11.69,3.99
,-9.112,0.854,-3.506,-8.99,0.33,-4.523,18.06,11.69,3.15
,-8.71,0.967,-3.329,-8.961,-0.366,-3.814,14.84,11.69,2.1
8631.0,-8.878,-0.347,-4.085,-8.679,-0.201,-4.917,4.48,12.11,2.87
,-8.799,-0.321,-4.257,-8.454,-0.239,-4.207,5.53,11.41,2.8
,-8.966,-0.251,-4.695,-8.703,0.093,-3.948,5.46,10.22,3.08
,-8.964,0.014,-4.917,-8.753,0.895,-4.353,5.81,9.59,3.5
8707.0,-8.818,1.735,-4.503,-9.277,0.617,-3.92,25.83,8.68,6.37
,-9.038,2.362,-4.661,-9.043,-0.211,-3.932,21.63,7.07,5.53
,-9.294,2.505,-4.602,-8.89,-0.68,-3.666,10.99,6.72,2.59
,-9.258,1.606,-4.212,-8.784,-0.467,-3.678,0.0,7.77,-0.63
8782.0,-8.751,0.108,-3.666,-8.99,0.787,-4.508,7.42,11.55,-1.68
,-8.851,0.534,-3.635,-8.839,0.873,-4.535,8.61,12.39,-1.33
,-8.964,0.921,-3.948,-8.871,0.675,-4.384,6.93,11.9,-2.1
,-9.009,0.814,-4.243,-8.751,0.335,-4.31,3.01,10.71,-2.24
8858.0,-8.605,-0.29,-4.121,-9.091,-0.905,-4.003,-4.9,12.25,-2.24
,-8.658,-1.012,-3.884,-8.945,-0.158,-4.252,-3.64,13.16,-0.14
,-8.856,-1.263,-3.987,-8.569,0.572,-4.341,-0.35,14.07,1.82
,-9.064,-1.333,-4.013,-8.416,0.873,-4.563,3.15,14.91,3.85
8934.0,-8.547,1.019,-4.877,-8.88,0.57,-4.692,3.71,13.51,4.2
,-8.457,1.263,-5.116,-8.945,0.194,-4.604,0.28,12.74,3.99
,-8.509,1.232,-5.164,-8.978,0.177,-4.736,-1.96,13.16,3.85
,-8.696,0.972,-4.929,-8.794,0.304,-4.944,-3.36,14.14,3.36
9010.0,-8.641,0.457,-5.073,-8.394,1.474,-5.087,5.95,13.65,3.36
,-8.55,0.727,-5.2,-8.734,1.397,-4.922,7.07,12.46,3.22
,-8.361,0.995,-5.468,-9.127,1.184,-4.939,7.7,11.55,2.03
,-8.301,1.297,-5.351,-8.882,0.706,-4.702,7.7,11.34,-0.35
9085.0,-8.631,0.335,-4.604,-8.476,-0.409,-4.669,-5.32,8.61,-8.54
,-8.212,-0.067,-4.649,-8.315,-0.402,-4.807,-5.74,8.68,-8.19
,-8.33,-0.546,-4.575,-8.246,-0.316,-4.989,-4.69,9.17,-7.07
,-8.483,-0.467,-4.702,-8.404,-0.555,-5.092,0.56,7.98,-5.6
9161.0,-8.789,-0.335,-5.185,-8.296,0.268,-4.96,10.64,7.28,1.82
,-8.514,0.012,-5.64,-8.423,0.581,-4.97,12.53,6.72,1.33
,-8.318,0.103,-5.683,-8.67,0.821,-5.054,12.11,7.14,1.4
,-8.38,-0.012,-5.284,-8.892,0.96,-4.944,11.06,6.86,2.17
9237.0,-8.784,1.866,-5.193,-8.667,-0.189,-4.836,15.4,6.16,-1.19
,-8.363,2.089,-5.427,-9.043,-0.414,-4.91,14.56,6.44,-3.64
,-7.93,1.74,-5.24,-9.028,-0.287,-5.243,9.59,6.79,-5.39
,-8.258,0.689,-4.937,-8.591,-0.28,-5.54,4.69,7.07,-5.25
9312.0,-8.449,-0.041,-5.592,-8.547,0.285,-5.765,18.55,4.69,-1.4
,-8.126,-0.002,-5.776,-8.399,0.203,-5.623,19.46,4.13,-1.05
,-8.189,-0.019,-5.695,-8.404,0.022,-5.142,18.27,4.69,-0.28
,-8.296,0.026,-5.547,-8.763,-0.756,-5.391,17.64,3.92,0.07
9388.0,-8.823,-1.175,-5.3,-8.368,0.05,-5.461,12.04,2.31,3.36
,-8.717,-1.189,-5.24,-8.38,0.481,-5.786,15.19,1.26,4.55
,-8.492,-0.723,-5.252,-8.11,0.129,-5.729,19.32,0.91,5.25
,-8.323,-0.354,-5.329,-8.191,-0.605,-5.343,23.03,0.98,5.46
9464.0,-8.378,-1.029,-5.456,-8.667,-0.436,-5.068,16.59,-0.49,11.97
,-8.48,-1.441,-5.391,-8.763,0.278,-5.181,18.83,-0.63,13.58
,-8.981,-1.153,-5.135,-8.751,1.251,-5.118,21.35,-1.33,14.98
,-8.959,-0.943,-4.834,-8.385,1.797,-5.408,21.77,-2.1,15.61
9540.0,-8.418,1.548,-5.229,-8.677,0.476,-4.915,15.61,-2.59,7.98
,-8.502,1.18,-5.111,-8.445,0.419,-4.858,11.41,-2.1,7.28
,-8.485,0.928,-5.097,-8.308,0.665,-5.092,8.82,-1.89,7.0
,-8.693,0.634,-5.109,-8.77,0.371,-4.932,8.47,-0.98,6.72
9615.0,-8.835,0.419,-4.826,-8.54,-0.077,-5.169,10.92,1.96,4.48
,-8.528,0.543,-5.008,-8.452,-0.206,-5.367,10.08,1.68,4.27
,-8.531,0.361,-5.044,-8.44,-0.218,-5.291,8.47,1.75,4.27
,-8.65,0.026,-5.039,-8.509,-0.172,-5.286,7.28,1.75,4.48
9691.0,-8.588,0.057,-5.327,-8.299,0.29,-5.441,9.31,3.29,3.64
,-8.653,0.225,-5.293,-8.536,0.129,-5.506,8.54,3.57,3.43
,-8.583,0.16,-5.214,-8.751,0.081,-5.52,6.93,3.64,3.36
,-8.39,0.328,-5.413,-8.459,-0.014,-5.439,5.39,3.64,2.87
9767.0,-8.344,-0.038,-5.54,-8.543,-0.067,-5.614,1.26,3.92,1.68
,-8.526,-0.261,-5.554,-8.629,0.11,-5.626,0.14,4.06,2.24
,-8.603,-0.347,-5.48,-8.538,0.22,-5.456,-0.7,3.85,3.01
,-8.449,-0.313,-5.518,-8.457,0.38,-5.461,-0.63,3.36,3.57
9843.0,-8.49,0.644,-5.406,-8.897,0.512,-5.473,-4.9,2.17,3.36
,-8.533,0.526,-5.396,-8.897,0.558,-5.382,-7.28,2.31,3.15
,-8.634,0.57,-5.372,-8.516,0.507,-5.403,-8.89,2.45,3.15
,-8.722,0.584,-5.432,-8.368,0.44,-5.391,-9.1,2.52,3.36
9918.0,-8.351,0.347,-5.329,-8.827,0.543,-5.305,-8.96,0.91,1.19
,-8.521,0.172,-5.298,-8.679,0.531,-5.317,-8.4,0.91,1.61
,-8.614,0.146,-5.446,-8.564,0.302,-5.095,-7.35,0.63,2.17
,-8.71,0.378,-5.403,-8.378,0.203,-5.171,-5.81,0.49,2.38
9994.0,-8.136,0.124,-5.197,-8.772,0.692,-5.339,-6.02,-1.89,2.87
,-8.138,0.328,-5.415,-8.863,0.615,-5.465,-5.04,-1.61,3.43
,-8.509,0.577,-5.391,-8.794,0.493,-5.7,-4.76,-1.54,3.64
,-8.655,0.658,-5.477,-8.765,0.062,-5.599,-5.18,-1.33,3.01
10069.0,-8.636,-0.014,-5.296,-8.48,-0.208,-5.422,-8.4,-2.31,2.52
,-8.093,-0.38,-5.183,-8.794,-0.05,-5.432,-8.47,-2.38,2.52
,-7.715,-0.22,-5.229,-8.765,0.11,-5.489,-6.37,-1.75,2.17
,-7.885,-0.191,-5.274,-8.473,0.258,-5.439,-4.13,-1.19,3.36
10145.0,-8.65,0.39,-5.339,-7.959,0.857,-5.164,1.54,-1.68,5.25
,-8.871,0.407,-5.281,-8.021,0.94,-5.123,2.1,-2.59,4.13
,-8.772,0.57,-5.276,-8.354,1.027,-5.004,0.77,-5.18,2.59
,-8.275,0.641,-5.281,-8.729,1.232,-4.92,-0.77,-6.86,1.89
10221.0,-8.83,1.359,-4.939,-8.82,0.124,-4.86,0.98,-8.05,-0.42
,-8.679,1.244,-4.937,-8.547,0.103,-4.819,-1.96,-7.77,-0.14
,-8.55,0.885,-4.92,-8.38,0.223,-4.786,-4.97,-6.93,0.35
,-8.6,0.455,-4.893,-8.275,0.323,-4.896,-6.16,-6.58,0.49
10297.0,-8.454,0.275,-4.889,-8.394,0.967,-5.162,-4.83,-10.36,-0.98
,-8.679,0.218,-4.731,-8.717,0.926,-5.358,-5.88,-9.59,0.28
,-8.646,-0.012,-4.704,-8.725,0.682,-4.86,-6.72,-8.19,1.26
,-8.811,0.246,-4.695,-8.71,0.581,-4.599,-5.95,-7.91,1.82
10373.0,-8.579,0.541,-4.606,-8.538,0.881,-4.652,-1.05,-6.65,3.99
,-8.509,0.727,-4.649,-8.545,0.629,-4.386,0.63,-7.0,3.57
,-8.648,0.754,-4.666,-8.574,0.325,-4.324,1.89,-7.21,2.52
,-8.545,0.818,-4.611,-8.866,0.206,-4.398,2.45,-7.35,1.68
10448.0,-8.993,0.115,-4.326,-8.631,0.905,-4.341,-0.98,-7.98,2.59
,-9.079,0.239,-4.436,-8.54,0.804,-4.542,0.42,-8.12,2.87
,-8.825,0.514,-4.448,-8.526,0.694,-4.556,1.61,-8.4,2.45
,-8.717,0.759,-4.535,-8.691,0.67,-4.743,1.47,-8.12,1.96
10524.0,-8.787,0.641,-4.783,-8.813,0.629,-4.164,-4.13,-11.76,0.35
,-8.72,0.45,-4.86,-8.832,1.003,-4.018,-3.43,-11.83,0.35
,-8.894,0.304,-4.551,-8.89,1.158,-4.391,-1.68,-11.34,0.35
,-8.928,0.361,-4.317,-8.751,0.931,-4.451,0.56,-10.64,-0.14
10600.0,-8.777,0.656,-4.195,-8.717,0.287,-3.812,-4.9,-10.99,-1.19
,-8.808,0.44,-4.092,-8.942,0.273,-3.874,-2.52,-10.43,-1.47
,-8.871,0.33,-3.936,-9.086,0.711,-4.049,0.56,-9.87,-1.47
,-8.772,0.325,-4.015,-9.177,1.043,-3.927,2.94,-9.59,-0.98
10676.0,-9.162,1.173,-3.96,-9.036,0.914,-3.917,4.48,-8.4,-0.14
,-9.028,1.216,-3.929,-9.064,0.541,-3.934,1.75,-7.98,-1.61
,-8.909,1.079,-3.924,-8.928,0.278,-3.759,-0.7,-8.12,-3.08
,-8.873,1.074,-3.869,-8.923,0.105,-3.671,-2.8,-8.61,-3.78
10751.0,-9.043,0.316,-3.893,-9.055,0.479,-4.243,-1.54,-7.0,-4.34
,-9.057,0.802,-4.465,-8.976,0.373,-3.903,-1.68,-7.63,-4.9
,-8.897,1.058,-4.532,-9.107,0.66,-4.188,-3.78,-8.19,-4.55
,-9.028,0.895,-4.439,-9.052,0.957,-4.243,-6.44,-8.47,-4.83
10827.0,-8.997,0.871,-4.003,-9.062,0.144,-3.453,-5.18,-10.36,-6.51
,-9.007,0.653,-3.958,-8.971,0.347,-3.673,-5.81,-10.15,-6.3
,-9.086,0.273,-3.709,-8.981,0.349,-3.795,-5.67,-9.52,-6.51
,-9.081,0.026,-3.4,-8.942,0.244,-3.733,-4.9,-8.89,-6.51
10902.0,-8.914,0.12,-3.676,-9.27,0.471,-3.415,-6.3,-8.54,-5.74
,-9.031,-0.005,-3.398,-9.1,0.747,-3.515,-4.41,-8.19,-4.69
,-9.026,-0.122,-3.798,-9.048,0.883,-3.393,-1.89,-7.63,-3.78
,-9.397,0.179,-3.417,-9.208,1.062,-3.269,0.42,-7.56,-3.71
10978.0,-9.411,1.161,-3.75,-9.04,-0.024,-3.936,-7.56,-6.16,-7.91
,-9.184,1.098,-3.606,-9.186,0.213,-4.168,-11.2,-6.58,-8.4
,-9.1,0.625,-4.099,-9.021,0.787,-4.015,-13.09,-6.93,-8.26
,-9.002,0.081,-3.999,-9.083,0.933,-4.262,-11.34,-6.79,-7.7
11054.0,-9.107,0.759,-4.092,-9.062,-0.012,-3.135,-4.97,-9.38,-7.42
,-9.117,0.395,-4.054,-9.162,0.347,-3.005,-7.35,-9.8,-7.35
,-9.134,0.084,-3.702,-9.33,0.531,-2.97,-6.44,-10.08,-6.58
,-9.172,-0.077,-3.63,-9.356,0.56,-2.783,-2.73,-10.01,-5.74
11130.0,-9.545,0.378,-3.163,-9.1,-0.27,-3.352,-7.07,-7.42,-6.37
,-9.495,0.022,-3.159,-9.222,-0.211,-3.089,-9.73,-7.49,-6.65
,-9.383,-0.177,-3.262,-9.383,0.077,-2.953,-8.89,-7.42,-5.95
,-9.299,-0.335,-3.439,-9.411,0.44,-3.139,-6.02,-7.0,-5.11
11205.0,-9.351,0.581,-3.424,-9.265,0.12,-3.628,6.86,-5.46,-0.98
,-9.16,0.517,-3.625,-9.296,0.287,-3.491,5.11,-5.46,-1.19
,-9.072,0.124,-3.611,-9.251,0.364,-3.362,4.9,-5.53,-0.7
,-9.146,-0.026,-3.585,-9.244,0.38,-3.451,7.7,-5.6,-0.07
11281.0,-9.177,0.199,-3.139,-9.514,-0.048,-2.67,12.46,-6.09,0.84
,-9.227,0.062,-2.809,-9.399,-0.024,-2.575,12.25,-5.39,1.4
,-9.457,-0.057,-2.678,-9.34,0.053,-2.816,12.32,-4.41,1.54
,-9.56,-0.105,-2.63,-9.241,-0.043,-2.761,12.39,-3.78,1.68
11357.0,-9.275,-0.031,-2.627,-9.648,0.333,-2.79,9.73,0.21,2.87
,-9.387,0.01,-2.376,-9.538,0.593,-3.168,9.45,1.33,3.08
,-9.502,0.062,-2.271,-9.385,0.443,-3.422,8.33,2.38,3.01
,-9.67,0.175,-2.393,-9.229,0.256,-3.357,7.14,3.29,2.73
11433.0,-9.213,0.29,-3.408,-9.438,0.158,-3.034,0.14,3.22,1.33
,-9.263,0.189,-3.46,-9.462,0.232,-2.994,1.19,2.94,1.68
,-9.311,0.172,-3.348,-9.481,0.347,-3.063,2.17,2.87,1.96
,-9.325,0.16,-3.135,-9.531,0.431,-3.218,2.87,3.01,2.24
11509.0,-9.383,0.388,-3.355,-9.225,0.476,-3.764,3.43,3.99,1.89
,-9.292,0.373,-3.568,-9.304,0.481,-3.726,3.43,3.71,1.68
,-9.148,0.349,-3.618,-9.273,0.503,-3.699,3.78,3.43,1.68
,-9.217,0.366,-3.714,-9.244,0.421,-3.613,4.62,3.15,1.82
11584.0,-9.215,0.254,-3.458,-9.392,0.318,-2.814,3.5,1.05,1.05
,-9.287,0.096,-3.233,-9.505,0.364,-2.903,4.13,0.98,1.4
,-9.404,0.199,-3.125,-9.447,0.395,-2.927,5.04,1.12,1.61
,-9.438,0.239,-2.97,-9.411,0.268,-2.965,5.04,1.33,1.61
11660.0,-9.33,0.194,-2.936,-9.28,0.455,-3.396,0.84,3.5,0.7
,-9.363,0.215,-3.063,-9.203,0.246,-3.434,1.61,3.92,0.77
,-9.433,0.503,-3.228,-9.208,0.112,-3.408,2.1,3.99,0.49
,-9.359,0.555,-3.321,-9.328,0.132,-3.41,1.19,4.06,0.28
11735.0,-9.488,0.383,-3.508,-9.186,0.342,-3.687,2.59,3.71,0.49
,-9.519,0.514,-3.553,-9.186,0.328,-3.654,1.33,3.01,-0.21
,-9.399,0.529,-3.573,-9.227,0.218,-3.573,-0.7,2.52,-0.91
,-9.246,0.424,-3.618,-9.277,0.201,-3.391,-1.89,2.45,-1.12
11811.0,-9.308,0.266,-3.34,-9.277,0.208,-3.116,2.66,1.61,0.07
,-9.294,0.292,-3.223,-9.275,0.108,-3.077,2.66,1.61,0.0
,-9.311,0.215,-3.142,-9.304,0.105,-2.946,2.31,1.75,-0.14
,-9.328,0.211,-3.161,-9.342,0.168,-2.994,2.24,2.17,-0.07
11887.0,-9.478,0.302,-3.139,-9.227,0.325,-3.769,3.92,3.85,0.49
,-9.407,0.404,-3.29,-9.249,0.33,-3.802,2.94,3.85,0.07
,-9.335,0.354,-3.355,-9.184,0.194,-3.812,1.96,4.06,-0.07
,-9.284,0.364,-3.575,-9.165,0.16,-3.709,1.4,3.78,-0.49
11963.0,-9.225,0.22,-3.57,-9.294,0.146,-3.211,4.34,2.1,0.35
,-9.311,0.287,-3.498,-9.208,-0.055,-3.149,4.55,1.82,0.14
,-9.27,0.323,-3.527,-9.273,-0.048,-3.089,3.64,1.89,-0.07
,-9.316,0.249,-3.367,-9.323,0.079,-3.041,2.38,1.75,-0.21
12038.0,-9.368,0.16,-3.025,-9.251,0.024,-3.135,3.08,3.22,0.21
,-9.311,0.254,-3.154,-9.292,0.026,-3.151,2.8,3.85,0.21
,-9.28,0.156,-3.185,-9.395,0.144,-3.25,2.38,4.55,0.35
,-9.227,0.098,-3.218,-9.407,0.194,-3.381,2.45,5.11,0.35
12114.0,-9.301,0.191,-3.427,-9.344,0.266,-3.532,6.86,6.51,1.47
,-9.251,0.275,-3.405,-9.299,0.328,-3.515,6.65,6.58,1.68
,-9.316,0.108,-3.336,-9.241,0.321,-3.309,6.58,6.51,1.61
,-9.347,0.165,-3.486,-9.265,0.225,-3.108,6.86,6.65,0.98
12189.0,-9.351,0.285,-3.233,-9.21,0.278,-3.704,4.27,6.79,1.05
,-9.426,0.364,-3.326,-9.069,0.108,-3.716,3.22,6.65,0.49
,-9.349,0.51,-3.36,-9.064,0.002,-3.697,0.98,6.58,-0.21
,-9.296,0.531,-3.506,-9.055,0.069,-3.376,-2.52,6.65,-0.84
12265.0,-9.356,0.129,-3.484,-9.428,-0.014,-3.235,-4.9,6.65,-0.63
,-9.34,0.191,-3.379,-9.402,-0.12,-3.293,-5.81,6.93,-1.05
,-9.234,0.103,-3.008,-9.198,-0.354,-3.542,-8.26,7.7,-0.84
,-9.371,0.069,-3.041,-8.933,-0.402,-3.623,-9.8,8.68,-0.49
12341.0,-8.964,-0.184,-3.403,-9.177,0.62,-3.776,-1.26,10.85,3.92
,-9.21,0.206,-3.731,-9.249,0.55,-3.434,2.66,10.99,4.69
,-9.107,0.644,-3.948,-9.213,1.06,-4.03,3.71,10.78,4.9
,-8.99,0.718,-3.649,-9.122,1.512,-3.915,3.5,10.29,5.67
12417.0,-9.15,1.338,-3.702,-9.239,0.124,-2.907,-2.66,8.89,1.47
,-9.083,0.467,-3.032,-9.093,0.342,-3.62,-7.7,10.5,1.26
,-9.143,-0.328,-2.19,-9.045,0.024,-4.013,-6.93,12.32,1.4
,-9.232,-0.196,-1.936,-9.048,-0.684,-4.475,-2.87,14.07,1.26
12493.0,-8.82,-1.469,-4.245,-8.933,1.062,-4.539,-7.77,14.77,4.97
,-8.705,-1.828,-3.527,-9.124,1.491,-4.35,4.06,17.15,9.03
,-8.626,-1.254,-3.781,-9.258,1.376,-3.587,17.71,18.2,10.64
,-8.722,-0.036,-4.137,-9.246,1.106,-3.025,28.0,17.64,11.06
12568.0,-9.241,0.9,-2.647,-8.868,0.256,-4.255,15.19,19.39,7.28
,-9.038,1.129,-3.424,-8.756,-0.211,-3.774,13.3,18.2,4.62
,-8.904,1.113,-3.676,-8.825,0.002,-4.274,9.31,16.45,2.73
,-8.933,0.89,-4.051,-8.808,0.572,-4.764,4.55,15.4,1.4
12644.0,-8.722,0.864,-5.276,-9.172,0.357,-5.2,9.24,15.89,1.82
,-8.488,0.605,-5.434,-9.112,0.684,-5.315,7.14,15.19,1.89
,-8.579,0.05,-5.238,-8.76,0.665,-5.231,6.3,14.77,2.38
,-9.024,-0.002,-5.085,-8.672,0.29,-5.044,9.45,14.21,2.45
12720.0,-8.691,-0.122,-4.685,-8.902,0.493,-5.384,4.83,9.24,0.56
,-8.789,-0.23,-4.575,-8.636,0.376,-5.303,6.37,9.1,1.05
,-8.811,0.048,-4.446,-8.263,-0.024,-4.982,9.1,8.4,1.12
,-8.94,0.447,-5.066,-8.457,-0.459,-4.415,10.15,6.93,1.05
12796.0,-8.763,-0.782,-4.243,-8.65,0.239,-4.159,2.94,7.42,4.34
,-9.072,-0.84,-3.977,-8.449,0.629,-4.274,6.65,7.21,5.39
,-9.385,-0.342,-4.075,-8.449,1.06,-4.379,10.22,5.81,6.37
,-8.978,0.074,-4.386,-8.784,1.469,-4.439,10.85,5.32,7.07
12871.0,-9.007,1.539,-4.544,-8.72,0.062,-4.037,8.19,4.9,5.53
,-8.954,1.314,-4.41,-8.902,0.034,-4.18,3.78,5.39,4.41
,-8.753,0.883,-4.279,-9.007,0.153,-4.257,-0.28,7.42,3.78
,-8.54,0.385,-4.133,-9.103,0.06,-4.204,-1.75,9.52,4.06
12947.0,-8.796,0.273,-4.233,-8.768,0.718,-4.769,5.39,9.03,5.11
,-8.715,0.428,-4.302,-8.638,0.763,-4.898,5.25,9.73,4.2
,-8.646,0.67,-4.635,-8.267,0.704,-4.963,4.48,9.73,3.22
,-8.78,0.797,-4.673,-8.167,0.376,-4.748,3.57,9.66,2.59
13022.0,-8.536,0.266,-4.343,-8.796,1.376,-4.731,-1.54,10.01,0.49
,-8.952,0.285,-4.494,-8.689,1.505,-4.829,2.17,10.22,0.21
,-9.088,0.495,-4.302,-8.741,1.481,-5.047,6.44,8.89,-0.77
,-8.993,1.134,-4.537,-8.758,1.649,-5.116,10.22,8.05,-1.47
13098.0,-8.684,1.721,-5.011,-8.93,0.546,-4.458,7.21,5.88,-7.14
,-8.416,1.598,-4.843,-8.705,0.309,-4.812,5.88,6.3,-9.45
,-8.449,1.29,-4.573,-8.385,-0.311,-4.908,6.02,7.49,-11.13
,-8.536,1.027,-4.551,-8.301,-0.83,-4.865,7.56,7.7,-12.32
13174.0,-8.387,-1.34,-4.915,-8.375,-0.304,-5.173,6.23,6.86,-6.37
,-8.555,-1.161,-5.183,-8.148,-0.38,-5.233,8.82,6.72,-4.41
,-8.49,-0.866,-5.243,-8.327,-0.538,-5.004,13.16,6.3,-3.5
,-8.571,-0.684,-4.953,-8.813,-0.335,-5.044,15.75,6.09,-2.8
13250.0,-8.835,-0.249,-5.027,-8.471,0.651,-5.415,10.71,5.81,1.47
,-9.043,0.223,-5.095,-8.145,0.538,-5.619,12.53,5.81,1.12
,-9.019,0.605,-5.233,-8.275,0.227,-5.511,14.21,4.69,0.49
,-8.911,0.852,-5.439,-8.433,-0.318,-5.272,13.3,3.57,-0.14
13326.0,-8.557,-0.665,-5.023,-8.61,-0.455,-4.98,12.04,6.16,4.2
,-8.701,-0.62,-5.054,-8.722,-0.299,-5.138,13.86,6.51,5.6
,-8.88,-0.682,-5.001,-9.076,0.124,-5.319,15.47,5.46,6.44
,-8.768,-0.462,-5.051,-8.93,0.292,-5.279,16.1,4.27,6.79
13401.0,-8.643,0.244,-5.377,-8.222,-0.5,-5.415,14.98,3.92,5.6
,-8.402,0.16,-5.415,-8.555,-0.206,-5.382,13.3,3.64,5.18
,-8.014,-0.005,-5.578,-8.67,0.084,-5.353,12.88,3.36,5.53
,-7.961,-0.168,-5.456,-8.571,0.613,-5.293,11.83,3.99,7.0
13477.0,-8.459,0.991,-5.473,-8.447,0.352,-5.585,12.53,3.29,5.46
,-8.579,0.943,-5.458,-8.581,0.05,-5.475,9.45,3.5,4.48
,-8.796,0.715,-5.463,-8.567,-0.433,-5.279,6.16,3.08,3.99
,-8.631,0.514,-5.396,-8.454,-0.479,-5.178,3.78,3.29,3.99
13553.0,-8.545,-0.347,-5.128,-8.306,0.558,-5.465,1.75,4.9,3.43
,-8.737,0.108,-5.233,-8.291,0.68,-5.549,3.01,4.76,3.64
,-8.871,0.548,-5.324,-8.222,0.787,-5.674,2.31,3.36,3.22
,-8.461,0.723,-5.492,-8.476,0.699,-5.652,0.07,3.29,2.59
13629.0,-8.854,0.426,-5.463,-8.433,0.778,-5.279,-8.19,3.36,1.75
,-8.868,0.318,-5.284,-8.311,1.098,-5.485,-8.82,3.57,1.47
,-8.815,0.122,-5.047,-8.346,1.328,-5.575,-9.03,4.06,1.47
,-8.674,0.28,-4.992,-8.54,1.113,-5.456,-8.19,3.64,1.68
13704.0,-8.892,0.759,-5.377,-8.39,-0.538,-5.437,-11.83,2.66,-2.17
,-8.887,0.469,-5.331,-8.516,-0.665,-5.437,-12.25,3.01,-2.87
,-8.813,0.038,-5.233,-8.459,-0.656,-5.353,-12.18,2.87,-3.08
,-8.567,-0.333,-5.348,-8.404,-0.704,-5.296,-11.41,2.59,-2.31
13780.0,-8.425,-0.634,-5.286,-8.44,-0.278,-5.714,-5.32,2.1,3.99
,-8.528,-0.546,-5.293,-8.392,-0.007,-5.736,-5.39,1.96,5.32
,-8.512,-0.392,-5.446,-8.519,0.287,-5.719,-4.97,1.4,6.51
,-8.356,-0.481,-5.523,-8.519,0.519,-5.659,-5.39,1.96,7.7
13855.0,-8.394,0.294,-5.451,-8.313,0.335,-5.281,0.07,0.07,10.78
,-8.603,0.369,-5.475,-8.433,0.964,-5.441,-0.91,0.0,11.41
,-8.631,0.311,-5.384,-8.476,1.082,-5.528,-2.03,-0.14,11.76
,-8.459,0.235,-5.391,-8.524,1.058,-5.499,-1.05,0.49,11.69
13931.0,-8.6,0.995,-5.609,-8.748,0.479,-5.398,2.45,-1.19,8.12
,-8.356,0.948,-5.733,-8.141,0.57,-5.351,1.4,-0.98,7.7
,-8.708,0.546,-5.406,-7.904,0.572,-5.422,1.19,-0.63,7.28
,-9.062,0.258,-5.166,-8.102,0.656,-5.262,1.26,-2.87,5.81
14007.0,-8.413,0.651,-5.276,-9.019,0.967,-5.066,5.46,-5.53,5.39
,-8.581,0.861,-5.303,-8.275,1.194,-5.434,6.79,-5.6,5.46
,-8.67,1.072,-5.284,-7.935,1.251,-5.185,7.63,-5.18,5.74
,-8.823,1.089,-5.166,-8.009,1.115,-5.032,7.56,-4.55,6.02
14083.0,-8.622,0.881,-4.702,-8.526,1.122,-4.932,-0.77,-8.05,2.73
,-8.825,1.007,-4.807,-8.504,0.926,-5.248,-0.42,-9.45,1.54
,-8.768,1.199,-4.81,-8.385,0.586,-5.016,-0.42,-9.94,0.7
,-8.571,1.06,-4.853,-8.691,0.378,-4.664,-2.94,-8.82,0.0
14158.0,-8.617,0.404,-4.628,-8.521,0.531,-4.858,-3.64,-9.8,-0.7
,-8.598,0.562,-4.759,-8.478,0.562,-4.829,-0.77,-9.45,-0.35
,-8.722,0.457,-4.812,-8.473,0.558,-4.922,0.35,-9.31,-0.07
,-8.753,0.469,-4.759,-8.576,0.581,-4.886,0.56,-9.38,0.49
14234.0,-8.701,0.763,-4.886,-8.725,0.577,-4.549,-0.49,-10.29,0.42
,-8.765,0.869,-4.8,-8.674,0.443,-4.599,0.07,-10.36,0.49
,-8.748,0.845,-4.685,-8.708,0.558,-4.578,-0.84,-10.71,0.28
,-8.658,0.727,-4.63,-8.677,0.816,-4.664,-2.17,-10.92,0.42
14310.0,-8.72,1.098,-4.654,-8.899,0.713,-4.118,1.61,-12.53,-1.54
,-8.734,1.433,-4.532,-8.964,0.38,-3.982,0.28,-12.67,-2.59
,-8.646,1.338,-4.401,-8.861,0.165,-3.68,-3.5,-12.95,-3.78
,-8.717,1.005,-4.08,-8.792,0.074,-3.769,-6.72,-12.95,-4.76
14386.0,-8.863,0.144,-3.757,-8.732,0.62,-4.329,-4.06,-10.78,-4.13
,-9.048,0.345,-3.92,-8.658,0.452,-4.216,-2.31,-11.06,-3.22
,-9.019,0.605,-4.056,-8.617,0.282,-4.013,-2.24,-10.99,-3.29
,-8.859,0.718,-4.259,-8.729,0.261,-3.766,-3.29,-10.78,-3.92
14462.0,-8.933,0.342,-3.599,-9.005,0.11,-3.745,-0.98,-8.96,-3.57
,-9.136,0.572,-3.726,-9.009,0.421,-4.006,-1.54,-8.68,-3.92
,-9.033,0.481,-3.723,-9.036,0.964,-4.101,-3.5,-8.12,-3.64
,-8.93,0.225,-3.587,-8.952,1.228,-4.18,-4.62,-7.35,-2.94
14537.0,-8.875,0.912,-3.944,-9.028,0.83,-3.994,-3.15,-6.72,-4.06
,-8.914,0.632,-4.034,-9.062,0.668,-3.8,-4.27,-6.44,-4.13
,-8.938,0.55,-3.953,-9.194,0.51,-3.656,-3.29,-6.44,-3.99
,-9.0,0.608,-4.159,-9.241,0.56,-3.518,-1.75,-6.86,-3.99
14613.0,-9.131,0.598,-3.743,-8.892,1.117,-4.367,-2.17,-4.69,-5.67
,-8.871,0.864,-3.697,-8.911,0.96,-3.965,-3.57,-4.9,-6.37
,-9.019,0.885,-4.051,-9.079,0.756,-3.958,-4.97,-5.32,-6.58
,-9.086,1.096,-4.434,-9.107,0.601,-3.692,-6.02,-6.09,-7.7
14688.0,-9.244,0.57,-3.711,-8.93,0.354,-3.704,-5.81,-6.51,-9.17
,-9.232,0.514,-3.735,-9.031,0.184,-3.609,-7.14,-6.65,-9.38
,-9.014,0.424,-3.719,-9.146,-0.06,-3.357,-7.14,-6.86,-9.31
,-8.976,0.488,-3.932,-9.131,-0.146,-3.18,-6.44,-6.72,-9.45
14764.0,-9.225,-0.043,-3.142,-9.186,0.424,-3.396,-1.96,-3.64,-6.65
,-9.275,0.115,-3.262,-9.22,0.352,-3.486,-1.61,-3.01,-6.3
,-9.332,0.321,-3.357,-9.208,0.285,-3.434,-1.26,-2.66,-5.74
,-9.299,0.426,-3.408,-9.17,0.56,-3.862,-1.47,-1.96,-5.25
14840.0,-9.11,0.538,-3.879,-8.911,0.261,-3.764,0.14,-0.21,-4.62
,-9.162,0.345,-3.625,-9.158,0.041,-3.477,-1.96,-0.35,-4.48
,-9.287,0.266,-4.068,-9.074,0.002,-3.637,-2.38,-0.49,-5.18
,-9.055,0.263,-3.977,-9.16,0.022,-3.36,-2.66,-0.98,-5.46
14916.0,-9.368,0.029,-3.123,-8.959,0.409,-4.116,-7.07,0.84,-4.69
,-9.385,-0.079,-3.183,-8.928,0.141,-4.089,-5.95,1.26,-4.41
,-9.256,0.337,-3.58,-9.028,0.034,-4.073,-2.87,1.4,-4.34
,-9.203,0.596,-4.022,-9.11,0.17,-4.063,-2.31,1.54,-4.48
14991.0,-8.954,0.337,-3.86,-9.095,0.201,-3.613,3.85,0.63,-2.45
,-9.143,0.445,-3.826,-9.095,0.211,-3.534,3.71,0.42,-2.45
,-9.261,0.505,-3.81,-9.081,0.261,-3.668,3.29,0.28,-2.66
,-9.237,0.412,-3.838,-9.007,0.383,-3.707,2.52,0.14,-2.8
15067.0,-8.985,0.378,-3.74,-9.249,-0.29,-3.314,7.84,0.49,-1.19
,-9.048,0.227,-3.762,-9.251,-0.29,-3.022,7.35,0.7,-1.12
,-8.985,-0.031,-3.726,-9.395,-0.146,-2.946,6.86,0.77,-0.84
,-9.036,-0.278,-3.508,-9.397,0.345,-3.23,7.21,1.26,-0.21
15143.0,-9.232,0.407,-3.427,-9.086,0.354,-4.3,5.6,4.9,0.77
,-9.107,0.091,-3.644,-9.031,0.51,-4.346,3.15,5.18,0.98
,-8.985,-0.148,-3.786,-9.043,0.579,-4.46,4.41,5.39,1.61
,-9.122,0.108,-4.192,-8.983,0.689,-4.477,7.49,5.18,1.82
15219.0,-9.002,0.455,-4.42,-9.234,0.089,-3.522,6.93,1.75,1.19
,-9.098,0.144,-4.245,-9.282,0.103,-3.515,7.0,1.33,1.26
,-9.167,0.072,-4.056,-9.294,0.335,-3.62,8.05,0.98,1.33
,-9.155,0.055,-3.776,-9.189,0.366,-3.776,8.19,0.56,1.26
15294.0,-9.043,0.218,-3.812,-9.225,0.175,-3.723,3.15,1.19,0.42
,-9.055,-0.024,-3.922,-9.246,0.258,-3.716,4.06,1.19,0.84
,-9.074,0.06,-3.953,-9.172,0.395,-3.778,5.95,1.12,1.19
,-9.124,0.129,-3.845,-9.139,0.335,-3.86,7.0,1.33,1.68
15370.0,-9.083,0.196,-3.872,-9.275,0.103,-3.355,4.83,1.05,0.98
,-9.098,0.163,-3.826,-9.359,0.187,-3.331,5.25,1.26,1.19
,-9.153,0.12,-3.652,-9.328,0.287,-3.472,5.81,1.47,1.54
,-9.206,0.077,-3.472,-9.294,0.199,-3.484,6.02,1.96,1.68
15446.0,-9.213,0.01,-3.623,-9.115,0.311,-3.944,2.31,3.99,1.12
,-9.143,0.072,-3.676,-9.028,0.294,-4.02,2.94,4.2,1.26
,-9.15,0.141,-3.8,-8.973,0.311,-4.156,3.57,4.48,1.33
,-9.153,0.244,-3.867,-8.964,0.33,-4.226,3.85,4.41,1.26
15521.0,-9.014,0.337,-4.317,-9.043,0.177,-4.216,3.92,3.15,0.84
,-9.043,0.311,-4.314,-8.99,0.211,-4.116,3.85,2.52,0.63
,-9.052,0.23,-4.264,-9.067,0.285,-4.022,3.43,1.89,0.49
,-9.072,0.189,-4.286,-9.136,0.23,-3.965,3.5,1.4,0.35
15597.0,-9.146,0.16,-3.924,-9.172,0.163,-3.869,1.75,0.21,0.0
,-9.115,0.177,-3.872,-9.076,0.172,-3.9,1.61,0.0,-0.28
,-9.172,0.182,-3.896,-9.088,0.196,-3.896,1.33,0.07,-0.49
,-9.172,0.168,-3.891,-9.04,0.196,-3.786,0.84,-0.07,-0.63
15673.0,-9.107,0.194,-3.821,-9.134,-0.053,-3.802,0.91,-0.28,-0.14
,-9.107,0.11,-3.743,-9.158,-0.029,-3.757,0.63,-0.07,-0.14
,-9.105,0.045,-3.81,-9.139,0.12,-3.829,0.7,0.0,0.07
,-9.167,-0.026,-3.781,-9.093,0.091,-3.757,0.84,0.0,0.28
15749.0,-9.136,0.213,-3.728,-9.069,0.22,-3.96,1.68,0.56,1.05
,-9.174,0.227,-3.716,-9.095,0.223,-3.967,0.91,0.63,0.91
,-9.167,0.211,-3.74,-9.069,0.189,-4.011,0.28,0.77,0.84
,-9.107,0.208,-3.905,-9.074,0.223,-3.972,-0.14,0.63,0.84
15824.0,-9.088,0.206,-3.855,-9.244,0.062,-3.69,1.19,0.0,1.47
,-9.112,0.153,-3.695,-9.22,0.12,-3.814,1.05,-0.07,1.61
,-9.129,-0.002,-3.585,-9.021,0.045,-3.788,1.33,0.21,1.96
,-9.208,0.024,-3.606,-9.057,0.014,-3.752,1.82,0.42,2.1
15900.0,-9.05,-0.017,-3.652,-9.206,0.213,-3.498,3.29,1.26,3.15
,-9.146,0.06,-3.472,-9.222,0.105,-3.676,4.06,1.61,3.57
,-9.268,0.165,-3.446,-9.131,0.136,-3.754,4.48,2.1,3.64
,-9.227,0.261,-3.498,-9.139,0.158,-3.81,3.85,2.24,3.5
15976.0,-9.182,-0.014,-3.795,-8.993,0.44,-4.073,0.28,3.01,3.85
,-9.232,-0.007,-3.788,-8.981,0.426,-4.267,0.28,3.29,3.08
,-9.203,0.163,-3.891,-8.949,0.342,-4.267,0.28,3.29,2.45
,-9.074,0.352,-3.86,-8.916,0.208,-4.212,-0.63,3.01,2.38
16052.0,-8.957,0.134,-4.154,-9.304,0.584,-3.453,1.4,1.96,4.62
,-8.942,0.168,-3.896,-9.229,0.491,-3.611,3.57,2.17,5.46
,-9.134,0.258,-3.486,-9.15,0.191,-3.723,4.9,2.24,6.02
,-9.344,0.414,-3.419,-9.045,-0.029,-3.544,4.83,2.73,5.81
16127.0,-9.21,-0.141,-3.592,-9.155,0.799,-3.441,-3.01,3.71,4.2
,-9.251,0.036,-3.64,-9.136,0.938,-3.369,-0.07,3.78,4.06
,-9.206,0.378,-3.611,-9.165,0.787,-3.568,2.31,3.99,4.41
,-9.17,0.608,-3.501,-9.095,0.455,-3.403,2.8,4.06,4.55
16203.0,-9.107,0.385,-3.553,-8.861,0.081,-4.018,-2.03,6.09,3.5
,-9.1,0.426,-3.821,-8.966,-0.053,-3.731,-1.61,5.67,3.22
,-9.062,0.302,-4.003,-9.148,-0.055,-3.917,-1.82,5.67,3.29
,-9.043,0.132,-4.061,-9.158,0.055,-3.841,-1.89,5.6,3.29
16278.0,-9.162,0.187,-3.967,-9.081,1.479,-4.063,11.62,7.0,6.44
,-9.143,0.385,-3.707,-9.162,1.302,-4.118,13.02,7.77,7.0
,-9.213,0.601,-3.465,-9.143,0.866,-3.838,14.56,8.26,7.07
,-9.024,1.228,-3.893,-9.05,0.239,-4.087,14.35,8.05,5.74
16354.0,-8.859,-0.012,-4.221,-9.024,0.345,-3.522,-0.84,6.09,1.26
,-8.804,-0.201,-4.094,-9.153,0.967,-3.62,2.03,6.51,2.31
,-8.856,-0.244,-3.79,-9.167,1.491,-3.946,6.65,7.14,3.43
,-9.014,-0.153,-3.408,-9.105,1.651,-4.286,13.44,8.4,4.83
16430.0,-8.966,1.476,-4.566,-8.949,0.481,-3.979,4.69,6.86,3.08
,-8.985,1.204,-4.484,-8.89,0.237,-4.317,0.98,6.58,1.4
,-8.93,1.201,-4.413,-8.842,-0.108,-4.391,-0.84,6.72,-0.77
,-8.921,1.041,-4.259,-8.933,-0.28,-4.353,-2.94,6.72,-2.59
16506.0,-8.844,-0.177,-4.159,-9.129,0.905,-4.281,-2.24,6.72,-0.14
,-8.813,-0.414,-3.673,-9.074,0.881,-4.81,-0.49,8.68,1.26
,-9.028,-0.055,-3.427,-8.878,0.438,-4.838,4.06,9.24,1.68
,-9.064,0.651,-3.903,-8.76,-0.335,-4.353,6.3,7.63,1.05
16582.0,-8.653,-0.665,-4.013,-8.894,0.981,-3.553,0.21,6.37,0.91
,-8.691,-0.462,-3.783,-8.832,1.12,-3.63,8.05,7.49,1.47
,-9.007,0.05,-3.623,-8.957,1.321,-3.774,15.33,8.47,2.52
,-9.031,0.692,-3.522,-9.136,1.5,-3.85,18.06,9.38,3.22
16657.0,-9.265,1.271,-3.728,-8.813,0.704,-4.683,4.55,11.48,1.33
,-9.241,1.06,-3.855,-8.598,0.598,-4.695,1.75,11.41,-0.35
,-9.172,0.732,-4.008,-8.696,0.268,-4.731,-0.42,10.78,-1.96
,-9.091,0.622,-4.267,-8.71,-0.074,-4.439,-2.59,10.01,-2.8
16733.0,-8.844,-0.019,-4.405,-8.387,0.098,-4.85,1.05,13.16,-0.28
,-8.93,0.302,-4.511,-8.339,-0.273,-4.503,3.71,12.81,-0.21
,-8.921,0.641,-4.75,-8.591,-0.416,-4.123,3.99,12.04,-0.28
,-8.593,0.541,-4.91,-9.019,-0.299,-3.857,1.75,11.69,-0.14
16809.0,-9.232,-0.029,-4.061,-9.088,0.364,-4.587,7.77,13.72,3.36
,-9.043,0.261,-4.46,-8.629,0.668,-4.635,7.77,12.6,3.99
,-8.768,0.421,-4.721,-8.263,0.885,-4.721,6.44,11.9,4.97
,-8.94,0.239,-4.649,-8.232,1.005,-4.946,4.2,11.97,5.46
16885.0,-8.593,0.924,-4.91,-8.739,0.316,-4.444,4.2,11.34,1.19
,-8.801,0.84,-4.697,-8.689,0.589,-4.47,3.15,11.13,0.77
,-8.866,0.663,-4.549,-8.655,0.972,-4.769,2.17,11.76,0.77
,-8.823,0.376,-4.391,-8.421,1.089,-4.96,1.54,11.97,0.63
16960.0,-8.256,1.041,-4.949,-8.356,0.897,-4.611,5.39,11.69,-1.33
,-8.313,0.778,-4.774,-8.366,0.436,-4.439,4.06,12.95,-1.61
,-8.648,0.605,-4.609,-8.545,-0.292,-4.415,4.41,13.09,-2.45
,-8.507,0.907,-4.757,-9.064,-0.84,-4.429,7.35,12.32,-3.85
17036.0,-9.253,-1.053,-4.826,-7.952,-0.859,-5.434,9.1,11.27,0.07
,-8.646,-1.364,-4.97,-8.385,-0.371,-5.173,10.08,10.5,0.98
,-8.028,-1.541,-5.303,-8.598,0.244,-5.341,13.86,10.43,2.52
,-7.789,-1.335,-5.64,-8.897,1.141,-5.296,18.62,10.64,4.9
17111.0,-8.571,1.266,-5.262,-8.39,1.206,-4.984,21.0,7.91,4.41
,-8.55,1.869,-5.422,-8.421,0.634,-4.843,18.62,7.42,2.52
,-8.488,1.855,-5.408,-8.612,0.96,-5.188,16.31,7.91,0.63
,-8.528,1.764,-5.305,-8.722,1.268,-5.489,12.32,8.4,-0.28
17187.0,-8.662,1.33,-5.666,-8.177,-0.467,-6.083,18.97,7.42,-1.82
,-8.526,1.405,-5.745,-8.375,-0.864,-5.963,18.06,7.0,-2.8
,-8.43,0.926,-5.887,-8.263,-1.235,-6.135,14.98,6.79,-3.64
,-8.284,0.067,-5.925,-8.315,-1.634,-5.879,11.69,6.3,-3.29
17263.0,-8.43,-1.816,-5.738,-8.595,0.0,-5.396,14.07,2.38,5.53
,-8.346,-1.503,-5.86,-8.603,0.888,-5.296,15.19,1.19,7.42
,-8.399,-1.18,-5.631,-8.502,1.417,-5.3,15.96,1.61,9.03
,-8.603,-0.641,-5.449,-8.449,1.91,-5.458,16.59,1.19,9.87
17339.0,-8.612,1.534,-5.267,-8.519,0.416,-5.257,10.57,0.49,6.51
,-8.921,1.414,-5.173,-8.428,0.187,-5.315,10.36,-0.77,5.32
,-8.804,1.125,-5.31,-8.277,-0.053,-5.434,9.59,-1.54,4.41
,-8.552,0.842,-5.37,-8.445,-0.266,-5.403,9.8,-0.91,3.57
17414.0,-8.409,-0.409,-5.441,-8.526,-0.002,-5.64,12.53,1.68,4.06
,-8.361,-0.433,-5.671,-8.454,-0.275,-5.413,12.53,1.75,4.69
,-8.552,-0.287,-5.611,-8.425,-0.357,-5.296,11.76,1.26,5.11
,-8.576,0.05,-5.628,-8.521,-0.22,-5.398,10.29,0.49,5.04
17490.0,-8.588,-0.053,-5.52,-8.234,0.215,-5.432,6.16,0.7,6.37
,-8.61,0.129,-5.568,-8.239,0.397,-5.305,6.09,0.63,6.86
,-8.55,0.28,-5.564,-8.495,0.589,-5.233,5.32,0.28,7.0
,-8.356,0.218,-5.475,-8.78,0.936,-5.26,4.2,0.0,7.28
17566.0,-8.906,1.304,-5.264,-8.423,1.273,-5.035,4.69,0.84,3.71
,-8.765,1.673,-5.236,-8.607,0.95,-5.013,3.15,1.05,2.24
,-8.772,1.878,-5.001,-8.787,0.364,-5.334,0.0,1.12,0.35
,-8.588,1.759,-5.08,-8.629,0.318,-5.351,-4.62,0.7,-1.33
17642.0,-8.354,-0.378,-5.394,-8.531,-0.723,-5.504,-10.43,1.61,-3.22
,-8.392,-0.826,-5.453,-8.418,-0.967,-5.439,-8.82,2.31,-1.4
,-8.469,-0.794,-5.513,-8.485,-0.771,-5.645,-5.32,2.31,0.49
,-8.559,-0.763,-5.681,-8.248,-0.598,-5.824,-2.45,2.1,1.89
17718.0,-8.117,-0.268,-5.808,-8.827,1.046,-5.324,-3.01,0.98,9.59
,-8.253,0.177,-5.683,-8.653,1.074,-5.298,-2.45,1.05,10.43
,-8.61,0.512,-5.463,-8.397,1.144,-5.556,-3.01,0.21,10.01
,-8.827,0.866,-5.384,-8.267,0.854,-5.468,-3.85,-1.19,9.24
17793.0,-8.138,0.701,-5.686,-8.327,0.665,-5.422,-6.16,-2.03,4.55
,-8.457,0.651,-5.659,-8.344,0.589,-5.303,-3.5,-3.01,3.92
,-8.603,0.718,-5.743,-8.581,0.467,-5.298,-0.7,-4.55,3.5
,-8.488,0.79,-5.595,-8.653,0.33,-5.374,0.0,-4.97,3.15
17869.0,-8.844,0.203,-5.475,-8.114,0.335,-5.303,-0.63,-6.58,1.19
,-8.897,0.041,-5.437,-7.925,0.603,-5.384,-0.98,-6.79,1.47
,-8.758,-0.029,-5.358,-8.095,0.768,-5.31,-0.56,-6.86,2.03
,-8.5,0.036,-5.303,-8.373,0.826,-5.267,0.35,-7.21,2.45
17944.0,-8.557,0.916,-5.181,-8.502,0.565,-4.633,-3.92,-11.69,1.05
,-8.65,0.811,-5.13,-8.76,1.098,-4.836,-5.74,-12.18,1.05
,-8.449,0.694,-4.977,-9.005,1.431,-5.458,-5.88,-11.41,1.19
,-8.423,0.72,-4.716,-8.703,1.689,-5.719,-4.41,-10.64,1.47
18020.0,-8.756,1.302,-5.25,-8.674,0.44,-4.53,-2.1,-12.25,-2.31
,-8.667,0.782,-4.724,-8.756,0.548,-4.558,-7.07,-12.18,-2.94
,-8.648,0.323,-4.324,-8.782,0.632,-4.599,-8.26,-12.25,-2.59
,-8.612,0.292,-4.245,-8.705,0.39,-4.707,-6.58,-11.69,-1.89
18096.0,-8.777,0.249,-4.587,-8.418,0.522,-4.226,-2.73,-10.36,0.07
,-8.83,-0.146,-4.544,-8.753,0.392,-4.274,-3.64,-11.06,-0.49
,-8.71,0.01,-4.456,-8.746,0.629,-4.302,-3.99,-12.53,-1.89
,-8.277,0.4,-4.381,-8.758,0.895,-4.302,-3.29,-12.95,-2.24
18172.0,-8.784,0.881,-4.264,-8.99,0.962,-4.353,-3.64,-11.27,-1.12
,-8.825,0.663,-4.25,-9.067,0.787,-4.288,-3.85,-10.71,-1.33
,-8.93,0.67,-4.13,-8.792,0.708,-4.159,-2.38,-10.5,-1.05
,-8.921,0.895,-4.324,-8.72,0.574,-3.989,-0.77,-10.64,-0.35
18247.0,-8.772,0.558,-4.111,-8.954,0.61,-4.243,-5.39,-10.43,-4.41
,-8.823,0.759,-4.31,-8.863,0.529,-4.171,-5.74,-11.2,-5.39
,-8.737,0.893,-4.499,-8.813,0.553,-4.19,-7.28,-11.62,-5.46
,-8.882,0.768,-4.393,-8.777,0.459,-4.171,-8.33,-11.62,-5.39
18323.0,-8.732,0.292,-4.118,-9.064,0.201,-3.855,-4.27,-11.69,-3.29
,-8.954,0.11,-4.075,-9.05,0.163,-3.953,-3.92,-12.04,-2.03
,-9.172,0.074,-3.994,-9.028,0.421,-3.927,-2.59,-12.18,-1.33
,-9.256,0.148,-3.927,-9.026,0.916,-3.886,-1.4,-11.83,-1.54
18398.0,-8.902,1.134,-4.288,-9.036,0.251,-3.412,-3.08,-13.51,-6.02
,-8.859,1.086,-4.137,-9.127,0.172,-3.247,-4.9,-13.09,-6.51
,-8.801,0.952,-3.836,-9.225,0.323,-3.324,-5.88,-12.67,-6.93
,-8.873,0.658,-3.475,-9.206,0.467,-3.79,-6.09,-11.83,-6.86
18474.0,-9.002,0.354,-3.673,-9.019,0.526,-3.36,-3.15,-10.5,-4.27
,-9.124,0.318,-3.458,-9.203,0.373,-3.57,-2.94,-9.87,-3.57
,-9.234,0.196,-3.269,-9.289,0.191,-3.154,-2.24,-9.52,-3.15
,-9.162,0.357,-3.652,-9.328,0.479,-3.47,-1.19,-9.24,-3.43
18550.0,-9.342,0.976,-3.635,-9.328,-0.526,-2.895,1.4,-8.33,-4.9
,-9.093,1.079,-3.673,-9.634,-0.187,-2.936,-1.47,-8.33,-5.74
,-8.875,0.593,-3.704,-9.55,0.189,-2.594,-5.04,-7.98,-6.16
,-8.926,-0.086,-3.271,-9.505,0.519,-2.721,-5.32,-7.21,-5.25
18626.0,-9.383,0.436,-2.931,-9.141,0.471,-3.599,-3.99,-3.57,-4.69
,-9.229,0.287,-3.163,-9.375,0.481,-3.518,-5.6,-3.01,-4.62
,-8.933,0.184,-3.252,-9.428,0.483,-3.455,-4.69,-2.45,-4.06
,-8.964,0.211,-3.652,-9.301,0.708,-3.477,-2.66,-1.89,-3.5
18702.0,-9.34,0.842,-4.013,-9.191,-0.239,-3.285,1.54,-2.24,-4.27
,-9.067,0.704,-4.097,-9.227,-0.024,-2.96,0.28,-2.52,-4.76
,-8.859,0.163,-3.711,-9.34,0.036,-2.91,-0.14,-2.45,-4.2
,-8.978,-0.23,-3.357,-9.359,-0.115,-2.757,1.96,-2.52,-3.43
18777.0,-9.366,0.036,-2.883,-9.275,-0.191,-2.726,5.81,1.26,-2.59
,-9.222,0.151,-3.058,-9.404,0.038,-2.747,4.69,2.31,-3.01
,-9.112,-0.005,-2.845,-9.347,0.354,-2.706,4.83,3.22,-1.96
,-9.189,-0.23,-2.912,-9.483,0.687,-2.989,6.65,4.27,-0.63
18853.0,-9.502,0.689,-3.264,-9.177,0.139,-3.826,9.66,7.77,2.03
,-9.306,0.565,-3.532,-9.22,0.39,-4.039,6.23,7.77,1.61
,-9.165,0.124,-3.642,-9.213,0.565,-4.063,4.97,7.98,1.75
,-9.086,-0.139,-3.668,-9.122,0.57,-4.233,6.93,8.12,2.66
18929.0,-9.062,0.402,-4.212,-9.127,0.072,-3.774,7.0,5.81,2.24
,-9.064,0.254,-4.14,-9.184,0.237,-3.857,7.14,5.18,2.1
,-9.136,0.196,-4.02,-9.165,0.443,-3.932,7.77,5.11,1.96
,-9.115,0.105,-3.946,-9.194,0.397,-3.862,8.75,4.76,2.17
19005.0,-9.162,0.251,-3.716,-9.172,0.263,-3.613,8.4,3.57,1.89
,-9.165,0.148,-3.577,-9.146,0.227,-3.475,8.54,3.92,2.1
,-9.16,0.254,-3.515,-9.268,0.227,-3.494,8.89,3.92,1.89
,-9.213,0.316,-3.623,-9.217,0.352,-3.587,7.91,3.71,1.54
19080.0,-9.194,0.402,-3.568,-9.32,0.349,-3.838,6.09,4.9,1.54
,-9.172,0.345,-3.597,-9.196,0.471,-4.149,4.34,5.04,1.47
,-9.143,0.218,-3.673,-9.086,0.469,-4.281,3.15,5.11,1.33
,-9.227,0.153,-3.611,-9.024,0.266,-4.348,2.66,5.11,1.33
19156.0,-9.028,0.112,-4.293,-9.206,0.421,-4.003,0.49,2.66,0.49
,-9.06,0.156,-4.25,-9.206,0.292,-3.987,2.38,2.31,0.84
,-9.117,0.361,-4.245,-9.117,0.27,-3.857,3.29,1.75,0.77
,-9.148,0.426,-4.08,-9.222,0.098,-3.924,3.15,1.12,0.56
19231.0,-9.124,0.251,-3.826,-9.225,0.196,-3.793,-0.98,0.07,-2.38
,-9.093,0.287,-3.597,-9.107,0.294,-3.699,-1.47,0.07,-2.17
,-9.117,0.179,-3.52,-9.117,0.038,-3.544,-1.75,0.14,-1.89
,-9.15,0.093,-3.599,-9.182,-0.134,-3.477,-0.56,0.14,-1.26
19307.0,-9.253,-0.103,-3.391,-9.134,0.562,-3.819,3.99,1.61,1.33
,-9.335,0.168,-3.527,-9.069,0.505,-3.905,4.69,1.68,1.54
,-9.299,0.397,-3.546,-9.083,0.395,-3.874,4.06,1.82,1.54
,-9.234,0.505,-3.649,-9.167,0.263,-3.8,2.8,2.03,1.47
19383.0,-9.182,0.235,-3.833,-9.186,0.235,-3.644,2.38,1.47,1.26
,-9.201,0.33,-3.764,-9.191,0.364,-3.697,2.45,1.61,1.4
,-9.179,0.251,-3.721,-9.217,0.407,-3.795,1.75,1.54,1.19
,-9.167,0.191,-3.568,-9.158,0.299,-3.774,1.12,1.54,1.12
19459.0,-9.103,0.182,-3.69,-9.234,0.361,-3.869,-0.91,2.17,0.35
,-9.119,0.043,-3.63,-9.081,0.359,-3.934,-0.07,2.59,0.7
,-9.162,0.093,-3.692,-9.045,0.213,-4.025,1.05,2.8,0.91
,-9.28,0.237,-3.757,-9.16,0.129,-4.044,1.54,2.73,0.98
19534.0,-9.208,0.108,-3.991,-9.153,0.409,-3.743,1.33,1.68,1.19
,-9.229,0.215,-3.874,-9.093,0.436,-3.826,2.24,1.33,1.26
,-9.227,0.232,-3.762,-9.098,0.373,-3.891,2.87,1.33,1.47
,-9.213,0.302,-3.707,-9.098,0.309,-3.898,3.36,1.19,1.47
19610.0,-9.048,0.237,-3.932,-9.208,0.146,-3.764,0.91,0.77,0.63
,-9.057,0.165,-3.879,-9.232,0.352,-3.668,1.4,0.7,0.91
,-9.057,0.117,-3.927,-9.251,0.522,-3.759,1.96,0.56,1.12
,-9.06,0.036,-3.723,-9.237,0.464,-3.766,2.52,0.56,1.47
19686.0,-9.172,0.431,-3.676,-9.251,0.309,-3.585,0.91,0.63,1.12
,-9.177,0.371,-3.685,-9.229,0.424,-3.632,0.77,0.77,0.98
,-9.184,0.311,-3.702,-9.17,0.562,-3.762,1.26,0.91,1.05
,-9.215,0.354,-3.589,-9.074,0.498,-3.869,1.75,1.19,1.19
19762.0,-9.026,0.371,-3.9,-9.263,0.22,-3.331,-2.17,0.91,-0.21
,-9.076,0.213,-3.872,-9.34,0.337,-3.331,-1.68,1.05,-0.07
,-9.079,0.165,-3.738,-9.28,0.414,-3.475,-0.98,1.12,0.21
,-9.146,0.165,-3.568,-9.17,0.309,-3.506,-0.28,1.47,0.35
19838.0,-9.095,0.172,-3.702,-9.009,0.486,-4.386,-4.27,3.15,0.28
,-9.165,0.213,-3.812,-9.007,0.297,-4.331,-2.87,3.29,0.49
,-9.217,0.455,-4.025,-9.048,0.275,-4.247,-1.68,2.87,0.35
,-9.153,0.57,-4.314,-9.093,0.373,-4.312,-1.89,2.31,0.0
19913.0,-9.028,0.474,-4.255,-9.16,0.39,-3.766,1.75,-0.7,0.49
,-9.04,0.33,-4.058,-9.194,0.352,-3.778,1.19,-1.33,0.49
,-9.115,0.103,-3.912,-9.127,0.098,-3.793,1.19,-1.68,0.49
,-9.141,0.237,-3.903,-9.091,0.041,-3.716,2.03,-1.75,0.28
19989.0,-9.162,0.065,-3.632,-9.194,0.313,-3.259,3.99,-1.47,1.75
,-9.194,0.158,-3.551,-9.213,0.115,-3.173,5.11,-1.26,2.03
,-9.215,0.347,-3.486,-9.258,0.062,-3.273,5.88,-1.05,2.31
,-9.229,0.416,-3.412,-9.16,0.081,-3.348,5.81,-0.84,2.73
20064.0,-9.122,0.16,-3.417,-9.251,0.56,-3.427,5.18,1.89,3.92
,-9.148,0.225,-3.582,-9.294,0.601,-3.278,5.39,1.82,3.78
,-9.117,0.313,-3.525,-9.395,0.768,-3.125,5.95,2.24,3.78
,-9.184,0.419,-3.537,-9.325,0.969,-3.077,6.58,2.87,3.43
20140.0,-9.206,0.952,-3.128,-9.249,0.44,-4.214,1.68,5.46,0.35
,-9.198,0.646,-3.329,-8.973,0.402,-4.424,-0.98,5.67,0.21
,-9.184,0.438,-3.388,-8.923,0.16,-4.381,-1.61,5.95,0.49
,-9.251,0.436,-3.573,-8.988,-0.089,-4.389,-1.89,5.95,0.49
20216.0,-9.019,-0.304,-4.403,-9.304,1.005,-3.388,0.21,3.64,1.4
,-9.016,-0.27,-4.025,-9.237,1.086,-3.711,4.83,3.64,2.52
,-9.172,0.129,-3.64,-9.139,0.744,-3.991,10.36,3.71,3.08
,-9.273,0.646,-3.611,-9.055,0.285,-4.125,13.51,3.64,2.52
20292.0,-8.997,-0.077,-3.975,-9.076,0.223,-3.379,1.47,2.8,1.68
,-8.949,-0.256,-3.759,-9.136,-0.019,-3.594,2.03,3.36,1.12
,-9.172,-0.146,-3.577,-9.021,-0.287,-3.946,3.36,3.57,0.35
,-9.107,0.237,-3.618,-8.945,-0.129,-3.908,3.29,3.78,-0.56
20367.0,-9.048,0.311,-3.917,-8.945,0.936,-3.46,11.83,3.64,2.87
,-9.289,0.799,-4.133,-9.036,0.668,-3.321,14.7,4.13,2.94
,-9.155,0.926,-3.664,-9.344,0.459,-3.616,15.19,4.76,3.5
,-9.062,0.986,-3.769,-9.395,0.024,-3.671,13.93,5.18,3.01
20443.0,-9.287,-0.215,-3.812,-9.316,0.177,-3.369,-0.14,4.9,0.0
,-8.792,-0.447,-3.348,-9.301,0.333,-3.52,1.19,6.58,1.19
,-8.734,-0.534,-3.214,-9.131,0.196,-3.463,4.9,8.26,2.1
,-9.036,-0.22,-3.24,-9.026,0.096,-2.977,9.38,8.89,2.87
20519.0,-9.079,0.275,-2.982,-8.732,0.658,-4.113,11.9,13.16,5.25
,-9.06,0.845,-3.192,-8.787,-0.031,-3.843,12.04,12.6,3.5
,-9.289,1.304,-3.74,-8.875,-0.041,-3.877,8.26,11.27,1.19
,-8.942,1.414,-4.173,-8.94,0.242,-3.991,1.12,10.92,-0.14
20595.0,-9.148,0.347,-4.082,-8.938,0.83,-3.989,6.58,13.37,0.84
,-9.15,0.378,-4.037,-8.871,1.062,-3.991,7.42,13.51,0.98
,-8.971,0.416,-4.066,-8.993,1.211,-4.164,7.42,14.07,0.56
,-8.952,0.517,-3.848,-9.019,1.247,-4.35,8.05,14.84,0.63
20671.0,-9.067,0.864,-4.448,-8.842,0.794,-4.073,2.03,13.02,-2.45
,-8.894,0.905,-4.417,-9.112,0.57,-4.075,1.26,13.44,-2.94
,-8.703,0.873,-4.188,-9.112,0.44,-4.295,1.26,14.49,-3.78
,-8.804,0.89,-4.087,-8.835,0.093,-4.391,1.47,14.63,-5.32
20746.0,-8.713,-0.572,-4.104,-8.897,-0.383,-5.006,-3.43,16.17,-4.62
,-8.782,-0.905,-3.759,-8.583,-0.304,-5.049,-1.12,17.29,-2.8
,-8.777,-0.859,-4.161,-8.423,-0.402,-4.807,3.36,17.36,-1.26
,-8.839,-0.68,-4.518,-8.502,-0.409,-4.688,6.58,16.17,-0.21
20822.0,-8.562,-0.012,-4.707,-8.748,-0.16,-4.941,7.42,13.51,1.26
,-8.583,0.273,-4.939,-8.878,-0.412,-4.657,8.12,12.81,1.75
,-8.571,0.244,-5.171,-8.789,-0.414,-4.884,6.65,12.18,2.52
,-8.667,0.045,-5.083,-8.507,-0.337,-5.147,4.55,12.04,3.08
20897.0,-8.552,-0.467,-5.142,-8.66,0.412,-4.781,11.62,11.41,6.93
,-8.648,-0.194,-5.092,-8.54,0.684,-4.602,13.51,9.94,7.28
,-8.607,0.036,-5.154,-8.708,1.084,-4.52,14.42,8.89,7.21
,-8.519,0.182,-5.037,-8.571,1.158,-4.566,14.0,9.03,6.79
20973.0,-8.574,0.974,-4.494,-8.624,0.175,-4.87,9.87,9.45,1.54
,-8.636,0.699,-4.664,-8.557,-0.258,-5.111,6.58,9.31,1.82
,-8.662,0.584,-4.716,-8.48,-0.763,-4.841,5.88,9.1,1.89
,-8.801,0.603,-5.035,-8.705,-1.486,-4.255,7.84,8.82,2.52
21049.0,-8.552,-1.015,-4.413,-8.583,0.581,-5.465,17.5,9.03,3.64
,-8.251,-1.163,-4.733,-8.586,0.988,-5.439,20.51,9.87,5.46
,-8.327,-0.866,-4.759,-8.82,1.354,-5.394,22.82,10.08,7.21
,-8.55,-0.225,-5.123,-8.894,1.589,-5.358,25.06,8.75,8.33
21125.0,-9.04,1.843,-5.305,-8.229,0.694,-5.827,14.77,5.32,1.05
,-8.878,1.811,-5.363,-8.545,0.194,-5.695,11.27,3.92,-0.7
,-8.547,1.68,-5.58,-8.684,-0.007,-5.518,6.58,2.52,-1.54
,-8.169,1.204,-5.674,-8.646,-0.067,-5.676,3.08,3.57,-1.61
21200.0,-8.727,-0.369,-5.623,-8.267,-0.725,-5.315,6.16,1.61,1.33
,-8.732,-0.663,-5.657,-8.239,-0.639,-5.245,5.6,1.4,2.1
,-8.631,-0.835,-5.511,-8.229,-0.256,-5.169,5.25,1.4,2.73
,-8.349,-1.05,-5.334,-8.351,-0.23,-5.097,5.39,1.89,3.15
21276.0,-8.547,0.01,-5.027,-8.744,0.325,-4.939,5.95,2.1,7.84
,-8.808,0.273,-4.951,-8.892,0.471,-4.855,5.95,1.61,7.84
,-8.842,0.187,-4.946,-8.748,0.782,-5.09,4.9,1.19,7.14
,-8.677,0.244,-4.901,-8.447,0.749,-5.095,5.6,1.54,6.37
21352.0,-8.277,0.756,-4.882,-8.679,-0.101,-5.071,9.1,1.54,4.62
,-8.311,0.589,-5.025,-8.643,-0.213,-5.087,7.28,1.61,4.62
,-8.492,0.371,-5.097,-8.741,-0.175,-4.91,6.23,1.26,4.48
,-8.521,0.019,-4.963,-8.545,-0.012,-5.178,7.0,1.47,5.18
21428.0,-8.502,0.014,-5.236,-8.406,0.928,-5.394,9.24,2.59,6.51
,-8.33,-0.213,-5.341,-8.543,0.936,-5.274,9.31,2.87,7.07
,-8.418,-0.182,-5.219,-8.614,0.993,-5.317,9.73,2.87,7.98
,-8.411,0.369,-5.418,-8.796,1.094,-5.384,11.48,2.94,8.26
21503.0,-8.76,0.919,-5.296,-8.691,-0.06,-5.353,2.87,3.08,2.8
,-8.375,0.804,-5.329,-8.722,-0.373,-5.379,0.49,3.15,2.03
,-8.279,0.637,-5.425,-8.638,-0.325,-5.339,-0.98,3.92,1.26
,-8.43,0.488,-5.401,-8.555,-0.208,-5.449,-2.24,4.34,0.91
21579.0,-8.54,-0.165,-5.518,-8.722,0.775,-5.547,-2.8,4.13,4.34
,-8.617,-0.026,-5.599,-8.67,0.821,-5.492,-2.66,4.27,4.76
,-8.667,0.495,-5.662,-8.629,0.988,-5.525,-1.96,3.92,4.55
,-8.681,0.895,-5.676,-8.586,0.945,-5.518,-3.15,2.8,4.13
21654.0,-8.756,0.986,-5.599,-8.413,0.455,-5.456,-9.45,1.4,1.61
,-8.753,0.893,-5.566,-8.32,0.34,-5.525,-9.1,1.54,1.26
,-8.677,0.727,-5.58,-8.315,0.514,-5.578,-8.4,0.91,0.7
,-8.485,0.653,-5.611,-8.404,0.486,-5.468,-7.91,0.35,0.56
21730.0,-8.423,0.285,-5.401,-8.667,-0.053,-5.264,-4.83,-0.98,0.84
,-8.567,0.282,-5.406,-8.66,-0.38,-5.116,-4.69,-1.54,0.98
,-8.579,0.304,-5.489,-8.78,-0.445,-5.106,-4.9,-1.54,1.75
,-8.631,-0.261,-5.604,-8.904,-0.313,-4.884,-5.18,-1.54,2.8
21806.0,-8.753,0.567,-5.226,-8.485,0.826,-5.243,-3.08,-2.8,4.76
,-8.402,0.802,-5.391,-8.476,0.861,-5.3,-4.55,-2.52,3.92
,-8.39,0.637,-5.336,-8.449,0.732,-5.245,-6.58,-2.52,3.36
,-8.497,0.802,-5.329,-8.447,0.67,-5.329,-7.21,-2.94,2.59
21882.0,-8.655,0.615,-5.123,-8.875,0.938,-5.095,-1.19,-4.48,-0.49
,-8.442,0.684,-5.039,-9.012,0.735,-5.037,0.98,-3.92,-0.91
,-8.373,0.828,-5.032,-8.313,0.593,-5.195,3.43,-3.15,-1.05
,-8.559,0.94,-5.097,-7.849,0.218,-5.066,5.46,-3.15,-1.33
21958.0,-7.944,-0.112,-5.011,-8.885,0.538,-4.884,1.75,-5.88,-1.19
,-8.363,-0.105,-5.049,-8.653,0.498,-4.891,4.76,-6.65,-0.42
,-8.808,0.132,-5.051,-8.38,0.62,-4.982,7.63,-7.56,0.35
,-8.947,0.385,-5.023,-8.224,0.818,-4.843,9.03,-7.84,0.98
22033.0,-8.406,0.687,-4.566,-8.856,0.73,-4.853,2.17,-7.91,-0.7
,-8.751,0.895,-4.724,-8.653,1.184,-5.303,3.29,-7.77,-0.77
,-8.906,0.96,-4.951,-8.947,0.854,-5.604,3.43,-7.91,-0.7
,-8.78,0.845,-5.071,-8.751,0.591,-4.963,3.43,-7.28,-0.07
22109.0,-8.332,0.689,-4.704,-9.105,0.426,-4.886,2.17,-9.38,-2.59
,-7.916,0.96,-4.757,-8.851,0.443,-4.834,2.24,-9.31,-3.71
,-8.26,0.694,-4.81,-8.591,0.354,-4.764,0.28,-9.31,-4.13
,-8.813,0.529,-4.848,-8.349,0.132,-4.786,-1.26,-9.66,-4.62
22185.0,-8.461,-0.026,-4.769,-8.82,0.005,-4.872,2.03,-8.75,0.0
,-8.581,-0.112,-4.611,-8.911,0.278,-4.884,4.2,-9.03,1.54
,-8.641,-0.311,-4.506,-8.99,0.395,-4.764,5.18,-9.52,2.66
,-8.619,-0.311,-4.666,-8.866,0.601,-4.764,7.07,-10.08,3.43
22261.0,-8.756,0.562,-4.669,-8.804,0.715,-4.671,3.22,-13.16,3.78
,-8.559,0.45,-4.676,-8.703,0.857,-4.556,2.31,-13.44,3.22
,-8.775,0.335,-4.633,-8.617,0.859,-4.582,2.66,-14.07,2.73
,-8.904,0.577,-4.58,-8.691,0.711,-4.235,4.34,-15.12,1.96
22336.0,-9.203,0.689,-4.13,-9.021,0.761,-3.97,2.45,-17.01,0.14
,-9.318,0.706,-3.881,-8.653,0.675,-4.243,2.31,-17.29,-0.77
,-9.208,0.603,-3.427,-8.531,0.598,-3.927,1.12,-17.22,-1.61
,-9.244,0.751,-3.513,-8.727,0.536,-3.659,0.49,-17.5,-2.52
22412.0,-9.095,0.553,-3.297,-8.914,0.447,-3.099,0.56,-15.68,-3.64
,-9.387,0.708,-3.396,-9.088,0.093,-2.924,0.63,-15.47,-4.9
,-9.201,0.931,-3.522,-9.198,-0.153,-2.795,-1.61,-15.33,-6.02
,-8.985,0.885,-3.352,-9.304,0.101,-2.936,-5.04,-14.7,-6.16
22487.0,-9.32,0.407,-3.046,-9.119,0.024,-2.924,-3.15,-10.57,-6.02
,-9.225,0.775,-3.218,-9.311,-0.062,-2.955,-4.48,-10.29,-6.09
,-9.217,0.553,-3.312,-9.325,0.055,-2.9,-6.23,-9.17,-6.16
,-9.182,0.225,-3.348,-9.273,0.323,-3.199,-7.7,-8.33,-6.93
22563.0,-9.38,0.12,-3.441,-8.906,0.627,-3.967,-3.57,-4.69,-4.76
,-9.435,0.022,-3.319,-8.859,0.476,-3.743,-4.34,-4.2,-4.62
,-9.201,0.227,-3.252,-9.064,0.06,-3.711,-3.22,-3.64,-4.48
,-9.079,0.462,-3.762,-9.141,-0.22,-3.463,-2.8,-3.5,-5.11
22639.0,-9.244,-0.27,-3.156,-8.935,0.089,-3.472,-2.52,-3.57,-2.94
,-9.335,-0.151,-3.175,-8.964,-0.179,-3.812,-0.91,-3.15,-2.73
,-9.368,0.029,-3.319,-8.887,-0.373,-3.587,-0.14,-2.66,-2.31
,-9.239,0.034,-3.429,-8.993,0.053,-3.381,-1.05,-2.52,-2.59
22715.0,-9.206,0.72,-3.865,-8.973,0.325,-4.221,4.62,-1.96,-1.68
,-9.222,1.254,-4.197,-9.232,0.299,-3.922,1.82,-2.73,-3.01
,-9.186,1.07,-4.503,-9.32,0.354,-3.585,-3.29,-3.57,-4.13
,-8.902,0.732,-4.42,-9.335,0.325,-3.379,-5.11,-4.34,-4.06
22791.0,-9.28,0.098,-3.166,-9.275,0.318,-3.329,-2.73,-5.25,-4.2
,-9.275,-0.16,-2.838,-9.198,0.447,-3.534,-4.9,-4.83,-4.2
,-9.325,-0.213,-2.95,-9.083,0.325,-3.592,-4.62,-4.2,-3.99
,-9.263,-0.01,-3.072,-9.162,-0.002,-3.396,-2.52,-3.71,-3.57
22866.0,-9.308,-0.089,-3.25,-9.206,0.392,-3.594,3.5,-2.66,-0.63
,-9.521,0.036,-3.07,-9.146,0.218,-3.436,4.62,-2.38,-0.63
,-9.49,0.352,-3.192,-9.239,0.057,-3.623,3.85,-2.03,-1.19
,-9.536,0.433,-3.539,-9.261,0.079,-3.446,0.77,-2.17,-2.45
22942.0,-9.292,0.172,-3.317,-9.34,0.12,-3.183,2.17,-2.1,-0.84
,-9.182,0.036,-3.168,-9.287,-0.014,-3.053,1.82,-1.89,-0.84
,-9.306,0.079,-3.08,-9.373,-0.038,-2.994,1.47,-1.61,-1.05
,-9.184,0.098,-3.058,-9.531,-0.005,-3.111,0.98,-1.05,-0.98
23018.0,-9.442,0.309,-3.281,-9.229,0.06,-3.455,-0.84,0.98,-1.12
,-9.462,0.481,-3.57,-9.277,0.249,-3.556,-1.68,0.84,-1.4
,-9.258,0.333,-3.606,-9.153,0.383,-3.503,-2.31,0.49,-1.33
,-9.148,0.156,-3.506,-9.217,0.392,-3.412,-1.12,0.42,-0.77
23094.0,-9.273,0.189,-3.331,-9.49,-0.196,-2.587,2.87,0.07,-0.28
,-9.385,0.067,-3.218,-9.438,-0.019,-2.479,2.45,0.49,-0.28
,-9.402,-0.086,-2.984,-9.474,0.196,-2.819,2.24,0.98,0.07
,-9.38,-0.151,-2.721,-9.371,0.244,-3.12,2.8,1.68,0.63
23169.0,-9.273,0.282,-3.422,-9.217,0.17,-3.69,-0.07,4.69,0.28
,-9.215,0.177,-3.676,-9.275,0.29,-3.589,-0.07,4.97,0.56
,-9.146,0.203,-3.754,-9.347,0.404,-3.752,1.19,4.83,1.05
,-9.17,0.148,-3.735,-9.198,0.376,-3.812,2.52,4.48,1.26
23245.0,-9.172,0.239,-3.786,-9.454,0.0,-3.034,3.92,2.66,1.05
,-9.227,0.093,-3.692,-9.478,0.168,-3.022,4.9,2.31,1.26
,-9.198,-0.136,-3.453,-9.38,0.285,-3.111,6.3,2.17,1.68
,-9.287,-0.124,-3.214,-9.354,0.306,-3.297,7.98,2.17,2.17
23320.0,-9.265,0.316,-3.57,-9.241,0.194,-3.819,4.62,3.57,1.05
,-9.16,0.282,-3.778,-9.249,0.316,-3.711,3.85,3.43,0.98
,-9.081,0.182,-3.848,-9.301,0.352,-3.659,4.06,3.08,1.05
,-9.139,0.194,-3.783,-9.246,0.328,-3.587,4.9,2.73,1.26
23396.0,-9.284,0.321,-3.573,-9.294,0.093,-3.412,4.27,1.4,0.42
,-9.318,0.39,-3.75,-9.356,0.23,-3.336,3.71,0.98,0.0
,-9.239,0.239,-3.623,-9.371,0.359,-3.317,3.22,0.56,-0.14
,-9.203,0.122,-3.465,-9.385,0.378,-3.345,3.64,0.7,0.14
23472.0,-9.28,0.352,-3.47,-9.217,-0.005,-3.386,3.64,1.19,-0.14
,-9.263,0.235,-3.494,-9.273,0.045,-3.293,2.94,1.12,-0.35
,-9.225,0.146,-3.57,-9.402,0.158,-3.288,2.8,1.12,-0.42
,-9.21,0.0,-3.482,-9.411,0.244,-3.281,3.36,1.19,-0.21
23548.0,-9.306,0.215,-3.3,-9.241,0.089,-3.446,3.36,2.03,-0.07
,-9.325,0.108,-3.324,-9.261,0.151,-3.374,3.36,2.24,0.07
,-9.246,0.031,-3.408,-9.253,0.139,-3.458,4.13,2.31,0.35
,-9.268,0.084,-3.443,-9.261,0.179,-3.458,5.39,2.45,0.7
23623.0,-9.328,0.16,-3.453,-9.354,0.144,-3.63,5.39,2.59,0.84
,-9.342,0.122,-3.453,-9.215,0.191,-3.728,5.04,2.45,0.84
,-9.287,0.175,-3.482,-9.225,0.11,-3.754,5.11,2.31,0.63
,-9.351,0.201,-3.537,-9.177,0.117,-3.74,5.18,2.31,0.63
23699.0,-9.234,0.112,-3.666,-9.206,0.043,-3.549,4.48,1.26,0.28
,-9.287,0.146,-3.668,-9.196,-0.022,-3.486,3.99,0.84,0.07
,-9.292,0.136,-3.649,-9.289,-0.048,-3.486,3.29,0.7,-0.07
,-9.241,0.108,-3.587,-9.323,0.098,-3.513,2.73,0.56,-0.14
23774.0,-9.38,0.151,-3.587,-9.239,0.163,-3.489,4.41,0.56,0.21
,-9.301,0.239,-3.544,-9.253,0.0,-3.463,3.78,0.49,0.14
,-9.208,0.263,-3.589,-9.258,-0.022,-3.293,2.94,0.49,-0.14
,-9.203,0.225,-3.652,-9.335,-0.029,-3.295,2.38,0.49,-0.21
23850.0,-9.397,0.029,-3.276,-9.225,0.067,-3.324,2.59,0.63,0.0
,-9.368,0.156,-3.178,-9.27,0.024,-3.369,2.17,0.7,0.0
,-9.375,0.112,-3.252,-9.33,0.038,-3.455,1.33,1.05,0.0
,-9.287,0.062,-3.254,-9.344,0.048,-3.498,0.84,1.4,-0.14
23926.0,-9.323,0.187,-3.491,-9.222,0.187,-3.654,1.61,1.68,0.63
,-9.275,0.172,-3.484,-9.239,0.127,-3.644,1.05,1.68,0.63
,-9.287,0.115,-3.52,-9.249,0.096,-3.609,0.98,1.75,0.56
,-9.275,0.17,-3.582,-9.268,-0.014,-3.448,1.47,1.54,0.77
24002.0,-9.289,0.005,-3.345,-9.253,-0.057,-3.446,2.1,1.12,0.77
,-9.306,0.12,-3.309,-9.229,-0.093,-3.455,2.1,1.26,0.7
,-9.304,0.158,-3.329,-9.249,-0.072,-3.393,1.47,1.26,0.56
,-9.28,0.108,-3.396,-9.296,-0.022,-3.333,0.63,1.61,0.56
24078.0,-9.328,0.117,-3.206,-9.227,0.11,-3.793,4.69,2.45,2.8
,-9.349,0.127,-3.151,-9.143,0.055,-3.841,4.27,2.59,2.8
,-9.423,0.256,-3.427,-9.086,0.134,-3.733,3.43,2.73,2.31
,-9.387,0.182,-3.668,-9.179,0.239,-3.685,1.82,2.52,1.54
24153.0,-9.299,0.347,-3.747,-9.299,0.108,-3.364,-0.42,1.61,-0.7
,-9.294,0.333,-3.704,-9.332,0.199,-3.355,-1.96,1.19,-0.63
,-9.251,0.177,-3.472,-9.246,0.101,-3.252,-3.29,1.12,-0.49
,-9.284,0.012,-3.338,-9.241,0.024,-3.245,-3.43,1.12,-0.42
24229.0,-9.34,-0.098,-3.113,-9.237,0.139,-3.159,-4.9,2.87,-1.05
,-9.304,0.201,-3.037,-9.258,-0.103,-3.159,-5.46,3.29,-1.75
,-9.311,0.481,-3.053,-9.201,-0.371,-3.183,-8.19,3.57,-2.73
,-9.299,0.438,-3.053,-9.306,-0.479,-3.046,-11.76,4.06,-3.01
24305.0,-9.409,-0.261,-3.149,-9.076,0.077,-4.027,-4.27,6.3,1.26
,-9.397,0.316,-3.396,-9.002,-0.302,-4.027,-2.03,6.58,1.4
,-9.296,0.548,-3.53,-8.952,-0.392,-3.845,-2.8,6.23,1.26
,-9.249,0.491,-3.752,-9.11,-0.153,-3.745,-5.18,6.02,0.91
24381.0,-9.282,-0.026,-3.625,-9.182,-0.172,-2.919,3.5,5.67,3.78
,-9.301,0.081,-3.661,-9.354,0.366,-3.065,4.41,5.53,4.2
,-9.179,-0.093,-3.458,-9.356,0.845,-3.374,4.83,5.53,5.04
,-9.131,-0.354,-3.283,-9.146,0.902,-3.355,7.35,6.23,6.37
24456.0,-9.098,0.596,-3.269,-9.273,0.507,-2.647,6.3,7.42,5.32
,-9.153,0.359,-3.202,-9.237,0.852,-2.74,3.85,8.05,5.11
,-9.332,0.158,-2.893,-9.232,0.905,-2.903,1.89,9.38,5.53
,-9.323,0.227,-2.826,-9.237,0.737,-3.149,1.61,10.71,5.46
24532.0,-9.251,0.388,-3.769,-9.007,0.072,-3.489,-6.02,13.72,1.61
,-9.093,0.101,-4.049,-9.062,0.392,-3.69,-3.85,14.42,2.59
,-8.993,-0.239,-4.022,-9.098,0.543,-3.704,1.4,15.26,3.64
,-8.902,-0.199,-3.714,-9.232,0.471,-3.52,8.54,15.96,4.55
24607.0,-9.287,0.55,-3.807,-8.727,0.148,-4.812,10.36,16.24,3.92
,-9.215,0.641,-4.049,-8.528,-0.61,-4.719,7.07,15.33,2.52
,-9.143,0.811,-4.424,-8.698,-1.132,-4.331,2.73,14.0,1.05
,-8.94,0.797,-4.987,-8.921,-1.412,-4.29,-2.59,12.88,-0.07
24683.0,-8.938,-1.419,-4.326,-9.009,-0.486,-3.884,4.06,11.55,4.55
,-8.875,-1.275,-4.424,-9.208,0.313,-4.274,7.42,11.48,7.28
,-8.808,-1.175,-3.848,-9.088,1.0,-4.915,10.92,12.25,10.36
,-8.894,-0.938,-3.908,-8.854,1.283,-5.152,15.33,12.88,12.25
24759.0,-8.629,1.357,-5.008,-8.985,1.45,-4.221,8.68,7.21,10.57
,-8.634,1.232,-4.647,-9.263,1.374,-3.867,6.86,7.63,8.19
,-8.653,1.268,-4.07,-9.306,1.199,-3.652,7.35,8.26,6.23
,-8.856,1.431,-3.999,-9.208,1.232,-3.398,7.63,8.19,4.41
24835.0,-8.954,1.352,-3.374,-9.124,0.804,-4.235,1.68,11.41,-0.77
,-8.768,1.108,-3.319,-8.763,0.735,-4.36,0.77,12.18,-1.4
,-9.052,0.857,-3.513,-8.313,0.481,-4.401,0.42,11.69,-1.61
,-9.337,0.763,-3.881,-8.406,0.235,-4.068,-0.07,10.85,-2.31
24911.0,-8.681,-0.014,-4.197,-9.093,-0.287,-4.178,3.22,14.49,-2.52
,-8.82,-0.404,-4.106,-8.863,0.01,-4.475,4.06,14.56,-1.96
,-9.002,-0.553,-3.97,-8.536,0.086,-4.738,4.55,15.4,-0.7
,-9.024,-0.522,-4.128,-8.368,-0.038,-4.7,5.81,15.61,0.14
24986.0,-8.421,-0.067,-4.697,-8.646,0.452,-4.946,10.78,16.45,4.9
,-8.617,0.12,-4.305,-8.631,0.151,-4.786,13.02,16.87,5.74
,-8.885,0.462,-4.882,-8.509,-0.141,-4.843,14.14,16.66,5.81
,-8.744,0.648,-4.968,-8.449,-0.208,-4.731,13.51,16.17,5.67
25062.0,-8.727,-0.002,-4.642,-8.528,1.235,-4.882,13.09,15.68,5.53
,-8.839,0.546,-4.793,-8.612,1.036,-4.963,16.1,15.82,4.97
,-8.83,0.914,-4.738,-8.655,0.976,-4.984,16.52,15.54,4.48
,-8.658,1.165,-4.896,-8.557,0.873,-5.178,14.42,15.47,4.06
25138.0,-8.595,0.579,-4.937,-8.734,-0.246,-5.118,6.3,15.68,0.98
,-8.339,0.27,-4.843,-8.612,-0.349,-5.382,5.95,16.03,1.33
,-8.373,-0.108,-4.587,-8.358,-0.232,-5.659,6.72,16.66,2.1
,-8.655,-0.282,-4.776,-8.418,0.069,-5.47,8.4,16.03,3.01
25214.0,-8.423,0.558,-5.389,-8.272,1.984,-5.296,16.73,12.88,1.89
,-8.265,1.003,-5.353,-8.373,2.06,-5.209,18.48,12.74,0.63
,-8.342,1.512,-5.226,-8.49,1.596,-4.975,17.15,12.11,-1.47
,-8.502,1.783,-5.229,-8.471,1.338,-4.97,13.65,10.36,-3.78
25289.0,-8.538,0.938,-4.92,-8.258,-1.003,-5.674,6.72,11.2,-12.74
,-8.442,0.304,-4.874,-8.2,-1.22,-5.832,7.7,10.99,-12.53
,-8.516,-0.153,-5.116,-8.131,-1.285,-5.75,8.4,10.64,-10.92
,-8.303,-0.756,-5.425,-8.212,-1.254,-5.765,8.68,10.99,-9.1
25365.0,-8.251,-1.141,-6.157,-8.019,-1.484,-5.59,17.71,7.56,-2.73
,-8.083,-1.084,-6.339,-8.447,-1.07,-5.453,16.38,5.6,-0.77
,-7.928,-1.309,-6.195,-8.882,-0.414,-5.441,13.16,4.48,1.54
,-7.856,-1.441,-5.733,-8.806,0.337,-5.379,10.78,5.18,3.78
25440.0,-8.495,1.096,-5.607,-8.301,0.376,-5.678,16.03,4.9,3.64
,-8.387,1.563,-5.776,-8.282,0.038,-5.714,13.79,4.83,2.8
,-8.361,1.661,-5.994,-8.409,-0.06,-5.633,10.36,4.41,1.82
,-8.205,0.95,-5.863,-8.413,-0.235,-5.7,7.77,3.85,1.54
25516.0,-8.327,-0.5,-5.554,-8.167,-0.677,-5.293,10.85,2.24,1.19
,-8.435,-0.771,-5.449,-8.318,-0.656,-5.315,11.13,1.68,1.75
,-8.232,-0.754,-5.408,-8.327,-0.474,-5.377,11.69,1.47,2.8
,-8.119,-0.577,-5.444,-8.37,-0.213,-5.513,12.11,1.68,4.06
25592.0,-8.318,-0.223,-5.451,-8.708,0.261,-5.418,10.99,-0.21,5.25
,-7.978,-0.213,-5.236,-8.921,0.526,-5.441,11.76,0.07,6.09
,-7.882,-0.158,-5.329,-8.866,0.397,-5.348,12.81,0.91,7.07
,-8.198,-0.026,-5.389,-8.382,0.455,-5.532,13.86,1.89,7.63
25668.0,-8.105,0.397,-5.702,-8.665,-0.086,-5.698,7.7,1.82,5.46
,-8.145,0.235,-5.75,-8.476,-0.254,-5.631,6.3,2.31,5.46
,-8.466,0.062,-5.707,-8.122,-0.4,-5.552,5.53,2.59,5.46
,-8.614,0.096,-5.82,-8.119,-0.208,-5.645,4.27,2.59,5.46
25743.0,-8.246,0.141,-5.939,-8.311,0.517,-5.674,2.73,3.43,4.69
,-8.368,0.388,-5.908,-8.296,0.584,-5.75,2.45,3.29,4.69
,-8.337,0.464,-5.903,-8.287,0.505,-5.753,0.49,3.01,4.27
,-8.366,0.421,-5.729,-8.351,0.285,-5.721,-1.05,3.22,3.78
25819.0,-8.39,0.072,-5.642,-8.227,-0.05,-5.599,-6.51,2.1,2.38
,-8.251,-0.093,-5.626,-8.212,-0.105,-5.609,-6.86,2.45,2.8
,-8.291,-0.034,-5.757,-8.397,-0.065,-5.453,-6.44,2.66,3.29
,-8.244,0.026,-5.693,-8.524,0.031,-5.37,-6.58,2.8,3.5
25895.0,-8.512,0.467,-5.398,-8.325,0.744,-5.597,-5.6,2.87,2.66
,-8.478,0.742,-5.523,-8.5,0.67,-5.602,-5.53,2.66,2.17
,-8.39,0.993,-5.698,-8.598,0.529,-5.566,-6.02,2.17,1.82
,-8.409,1.027,-5.769,-8.547,0.335,-5.702,-7.0,1.33,1.33
25971.0,-8.275,0.105,-5.781,-8.26,-0.814,-5.827,-7.7,0.63,-1.12
,-8.143,-0.266,-5.93,-8.212,-0.988,-5.587,-7.14,0.35,-0.28
,-8.315,-0.531,-5.92,-8.153,-0.916,-5.544,-5.74,-0.07,0.7
,-8.397,-0.761,-5.922,-8.098,-0.782,-5.499,-5.11,-0.7,1.61
26047.0,-8.236,-0.603,-5.592,-8.387,0.4,-5.803,-0.63,-0.77,9.73
,-8.315,-0.266,-5.808,-8.157,0.395,-5.633,-0.49,-0.49,11.55
,-8.466,-0.067,-5.954,-8.177,0.567,-5.812,0.14,-0.56,12.53
,-8.545,0.206,-5.822,-8.239,0.727,-5.772,-0.35,-1.61,12.39
26122.0,-8.356,0.876,-5.7,-8.277,0.95,-5.566,0.07,-3.92,9.73
,-8.538,0.849,-5.645,-8.729,0.715,-5.705,0.0,-3.99,8.47
,-8.485,0.972,-5.59,-8.691,0.723,-5.511,0.07,-4.06,7.21
,-8.306,1.003,-5.523,-8.334,0.629,-5.439,0.28,-3.22,6.3
26198.0,-8.129,0.763,-5.444,-8.576,0.526,-5.432,2.24,-4.2,2.59
,-7.99,0.909,-5.52,-8.485,0.455,-5.432,2.66,-4.34,1.68
,-8.064,0.926,-5.535,-8.33,0.476,-5.415,1.75,-4.9,0.98
,-8.318,0.687,-5.489,-8.263,0.591,-5.401,0.35,-5.04,0.56
26273.0,-8.33,0.711,-5.437,-8.119,1.01,-5.384,2.24,-5.11,1.12
,-8.631,0.785,-5.291,-7.937,0.962,-5.559,3.08,-4.76,0.84
,-9.045,0.761,-5.099,-8.162,0.689,-5.578,1.05,-6.23,-0.56
,-8.679,1.029,-5.334,-8.476,0.428,-5.398,-2.66,-8.4,-1.82
26349.0,-8.547,0.447,-5.341,-8.509,-0.117,-4.834,-4.76,-8.82,-3.01
,-8.354,0.603,-5.408,-8.559,0.254,-5.188,-4.9,-9.03,-2.87
,-8.15,-0.168,-5.178,-8.593,0.586,-5.329,-9.38,-8.4,-2.17
,-8.279,-0.357,-4.633,-8.38,0.615,-5.418,-8.19,-8.05,-1.19
26425.0,-8.318,0.514,-5.248,-8.471,0.026,-4.886,-0.14,-9.94,0.56
,-8.564,0.196,-5.147,-8.492,0.065,-4.831,-0.56,-10.29,0.91
,-8.631,0.122,-4.992,-8.581,0.189,-4.858,0.0,-10.57,1.26
,-8.574,0.069,-4.937,-8.485,0.388,-4.949,0.7,-11.06,1.75
26501.0,-8.476,0.567,-4.824,-8.658,0.919,-4.759,2.1,-13.23,1.82
,-8.488,0.66,-4.805,-8.65,1.003,-4.671,1.26,-13.3,1.96
,-8.504,0.672,-4.807,-8.734,1.0,-4.556,0.63,-13.51,1.05
,-8.524,0.747,-4.913,-8.796,0.957,-4.554,0.77,-13.44,0.49
26576.0,-8.753,1.108,-4.657,-8.856,0.601,-4.503,-0.7,-13.72,-1.82
,-8.607,1.098,-4.664,-8.887,0.407,-4.257,-1.12,-14.0,-2.24
,-8.662,1.098,-4.64,-8.83,0.402,-4.386,-2.03,-13.86,-2.87
,-8.737,0.897,-4.573,-8.77,0.572,-4.654,-2.8,-13.65,-3.43
26652.0,-8.629,0.727,-4.525,-8.643,0.72,-4.724,-1.05,-14.07,-4.48
,-8.696,0.811,-4.714,-8.734,0.629,-4.621,-2.1,-14.49,-4.83
,-8.725,0.964,-4.685,-8.787,0.359,-4.501,-2.8,-14.77,-6.02
,-8.713,0.799,-4.815,-8.88,0.12,-4.319,-4.06,-15.4,-6.93
26728.0,-8.902,-0.067,-4.034,-9.024,0.048,-3.984,-4.2,-15.61,-6.72
,-8.918,-0.16,-4.128,-8.957,0.254,-3.853,-3.99,-15.47,-6.44
,-8.784,-0.129,-3.762,-8.971,0.519,-4.001,-4.62,-15.26,-5.95
,-8.911,-0.132,-3.9,-8.933,0.675,-4.19,-3.15,-15.05,-5.25
26804.0,-8.902,0.617,-3.982,-8.978,0.766,-3.833,0.56,-15.26,-4.2
,-9.007,0.56,-3.819,-8.964,0.909,-3.86,0.07,-14.84,-4.13
,-9.026,0.438,-3.537,-8.949,0.72,-3.762,0.35,-14.21,-4.55
,-9.074,0.443,-3.611,-8.952,0.313,-4.066,1.68,-13.79,-5.46
26879.0,-8.99,0.103,-3.709,-9.06,0.806,-4.013,-4.41,-12.39,-8.26
,-9.124,0.084,-3.692,-9.141,0.787,-4.357,-2.17,-12.11,-7.84
,-9.122,0.17,-3.934,-8.949,0.512,-3.917,0.07,-12.18,-7.7
,-9.052,0.536,-3.912,-8.933,0.043,-3.451,0.7,-12.67,-7.91
26955.0,-9.189,-0.414,-3.005,-9.129,-0.266,-2.735,-0.77,-11.69,-7.91
,-9.184,-0.278,-2.898,-9.198,-0.579,-2.958,0.91,-11.13,-7.84
,-9.366,-0.093,-2.831,-9.229,-0.83,-2.96,0.07,-10.57,-7.63
,-9.349,-0.055,-2.86,-9.158,-0.94,-2.924,-3.36,-9.87,-7.7
27031.0,-9.153,-0.715,-3.015,-9.28,0.287,-3.108,4.27,-4.2,-1.47
,-9.191,-0.337,-2.998,-9.273,0.476,-3.338,8.26,-3.36,0.14
,-9.306,-0.055,-3.116,-9.222,0.773,-3.53,10.29,-2.31,1.05
,-9.351,0.031,-3.003,-9.304,0.826,-3.896,10.43,-1.33,1.68
27106.0,-9.296,0.826,-4.302,-9.064,-0.148,-3.979,2.52,-1.96,-2.17
,-9.074,0.701,-4.413,-9.299,-0.002,-3.695,0.07,-2.87,-3.15
,-8.995,0.493,-4.422,-9.421,0.031,-3.814,-0.91,-3.5,-3.43
,-9.0,0.208,-4.367,-9.301,0.148,-3.563,-0.28,-4.2,-3.01
27182.0,-9.261,0.206,-3.707,-9.328,-0.081,-3.319,4.41,-6.37,-2.1
,-9.246,0.11,-3.807,-9.206,-0.232,-3.001,3.36,-6.65,-2.52
,-9.162,0.141,-3.599,-9.313,-0.163,-2.704,2.94,-6.79,-2.45
,-9.227,0.069,-3.565,-9.469,-0.01,-2.903,2.87,-6.65,-2.45
27258.0,-9.44,0.187,-2.9,-9.399,-0.158,-2.659,6.37,-3.78,-0.98
,-9.311,0.172,-2.694,-9.44,-0.048,-2.556,5.18,-2.87,-0.7
,-9.349,-0.043,-2.659,-9.407,-0.12,-2.747,4.06,-1.75,-0.56
,-9.397,-0.211,-2.637,-9.282,-0.065,-2.929,4.27,-0.98,-0.42
27334.0,-9.153,-0.127,-3.044,-9.359,0.189,-3.494,3.01,3.57,0.49
,-9.256,-0.366,-3.068,-9.311,0.419,-3.74,2.8,4.62,1.05
,-9.311,-0.402,-3.132,-9.217,0.371,-3.987,3.85,5.32,1.61
,-9.332,-0.096,-3.326,-9.052,0.232,-4.034,5.25,5.67,1.82
27409.0,-9.1,0.029,-3.955,-9.282,0.05,-3.482,-0.14,3.92,0.42
,-9.148,0.022,-4.011,-9.263,0.144,-3.544,1.12,3.36,0.63
,-9.217,0.024,-3.831,-9.265,0.218,-3.678,2.17,2.66,0.7
,-9.311,0.022,-3.661,-9.21,0.237,-3.647,2.73,2.31,0.91
27485.0,-9.296,0.091,-3.687,-9.249,0.084,-3.553,3.15,1.12,0.56
,-9.263,0.036,-3.673,-9.261,0.06,-3.551,3.43,1.05,0.56
,-9.22,0.022,-3.542,-9.249,0.089,-3.582,3.99,0.91,0.84
,-9.308,0.048,-3.597,-9.234,0.029,-3.654,4.13,0.77,0.7
27561.0,-9.194,0.012,-3.697,-9.263,-0.153,-3.448,1.33,-0.07,0.28
,-9.17,-0.002,-3.778,-9.258,-0.029,-3.369,1.47,-0.21,0.42
,-9.162,0.024,-3.719,-9.368,-0.06,-3.396,1.61,-0.56,0.63
,-9.256,-0.093,-3.613,-9.294,-0.127,-3.245,1.82,-0.63,0.91
27637.0,-9.282,-0.05,-3.405,-9.316,0.045,-3.34,3.01,-0.14,1.61
,-9.368,0.01,-3.609,-9.363,0.034,-3.324,3.15,-0.49,1.47
,-9.241,0.175,-3.544,-9.368,0.012,-3.295,3.08,-0.56,1.47
,-9.284,0.117,-3.431,-9.399,0.117,-3.209,2.17,-0.77,1.4
27712.0,-9.344,0.182,-3.376,-9.289,0.242,-3.57,3.85,-0.07,1.47
,-9.158,0.225,-3.369,-9.284,0.074,-3.47,4.55,-0.07,1.82
,-9.227,0.256,-3.436,-9.275,0.053,-3.386,4.9,0.21,1.96
,-9.287,0.223,-3.558,-9.33,0.132,-3.427,4.97,0.21,1.96
27788.0,-9.222,0.203,-3.381,-9.433,0.179,-3.171,2.45,0.14,0.91
,-9.184,0.117,-3.19,-9.342,0.168,-3.271,1.19,0.49,0.91
,-9.304,0.0,-3.135,-9.263,0.139,-3.295,1.05,0.91,0.77
,-9.351,0.163,-3.087,-9.232,0.122,-3.388,1.26,1.19,0.63
27863.0,-9.263,0.086,-3.448,-9.296,0.189,-3.355,1.61,2.24,0.49
,-9.251,0.129,-3.422,-9.27,0.156,-3.3,2.03,2.38,0.42
,-9.268,0.172,-3.396,-9.289,0.019,-3.29,2.17,2.24,0.49
,-9.342,0.189,-3.384,-9.296,0.034,-3.343,2.31,2.45,0.28
27939.0,-9.33,0.017,-3.367,-9.251,0.23,-3.496,3.01,2.94,0.7
,-9.27,-0.017,-3.441,-9.261,0.168,-3.415,3.57,3.08,0.91
,-9.299,0.086,-3.422,-9.253,0.136,-3.393,4.06,3.01,0.77
,-9.313,0.199,-3.565,-9.33,0.084,-3.372,3.85,3.08,0.77
28015.0,-9.27,-0.017,-3.381,-9.234,0.005,-3.314,2.59,3.36,0.7
,-9.33,-0.007,-3.422,-9.292,0.06,-3.281,3.08,3.36,0.84
,-9.304,0.048,-3.451,-9.32,0.036,-3.367,3.36,3.5,1.05
,-9.265,-0.014,-3.405,-9.313,0.108,-3.532,3.64,3.64,1.33
28091.0,-9.265,0.17,-3.609,-9.282,0.038,-3.604,4.13,4.06,1.26
,-9.253,0.06,-3.611,-9.237,0.072,-3.577,4.13,3.99,1.4
,-9.253,0.06,-3.63,-9.301,0.213,-3.728,4.34,3.92,1.33
,-9.22,0.117,-3.611,-9.275,0.258,-3.656,4.2,3.71,1.26
28167.0,-9.239,0.294,-3.685,-9.253,0.196,-3.855,2.73,2.8,0.77
,-9.246,0.141,-3.735,-9.258,0.132,-3.814,2.38,2.66,0.84
,-9.234,0.136,-3.695,-9.22,0.065,-3.857,2.87,2.59,0.7
,-9.273,0.187,-3.766,-9.16,-0.005,-3.783,3.36,2.17,0.63
28242.0,-9.189,-0.007,-3.74,-9.308,0.074,-3.443,4.06,0.7,0.84
,-9.237,0.077,-3.661,-9.198,0.05,-3.455,4.69,0.7,0.91
,-9.241,0.141,-3.587,-9.256,0.029,-3.441,4.69,0.49,0.91
,-9.268,0.098,-3.467,-9.208,-0.017,-3.429,4.27,0.49,0.91
28318.0,-9.301,-0.055,-3.415,-9.215,0.096,-3.553,4.34,0.98,1.12
,-9.263,-0.05,-3.453,-9.265,0.108,-3.647,4.55,0.91,1.19
,-9.268,0.036,-3.496,-9.292,0.112,-3.647,4.62,0.98,1.19
,-9.261,0.093,-3.601,-9.249,0.117,-3.551,4.2,1.05,0.98
28394.0,-9.318,0.139,-3.486,-9.27,0.072,-3.317,3.78,0.91,1.61
,-9.313,0.053,-3.357,-9.294,0.081,-3.412,3.5,1.26,1.96
,-9.328,0.091,-3.321,-9.349,0.05,-3.542,3.22,1.26,2.03
,-9.301,0.134,-3.374,-9.304,0.06,-3.676,3.08,1.61,1.96
28470.0,-9.172,-0.017,-3.668,-9.258,0.069,-3.372,0.28,1.68,1.68
,-9.191,0.005,-3.589,-9.33,0.057,-3.396,0.42,1.54,1.96
,-9.256,0.041,-3.587,-9.313,-0.029,-3.436,0.84,1.4,2.1
,-9.237,0.098,-3.491,-9.244,0.067,-3.551,1.19,1.47,2.31
28545.0,-9.22,0.093,-3.544,-9.208,0.148,-3.539,1.54,1.89,2.45
,-9.186,0.036,-3.647,-9.217,0.184,-3.362,1.75,2.17,2.66
,-9.232,0.034,-3.616,-9.287,0.158,-3.317,2.31,2.03,2.87
,-9.246,0.156,-3.69,-9.277,0.069,-3.235,2.59,2.03,2.87
28621.0,-9.325,0.062,-3.372,-9.273,0.05,-3.029,1.19,2.38,2.73
,-9.265,0.065,-3.424,-9.392,0.208,-3.29,0.98,2.52,2.38
,-9.162,0.074,-3.357,-9.344,0.27,-3.448,0.91,2.87,2.45
,-9.203,0.024,-3.293,-9.189,0.299,-3.563,0.91,3.64,2.8
28696.0,-9.129,0.182,-3.51,-9.284,0.17,-3.738,-2.24,4.41,2.66
,-9.234,0.069,-3.479,-9.139,0.227,-3.647,-1.89,4.69,2.87
,-9.225,0.172,-3.405,-9.167,0.316,-3.613,-1.12,4.9,2.94
,-9.258,0.28,-3.47,-9.294,0.385,-3.597,-1.33,4.97,2.8
28772.0,-9.179,0.359,-3.352,-9.289,0.098,-3.192,-4.41,4.41,-0.84
,-9.21,0.335,-3.233,-9.213,0.103,-3.463,-4.06,4.83,-0.77
,-9.366,0.371,-3.173,-9.127,0.139,-3.503,-4.55,5.18,-0.84
,-9.323,0.199,-3.156,-9.203,0.019,-3.69,-5.46,5.74,-0.63
28848.0,-9.057,-0.342,-3.441,-9.27,0.759,-3.776,-3.01,8.12,2.66
,-9.016,-0.5,-3.283,-9.091,0.964,-3.85,0.49,8.82,3.92
,-9.127,-0.184,-3.238,-8.993,0.529,-3.769,4.2,9.1,4.62
,-9.282,0.297,-3.52,-9.095,-0.141,-3.276,6.16,8.75,4.76
28924.0,-9.306,-0.122,-3.113,-9.198,0.211,-3.752,-0.91,9.87,3.64
,-9.304,0.347,-3.235,-9.16,-0.053,-3.659,1.89,10.43,2.8
,-9.186,0.579,-3.384,-9.115,-0.096,-3.867,0.98,10.85,2.03
,-9.263,0.505,-3.345,-8.928,0.287,-4.434,-1.61,10.92,1.89
28999.0,-8.756,0.622,-4.815,-9.282,0.191,-3.659,3.08,9.8,3.57
,-8.78,0.682,-4.769,-9.184,0.464,-4.092,2.8,9.24,3.78
,-8.866,0.249,-4.391,-9.148,0.536,-4.336,2.8,9.17,4.2
,-9.057,-0.01,-3.721,-9.143,0.17,-4.453,5.18,9.45,4.48
29075.0,-9.083,-0.335,-4.606,-9.019,0.991,-4.121,6.44,7.7,4.76
,-8.914,-0.529,-4.054,-8.835,1.156,-4.075,12.46,9.17,6.86
,-8.796,-0.242,-4.058,-8.887,0.689,-3.202,20.23,10.08,7.98
,-8.88,0.419,-4.166,-9.28,0.538,-2.91,24.92,9.87,7.91
29151.0,-9.426,0.816,-3.216,-8.808,0.086,-3.982,7.77,9.45,2.45
,-9.433,0.964,-3.348,-8.868,0.05,-4.166,3.15,8.12,0.98
,-9.186,1.029,-3.884,-8.892,0.196,-4.197,-2.1,7.42,-0.77
,-8.894,0.627,-4.068,-8.94,0.335,-4.209,-6.79,7.91,-1.33
29227.0,-8.806,0.51,-4.427,-9.304,0.012,-3.553,6.02,11.27,-0.42
,-8.727,0.357,-4.039,-9.294,0.514,-4.03,6.09,11.83,-0.07
,-8.784,0.187,-3.831,-9.244,0.414,-4.379,6.23,12.32,0.21
,-9.0,-0.048,-3.561,-8.981,0.084,-4.415,6.37,12.67,0.91
29303.0,-8.524,-0.213,-4.532,-8.801,0.4,-4.621,0.77,10.15,2.59
,-8.557,-0.246,-4.424,-8.715,0.196,-4.544,3.36,11.2,3.57
,-8.815,-0.024,-4.661,-8.847,0.017,-4.384,6.51,11.34,3.85
,-8.863,0.249,-4.681,-9.069,0.261,-4.472,7.98,10.78,3.57
29378.0,-8.93,0.409,-4.637,-8.811,0.057,-3.829,7.42,9.03,4.2
,-8.77,0.409,-4.468,-8.818,0.108,-3.905,6.79,9.31,4.34
,-8.861,0.33,-4.247,-8.897,0.268,-4.207,5.88,10.01,4.27
,-8.856,0.182,-4.037,-8.727,0.747,-4.769,5.04,10.99,3.92
29454.0,-8.775,0.962,-4.953,-8.902,0.818,-4.286,5.81,10.5,6.93
,-8.622,1.015,-4.831,-8.942,0.849,-4.372,4.55,10.85,6.02
,-8.622,1.127,-4.544,-8.875,0.818,-4.558,4.69,11.34,4.27
,-8.782,1.048,-4.381,-8.904,0.797,-4.702,4.97,11.48,2.8
29529.0,-8.818,0.61,-4.558,-8.646,0.392,-4.803,1.19,10.85,0.21
,-8.804,0.361,-4.616,-8.66,0.692,-5.116,1.19,11.13,0.0
,-8.648,0.038,-4.542,-8.634,0.976,-5.26,0.98,11.62,-0.42
,-8.603,0.034,-4.527,-8.636,0.972,-5.162,2.45,11.9,-0.84
29605.0,-8.67,0.782,-4.977,-8.411,-0.144,-4.506,-1.4,9.31,-2.94
,-8.667,0.519,-4.805,-8.461,-0.34,-4.398,-3.57,9.45,-3.29
,-8.758,0.203,-4.573,-8.71,-0.397,-4.109,-3.71,9.45,-3.22
,-8.677,0.074,-4.592,-8.705,-0.203,-4.551,-3.08,8.68,-3.22
29681.0,-8.94,0.251,-4.64,-8.334,1.062,-4.913,8.68,11.06,1.33
,-8.969,0.713,-4.771,-8.378,0.845,-4.788,9.94,10.15,0.7
,-8.617,1.031,-4.805,-8.686,0.842,-4.819,9.38,9.87,-0.28
,-8.502,1.144,-4.891,-8.775,0.952,-4.984,7.98,8.82,-1.68
29757.0,-8.507,0.455,-4.874,-8.306,-2.245,-4.556,6.93,9.03,-7.98
,-8.516,-0.036,-4.743,-8.457,-2.245,-4.59,6.16,9.1,-7.42
,-8.303,-1.067,-4.599,-8.469,-1.668,-4.738,5.67,9.38,-5.74
,-8.179,-2.029,-4.439,-8.54,-0.263,-4.96,5.95,10.5,-2.73
29832.0,-8.473,0.873,-5.185,-8.083,1.122,-5.453,28.42,10.43,6.16
,-8.586,1.766,-5.456,-8.071,-0.122,-5.408,25.2,9.8,4.48
,-8.521,2.249,-5.836,-8.545,-0.983,-5.43,19.81,9.73,2.31
,-8.327,2.089,-5.765,-8.804,-1.45,-5.587,12.25,10.15,0.91
29908.0,-8.942,-1.682,-5.633,-8.334,0.337,-5.853,8.33,9.1,7.56
,-8.617,-1.586,-5.745,-8.473,1.153,-5.906,12.6,8.89,9.1
,-8.569,-1.192,-5.695,-8.559,1.553,-5.992,16.03,8.54,10.15
,-8.502,-0.467,-5.765,-8.361,1.62,-5.937,18.97,7.77,10.5
29983.0,-8.04,1.098,-5.599,-8.777,0.383,-5.432,5.67,5.95,6.09
,-7.818,0.519,-5.508,-8.77,0.431,-5.382,2.73,6.58,6.3
,-8.023,0.335,-5.597,-8.538,0.522,-5.499,4.55,7.07,7.14
,-8.674,0.201,-5.482,-8.409,0.282,-5.418,6.3,6.37,7.21
30059.0,-8.284,0.258,-5.425,-8.433,1.058,-5.573,7.14,3.78,6.79
,-8.385,0.199,-5.473,-8.368,1.323,-5.671,6.86,4.06,6.72
,-8.533,0.227,-5.406,-8.375,1.374,-5.705,7.49,4.69,6.37
,-8.533,0.632,-5.463,-8.512,1.283,-5.765,9.1,4.55,5.53
30135.0,-8.538,1.029,-5.659,-8.332,0.507,-5.973,-1.96,3.29,0.7
,-8.437,0.615,-5.688,-8.239,0.536,-6.1,-3.92,2.94,0.21
,-8.447,0.361,-5.851,-8.375,0.263,-6.025,-3.78,3.08,0.21
,-8.38,0.323,-5.875,-8.406,-0.33,-5.843,-3.08,2.94,0.35
30211.0,-8.406,-0.617,-5.82,-8.531,0.457,-5.97,-6.72,1.75,1.05
,-8.318,-0.254,-5.97,-8.547,0.242,-5.836,-4.69,0.7,2.1
,-8.232,0.045,-6.133,-8.849,0.266,-5.559,-3.22,-0.14,2.59
,-8.356,0.373,-6.078,-8.842,0.395,-5.47,-3.43,-1.12,2.31
30287.0,-8.54,0.526,-5.432,-8.39,0.955,-5.532,-7.21,-4.69,0.77
,-8.313,0.864,-5.504,-8.296,0.519,-5.339,-5.88,-3.92,0.35
,-8.447,0.967,-5.494,-8.39,0.041,-5.142,-5.25,-3.85,-0.28
,-8.519,0.981,-5.547,-8.48,-0.325,-5.049,-5.39,-4.41,-0.63
30362.0,-8.521,-0.273,-5.169,-8.402,-0.23,-5.092,-3.29,-4.34,2.1
,-8.39,0.045,-5.451,-8.409,-0.345,-4.996,-1.19,-4.06,2.8
,-8.356,0.206,-5.406,-8.296,-0.069,-5.219,-0.35,-3.43,3.29
,-8.351,0.0,-5.348,-8.133,0.244,-5.446,-2.38,-3.08,3.92
30438.0,-8.282,0.404,-5.456,-8.457,0.735,-5.135,-2.94,-4.2,6.93
,-8.543,0.414,-5.422,-8.327,1.055,-4.992,-2.52,-4.2,6.16
,-8.588,0.488,-5.195,-8.425,1.18,-5.188,-1.89,-4.48,5.53
,-8.579,0.491,-5.059,-8.545,1.247,-5.185,-1.19,-4.2,5.46
30514.0,-8.737,1.184,-5.056,-8.177,0.546,-5.099,1.05,-3.15,0.56
,-8.904,0.991,-4.879,-8.196,0.361,-5.032,-0.21,-3.08,-0.07
,-8.684,0.804,-4.917,-8.387,0.366,-5.042,-1.47,-3.36,-0.21
,-8.473,0.586,-4.972,-8.634,0.371,-4.908,-2.31,-3.99,-0.63
30590.0,-8.564,0.404,-4.963,-8.38,0.282,-5.09,1.26,-3.78,-0.14
,-8.495,0.385,-4.879,-8.43,0.416,-5.025,0.49,-3.5,0.35
,-8.536,0.376,-4.891,-8.603,0.428,-4.932,0.14,-3.64,0.84
,-8.5,0.318,-5.013,-8.624,0.711,-4.946,0.42,-3.85,1.33
30665.0,-8.473,0.979,-4.977,-8.624,0.804,-5.02,2.31,-6.37,0.91
,-8.421,1.05,-5.08,-8.536,0.794,-4.989,0.77,-6.65,0.42
,-8.488,0.957,-5.008,-8.406,0.806,-4.846,-0.49,-6.23,0.28
,-8.732,0.83,-5.025,-8.402,1.036,-5.508,-0.84,-5.6,-0.07
30741.0,-8.887,1.062,-5.812,-8.593,0.237,-4.841,1.68,-5.53,0.77
,-8.777,0.555,-5.329,-8.792,0.354,-5.2,-0.28,-6.02,-0.49
,-8.416,0.543,-5.008,-8.808,0.445,-5.394,-2.17,-6.37,-1.19
,-8.325,0.38,-4.891,-8.641,0.33,-5.37,-1.89,-6.79,-1.26
30816.0,-8.387,0.055,-5.123,-8.624,0.345,-4.826,-4.2,-8.05,1.12
,-8.308,-0.074,-4.984,-8.55,0.577,-4.951,-1.61,-7.77,2.31
,-8.528,-0.041,-4.824,-8.648,0.821,-5.106,2.03,-7.77,3.64
,-8.729,0.108,-4.743,-8.67,0.806,-5.013,4.83,-8.05,4.76
30892.0,-8.559,0.591,-4.771,-8.715,1.395,-4.606,4.48,-10.78,5.67
,-8.617,0.44,-4.558,-8.662,1.594,-4.865,4.83,-10.57,5.32
,-8.811,0.479,-4.228,-8.67,1.285,-4.745,5.53,-10.57,5.18
,-8.894,0.809,-4.389,-8.643,0.83,-4.47,6.65,-11.2,4.83
30968.0,-8.775,0.658,-4.307,-8.985,1.163,-4.379,1.05,-12.25,0.77
,-8.792,0.943,-4.417,-8.784,1.18,-4.384,3.71,-12.18,0.07
,-8.801,1.027,-4.219,-8.804,1.058,-4.319,2.52,-12.32,-0.14
,-9.11,1.062,-4.178,-8.775,0.802,-4.161,0.77,-12.46,-0.35
31044.0,-8.76,0.651,-3.922,-8.851,0.407,-3.932,-3.5,-11.9,-4.06
,-8.902,0.727,-3.881,-8.83,0.213,-3.9,-2.73,-12.04,-4.55
,-8.988,0.888,-3.972,-8.796,0.299,-3.824,-3.36,-12.32,-5.04
,-8.94,0.629,-3.996,-8.854,0.507,-3.857,-5.32,-11.83,-4.97
31120.0,-8.787,0.727,-4.451,-8.849,-0.115,-3.891,-3.92,-11.27,-5.46
,-8.851,0.641,-4.434,-9.064,0.208,-3.728,-6.37,-11.55,-5.04
,-8.957,0.22,-4.357,-9.038,0.543,-3.924,-7.35,-11.2,-4.27
,-8.887,-0.077,-4.233,-8.997,0.584,-3.69,-5.18,-10.64,-3.78
31195.0,-9.091,0.467,-3.403,-9.155,0.852,-3.836,-1.96,-9.31,-2.66
,-9.196,0.4,-3.417,-8.909,0.57,-3.817,-2.73,-8.4,-2.8
,-8.825,0.421,-3.453,-8.93,0.541,-3.738,-2.94,-8.12,-3.29
,-9.172,0.814,-3.766,-9.069,0.921,-4.128,-3.43,-8.33,-3.36
31271.0,-8.99,1.235,-4.061,-9.179,1.161,-3.783,1.68,-8.19,-4.13
,-9.134,1.139,-3.582,-9.048,0.979,-3.865,-0.84,-7.84,-4.27
,-9.28,1.015,-3.491,-8.949,0.325,-3.666,-2.52,-7.07,-5.04
,-9.251,0.986,-3.671,-8.997,-0.12,-3.202,-3.15,-6.86,-6.3
31347.0,-9.246,-0.108,-3.187,-8.784,0.503,-4.152,-4.27,-5.18,-6.37
,-9.392,0.151,-3.123,-8.842,0.337,-4.094,-1.96,-4.83,-5.95
,-9.323,0.421,-3.494,-8.971,0.17,-3.762,-2.66,-4.69,-6.3
,-9.045,0.534,-4.046,-9.265,0.132,-3.62,-4.9,-5.11,-6.72
31423.0,-9.445,0.215,-3.259,-9.052,0.184,-3.766,-1.96,-4.48,-4.9
,-9.562,0.266,-3.465,-8.988,0.309,-3.738,-1.12,-4.27,-4.55
,-9.351,0.325,-3.573,-9.16,0.742,-3.762,-0.63,-3.99,-4.13
,-9.045,0.299,-3.685,-9.28,0.658,-3.668,0.56,-3.85,-3.22
31498.0,-9.261,0.503,-3.352,-9.229,0.522,-3.484,2.1,-3.22,-2.66
,-9.287,0.376,-3.396,-9.261,0.675,-3.551,0.84,-3.08,-3.01
,-9.052,0.404,-3.398,-9.208,0.555,-3.618,0.63,-2.87,-3.5
,-9.033,0.431,-3.446,-9.203,0.366,-3.319,0.98,-2.31,-3.5
31574.0,-9.292,0.235,-3.422,-9.186,0.263,-3.762,-0.7,-1.68,-3.57
,-9.246,0.196,-3.551,-9.191,0.414,-3.738,0.63,-1.54,-3.36
,-9.158,0.227,-3.494,-9.198,0.572,-3.714,1.75,-1.05,-2.87
,-9.196,0.158,-3.606,-9.244,0.457,-3.673,2.38,-0.56,-2.73
31649.0,-9.215,0.404,-3.599,-8.928,0.548,-4.398,4.48,-1.12,-2.45
,-9.337,0.553,-3.85,-9.079,0.361,-4.262,5.81,-1.47,-2.66
,-9.273,0.713,-4.257,-9.194,0.483,-3.929,6.23,-2.24,-3.22
,-9.062,0.704,-4.398,-9.17,0.074,-3.441,5.81,-3.22,-3.36
31725.0,-9.15,-0.105,-3.108,-9.359,-0.299,-2.785,7.77,-5.53,-2.38
,-9.383,-0.005,-3.07,-9.294,-0.345,-2.711,7.84,-5.25,-2.59
,-9.392,0.014,-2.862,-9.43,-0.261,-2.479,6.09,-4.76,-2.59
,-9.392,-0.05,-2.895,-9.555,-0.017,-2.577,4.55,-3.64,-2.38
31801.0,-9.49,0.182,-2.57,-9.079,0.165,-3.491,8.26,1.96,0.63
,-9.55,0.369,-2.977,-9.1,0.342,-3.609,7.14,2.66,0.35
,-9.373,0.29,-3.151,-9.256,0.359,-3.623,6.16,3.01,0.35
,-9.153,0.201,-3.448,-9.277,0.285,-3.477,6.23,3.43,0.49
31877.0,-9.265,0.177,-3.443,-9.244,0.168,-3.618,6.93,3.57,0.63
,-9.258,0.005,-3.417,-9.165,0.007,-3.494,6.37,3.64,0.63
,-9.189,0.089,-3.482,-9.198,0.048,-3.51,7.07,3.92,0.77
,-9.284,0.333,-3.74,-9.301,0.237,-3.597,7.56,3.92,0.7
31952.0,-9.261,0.345,-3.616,-9.167,0.165,-3.671,5.04,3.85,0.07
,-9.208,0.369,-3.57,-9.232,0.182,-3.678,3.92,3.85,-0.07
,-9.22,0.254,-3.565,-9.227,0.117,-3.678,3.29,3.85,0.07
,-9.172,0.203,-3.618,-9.194,0.132,-3.606,3.43,3.85,0.07
32028.0,-9.273,0.151,-3.735,-9.134,0.093,-3.707,3.92,3.08,0.07
,-9.244,0.17,-3.678,-9.232,0.165,-3.659,3.43,2.94,-0.07
,-9.201,0.165,-3.719,-9.282,0.333,-3.764,3.08,2.8,-0.14
,-9.143,0.062,-3.771,-9.239,0.285,-3.766,3.36,2.73,0.0
32104.0,-9.229,0.182,-3.769,-9.244,0.184,-3.625,2.1,1.61,-0.42
,-9.217,0.134,-3.759,-9.203,0.23,-3.585,2.17,1.61,-0.35
,-9.206,0.134,-3.817,-9.232,0.328,-3.577,2.87,1.54,-0.21
,-9.239,0.179,-3.644,-9.222,0.22,-3.589,3.43,1.4,0.0
32180.0,-9.148,0.108,-3.618,-9.222,0.124,-3.642,1.12,0.91,-0.49
,-9.129,0.065,-3.587,-9.208,-0.031,-3.649,1.47,0.98,-0.35
,-9.244,0.093,-3.585,-9.201,0.019,-3.642,2.45,1.19,-0.14
,-9.265,0.098,-3.652,-9.215,0.105,-3.664,2.66,1.05,-0.14
32256.0,-9.249,0.136,-3.597,-9.237,0.134,-3.498,2.59,0.91,-0.07
,-9.244,0.187,-3.635,-9.268,0.089,-3.379,2.52,0.91,-0.07
,-9.282,0.182,-3.604,-9.289,0.093,-3.539,2.17,0.91,0.07
,-9.225,0.158,-3.558,-9.201,0.112,-3.489,2.17,0.91,0.28
32331.0,-9.222,0.031,-3.453,-9.222,0.163,-3.479,2.45,1.61,0.7
,-9.246,0.048,-3.429,-9.323,0.144,-3.479,2.73,1.82,0.91
,-9.256,0.081,-3.415,-9.275,0.206,-3.594,2.8,2.1,1.05
,-9.258,0.11,-3.57,-9.217,0.22,-3.714,2.87,2.45,0.98
32407.0,-9.201,0.237,-3.802,-9.16,0.112,-3.783,2.1,2.38,0.84
,-9.172,0.227,-3.865,-9.215,0.081,-3.781,2.31,1.96,0.77
,-9.225,0.244,-3.903,-9.241,0.096,-3.587,2.59,1.75,0.91
,-9.174,0.211,-3.802,-9.282,0.177,-3.623,2.73,1.4,0.98
32482.0,-9.332,0.182,-3.599,-9.234,0.065,-3.439,3.36,0.84,0.84
,-9.258,0.191,-3.515,-9.225,0.077,-3.381,2.87,0.98,0.63
,-9.179,0.098,-3.549,-9.253,0.019,-3.266,2.52,0.98,0.77
,-9.198,0.084,-3.463,-9.265,0.045,-3.307,2.73,0.98,0.98
32558.0,-9.299,0.144,-3.393,-9.234,0.067,-3.798,3.99,2.73,1.54
,-9.249,0.158,-3.479,-9.213,0.112,-3.769,3.43,3.01,1.33
,-9.222,0.124,-3.623,-9.232,0.237,-3.831,2.87,2.8,1.33
,-9.21,0.124,-3.793,-9.22,0.38,-3.963,2.8,2.8,1.19
32634.0,-9.177,0.371,-3.915,-9.189,0.223,-3.671,1.96,1.47,0.63
,-9.143,0.266,-3.9,-9.234,0.168,-3.558,1.47,1.33,0.56
,-9.15,0.117,-3.853,-9.287,0.168,-3.52,1.75,0.84,0.63
,-9.158,0.156,-3.79,-9.344,0.208,-3.577,2.52,0.56,0.7
32710.0,-9.249,0.163,-3.589,-9.201,0.084,-3.623,0.42,0.7,0.21
,-9.237,0.091,-3.628,-9.22,0.235,-3.69,0.56,0.7,0.42
,-9.189,0.0,-3.683,-9.225,0.278,-3.62,0.77,0.56,0.42
,-9.122,-0.01,-3.568,-9.217,0.199,-3.606,1.68,0.63,0.77
32785.0,-9.229,0.196,-3.606,-9.21,0.223,-3.668,2.66,0.56,1.12
,-9.203,0.148,-3.589,-9.222,0.244,-3.687,2.52,0.63,1.05
,-9.165,0.196,-3.702,-9.222,0.139,-3.632,2.8,0.77,0.98
,-9.22,0.211,-3.664,-9.217,0.213,-3.635,2.87,0.56,0.91
32861.0,-9.222,0.179,-3.556,-9.21,0.117,-3.551,1.96,0.49,0.91
,-9.258,0.165,-3.597,-9.222,0.045,-3.565,1.33,0.49,0.84
,-9.263,0.06,-3.577,-9.287,0.136,-3.498,1.05,0.56,0.91
,-9.213,0.019,-3.597,-9.287,0.206,-3.467,1.26,0.7,0.91
32937.0,-9.296,0.136,-3.34,-9.186,0.179,-3.544,1.75,0.91,1.47
,-9.335,0.158,-3.364,-9.184,0.105,-3.563,1.4,1.05,1.4
,-9.282,0.235,-3.451,-9.162,-0.002,-3.525,0.98,1.26,1.19
,-9.227,0.208,-3.515,-9.234,-0.062,-3.348,0.56,1.47,1.12
33013.0,-9.34,-0.12,-3.216,-9.174,-0.007,-3.214,1.82,2.38,1.19
,-9.301,0.096,-3.187,-9.16,-0.168,-3.228,1.89,2.8,0.7
,-9.194,0.29,-3.223,-9.239,-0.211,-3.154,0.56,3.29,0.49
,-9.122,0.239,-3.149,-9.304,-0.182,-3.209,-1.47,3.85,0.7
33088.0,-9.426,-0.127,-3.384,-9.117,0.311,-3.486,1.33,6.93,3.5
,-9.265,0.282,-3.498,-9.103,0.333,-3.403,1.19,7.07,3.08
,-9.174,0.416,-3.439,-9.234,0.251,-3.281,-0.35,7.35,2.52
,-9.17,0.404,-3.467,-9.378,0.225,-3.606,-2.94,7.56,1.96
33164.0,-9.292,0.196,-3.52,-9.0,0.354,-3.848,-6.09,8.96,2.1
,-9.232,0.232,-3.963,-9.107,0.218,-3.719,-5.67,8.82,1.96
,-8.971,0.29,-3.896,-9.201,-0.031,-3.4,-5.18,8.4,2.17
,-8.842,0.275,-3.893,-9.349,-0.065,-3.613,-4.34,8.19,2.73
33240.0,-9.282,0.024,-3.74,-8.861,-0.323,-3.886,-0.91,8.12,3.57
,-9.105,0.091,-3.951,-9.002,-0.371,-3.654,-1.54,8.05,3.22
,-8.894,0.287,-4.233,-9.117,-0.172,-3.556,-2.73,8.05,3.08
,-8.768,0.048,-4.058,-9.189,0.129,-3.508,-3.29,8.12,3.92
33315.0,-9.234,0.397,-3.13,-9.21,0.866,-3.989,10.85,10.36,9.45
,-9.366,0.517,-3.285,-8.89,0.969,-4.513,10.29,10.85,9.31
,-9.373,0.699,-3.388,-8.691,0.591,-4.602,9.38,11.13,9.03
,-9.261,0.799,-3.424,-8.658,0.201,-4.838,8.33,11.34,8.89
33391.0,-8.729,-0.089,-4.494,-9.081,0.682,-3.625,0.35,8.33,5.6
,-9.052,-0.098,-4.398,-9.179,0.905,-3.486,6.79,8.89,6.44
,-8.993,0.122,-4.264,-9.28,0.981,-3.051,12.95,9.17,7.07
,-8.954,0.476,-4.042,-9.373,1.158,-3.125,17.64,9.66,7.98
33467.0,-9.351,1.438,-3.53,-8.555,0.555,-4.087,14.49,11.9,6.3
,-9.177,1.335,-3.558,-8.794,0.637,-4.649,9.17,12.25,5.25
,-9.012,1.137,-3.778,-8.976,0.357,-4.896,3.85,12.25,3.57
,-8.703,0.763,-4.02,-8.99,0.038,-4.87,-1.61,11.9,1.89
33543.0,-8.878,-0.347,-4.69,-8.741,-0.182,-4.779,-8.61,8.68,0.49
,-8.705,-0.529,-4.604,-8.789,-0.426,-4.755,-3.99,9.17,1.19
,-8.696,-0.292,-4.424,-8.681,-0.354,-4.233,1.33,9.24,2.03
,-8.732,-0.127,-4.74,-8.717,0.036,-3.668,5.74,9.03,3.08
33618.0,-8.811,0.905,-3.929,-8.691,0.273,-3.766,22.82,10.71,9.38
,-9.229,1.232,-4.121,-8.708,0.476,-4.073,17.15,9.17,7.98
,-9.208,1.098,-3.979,-8.945,0.601,-4.216,9.17,8.82,6.72
,-8.76,0.639,-3.821,-9.117,0.761,-4.544,2.94,9.52,5.81
33694.0,-8.873,0.943,-4.788,-8.914,0.447,-4.178,3.92,7.84,4.9
,-8.636,0.914,-4.74,-9.11,0.534,-4.204,4.2,8.68,5.46
,-8.497,0.818,-4.716,-9.088,0.696,-4.192,4.9,9.45,5.18
,-8.586,0.591,-4.52,-8.885,0.794,-4.13,5.39,10.15,5.11
33770.0,-8.65,1.084,-4.058,-8.787,0.519,-4.554,7.77,12.6,4.55
,-8.794,1.292,-4.061,-8.665,0.558,-4.64,6.16,12.88,4.06
,-8.923,1.141,-4.178,-8.564,0.962,-4.886,3.15,12.74,3.08
,-8.976,0.861,-4.31,-8.698,1.28,-4.728,0.42,11.9,2.1
33846.0,-8.593,1.29,-4.525,-8.854,-0.254,-4.898,3.08,11.48,0.14
,-8.67,0.976,-4.451,-8.545,-0.203,-5.14,1.19,11.41,0.0
,-8.808,0.471,-4.621,-8.282,-0.05,-5.154,-0.56,10.92,0.56
,-8.916,0.019,-4.817,-8.442,0.16,-5.15,-1.26,10.92,1.33
33921.0,-8.631,0.577,-5.226,-8.507,1.409,-5.042,7.91,10.22,2.59
,-8.629,1.103,-5.157,-8.794,1.007,-4.769,6.51,8.96,2.1
,-8.607,1.338,-5.303,-8.981,0.615,-4.527,3.08,7.77,1.4
,-8.409,1.565,-5.226,-8.854,0.316,-4.496,0.14,7.21,-0.07
33997.0,-8.701,0.067,-4.427,-8.871,0.723,-5.214,-0.07,7.14,-1.33
,-8.358,0.4,-4.791,-8.854,0.952,-5.348,1.75,6.51,-1.12
,-7.992,0.45,-5.102,-8.923,1.07,-5.281,3.36,6.72,-0.63
,-8.361,0.467,-5.025,-9.019,1.003,-5.183,6.3,7.56,0.21
34072.0,-8.825,1.003,-5.221,-8.409,0.428,-5.042,2.38,3.43,-4.13
,-8.595,0.718,-5.336,-8.516,0.459,-4.867,1.96,3.01,-4.34
,-8.605,0.366,-5.166,-8.672,0.519,-4.484,1.82,2.17,-4.13
,-8.425,0.517,-5.389,-8.67,0.986,-4.614,3.29,0.7,-4.2
34148.0,-8.519,1.484,-4.846,-8.815,1.027,-4.413,13.72,2.31,-6.51
,-8.538,1.797,-4.767,-8.528,0.809,-4.659,11.83,1.96,-7.07
,-8.394,1.948,-4.853,-8.32,0.445,-4.75,8.47,2.03,-8.89
,-8.442,1.417,-4.616,-8.449,0.237,-5.138,5.11,2.87,-10.36
34224.0,-8.531,-0.093,-5.389,-8.318,-1.326,-5.458,4.83,3.5,-10.08
,-8.674,-0.488,-5.463,-8.5,-1.438,-5.506,5.81,3.15,-9.31
,-8.48,-0.735,-5.592,-8.729,-1.273,-5.312,6.3,2.73,-7.63
,-8.248,-1.216,-5.516,-8.811,-0.84,-5.327,6.3,3.01,-5.39
34300.0,-8.703,-0.447,-5.317,-8.658,0.637,-5.19,12.74,1.05,2.24
,-8.516,-0.256,-5.26,-8.708,0.816,-4.855,11.9,0.56,3.22
,-8.423,0.151,-5.142,-8.634,1.034,-5.023,10.85,0.28,4.06
,-8.454,0.419,-5.178,-8.643,1.082,-5.099,9.59,0.35,4.2
34376.0,-8.61,0.622,-4.982,-8.437,0.038,-4.939,8.75,-1.05,1.75
,-8.629,0.548,-5.023,-8.406,-0.108,-5.078,10.43,-0.56,2.03
,-8.631,0.404,-4.996,-8.492,-0.177,-5.272,11.41,-0.7,1.68
,-8.588,0.505,-5.092,-8.607,-0.45,-5.185,11.62,-1.33,1.12
34451.0,-8.655,-0.471,-5.164,-8.813,0.139,-5.121,12.39,-0.98,4.55
,-8.811,-0.44,-5.13,-8.792,0.388,-5.303,12.46,-1.19,4.41
,-8.815,-0.27,-4.996,-8.385,0.464,-5.188,11.83,-1.33,4.41
,-8.765,-0.05,-4.951,-8.234,0.258,-4.922,11.76,-1.96,4.13
34527.0,-8.569,0.165,-4.805,-8.323,1.12,-4.882,7.84,0.21,5.25
,-8.93,0.153,-4.676,-8.605,1.024,-4.901,7.14,-0.21,5.32
,-8.875,0.517,-4.58,-8.899,0.651,-4.793,7.35,-0.42,5.04
,-8.495,0.852,-4.59,-8.832,0.349,-4.7,6.93,-0.14,4.69
34603.0,-8.301,0.156,-4.685,-8.703,0.246,-4.937,0.0,1.68,1.26
,-8.086,0.486,-4.98,-9.055,0.134,-5.03,0.35,2.45,0.98
,-8.253,0.455,-4.922,-9.031,-0.151,-4.776,-0.35,3.71,0.7
,-8.485,0.323,-4.834,-8.512,-0.337,-4.853,-1.19,4.9,0.7
34679.0,-8.349,-0.359,-4.719,-9.213,1.759,-4.826,-3.15,5.67,3.29
,-8.667,-0.077,-4.573,-9.105,1.766,-4.865,-1.26,6.58,4.2
,-8.959,0.66,-4.575,-9.055,1.663,-5.016,0.98,6.44,4.34
,-9.115,1.393,-4.826,-8.88,1.405,-5.087,1.47,6.23,3.57
34754.0,-8.545,1.034,-5.269,-8.66,0.098,-5.516,-6.44,7.49,-4.06
,-8.516,0.55,-5.243,-8.576,-0.148,-5.578,-5.6,7.63,-3.92
,-8.492,0.158,-5.26,-8.464,-0.732,-5.575,-4.62,7.84,-3.22
,-8.595,0.091,-5.296,-8.385,-1.055,-5.599,-3.08,8.19,-2.59
34830.0,-8.447,-0.864,-5.731,-8.418,-0.388,-5.918,-0.7,6.3,3.08
,-8.428,-0.634,-5.65,-8.722,-0.263,-5.977,0.56,5.32,4.34
,-8.232,-0.39,-5.695,-9.045,-0.108,-5.855,0.7,4.62,5.04
,-8.256,-0.347,-5.769,-8.954,-0.122,-5.803,0.28,4.27,6.02
34905.0,-8.842,0.081,-5.705,-7.999,-0.321,-5.793,-2.17,0.35,8.4
,-8.406,0.132,-5.69,-8.559,-0.105,-5.549,-3.64,-1.61,8.96
,-7.892,-0.081,-5.779,-8.909,0.467,-5.544,-5.74,-2.03,9.59
,-7.779,-0.232,-5.889,-8.945,0.998,-5.487,-7.0,-1.54,10.43
34981.0,-9.079,1.101,-5.159,-8.447,1.364,-4.932,6.93,-1.12,9.38
,-8.904,1.098,-5.044,-8.208,1.216,-4.848,6.23,-0.56,8.19
,-8.784,1.285,-5.027,-7.798,1.156,-5.018,6.72,-0.56,7.42
,-8.603,1.249,-4.886,-8.086,1.122,-4.884,7.91,-0.7,6.79
35057.0,-8.428,0.969,-4.733,-8.351,0.313,-4.697,2.66,-4.97,2.38
,-8.882,0.991,-4.647,-8.038,0.263,-4.96,2.03,-5.88,1.33
,-8.894,0.919,-4.637,-8.229,0.01,-4.905,0.0,-6.16,1.12
,-8.693,0.723,-4.788,-8.581,0.034,-4.803,-3.92,-6.44,0.84
35133.0,-8.629,0.194,-4.762,-8.605,0.849,-4.843,1.12,-4.9,2.45
,-8.72,0.28,-4.8,-8.425,0.189,-4.319,1.61,-4.76,3.64
,-8.957,0.371,-4.771,-8.77,0.364,-4.267,1.4,-5.04,3.85
,-8.672,0.785,-4.724,-8.885,0.83,-4.724,0.98,-5.32,3.43
35208.0,-8.689,1.058,-5.025,-8.361,1.108,-4.972,0.7,-5.32,2.31
,-8.61,1.23,-5.13,-8.495,0.816,-4.951,-0.42,-5.11,1.89
,-8.471,1.388,-5.09,-8.631,0.644,-4.982,-1.61,-5.04,1.47
,-8.423,1.307,-5.039,-8.607,0.639,-4.908,-3.29,-5.18,0.98
35284.0,-8.624,0.677,-4.815,-8.65,0.369,-4.537,-0.21,-6.86,-0.35
,-8.653,0.598,-4.901,-8.875,0.227,-4.501,-0.98,-7.35,-0.77
,-8.502,0.56,-4.817,-9.016,0.486,-4.53,-1.82,-7.42,-0.91
,-8.614,0.55,-4.798,-8.985,0.797,-4.444,-2.66,-7.77,-0.49
35360.0,-8.863,1.165,-4.472,-8.717,0.938,-4.525,-1.61,-9.03,-1.54
,-8.526,1.254,-4.688,-8.725,0.916,-4.183,-3.5,-9.24,-2.24
,-8.478,1.103,-4.666,-8.804,0.991,-4.109,-5.25,-9.24,-2.73
,-8.662,0.895,-4.47,-8.875,1.084,-4.255,-5.88,-9.17,-3.36
35436.0,-8.787,1.007,-4.456,-8.966,0.306,-4.362,-5.39,-8.68,-5.74
,-8.727,0.763,-4.453,-8.928,0.067,-4.367,-6.37,-8.82,-5.88
,-8.746,0.469,-4.336,-8.813,0.148,-4.226,-5.67,-9.03,-6.09
,-8.904,0.371,-4.341,-8.763,-0.122,-3.982,-3.78,-8.96,-6.23
35512.0,-8.813,-0.294,-4.058,-8.732,0.287,-4.216,-2.1,-6.93,-4.2
,-8.813,-0.124,-4.003,-8.815,0.431,-4.097,-0.21,-7.28,-3.22
,-8.868,0.136,-4.152,-8.82,0.842,-4.147,0.49,-7.56,-2.24
,-8.792,0.282,-4.14,-8.794,0.983,-4.152,0.63,-7.28,-1.68
35587.0,-8.892,1.0,-4.262,-9.232,0.467,-3.522,1.12,-7.35,-2.8
,-8.945,0.84,-4.178,-9.153,0.713,-3.704,-0.49,-7.14,-2.73
,-9.033,0.416,-3.924,-8.892,0.857,-4.003,-1.19,-6.51,-2.66
,-9.112,0.206,-3.671,-8.82,0.718,-4.685,0.77,-5.46,-2.45
35663.0,-8.526,0.548,-4.788,-9.127,0.816,-3.63,1.26,-6.09,-2.52
,-8.693,0.467,-4.547,-9.308,0.916,-3.429,4.69,-5.95,-1.19
,-9.04,0.366,-4.212,-9.146,0.854,-3.666,8.47,-5.39,-1.47
,-9.076,0.55,-3.989,-9.153,0.823,-3.896,10.22,-5.18,-2.38
35738.0,-8.885,0.581,-3.958,-8.949,0.936,-4.374,-6.58,-3.78,-5.88
,-8.938,0.208,-3.865,-8.892,1.086,-4.611,-4.97,-2.94,-5.18
,-8.961,0.129,-4.032,-8.868,0.823,-4.654,-0.98,-2.59,-4.76
,-8.952,0.409,-4.054,-8.878,0.366,-4.322,2.03,-2.87,-4.76
35814.0,-8.966,0.294,-4.209,-9.012,0.179,-4.212,-1.05,-5.32,-5.95
,-9.091,0.821,-3.927,-8.887,0.153,-4.305,-0.7,-5.74,-6.3
,-9.009,0.457,-4.233,-8.82,0.093,-4.042,-1.4,-5.95,-6.44
,-9.005,0.225,-3.979,-9.014,0.002,-3.972,-2.66,-5.88,-6.23
35890.0,-9.072,0.177,-3.886,-9.222,0.364,-3.8,3.57,-6.72,-4.9
,-9.048,0.51,-3.63,-9.095,0.345,-3.874,3.78,-6.79,-4.97
,-9.079,0.579,-3.683,-9.016,0.373,-4.032,1.54,-6.58,-5.25
,-9.069,0.309,-3.506,-8.985,0.014,-4.044,-0.98,-6.09,-5.53
35966.0,-9.012,-0.045,-4.068,-9.107,0.108,-3.778,0.98,-6.16,-3.85
,-9.057,0.175,-3.955,-9.007,0.239,-4.034,3.85,-6.37,-3.36
,-9.069,0.306,-3.869,-9.055,0.213,-4.207,4.69,-6.58,-3.36
,-9.232,0.026,-3.654,-8.938,-0.005,-3.917,2.38,-6.51,-3.29
36041.0,-8.99,-0.055,-3.525,-9.296,-0.077,-2.824,6.58,-6.44,-1.4
,-9.174,0.101,-3.486,-9.335,-0.115,-2.802,9.03,-6.23,-1.12
,-9.091,0.242,-3.264,-9.438,0.024,-2.843,9.94,-6.02,-0.7
,-9.153,0.115,-3.092,-9.363,0.026,-3.013,8.54,-5.32,-0.56
36117.0,-9.196,0.01,-3.142,-9.198,0.091,-3.666,4.06,-0.07,-0.35
,-9.177,-0.055,-3.24,-9.179,0.069,-3.812,3.15,0.35,-0.28
,-9.179,-0.091,-3.281,-9.177,0.163,-4.003,2.87,0.91,-0.07
,-9.241,0.065,-3.597,-9.139,0.189,-4.14,2.45,1.33,-0.28
36192.0,-9.0,0.124,-4.044,-9.328,0.254,-3.539,3.5,0.91,0.84
,-8.949,0.038,-3.879,-9.316,0.093,-3.369,3.71,0.77,1.19
,-9.016,0.048,-3.668,-9.359,0.0,-3.439,4.13,0.77,1.4
,-9.182,0.182,-3.644,-9.351,0.134,-3.601,4.62,0.7,1.33
36268.0,-9.21,0.345,-3.814,-9.103,0.263,-3.922,2.87,1.4,1.26
,-9.124,0.436,-3.905,-9.103,0.115,-3.589,2.17,0.98,1.12
,-9.088,0.445,-4.042,-9.15,0.189,-3.381,1.75,0.91,1.05
,-9.072,0.378,-3.999,-9.347,0.364,-3.429,1.54,0.63,1.05
36344.0,-9.292,0.426,-3.35,-9.124,0.031,-3.542,3.57,1.12,1.61
,-9.294,0.299,-3.367,-9.129,0.168,-3.429,2.73,1.54,1.68
,-9.241,0.034,-3.451,-9.208,0.254,-3.477,2.87,2.03,1.89
,-9.136,0.0,-3.51,-9.249,0.392,-3.556,4.2,2.17,2.1
36420.0,-9.275,0.416,-3.647,-9.107,0.199,-3.975,4.13,3.64,1.96
,-9.246,0.378,-3.786,-9.198,0.304,-3.979,3.36,3.71,1.68
,-9.17,0.244,-3.936,-9.15,0.404,-3.944,3.29,3.5,1.75
,-9.1,0.124,-3.879,-9.129,0.318,-3.884,4.06,3.36,2.03
36496.0,-9.146,0.297,-3.879,-9.117,0.376,-3.9,2.66,2.17,0.98
,-9.198,0.388,-3.924,-9.124,0.426,-3.841,2.8,1.82,0.84
,-9.182,0.455,-3.979,-9.174,0.416,-3.953,2.87,1.61,0.7
,-9.17,0.412,-3.936,-9.124,0.397,-4.034,2.94,1.4,0.63
36571.0,-9.045,0.333,-3.941,-9.296,0.196,-3.664,4.13,0.21,0.63
,-9.016,0.206,-3.848,-9.371,0.261,-3.728,3.92,0.14,0.56
,-9.081,0.16,-3.817,-9.289,0.316,-3.74,3.92,0.0,0.56
,-9.165,0.141,-3.699,-9.203,0.206,-3.75,3.92,0.0,0.49
36647.0,-9.191,0.184,-3.8,-9.186,0.419,-3.817,3.43,0.0,0.21
,-9.081,0.139,-3.778,-9.174,0.297,-3.783,4.69,0.0,0.56
,-9.127,0.254,-3.735,-9.22,0.23,-3.719,5.67,-0.07,0.56
,-9.124,0.388,-3.786,-9.201,0.225,-3.723,5.74,-0.14,0.35
36723.0,-9.225,0.189,-3.604,-9.277,0.168,-3.386,4.41,-0.07,0.14
,-9.194,0.148,-3.52,-9.275,0.223,-3.458,4.55,0.0,0.21
,-9.134,0.158,-3.443,-9.22,0.223,-3.51,4.48,0.35,0.28
,-9.143,0.16,-3.348,-9.191,0.112,-3.563,4.34,0.84,0.49
36799.0,-9.227,0.029,-3.652,-9.263,0.203,-3.721,3.15,2.03,0.28
,-9.153,0.165,-3.632,-9.15,0.165,-3.661,4.06,2.38,0.56
,-9.206,0.179,-3.692,-9.124,0.132,-3.625,4.13,2.17,0.56
,-9.284,0.201,-3.668,-9.107,0.079,-3.666,3.78,2.31,0.63
36874.0,-9.072,0.065,-3.695,-9.268,0.158,-4.061,3.22,2.59,0.98
,-9.079,0.043,-3.723,-9.141,0.158,-4.171,3.64,2.59,1.19
,-9.155,0.101,-3.814,-9.04,0.165,-4.063,4.06,2.73,1.4
,-9.277,0.136,-3.924,-9.036,0.237,-3.989,4.41,2.59,1.4
36950.0,-9.021,0.313,-3.888,-9.397,0.22,-3.711,5.53,0.84,1.68
,-9.069,0.397,-3.714,-9.332,0.079,-3.79,4.76,0.77,1.68
,-9.189,0.428,-3.649,-9.246,0.053,-3.85,3.29,0.49,1.26
,-9.253,0.378,-3.692,-9.155,0.065,-3.903,1.47,0.56,0.84
37025.0,-8.971,0.079,-3.867,-9.275,0.337,-3.774,1.19,0.35,1.12
,-8.949,0.065,-3.821,-9.258,0.369,-3.79,1.4,0.28,1.4
,-9.069,0.196,-3.824,-9.131,0.278,-3.798,1.96,0.35,1.75
,-9.201,0.287,-3.776,-9.031,0.158,-3.747,1.82,0.35,1.75
37101.0,-9.122,0.199,-3.656,-9.206,0.38,-3.592,2.52,0.0,2.1
,-9.275,0.235,-3.542,-9.115,0.251,-3.652,2.8,0.14,1.96
,-9.263,0.282,-3.396,-9.048,0.091,-3.618,2.38,0.28,1.82
,-9.251,0.318,-3.522,-9.119,0.101,-3.558,1.54,0.49,1.47
37177.0,-9.184,0.246,-3.661,-9.206,0.096,-3.29,1.47,0.98,1.05
,-9.17,0.309,-3.592,-9.325,0.208,-3.245,1.75,1.12,1.05
,-9.1,0.201,-3.472,-9.347,0.17,-3.312,1.26,1.33,1.05
,-9.107,0.074,-3.329,-9.241,0.141,-3.242,1.4,1.61,1.26
37253.0,-9.241,0.079,-3.23,-9.158,0.184,-3.786,-0.91,4.55,1.47
,-9.256,0.177,-3.276,-9.083,-0.041,-3.719,-1.19,5.18,1.54
,-9.227,0.287,-3.4,-9.088,-0.057,-3.805,-1.96,5.53,1.19
,-9.177,0.39,-3.68,-9.182,0.072,-3.977,-3.36,5.53,0.91
37328.0,-9.057,0.189,-3.965,-9.28,0.364,-3.544,-2.31,5.6,1.12
,-9.088,0.026,-3.843,-9.241,0.488,-3.68,-2.45,5.95,1.54
,-9.086,-0.086,-3.532,-9.155,0.256,-3.879,-1.89,6.23,1.54
,-9.158,0.005,-3.309,-9.0,0.074,-3.9,-0.28,6.72,1.54
37404.0,-9.129,0.158,-3.91,-9.318,0.309,-3.699,4.34,7.07,4.48
,-9.131,0.524,-3.848,-9.036,0.438,-4.003,6.09,6.93,4.55
,-9.217,0.742,-3.833,-8.861,0.646,-3.967,4.9,6.79,4.2
,-9.225,0.574,-3.506,-8.997,0.658,-4.068,2.03,7.0,4.2
37480.0,-9.031,0.548,-3.982,-9.127,0.208,-3.525,-2.73,6.02,1.26
,-9.232,0.562,-3.869,-9.258,0.108,-3.443,-2.17,6.23,1.33
,-9.311,0.493,-3.704,-9.335,0.065,-3.388,-2.17,6.44,1.33
,-9.16,0.294,-3.63,-9.225,0.179,-3.36,-2.66,6.58,1.26
37556.0,-9.112,0.426,-3.518,-8.763,0.869,-5.252,-1.61,9.45,2.87
,-8.964,0.715,-3.795,-8.887,0.364,-5.145,-2.24,8.89,2.03
,-8.804,1.242,-4.46,-9.016,0.043,-4.989,-3.36,7.77,0.91
,-8.717,1.328,-5.025,-9.012,0.201,-4.393,-5.95,6.16,0.21
37632.0,-9.093,0.558,-3.731,-9.418,0.601,-2.568,6.37,4.55,-1.05
,-9.239,0.771,-3.271,-9.304,0.543,-3.25,7.35,5.25,-1.47
,-9.258,0.792,-2.967,-9.028,0.294,-3.843,6.09,6.02,-1.54
,-9.347,0.66,-2.426,-8.641,0.122,-4.826,3.99,7.28,-1.26
37707.0,-8.327,-0.366,-5.195,-8.923,-1.055,-4.29,-5.6,6.65,-1.26
,-8.385,-1.053,-5.238,-9.119,-0.692,-3.996,-0.63,6.58,1.26
,-8.598,-1.474,-4.996,-9.217,-0.507,-3.467,7.14,6.93,3.5
,-8.689,-1.536,-4.487,-9.229,-0.06,-3.592,16.24,7.21,6.16
37783.0,-9.167,0.646,-3.331,-8.863,1.517,-4.025,40.04,11.97,15.75
,-9.172,1.347,-3.642,-8.689,0.919,-4.089,37.66,12.18,15.05
,-9.064,1.785,-4.003,-8.808,0.44,-3.865,29.89,11.34,12.53
,-9.007,1.725,-4.022,-9.076,0.457,-4.173,19.04,10.36,9.94
37858.0,-8.973,0.536,-4.3,-9.179,0.639,-3.647,-2.52,9.59,-0.21
,-8.842,0.627,-4.046,-9.158,1.106,-4.135,-1.82,10.22,-0.14
,-8.813,0.483,-3.817,-8.947,1.06,-4.649,-0.84,11.06,-0.28
,-8.861,0.505,-3.585,-8.67,0.419,-4.551,0.91,11.9,-0.63
37934.0,-8.538,-0.359,-4.25,-8.918,0.246,-4.649,-4.62,12.11,0.0
,-8.768,-0.905,-3.982,-8.708,0.208,-4.53,-0.77,13.37,1.12
,-8.957,-0.577,-4.25,-8.681,0.029,-4.2,4.55,13.09,1.89
,-8.938,-0.168,-4.434,-8.607,0.005,-4.027,7.07,12.04,2.45
38010.0,-8.626,0.168,-4.255,-8.866,-0.024,-4.475,4.55,13.65,3.92
,-8.729,0.438,-4.482,-8.746,-0.077,-4.293,5.6,12.6,4.83
,-8.952,0.395,-4.788,-8.579,0.172,-4.57,5.53,12.11,5.46
,-8.906,0.211,-4.8,-8.437,0.409,-4.671,6.09,12.74,6.3
38086.0,-8.634,0.416,-5.016,-8.77,1.529,-4.929,13.16,13.3,9.38
,-8.665,0.256,-4.886,-8.648,2.067,-5.296,11.83,13.3,9.8
,-8.629,0.366,-4.673,-8.65,2.237,-5.473,11.9,13.44,9.52
,-8.638,0.883,-4.75,-8.586,2.058,-5.453,11.9,12.88,8.12
38161.0,-8.653,1.508,-5.08,-8.686,0.909,-5.3,-0.91,11.06,-1.96
,-8.909,1.292,-4.908,-8.469,0.292,-5.181,-0.91,11.06,-3.78
,-9.06,1.302,-5.09,-8.382,-0.309,-4.934,0.42,9.87,-5.25
,-8.894,1.266,-5.322,-8.571,-0.873,-4.86,1.19,8.47,-6.02
38237.0,-8.662,-0.806,-5.039,-8.363,0.22,-5.212,3.5,9.59,-1.54
,-8.67,-0.395,-5.386,-8.26,0.364,-5.15,6.37,8.12,-0.35
,-8.696,-0.079,-5.358,-8.184,0.416,-5.049,6.09,7.35,0.07
,-8.433,0.175,-5.379,-8.397,0.467,-4.956,3.36,7.07,-0.07
38312.0,-8.765,0.333,-4.879,-8.306,0.445,-5.468,-2.8,5.04,-0.98
,-8.897,0.246,-5.008,-8.571,0.108,-5.176,-2.03,5.18,-0.7
,-8.741,0.395,-5.217,-8.897,0.184,-4.913,-0.28,5.25,-0.21
,-8.581,0.428,-5.37,-8.71,0.771,-5.049,1.12,5.25,0.0
38388.0,-8.203,1.125,-5.274,-8.775,-0.065,-5.255,6.37,0.42,-3.99
,-8.224,0.962,-5.396,-8.681,0.002,-5.102,4.55,0.56,-4.27
,-8.464,0.553,-5.31,-8.593,0.357,-4.932,2.31,0.28,-4.41
,-8.567,0.196,-5.382,-8.193,0.692,-5.013,2.52,0.49,-4.13
38464.0,-8.471,0.782,-4.513,-8.514,1.51,-4.889,11.06,0.56,-3.78
,-8.447,0.797,-4.721,-8.492,1.615,-4.683,9.45,0.49,-3.85
,-8.641,0.96,-4.716,-8.689,1.173,-4.482,8.96,0.56,-4.41
,-8.504,1.318,-4.654,-8.914,0.656,-4.582,10.29,1.54,-5.32
38540.0,-8.751,-0.158,-4.549,-8.354,-1.182,-5.061,2.17,2.59,-9.66
,-8.411,-0.914,-4.652,-8.334,-0.675,-5.327,1.26,2.94,-8.33
,-8.224,-1.407,-4.803,-8.334,-0.447,-5.511,2.94,4.13,-6.93
,-8.272,-1.474,-4.889,-8.445,-0.572,-5.638,6.51,4.55,-5.67
38616.0,-8.624,-0.797,-5.401,-8.746,-0.498,-4.731,8.54,1.82,1.26
,-8.567,-0.921,-5.343,-8.705,0.057,-4.949,7.63,1.4,2.24
,-8.55,-1.041,-5.195,-8.457,0.608,-5.305,7.49,1.26,3.08
,-8.595,-0.854,-4.953,-8.126,0.519,-5.523,9.03,0.98,3.15
38691.0,-7.999,0.395,-5.666,-8.839,-0.361,-4.925,7.91,-2.03,4.27
,-8.105,0.28,-5.671,-9.105,-0.366,-4.901,7.63,-1.26,5.18
,-8.27,0.067,-5.307,-8.976,-0.684,-4.697,8.61,-0.21,6.3
,-8.39,0.002,-5.15,-8.902,-0.732,-4.716,9.87,0.56,6.93
38767.0,-8.617,-0.426,-4.92,-8.598,0.928,-5.083,11.2,-0.42,8.26
,-8.598,-0.189,-4.853,-8.428,1.003,-5.126,12.11,0.21,8.96
,-8.528,0.251,-4.872,-8.433,0.974,-5.284,12.95,0.28,9.59
