Timestamp,AccX,AccY,AccZ,GyroX,GyroY,GyroZ,MagnX,MagnY,MagnZ
0.0,-9.182,-0.318,-3.788,-9.117,-0.366,-3.86,3.08,1.19,0.63
,-9.184,-0.34,-3.798,-9.086,-0.361,-3.855,2.73,1.19,0.63
,-9.158,-0.371,-3.778,-9.162,-0.342,-3.86,2.38,1.26,0.56
,-9.117,-0.361,-3.798,-9.124,-0.34,-3.862,2.45,1.33,0.63
76.0,-9.124,-0.313,-3.869,-9.107,-0.299,-3.824,2.59,1.47,0.77
,-9.115,-0.304,-3.881,-9.158,-0.302,-3.92,2.73,1.47,0.7
,-9.083,-0.29,-3.898,-9.129,-0.323,-3.853,2.8,1.26,0.63
,-9.124,-0.361,-3.888,-9.093,-0.378,-3.824,2.8,1.33,0.77
152.0,-9.131,-0.39,-3.853,-9.146,-0.297,-3.814,2.66,1.4,0.77
,-9.129,-0.323,-3.793,-9.107,-0.313,-3.833,2.59,1.68,0.91
,-9.136,-0.366,-3.807,-9.139,-0.369,-3.845,2.31,1.68,0.84
,-9.186,-0.333,-3.826,-9.134,-0.304,-3.92,2.31,1.61,0.7
227.0,-9.069,-0.345,-3.9,-9.131,-0.287,-3.893,2.31,1.68,0.7
,-9.083,-0.318,-3.924,-9.165,-0.304,-3.9,2.38,1.75,0.7
,-9.119,-0.376,-3.872,-9.098,-0.383,-3.891,2.38,1.68,0.77
,-9.131,-0.378,-3.874,-9.136,-0.316,-3.881,2.45,1.61,0.77
302.0,-9.095,-0.373,-3.888,-9.105,-0.311,-3.848,2.66,1.4,0.84
,-9.129,-0.349,-3.877,-9.162,-0.325,-3.829,2.52,1.33,0.84
,-9.131,-0.316,-3.841,-9.158,-0.328,-3.829,2.45,1.26,0.91
,-9.091,-0.34,-3.867,-9.117,-0.299,-3.802,2.17,1.4,0.77
378.0,-9.16,-0.285,-3.838,-9.146,-0.345,-3.884,2.66,1.61,0.98
,-9.119,-0.337,-3.888,-9.112,-0.349,-3.831,2.73,1.75,0.98
,-9.088,-0.354,-3.857,-9.122,-0.28,-3.848,2.87,1.61,0.98
,-9.105,-0.309,-3.896,-9.148,-0.302,-3.898,3.01,1.47,0.91
453.0,-9.143,-0.292,-3.9,-9.091,-0.299,-3.955,2.24,1.54,0.84
,-9.127,-0.34,-3.984,-9.072,-0.287,-3.896,2.17,1.47,0.77
,-9.129,-0.309,-3.915,-9.127,-0.325,-3.821,2.52,1.26,0.84
,-9.115,-0.287,-3.944,-9.122,-0.304,-3.821,2.59,1.19,0.91
529.0,-9.162,-0.282,-3.793,-9.158,-0.323,-3.798,2.45,1.33,0.63
,-9.198,-0.299,-3.752,-9.117,-0.359,-3.75,2.03,1.33,0.56
,-9.158,-0.337,-3.747,-9.124,-0.359,-3.776,1.89,1.54,0.56
,-9.16,-0.33,-3.731,-9.136,-0.342,-3.833,2.1,1.75,0.63
605.0,-9.122,-0.292,-3.759,-9.021,-0.488,-3.778,2.31,2.1,0.77
,-9.093,-0.287,-3.948,-9.105,-0.414,-3.872,1.26,2.1,0.42
,-9.127,-0.335,-3.884,-9.136,-0.285,-3.939,1.26,2.03,0.56
,-9.162,-0.29,-3.786,-9.112,-0.244,-3.97,1.54,2.17,0.84
681.0,-9.093,-0.28,-3.881,-9.081,-0.266,-3.999,2.52,1.75,0.98
,-9.167,-0.328,-3.884,-9.081,-0.251,-3.917,2.03,1.75,0.91
,-9.074,-0.361,-3.886,-9.124,-0.27,-3.869,2.1,1.82,0.84
,-9.143,-0.371,-3.857,-9.124,-0.323,-3.754,2.38,1.82,0.84
757.0,-9.115,-0.438,-3.776,-9.105,-0.256,-3.984,0.7,1.82,0.7
,-9.086,-0.395,-3.838,-9.11,-0.313,-3.877,1.54,1.68,0.84
,-9.1,-0.366,-3.989,-9.143,-0.349,-3.848,2.66,1.54,0.98
,-9.115,-0.242,-4.015,-9.148,-0.366,-3.855,3.22,1.61,0.91
832.0,-9.131,-0.325,-3.85,-9.127,-0.268,-3.85,2.31,1.47,0.7
,-9.124,-0.354,-3.915,-9.194,-0.203,-4.283,2.24,1.26,0.77
,-9.091,-0.376,-3.869,-9.105,-0.17,-4.056,2.31,1.26,0.84
,-9.031,-0.302,-3.888,-9.091,-0.23,-3.908,2.59,1.33,0.91
908.0,-9.155,-0.292,-3.843,-9.086,-0.316,-3.924,1.4,1.61,0.7
,-9.115,-0.4,-3.814,-9.083,-0.333,-3.944,1.75,1.61,0.77
,-9.127,-0.306,-3.812,-9.119,-0.354,-3.951,2.45,1.4,0.84
,-9.15,-0.213,-3.965,-9.076,-0.34,-3.972,2.1,1.33,0.63
984.0,-9.1,-0.309,-3.984,-9.131,-0.227,-3.944,2.8,1.12,0.7
,-9.069,-0.29,-3.955,-9.131,-0.304,-3.881,3.01,1.05,0.84
,-9.122,-0.275,-3.912,-9.088,-0.34,-3.86,2.94,0.98,0.91
,-9.122,-0.258,-3.934,-9.069,-0.304,-3.869,2.73,0.98,0.77
1060.0,-9.105,-0.311,-3.905,-9.107,-0.309,-3.932,2.94,0.91,0.63
,-9.15,-0.273,-3.798,-9.1,-0.323,-3.936,2.87,0.7,0.7
,-9.067,-0.373,-3.867,-9.107,-0.333,-3.867,2.52,0.77,0.63
,-9.083,-0.337,-3.869,-9.117,-0.285,-3.874,2.66,0.49,0.63
1135.0,-9.15,-0.294,-3.869,-9.134,-0.39,-3.817,3.36,0.56,0.63
,-9.105,-0.285,-3.867,-9.091,-0.275,-3.795,3.15,0.56,0.49
,-9.124,-0.345,-3.881,-9.148,-0.395,-3.898,2.66,0.56,0.42
,-9.088,-0.378,-3.826,-9.076,-0.309,-3.802,3.01,0.63,0.49
1211.0,-9.153,-0.251,-3.843,-9.146,-0.292,-3.814,2.52,0.91,0.49
,-9.107,-0.294,-3.814,-9.198,-0.392,-3.869,2.31,0.98,0.49
,-9.141,-0.383,-3.774,-9.131,-0.309,-3.96,2.73,0.84,0.42
,-9.155,-0.349,-3.831,-9.11,-0.23,-3.896,2.59,0.63,0.42
1286.0,-9.16,-0.29,-3.692,-9.036,-0.337,-3.944,3.01,0.63,0.28
,-9.074,-0.431,-3.769,-9.098,-0.359,-3.951,2.52,0.49,0.14
,-9.143,-0.345,-3.891,-9.129,-0.263,-3.891,2.94,0.49,0.14
,-9.148,-0.309,-3.979,-9.124,-0.39,-3.845,3.64,0.49,0.14
1362.0,-9.064,-0.318,-3.783,-9.146,-0.347,-3.709,3.5,0.21,0.07
,-9.17,-0.366,-3.685,-9.115,-0.402,-3.805,3.15,0.35,-0.07
,-9.141,-0.431,-3.609,-9.093,-0.347,-3.774,2.66,0.35,-0.07
,-9.208,-0.426,-3.79,-9.15,-0.357,-3.879,2.8,0.49,-0.14
1438.0,-9.158,-0.342,-3.85,-9.088,-0.397,-3.719,3.29,0.7,0.14
,-9.076,-0.424,-3.783,-9.095,-0.369,-3.642,3.29,0.63,0.28
,-9.072,-0.469,-3.733,-9.103,-0.376,-3.604,3.57,0.84,0.28
,-9.091,-0.428,-3.659,-9.11,-0.455,-3.563,3.78,0.98,0.21
1514.0,-9.136,-0.443,-3.506,-9.22,-0.44,-3.295,4.06,2.31,0.56
,-9.179,-0.44,-3.408,-9.182,-0.44,-3.491,4.2,2.73,0.63
,-9.184,-0.44,-3.309,-9.067,-0.491,-3.522,3.92,3.43,0.63
,-9.263,-0.447,-3.259,-9.062,-0.562,-3.458,3.71,4.2,0.7
1589.0,-9.081,-0.668,-3.379,-9.409,-0.182,-3.637,3.43,7.28,1.4
,-9.088,-0.672,-3.199,-9.28,-0.172,-3.867,4.27,8.05,1.75
,-9.117,-0.555,-3.123,-9.005,-0.333,-3.934,5.04,8.89,1.96
,-9.287,-0.337,-3.331,-8.906,-0.61,-3.891,4.97,9.52,1.75
1665.0,-8.959,-0.799,-3.685,-9.021,0.019,-4.29,0.21,10.57,3.01
,-9.122,-0.639,-3.589,-9.002,-0.146,-4.42,3.5,11.2,3.5
,-9.304,-0.285,-3.975,-9.038,-0.452,-4.623,4.55,10.78,2.66
,-9.222,0.0,-4.293,-8.882,-0.579,-4.42,2.38,10.15,1.54
1741.0,-8.827,-0.443,-4.247,-9.296,-0.158,-3.532,-5.04,7.56,-0.28
,-8.727,-0.297,-3.922,-9.265,0.043,-3.831,-4.06,7.77,0.28
,-8.837,-0.328,-3.324,-9.15,0.218,-4.623,-3.57,9.03,1.4
,-9.332,-0.254,-3.676,-8.842,-0.136,-4.611,-3.29,9.52,1.47
1817.0,-8.579,-0.424,-4.743,-8.973,-0.225,-4.336,-11.83,7.49,1.19
,-8.536,-0.663,-4.551,-8.918,-0.05,-4.219,-10.22,7.63,1.61
,-8.753,-0.699,-4.149,-9.005,0.002,-4.154,-6.51,8.26,2.1
,-8.983,-0.467,-4.369,-9.014,-0.062,-4.472,-2.87,8.26,2.24
1893.0,-8.957,-0.337,-4.212,-8.727,-0.931,-4.369,-10.64,6.44,2.1
,-9.002,-0.491,-4.302,-8.887,-0.967,-4.058,-10.57,6.51,2.31
,-8.842,-0.617,-4.245,-9.012,-0.754,-3.819,-10.43,6.3,2.03
,-8.746,-0.782,-4.389,-8.959,-0.598,-3.845,-8.89,6.37,2.45
1968.0,-9.076,-0.237,-3.609,-8.789,-0.081,-5.054,11.48,9.66,8.82
,-9.091,0.148,-4.054,-8.538,-0.761,-4.97,11.76,9.17,8.68
,-9.014,0.436,-4.427,-8.603,-1.168,-4.822,9.38,7.98,8.05
,-8.918,0.476,-4.972,-8.646,-1.211,-4.652,4.97,6.79,7.63
2044.0,-8.705,-0.84,-4.202,-9.234,0.833,-4.597,10.78,5.95,8.47
,-8.854,-0.246,-3.857,-9.177,1.204,-5.288,14.84,6.58,8.75
,-8.904,0.175,-4.003,-8.952,1.354,-5.171,15.68,6.51,8.4
,-8.988,0.471,-4.233,-8.703,1.082,-5.365,14.07,5.88,8.05
2119.0,-8.509,0.646,-4.98,-8.818,-0.16,-4.051,-3.36,1.33,1.05
,-8.698,0.263,-4.826,-8.935,-0.663,-3.939,-2.45,1.75,0.35
,-8.847,0.06,-4.391,-8.928,-0.888,-4.037,0.21,2.1,-0.07
,-8.902,0.022,-4.128,-8.823,-1.07,-3.915,3.78,2.59,0.14
2195.0,-8.835,-0.821,-3.86,-8.825,0.732,-4.542,11.83,6.72,5.74
,-8.83,-0.28,-4.089,-8.636,0.61,-4.113,16.1,6.02,5.88
,-8.847,0.191,-4.235,-8.54,0.297,-3.879,16.73,5.18,5.46
,-8.971,0.603,-4.47,-8.677,-0.141,-3.446,15.54,4.83,4.62
2271.0,-9.215,-0.268,-3.149,-8.488,1.029,-3.661,8.05,12.11,1.19
,-9.39,-0.163,-3.302,-8.775,1.299,-3.951,9.87,11.69,0.49
,-9.009,0.215,-3.403,-9.024,1.383,-4.216,10.78,12.46,0.35
,-8.72,0.718,-3.666,-9.124,1.388,-4.594,11.83,14.21,0.56
2347.0,-8.849,1.067,-4.441,-8.782,-1.807,-3.999,4.13,16.1,-5.67
,-8.244,0.409,-4.202,-9.129,-1.981,-4.075,0.56,18.2,-6.86
,-8.064,-0.366,-4.192,-9.167,-1.845,-4.482,-0.84,19.6,-6.65
,-8.325,-1.098,-4.243,-8.801,-1.457,-4.762,0.56,19.6,-5.25
2422.0,-8.351,-0.893,-5.229,-8.624,-0.436,-5.269,16.45,20.02,3.71
,-7.916,-0.39,-5.446,-8.753,-0.371,-5.403,15.54,20.02,3.78
,-7.889,-0.297,-5.52,-8.588,-0.605,-5.434,13.02,21.07,3.5
,-8.191,-0.328,-5.37,-8.44,-0.993,-5.489,10.71,21.63,2.87
2498.0,-8.497,-1.405,-5.463,-8.445,-0.024,-5.688,7.07,18.76,6.93
,-8.495,-1.524,-5.487,-8.167,0.44,-5.872,11.62,18.2,8.47
,-8.437,-1.417,-5.52,-8.021,0.641,-5.884,17.43,17.64,9.59
,-8.394,-0.794,-5.523,-8.129,0.677,-5.762,23.24,16.52,10.43
2574.0,-8.449,0.495,-5.619,-8.425,0.213,-5.568,9.45,11.83,5.53
,-8.524,0.601,-5.712,-8.291,-0.134,-5.659,7.63,10.92,4.06
,-8.631,0.682,-5.858,-8.382,-0.555,-5.607,6.58,10.01,2.66
,-8.559,0.481,-5.745,-8.406,-0.632,-5.614,5.6,9.38,1.89
2650.0,-8.318,-0.615,-5.664,-8.363,-0.175,-5.453,13.86,6.58,1.47
,-8.323,-0.586,-5.494,-8.421,-0.184,-5.439,16.45,5.67,1.19
,-8.066,-0.39,-5.511,-8.497,-0.194,-5.346,18.48,5.39,0.98
,-8.112,-0.244,-5.487,-8.497,-0.376,-5.348,18.9,5.6,1.19
2725.0,-8.361,-0.459,-5.305,-8.055,-0.057,-5.626,12.67,8.47,3.08
,-8.275,-0.641,-5.274,-8.39,0.27,-5.583,11.27,8.68,3.85
,-8.217,-0.584,-5.449,-8.48,0.115,-5.231,12.18,8.47,3.99
,-7.894,-0.426,-5.482,-8.497,0.543,-5.363,13.79,8.61,3.36
2801.0,-8.689,0.567,-5.008,-8.299,0.436,-5.875,13.02,8.96,0.0
,-8.454,0.897,-5.391,-8.169,-0.318,-5.76,11.06,6.79,-1.96
,-8.055,0.852,-5.647,-8.059,-0.337,-5.748,11.06,6.3,-4.62
,-8.227,0.704,-5.808,-7.976,-0.72,-5.882,10.99,7.0,-6.58
2877.0,-8.39,-1.307,-5.908,-8.258,-1.563,-5.865,14.14,3.85,-6.09
,-8.495,-1.397,-5.863,-8.514,-1.45,-5.989,16.38,2.24,-5.32
,-8.291,-1.048,-6.214,-8.291,-1.326,-6.138,17.92,2.24,-4.41
,-8.16,-1.551,-5.822,-8.057,-1.658,-6.111,17.43,2.52,-3.43
2953.0,-7.865,-1.675,-6.023,-8.325,-1.826,-5.762,17.85,-1.82,0.42
,-7.633,-1.783,-6.001,-8.715,-1.249,-5.836,18.27,-2.52,2.52
,-7.559,-1.907,-5.887,-8.614,-0.792,-5.999,18.06,-2.31,5.39
,-7.889,-1.95,-5.908,-8.66,-0.694,-5.784,18.55,-2.38,7.7
3029.0,-8.102,-0.313,-5.566,-8.6,0.591,-5.769,21.98,-4.2,11.97
,-7.751,-0.041,-5.489,-8.612,0.038,-5.497,19.88,-4.2,10.71
,-7.935,0.309,-5.482,-8.392,-0.39,-5.252,17.15,-3.43,8.96
,-8.411,0.579,-5.631,-8.193,-0.639,-5.267,13.86,-4.41,7.0
3104.0,-8.057,-0.775,-5.444,-8.354,-0.345,-5.724,5.11,-1.47,4.34
,-8.11,-0.787,-5.501,-8.232,-0.292,-5.8,6.44,0.0,3.92
,-8.354,-0.701,-5.477,-8.191,-0.127,-5.946,7.56,1.12,3.57
,-8.531,-0.524,-5.552,-8.37,-0.108,-5.987,8.12,1.47,3.36
3180.0,-8.411,-0.514,-5.812,-7.978,-0.782,-5.41,0.91,5.18,0.0
,-8.131,-0.861,-5.506,-8.272,-0.792,-5.523,-0.21,6.16,-0.21
,-8.095,-1.019,-5.382,-8.404,-0.675,-5.712,0.07,6.93,-0.42
,-8.016,-0.759,-5.351,-8.404,-0.713,-5.731,0.07,7.21,-0.49
3255.0,-8.351,-0.436,-5.698,-8.49,-0.565,-5.437,-6.51,7.84,1.61
,-8.239,-0.567,-5.585,-8.536,-0.443,-5.511,-8.75,7.84,1.75
,-8.165,-0.493,-5.568,-8.303,-0.201,-5.611,-11.83,7.91,1.26
,-8.241,-0.689,-5.575,-8.129,-0.007,-5.702,-14.28,8.05,0.98
3331.0,-8.208,-0.304,-5.7,-8.294,-0.852,-5.396,-17.15,7.14,1.12
,-8.378,-0.471,-5.678,-8.196,-0.739,-5.532,-17.78,7.14,1.33
,-8.406,-0.704,-5.508,-8.002,-0.538,-5.564,-18.27,6.86,1.68
,-8.284,-0.866,-5.394,-8.21,-0.517,-5.611,-18.48,6.44,1.82
3407.0,-8.205,-0.491,-5.772,-8.2,-0.665,-5.609,-15.05,3.92,2.8
,-8.253,-0.543,-5.575,-8.423,-0.761,-5.599,-15.12,4.55,3.43
,-8.167,-0.668,-5.482,-8.248,-0.682,-5.614,-15.61,5.04,4.69
,-8.122,-0.682,-5.518,-8.239,-0.333,-5.872,-15.75,4.83,5.25
3483.0,-8.184,-0.313,-5.894,-8.126,-0.388,-5.887,-11.13,2.52,6.58
,-8.222,-0.242,-5.913,-7.885,-0.182,-6.021,-10.92,2.87,7.0
,-8.229,-0.22,-6.028,-7.985,-0.254,-6.219,-10.92,2.73,6.93
,-8.22,-0.416,-5.918,-8.09,-0.057,-6.241,-11.34,2.52,6.51
3558.0,-8.129,-0.227,-5.977,-7.906,0.163,-5.836,-3.5,1.12,4.97
,-8.212,-0.041,-5.872,-7.999,0.158,-5.855,-2.45,1.12,5.04
,-8.301,0.163,-5.805,-8.119,0.067,-5.879,-1.4,0.0,4.34
,-8.303,0.316,-5.753,-8.191,-0.041,-5.772,-2.8,-1.89,3.57
3634.0,-8.081,-0.084,-5.743,-8.315,-0.206,-5.76,-0.77,-1.68,-0.77
,-8.179,-0.115,-5.726,-8.232,-0.22,-5.867,0.28,-0.91,-0.7
,-8.246,-0.177,-5.724,-8.1,-0.175,-5.796,0.77,-0.56,-0.21
,-8.315,-0.146,-5.712,-7.961,-0.115,-5.772,1.19,-0.42,0.14
3709.0,-8.052,-0.153,-5.843,-7.983,-0.383,-5.75,3.85,-2.52,0.49
,-8.26,-0.151,-5.86,-8.023,-0.529,-5.767,3.57,-3.43,0.49
,-8.356,-0.179,-5.946,-8.019,-0.447,-5.805,3.71,-3.99,0.77
,-8.088,-0.223,-5.832,-8.165,-0.357,-5.741,3.36,-3.92,1.19
3785.0,-8.189,-0.275,-5.698,-8.184,0.036,-5.698,6.58,-3.92,4.62
,-8.193,-0.103,-5.717,-8.253,0.029,-5.729,6.58,-4.48,4.76
,-8.193,0.022,-5.709,-8.203,0.084,-5.719,6.02,-5.53,4.55
,-8.227,0.017,-5.69,-8.119,-0.27,-5.458,5.32,-6.16,4.55
3861.0,-8.44,-0.206,-5.286,-8.2,0.067,-5.784,4.13,-8.19,3.57
,-8.375,0.084,-5.628,-8.114,-0.069,-5.772,7.14,-9.03,3.01
,-8.411,0.275,-5.812,-8.2,-0.122,-5.631,7.28,-9.94,2.8
,-8.246,0.251,-5.896,-8.263,0.031,-5.532,5.88,-10.57,2.73
3937.0,-8.33,0.179,-5.516,-8.346,0.069,-5.257,7.21,-11.55,1.54
,-8.375,0.261,-5.535,-8.418,-0.022,-5.185,6.23,-12.25,1.05
,-8.392,0.337,-5.47,-8.509,0.132,-5.056,4.13,-12.88,0.56
,-8.337,0.244,-5.37,-8.567,0.321,-5.14,1.61,-12.81,0.28
4013.0,-8.464,0.313,-5.24,-8.445,-0.481,-4.558,0.56,-13.3,-2.03
,-8.323,0.282,-5.145,-8.557,-0.512,-4.678,-0.91,-13.44,-2.17
,-8.334,0.12,-5.078,-8.454,-0.455,-4.867,-1.33,-13.3,-1.82
,-8.38,-0.285,-4.886,-8.38,-0.302,-5.066,-1.89,-12.6,-1.82
4088.0,-8.571,0.05,-5.262,-8.48,0.067,-4.817,4.48,-12.95,-1.61
,-8.555,0.129,-5.147,-8.519,0.148,-4.788,2.87,-12.81,-1.47
,-8.528,0.091,-4.922,-8.591,0.084,-4.7,2.24,-11.97,-1.05
,-8.519,0.029,-4.774,-8.691,0.136,-4.853,1.89,-11.62,-1.54
4164.0,-8.67,0.172,-4.64,-8.741,0.419,-4.757,-0.42,-11.41,-3.57
,-8.653,0.199,-4.594,-8.655,0.447,-4.824,0.35,-10.71,-3.71
,-8.648,0.256,-4.389,-8.569,0.347,-4.882,0.49,-10.71,-4.55
,-8.835,0.275,-4.582,-8.619,0.175,-4.791,0.21,-10.92,-5.18
4240.0,-8.66,-0.06,-4.712,-8.729,-0.531,-4.372,-6.44,-11.48,-8.68
,-8.799,-0.22,-4.53,-8.76,-0.505,-4.159,-6.93,-11.83,-9.1
,-8.772,-0.421,-4.561,-8.835,-0.407,-4.602,-6.79,-11.83,-8.89
,-8.734,-0.507,-4.391,-8.741,-0.505,-4.417,-5.6,-11.48,-8.19
4316.0,-8.772,-0.404,-4.207,-8.66,-0.519,-4.243,-2.38,-10.92,-6.51
,-8.782,-0.428,-4.243,-8.849,-0.517,-4.176,-2.73,-10.64,-6.37
,-8.806,-0.529,-4.329,-9.124,-0.187,-4.161,-2.94,-10.64,-6.65
,-8.65,-0.581,-4.286,-9.148,0.031,-4.503,-2.03,-10.5,-6.09
4391.0,-8.918,0.163,-4.221,-8.835,0.127,-4.946,3.85,-9.31,-4.27
,-8.88,0.311,-4.767,-8.653,0.041,-4.824,3.64,-9.8,-4.9
,-8.76,0.373,-4.609,-8.588,-0.124,-4.759,3.29,-9.73,-5.95
,-8.715,0.203,-4.566,-8.808,-0.256,-4.558,2.45,-9.87,-6.44
4467.0,-8.954,-0.687,-4.487,-8.89,-0.656,-3.687,-0.77,-11.76,-9.38
,-8.954,-0.692,-4.381,-8.892,-0.73,-3.163,0.49,-12.04,-8.68
,-8.959,-0.615,-4.386,-9.27,-0.354,-3.482,1.75,-12.25,-8.47
,-8.863,-0.699,-4.13,-9.318,0.177,-4.027,0.77,-12.11,-8.82
4542.0,-8.995,0.294,-3.953,-8.799,-0.816,-4.314,-3.5,-9.38,-8.26
,-8.871,0.019,-3.841,-8.792,-0.826,-4.487,-8.89,-8.68,-8.12
,-9.0,-0.505,-4.082,-8.763,-0.991,-4.188,-11.27,-7.91,-8.4
,-8.897,-0.883,-4.08,-8.973,-1.077,-4.058,-9.73,-7.63,-7.77
4618.0,-9.112,-1.041,-3.932,-9.007,-0.33,-4.056,0.91,-7.28,-1.96
,-9.028,-0.802,-3.759,-8.985,-0.613,-3.881,3.15,-7.35,-1.19
,-9.131,-0.256,-4.097,-8.995,-0.835,-3.733,4.41,-7.28,-1.19
,-9.153,-0.108,-4.281,-9.131,-0.701,-3.716,2.1,-7.77,-1.61
4694.0,-9.227,-0.392,-3.884,-8.981,-0.637,-3.848,6.37,-7.77,-0.28
,-9.208,-0.038,-3.912,-9.019,-0.553,-3.941,5.32,-7.77,-0.35
,-9.048,-0.184,-3.86,-8.971,-0.278,-3.731,2.73,-7.63,-0.49
,-8.947,-0.543,-3.745,-9.095,-0.215,-3.632,1.54,-7.28,-0.63
4770.0,-9.186,-0.325,-3.419,-9.028,-0.737,-3.585,0.77,-6.3,-1.05
,-9.287,-0.309,-3.585,-8.99,-0.907,-3.553,-0.49,-6.16,-1.4
,-9.256,-0.364,-3.57,-9.083,-0.677,-3.685,-2.03,-6.3,-1.68
,-9.076,-0.517,-3.637,-9.182,-0.462,-3.872,-2.52,-5.88,-1.33
4846.0,-9.093,-0.433,-3.867,-9.191,-0.732,-3.807,3.08,-4.97,-0.21
,-9.072,-0.546,-4.03,-9.265,-0.61,-3.738,2.31,-4.97,-0.35
,-9.021,-0.809,-3.979,-9.273,-0.567,-3.525,2.66,-5.11,-0.21
,-9.031,-0.881,-3.86,-9.258,-0.526,-3.331,5.04,-5.11,0.84
4921.0,-9.253,-0.567,-3.104,-9.253,-0.782,-2.91,7.49,-4.27,1.96
,-9.251,-0.605,-3.044,-9.249,-0.761,-3.005,6.16,-3.78,1.82
,-9.34,-0.648,-3.044,-9.284,-0.605,-3.068,4.83,-3.08,1.54
,-9.301,-0.727,-2.936,-9.304,-0.498,-3.309,3.36,-2.1,1.61
4997.0,-9.237,-0.395,-3.472,-9.232,-0.402,-3.778,2.94,1.05,2.17
,-9.177,-0.5,-3.625,-9.213,-0.273,-3.778,2.45,1.33,2.1
,-9.076,-0.55,-3.671,-9.201,-0.294,-3.676,2.8,1.54,2.24
,-9.165,-0.507,-3.699,-9.141,-0.476,-3.53,3.78,1.47,2.38
5073.0,-9.246,-0.567,-3.606,-9.196,-0.62,-3.515,2.45,1.26,2.1
,-9.32,-0.476,-3.692,-9.268,-0.577,-3.592,3.08,1.19,2.03
,-9.268,-0.409,-3.695,-9.289,-0.426,-3.513,2.73,1.05,1.96
,-9.189,-0.486,-3.606,-9.273,-0.27,-3.673,2.24,1.19,1.96
5149.0,-9.194,-0.409,-3.62,-9.222,-0.402,-3.613,3.29,1.33,2.1
,-9.139,-0.536,-3.577,-9.203,-0.514,-3.467,3.15,1.68,2.17
,-9.165,-0.522,-3.668,-9.261,-0.536,-3.429,3.71,1.82,2.24
,-9.227,-0.438,-3.661,-9.323,-0.447,-3.527,4.41,1.75,2.24
5224.0,-9.284,-0.325,-3.664,-9.16,-0.402,-3.833,3.99,2.38,2.31
,-9.172,-0.359,-3.711,-9.194,-0.323,-3.75,2.8,2.24,1.96
,-9.122,-0.436,-3.728,-9.155,-0.335,-3.728,2.31,2.31,1.82
,-9.16,-0.462,-3.738,-9.148,-0.44,-3.709,2.73,2.31,1.75
5300.0,-9.103,-0.459,-3.606,-9.189,-0.385,-3.731,1.82,2.17,1.47
,-9.206,-0.483,-3.644,-9.186,-0.402,-3.743,2.17,2.1,1.47
,-9.253,-0.431,-3.699,-9.172,-0.412,-3.764,2.52,1.96,1.4
,-9.213,-0.385,-3.704,-9.196,-0.409,-3.754,2.17,1.96,1.19
5375.0,-9.162,-0.345,-3.707,-9.222,-0.369,-3.661,1.61,1.89,1.26
,-9.143,-0.309,-3.628,-9.198,-0.412,-3.661,1.75,2.03,1.26
,-9.217,-0.299,-3.63,-9.167,-0.471,-3.699,1.54,1.82,1.19
,-9.239,-0.357,-3.63,-9.189,-0.397,-3.769,1.19,1.89,0.91
5451.0,-9.107,-0.345,-3.711,-9.261,-0.404,-3.719,1.47,2.03,0.63
,-9.179,-0.407,-3.704,-9.155,-0.416,-3.79,1.12,2.03,0.63
,-9.232,-0.407,-3.702,-9.081,-0.474,-3.814,1.05,1.96,0.63
,-9.249,-0.371,-3.654,-9.067,-0.522,-3.788,1.33,1.96,0.56
5527.0,-9.165,-0.474,-3.819,-9.179,-0.392,-3.668,1.96,1.47,0.63
,-9.215,-0.455,-3.824,-9.191,-0.371,-3.57,1.89,1.33,0.63
,-9.249,-0.44,-3.762,-9.177,-0.38,-3.565,1.75,1.33,0.49
,-9.141,-0.39,-3.654,-9.225,-0.433,-3.575,1.54,1.47,0.49
5603.0,-9.201,-0.498,-3.585,-9.15,-0.445,-3.829,1.33,1.89,0.63
,-9.273,-0.428,-3.553,-9.17,-0.512,-3.891,1.89,1.96,0.63
,-9.256,-0.349,-3.833,-9.148,-0.479,-3.867,1.61,2.03,0.42
,-9.194,-0.392,-3.836,-9.143,-0.361,-3.898,0.91,1.82,0.28
5678.0,-9.201,-0.321,-3.888,-9.191,-0.44,-3.647,3.36,0.84,0.49
,-9.127,-0.426,-3.862,-9.196,-0.383,-3.551,3.22,0.84,0.7
,-9.112,-0.452,-3.75,-9.261,-0.369,-3.604,3.15,0.77,0.84
,-9.186,-0.481,-3.719,-9.232,-0.467,-3.553,3.43,0.84,0.91
5754.0,-9.229,-0.491,-3.642,-9.172,-0.455,-3.635,2.31,1.05,0.7
,-9.148,-0.5,-3.63,-9.186,-0.392,-3.62,2.31,1.26,0.7
,-9.141,-0.45,-3.716,-9.234,-0.412,-3.623,2.38,1.26,0.77
,-9.198,-0.459,-3.687,-9.177,-0.378,-3.709,2.24,1.33,0.77
5830.0,-9.203,-0.392,-3.74,-9.167,-0.464,-3.616,1.47,1.4,0.77
,-9.124,-0.452,-3.743,-9.246,-0.378,-3.704,1.68,1.54,0.84
,-9.131,-0.57,-3.74,-9.182,-0.39,-3.644,2.31,1.54,0.91
,-9.136,-0.57,-3.697,-9.194,-0.404,-3.687,3.22,1.61,1.26
5906.0,-9.153,-0.479,-3.757,-9.196,-0.364,-3.64,2.38,1.4,0.98
,-9.143,-0.464,-3.735,-9.222,-0.33,-3.616,2.59,1.33,1.05
,-9.129,-0.519,-3.678,-9.222,-0.309,-3.659,2.8,1.61,1.19
,-9.155,-0.464,-3.649,-9.225,-0.349,-3.692,2.94,1.54,1.12
5982.0,-9.16,-0.433,-3.726,-9.127,-0.347,-3.778,1.33,1.61,0.77
,-9.136,-0.404,-3.769,-9.167,-0.357,-3.707,1.68,1.75,0.91
,-9.184,-0.447,-3.778,-9.22,-0.337,-3.661,2.38,1.82,0.91
,-9.162,-0.366,-3.795,-9.203,-0.369,-3.635,2.66,1.68,0.98
6057.0,-9.182,-0.397,-3.616,-9.165,-0.402,-3.747,2.24,1.75,0.7
,-9.186,-0.503,-3.613,-9.191,-0.34,-3.745,2.45,1.68,0.7
,-9.165,-0.457,-3.678,-9.148,-0.39,-3.781,2.66,1.75,0.7
,-9.186,-0.414,-3.711,-9.095,-0.371,-3.802,3.01,1.75,0.7
6133.0,-9.153,-0.371,-3.845,-9.122,-0.421,-3.798,2.45,1.68,0.63
,-9.191,-0.397,-3.817,-9.165,-0.419,-3.774,2.52,1.61,0.56
,-9.167,-0.376,-3.838,-9.136,-0.354,-3.721,2.66,1.4,0.7
,-9.134,-0.443,-3.814,-9.112,-0.369,-3.697,2.59,1.12,0.56
6208.0,-9.215,-0.416,-3.666,-9.162,-0.457,-3.757,2.45,1.05,0.42
,-9.194,-0.397,-3.683,-9.17,-0.424,-3.69,2.45,1.12,0.42
,-9.177,-0.402,-3.659,-9.162,-0.412,-3.726,2.52,0.98,0.35
,-9.194,-0.436,-3.75,-9.17,-0.409,-3.678,2.66,1.26,0.35
6284.0,-9.186,-0.39,-3.664,-9.198,-0.507,-3.757,3.22,1.26,0.49
,-9.222,-0.388,-3.635,-9.124,-0.529,-3.783,3.08,1.54,0.56
,-9.196,-0.414,-3.656,-9.129,-0.486,-3.807,2.87,1.75,0.49
,-9.165,-0.464,-3.752,-9.153,-0.455,-3.85,2.73,1.61,0.35
6360.0,-9.191,-0.361,-3.783,-9.198,-0.447,-3.716,3.71,1.4,0.49
,-9.182,-0.383,-3.723,-9.189,-0.471,-3.769,3.01,1.26,0.35
,-9.165,-0.373,-3.726,-9.182,-0.443,-3.771,2.38,1.26,0.35
,-9.189,-0.424,-3.716,-9.143,-0.467,-3.754,1.96,1.33,0.35
6436.0,-9.122,-0.445,-3.795,-9.167,-0.467,-3.659,2.59,1.05,0.63
,-9.136,-0.428,-3.798,-9.16,-0.438,-3.673,2.52,1.19,0.63
,-9.15,-0.443,-3.752,-9.194,-0.44,-3.656,2.38,1.12,0.56
,-9.122,-0.488,-3.702,-9.174,-0.354,-3.656,2.38,0.98,0.63
6511.0,-9.194,-0.424,-3.673,-9.222,-0.483,-3.699,2.38,1.4,0.56
,-9.227,-0.4,-3.625,-9.136,-0.443,-3.673,2.52,1.61,0.63
,-9.191,-0.402,-3.687,-9.182,-0.424,-3.702,2.59,1.61,0.7
,-9.189,-0.388,-3.642,-9.203,-0.514,-3.721,2.52,1.68,0.7
6587.0,-9.196,-0.464,-3.743,-9.115,-0.503,-3.814,2.52,1.89,0.7
,-9.206,-0.45,-3.805,-9.139,-0.517,-3.778,2.59,1.96,0.84
,-9.158,-0.452,-3.802,-9.16,-0.44,-3.707,2.59,1.82,0.77
,-9.139,-0.488,-3.819,-9.186,-0.354,-3.695,2.59,1.75,0.91
6662.0,-9.225,-0.369,-3.678,-9.15,-0.505,-3.833,2.87,1.75,0.98
,-9.225,-0.39,-3.697,-9.189,-0.462,-3.845,2.45,1.61,0.91
,-9.162,-0.409,-3.762,-9.129,-0.369,-3.821,2.24,1.61,0.98
,-9.153,-0.483,-3.802,-9.179,-0.38,-3.86,1.96,1.54,0.91
6738.0,-9.16,-0.407,-3.829,-9.198,-0.424,-3.759,2.52,1.19,0.98
,-9.139,-0.388,-3.845,-9.206,-0.438,-3.752,2.38,1.33,0.98
,-9.112,-0.426,-3.788,-9.182,-0.395,-3.75,2.31,1.05,0.91
,-9.143,-0.436,-3.743,-9.177,-0.479,-3.788,2.52,0.91,0.91
6814.0,-9.191,-0.467,-3.75,-9.15,-0.469,-3.728,3.15,0.91,0.98
,-9.148,-0.392,-3.752,-9.158,-0.471,-3.699,3.43,0.98,0.98
,-9.15,-0.419,-3.757,-9.191,-0.392,-3.699,3.22,0.77,0.91
,-9.146,-0.433,-3.764,-9.184,-0.347,-3.661,3.15,0.77,1.05
6890.0,-9.186,-0.333,-3.635,-9.155,-0.397,-3.888,2.87,1.05,0.91
,-9.182,-0.395,-3.666,-9.098,-0.395,-3.874,2.52,1.05,0.77
,-9.213,-0.412,-3.716,-9.124,-0.409,-3.833,2.59,1.26,0.77
,-9.198,-0.431,-3.75,-9.136,-0.44,-3.74,2.73,1.19,0.77
6966.0,-9.148,-0.457,-3.697,-9.158,-0.476,-3.611,3.43,0.84,0.84
,-9.21,-0.402,-3.604,-9.17,-0.479,-3.64,3.22,0.84,0.7
,-9.194,-0.407,-3.642,-9.165,-0.457,-3.561,2.59,0.84,0.56
,-9.153,-0.443,-3.64,-9.21,-0.526,-3.475,2.1,0.84,0.42
7041.0,-9.165,-0.479,-3.486,-9.143,-0.486,-3.649,1.75,1.68,0.7
,-9.213,-0.445,-3.484,-9.076,-0.483,-3.704,1.4,2.03,0.56
,-9.21,-0.486,-3.53,-9.1,-0.421,-3.707,1.19,2.03,0.42
,-9.186,-0.462,-3.601,-9.208,-0.371,-3.747,0.98,2.31,0.49
7117.0,-9.174,-0.395,-3.666,-9.191,-0.342,-3.754,1.75,2.59,0.63
,-9.136,-0.436,-3.664,-9.189,-0.318,-3.8,1.26,2.66,0.56
,-9.201,-0.503,-3.702,-9.141,-0.302,-3.845,1.61,2.8,0.49
,-9.225,-0.488,-3.64,-9.17,-0.347,-3.845,2.1,3.01,0.49
7193.0,-9.117,-0.378,-3.908,-9.091,-0.409,-3.754,2.1,2.52,0.77
,-9.043,-0.479,-3.972,-9.174,-0.196,-3.731,2.31,2.52,0.91
,-9.038,-0.495,-3.934,-9.124,-0.23,-3.692,2.94,2.24,1.19
,-9.062,-0.526,-3.884,-9.122,-0.412,-3.537,3.57,2.1,1.19
7269.0,-9.098,-0.641,-3.475,-9.256,-0.526,-3.36,0.0,2.73,1.12
,-9.17,-0.715,-3.475,-9.194,-0.481,-3.271,1.61,3.15,1.4
,-9.15,-0.715,-3.422,-9.194,-0.577,-3.173,3.43,3.43,1.4
,-9.184,-0.637,-3.398,-9.179,-0.57,-3.044,4.62,4.06,1.68
7344.0,-9.239,-0.574,-2.867,-9.112,-0.256,-3.393,3.5,7.28,1.68
,-9.361,-0.349,-3.072,-9.04,-0.345,-3.431,3.08,8.05,1.54
,-9.39,-0.333,-3.192,-9.179,-0.388,-3.709,1.61,8.54,1.4
,-9.232,-0.285,-3.355,-9.141,-0.421,-3.946,-0.28,8.82,1.4
7420.0,-9.067,-0.426,-4.018,-9.06,-0.474,-3.766,-2.31,10.01,1.96
,-9.081,-0.565,-4.123,-9.127,-0.316,-3.412,-2.94,10.01,2.24
,-8.94,-0.689,-4.073,-9.239,0.01,-3.735,-3.36,9.94,2.59
,-8.906,-0.73,-3.704,-9.225,0.06,-3.786,-1.4,10.36,3.71
7495.0,-9.069,-0.036,-3.611,-8.945,-0.625,-4.171,-5.11,10.92,2.8
,-8.947,-0.17,-3.671,-8.784,-0.608,-4.022,-8.26,11.13,2.59
,-8.899,-0.412,-3.238,-8.732,-0.447,-4.288,-8.96,12.18,3.64
,-9.165,-0.476,-4.092,-8.636,-0.648,-3.862,-8.19,12.18,3.64
7571.0,-8.923,-0.706,-3.544,-8.748,-0.292,-3.917,0.98,14.77,6.93
,-9.201,-0.481,-3.886,-8.854,-0.495,-4.039,1.61,14.14,5.95
,-9.086,-0.215,-3.661,-8.93,-0.782,-3.632,2.1,14.28,5.95
,-8.906,-0.053,-4.142,-9.261,-0.428,-3.723,0.21,14.0,5.32
7647.0,-8.99,0.029,-4.207,-8.969,-0.089,-4.657,3.64,15.89,6.65
,-8.859,0.275,-4.286,-8.739,0.213,-4.369,3.22,15.82,6.51
,-8.763,0.285,-4.707,-8.825,0.78,-4.815,1.12,15.75,6.79
,-8.732,-0.112,-4.367,-8.674,0.938,-5.224,1.05,17.08,7.63
7723.0,-8.485,0.586,-5.001,-8.959,-0.864,-3.75,-2.03,12.39,0.91
,-8.509,0.014,-4.898,-8.868,-0.706,-4.247,-5.39,13.02,1.05
,-8.686,-0.692,-4.152,-8.571,-0.79,-4.298,-4.62,14.7,1.75
,-9.031,-0.881,-3.927,-8.667,-0.641,-4.413,0.35,15.68,2.66
7798.0,-8.545,-0.373,-4.513,-8.107,0.452,-4.984,8.26,16.31,5.95
,-8.926,0.371,-4.87,-8.241,-0.273,-4.635,10.99,15.19,5.46
,-8.942,0.89,-5.52,-8.409,-1.029,-4.145,8.47,13.09,3.92
,-8.37,0.802,-5.449,-8.904,-1.531,-3.912,2.52,12.18,2.1
7874.0,-8.993,-1.467,-4.314,-8.332,0.493,-4.815,8.12,15.82,5.25
,-8.959,-1.199,-4.664,-8.279,1.048,-5.549,12.88,14.77,7.28
,-8.693,-0.72,-4.838,-8.428,1.632,-5.757,15.54,14.7,8.96
,-8.306,-0.177,-4.841,-8.658,1.85,-5.707,16.24,15.61,9.45
7950.0,-8.698,1.795,-5.083,-8.725,0.23,-5.721,3.36,15.12,0.42
,-8.861,1.723,-5.016,-8.461,-0.127,-5.327,0.35,14.91,-2.66
,-8.725,1.297,-5.497,-8.425,-0.424,-4.822,-2.59,13.23,-5.32
,-8.696,0.751,-5.755,-8.39,-0.558,-4.824,-3.85,12.46,-6.44
8026.0,-8.55,-0.409,-5.209,-8.189,0.086,-5.559,11.27,14.42,-3.85
,-8.684,-0.158,-5.427,-8.222,-0.335,-5.413,12.95,13.51,-3.01
,-8.559,0.069,-5.738,-8.251,-0.55,-5.456,11.83,12.32,-2.94
,-8.38,0.282,-5.652,-8.375,-0.861,-5.592,8.54,12.32,-3.43
8102.0,-8.473,-1.194,-5.604,-8.409,-0.469,-5.709,0.7,10.43,-2.59
,-8.524,-1.297,-5.343,-8.327,-0.108,-5.875,2.24,10.92,-0.84
,-8.469,-1.187,-5.36,-8.167,0.112,-6.006,5.67,10.78,0.21
,-8.413,-0.869,-5.298,-8.172,0.105,-5.839,9.73,10.01,0.63
8177.0,-8.272,-0.091,-5.719,-8.399,-0.156,-5.463,4.06,1.26,-2.03
,-8.311,-0.392,-5.786,-8.378,-0.28,-5.231,2.73,0.28,-2.38
,-8.413,-0.359,-5.614,-8.55,-0.555,-5.209,3.78,0.21,-2.31
,-8.337,-0.189,-5.566,-8.39,-0.749,-5.329,5.04,0.84,-1.89
8253.0,-8.026,-1.218,-5.537,-8.483,-1.488,-5.202,5.88,1.75,2.73
,-8.215,-1.62,-5.059,-8.617,-1.077,-5.008,6.79,2.17,4.48
,-8.229,-1.718,-5.078,-8.272,-0.419,-5.25,9.03,2.87,5.95
,-8.181,-1.756,-5.202,-7.973,0.299,-5.233,14.07,2.59,6.72
8328.0,-7.916,1.031,-5.494,-8.684,0.931,-5.427,22.54,-0.21,3.43
,-8.313,1.177,-5.458,-8.406,0.428,-5.463,18.97,0.77,2.38
,-8.538,1.039,-5.331,-8.148,0.048,-5.437,14.28,1.89,1.47
,-9.083,0.983,-5.154,-8.09,-0.541,-5.453,10.64,1.47,-0.35
8404.0,-8.275,-0.995,-5.595,-8.392,-1.225,-5.42,9.94,0.98,-1.12
,-8.37,-1.199,-5.626,-8.617,-0.682,-5.451,11.9,0.07,-0.42
,-8.256,-1.347,-5.485,-8.804,-0.084,-5.398,13.23,0.7,1.12
,-8.126,-1.24,-5.556,-8.598,0.223,-5.53,15.68,0.84,2.87
8480.0,-8.521,0.44,-5.642,-8.234,-1.034,-5.628,15.05,-1.75,-0.42
,-8.332,0.519,-5.76,-8.246,-1.251,-5.616,13.58,-2.17,-2.03
,-8.167,0.117,-5.975,-8.576,-1.448,-5.37,10.08,-2.03,-2.38
,-8.33,-0.459,-5.765,-8.631,-1.586,-5.365,8.33,-1.47,-1.89
8556.0,-8.545,-1.548,-4.949,-8.267,-0.084,-5.41,18.69,-2.17,3.92
,-8.098,-1.292,-4.98,-8.536,-0.048,-5.291,19.95,-1.12,5.11
,-8.267,-1.019,-4.97,-8.636,-0.175,-5.351,21.14,0.07,5.39
,-8.373,-0.208,-5.281,-8.519,-0.646,-5.307,20.02,-0.42,5.46
8631.0,-8.342,-0.993,-5.133,-8.524,-0.68,-5.133,6.02,0.21,6.58
,-8.313,-1.096,-4.903,-8.595,-0.275,-5.269,7.77,0.56,6.93
,-8.203,-1.17,-5.018,-8.464,0.072,-5.415,9.38,1.26,7.35
,-8.275,-1.094,-5.016,-8.248,0.134,-5.451,10.64,2.66,8.05
8707.0,-8.413,0.05,-5.458,-8.397,-0.014,-5.52,4.13,3.78,6.65
,-8.619,-0.06,-5.363,-8.291,-0.333,-5.485,2.73,4.2,5.81
,-8.425,0.012,-5.475,-8.248,-0.543,-5.497,2.1,5.04,5.11
,-8.373,0.101,-5.485,-8.291,-0.342,-5.286,1.19,6.51,4.69
8783.0,-8.172,-0.246,-5.571,-8.579,-0.816,-5.597,-3.22,9.45,3.92
,-8.172,-0.522,-5.523,-8.765,-0.873,-5.501,-3.43,10.15,4.34
,-8.177,-0.574,-5.394,-8.703,-0.452,-5.439,-4.62,10.78,4.62
,-8.37,-0.732,-5.573,-8.399,0.024,-5.623,-7.0,10.22,4.97
8859.0,-7.98,0.333,-5.808,-8.562,0.694,-5.824,-13.51,7.0,4.13
,-8.143,0.27,-5.705,-8.306,0.593,-5.786,-16.17,7.28,3.64
,-8.521,0.522,-5.714,-8.145,0.263,-5.805,-17.08,6.51,2.59
,-8.703,0.823,-5.786,-8.129,-0.038,-5.93,-17.78,5.11,1.19
8935.0,-8.334,-0.44,-5.832,-8.37,-1.0,-5.97,-23.87,3.78,-0.77
,-8.514,-0.699,-5.925,-8.155,-1.017,-5.882,-23.1,3.08,-0.07
,-8.67,-0.778,-6.064,-8.095,-1.091,-5.939,-21.28,2.17,0.98
,-8.512,-0.861,-6.145,-8.107,-1.062,-5.788,-19.53,1.47,2.1
9010.0,-8.181,-0.885,-5.913,-8.658,-0.117,-5.631,-17.01,-2.59,7.14
,-8.126,-0.737,-5.951,-8.643,0.211,-5.597,-15.4,-2.52,8.26
,-8.122,-0.56,-6.011,-8.552,0.385,-5.458,-14.07,-2.38,9.24
,-8.306,-0.366,-5.901,-8.205,0.558,-5.549,-12.53,-1.82,10.36
9086.0,-8.002,0.526,-5.52,-8.469,0.713,-5.475,-9.03,-3.5,8.96
,-8.129,0.414,-5.511,-8.038,0.708,-5.511,-8.89,-2.8,7.98
,-8.327,0.28,-5.379,-8.191,0.565,-5.291,-7.28,-3.5,6.93
,-8.521,0.39,-5.343,-8.363,0.486,-5.54,-4.48,-5.39,5.6
9161.0,-8.466,0.538,-5.451,-8.27,0.232,-5.279,-4.97,-7.42,0.84
,-8.559,0.51,-5.358,-8.449,0.177,-5.219,-4.27,-7.63,-0.28
,-8.449,0.55,-5.518,-8.375,0.345,-5.341,-4.27,-8.4,-1.75
,-8.133,0.369,-5.453,-8.277,0.452,-5.305,-5.04,-8.05,-2.17
9237.0,-8.334,0.33,-5.224,-8.464,0.297,-5.19,-3.15,-8.68,-3.64
,-8.354,0.376,-5.274,-8.5,0.378,-5.195,-2.94,-9.03,-3.57
,-8.44,0.361,-5.401,-8.464,0.378,-5.126,-2.52,-9.24,-2.8
,-8.454,0.285,-5.305,-8.686,0.352,-5.039,-3.08,-9.87,-2.66
9313.0,-8.732,0.438,-5.039,-8.524,0.285,-4.987,-1.82,-9.66,-3.36
,-8.318,-0.031,-5.023,-8.646,0.407,-5.025,-4.34,-9.24,-2.87
,-8.423,-0.038,-4.654,-8.701,0.517,-5.018,-6.3,-8.54,-2.45
,-8.454,0.187,-4.767,-8.437,0.426,-5.006,-2.66,-7.84,-2.66
9389.0,-8.449,0.232,-5.025,-8.48,0.148,-5.195,-0.14,-6.37,-2.31
,-8.454,0.136,-5.08,-8.385,-0.007,-5.145,0.56,-6.44,-1.68
,-8.533,0.199,-5.197,-8.49,-0.33,-5.162,2.45,-7.28,-1.89
,-8.521,0.249,-5.236,-8.507,-0.464,-5.018,3.85,-7.7,-2.24
9464.0,-8.614,-0.349,-5.047,-8.449,0.086,-4.975,7.42,-7.07,0.28
,-8.636,-0.17,-5.068,-8.323,-0.031,-4.877,8.54,-8.12,0.42
,-8.811,0.117,-4.994,-8.32,-0.182,-4.781,7.21,-8.82,0.84
,-8.667,0.101,-5.018,-8.607,-0.196,-4.776,4.83,-9.24,1.4
9540.0,-8.882,0.024,-4.728,-8.574,0.28,-4.456,6.16,-11.34,1.96
,-8.875,0.376,-5.032,-8.875,0.175,-4.314,7.21,-12.46,2.17
,-8.72,0.491,-4.941,-8.882,0.4,-4.494,6.3,-12.81,2.17
,-8.562,0.476,-4.661,-8.665,0.584,-4.267,5.46,-12.39,2.24
9616.0,-8.763,0.701,-4.491,-8.902,0.302,-3.683,5.74,-13.3,-0.98
,-8.758,0.641,-4.259,-8.768,0.227,-3.587,3.43,-13.09,-2.31
,-8.844,0.433,-3.944,-8.787,0.045,-3.532,2.17,-12.25,-3.22
,-8.854,0.309,-3.671,-8.959,-0.144,-3.542,2.66,-11.34,-3.92
9692.0,-9.043,-0.225,-3.668,-8.863,0.11,-4.164,3.36,-7.98,-2.73
,-8.866,-0.263,-3.652,-8.777,-0.055,-4.056,4.76,-7.21,-2.73
,-8.863,-0.041,-3.967,-8.918,-0.179,-3.927,6.16,-6.44,-2.59
,-8.842,0.144,-3.972,-9.079,-0.002,-4.24,5.81,-6.37,-2.59
9767.0,-9.11,0.364,-4.563,-8.83,-0.017,-4.252,6.44,-6.3,-3.22
,-8.849,0.639,-4.628,-8.842,-0.022,-4.456,5.25,-7.14,-4.06
,-8.722,0.553,-4.46,-8.89,0.168,-4.501,2.24,-7.35,-4.13
,-8.856,0.29,-4.618,-8.868,0.215,-4.216,-0.91,-7.7,-5.39
9843.0,-8.971,-0.124,-3.967,-8.892,-0.144,-3.932,0.14,-7.91,-6.23
,-8.961,-0.402,-3.869,-9.103,0.139,-4.015,-0.42,-7.28,-6.02
,-9.036,-0.57,-3.941,-9.057,0.287,-3.845,1.61,-7.14,-5.53
,-9.05,-0.328,-4.039,-9.038,0.385,-3.865,4.27,-7.28,-4.83
9919.0,-9.131,0.4,-4.568,-9.11,-0.127,-3.862,3.71,-7.21,-7.14
,-8.811,0.168,-4.092,-9.131,0.347,-3.757,1.54,-7.42,-7.35
,-8.703,-0.115,-4.042,-9.194,0.57,-3.941,2.31,-6.79,-6.23
,-9.016,-0.266,-4.042,-8.976,0.132,-3.661,5.53,-6.79,-5.95
9994.0,-8.842,-0.605,-3.197,-9.067,-0.077,-3.436,-2.87,-5.25,-7.14
,-9.107,-0.933,-3.3,-9.009,-0.156,-3.178,-2.52,-4.13,-7.21
,-9.079,-0.696,-3.623,-9.134,-0.215,-3.336,0.0,-3.85,-6.65
,-9.043,-0.388,-3.453,-9.258,-0.254,-3.228,1.54,-3.15,-5.81
10070.0,-9.22,-0.215,-3.285,-9.134,-0.098,-4.166,-1.54,1.89,-4.41
,-9.241,-0.134,-3.51,-9.086,-0.144,-4.346,-1.12,2.38,-4.48
,-9.261,-0.139,-3.565,-8.938,-0.34,-4.326,-0.91,3.22,-4.27
,-9.139,-0.124,-3.798,-8.921,-0.51,-4.372,-0.77,3.57,-4.41
10146.0,-8.928,-0.672,-4.149,-8.882,-0.048,-4.446,0.63,3.08,-3.92
,-9.076,-0.522,-4.188,-8.892,-0.275,-4.568,3.64,2.73,-3.15
,-9.182,-0.057,-4.317,-8.825,-0.505,-4.547,5.04,2.31,-3.29
,-8.966,0.093,-4.365,-8.777,-0.524,-4.35,3.71,1.75,-3.78
10222.0,-8.938,-0.407,-4.487,-9.069,-0.309,-3.855,5.18,-0.56,-3.22
,-8.947,-0.404,-4.36,-9.17,-0.227,-3.745,6.3,-0.91,-2.87
,-8.885,-0.302,-4.092,-9.239,-0.361,-3.666,6.65,-1.12,-2.52
,-8.983,-0.275,-4.001,-9.107,-0.529,-3.525,5.32,-1.26,-3.15
10297.0,-9.062,-0.505,-3.431,-9.072,-0.313,-3.697,-3.78,0.42,-4.48
,-9.217,-0.503,-3.429,-9.064,-0.495,-3.81,-3.36,1.05,-4.48
,-9.165,-0.232,-3.465,-9.031,-0.739,-3.869,-3.71,1.61,-4.62
,-9.074,-0.122,-3.508,-9.002,-0.775,-3.987,-5.74,2.24,-5.32
10373.0,-8.911,-0.821,-3.989,-8.945,-0.191,-4.424,-6.02,3.57,-4.34
,-9.04,-0.802,-3.977,-8.969,-0.474,-4.592,-3.43,3.92,-3.71
,-9.009,-0.526,-4.018,-8.961,-0.768,-4.317,-1.54,4.06,-3.36
,-8.942,-0.285,-4.233,-8.945,-0.742,-4.415,-0.98,3.57,-3.36
10449.0,-8.976,-0.447,-4.372,-8.897,-0.447,-4.116,2.17,1.89,-2.1
,-9.04,-0.359,-4.214,-9.036,-0.479,-4.214,1.54,1.75,-1.4
,-9.086,-0.483,-4.154,-8.976,-0.546,-4.235,-0.07,1.33,-1.12
,-8.971,-0.519,-4.109,-8.921,-0.689,-4.168,-0.21,1.33,-0.91
10525.0,-8.954,-0.759,-4.135,-8.99,-0.433,-4.355,1.54,0.35,-0.07
,-9.028,-0.699,-4.113,-9.033,-0.627,-4.381,3.78,0.49,0.84
,-9.026,-0.61,-4.216,-8.918,-0.66,-4.29,5.88,0.35,1.68
,-9.019,-0.392,-4.185,-8.89,-0.553,-4.216,7.21,0.07,2.1
10600.0,-8.938,-0.584,-3.936,-9.079,-0.28,-3.932,12.11,-0.7,3.15
,-9.124,-0.526,-3.86,-8.976,-0.459,-3.987,12.88,-0.77,3.5
,-9.198,-0.364,-3.848,-8.93,-0.553,-3.97,12.67,-0.7,3.43
,-9.198,-0.23,-3.877,-8.961,-0.495,-3.912,11.62,-0.56,3.29
10676.0,-9.05,-0.347,-3.845,-9.043,-0.536,-3.85,8.96,-0.07,2.31
,-9.153,-0.194,-3.912,-9.062,-0.641,-3.905,7.49,-0.07,2.03
,-9.153,-0.273,-3.853,-9.079,-0.543,-3.86,5.11,0.0,1.68
,-9.043,-0.383,-3.829,-9.043,-0.397,-3.862,3.15,0.14,1.19
10751.0,-9.11,-0.445,-3.862,-8.918,-0.562,-4.24,4.55,0.91,1.89
,-9.16,-0.424,-3.951,-8.94,-0.574,-4.252,4.69,1.05,2.03
,-9.112,-0.4,-4.168,-9.028,-0.452,-4.216,4.34,0.77,1.89
,-9.021,-0.469,-4.223,-9.074,-0.345,-4.212,4.41,0.42,1.68
10827.0,-9.076,-0.388,-4.123,-9.033,-0.455,-4.451,7.49,-0.56,2.03
,-9.107,-0.452,-4.137,-8.995,-0.486,-4.343,7.14,-0.63,2.03
,-9.083,-0.55,-4.18,-8.981,-0.39,-4.367,7.07,-0.7,2.03
,-8.988,-0.486,-4.329,-9.031,-0.397,-4.259,7.77,-1.05,2.17
10903.0,-8.964,-0.347,-4.089,-9.115,-0.68,-3.671,8.4,-2.87,2.66
,-9.036,-0.342,-4.013,-9.103,-0.603,-3.486,7.56,-3.29,2.17
,-9.033,-0.529,-3.881,-9.203,-0.438,-3.379,6.09,-3.5,1.75
,-9.052,-0.737,-3.762,-9.234,-0.388,-3.329,5.53,-3.36,1.68
10979.0,-9.33,-0.388,-3.324,-8.993,-0.517,-3.817,5.39,-0.91,2.03
,-9.268,-0.397,-3.393,-9.083,-0.526,-3.848,5.04,-0.63,1.82
,-9.287,-0.455,-3.63,-9.139,-0.426,-3.958,4.41,-0.14,1.68
,-9.067,-0.534,-3.711,-9.155,-0.227,-4.073,4.06,0.28,1.68
11055.0,-9.074,-0.321,-3.932,-9.098,-0.397,-3.848,3.85,0.56,1.47
,-9.091,-0.447,-3.865,-9.148,-0.479,-3.855,3.15,0.77,1.4
,-9.184,-0.526,-3.924,-9.131,-0.488,-3.819,3.64,0.63,1.26
,-9.124,-0.459,-3.893,-9.05,-0.416,-3.838,4.27,0.35,1.26
11130.0,-9.098,-0.51,-3.762,-9.124,-0.318,-3.798,2.66,0.84,1.05
,-9.136,-0.51,-3.769,-9.148,-0.39,-3.9,2.45,1.12,1.05
,-9.162,-0.462,-3.781,-9.131,-0.464,-3.965,2.59,0.7,0.98
,-9.11,-0.431,-3.786,-9.06,-0.486,-3.975,2.24,0.77,0.91
11206.0,-9.043,-0.601,-3.836,-9.244,-0.273,-3.757,0.91,0.98,0.63
,-9.064,-0.577,-3.798,-9.155,-0.357,-3.81,2.1,1.05,0.91
,-9.16,-0.507,-3.752,-9.1,-0.455,-3.776,3.36,1.26,1.19
,-9.225,-0.38,-3.771,-9.095,-0.495,-3.805,3.57,1.4,1.19
11282.0,-9.062,-0.474,-3.793,-9.115,-0.385,-3.867,2.45,1.82,0.63
,-9.112,-0.476,-3.776,-9.131,-0.436,-3.915,2.8,1.96,0.77
,-9.15,-0.483,-3.764,-9.112,-0.44,-3.996,2.45,2.03,0.77
,-9.134,-0.359,-3.793,-9.055,-0.488,-4.07,2.03,2.1,0.63
11358.0,-9.064,-0.529,-4.044,-9.115,-0.357,-3.903,1.82,1.75,0.77
,-9.014,-0.517,-4.037,-9.098,-0.409,-3.79,2.45,1.75,0.91
,-9.086,-0.507,-4.03,-9.117,-0.4,-3.75,2.87,1.61,0.91
,-9.1,-0.436,-3.972,-9.182,-0.447,-3.788,3.29,1.47,0.91
11433.0,-9.179,-0.397,-3.886,-9.117,-0.526,-3.872,1.89,1.68,0.56
,-9.072,-0.38,-3.9,-9.103,-0.491,-3.841,1.61,1.54,0.56
,-9.1,-0.488,-3.896,-9.148,-0.505,-3.814,1.47,1.68,0.49
,-9.076,-0.553,-3.912,-9.165,-0.395,-3.841,1.75,1.68,0.56
11509.0,-9.17,-0.395,-3.898,-9.091,-0.546,-3.929,2.31,1.96,0.63
,-9.11,-0.462,-3.965,-9.093,-0.495,-3.833,2.1,1.82,0.7
,-9.024,-0.486,-3.951,-9.127,-0.416,-3.833,2.1,1.68,0.7
,-9.033,-0.522,-3.908,-9.15,-0.407,-3.8,2.52,1.82,0.77
11584.0,-9.172,-0.445,-3.795,-9.055,-0.519,-3.924,3.01,2.1,1.05
,-9.11,-0.486,-3.783,-9.095,-0.529,-3.912,2.94,2.17,1.12
,-9.172,-0.507,-3.819,-9.081,-0.536,-3.9,2.94,2.17,1.12
,-9.112,-0.558,-3.881,-9.057,-0.397,-3.97,3.43,2.31,1.33
11660.0,-9.095,-0.342,-3.984,-9.05,-0.431,-4.049,3.08,2.59,0.98
,-9.112,-0.409,-3.984,-9.069,-0.424,-4.049,1.68,2.52,0.7
,-9.095,-0.443,-4.011,-9.045,-0.474,-4.039,0.91,2.38,0.63
,-9.112,-0.481,-3.991,-9.103,-0.424,-3.977,0.91,2.31,0.63
11736.0,-9.119,-0.474,-4.063,-9.048,-0.464,-3.946,1.61,1.61,0.91
,-9.103,-0.455,-4.027,-9.093,-0.476,-3.965,1.54,1.33,0.77
,-9.06,-0.476,-4.001,-9.11,-0.431,-3.922,1.4,1.33,0.84
,-9.062,-0.5,-3.977,-9.143,-0.428,-3.951,1.61,1.33,0.84
11812.0,-9.05,-0.455,-3.912,-9.045,-0.402,-3.912,1.47,1.12,0.84
,-9.076,-0.438,-3.929,-9.093,-0.483,-3.912,1.68,1.33,0.84
,-9.107,-0.4,-3.932,-9.103,-0.476,-3.862,1.82,1.26,0.91
,-9.074,-0.364,-3.917,-9.062,-0.479,-3.855,1.96,1.05,0.91
11888.0,-9.098,-0.479,-3.9,-9.055,-0.452,-3.977,1.96,1.47,0.98
,-9.136,-0.467,-3.893,-9.103,-0.438,-3.996,2.03,1.54,1.05
,-9.095,-0.424,-3.893,-9.086,-0.373,-4.006,1.82,1.47,0.98
,-9.06,-0.445,-3.948,-9.095,-0.426,-3.965,1.68,1.4,0.91
11963.0,-9.079,-0.412,-3.999,-9.088,-0.491,-3.843,2.45,1.19,1.05
,-9.088,-0.424,-4.001,-9.136,-0.38,-3.838,2.31,1.33,0.91
,-9.055,-0.447,-3.912,-9.127,-0.469,-3.829,2.31,0.98,0.91
,-9.072,-0.462,-3.9,-9.15,-0.471,-3.824,2.31,1.05,0.91
12039.0,-9.124,-0.419,-3.903,-9.057,-0.412,-3.994,1.82,1.4,0.98
,-9.057,-0.462,-3.934,-9.05,-0.4,-3.958,1.75,1.61,0.98
,-9.033,-0.447,-3.958,-9.098,-0.462,-3.891,1.96,1.75,1.05
,-9.064,-0.424,-4.003,-9.095,-0.402,-3.965,2.17,1.61,0.91
12115.0,-9.129,-0.371,-4.046,-9.048,-0.534,-3.86,2.59,1.05,0.7
,-9.074,-0.354,-4.07,-9.064,-0.44,-3.821,2.38,0.91,0.63
,-9.074,-0.414,-3.958,-9.165,-0.369,-3.79,1.96,1.12,0.77
,-9.057,-0.538,-3.867,-9.177,-0.378,-3.819,2.1,1.26,0.91
12191.0,-9.127,-0.397,-3.845,-9.012,-0.378,-3.941,1.75,1.61,0.84
,-9.072,-0.419,-3.817,-9.095,-0.419,-3.987,1.75,1.75,0.98
,-9.117,-0.491,-3.893,-9.098,-0.392,-4.049,1.82,1.75,0.91
,-9.074,-0.404,-3.951,-9.038,-0.321,-4.073,2.52,1.75,0.98
12266.0,-9.086,-0.369,-4.051,-9.103,-0.38,-4.02,1.89,1.47,0.56
,-9.043,-0.469,-3.999,-9.062,-0.388,-4.073,1.75,1.47,0.56
,-9.045,-0.467,-3.979,-9.048,-0.431,-3.97,2.38,1.33,0.56
,-9.095,-0.397,-3.977,-9.048,-0.443,-4.094,3.08,1.12,0.56
12342.0,-9.033,-0.431,-3.924,-9.086,-0.445,-4.03,3.29,0.84,0.91
,-9.076,-0.407,-4.039,-9.062,-0.373,-3.996,3.29,0.63,0.84
,-9.072,-0.438,-3.999,-9.088,-0.404,-3.996,3.64,0.56,0.84
,-9.052,-0.421,-3.991,-9.057,-0.409,-3.91,3.99,0.35,0.84
12417.0,-9.107,-0.483,-3.802,-9.146,-0.51,-3.609,3.64,0.0,0.56
,-9.072,-0.452,-3.747,-9.177,-0.5,-3.659,3.78,0.21,0.56
,-9.11,-0.488,-3.74,-9.186,-0.433,-3.778,3.78,0.35,0.56
,-9.11,-0.488,-3.553,-9.115,-0.407,-3.917,3.5,0.56,0.49
12493.0,-9.115,-0.572,-3.881,-9.031,-0.34,-4.274,2.8,1.54,0.42
,-9.002,-0.627,-3.874,-8.983,-0.364,-4.288,2.94,1.68,0.63
,-9.093,-0.603,-3.991,-8.988,-0.443,-4.231,3.78,1.68,0.77
,-9.122,-0.459,-4.18,-9.016,-0.553,-4.044,4.69,1.4,0.63
12569.0,-9.129,-0.567,-4.015,-9.057,-0.476,-3.728,4.97,0.14,1.54
,-9.148,-0.474,-3.867,-9.093,-0.596,-3.642,5.6,0.14,1.68
,-9.203,-0.361,-3.877,-9.162,-0.601,-3.542,5.74,0.07,1.68
,-9.134,-0.337,-3.872,-9.203,-0.541,-3.388,4.76,0.07,1.61
12645.0,-9.308,-0.452,-3.637,-9.016,-0.558,-3.912,4.2,1.82,2.59
,-9.153,-0.476,-3.671,-9.129,-0.601,-3.814,3.64,1.96,2.87
,-9.079,-0.471,-3.802,-9.127,-0.419,-3.618,3.43,2.31,3.15
,-9.098,-0.5,-3.987,-9.127,-0.144,-3.58,3.01,2.38,3.15
12720.0,-9.129,-0.036,-3.623,-8.928,-0.648,-3.819,-2.1,2.73,1.26
,-8.966,-0.086,-3.781,-9.098,-0.637,-3.551,-5.25,2.8,0.91
,-8.902,-0.419,-3.829,-9.294,-0.321,-3.563,-7.21,3.29,0.98
,-8.909,-0.675,-3.774,-9.433,-0.002,-4.015,-6.51,3.92,1.4
12796.0,-9.179,0.148,-4.075,-9.024,-0.883,-3.9,-7.0,3.43,0.28
,-8.954,0.184,-4.362,-9.129,-0.823,-3.759,-11.06,2.73,-0.28
,-8.89,-0.153,-4.288,-9.232,-0.385,-4.015,-14.91,2.45,-0.77
,-8.856,-0.648,-4.032,-9.179,-0.11,-4.204,-15.68,2.52,-1.05
12871.0,-9.036,-0.041,-4.494,-8.935,-0.392,-4.262,-10.43,0.7,-0.63
,-8.832,-0.139,-4.436,-9.016,-0.237,-4.401,-10.92,0.77,0.28
,-8.952,-0.428,-4.279,-9.012,-0.304,-4.389,-10.71,0.84,0.63
,-9.024,-0.503,-4.372,-8.978,-0.412,-3.979,-8.82,0.77,0.49
12947.0,-9.079,-0.469,-3.831,-9.229,0.081,-3.582,-7.07,-1.33,0.35
,-9.127,-0.428,-3.463,-9.05,0.045,-3.561,-6.65,-0.91,0.49
,-9.217,-0.27,-3.597,-8.832,-0.507,-3.422,-6.3,-0.63,0.07
,-9.072,-0.158,-3.503,-8.985,-0.861,-3.128,-6.23,-0.56,-0.21
13023.0,-9.332,-0.802,-2.819,-8.954,0.045,-4.168,-4.69,3.15,2.31
,-9.363,-0.447,-3.453,-9.026,-0.361,-3.869,-0.49,2.87,2.1
,-9.162,-0.034,-3.463,-9.095,-0.553,-3.936,1.33,3.36,2.38
,-9.143,0.218,-3.994,-9.232,-0.349,-3.623,-0.21,3.36,2.38
13099.0,-9.265,0.199,-3.829,-8.842,-0.761,-3.776,2.45,6.23,3.43
,-8.882,0.447,-4.159,-9.184,-0.948,-3.652,0.77,5.39,2.1
,-8.873,0.34,-4.123,-9.186,-0.773,-3.714,-2.87,5.04,1.54
,-8.942,-0.158,-4.056,-9.072,-0.67,-3.671,-5.88,5.67,1.4
13175.0,-8.665,-0.933,-3.436,-9.275,0.108,-3.467,3.29,7.56,4.34
,-8.686,-1.263,-3.211,-9.215,0.778,-3.726,5.39,10.5,5.74
,-8.961,-1.192,-3.046,-8.847,0.893,-3.63,10.71,12.74,7.91
,-9.294,-0.596,-3.563,-8.746,0.529,-3.544,16.66,12.46,9.52
13250.0,-8.732,0.108,-3.465,-8.775,-0.677,-2.493,-2.52,14.0,4.76
,-9.057,-0.23,-3.355,-9.234,-0.136,-2.996,-2.66,13.93,4.34
,-9.012,-0.431,-3.374,-9.263,0.505,-3.817,-0.77,14.7,4.62
,-8.72,-0.725,-3.065,-9.215,1.457,-4.578,1.61,17.57,5.81
13326.0,-8.861,1.735,-5.008,-8.734,-0.144,-4.262,12.6,15.75,6.02
,-8.552,1.467,-4.953,-8.775,-0.309,-4.542,3.92,17.29,4.62
,-8.536,0.742,-4.877,-8.99,-0.526,-4.769,-2.45,19.88,3.15
,-8.483,0.124,-4.417,-8.995,-0.526,-4.941,-3.15,22.61,2.03
13402.0,-8.715,-0.438,-4.898,-8.562,-0.991,-5.635,7.35,21.56,2.24
,-8.48,-0.297,-5.157,-8.428,-1.041,-5.288,8.89,21.28,3.5
,-8.471,-0.581,-5.286,-8.184,-1.058,-4.865,9.17,20.09,4.2
,-8.586,-0.83,-5.511,-8.306,-1.127,-4.48,10.64,18.97,5.32
13478.0,-8.435,-0.921,-4.594,-8.483,1.443,-5.623,18.41,20.44,9.59
,-8.643,-0.572,-4.788,-8.248,1.57,-5.86,20.65,17.99,9.59
,-8.868,0.141,-5.044,-8.442,1.244,-5.808,20.93,15.61,9.24
,-8.777,0.883,-5.272,-8.595,0.605,-5.554,19.32,14.42,8.75
13553.0,-8.533,0.124,-5.027,-8.722,0.069,-5.262,-0.7,13.16,1.75
,-8.531,-0.05,-4.611,-8.626,0.201,-5.463,0.56,14.91,1.4
,-8.78,-0.108,-4.463,-8.454,0.065,-5.262,3.01,14.98,1.47
,-8.899,-0.01,-4.69,-8.466,-0.101,-5.142,5.67,13.16,1.61
13629.0,-8.478,-0.275,-5.111,-8.212,-0.33,-5.394,3.78,13.16,2.8
,-8.488,-0.062,-5.157,-8.351,-0.581,-5.379,6.16,11.9,2.59
,-8.346,0.141,-5.482,-8.457,-0.644,-5.284,6.51,11.55,1.96
,-8.368,0.036,-5.518,-8.516,-0.211,-5.363,4.13,11.27,0.77
13704.0,-8.344,0.163,-5.47,-8.674,0.041,-5.53,12.25,10.29,1.89
,-8.457,0.371,-5.583,-8.428,-0.172,-5.564,12.32,9.52,1.75
,-8.531,0.562,-5.712,-8.167,-0.232,-5.642,10.99,8.05,1.4
,-8.526,0.428,-5.834,-8.528,-0.194,-5.583,9.1,7.63,1.19
13780.0,-8.593,-0.292,-5.688,-8.148,-0.436,-5.705,12.04,6.02,-0.28
,-8.445,-0.337,-5.695,-8.129,-0.412,-5.532,12.53,5.81,-0.07
,-8.507,-0.364,-5.686,-8.215,-0.268,-5.403,13.44,5.88,0.63
,-8.394,-0.462,-5.659,-8.655,0.022,-5.401,14.49,5.74,0.84
13856.0,-8.406,0.17,-5.602,-8.581,-0.124,-5.36,17.57,4.2,1.54
,-8.277,0.467,-5.525,-9.093,0.012,-5.319,15.19,4.9,0.63
,-7.803,0.218,-5.343,-8.954,0.251,-5.322,13.51,5.18,0.28
,-8.145,0.122,-5.372,-8.524,0.4,-5.398,11.76,5.39,0.0
13932.0,-7.906,0.534,-5.568,-8.313,-0.689,-5.784,7.98,1.75,-5.25
,-7.846,0.522,-5.686,-8.358,-1.28,-5.796,7.21,2.24,-6.02
,-7.978,0.163,-5.566,-8.112,-1.804,-5.765,4.55,1.05,-6.58
,-8.232,-0.074,-5.913,-8.069,-1.991,-5.638,4.97,0.21,-6.44
14008.0,-8.22,-2.111,-5.441,-8.67,-1.086,-4.915,17.99,-1.33,1.33
,-8.483,-1.907,-5.26,-8.562,-0.397,-5.195,21.84,-2.1,2.38
,-8.538,-1.622,-5.181,-8.442,0.112,-5.195,23.52,-1.96,3.78
,-8.646,-1.352,-5.073,-8.253,0.897,-5.7,23.31,-0.84,5.18
14083.0,-7.803,0.969,-5.91,-8.547,0.081,-5.882,17.64,-2.52,3.85
,-8.026,1.048,-5.927,-8.536,-0.041,-5.86,15.82,-3.01,2.73
,-8.342,0.639,-5.822,-8.607,-0.601,-5.82,12.74,-3.29,1.75
,-8.413,-0.017,-5.587,-8.765,-1.0,-5.578,12.39,-3.5,1.12
14159.0,-8.636,-0.983,-5.374,-8.382,-0.754,-5.561,17.22,-3.29,0.56
,-8.193,-0.742,-5.621,-8.504,-1.182,-5.233,17.64,-4.06,0.84
,-7.94,-0.627,-5.721,-8.411,-1.424,-5.255,15.96,-3.85,1.05
,-8.098,-0.713,-5.717,-8.437,-1.385,-5.09,14.21,-4.41,1.12
14235.0,-8.291,-1.077,-5.178,-8.748,-0.725,-5.02,9.87,-7.35,3.78
,-8.05,-0.933,-5.219,-8.835,-0.309,-5.159,11.2,-7.0,4.06
,-8.349,-0.763,-5.111,-8.672,-0.122,-5.183,11.97,-6.3,4.9
,-8.643,-0.627,-5.061,-8.404,-0.122,-5.023,13.65,-5.25,5.74
14311.0,-8.076,-0.309,-4.932,-8.732,-0.56,-4.831,13.16,-3.36,5.53
,-8.019,-0.404,-4.949,-8.485,-0.493,-5.02,12.81,-2.1,5.18
,-8.318,-0.263,-5.073,-8.61,-0.711,-4.666,12.74,-1.47,4.97
,-8.806,-0.534,-4.968,-8.349,-0.787,-4.652,11.69,-0.49,5.18
14386.0,-8.433,-0.742,-4.63,-8.49,-0.146,-4.97,10.64,1.26,5.11
,-8.555,-0.663,-4.609,-8.334,-0.196,-4.972,10.78,1.96,4.69
,-8.825,-0.431,-4.649,-8.267,-0.328,-4.86,10.71,2.31,4.13
,-8.552,-0.179,-4.874,-8.303,-0.378,-4.951,10.64,2.31,3.5
14462.0,-8.605,-0.397,-5.059,-8.346,-0.299,-5.279,5.88,6.02,1.68
,-8.801,-0.407,-4.905,-8.555,-0.275,-5.269,4.83,5.74,1.26
,-8.473,-0.349,-4.982,-8.5,-0.409,-5.243,3.71,4.76,0.63
,-8.174,-0.359,-5.154,-8.39,-0.608,-5.248,3.22,5.39,-0.07
14537.0,-8.507,-0.541,-5.207,-8.373,-0.756,-5.413,-0.49,9.66,-1.12
,-8.346,-0.558,-5.324,-8.437,-1.048,-5.226,-1.05,9.66,-0.77
,-8.318,-0.596,-5.374,-8.44,-0.957,-5.178,-2.17,9.94,-0.84
,-8.351,-0.546,-5.396,-8.315,-0.816,-5.238,-3.57,9.94,-0.63
14613.0,-8.299,-0.885,-5.166,-8.425,-0.177,-5.587,-9.87,10.64,2.94
,-8.363,-0.799,-5.233,-8.311,-0.089,-5.674,-10.85,10.15,3.5
,-8.507,-0.605,-5.394,-8.373,-0.012,-5.628,-11.76,10.15,3.64
,-8.576,-0.302,-5.449,-8.454,-0.108,-5.623,-13.02,9.87,3.36
14689.0,-8.356,-0.062,-5.642,-8.315,-0.38,-5.719,-16.52,8.96,2.1
,-8.411,-0.144,-5.686,-8.344,-0.677,-5.882,-17.29,8.96,2.1
,-8.423,-0.127,-5.812,-8.272,-0.79,-5.817,-18.06,8.19,1.75
,-8.461,-0.165,-5.954,-8.205,-1.029,-5.875,-19.39,6.86,1.4
14765.0,-8.275,-1.529,-5.736,-8.167,-0.694,-5.784,-21.0,4.48,5.74
,-8.342,-1.467,-5.769,-8.27,-0.541,-5.681,-18.9,3.85,7.21
,-8.346,-1.11,-5.989,-8.368,-0.275,-5.755,-14.63,3.01,8.33
,-8.229,-0.945,-5.937,-8.471,0.053,-5.942,-12.11,2.73,9.17
14840.0,-8.559,0.199,-5.944,-8.014,0.5,-5.652,-8.75,2.1,12.11
,-8.39,0.656,-6.198,-8.131,0.474,-5.805,-9.52,0.84,11.34
,-8.167,0.615,-6.073,-8.291,0.325,-5.894,-9.66,0.35,10.15
,-7.999,0.45,-5.75,-8.54,0.306,-5.784,-10.36,0.7,8.96
14916.0,-8.33,0.38,-5.956,-8.179,-0.254,-5.774,-4.97,-2.17,5.67
,-8.143,0.328,-5.975,-8.16,-0.294,-5.712,-3.92,-2.52,4.83
,-8.272,0.153,-5.788,-8.189,-0.256,-5.774,-3.78,-2.59,3.5
,-8.354,-0.165,-5.628,-8.066,-0.191,-5.602,-3.92,-4.27,1.68
14992.0,-8.413,-0.148,-5.602,-8.289,-0.132,-5.59,3.22,-4.83,1.61
,-8.454,-0.318,-5.317,-8.397,-0.218,-5.652,2.52,-5.11,1.89
,-8.33,-0.196,-5.413,-8.358,-0.244,-5.542,2.73,-5.67,2.03
,-8.282,0.069,-5.595,-8.349,-0.297,-5.382,3.92,-5.95,2.45
15068.0,-8.248,-0.115,-5.217,-8.351,0.196,-5.207,7.07,-6.65,5.88
,-8.062,-0.132,-5.2,-8.284,0.376,-5.31,7.0,-6.65,6.44
,-8.193,-0.084,-5.138,-8.318,0.567,-5.185,6.3,-6.58,6.58
,-8.378,-0.019,-5.099,-8.437,0.718,-5.099,6.79,-6.93,7.14
15144.0,-8.617,0.73,-4.963,-8.48,0.34,-5.027,8.47,-5.39,4.76
,-8.655,0.749,-5.004,-8.361,0.244,-4.87,7.98,-5.67,4.2
,-8.502,0.725,-5.02,-8.483,0.392,-5.121,6.93,-5.95,4.41
,-8.339,0.68,-5.095,-8.356,0.699,-5.296,5.88,-5.6,4.97
15219.0,-8.375,0.902,-5.501,-8.555,0.168,-5.296,7.91,-8.12,0.21
,-8.337,0.871,-5.58,-8.497,-0.136,-5.43,5.11,-8.89,-0.49
,-8.382,0.687,-5.523,-8.445,-0.232,-5.248,2.66,-9.1,-1.61
,-8.445,0.443,-5.427,-8.516,-0.189,-5.269,0.7,-8.68,-2.66
15295.0,-8.464,-0.146,-5.319,-8.392,0.002,-5.195,3.15,-10.71,-2.1
,-8.598,-0.165,-5.267,-8.423,0.256,-5.281,3.29,-10.92,-1.47
,-8.658,-0.158,-5.317,-8.411,0.39,-5.238,3.36,-11.62,-1.05
,-8.497,-0.132,-5.128,-8.466,0.476,-5.24,3.71,-11.76,-0.7
15370.0,-8.547,0.443,-5.099,-8.703,0.299,-4.599,1.89,-13.51,-1.26
,-8.748,0.33,-4.86,-8.701,0.328,-4.69,0.7,-13.09,-1.75
,-8.658,0.203,-4.724,-8.588,0.22,-4.558,0.42,-13.44,-3.01
,-8.689,0.239,-4.64,-8.643,0.33,-4.573,1.26,-13.65,-4.2
15446.0,-8.679,0.479,-4.714,-8.801,-0.189,-4.001,-0.42,-14.28,-6.72
,-8.65,0.421,-4.47,-8.739,-0.093,-4.24,-0.77,-13.93,-7.56
,-8.768,0.28,-4.295,-8.677,-0.043,-4.401,-1.47,-13.51,-8.26
,-8.811,0.055,-4.18,-8.787,0.089,-4.484,-3.43,-12.81,-8.4
15522.0,-8.878,0.093,-4.506,-8.892,-0.184,-4.338,-2.1,-13.79,-7.28
,-8.832,0.012,-4.223,-8.849,0.041,-4.623,-2.87,-12.95,-7.35
,-8.918,-0.153,-3.893,-8.825,0.163,-4.692,-1.19,-12.04,-7.49
,-8.985,-0.163,-4.446,-8.746,-0.098,-4.286,1.12,-11.97,-8.82
15598.0,-8.753,-0.165,-4.324,-8.617,-0.287,-4.731,0.49,-12.81,-7.35
,-9.024,-0.06,-4.381,-8.739,-0.601,-4.369,1.68,-13.23,-7.49
,-8.899,0.05,-4.841,-9.038,-1.01,-3.697,0.7,-14.49,-8.26
,-8.66,-0.203,-4.738,-9.103,-0.723,-4.001,-1.61,-14.91,-7.91
15673.0,-9.127,-0.44,-3.905,-9.038,0.048,-3.977,7.49,-14.42,-5.25
,-9.067,-0.098,-3.984,-8.78,-0.045,-3.766,8.12,-14.42,-4.34
,-9.007,0.124,-3.726,-8.787,0.151,-3.697,7.07,-14.07,-3.85
,-9.074,0.077,-3.81,-8.899,-0.036,-3.577,4.97,-13.79,-4.83
15749.0,-9.014,-0.33,-3.503,-8.959,-0.175,-3.601,1.54,-11.9,-6.37
,-9.146,-0.376,-3.324,-8.835,-0.261,-3.551,2.66,-11.06,-6.02
,-9.237,-0.275,-3.326,-8.964,-0.471,-3.506,3.15,-10.78,-6.44
,-9.158,-0.201,-3.534,-9.177,-0.68,-3.386,2.31,-10.43,-7.07
15825.0,-9.27,-0.742,-3.376,-9.062,-0.426,-3.439,0.7,-7.28,-5.67
,-9.323,-0.62,-3.618,-9.043,-0.352,-3.549,2.59,-7.28,-5.6
,-9.141,-0.376,-3.551,-9.072,-0.208,-3.632,3.71,-7.35,-5.25
,-9.064,-0.27,-3.472,-9.146,-0.187,-3.563,3.57,-6.72,-4.76
15901.0,-9.16,-0.352,-3.448,-9.227,-0.543,-3.486,2.17,-4.48,-4.69
,-9.191,-0.672,-3.077,-9.062,-0.354,-3.542,1.47,-3.71,-3.99
,-9.359,-0.938,-3.104,-9.057,-0.438,-3.472,2.52,-3.01,-3.57
,-9.38,-0.847,-3.269,-9.136,-0.574,-3.644,4.2,-2.73,-3.29
15977.0,-9.232,-0.471,-3.944,-9.359,-0.56,-3.896,2.17,-1.26,-2.87
,-9.098,-0.337,-3.881,-9.261,-0.447,-4.123,2.17,-1.4,-2.73
,-9.067,-0.39,-3.649,-9.069,-0.292,-4.463,1.33,-1.4,-2.31
,-9.182,-0.512,-3.671,-8.923,-0.402,-4.422,1.26,-0.98,-2.03
16052.0,-8.818,-0.503,-4.147,-9.213,-0.321,-3.317,1.68,-3.78,-2.24
,-9.045,-0.639,-3.932,-9.304,-0.426,-3.025,2.52,-3.78,-2.03
,-9.225,-0.56,-3.668,-9.402,-0.567,-3.173,3.43,-4.13,-1.96
,-9.258,-0.325,-3.477,-9.301,-0.658,-3.139,3.57,-4.06,-1.75
16128.0,-9.091,-0.603,-3.202,-9.361,-0.486,-2.886,3.36,-1.54,-0.84
,-9.16,-0.608,-3.178,-9.323,-0.581,-2.754,3.92,-0.84,-0.77
,-9.237,-0.66,-2.883,-9.442,-0.567,-2.795,4.69,0.42,-0.35
,-9.299,-0.581,-2.95,-9.512,-0.577,-3.01,6.02,1.4,-0.14
16203.0,-9.368,-0.488,-3.309,-9.055,-0.771,-3.932,3.99,4.76,-0.35
,-9.201,-0.369,-3.518,-9.136,-0.782,-4.092,3.57,4.97,-0.14
,-9.182,-0.39,-3.733,-9.222,-0.529,-4.386,2.38,5.11,-0.49
,-9.086,-0.565,-3.862,-9.043,-0.369,-4.446,2.03,5.32,-0.63
16279.0,-8.942,-0.392,-4.403,-9.208,-0.637,-3.656,5.67,2.52,-0.07
,-9.081,-0.512,-4.298,-9.347,-0.507,-3.64,5.18,1.96,0.07
,-9.04,-0.718,-4.034,-9.299,-0.498,-3.518,5.74,1.61,0.35
,-9.055,-0.771,-3.747,-9.229,-0.51,-3.506,6.93,1.47,0.91
16355.0,-9.208,-0.596,-3.391,-9.287,-0.474,-3.503,5.11,1.4,1.05
,-9.174,-0.727,-3.173,-9.241,-0.543,-3.568,4.76,2.24,1.4
,-9.155,-0.751,-3.13,-9.16,-0.603,-3.661,4.97,2.73,1.26
,-9.282,-0.613,-3.317,-9.136,-0.699,-3.814,5.46,2.94,1.12
16431.0,-9.057,-0.641,-3.908,-9.143,-0.708,-3.68,4.13,3.15,1.05
,-9.129,-0.605,-4.027,-9.15,-0.658,-3.587,4.62,3.01,1.12
,-9.139,-0.639,-3.872,-9.261,-0.474,-3.597,4.55,3.01,1.26
,-9.1,-0.701,-3.747,-9.318,-0.436,-3.743,4.76,2.87,1.47
16506.0,-9.208,-0.498,-3.731,-9.22,-0.55,-3.85,3.08,3.01,1.4
,-9.153,-0.524,-3.731,-9.127,-0.505,-3.793,2.03,3.01,1.54
,-9.098,-0.586,-3.625,-9.131,-0.483,-3.79,1.61,3.08,1.68
,-9.182,-0.608,-3.656,-9.15,-0.514,-3.819,2.03,3.22,1.61
16582.0,-9.095,-0.603,-3.764,-9.088,-0.522,-3.884,-0.42,3.08,0.98
,-9.234,-0.507,-3.743,-9.117,-0.598,-3.92,-0.14,3.08,0.98
,-9.249,-0.5,-3.848,-9.081,-0.548,-3.898,-0.49,2.59,0.77
,-9.115,-0.548,-3.86,-9.095,-0.526,-3.781,-0.42,2.45,0.98
16658.0,-9.098,-0.574,-3.702,-9.165,-0.558,-3.69,1.61,2.31,0.98
,-9.21,-0.603,-3.707,-9.21,-0.553,-3.64,1.54,2.45,0.91
,-9.184,-0.572,-3.702,-9.134,-0.443,-3.699,1.68,2.52,0.98
,-9.198,-0.507,-3.716,-9.158,-0.471,-3.719,1.61,2.66,0.91
16734.0,-9.127,-0.524,-3.649,-9.127,-0.364,-3.984,0.14,3.08,0.91
,-9.201,-0.548,-3.613,-9.052,-0.531,-3.903,0.42,3.57,0.77
,-9.249,-0.397,-3.798,-9.055,-0.656,-3.805,1.19,3.57,0.49
,-9.162,-0.325,-3.927,-9.11,-0.558,-3.836,0.63,3.36,0.42
16809.0,-9.124,-0.352,-3.877,-9.115,-0.615,-3.977,2.1,3.36,0.35
,-9.124,-0.304,-3.805,-9.043,-0.558,-3.922,1.12,3.36,0.21
,-9.165,-0.495,-3.833,-9.134,-0.567,-3.941,-0.28,3.36,0.0
,-9.184,-0.55,-3.927,-9.158,-0.579,-3.872,-0.28,3.22,-0.14
16885.0,-9.107,-0.483,-3.881,-9.05,-0.512,-4.001,2.52,3.08,0.49
,-9.153,-0.45,-3.867,-9.112,-0.574,-4.032,2.24,2.94,0.35
,-9.119,-0.467,-3.929,-9.105,-0.603,-4.018,2.03,2.87,0.14
,-9.098,-0.503,-3.972,-9.067,-0.548,-3.934,2.03,2.73,0.14
16961.0,-9.134,-0.481,-3.869,-9.153,-0.55,-3.793,2.24,2.03,0.35
,-9.129,-0.56,-3.757,-9.081,-0.543,-3.821,2.1,2.03,0.28
,-9.124,-0.615,-3.805,-9.098,-0.55,-3.872,2.38,1.96,0.35
,-9.15,-0.546,-3.8,-9.124,-0.522,-3.917,2.73,1.96,0.42
17036.0,-9.1,-0.469,-3.917,-9.079,-0.462,-4.082,2.8,2.45,0.49
,-9.095,-0.57,-3.944,-9.064,-0.56,-4.037,2.59,2.1,0.35
,-9.105,-0.57,-3.972,-9.079,-0.565,-4.003,2.59,1.75,0.35
,-9.093,-0.517,-4.03,-9.117,-0.546,-3.92,2.8,1.82,0.42
17112.0,-9.043,-0.493,-3.85,-9.072,-0.536,-3.891,3.64,1.33,0.63
,-9.124,-0.469,-3.814,-9.076,-0.634,-3.879,3.29,1.47,0.49
,-9.17,-0.491,-3.843,-9.067,-0.708,-3.838,2.94,1.47,0.49
,-9.131,-0.493,-3.862,-9.079,-0.646,-3.781,2.59,1.33,0.49
17188.0,-9.15,-0.558,-3.795,-9.026,-0.584,-3.975,3.29,1.54,0.7
,-9.127,-0.481,-3.819,-9.033,-0.622,-4.034,2.66,1.61,0.56
,-9.124,-0.443,-3.824,-9.055,-0.632,-3.97,1.82,1.54,0.42
,-9.115,-0.488,-3.915,-9.076,-0.603,-3.967,1.12,1.47,0.35
17264.0,-9.112,-0.546,-3.888,-9.134,-0.536,-3.91,3.08,1.19,0.77
,-9.1,-0.529,-3.843,-9.038,-0.641,-3.908,2.8,1.12,0.77
,-9.153,-0.483,-3.86,-9.024,-0.629,-3.917,2.52,1.12,0.56
,-9.141,-0.5,-3.903,-9.081,-0.57,-3.922,1.89,1.12,0.42
17339.0,-9.064,-0.498,-3.915,-9.083,-0.598,-3.843,2.87,0.91,0.84
,-9.086,-0.507,-3.934,-9.134,-0.574,-3.853,2.59,0.84,0.77
,-9.095,-0.486,-3.905,-9.141,-0.519,-3.922,2.1,0.91,0.7
,-9.124,-0.57,-3.886,-9.124,-0.512,-3.917,1.54,0.63,0.56
17415.0,-9.1,-0.464,-3.862,-9.122,-0.493,-3.893,1.75,0.7,0.7
,-9.095,-0.584,-3.903,-9.098,-0.522,-3.891,1.75,0.7,0.63
,-9.136,-0.584,-3.896,-9.1,-0.61,-3.908,2.03,0.7,0.49
,-9.134,-0.553,-3.905,-9.038,-0.581,-3.908,2.24,0.7,0.56
17491.0,-9.105,-0.536,-3.843,-9.021,-0.553,-3.814,2.66,0.7,0.77
,-9.129,-0.531,-3.888,-9.11,-0.579,-3.857,2.66,0.56,0.7
,-9.179,-0.524,-3.898,-9.158,-0.615,-3.836,2.45,0.28,0.63
,-9.1,-0.51,-3.865,-9.162,-0.553,-3.898,2.24,0.35,0.7
17567.0,-9.129,-0.522,-3.853,-9.115,-0.558,-3.865,2.1,0.28,0.63
,-9.122,-0.538,-3.886,-9.131,-0.579,-3.759,1.61,0.28,0.56
,-9.093,-0.608,-3.922,-9.174,-0.598,-3.685,1.61,0.28,0.56
,-9.043,-0.62,-3.869,-9.158,-0.491,-3.716,2.03,0.42,0.7
17642.0,-9.182,-0.5,-3.778,-9.052,-0.672,-3.884,3.15,0.63,1.05
,-9.141,-0.503,-3.798,-9.112,-0.589,-3.896,2.73,0.77,0.91
,-9.131,-0.526,-3.929,-9.091,-0.505,-3.855,2.24,0.63,0.7
,-9.124,-0.57,-3.905,-9.139,-0.531,-3.817,1.89,0.56,0.63
17718.0,-9.179,-0.503,-3.723,-9.165,-0.553,-3.855,2.31,0.77,1.12
,-9.177,-0.491,-3.743,-9.103,-0.5,-3.908,2.24,0.77,0.98
,-9.203,-0.512,-3.75,-9.04,-0.57,-3.915,2.1,0.84,1.12
,-9.153,-0.562,-3.8,-9.086,-0.546,-3.948,1.89,1.05,1.05
17793.0,-9.148,-0.476,-3.924,-9.153,-0.572,-3.836,2.45,0.84,1.12
,-9.083,-0.488,-3.898,-9.086,-0.574,-3.793,2.59,0.7,1.05
,-9.139,-0.488,-3.886,-9.139,-0.629,-3.754,2.17,0.56,0.91
,-9.177,-0.512,-3.865,-9.129,-0.565,-3.754,1.89,0.14,0.98
17869.0,-9.198,-0.493,-3.699,-9.143,-0.55,-3.766,3.29,0.7,1.33
,-9.189,-0.455,-3.721,-9.091,-0.555,-3.762,2.8,0.84,1.26
,-9.165,-0.517,-3.738,-9.129,-0.558,-3.8,2.17,0.98,1.19
,-9.153,-0.553,-3.704,-9.141,-0.488,-3.795,1.82,0.98,0.98
17945.0,-9.139,-0.483,-3.774,-9.127,-0.526,-3.948,2.31,1.26,1.19
,-9.165,-0.524,-3.766,-9.038,-0.593,-3.934,2.03,1.33,1.19
,-9.191,-0.524,-3.843,-9.064,-0.632,-3.848,1.89,1.33,1.05
,-9.189,-0.457,-3.881,-9.112,-0.548,-3.848,1.61,1.26,0.98
18021.0,-9.165,-0.486,-3.817,-9.119,-0.586,-3.786,2.8,0.91,1.19
,-9.17,-0.395,-3.896,-9.095,-0.543,-3.805,2.38,1.05,1.19
,-9.146,-0.5,-3.819,-9.107,-0.483,-3.757,1.75,0.91,1.12
,-9.086,-0.519,-3.786,-9.189,-0.488,-3.795,1.61,0.84,1.05
18097.0,-9.124,-0.483,-3.74,-9.141,-0.457,-3.752,2.52,1.19,1.4
,-9.131,-0.447,-3.75,-9.17,-0.486,-3.824,2.66,1.19,1.19
,-9.146,-0.471,-3.81,-9.124,-0.505,-3.79,2.31,1.47,1.05
,-9.11,-0.474,-3.788,-9.146,-0.491,-3.766,1.96,1.54,1.12
18172.0,-9.093,-0.562,-3.74,-9.165,-0.39,-3.8,2.31,1.82,0.91
,-9.117,-0.538,-3.743,-9.115,-0.388,-3.951,2.73,1.96,0.98
,-9.196,-0.409,-3.805,-9.141,-0.462,-4.034,3.08,2.03,0.91
,-9.227,-0.402,-3.766,-9.081,-0.507,-4.075,2.59,2.17,0.91
18248.0,-9.014,-0.529,-4.056,-9.191,-0.395,-3.774,2.31,1.47,0.91
,-9.055,-0.586,-3.982,-9.17,-0.438,-3.731,3.22,1.33,1.12
,-9.134,-0.531,-3.908,-9.198,-0.476,-3.678,3.78,1.19,1.05
,-9.143,-0.428,-3.831,-9.177,-0.493,-3.781,3.78,1.12,0.91
18324.0,-9.103,-0.495,-3.774,-9.091,-0.491,-3.872,2.45,1.33,0.63
,-9.105,-0.55,-3.838,-9.083,-0.44,-3.941,2.59,1.47,0.63
,-9.095,-0.529,-3.788,-9.158,-0.459,-3.9,2.87,1.33,0.56
,-9.115,-0.522,-3.841,-9.081,-0.443,-3.944,3.43,1.47,0.63
18400.0,-9.067,-0.486,-3.917,-9.16,-0.486,-3.81,2.66,1.05,0.21
,-9.067,-0.567,-3.903,-9.158,-0.44,-3.766,2.8,0.98,0.14
,-9.103,-0.534,-3.853,-9.165,-0.479,-3.762,3.29,0.84,0.42
,-9.105,-0.5,-3.833,-9.165,-0.491,-3.642,3.57,0.77,0.42
18475.0,-9.167,-0.538,-3.632,-9.115,-0.526,-3.814,1.26,1.33,0.0
,-9.153,-0.61,-3.613,-9.112,-0.524,-3.829,1.89,1.89,0.14
,-9.146,-0.531,-3.594,-9.093,-0.608,-3.865,2.59,2.03,0.21
,-9.263,-0.488,-3.726,-9.06,-0.627,-3.912,2.59,2.1,0.21
18551.0,-9.1,-0.581,-3.927,-9.148,-0.565,-3.534,3.78,2.24,0.28
,-9.146,-0.579,-3.807,-9.196,-0.546,-3.609,3.43,2.24,0.28
,-9.067,-0.558,-3.74,-9.124,-0.558,-3.594,3.15,2.38,0.21
,-9.146,-0.558,-3.671,-9.11,-0.615,-3.609,2.94,2.87,0.35
18626.0,-9.124,-0.625,-3.463,-9.196,-0.5,-3.912,2.66,4.27,1.12
,-9.165,-0.637,-3.472,-9.016,-0.493,-4.044,2.94,4.62,1.12
,-9.189,-0.601,-3.436,-8.957,-0.577,-4.137,2.73,5.04,1.26
,-9.186,-0.524,-3.611,-8.923,-0.725,-4.08,2.31,5.25,1.19
18702.0,-8.899,-0.794,-3.879,-9.203,-0.416,-3.91,1.47,5.25,1.96
,-8.993,-0.675,-3.743,-9.057,-0.474,-3.984,2.94,5.32,2.38
,-9.136,-0.574,-3.616,-9.0,-0.589,-4.14,3.36,5.67,2.73
,-9.162,-0.445,-3.687,-8.985,-0.704,-4.111,3.22,5.81,2.94
18778.0,-9.016,-0.608,-4.216,-8.909,-0.337,-4.75,2.59,5.39,3.01
,-9.064,-0.443,-4.415,-8.871,-0.491,-4.518,3.92,4.9,2.8
,-9.057,-0.266,-4.645,-8.976,-0.555,-4.417,3.99,4.06,2.52
,-9.002,-0.199,-4.745,-9.105,-0.51,-4.357,2.59,3.29,2.38
18854.0,-9.107,-0.385,-4.257,-9.232,-0.543,-3.649,1.33,0.07,2.31
,-9.122,-0.383,-4.123,-9.256,-0.436,-3.754,0.42,-0.14,2.38
,-9.021,-0.474,-3.9,-9.253,-0.309,-3.747,-1.05,-0.14,2.31
,-9.074,-0.534,-3.661,-9.292,-0.34,-3.793,-2.03,0.07,2.38
18929.0,-9.179,-0.278,-3.886,-9.282,-0.486,-3.616,-7.28,-0.7,-0.28
,-9.014,-0.311,-3.733,-9.079,-0.297,-3.678,-8.33,-0.7,0.07
,-9.048,-0.431,-3.625,-9.04,-0.139,-3.97,-9.66,-0.21,0.28
,-9.184,-0.572,-3.527,-8.89,-0.179,-4.185,-10.71,-0.21,-0.42
19005.0,-8.902,-0.579,-3.922,-9.086,-0.136,-4.513,-12.11,0.84,1.19
,-9.026,-0.754,-4.039,-8.918,-0.093,-4.231,-9.66,1.33,1.96
,-9.107,-0.792,-3.975,-8.89,-0.101,-4.286,-6.02,1.26,2.17
,-9.335,-0.5,-4.31,-8.921,-0.304,-4.207,-2.94,0.14,2.1
19081.0,-8.973,-0.491,-4.111,-9.026,-0.16,-3.611,-4.83,-1.05,2.31
,-9.043,-0.488,-4.118,-9.1,-0.175,-3.391,-2.17,-0.84,2.73
,-9.143,-0.519,-3.728,-9.263,-0.196,-3.518,-0.35,-0.63,2.87
,-9.277,-0.251,-3.757,-9.263,-0.184,-3.266,1.05,-0.98,2.31
19157.0,-9.325,0.096,-3.869,-8.942,-0.96,-3.116,-1.47,-0.49,1.61
,-9.107,0.189,-4.001,-9.273,-0.78,-3.226,-3.78,-0.91,0.98
,-8.983,-0.235,-4.044,-9.237,-0.091,-3.379,-7.56,-0.56,0.7
,-8.815,-0.804,-3.599,-9.081,0.447,-3.79,-9.24,0.7,1.19
19233.0,-8.978,0.397,-3.8,-9.296,-0.593,-3.601,-2.45,0.98,0.49
,-9.045,-0.127,-3.666,-9.016,-0.412,-3.611,-6.72,2.31,0.98
,-9.1,-0.782,-3.357,-8.703,-0.51,-3.759,-7.49,4.06,1.26
,-9.299,-0.804,-3.242,-8.799,-1.036,-3.297,-3.01,4.76,1.75
19308.0,-9.251,-1.223,-3.388,-8.923,-0.012,-3.946,6.72,10.36,6.79
,-9.277,-1.039,-3.23,-8.916,-0.172,-4.2,12.81,11.27,8.05
,-9.313,-0.546,-3.262,-8.933,-0.608,-4.264,17.29,11.55,9.1
,-9.026,-0.026,-3.496,-8.804,-0.522,-3.793,17.64,11.34,9.24
19384.0,-8.801,-0.136,-3.752,-9.079,0.888,-3.34,11.76,12.11,8.12
,-8.882,0.005,-3.719,-9.031,0.979,-3.448,13.3,13.72,7.0
,-9.095,0.196,-3.415,-9.095,0.751,-3.381,14.21,15.47,6.65
,-9.184,0.625,-3.333,-9.091,0.019,-3.769,14.98,15.89,6.16
19459.0,-8.701,-0.95,-3.628,-8.985,-0.995,-3.905,-2.59,19.32,3.57
,-8.629,-1.441,-3.687,-8.94,-0.498,-4.011,0.91,20.23,5.39
,-8.579,-1.553,-3.848,-8.799,0.189,-4.13,7.42,20.09,7.42
,-8.777,-1.259,-3.96,-8.806,0.701,-4.286,14.14,20.37,9.03
19535.0,-8.928,0.933,-4.829,-8.418,0.416,-4.676,13.65,19.95,7.14
,-8.875,0.845,-5.145,-8.43,0.321,-4.635,6.93,18.83,5.95
,-8.94,0.644,-5.011,-8.782,0.098,-4.836,2.03,19.18,4.48
,-8.782,0.543,-4.724,-8.969,-0.026,-5.025,-0.14,20.51,3.43
19611.0,-8.804,0.081,-5.054,-8.689,0.211,-5.303,9.94,19.95,1.33
,-8.382,0.127,-5.073,-8.799,0.258,-5.468,10.57,20.51,1.68
,-8.488,0.146,-4.788,-8.624,0.254,-5.305,10.43,20.65,1.47
,-8.646,0.189,-5.188,-8.564,0.316,-5.477,11.06,18.76,0.42
19687.0,-8.299,-0.242,-5.58,-8.528,-0.991,-5.398,1.75,15.26,-1.05
,-8.387,-0.818,-5.681,-8.44,-0.897,-5.43,-0.42,13.65,-1.47
,-8.38,-1.046,-5.681,-8.476,-0.687,-5.348,0.28,12.04,-1.33
,-8.536,-1.225,-5.465,-8.478,-0.285,-5.461,2.38,10.5,-0.98
19762.0,-8.547,0.141,-5.331,-8.562,0.601,-5.214,10.29,9.45,2.52
,-8.686,0.29,-5.2,-8.445,0.751,-5.279,8.05,9.31,2.52
,-8.739,0.345,-5.049,-8.478,0.5,-5.286,5.18,8.96,2.17
,-8.835,0.467,-5.039,-8.634,0.333,-5.231,3.36,7.77,1.47
19838.0,-8.461,0.144,-5.487,-8.361,-0.065,-5.269,-0.98,4.69,-5.11
,-8.574,0.041,-5.214,-8.471,-0.069,-5.231,0.56,3.85,-6.23
,-8.483,0.187,-5.379,-8.586,-0.045,-5.406,1.75,2.17,-6.93
,-8.44,0.029,-5.3,-8.66,-0.39,-5.109,1.61,1.26,-7.7
19913.0,-8.38,-0.768,-5.008,-8.418,-2.201,-5.063,-0.98,2.38,-8.12
,-8.368,-1.211,-4.745,-8.406,-1.998,-5.205,-1.26,4.27,-5.88
,-8.119,-1.783,-4.905,-8.406,-1.663,-5.281,0.21,5.81,-2.8
,-8.392,-2.235,-4.681,-8.567,-1.271,-4.951,2.52,5.95,0.07
19989.0,-8.662,-0.369,-5.193,-8.181,0.084,-5.185,23.38,1.54,4.97
,-8.713,-0.117,-5.272,-8.296,-0.237,-5.087,22.26,1.75,5.11
,-8.512,0.304,-5.26,-8.504,-0.711,-4.826,19.67,1.47,4.41
,-8.354,0.361,-5.444,-8.636,-0.761,-4.972,16.52,1.96,3.92
20065.0,-8.665,-0.68,-5.047,-8.672,0.972,-5.633,15.61,3.71,4.55
,-8.693,-0.349,-5.128,-8.358,0.711,-5.719,19.04,3.22,4.34
,-8.497,0.194,-5.233,-8.078,0.144,-5.279,22.26,3.08,3.29
,-8.5,0.73,-5.456,-7.775,-0.541,-5.319,23.24,2.24,1.33
20141.0,-8.074,-1.307,-5.128,-9.234,-1.005,-4.764,8.26,3.01,0.77
,-8.284,-1.728,-5.018,-9.306,-0.474,-4.824,9.31,4.13,1.47
,-8.605,-2.065,-4.575,-8.89,-0.122,-5.027,13.37,4.76,1.89
,-8.839,-1.555,-4.75,-8.476,0.211,-5.176,19.25,4.13,1.75
20217.0,-7.966,0.541,-5.43,-8.77,-0.431,-5.48,20.16,-0.28,-0.42
,-7.557,0.467,-5.556,-8.815,-0.756,-5.463,17.64,0.49,-1.12
,-7.72,0.278,-5.707,-8.926,-0.79,-5.13,15.89,1.54,-1.54
,-8.301,0.031,-5.623,-8.665,-0.459,-5.183,13.09,2.17,-1.19
20292.0,-8.533,-0.292,-5.106,-8.32,-0.467,-5.717,18.83,4.13,-1.82
,-8.445,-0.196,-5.044,-8.105,-1.113,-5.642,18.97,5.32,-2.24
,-8.531,0.187,-5.315,-7.978,-1.74,-5.52,18.27,4.48,-3.15
,-8.435,0.014,-5.54,-8.189,-2.046,-5.473,15.19,4.41,-2.87
20368.0,-8.354,-2.326,-5.114,-8.543,-0.684,-5.252,13.93,2.24,2.1
,-8.514,-1.615,-5.15,-7.815,-0.313,-5.425,17.78,0.98,2.17
,-8.787,-1.405,-5.217,-8.05,-0.459,-5.535,17.43,0.28,2.94
,-8.77,-1.163,-5.006,-8.222,-0.498,-5.394,15.68,-0.56,3.36
20444.0,-8.497,-0.744,-5.351,-8.49,-0.739,-4.982,4.9,-0.56,5.95
,-8.665,-0.799,-5.334,-8.581,-0.883,-5.02,5.25,-0.63,6.65
,-8.648,-0.524,-5.307,-8.646,-0.704,-4.963,6.65,-0.49,6.3
,-8.655,-0.62,-5.071,-8.485,-0.412,-5.217,6.02,-0.21,5.95
20520.0,-8.306,-0.567,-5.327,-8.469,-0.83,-5.475,4.27,2.31,3.92
,-8.337,-0.723,-5.331,-8.631,-0.89,-5.25,3.22,2.66,3.5
,-8.155,-0.617,-5.415,-8.531,-0.981,-5.135,2.73,2.52,3.29
,-8.21,-0.737,-5.446,-8.394,-0.869,-5.212,1.61,3.29,3.08
20595.0,-8.402,-0.763,-5.389,-8.512,-0.404,-5.205,0.35,6.16,3.08
,-8.557,-0.644,-5.384,-8.423,-0.45,-5.138,-0.56,6.3,2.73
,-8.378,-0.457,-5.501,-8.39,-0.452,-5.195,-0.91,6.58,2.52
,-8.308,-0.325,-5.461,-8.296,-0.701,-5.114,-1.75,7.56,2.52
20671.0,-8.361,-1.003,-5.238,-8.402,-0.414,-5.296,-13.23,9.45,4.06
,-8.464,-0.849,-5.339,-8.569,-0.73,-5.26,-13.44,9.52,4.27
,-8.27,-0.498,-5.307,-8.641,-0.665,-5.207,-12.32,9.66,4.48
,-8.184,-0.321,-5.341,-8.471,-0.488,-5.351,-13.72,10.43,4.13
20746.0,-8.351,-0.127,-5.451,-8.452,0.101,-5.609,-16.38,10.08,3.71
,-8.404,0.345,-5.7,-8.399,-0.057,-5.461,-14.42,9.1,2.66
,-8.39,0.66,-5.894,-8.454,-0.309,-5.597,-16.03,7.84,1.4
,-8.294,0.354,-5.887,-8.478,-0.38,-5.616,-19.32,7.42,0.84
20822.0,-8.54,-0.701,-5.609,-8.277,-0.692,-5.839,-19.81,6.37,1.54
,-8.579,-0.833,-5.741,-8.033,-0.84,-5.889,-17.99,5.88,1.89
,-8.356,-0.986,-5.695,-7.964,-0.936,-5.843,-16.52,5.95,2.94
,-8.375,-1.058,-5.587,-8.15,-0.873,-5.992,-16.1,5.32,3.57
20898.0,-8.208,-0.924,-5.827,-8.358,-0.29,-5.894,-16.03,3.29,8.54
,-8.33,-0.73,-5.793,-8.107,-0.077,-5.877,-14.35,2.94,9.24
,-8.301,-0.33,-6.033,-8.071,0.112,-5.8,-11.13,2.66,9.31
,-8.392,-0.273,-6.021,-8.038,0.05,-5.834,-9.94,2.59,9.45
20974.0,-8.208,-0.077,-5.745,-8.296,0.077,-5.575,-6.86,2.31,7.98
,-8.411,-0.203,-5.638,-8.217,0.132,-5.492,-4.83,1.75,7.7
,-8.361,-0.127,-5.695,-8.165,0.151,-5.614,-1.54,1.75,7.63
,-8.279,-0.036,-5.683,-8.239,0.084,-5.571,0.63,1.4,7.07
21050.0,-8.435,0.105,-5.614,-8.143,-0.156,-5.604,3.71,-1.19,4.69
,-8.473,0.175,-5.791,-8.105,-0.474,-5.489,4.48,-2.03,5.04
,-8.023,0.29,-5.659,-8.232,-0.304,-5.36,3.64,-2.45,5.6
,-8.189,0.055,-5.681,-8.09,0.029,-5.587,2.38,-1.82,5.81
21125.0,-8.045,0.311,-5.772,-8.442,0.177,-5.367,9.03,-4.41,6.86
,-8.114,0.395,-5.721,-8.339,0.261,-5.42,7.35,-5.11,6.44
,-8.248,0.333,-5.583,-8.208,0.287,-5.48,5.53,-5.11,6.09
,-8.425,0.302,-5.477,-8.277,0.354,-5.482,4.13,-5.18,5.67
21201.0,-8.425,0.416,-5.286,-8.425,0.462,-5.315,5.81,-5.95,4.76
,-8.394,0.538,-5.365,-8.272,0.498,-5.095,6.37,-6.02,4.27
,-8.303,0.534,-5.276,-8.638,0.383,-5.142,6.37,-5.88,3.85
,-8.318,0.677,-5.233,-8.373,0.684,-5.363,5.88,-6.02,3.22
21277.0,-8.311,0.601,-5.453,-8.478,0.258,-5.24,3.92,-8.4,-0.63
,-8.332,0.632,-5.473,-8.536,0.33,-5.279,3.5,-7.91,-2.1
,-8.373,0.447,-5.355,-8.6,0.431,-5.346,1.47,-7.91,-2.45
,-8.402,0.266,-5.264,-8.564,0.522,-5.434,0.49,-7.56,-2.73
21353.0,-8.445,0.376,-5.401,-8.344,-0.433,-5.379,-6.65,-9.52,-4.2
,-8.39,0.112,-5.441,-8.406,-0.395,-5.353,-7.98,-9.31,-4.27
,-8.253,-0.177,-5.441,-8.435,-0.211,-5.267,-7.84,-9.52,-4.62
,-8.332,-0.325,-5.351,-8.433,-0.098,-5.135,-6.44,-9.52,-4.27
21428.0,-8.485,-0.053,-4.96,-8.555,0.084,-4.917,-1.61,-9.87,-1.4
,-8.607,-0.05,-4.745,-8.571,0.158,-4.98,-1.96,-9.03,-0.35
,-8.576,-0.072,-4.697,-8.744,0.246,-4.783,-1.96,-9.1,0.0
,-8.514,-0.05,-4.807,-8.832,0.447,-4.683,-1.26,-9.38,0.21
21504.0,-8.782,0.603,-4.63,-8.614,0.407,-4.441,3.43,-9.59,-1.05
,-8.543,0.644,-4.621,-8.583,0.299,-4.444,2.38,-9.45,-2.1
,-8.323,0.627,-4.456,-8.667,0.404,-4.721,0.63,-8.89,-2.59
,-8.423,0.438,-4.398,-8.739,0.469,-4.798,0.14,-8.26,-2.8
21579.0,-8.933,0.459,-4.819,-8.636,0.148,-4.396,1.89,-8.19,-4.27
,-8.914,0.455,-4.74,-8.665,0.129,-4.456,1.05,-7.63,-5.11
,-8.696,0.345,-4.606,-8.619,0.019,-4.525,-0.21,-7.42,-6.3
,-8.581,0.211,-4.558,-8.497,-0.091,-4.628,-0.98,-7.28,-6.65
21655.0,-8.514,-0.302,-4.752,-8.787,-0.447,-4.46,-1.12,-7.14,-5.74
,-8.626,-0.491,-4.642,-8.792,-0.488,-4.374,1.19,-6.79,-4.69
,-8.701,-0.44,-4.616,-8.689,-0.574,-4.422,3.64,-7.28,-3.92
,-8.878,-0.33,-4.748,-8.777,-0.641,-4.207,4.97,-7.28,-3.5
21731.0,-8.935,-0.507,-4.104,-8.646,0.297,-4.365,6.65,-5.32,-0.56
,-9.002,-0.278,-4.269,-8.672,0.457,-4.472,7.14,-5.25,-0.7
,-8.906,-0.019,-4.3,-8.77,0.656,-4.556,7.14,-4.83,-1.05
,-8.739,0.168,-4.228,-8.763,0.847,-4.511,6.93,-4.41,-0.98
21807.0,-8.815,0.857,-4.413,-8.942,0.44,-4.884,4.34,-4.48,-4.55
,-8.789,0.773,-4.625,-8.815,0.349,-4.879,1.05,-4.69,-6.09
,-8.665,0.392,-4.391,-8.739,0.096,-4.853,-1.54,-4.76,-7.42
,-8.732,0.438,-4.377,-8.751,-0.223,-4.896,-1.68,-4.55,-8.47
21882.0,-8.691,-0.517,-4.542,-9.086,-0.337,-4.628,-5.67,-6.16,-10.99
,-8.763,-0.495,-4.582,-8.789,-0.349,-4.52,-3.29,-6.16,-10.71
,-8.856,-0.447,-4.381,-8.741,-0.433,-4.659,-2.17,-6.3,-10.78
,-8.99,-0.337,-4.386,-8.717,-0.433,-4.36,-1.54,-6.44,-10.15
21958.0,-8.863,-0.366,-4.116,-8.902,-0.12,-3.927,4.2,-6.02,-7.14
,-9.074,-0.163,-4.066,-8.89,-0.263,-3.783,4.9,-5.6,-6.93
,-9.072,-0.141,-4.006,-8.909,-0.292,-3.788,4.06,-5.53,-7.0
,-8.966,-0.124,-3.862,-9.052,-0.163,-4.027,2.8,-5.39,-7.0
22034.0,-8.935,-0.103,-4.396,-9.107,-0.483,-4.391,-2.52,-3.15,-8.96
,-8.756,-0.28,-4.379,-8.957,-0.239,-4.587,-5.04,-2.94,-8.4
,-8.744,-0.562,-4.03,-8.756,-0.239,-4.63,-5.53,-2.52,-7.35
,-9.0,-0.62,-4.089,-8.626,-0.586,-4.336,-3.57,-2.03,-6.86
22110.0,-8.818,-0.821,-4.164,-8.94,-0.323,-3.769,-1.26,-2.59,-5.46
,-9.06,-0.67,-4.011,-8.983,-0.514,-3.955,1.26,-2.52,-5.18
,-9.222,-0.359,-3.991,-8.899,-0.785,-3.659,1.82,-2.66,-4.9
,-9.134,-0.179,-3.776,-8.933,-0.792,-3.486,0.42,-2.31,-4.76
22186.0,-8.995,-0.663,-3.336,-9.081,-0.45,-3.867,2.38,1.05,-3.64
,-9.282,-0.514,-3.439,-8.959,-0.503,-4.317,3.08,2.03,-3.64
,-9.311,-0.392,-3.51,-8.67,-0.498,-4.444,1.96,2.87,-3.71
,-9.215,-0.447,-3.597,-8.567,-0.543,-4.341,-0.28,3.36,-4.06
22261.0,-8.507,-0.761,-4.02,-8.892,-0.079,-4.738,0.84,5.04,-2.73
,-8.804,-0.952,-3.747,-8.619,-0.51,-4.841,2.87,5.88,-1.75
,-9.246,-0.66,-3.958,-8.66,-1.153,-4.848,5.11,5.81,-1.47
,-9.371,-0.144,-4.508,-8.679,-1.177,-4.657,4.83,5.11,-1.82
22337.0,-8.849,-0.771,-4.652,-8.765,-0.598,-4.415,8.26,3.36,0.07
,-8.966,-0.335,-4.573,-8.842,-0.467,-4.53,9.66,2.73,0.21
,-9.045,-0.194,-4.616,-8.928,-0.436,-4.355,8.12,2.17,-0.07
,-8.894,-0.38,-4.53,-8.928,-0.297,-4.302,5.67,1.96,-0.42
22412.0,-9.05,-0.392,-4.312,-8.646,-1.089,-4.262,0.49,0.98,-1.96
,-8.935,-0.534,-4.506,-8.715,-0.928,-4.281,-1.33,0.91,-1.89
,-8.76,-0.771,-4.551,-8.871,-0.639,-4.243,-1.82,0.77,-1.19
,-8.634,-1.027,-4.429,-8.914,-0.455,-4.31,-0.21,0.84,-0.42
22488.0,-8.952,-0.553,-4.336,-8.952,-0.534,-4.262,1.96,0.84,1.26
,-8.923,-0.828,-4.319,-8.871,-0.447,-4.293,1.05,0.84,1.61
,-8.926,-0.948,-4.267,-8.897,-0.464,-4.405,2.24,0.98,2.73
,-8.964,-0.833,-4.231,-8.851,-0.601,-4.298,4.48,0.98,3.57
22564.0,-8.866,-0.727,-4.286,-8.909,-0.517,-4.41,3.29,0.84,3.22
,-8.993,-0.771,-4.24,-8.873,-0.55,-4.343,4.69,0.91,3.43
,-9.06,-0.622,-4.259,-8.868,-0.66,-4.398,6.09,0.7,3.78
,-9.021,-0.5,-4.398,-8.818,-0.541,-4.429,6.79,0.7,3.99
22640.0,-8.842,-0.366,-4.434,-8.871,-0.369,-4.281,8.05,0.35,3.5
,-8.926,-0.335,-4.491,-9.0,-0.354,-4.221,6.51,-0.21,2.8
,-8.89,-0.364,-4.391,-8.945,-0.337,-4.331,4.9,-0.21,2.73
,-8.938,-0.376,-4.396,-8.945,-0.385,-4.374,4.06,-0.42,2.8
22715.0,-8.859,-0.498,-4.298,-9.028,-0.256,-4.135,2.45,-0.63,2.73
,-8.892,-0.555,-4.147,-8.971,-0.285,-4.078,2.52,-0.63,2.8
,-8.993,-0.548,-4.094,-8.99,-0.34,-4.221,3.43,-0.21,2.73
,-9.021,-0.409,-4.125,-8.942,-0.357,-4.355,4.06,-0.14,2.73
22791.0,-8.878,-0.349,-4.506,-8.971,-0.369,-4.283,2.94,-0.35,1.96
,-8.868,-0.414,-4.47,-9.021,-0.292,-4.3,3.08,-0.56,1.96
,-8.88,-0.488,-4.465,-8.93,-0.4,-4.29,3.92,-0.63,2.1
,-8.899,-0.486,-4.331,-8.871,-0.565,-4.178,4.55,-0.84,2.03
22867.0,-8.947,-0.565,-4.092,-9.0,-0.357,-3.807,2.38,-0.91,1.33
,-8.995,-0.567,-4.02,-9.021,-0.438,-3.821,3.71,-0.77,1.54
,-9.048,-0.45,-4.022,-9.038,-0.529,-3.877,4.41,-0.56,1.82
,-9.021,-0.299,-3.92,-9.019,-0.462,-4.046,4.06,-0.35,2.03
22943.0,-8.933,-0.491,-4.097,-8.921,-0.383,-4.209,1.96,1.4,1.54
,-8.935,-0.507,-4.18,-9.057,-0.479,-4.247,2.17,1.54,1.75
,-8.938,-0.531,-4.283,-9.072,-0.366,-4.307,2.31,1.61,1.75
,-8.856,-0.426,-4.223,-9.024,-0.321,-4.348,2.45,1.61,1.68
23019.0,-8.945,-0.39,-4.398,-8.935,-0.258,-4.154,2.87,1.05,1.26
,-8.844,-0.495,-4.317,-8.938,-0.287,-4.003,4.06,0.91,1.47
,-8.89,-0.428,-4.295,-8.976,-0.4,-3.951,5.32,1.05,1.61
,-8.973,-0.275,-4.305,-8.985,-0.416,-3.994,5.74,0.98,1.61
23094.0,-9.007,-0.385,-3.915,-8.928,-0.39,-4.164,2.8,1.33,0.63
,-9.04,-0.409,-3.915,-8.918,-0.414,-4.228,2.38,1.54,0.63
,-9.079,-0.44,-3.972,-8.909,-0.428,-4.264,2.03,1.89,0.63
,-9.038,-0.459,-4.092,-8.923,-0.4,-4.302,1.89,2.03,0.56
23170.0,-8.904,-0.369,-4.235,-8.928,-0.474,-4.298,1.82,2.38,0.35
,-8.993,-0.357,-4.29,-8.942,-0.558,-4.286,2.1,2.24,0.28
,-8.952,-0.433,-4.338,-8.957,-0.424,-4.35,2.03,2.03,0.21
,-8.904,-0.443,-4.369,-8.964,-0.421,-4.357,2.24,2.03,0.21
23245.0,-8.866,-0.503,-4.279,-8.93,-0.486,-4.13,3.08,1.68,0.49
,-8.971,-0.522,-4.209,-8.997,-0.562,-4.142,3.78,1.47,0.56
,-8.952,-0.414,-4.252,-9.007,-0.483,-4.159,3.99,1.4,0.42
,-9.007,-0.392,-4.221,-8.981,-0.383,-4.2,3.36,1.33,0.35
23321.0,-8.94,-0.354,-4.197,-8.949,-0.409,-4.3,2.87,1.96,0.7
,-9.005,-0.397,-4.231,-8.957,-0.433,-4.312,2.8,1.82,0.7
,-8.954,-0.459,-4.312,-8.871,-0.392,-4.255,3.08,1.61,0.7
,-8.892,-0.402,-4.238,-8.894,-0.44,-4.269,3.36,1.68,0.77
23397.0,-8.947,-0.474,-4.238,-8.983,-0.519,-4.216,3.43,1.26,0.35
,-8.928,-0.452,-4.209,-8.942,-0.517,-4.221,3.36,1.4,0.28
,-8.918,-0.462,-4.223,-8.909,-0.479,-4.183,3.43,1.47,0.42
,-8.969,-0.455,-4.235,-8.902,-0.45,-4.197,3.29,1.47,0.63
23473.0,-8.914,-0.452,-4.202,-8.945,-0.455,-4.223,3.29,1.61,0.7
,-8.957,-0.445,-4.147,-8.894,-0.467,-4.156,3.01,1.61,0.63
,-9.002,-0.419,-4.133,-8.933,-0.469,-4.197,2.66,1.75,0.49
,-8.976,-0.5,-4.149,-8.997,-0.495,-4.2,2.38,1.68,0.35
23548.0,-8.916,-0.445,-4.245,-8.973,-0.483,-4.362,2.59,1.89,0.35
,-8.918,-0.479,-4.274,-8.947,-0.51,-4.329,2.73,1.96,0.35
,-8.933,-0.483,-4.307,-8.94,-0.503,-4.257,2.66,1.82,0.28
,-8.914,-0.445,-4.324,-8.988,-0.474,-4.317,3.01,1.82,0.42
23624.0,-8.954,-0.421,-4.267,-8.861,-0.491,-4.377,2.66,1.68,0.35
,-8.964,-0.409,-4.348,-8.894,-0.505,-4.341,2.24,1.54,0.35
,-8.971,-0.467,-4.343,-8.959,-0.452,-4.389,2.1,1.54,0.35
,-8.894,-0.45,-4.362,-8.894,-0.459,-4.36,1.96,1.33,0.28
23700.0,-8.902,-0.514,-4.324,-8.997,-0.424,-4.156,1.75,0.56,0.14
,-8.926,-0.562,-4.252,-8.969,-0.452,-4.171,2.24,0.63,0.35
,-8.933,-0.541,-4.235,-8.983,-0.5,-4.125,2.73,0.63,0.56
,-8.942,-0.459,-4.156,-8.947,-0.562,-4.125,2.94,0.63,0.56
23776.0,-8.971,-0.62,-4.128,-8.947,-0.584,-4.255,2.03,1.33,0.35
,-8.93,-0.507,-4.216,-8.918,-0.462,-4.302,2.59,1.33,0.42
,-8.942,-0.436,-4.226,-8.942,-0.447,-4.286,2.45,1.33,0.49
,-8.904,-0.486,-4.262,-8.916,-0.517,-4.283,2.17,1.4,0.56
23851.0,-8.914,-0.517,-4.183,-8.921,-0.491,-4.283,2.17,1.33,0.63
,-8.947,-0.55,-4.197,-8.897,-0.536,-4.29,2.45,1.19,0.56
,-8.988,-0.364,-4.25,-8.954,-0.495,-4.341,2.17,1.33,0.56
,-9.009,-0.385,-4.293,-8.885,-0.529,-4.317,1.54,1.4,0.49
23927.0,-8.949,-0.495,-4.338,-8.911,-0.488,-4.24,1.75,0.98,0.77
,-8.926,-0.514,-4.29,-8.945,-0.431,-4.255,1.75,0.91,0.84
,-8.935,-0.495,-4.276,-8.966,-0.455,-4.25,1.82,0.84,0.77
,-8.909,-0.483,-4.314,-8.945,-0.491,-4.221,1.96,0.77,0.84
24002.0,-8.947,-0.51,-4.221,-8.942,-0.409,-4.238,2.1,0.63,0.98
,-8.938,-0.61,-4.192,-8.926,-0.431,-4.24,2.38,0.63,1.05
,-8.969,-0.574,-4.135,-8.902,-0.486,-4.281,2.8,0.84,1.05
,-8.961,-0.467,-4.159,-8.959,-0.503,-4.302,3.01,0.98,1.05
24078.0,-8.914,-0.486,-4.24,-8.942,-0.479,-4.195,2.59,1.19,1.05
,-8.947,-0.481,-4.238,-8.94,-0.519,-4.214,2.73,1.12,1.12
,-8.961,-0.397,-4.243,-8.928,-0.455,-4.267,2.8,0.84,1.19
,-8.928,-0.424,-4.228,-8.942,-0.38,-4.279,2.52,0.84,1.19
24154.0,-8.952,-0.462,-4.274,-9.007,-0.483,-4.25,2.17,0.77,0.91
,-8.947,-0.474,-4.281,-8.988,-0.471,-4.302,2.1,0.7,0.91
,-8.949,-0.538,-4.247,-8.933,-0.503,-4.24,2.31,0.56,0.98
,-8.933,-0.5,-4.238,-8.887,-0.495,-4.168,2.66,0.56,1.05
24230.0,-8.918,-0.481,-4.19,-8.918,-0.464,-4.338,2.87,0.7,1.05
,-8.988,-0.428,-4.245,-8.902,-0.505,-4.31,3.22,0.7,1.12
,-8.973,-0.383,-4.192,-8.969,-0.476,-4.3,2.8,0.63,0.98
,-8.921,-0.421,-4.283,-8.93,-0.5,-4.216,2.1,0.49,0.84
24306.0,-9.028,-0.392,-4.245,-8.856,-0.519,-4.436,2.52,0.63,0.91
,-9.028,-0.321,-4.317,-8.904,-0.469,-4.417,2.45,0.56,0.91
,-8.918,-0.366,-4.42,-8.868,-0.402,-4.331,1.47,0.14,0.7
,-8.916,-0.524,-4.415,-8.945,-0.5,-4.183,1.33,-0.21,0.63
24381.0,-8.949,-0.412,-4.075,-8.957,-0.433,-4.334,2.87,-0.42,0.56
,-9.033,-0.388,-4.049,-8.878,-0.538,-4.267,2.59,-0.21,0.56
,-9.028,-0.366,-4.075,-8.906,-0.503,-4.367,1.75,-0.21,0.49
,-8.99,-0.392,-4.178,-8.93,-0.4,-4.171,1.19,-0.28,0.28
24457.0,-9.014,-0.407,-4.106,-8.966,-0.541,-4.142,3.08,0.0,0.56
,-9.038,-0.385,-4.025,-8.966,-0.538,-4.13,2.66,0.0,0.42
,-9.014,-0.407,-4.042,-9.024,-0.467,-4.204,2.24,0.07,0.21
,-8.973,-0.4,-4.075,-8.976,-0.431,-4.166,1.96,0.21,0.35
24533.0,-8.978,-0.44,-4.197,-8.918,-0.55,-4.154,2.52,0.35,0.35
,-9.021,-0.459,-4.173,-8.949,-0.584,-4.14,2.31,0.49,0.28
,-9.007,-0.414,-4.259,-8.969,-0.491,-4.094,2.31,0.35,0.35
,-8.985,-0.443,-4.267,-9.04,-0.476,-4.078,1.89,0.42,0.35
24609.0,-9.072,-0.376,-4.089,-8.964,-0.538,-4.231,2.59,0.49,0.56
,-9.002,-0.443,-4.104,-8.971,-0.459,-4.216,2.1,0.56,0.49
,-9.0,-0.464,-4.154,-8.997,-0.476,-4.219,1.82,0.77,0.42
,-8.938,-0.522,-4.212,-8.978,-0.519,-4.111,1.82,0.56,0.28
24684.0,-8.969,-0.536,-4.116,-9.033,-0.459,-4.058,2.38,0.77,0.49
,-9.019,-0.503,-4.097,-9.033,-0.469,-4.154,2.24,0.84,0.49
,-8.997,-0.483,-4.022,-8.978,-0.538,-4.212,1.96,0.84,0.56
,-9.009,-0.438,-4.034,-8.911,-0.526,-4.221,1.89,0.98,0.42
24760.0,-8.945,-0.495,-4.25,-8.938,-0.409,-4.264,2.94,1.26,0.91
,-8.985,-0.479,-4.197,-8.966,-0.431,-4.281,2.94,1.12,0.77
,-8.985,-0.438,-4.221,-8.971,-0.529,-4.262,2.87,1.05,0.77
,-8.969,-0.459,-4.269,-8.954,-0.445,-4.235,2.66,1.05,0.7
24835.0,-8.945,-0.488,-4.164,-8.985,-0.495,-4.008,3.36,0.35,0.91
,-8.966,-0.541,-4.046,-9.002,-0.447,-3.977,3.36,0.42,0.98
,-9.002,-0.543,-4.022,-9.05,-0.555,-3.92,3.29,0.49,0.91
,-9.043,-0.443,-4.008,-9.0,-0.495,-3.91,3.15,0.7,0.77
24911.0,-9.05,-0.507,-4.054,-8.959,-0.44,-4.367,2.03,1.54,0.91
,-9.067,-0.546,-3.944,-8.897,-0.416,-4.233,1.75,1.47,0.98
,-8.997,-0.493,-4.154,-9.002,-0.414,-4.312,1.61,1.4,0.77
,-9.031,-0.505,-4.255,-8.928,-0.467,-4.314,2.03,1.33,0.77
24987.0,-8.906,-0.553,-4.192,-8.978,-0.407,-4.247,1.68,0.84,0.77
,-8.949,-0.524,-4.233,-8.981,-0.467,-4.319,2.24,0.84,0.84
,-8.949,-0.464,-4.312,-9.014,-0.491,-4.41,2.87,0.42,0.84
,-8.969,-0.39,-4.3,-8.957,-0.397,-4.346,2.94,0.28,0.91
25063.0,-8.949,-0.395,-4.346,-8.949,-0.392,-4.214,3.29,-0.77,0.77
,-8.966,-0.407,-4.329,-8.957,-0.483,-4.156,3.43,-0.98,0.7
,-9.036,-0.342,-4.25,-8.887,-0.529,-4.121,3.64,-1.26,0.7
,-9.045,-0.304,-4.276,-8.945,-0.457,-4.018,3.29,-1.33,0.7
25139.0,-8.99,-0.479,-3.941,-9.148,-0.488,-3.81,4.69,-1.4,0.84
,-9.057,-0.505,-3.824,-9.115,-0.524,-3.802,4.55,-1.19,0.84
,-9.15,-0.495,-3.781,-9.048,-0.483,-3.939,4.41,-0.7,0.77
,-9.143,-0.5,-3.719,-8.966,-0.534,-3.96,3.92,-0.56,0.63
25214.0,-9.014,-0.445,-4.032,-8.945,-0.481,-4.221,3.71,0.77,0.56
,-9.045,-0.457,-4.13,-8.916,-0.455,-4.245,3.71,0.91,0.63
,-9.026,-0.402,-4.168,-8.969,-0.548,-4.336,3.71,0.63,0.56
,-9.036,-0.395,-4.212,-8.985,-0.514,-4.154,3.22,0.35,0.35
25290.0,-9.033,-0.483,-4.003,-8.961,-0.536,-4.269,3.57,0.0,0.49
,-9.091,-0.445,-4.006,-8.875,-0.656,-4.3,3.92,-0.07,0.7
,-9.112,-0.462,-4.046,-8.918,-0.596,-4.257,3.99,-0.28,0.63
,-9.06,-0.443,-4.252,-8.942,-0.603,-4.154,3.92,-0.63,0.49
25366.0,-9.012,-0.495,-4.044,-9.04,-0.409,-4.046,6.86,-1.61,1.33
,-9.127,-0.44,-3.967,-9.026,-0.5,-3.984,6.51,-1.82,1.26
,-9.088,-0.424,-3.915,-9.06,-0.555,-4.006,5.95,-1.75,1.19
,-9.115,-0.424,-4.078,-9.115,-0.55,-3.884,5.25,-1.82,0.98
25442.0,-9.119,-0.366,-3.838,-9.014,-0.481,-3.819,1.82,-2.17,-0.21
,-9.103,-0.191,-3.869,-9.098,-0.581,-3.877,0.49,-2.17,-0.14
,-9.048,-0.29,-3.857,-8.914,-0.476,-3.747,-1.26,-1.82,0.07
,-9.024,-0.433,-3.793,-8.765,-0.409,-3.477,-2.45,-1.19,0.35
25517.0,-8.859,-0.495,-3.144,-9.184,-0.371,-3.254,-1.54,1.4,0.98
,-9.119,-0.517,-3.216,-9.244,-0.574,-3.171,0.28,2.73,0.98
,-9.284,-0.457,-3.305,-9.253,-0.79,-3.029,0.14,3.08,0.7
,-9.268,-0.311,-3.326,-9.28,-0.73,-3.015,-1.47,3.78,0.63
25593.0,-9.273,-0.498,-3.563,-8.734,-0.352,-4.949,-8.61,7.35,-0.21
,-9.055,-0.287,-3.74,-8.875,-0.653,-4.949,-8.19,7.35,0.0
,-8.894,-0.019,-4.386,-8.784,-0.782,-4.491,-8.33,6.44,-0.07
,-8.775,-0.043,-4.712,-8.873,-0.589,-4.36,-9.59,5.88,-0.07
25668.0,-9.115,-0.471,-3.762,-8.854,-0.335,-3.53,2.45,6.72,1.4
,-9.428,-0.168,-4.022,-9.012,-0.699,-2.86,2.38,6.02,0.77
,-9.225,-0.024,-4.039,-9.158,-0.778,-3.302,-0.77,4.41,-0.28
,-8.866,-0.055,-3.8,-8.949,-0.687,-3.81,-4.27,4.34,-0.14
25744.0,-8.796,-0.601,-4.156,-9.043,-0.675,-4.147,-6.51,5.25,-0.35
,-8.861,-0.725,-4.281,-8.923,-0.409,-4.152,-7.49,6.02,0.91
,-8.892,-1.041,-4.07,-8.971,-0.392,-4.319,-7.42,7.07,2.52
,-8.894,-0.993,-3.63,-8.918,-0.546,-4.503,-2.59,9.1,4.48
25820.0,-8.82,-0.55,-4.082,-8.794,0.105,-5.243,5.04,10.85,5.46
,-9.009,-0.325,-4.365,-8.782,-0.534,-4.769,7.35,10.43,6.3
,-8.725,0.017,-4.599,-8.926,-0.983,-4.164,7.98,8.05,4.83
,-8.825,0.254,-5.147,-9.083,-1.211,-4.384,4.9,5.39,3.5
25896.0,-8.808,-1.12,-4.484,-9.048,-0.948,-3.218,2.52,5.11,4.06
,-8.691,-1.216,-4.29,-9.062,-0.359,-3.64,5.32,6.51,5.39
,-8.646,-1.34,-3.776,-9.141,0.299,-4.53,7.14,8.96,6.65
,-8.705,-1.292,-3.049,-8.952,0.464,-5.061,10.22,12.04,8.54
25971.0,-8.614,0.057,-5.047,-8.78,-0.885,-3.946,4.41,7.49,10.78
,-8.435,-0.67,-4.764,-8.66,-0.55,-3.716,0.77,9.94,11.27
,-8.72,-1.228,-4.298,-8.88,0.306,-3.838,1.96,10.85,10.92
,-8.744,-1.163,-3.96,-8.978,0.938,-3.97,8.26,11.48,11.06
26047.0,-9.062,1.309,-4.329,-8.804,0.428,-4.436,13.79,10.99,9.52
,-9.045,1.433,-4.537,-8.796,0.203,-4.482,8.4,10.99,8.19
,-8.878,1.122,-4.688,-8.667,-0.077,-4.264,2.24,11.55,6.79
,-8.751,0.708,-4.508,-8.78,-0.325,-4.008,-1.12,12.95,5.53
26123.0,-8.763,-0.471,-3.97,-8.603,1.007,-5.298,7.56,17.01,1.96
,-8.933,-0.098,-4.226,-8.782,0.976,-5.274,10.78,16.73,2.73
,-8.868,0.424,-4.556,-8.777,0.646,-5.102,12.81,15.61,3.08
,-8.734,0.847,-5.128,-8.497,0.093,-4.901,12.53,13.86,2.31
26199.0,-8.33,-0.61,-4.767,-8.859,-1.486,-4.85,-4.9,14.84,-2.17
,-8.334,-1.263,-4.716,-8.82,-0.675,-5.217,-5.46,15.61,-1.4
,-8.586,-1.625,-4.448,-8.473,0.285,-5.635,-3.29,16.1,0.07
,-8.82,-1.737,-4.468,-8.196,0.55,-5.877,0.7,15.19,1.96
26275.0,-8.196,0.519,-5.676,-8.559,-0.617,-5.209,5.53,9.03,3.01
,-8.311,0.242,-5.602,-8.603,-0.577,-5.013,1.47,10.22,2.38
,-8.524,-0.177,-5.494,-8.619,-0.258,-5.116,-0.21,10.85,2.03
,-8.693,-0.431,-5.296,-8.509,-0.043,-5.219,0.63,10.92,1.96
26350.0,-8.703,0.074,-5.063,-8.66,1.139,-5.626,9.1,9.38,4.2
,-8.708,0.617,-5.209,-8.421,0.861,-5.465,9.8,7.49,2.94
,-8.574,0.83,-5.339,-8.545,0.507,-5.279,8.96,6.65,1.61
,-8.77,1.003,-5.305,-8.332,-0.112,-5.006,7.21,4.27,-0.42
26426.0,-8.516,-0.672,-4.903,-8.344,-0.895,-5.324,-0.35,4.13,-5.53
,-8.495,-1.031,-4.939,-8.167,-0.397,-5.497,2.31,3.29,-5.53
,-8.461,-1.342,-4.996,-8.514,0.129,-5.307,6.72,2.59,-3.78
,-8.464,-1.242,-5.176,-8.646,0.677,-5.209,11.76,0.77,-2.87
26501.0,-8.737,0.957,-5.068,-8.04,-0.742,-5.339,17.36,1.61,-4.27
,-8.928,0.883,-5.231,-8.167,-1.05,-5.403,12.25,0.35,-5.18
,-8.607,0.438,-5.396,-8.562,-1.189,-5.386,7.91,0.07,-5.88
,-8.241,-0.158,-5.3,-8.83,-1.017,-5.353,4.76,1.05,-4.97
26577.0,-8.926,-0.864,-5.449,-8.402,-1.304,-5.181,15.75,-1.12,-0.14
,-8.818,-0.651,-5.463,-8.402,-1.4,-5.391,16.66,-1.05,-0.21
,-8.789,-1.019,-5.348,-8.586,-1.098,-5.597,13.93,-0.49,-0.56
,-8.681,-1.07,-5.207,-8.667,-0.668,-5.714,14.42,-0.21,-0.84
26653.0,-8.344,-0.632,-5.705,-8.978,-0.565,-5.212,19.74,0.49,1.47
,-8.064,-1.161,-5.336,-8.368,-0.333,-5.102,17.78,2.17,2.73
,-8.306,-1.237,-5.217,-8.033,-0.053,-5.463,18.34,1.47,3.43
,-8.677,-0.976,-5.422,-8.351,0.323,-5.717,20.51,-0.84,3.57
26729.0,-8.801,0.275,-5.516,-8.612,-0.919,-4.858,16.45,-6.02,1.4
,-8.842,0.022,-5.339,-8.378,-0.967,-5.075,15.54,-5.67,1.75
,-8.54,-0.479,-5.2,-8.366,-1.376,-4.91,14.0,-4.97,1.89
,-8.471,-0.706,-5.217,-8.397,-1.452,-4.764,14.7,-4.2,2.94
26804.0,-8.555,-1.065,-4.788,-8.646,-0.445,-4.432,15.61,-4.34,5.04
,-8.753,-0.84,-4.815,-8.435,-0.22,-4.726,15.82,-3.78,5.88
,-8.859,-0.672,-4.771,-8.442,-0.313,-4.769,14.42,-3.57,5.95
,-8.818,-0.558,-4.496,-8.574,-0.739,-4.413,12.39,-2.66,5.95
26880.0,-8.667,-0.945,-4.235,-8.378,-0.227,-4.381,7.49,-1.61,5.88
,-8.626,-0.924,-4.348,-8.349,0.122,-4.618,8.68,-0.91,6.51
,-8.555,-1.012,-4.18,-8.689,0.323,-4.709,9.17,0.14,6.86
,-8.622,-0.637,-4.018,-8.914,0.402,-4.793,9.66,-0.63,6.3
26955.0,-9.038,0.28,-4.917,-8.457,-0.514,-4.934,2.1,3.36,2.66
,-8.808,0.053,-5.099,-8.433,-0.754,-5.063,0.77,4.34,1.82
,-8.667,-0.103,-4.917,-8.648,-0.823,-5.327,-0.35,5.88,0.98
,-8.55,-0.151,-4.982,-8.82,-0.83,-5.568,-1.96,7.07,0.49
27031.0,-8.851,-0.715,-5.53,-8.145,-1.098,-5.31,-4.69,9.94,3.5
,-8.559,-0.907,-5.377,-8.445,-1.031,-5.403,-6.65,9.8,3.85
,-8.267,-1.089,-5.408,-8.768,-0.759,-5.329,-8.47,9.87,4.06
,-8.177,-1.144,-5.284,-9.009,-0.447,-4.972,-9.31,10.01,4.97
27107.0,-8.698,-0.089,-5.221,-8.727,0.718,-5.348,-8.82,9.66,8.4
,-8.39,0.29,-5.157,-8.768,0.589,-5.367,-10.5,9.59,7.84
,-8.5,0.562,-5.312,-8.626,0.16,-5.386,-12.39,9.03,7.21
,-8.519,0.701,-5.566,-8.492,-0.29,-5.497,-13.58,8.26,6.09
27183.0,-8.435,-0.467,-5.731,-8.564,-0.701,-5.616,-17.92,9.8,5.25
,-8.402,-0.682,-5.741,-8.466,-0.718,-5.513,-17.29,8.54,5.18
,-8.457,-0.814,-5.59,-8.425,-0.672,-5.796,-15.68,7.42,4.76
,-8.701,-0.692,-5.52,-8.229,-0.613,-5.753,-13.23,4.83,4.34
27259.0,-8.332,-0.514,-5.719,-8.425,0.404,-5.662,-17.57,2.66,8.68
,-8.614,-0.51,-5.631,-8.306,0.574,-5.774,-17.22,2.66,9.1
,-8.744,-0.459,-5.444,-8.531,0.672,-5.686,-16.45,1.89,9.38
,-8.679,0.067,-5.535,-8.519,0.615,-5.568,-13.72,0.0,9.45
27334.0,-8.442,0.357,-5.53,-8.114,-0.177,-5.583,-7.63,-2.31,5.81
,-8.574,0.144,-5.566,-8.145,-0.189,-5.516,-6.44,-3.15,5.39
,-8.643,-0.053,-5.497,-8.311,-0.16,-5.544,-4.62,-5.32,4.9
,-8.571,-0.117,-5.544,-8.425,-0.134,-5.499,-3.01,-7.21,4.34
27410.0,-8.256,0.105,-5.726,-8.488,0.139,-5.252,7.91,-8.19,2.66
,-8.67,0.16,-5.444,-8.488,0.024,-5.233,7.84,-9.03,2.17
,-8.507,0.311,-5.506,-8.421,-0.022,-5.245,7.0,-10.15,1.19
,-8.524,0.309,-5.413,-8.466,-0.122,-5.128,4.55,-10.5,1.26
27486.0,-8.605,-0.053,-5.162,-8.232,0.237,-5.03,3.71,-12.46,2.17
,-8.488,-0.156,-5.09,-8.552,0.335,-4.91,4.13,-14.14,0.49
,-8.638,0.103,-4.958,-8.741,0.414,-4.719,3.99,-16.17,-0.35
,-8.342,0.196,-5.056,-8.806,0.627,-4.8,3.08,-16.59,0.0
27562.0,-8.801,0.596,-4.812,-8.698,0.404,-4.91,2.87,-15.4,0.49
,-8.849,0.407,-4.664,-8.777,0.467,-4.623,0.35,-15.26,0.42
,-8.327,0.479,-4.721,-8.725,0.431,-4.458,0.56,-15.19,0.56
,-8.449,0.682,-5.056,-8.624,0.498,-4.401,3.01,-14.56,-0.14
27637.0,-8.725,0.385,-4.302,-8.768,0.139,-4.267,0.21,-15.82,-3.01
,-8.777,0.256,-4.305,-8.985,0.067,-4.18,-1.68,-15.54,-3.85
,-8.875,0.148,-4.226,-8.801,0.112,-4.233,-2.8,-15.19,-4.76
,-8.679,0.172,-4.176,-8.78,0.208,-4.109,-2.94,-14.84,-5.04
27713.0,-8.847,0.361,-4.092,-8.871,0.141,-3.932,-1.26,-12.53,-4.48
,-8.952,0.414,-4.089,-8.997,-0.081,-3.745,-1.61,-12.53,-5.18
,-8.957,0.371,-4.027,-9.069,-0.189,-3.637,-2.38,-12.11,-5.46
,-8.753,0.225,-4.109,-9.16,-0.026,-3.817,-2.1,-12.04,-5.46
27788.0,-9.098,0.175,-4.07,-8.82,0.048,-4.324,2.17,-8.61,-4.69
,-8.866,0.273,-4.238,-8.832,-0.062,-3.934,0.49,-8.68,-4.76
,-8.559,0.187,-4.274,-9.072,-0.007,-3.786,-0.84,-8.05,-4.27
,-8.6,0.101,-4.331,-9.031,-0.105,-3.752,-0.98,-7.42,-4.27
27864.0,-9.17,-0.249,-3.826,-9.055,-0.249,-3.877,-0.77,-6.72,-6.58
,-9.196,-0.421,-3.762,-8.983,-0.144,-3.821,-1.33,-6.51,-5.6
,-9.103,-0.512,-4.061,-8.997,-0.132,-3.814,-0.98,-6.44,-4.69
,-8.981,-0.426,-3.838,-8.985,-0.191,-3.924,1.61,-5.95,-3.71
27940.0,-8.947,-0.333,-3.955,-9.275,-0.251,-3.628,0.98,-7.35,-3.36
,-8.88,-0.388,-3.91,-9.294,-0.129,-3.518,2.1,-7.56,-2.31
,-9.141,-0.321,-3.979,-9.045,-0.187,-3.553,4.48,-7.0,-2.03
,-9.143,-0.318,-3.967,-8.942,-0.194,-3.288,6.72,-6.58,-2.17
28016.0,-9.115,-0.187,-3.175,-9.083,-0.043,-3.699,9.66,-5.18,-0.91
,-9.253,-0.024,-3.34,-9.095,-0.254,-3.553,10.29,-4.83,-1.54
,-9.313,0.294,-3.343,-9.091,-0.483,-3.29,10.15,-4.55,-2.31
,-9.232,0.179,-3.656,-9.201,-0.505,-3.039,7.91,-4.69,-3.22
28092.0,-9.299,-0.34,-2.915,-9.179,0.024,-2.876,12.6,-1.61,-1.89
,-9.442,0.019,-3.029,-9.229,-0.371,-3.434,13.58,-0.98,-2.31
,-9.275,0.268,-2.912,-9.22,-0.304,-3.515,10.78,-0.42,-3.01
,-9.22,0.342,-2.977,-9.048,-0.337,-3.355,6.44,0.42,-3.92
28167.0,-8.873,-0.316,-3.498,-9.306,0.086,-3.704,2.94,3.22,-5.18
,-9.064,-0.436,-3.661,-9.261,0.325,-4.109,2.94,3.99,-4.97
,-9.229,-0.433,-3.551,-9.174,0.187,-4.618,4.41,4.55,-4.41
,-9.282,-0.17,-3.841,-8.99,0.0,-4.937,5.67,4.9,-4.06
28243.0,-8.713,-0.333,-5.047,-9.1,-0.897,-4.228,-3.99,1.54,-7.07
,-8.65,-0.608,-4.886,-9.222,-0.778,-3.886,-2.45,0.98,-6.02
,-8.832,-0.905,-4.793,-9.301,-0.596,-4.228,-0.21,0.35,-5.32
,-8.882,-1.029,-4.331,-9.086,-0.45,-4.334,2.66,-0.21,-4.06
28319.0,-8.923,-0.574,-4.166,-9.012,-0.122,-4.07,1.26,-2.94,-2.38
,-8.981,-0.689,-4.171,-9.217,-0.17,-3.826,1.75,-2.87,-2.03
,-9.052,-0.704,-4.369,-9.201,-0.151,-3.754,3.29,-3.5,-2.1
,-8.89,-0.428,-4.097,-9.206,-0.029,-3.733,5.67,-4.06,-1.26
28395.0,-9.105,-0.175,-3.565,-9.265,-0.672,-3.187,3.15,-4.41,-2.24
,-9.146,-0.258,-3.546,-9.241,-0.771,-3.068,2.87,-3.99,-2.45
,-9.141,-0.421,-3.47,-9.239,-0.73,-3.171,3.29,-3.85,-2.45
,-9.112,-0.447,-3.259,-9.217,-0.629,-3.223,3.08,-3.29,-2.1
28470.0,-9.15,-0.692,-3.075,-9.392,-0.378,-2.979,1.26,0.49,-1.33
,-9.15,-0.849,-2.915,-9.349,-0.223,-3.218,0.91,1.68,-1.05
,-9.165,-1.015,-2.704,-9.177,-0.261,-3.47,1.61,2.87,-0.49
,-9.304,-0.811,-2.795,-9.206,-0.34,-3.996,3.5,3.99,0.07
28546.0,-9.028,-0.483,-4.233,-9.016,-0.558,-4.422,-2.24,5.67,-0.28
,-8.971,-0.347,-4.408,-9.091,-0.591,-4.221,-1.05,5.04,-0.28
,-8.952,-0.273,-4.501,-9.146,-0.526,-4.022,-1.05,4.48,-0.14
,-8.902,-0.39,-4.501,-9.191,-0.447,-3.989,-0.42,3.92,0.14
28621.0,-9.229,-0.438,-4.317,-9.067,-0.794,-3.929,3.92,0.98,0.0
,-8.971,-0.38,-4.252,-9.179,-0.524,-3.687,3.01,0.21,-0.28
,-8.875,-0.455,-4.314,-9.399,-0.325,-3.606,2.17,-0.21,-0.35
,-8.935,-0.759,-4.137,-9.299,-0.299,-3.644,2.8,-0.49,-0.42
28697.0,-9.253,-0.256,-3.704,-9.081,-0.577,-3.656,5.32,-1.19,0.07
,-9.155,-0.342,-3.874,-9.282,-0.397,-3.486,4.27,-0.98,-0.07
,-8.985,-0.665,-3.795,-9.359,-0.328,-3.283,4.48,-0.91,-0.28
,-8.899,-0.73,-3.64,-9.402,-0.297,-3.429,6.86,-0.42,0.35
28773.0,-9.225,-0.354,-3.398,-9.055,-0.608,-3.764,7.21,0.84,0.28
,-9.134,-0.376,-3.534,-9.131,-0.732,-3.642,5.39,1.4,0.35
,-9.215,-0.471,-3.719,-9.088,-0.689,-3.431,3.36,1.19,-0.14
,-9.117,-0.581,-3.723,-9.198,-0.577,-3.417,2.1,1.4,-0.14
28849.0,-9.308,-0.483,-3.453,-9.103,-0.687,-4.066,4.62,2.87,0.77
,-9.27,-0.443,-3.62,-9.043,-0.692,-3.996,3.85,3.01,0.77
,-9.167,-0.488,-3.81,-9.115,-0.634,-3.946,2.94,3.15,0.84
,-9.088,-0.68,-3.893,-9.136,-0.531,-3.821,2.73,3.22,0.91
28924.0,-9.213,-0.33,-3.898,-9.182,-0.495,-3.972,7.07,2.38,1.61
,-9.141,-0.275,-3.881,-9.146,-0.491,-4.051,5.6,2.24,1.19
,-9.141,-0.428,-3.841,-9.069,-0.498,-3.939,3.92,2.03,0.77
,-9.148,-0.531,-3.774,-9.038,-0.61,-3.836,3.29,1.96,0.63
29000.0,-9.115,-0.596,-3.728,-9.15,-0.61,-3.518,5.32,1.82,1.54
,-9.237,-0.536,-3.644,-9.16,-0.596,-3.587,5.74,1.75,1.47
,-9.22,-0.438,-3.625,-9.186,-0.483,-3.762,5.04,1.89,1.19
,-9.203,-0.455,-3.525,-9.129,-0.414,-3.912,3.5,2.24,1.05
29076.0,-9.16,-0.414,-4.066,-9.122,-0.5,-3.9,1.05,2.8,0.63
,-9.038,-0.591,-4.025,-9.146,-0.414,-3.944,0.28,2.73,0.77
,-8.971,-0.706,-3.953,-9.088,-0.421,-3.824,0.7,2.52,0.84
,-9.064,-0.663,-3.939,-9.139,-0.359,-3.833,1.82,2.59,1.12
29152.0,-9.196,-0.491,-3.812,-9.064,-0.603,-3.865,1.19,2.17,0.84
,-9.198,-0.546,-3.872,-9.052,-0.62,-3.874,1.12,2.24,0.63
,-9.16,-0.507,-3.848,-9.174,-0.625,-3.9,1.26,2.1,0.49
,-9.127,-0.558,-3.929,-9.167,-0.586,-3.891,1.61,2.1,0.63
29228.0,-9.124,-0.512,-3.798,-9.165,-0.443,-3.977,3.99,2.03,0.91
,-9.105,-0.507,-3.714,-9.103,-0.481,-4.082,3.92,1.96,0.91
,-9.165,-0.459,-3.745,-9.045,-0.493,-4.145,3.71,2.03,0.84
,-9.158,-0.412,-3.865,-8.997,-0.577,-4.113,3.29,2.1,0.63
29303.0,-8.99,-0.538,-4.068,-9.141,-0.452,-3.731,3.92,1.05,0.84
,-9.074,-0.481,-3.908,-9.124,-0.5,-3.623,3.99,0.98,0.91
,-9.136,-0.452,-3.798,-9.129,-0.562,-3.702,3.64,0.84,0.77
,-9.194,-0.44,-3.75,-9.162,-0.526,-3.795,2.87,0.84,0.7
29379.0,-9.165,-0.5,-3.893,-9.095,-0.524,-3.874,2.1,1.12,0.28
,-9.11,-0.529,-3.831,-9.091,-0.464,-3.841,1.68,1.19,0.35
,-9.1,-0.57,-3.953,-9.162,-0.436,-3.967,1.54,1.33,0.35
,-9.088,-0.581,-3.886,-9.107,-0.512,-3.994,1.89,1.19,0.35
29454.0,-9.036,-0.517,-3.91,-9.15,-0.493,-3.687,2.38,0.91,0.28
,-9.093,-0.672,-3.85,-9.1,-0.644,-3.685,2.52,0.91,0.35
,-9.103,-0.622,-3.762,-9.182,-0.586,-3.642,3.01,0.84,0.56
,-9.141,-0.455,-3.743,-9.179,-0.615,-3.821,2.87,0.7,0.63
29530.0,-9.174,-0.553,-3.831,-9.105,-0.526,-4.049,2.03,1.26,0.35
,-9.117,-0.51,-3.946,-9.127,-0.436,-3.975,1.54,1.26,0.35
,-9.074,-0.632,-3.967,-9.069,-0.404,-3.994,1.26,1.26,0.42
,-9.028,-0.68,-3.905,-9.091,-0.512,-3.927,2.03,1.05,0.56
29606.0,-9.1,-0.598,-3.845,-9.069,-0.488,-3.862,1.96,0.56,0.77
,-9.095,-0.593,-3.795,-9.074,-0.524,-3.879,2.59,0.49,0.77
,-9.167,-0.541,-3.91,-9.122,-0.548,-3.833,2.87,0.42,0.77
,-9.155,-0.57,-3.917,-9.124,-0.598,-3.8,2.87,0.42,0.7
29682.0,-9.146,-0.558,-3.79,-9.103,-0.481,-3.788,2.66,0.28,0.7
,-9.127,-0.512,-3.685,-9.136,-0.593,-3.781,2.31,0.42,0.7
,-9.174,-0.459,-3.821,-9.098,-0.639,-3.745,1.75,0.42,0.56
,-9.15,-0.529,-3.781,-9.127,-0.57,-3.75,1.89,0.35,0.56
29757.0,-9.136,-0.479,-3.798,-9.122,-0.56,-3.829,2.52,0.98,0.7
,-9.1,-0.488,-3.845,-9.129,-0.512,-3.845,2.38,0.77,0.49
,-9.062,-0.562,-3.8,-9.239,-0.476,-3.922,2.45,0.98,0.63
,-9.134,-0.57,-3.845,-9.146,-0.56,-3.845,2.66,0.98,0.63
29833.0,-9.014,-0.648,-3.855,-9.182,-0.488,-3.719,2.45,0.84,0.77
,-9.064,-0.708,-3.778,-9.17,-0.436,-3.63,3.29,1.05,0.98
,-9.127,-0.625,-3.81,-9.182,-0.459,-3.726,4.41,0.98,1.05
,-9.167,-0.471,-3.819,-9.194,-0.457,-3.869,4.48,1.19,1.12
29909.0,-9.129,-0.483,-3.9,-9.052,-0.474,-3.941,1.89,1.19,0.49
,-9.088,-0.553,-3.944,-9.122,-0.531,-3.821,1.89,1.19,0.42
,-9.115,-0.584,-3.944,-9.15,-0.514,-3.79,2.45,1.05,0.49
,-9.045,-0.5,-3.948,-9.107,-0.579,-3.738,3.01,0.91,0.56
29985.0,-9.129,-0.553,-3.668,-9.201,-0.55,-3.676,1.96,0.98,0.56
,-9.17,-0.56,-3.69,-9.191,-0.593,-3.735,1.96,1.12,0.42
,-9.203,-0.536,-3.668,-9.122,-0.589,-3.769,2.17,1.4,0.63
,-9.177,-0.534,-3.613,-9.155,-0.543,-3.831,2.1,1.54,0.7
30060.0,-9.112,-0.543,-3.8,-9.143,-0.507,-3.845,2.1,1.82,0.42
,-9.165,-0.505,-3.862,-9.122,-0.51,-3.783,2.1,1.89,0.49
,-9.074,-0.51,-3.869,-9.105,-0.546,-3.783,2.03,1.96,0.56
,-9.076,-0.503,-3.831,-9.153,-0.548,-3.74,2.24,2.03,0.56
30136.0,-9.177,-0.567,-3.795,-9.143,-0.541,-3.886,2.1,2.17,0.7
,-9.119,-0.565,-3.817,-9.069,-0.474,-3.872,1.89,2.24,0.63
,-9.153,-0.572,-3.764,-9.124,-0.467,-3.924,1.68,2.38,0.56
,-9.112,-0.543,-3.848,-9.093,-0.538,-3.975,1.54,2.24,0.56
30212.0,-9.107,-0.546,-3.953,-9.076,-0.644,-3.9,1.61,1.89,0.63
,-9.086,-0.548,-4.018,-9.112,-0.562,-3.762,1.61,1.61,0.63
,-9.105,-0.617,-4.022,-9.129,-0.493,-3.747,1.89,1.47,0.56
,-9.088,-0.668,-3.927,-9.155,-0.488,-3.769,2.59,1.33,0.63
30287.0,-9.17,-0.531,-3.714,-9.11,-0.543,-3.867,2.38,1.61,0.77
,-9.153,-0.493,-3.738,-9.117,-0.562,-3.857,2.1,1.61,0.63
,-9.122,-0.51,-3.762,-9.105,-0.567,-3.85,2.03,1.96,0.7
,-9.112,-0.574,-3.838,-9.076,-0.531,-3.829,2.1,1.96,0.56
30363.0,-9.17,-0.481,-3.812,-9.064,-0.546,-3.963,2.03,2.1,0.56
,-9.172,-0.457,-3.841,-9.088,-0.543,-3.999,1.47,2.1,0.49
,-9.134,-0.541,-3.896,-9.072,-0.555,-3.963,1.19,2.17,0.49
,-9.124,-0.548,-3.941,-9.107,-0.543,-3.936,1.47,2.24,0.56
30439.0,-9.208,-0.522,-3.955,-9.131,-0.572,-3.877,2.38,1.61,0.7
,-9.122,-0.548,-3.965,-9.095,-0.51,-3.874,1.82,1.61,0.63
,-9.079,-0.622,-3.896,-9.11,-0.541,-3.8,1.68,1.61,0.56
,-9.072,-0.601,-3.886,-9.107,-0.577,-3.795,2.03,1.54,0.63
30515.0,-9.117,-0.524,-3.829,-9.081,-0.543,-3.963,2.38,1.75,0.98
,-9.139,-0.56,-3.855,-9.112,-0.57,-4.058,2.17,1.68,0.77
,-9.124,-0.543,-3.896,-9.043,-0.538,-4.001,2.31,1.68,0.84
,-9.107,-0.541,-3.951,-9.033,-0.558,-3.994,2.24,1.61,0.77
30590.0,-9.1,-0.524,-3.97,-9.122,-0.534,-3.836,2.59,0.98,0.84
,-9.136,-0.543,-3.936,-9.131,-0.467,-3.867,2.8,0.91,0.84
,-9.115,-0.507,-3.888,-9.105,-0.512,-3.86,2.87,0.84,0.98
,-9.1,-0.522,-3.805,-9.095,-0.591,-3.845,2.66,0.77,0.91
30666.0,-9.091,-0.634,-3.766,-9.148,-0.459,-3.752,2.1,0.98,0.77
,-9.129,-0.572,-3.783,-9.148,-0.519,-3.795,2.66,1.19,0.77
,-9.165,-0.488,-3.79,-9.131,-0.543,-3.831,2.8,1.4,0.84
,-9.174,-0.431,-3.74,-9.16,-0.591,-3.936,2.31,1.47,0.77
30742.0,-9.079,-0.577,-3.917,-9.103,-0.45,-3.922,2.59,1.61,0.84
,-9.095,-0.543,-3.951,-9.086,-0.476,-3.953,2.8,1.54,0.84
,-9.115,-0.514,-3.967,-9.074,-0.531,-3.963,2.94,1.47,0.84
,-9.093,-0.491,-4.03,-9.062,-0.555,-3.975,2.8,1.26,0.7
30818.0,-9.062,-0.531,-3.977,-9.11,-0.541,-3.829,2.66,0.7,0.77
,-9.091,-0.531,-3.898,-9.129,-0.56,-3.829,2.87,0.63,0.77
,-9.122,-0.584,-3.922,-9.122,-0.534,-3.795,2.73,0.42,0.7
,-9.081,-0.529,-3.853,-9.131,-0.56,-3.776,2.73,0.42,0.84
30893.0,-9.127,-0.526,-3.812,-9.117,-0.514,-3.857,2.52,1.19,0.91
,-9.148,-0.543,-3.778,-9.122,-0.543,-3.867,2.66,1.19,0.84
,-9.11,-0.536,-3.81,-9.095,-0.56,-3.879,2.52,1.12,0.7
,-9.112,-0.581,-3.807,-9.122,-0.572,-3.872,2.59,1.05,0.91
30969.0,-9.141,-0.565,-3.879,-9.083,-0.512,-3.963,3.15,1.19,0.7
,-9.15,-0.498,-3.905,-9.055,-0.55,-3.908,3.15,0.98,0.63
,-9.127,-0.481,-3.955,-9.095,-0.577,-3.888,2.87,0.98,0.7
,-9.129,-0.534,-3.917,-9.141,-0.579,-3.826,2.8,0.84,0.7
31044.0,-9.167,-0.517,-3.793,-9.072,-0.543,-3.853,2.45,0.84,0.7
,-9.127,-0.529,-3.69,-9.088,-0.546,-3.845,2.52,0.77,0.7
,-9.143,-0.519,-3.769,-9.072,-0.548,-3.891,2.24,0.77,0.7
,-9.141,-0.541,-3.821,-9.093,-0.538,-3.9,2.03,0.77,0.7
31120.0,-9.115,-0.531,-3.91,-9.095,-0.55,-3.872,3.01,0.77,0.63
,-9.088,-0.524,-3.838,-9.103,-0.598,-3.869,2.94,0.91,0.7
,-9.122,-0.534,-3.869,-9.069,-0.613,-3.824,2.8,0.84,0.63
,-9.148,-0.526,-3.841,-9.115,-0.601,-3.807,2.73,0.84,0.56
31196.0,-9.165,-0.553,-3.731,-9.098,-0.613,-3.719,2.94,1.19,0.91
,-9.184,-0.486,-3.709,-9.105,-0.615,-3.754,2.45,1.33,0.91
,-9.189,-0.505,-3.687,-9.153,-0.634,-3.862,1.61,1.47,0.7
,-9.15,-0.512,-3.759,-9.148,-0.591,-3.941,1.33,1.4,0.63
31272.0,-9.105,-0.498,-3.917,-9.115,-0.491,-3.955,2.66,1.68,1.05
,-9.055,-0.572,-3.958,-9.127,-0.531,-3.915,2.38,1.89,0.91
,-9.11,-0.596,-3.896,-9.105,-0.522,-3.912,2.87,1.61,0.98
,-9.124,-0.536,-3.953,-9.11,-0.491,-3.912,3.5,1.54,1.05
31348.0,-9.112,-0.479,-3.896,-9.177,-0.467,-3.769,3.01,1.12,0.91
,-9.095,-0.529,-3.857,-9.141,-0.507,-3.752,2.8,1.19,0.84
,-9.115,-0.581,-3.776,-9.143,-0.591,-3.685,2.66,1.12,0.84
,-9.167,-0.526,-3.817,-9.134,-0.675,-3.64,2.87,1.12,0.91
31423.0,-9.148,-0.531,-3.692,-9.136,-0.471,-3.917,2.17,1.61,0.84
,-9.095,-0.507,-3.673,-9.105,-0.529,-3.951,2.45,1.96,0.84
,-9.129,-0.558,-3.714,-9.1,-0.529,-3.917,2.17,2.24,0.91
,-9.146,-0.5,-3.759,-9.05,-0.531,-3.955,2.17,2.31,0.77
31499.0,-9.117,-0.45,-4.027,-9.055,-0.464,-4.08,2.52,1.89,0.56
,-9.115,-0.464,-4.073,-9.11,-0.503,-4.094,2.52,1.75,0.56
,-9.117,-0.424,-4.104,-9.127,-0.469,-4.032,2.52,1.47,0.56
,-9.064,-0.464,-4.133,-9.105,-0.462,-4.006,2.38,1.19,0.42
31575.0,-9.079,-0.495,-3.989,-9.103,-0.605,-3.922,2.94,-0.14,0.21
,-9.129,-0.541,-3.999,-9.067,-0.519,-3.857,3.08,-0.42,0.21
,-9.057,-0.603,-3.989,-9.139,-0.522,-3.783,3.22,-0.42,0.28
,-9.091,-0.491,-3.944,-9.148,-0.488,-3.695,3.57,-0.49,0.21
31651.0,-9.213,-0.514,-3.613,-9.237,-0.522,-3.623,3.08,-0.42,0.07
,-9.115,-0.548,-3.597,-9.222,-0.467,-3.793,2.8,-0.07,0.07
,-9.136,-0.581,-3.53,-9.093,-0.586,-3.649,3.01,0.42,0.28
,-9.182,-0.567,-3.41,-9.141,-0.718,-3.771,2.87,0.84,0.42
31726.0,-9.103,-0.744,-3.865,-9.098,-0.553,-3.939,1.4,1.12,0.14
,-9.057,-0.684,-3.843,-9.141,-0.579,-3.776,2.94,1.26,0.56
,-9.052,-0.529,-3.793,-9.134,-0.608,-3.845,3.57,1.12,0.42
,-9.064,-0.514,-3.905,-9.129,-0.613,-3.97,3.15,1.26,0.21
31802.0,-9.146,-0.62,-3.91,-9.043,-0.589,-3.778,3.22,0.63,0.49
,-9.095,-0.653,-3.898,-9.064,-0.62,-3.776,3.57,0.7,0.7
,-9.088,-0.617,-3.903,-9.136,-0.672,-3.692,4.34,0.56,0.84
,-9.091,-0.526,-3.881,-9.167,-0.57,-3.565,4.48,0.49,0.84
31877.0,-9.232,-0.5,-3.467,-9.15,-0.727,-3.36,4.69,0.91,1.12
,-9.215,-0.443,-3.475,-9.189,-0.682,-3.532,3.36,1.12,1.05
,-9.146,-0.601,-3.357,-9.11,-0.641,-3.594,2.03,1.47,1.12
,-9.182,-0.708,-3.36,-9.036,-0.615,-3.616,1.75,2.1,1.19
31953.0,-9.11,-0.644,-3.719,-9.241,-0.756,-3.561,2.87,4.2,1.96
,-9.052,-0.802,-3.764,-9.373,-0.67,-3.443,2.66,4.55,2.24
,-9.153,-0.785,-3.525,-9.27,-0.627,-3.281,3.15,4.41,2.73
,-9.253,-0.864,-3.57,-9.184,-0.443,-3.228,2.94,4.27,2.31
32029.0,-9.098,-0.182,-3.348,-8.878,-0.641,-3.802,-3.71,5.74,2.1
,-9.203,-0.38,-3.355,-8.825,-0.704,-3.668,-6.93,6.3,1.61
,-9.122,-0.534,-3.424,-9.031,-0.66,-3.982,-8.61,7.07,1.82
,-9.122,-0.625,-3.697,-8.997,-0.682,-4.013,-8.82,7.14,1.82
32105.0,-9.002,-0.531,-4.08,-9.253,-0.464,-3.47,-4.06,8.4,3.64
,-8.942,-0.44,-4.097,-9.375,-0.112,-4.082,-3.85,8.19,3.71
,-8.909,-0.443,-3.802,-9.069,0.007,-4.661,-3.85,9.31,4.69
,-9.119,-0.567,-3.525,-8.835,-0.203,-4.724,-3.36,10.36,5.32
32181.0,-8.734,-0.5,-4.671,-9.261,-0.354,-4.14,-12.11,6.3,3.22
,-8.693,-0.768,-4.369,-9.158,-0.203,-4.14,-10.15,6.79,4.27
,-8.851,-0.909,-3.989,-9.031,-0.256,-4.104,-6.09,7.7,5.04
,-8.993,-0.708,-3.731,-8.995,-0.414,-3.862,-0.77,8.26,5.81
32256.0,-9.201,-0.306,-3.893,-8.851,0.103,-5.02,-0.56,7.91,6.16
,-8.969,-0.007,-4.369,-8.839,-0.235,-4.587,0.21,6.51,4.76
,-8.856,0.306,-4.815,-8.885,-0.333,-4.111,-1.26,5.39,3.99
,-8.887,0.27,-4.92,-8.933,-0.39,-3.936,-4.34,5.04,3.64
32332.0,-9.079,-0.127,-3.953,-9.112,-0.498,-4.152,-2.38,4.76,0.56
,-9.074,0.144,-4.07,-8.825,-0.608,-4.226,-3.01,3.5,-0.35
,-9.052,0.156,-4.357,-8.516,-0.44,-4.453,-5.95,2.87,-0.84
,-9.177,-0.144,-4.247,-8.775,-0.17,-4.743,-8.89,3.01,-0.56
32408.0,-8.847,-0.117,-4.917,-8.854,-0.768,-3.551,-3.15,-0.63,0.42
,-8.904,-0.34,-4.949,-9.048,-0.833,-3.515,-4.97,-0.63,0.49
,-8.921,-0.574,-4.53,-9.225,-1.012,-3.52,-4.97,0.84,0.98
,-8.875,-0.67,-4.116,-9.296,-1.235,-3.714,-2.66,2.66,1.75
32484.0,-9.083,-1.314,-3.604,-8.708,-0.182,-4.204,3.29,3.71,7.42
,-8.945,-1.141,-3.845,-8.715,0.144,-3.867,7.28,4.69,9.1
,-8.83,-0.981,-3.857,-8.796,0.773,-3.867,12.04,5.53,10.29
,-8.854,-0.55,-4.049,-8.796,1.247,-3.774,16.31,5.6,11.2
32559.0,-9.088,1.479,-3.989,-8.887,-0.567,-3.877,13.37,7.77,7.21
,-9.11,1.177,-4.257,-8.985,-0.541,-3.85,7.07,6.23,5.04
,-9.153,0.438,-4.341,-9.0,-0.462,-3.857,1.12,6.58,4.41
,-9.043,-0.242,-4.166,-8.861,-0.139,-3.912,-0.98,7.98,4.13
32635.0,-8.648,0.117,-4.07,-9.005,0.292,-4.46,11.55,9.66,3.22
,-8.784,0.335,-4.066,-8.933,0.089,-4.386,10.08,10.71,3.08
,-8.959,0.558,-4.283,-8.612,0.019,-4.451,7.42,10.5,2.94
,-8.851,0.479,-4.482,-8.251,-0.297,-4.458,4.06,9.94,2.73
32710.0,-8.287,-0.519,-4.164,-9.021,0.83,-4.704,1.89,12.6,0.91
,-8.973,-0.514,-4.118,-9.019,1.242,-4.664,5.95,13.09,1.19
,-9.162,-0.182,-4.204,-8.729,1.438,-4.846,9.38,12.25,1.19
,-9.261,0.313,-4.453,-8.684,1.189,-4.982,11.62,11.2,0.63
32786.0,-8.66,0.835,-5.016,-8.985,-1.005,-4.413,-2.03,10.57,-3.92
,-8.758,0.467,-4.841,-8.739,-1.084,-4.728,-4.06,10.22,-4.83
,-8.614,0.101,-4.8,-8.512,-1.352,-4.654,-5.04,10.29,-5.88
,-8.856,-0.572,-4.575,-8.521,-1.412,-4.573,-5.95,10.92,-6.16
32862.0,-8.37,-1.665,-4.63,-8.55,0.203,-4.681,3.57,11.13,0.21
,-8.667,-1.685,-4.499,-8.681,0.378,-4.491,4.83,10.15,2.24
,-8.55,-1.055,-4.805,-8.878,0.27,-4.381,8.05,9.03,3.08
,-8.603,-0.378,-4.731,-9.083,-0.031,-4.252,10.85,9.38,3.01
32938.0,-8.885,0.151,-4.664,-8.593,0.414,-4.987,2.59,8.61,0.7
,-8.641,0.242,-4.712,-8.71,0.481,-5.039,3.43,10.01,0.35
,-8.691,0.153,-4.69,-8.763,0.672,-4.958,5.32,10.71,-0.14
,-8.748,0.304,-4.661,-8.619,0.538,-5.118,8.12,9.03,-1.05
33013.0,-8.61,0.146,-4.934,-8.605,-0.512,-4.965,9.94,9.52,-4.76
,-8.648,-0.151,-4.69,-8.531,-0.778,-5.071,10.29,10.01,-5.04
,-8.655,-0.27,-4.726,-8.54,-1.11,-5.339,12.04,9.45,-5.74
,-8.631,-0.531,-4.645,-8.447,-1.395,-5.427,11.97,9.59,-5.32
33089.0,-8.016,-1.706,-5.406,-8.789,-2.142,-5.138,12.88,9.24,0.84
,-8.241,-2.151,-5.25,-8.772,-1.924,-4.913,13.02,10.01,2.66
,-8.61,-2.223,-5.073,-8.672,-1.321,-4.865,14.07,9.38,4.69
,-8.643,-2.151,-5.14,-8.605,-0.615,-5.109,15.54,7.49,6.58
33165.0,-8.672,0.141,-5.193,-8.605,1.074,-5.238,22.12,6.02,7.42
,-8.679,0.885,-5.587,-8.672,0.995,-5.683,24.5,4.48,5.53
,-8.299,1.309,-5.666,-8.902,0.414,-5.733,24.57,3.99,4.34
,-8.442,1.24,-5.425,-8.696,-0.354,-5.358,22.26,3.78,3.57
33241.0,-8.366,-0.57,-5.348,-8.378,-0.955,-5.25,20.09,2.52,0.7
,-8.583,-0.766,-5.52,-8.655,-0.948,-5.284,21.14,1.96,0.7
,-8.354,-0.921,-5.37,-8.406,-0.983,-5.286,20.09,2.66,1.19
,-8.454,-0.988,-5.078,-8.021,-1.084,-5.205,19.53,3.71,1.82
33317.0,-8.172,-1.194,-5.276,-8.382,-0.67,-4.855,15.75,3.78,5.6
,-8.631,-0.933,-5.195,-8.478,-0.471,-4.953,16.31,3.99,5.88
,-8.933,-0.893,-5.128,-8.904,-0.017,-5.231,14.84,4.55,5.88
,-8.643,-0.754,-4.925,-9.052,0.452,-5.583,14.28,5.53,6.3
33392.0,-8.397,0.258,-5.796,-8.789,-0.718,-5.224,10.85,3.43,4.69
,-8.1,0.345,-5.827,-8.938,-0.725,-5.269,10.64,4.2,3.57
,-8.203,0.163,-5.755,-8.713,-0.613,-5.123,8.47,4.83,2.66
,-8.315,-0.44,-5.446,-8.251,-0.732,-5.037,6.51,5.88,2.59
33468.0,-7.834,-0.692,-5.252,-8.689,-0.531,-5.647,2.52,4.55,0.28
,-7.918,-0.246,-5.547,-8.686,-0.828,-5.585,1.89,5.81,-0.63
,-8.26,0.002,-5.597,-8.612,-1.127,-5.406,0.14,6.23,-1.33
,-8.6,-0.079,-5.671,-8.279,-1.199,-5.379,-2.1,5.88,-1.82
33543.0,-8.071,-1.256,-5.413,-8.622,-0.541,-5.791,-7.35,7.42,1.19
,-8.138,-1.271,-5.341,-8.906,-0.648,-5.528,-7.56,8.68,1.89
,-8.37,-1.031,-5.355,-8.612,-0.672,-5.645,-6.65,8.89,2.52
,-8.502,-0.778,-5.635,-8.354,-1.01,-5.303,-6.23,8.4,2.87
33619.0,-8.277,-1.201,-4.944,-8.555,0.692,-6.021,-12.95,7.7,7.56
,-8.155,-1.01,-5.116,-8.686,0.593,-6.047,-10.78,6.58,8.05
,-8.138,-0.438,-5.425,-8.619,0.421,-5.951,-8.12,5.18,7.7
,-8.275,0.433,-5.927,-8.626,0.251,-5.966,-5.88,4.62,7.42
33695.0,-8.643,-0.223,-5.415,-8.095,-0.933,-5.97,-17.64,4.41,3.22
,-8.674,-0.323,-5.453,-8.258,-0.933,-6.044,-16.31,2.66,2.8
,-8.287,-0.73,-5.377,-8.411,-0.993,-5.951,-14.07,2.45,3.22
,-8.138,-0.747,-5.841,-8.598,-0.625,-5.843,-12.6,2.59,4.55
33771.0,-8.478,-0.653,-5.683,-8.205,-0.967,-5.609,-8.89,-0.14,9.45
,-8.382,-0.72,-5.616,-8.361,-1.036,-5.597,-11.55,-1.4,10.22
,-8.265,-0.857,-5.796,-8.433,-0.94,-5.587,-13.23,-3.01,11.41
,-8.222,-1.017,-5.664,-8.346,-0.648,-5.666,-12.46,-3.64,12.39
33846.0,-8.263,-0.345,-5.681,-8.442,0.536,-5.434,2.66,-4.27,15.61
,-8.306,-0.256,-5.43,-8.387,0.706,-5.499,4.34,-3.22,16.17
,-8.43,-0.007,-5.319,-8.145,0.861,-5.274,5.25,-2.66,16.24
,-8.442,0.345,-5.425,-8.217,0.725,-5.202,6.65,-2.8,15.54
33922.0,-8.217,0.83,-5.178,-8.413,0.852,-5.075,6.72,-4.55,9.03
,-8.354,0.945,-5.207,-8.653,0.641,-4.819,6.86,-5.81,7.56
,-8.346,1.027,-5.197,-8.512,0.548,-4.783,6.79,-6.44,6.58
,-8.358,0.969,-5.176,-8.526,0.462,-4.815,6.58,-6.86,5.04
33997.0,-8.524,0.371,-4.879,-8.43,0.218,-5.054,3.08,-7.35,2.45
,-8.521,0.388,-5.042,-8.545,0.16,-4.992,2.87,-8.61,1.96
,-8.327,0.464,-5.202,-8.571,0.215,-5.068,2.38,-9.8,1.33
,-8.287,0.39,-5.272,-8.504,0.294,-5.106,1.82,-9.52,0.98
34073.0,-8.392,0.215,-5.075,-8.722,0.529,-5.319,2.38,-9.66,0.07
,-8.38,0.151,-5.025,-8.837,0.191,-5.14,2.45,-9.59,-0.35
,-8.461,0.132,-4.994,-8.784,0.227,-5.09,2.31,-9.17,-0.77
,-8.469,0.268,-4.977,-8.524,0.091,-5.14,3.15,-9.38,-0.98
34149.0,-8.385,-0.103,-5.068,-8.76,0.27,-5.023,-0.14,-10.08,0.42
,-8.402,-0.263,-5.006,-8.593,0.464,-5.159,1.19,-9.31,0.49
,-8.545,-0.292,-4.98,-8.552,0.433,-5.329,3.71,-9.38,0.28
,-8.739,-0.081,-4.977,-8.49,0.361,-5.176,5.6,-9.87,0.07
34225.0,-8.461,0.325,-5.056,-8.94,0.936,-5.023,1.4,-11.69,-0.21
,-8.689,0.352,-4.965,-8.959,0.878,-5.106,2.52,-11.27,-0.98
,-8.686,0.407,-4.893,-8.696,0.73,-5.059,3.29,-11.76,-2.59
,-8.842,0.696,-4.937,-8.641,0.562,-5.066,3.5,-12.32,-4.06
34301.0,-8.569,0.373,-4.731,-8.988,-0.002,-4.415,-3.5,-14.7,-7.63
,-8.538,0.158,-4.31,-8.844,0.11,-4.575,-3.92,-14.0,-8.61
,-8.681,-0.053,-4.011,-8.701,0.189,-4.671,-3.5,-13.02,-9.38
,-8.94,-0.117,-4.156,-8.679,-0.062,-4.264,-2.59,-13.51,-9.66
34376.0,-8.748,-0.256,-4.451,-9.124,-0.378,-4.133,-6.23,-14.84,-9.31
,-8.801,-0.553,-4.271,-9.34,-0.065,-4.319,-5.6,-14.42,-10.64
,-8.681,-0.684,-3.979,-9.141,0.134,-4.386,-3.64,-13.93,-9.17
,-8.851,-0.512,-4.013,-9.019,0.208,-4.192,-1.26,-14.21,-7.56
34452.0,-8.636,-0.213,-3.833,-8.892,0.275,-3.886,-3.36,-14.21,-7.0
,-8.638,-0.467,-3.424,-9.067,0.141,-3.759,-1.4,-13.58,-7.28
,-8.734,-0.246,-3.652,-9.112,-0.335,-3.415,2.24,-13.93,-7.49
,-8.923,0.098,-3.996,-9.244,-0.737,-3.022,3.71,-14.84,-8.05
34528.0,-9.263,-0.512,-2.967,-8.985,0.091,-3.848,6.58,-10.57,-4.9
,-9.344,0.275,-3.912,-9.112,-0.491,-3.24,9.38,-11.2,-6.58
,-8.954,0.766,-4.003,-9.083,-0.62,-2.828,6.23,-11.69,-7.7
,-8.77,0.66,-3.446,-9.375,-0.227,-3.486,2.73,-10.85,-7.35
34604.0,-9.11,-0.074,-3.3,-9.081,-0.799,-3.23,3.64,-8.05,-9.17
,-9.055,-0.208,-3.214,-9.251,-0.581,-3.609,2.59,-7.21,-8.19
,-9.253,-0.526,-3.683,-9.17,-0.531,-3.415,0.14,-6.44,-8.12
,-9.15,-0.744,-3.479,-9.153,-0.251,-3.719,0.0,-6.09,-7.56
34679.0,-9.22,-0.151,-3.716,-9.124,-0.727,-3.486,3.71,-3.43,-4.34
,-9.172,-0.4,-3.733,-9.198,-0.476,-3.477,2.31,-3.08,-4.06
,-9.103,-0.744,-3.573,-9.191,-0.105,-3.486,2.87,-2.59,-3.5
,-9.072,-0.859,-3.609,-9.17,0.191,-3.838,4.9,-2.1,-2.73
34755.0,-9.122,0.156,-3.795,-9.363,-0.541,-3.764,3.92,-1.61,-3.5
,-9.076,-0.254,-3.68,-9.289,-0.213,-3.908,-0.28,-1.33,-3.71
,-9.1,-0.656,-3.632,-8.966,-0.165,-3.898,-1.68,-1.19,-3.57
,-9.191,-0.826,-3.508,-8.847,-0.357,-3.91,0.07,-1.19,-3.08
34830.0,-9.026,-0.481,-3.843,-9.148,-0.718,-3.52,-1.05,-1.61,-3.64
,-9.11,-0.433,-3.987,-9.304,-0.818,-3.565,-0.07,-2.03,-3.78
,-9.103,-0.268,-4.08,-9.304,-0.663,-3.623,0.28,-2.24,-3.71
,-9.098,-0.34,-3.843,-9.289,-0.268,-3.979,-1.05,-2.59,-3.5
34906.0,-9.21,-0.141,-4.226,-9.28,-0.579,-4.317,0.84,-3.15,-2.94
,-8.911,-0.433,-4.058,-9.076,-0.278,-4.207,-1.26,-3.5,-2.59
,-8.928,-0.842,-3.927,-9.115,-0.337,-3.946,-0.63,-3.43,-1.96
,-9.165,-0.878,-4.068,-9.139,-0.632,-3.685,3.08,-3.78,-1.75
34982.0,-9.27,-0.641,-3.707,-9.246,-1.015,-2.692,7.28,-5.95,-0.63
,-9.203,-0.462,-3.369,-9.423,-1.017,-2.529,8.75,-5.88,-0.28
,-9.153,-0.436,-3.329,-9.447,-0.727,-2.505,7.28,-5.88,-0.49
,-9.261,-0.828,-3.046,-9.395,-0.416,-2.405,5.32,-5.32,-0.28
35058.0,-9.416,-0.246,-2.472,-9.495,-0.474,-3.113,5.11,0.42,0.49
,-9.435,-0.371,-2.599,-9.299,-0.443,-3.558,1.89,1.68,0.0
,-9.378,-0.476,-2.522,-9.222,-0.486,-3.838,0.56,2.8,0.07
,-9.454,-0.395,-2.893,-9.045,-0.5,-4.03,0.28,3.64,-0.14
35133.0,-9.083,-0.45,-4.24,-9.246,-0.658,-3.592,1.4,3.57,-0.14
,-9.007,-0.503,-4.171,-9.323,-0.426,-3.568,1.68,3.36,-0.21
,-8.995,-0.565,-3.929,-9.342,-0.493,-3.678,2.52,3.08,-0.07
,-9.208,-0.625,-3.774,-9.229,-0.735,-3.647,2.45,2.87,0.21
35209.0,-9.134,-0.943,-3.506,-9.287,-0.491,-3.171,-0.21,2.1,0.84
,-9.131,-1.031,-3.364,-9.421,-0.414,-3.192,1.75,2.73,1.4
,-9.198,-0.955,-3.312,-9.39,-0.447,-3.216,3.99,3.22,1.96
,-9.208,-0.689,-3.19,-9.301,-0.45,-3.367,5.32,3.57,2.38
35285.0,-9.232,-0.514,-3.477,-9.115,-0.61,-3.841,0.07,5.39,2.03
,-9.22,-0.424,-3.762,-9.241,-0.462,-3.862,0.7,5.32,1.96
,-9.105,-0.565,-3.845,-9.234,-0.268,-3.824,0.91,5.53,2.1
,-9.057,-0.696,-3.829,-9.249,-0.172,-3.941,1.75,5.25,2.45
35361.0,-9.119,-0.38,-3.812,-9.328,-0.359,-3.685,1.05,4.06,1.61
,-9.002,-0.658,-3.738,-9.33,-0.294,-3.609,0.77,4.13,1.68
,-9.112,-0.727,-3.721,-9.258,-0.249,-3.565,1.68,4.41,1.82
,-9.227,-0.641,-3.702,-9.215,-0.299,-3.616,3.57,4.27,2.17
35437.0,-9.172,-0.292,-3.747,-9.127,-0.383,-3.881,1.89,4.48,1.82
,-9.095,-0.345,-3.836,-9.194,-0.34,-3.814,1.89,4.34,1.54
,-9.062,-0.416,-3.884,-9.217,-0.337,-3.743,2.24,4.2,1.54
,-9.067,-0.469,-3.888,-9.237,-0.261,-3.723,3.08,4.27,1.61
35512.0,-9.261,-0.237,-3.814,-9.139,-0.469,-3.833,2.73,3.78,0.77
,-9.158,-0.28,-3.934,-9.222,-0.421,-3.817,1.96,3.78,0.49
,-9.036,-0.359,-3.946,-9.194,-0.311,-3.786,1.54,3.43,0.21
,-9.021,-0.424,-3.924,-9.148,-0.273,-3.74,1.82,3.29,0.28
35588.0,-9.088,-0.337,-3.752,-9.237,-0.364,-3.74,2.1,3.15,-0.21
,-9.067,-0.498,-3.743,-9.225,-0.273,-3.769,1.75,3.22,-0.28
,-9.05,-0.498,-3.709,-9.179,-0.383,-3.841,1.96,3.5,-0.21
,-9.189,-0.45,-3.733,-9.122,-0.493,-3.934,2.24,3.43,-0.35
35663.0,-9.074,-0.553,-3.965,-9.136,-0.345,-3.955,-0.49,3.15,-0.84
,-9.057,-0.507,-3.955,-9.117,-0.433,-3.872,0.49,3.08,-0.77
,-9.124,-0.407,-4.001,-9.139,-0.407,-3.915,1.19,3.01,-0.77
,-9.172,-0.34,-3.944,-9.186,-0.424,-3.939,1.19,2.94,-0.84
35739.0,-9.117,-0.402,-4.011,-9.172,-0.378,-3.896,0.84,2.1,-1.12
,-9.083,-0.416,-3.972,-9.136,-0.357,-4.094,0.77,1.82,-1.19
,-9.057,-0.55,-3.91,-9.103,-0.479,-4.135,0.77,1.68,-1.05
,-9.134,-0.491,-3.862,-8.985,-0.598,-4.118,1.33,1.61,-0.98
35815.0,-9.055,-0.754,-4.039,-9.136,-0.541,-3.752,0.35,0.42,-1.12
,-9.062,-0.68,-3.982,-9.112,-0.692,-3.673,1.96,0.35,-0.7
,-9.117,-0.584,-3.939,-9.1,-0.723,-3.618,3.22,0.21,-0.56
,-9.186,-0.479,-3.877,-9.213,-0.503,-3.728,3.43,0.14,-0.63
35891.0,-9.146,-0.574,-3.652,-9.184,-0.529,-3.735,3.43,0.7,-0.63
,-9.227,-0.632,-3.62,-9.119,-0.634,-3.769,3.08,0.98,-0.49
,-9.229,-0.658,-3.539,-9.079,-0.651,-3.821,3.29,1.05,-0.35
,-9.196,-0.543,-3.695,-9.134,-0.639,-3.893,3.71,1.12,-0.28
35966.0,-9.105,-0.558,-3.891,-9.158,-0.562,-3.903,4.34,1.75,0.07
,-9.107,-0.541,-3.917,-9.143,-0.51,-3.946,4.34,1.54,0.07
,-9.093,-0.546,-3.924,-9.107,-0.519,-3.888,3.85,1.4,0.0
,-9.091,-0.534,-3.896,-9.086,-0.479,-3.977,3.78,1.47,0.21
36042.0,-9.131,-0.531,-4.003,-9.134,-0.641,-3.826,3.08,0.49,0.07
,-9.095,-0.553,-3.936,-9.1,-0.627,-3.709,3.29,0.35,0.21
,-9.045,-0.553,-3.908,-9.16,-0.591,-3.609,3.36,0.42,0.21
,-9.067,-0.605,-3.884,-9.208,-0.61,-3.613,3.57,0.35,0.28
36118.0,-9.225,-0.558,-3.604,-9.1,-0.663,-3.819,3.57,0.7,0.07
,-9.196,-0.529,-3.687,-9.098,-0.584,-3.759,2.94,0.91,0.07
,-9.191,-0.613,-3.697,-9.165,-0.603,-3.719,2.66,0.91,0.07
,-9.143,-0.653,-3.79,-9.22,-0.613,-3.795,2.52,0.91,0.0
36194.0,-9.129,-0.455,-3.886,-9.072,-0.653,-4.037,3.29,1.12,0.14
,-9.105,-0.462,-4.015,-9.119,-0.56,-3.999,2.8,0.98,0.14
,-9.052,-0.62,-3.996,-9.105,-0.452,-3.903,2.03,0.77,0.14
,-9.016,-0.715,-4.02,-9.131,-0.57,-3.778,2.52,0.7,0.28
36270.0,-9.117,-0.613,-3.676,-9.146,-0.584,-3.582,2.59,0.0,0.56
,-9.177,-0.586,-3.659,-9.158,-0.589,-3.58,2.73,0.14,0.42
,-9.167,-0.613,-3.64,-9.16,-0.625,-3.609,2.59,0.28,0.49
,-9.091,-0.56,-3.599,-9.191,-0.567,-3.618,2.38,0.42,0.56
36345.0,-9.182,-0.629,-3.692,-9.15,-0.531,-3.798,1.47,1.61,0.56
,-9.189,-0.651,-3.671,-9.16,-0.543,-3.8,1.82,1.82,0.7
,-9.146,-0.668,-3.752,-9.115,-0.644,-3.872,2.1,1.89,0.7
,-9.141,-0.567,-3.793,-9.131,-0.622,-3.862,2.59,2.1,0.63
36421.0,-9.139,-0.562,-3.908,-9.074,-0.627,-3.826,3.22,1.82,0.84
,-9.105,-0.553,-3.92,-9.136,-0.617,-3.786,2.87,1.82,0.84
,-9.093,-0.593,-3.908,-9.122,-0.577,-3.74,2.45,1.82,0.91
,-9.076,-0.61,-3.855,-9.134,-0.603,-3.716,2.38,1.82,1.05
36496.0,-9.153,-0.598,-3.726,-9.095,-0.598,-3.903,1.12,1.82,0.91
,-9.139,-0.601,-3.697,-9.112,-0.548,-3.922,1.4,2.1,0.91
,-9.17,-0.56,-3.833,-9.086,-0.613,-3.965,1.47,2.03,0.84
,-9.158,-0.589,-3.838,-9.088,-0.589,-3.994,1.26,1.82,0.84
36572.0,-9.115,-0.543,-3.927,-9.143,-0.548,-3.721,2.8,1.47,1.19
,-9.098,-0.61,-3.874,-9.179,-0.548,-3.735,2.87,1.4,1.33
,-9.072,-0.634,-3.793,-9.134,-0.555,-3.766,3.01,1.33,1.4
,-9.122,-0.629,-3.723,-9.064,-0.634,-3.759,3.22,1.4,1.26
36648.0,-9.131,-0.601,-3.831,-9.112,-0.517,-3.831,2.1,1.68,1.19
,-9.16,-0.565,-3.829,-9.122,-0.524,-3.898,2.73,1.82,1.4
,-9.15,-0.476,-3.886,-9.083,-0.51,-3.879,2.59,1.61,1.26
,-9.136,-0.517,-3.829,-9.148,-0.479,-3.862,2.17,1.68,1.19
36724.0,-9.143,-0.538,-3.915,-9.091,-0.531,-3.743,1.68,1.4,0.7
,-9.033,-0.61,-3.817,-9.172,-0.479,-3.711,2.03,1.47,0.91
,-9.158,-0.579,-3.788,-9.139,-0.514,-3.716,2.59,1.47,1.12
,-9.16,-0.605,-3.745,-9.136,-0.589,-3.776,2.94,1.61,1.12
36799.0,-9.189,-0.591,-3.896,-9.088,-0.476,-3.963,2.03,2.03,0.77
,-9.088,-0.589,-3.912,-9.028,-0.483,-3.92,2.31,2.1,0.77
,-9.129,-0.548,-3.927,-9.091,-0.514,-3.917,2.45,1.96,0.91
,-9.105,-0.498,-3.97,-9.158,-0.555,-3.821,2.45,1.82,0.91
36875.0,-9.136,-0.543,-3.766,-9.107,-0.565,-3.865,1.96,1.26,0.56
,-9.186,-0.486,-3.81,-9.055,-0.505,-3.91,1.75,1.33,0.49
,-9.167,-0.517,-3.874,-9.086,-0.526,-3.922,1.26,1.47,0.35
,-9.143,-0.541,-3.869,-9.124,-0.591,-3.9,1.12,1.47,0.28
36951.0,-9.11,-0.625,-3.79,-9.141,-0.548,-3.793,2.17,1.33,0.77
,-9.158,-0.57,-3.757,-9.117,-0.562,-3.807,2.59,1.47,0.77
,-9.119,-0.57,-3.786,-9.086,-0.596,-3.81,2.45,1.54,0.63
,-9.184,-0.522,-3.747,-9.088,-0.565,-3.869,2.03,1.54,0.35
37027.0,-9.093,-0.558,-3.879,-9.112,-0.598,-3.843,2.73,1.82,0.7
,-9.11,-0.546,-3.924,-9.143,-0.498,-3.869,2.8,1.61,0.7
,-9.079,-0.55,-3.865,-9.067,-0.553,-3.91,2.52,1.54,0.63
,-9.091,-0.541,-3.881,-9.105,-0.601,-3.898,2.24,1.61,0.63
37103.0,-9.115,-0.613,-3.845,-9.115,-0.555,-3.879,2.31,1.26,0.7
,-9.134,-0.581,-3.829,-9.064,-0.601,-3.867,2.73,1.33,0.77
,-9.119,-0.519,-3.869,-9.117,-0.577,-3.896,2.73,1.4,0.63
,-9.127,-0.503,-3.831,-9.095,-0.555,-3.922,2.31,1.33,0.63
37178.0,-9.045,-0.56,-3.9,-9.105,-0.529,-3.833,2.45,1.26,0.56
,-9.06,-0.536,-3.941,-9.115,-0.581,-3.786,2.45,1.26,0.63
,-9.103,-0.608,-3.946,-9.148,-0.593,-3.771,2.73,1.05,0.63
,-9.107,-0.51,-3.888,-9.172,-0.613,-3.762,2.94,0.98,0.77
37254.0,-9.153,-0.541,-3.817,-9.11,-0.572,-3.939,3.01,1.4,0.77
,-9.127,-0.584,-3.903,-9.086,-0.593,-3.927,2.8,1.26,0.63
,-9.069,-0.541,-3.872,-9.076,-0.581,-3.865,2.8,1.4,0.56
,-9.086,-0.503,-3.951,-9.088,-0.608,-3.826,2.8,1.12,0.35
37329.0,-9.105,-0.538,-3.778,-9.206,-0.572,-3.812,3.22,1.19,0.7
,-9.141,-0.579,-3.731,-9.141,-0.541,-3.786,2.87,1.33,0.7
,-9.141,-0.579,-3.759,-9.1,-0.519,-3.757,2.59,1.54,0.49
,-9.158,-0.548,-3.769,-9.124,-0.567,-3.757,2.45,1.61,0.42
37405.0,-9.139,-0.584,-3.92,-9.019,-0.56,-3.874,2.87,2.24,0.7
,-9.083,-0.565,-3.8,-9.033,-0.589,-3.91,3.01,1.96,0.7
,-9.155,-0.591,-3.881,-9.093,-0.658,-3.879,2.8,2.24,0.63
,-9.088,-0.455,-3.867,-9.119,-0.634,-3.92,2.87,2.1,0.56
37481.0,-9.143,-0.529,-3.853,-9.052,-0.613,-3.903,2.87,1.82,0.56
,-9.15,-0.5,-3.896,-9.105,-0.708,-3.948,2.8,1.82,0.49
,-9.093,-0.51,-3.915,-9.05,-0.581,-3.944,2.24,1.68,0.28
,-9.052,-0.591,-3.929,-9.069,-0.507,-3.855,1.47,1.61,0.28
37557.0,-9.093,-0.629,-3.8,-9.182,-0.617,-3.843,1.26,1.19,0.49
,-9.086,-0.598,-3.762,-9.141,-0.572,-3.824,1.47,1.26,0.63
,-9.139,-0.538,-3.79,-9.119,-0.603,-3.9,1.61,1.33,0.49
,-9.162,-0.524,-3.814,-9.04,-0.711,-3.922,1.4,1.26,0.21
37632.0,-9.062,-0.72,-3.987,-9.086,-0.589,-3.963,2.31,1.47,0.91
,-9.045,-0.677,-3.963,-9.112,-0.503,-4.015,2.94,1.26,0.91
,-9.024,-0.665,-4.013,-9.06,-0.431,-4.003,3.36,1.05,0.91
,-9.016,-0.627,-3.958,-9.091,-0.419,-3.953,3.64,0.91,0.98
37708.0,-9.122,-0.512,-3.941,-9.098,-0.634,-3.888,2.73,0.28,0.77
,-9.091,-0.462,-3.96,-9.045,-0.55,-3.877,3.01,0.0,0.7
,-9.064,-0.421,-3.97,-9.086,-0.57,-3.838,3.08,0.07,0.7
,-9.086,-0.467,-3.946,-9.107,-0.596,-3.8,2.66,-0.07,0.49
37784.0,-9.134,-0.546,-3.743,-9.072,-0.634,-4.051,3.08,0.0,0.49
,-9.189,-0.577,-3.843,-9.064,-0.596,-3.991,3.36,-0.07,0.49
,-9.146,-0.608,-3.853,-9.107,-0.526,-4.068,3.57,-0.28,0.42
,-9.124,-0.682,-3.944,-9.04,-0.421,-3.912,3.85,-0.42,0.35
37860.0,-9.146,-0.447,-4.034,-9.124,-0.637,-3.731,4.41,-1.19,0.14
,-9.088,-0.605,-3.886,-9.134,-0.56,-3.848,3.99,-1.12,0.21
,-9.105,-0.711,-3.855,-9.119,-0.632,-3.647,4.41,-1.19,0.28
,-9.091,-0.711,-3.824,-9.129,-0.591,-3.515,5.74,-1.19,0.49
37935.0,-9.179,-0.581,-3.398,-9.174,-0.67,-3.367,4.55,-0.21,0.7
,-9.174,-0.62,-3.463,-9.167,-0.644,-3.398,4.27,0.07,0.63
,-9.165,-0.589,-3.465,-9.172,-0.742,-3.436,4.06,0.49,0.49
,-9.15,-0.644,-3.381,-9.167,-0.725,-3.453,3.57,1.12,0.63
38011.0,-9.095,-0.744,-3.403,-9.127,-0.514,-4.099,2.24,3.57,1.33
,-9.158,-0.727,-3.463,-8.981,-0.596,-4.015,2.24,4.06,1.47
,-9.328,-0.677,-3.676,-8.949,-0.723,-4.018,2.24,4.13,1.4
,-9.273,-0.589,-3.936,-8.995,-0.78,-3.941,1.54,3.64,0.98
38086.0,-9.093,-0.663,-3.955,-9.143,-0.598,-3.625,2.38,3.15,1.96
,-9.15,-0.668,-3.915,-9.043,-0.469,-3.532,3.01,3.15,2.31
,-9.086,-0.656,-3.848,-9.069,-0.584,-3.362,3.01,3.22,2.66
,-9.172,-0.723,-3.687,-9.105,-0.596,-3.259,2.52,3.15,2.66
38162.0,-9.115,-0.613,-3.257,-9.349,-0.581,-3.422,-2.94,4.62,1.89
,-9.112,-0.481,-3.302,-9.299,-0.524,-3.486,-3.15,4.97,1.89
,-9.119,-0.479,-3.321,-9.261,-0.469,-3.795,-3.71,5.74,1.96
,-9.27,-0.469,-3.434,-9.146,-0.483,-4.152,-4.9,6.44,1.61
38238.0,-8.947,-0.486,-4.389,-8.806,-0.593,-4.152,-6.86,6.86,1.26
