session_id,Timestamp,AccX,AccY,AccZ,GyroX,GyroY,GyroZ,MagnX,MagnY,MagnZ,AccX_corr,GyroX_corr,MagnX_corr,AccY_corr,GyroY_corr,MagnY_corr,AccZ_corr,GyroZ_corr,MagnZ_corr,AccNorm,GyroNorm,AccNorm_filt,GyroNorm_filt
H1_walk_slow_20251205_051431,33015.0,-9.124,-0.723,-3.862,-9.105,-0.866,-3.75,0.98,-0.84,0.49,0.21488076923076882,0.23469615384615317,-1.568942307692308,0.47176538461538475,0.3288192307692309,-2.1533076923076924,-0.7282384615384614,-0.6154288461538462,-0.25051923076923077,0.8939058003897357,0.7361773127664968,0.8167266364607616,0.8199979646968091
H1_walk_slow_20251205_051431,,-9.05,-0.821,-3.812,-9.115,-0.818,-3.745,0.49,-0.77,0.42,0.28888076923076866,0.22469615384615338,-2.058942307692308,0.3737653846153848,0.37681923076923096,-2.0833076923076925,-0.6782384615384611,-0.6104288461538463,-0.3205192307692308,0.8265349794643332,0.751734308414539,0.830910706197855,0.8351354991729372
H1_walk_slow_20251205_051431,,-9.067,-0.857,-3.759,-9.119,-0.84,-3.757,0.42,-0.63,0.42,0.2718807692307692,0.22069615384615382,-2.128942307692308,0.33776538461538475,0.35481923076923094,-1.9433076923076924,-0.6252384615384612,-0.6224288461538463,-0.3205192307692308,0.7608730127352891,0.7496806969440806,0.8461921443916904,0.8444051743443782
H1_walk_slow_20251205_051431,,-9.069,-0.885,-3.716,-9.088,-0.926,-3.798,0.63,-0.42,0.56,0.26988076923076854,0.2516961538461544,-1.918942307692308,0.3097653846153847,0.26881923076923087,-1.7333076923076924,-0.5822384615384615,-0.6634288461538462,-0.1805192307692307,0.7125951509806835,0.7587836098660353,0.8648566877705416,0.8497236174109457
H1_walk_slow_20251205_051431,33090.0,-9.076,-0.905,-3.814,-9.072,-0.94,-3.783,0.7,0.49,0.7,0.26288076923076886,0.2676961538461544,-1.848942307692308,0.2897653846153847,0.25481923076923096,-0.8233076923076925,-0.6802384615384613,-0.6484288461538461,-0.04051923076923081,0.7847258384358675,0.7463605292874582,0.8667695875563988,0.8459915237168226
H1_walk_slow_20251205_051431,,-9.105,-0.861,-3.764,-9.04,-1.0,-3.754,0.98,0.77,0.91,0.23388076923076895,0.29969615384615444,-1.568942307692308,0.33376538461538474,0.1948192307692309,-0.5433076923076925,-0.6302384615384611,-0.6194288461538462,0.16948076923076927,0.7505331868650434,0.7151674019103346,0.8638416583959108,0.8432911617406909
H1_walk_slow_20251205_051431,,-9.119,-0.876,-3.798,-9.095,-0.969,-3.759,0.77,0.91,0.91,0.2198807692307696,0.24469615384615295,-1.7789423076923079,0.31876538461538473,0.22581923076923094,-0.4033076923076925,-0.6642384615384613,-0.6244288461538461,0.16948076923076927,0.7688768801918101,0.7076594637262551,0.8588791720860943,0.8431264268399672
H1_walk_slow_20251205_051431,,-9.119,-0.878,-3.821,-9.139,-0.864,-3.781,0.49,0.84,0.91,0.2198807692307696,0.20069615384615425,-2.058942307692308,0.3167653846153847,0.3308192307692309,-0.47330769230769254,-0.6872384615384615,-0.6464288461538463,0.16948076923076927,0.7880257385300299,0.7533860648798716,0.8553102557030499,0.8416231365748036
H1_walk_slow_20251205_051431,33166.0,-9.112,-0.799,-3.793,-9.05,-0.916,-3.862,0.98,1.75,1.47,0.22688076923076927,0.2896961538461529,-1.568942307692308,0.3957653846153847,0.2788192307692309,0.4366923076923075,-0.6592384615384614,-0.7274288461538463,0.7294807692307692,0.8016860185123016,0.8311538673535217,0.8548460229291049,0.8462029251988671
H1_walk_slow_20251205_051431,,-9.16,-0.766,-3.798,-9.05,-0.883,-3.939,0.56,1.89,1.4,0.17888076923076923,0.2896961538461529,-1.9889423076923078,0.4287653846153847,0.3118192307692309,0.5766923076923074,-0.6642384615384613,-0.8044288461538462,0.6594807692307691,0.8105867124694016,0.910088381837268,0.8555313684100253,0.847728659353417
H1_walk_slow_20251205_051431,,-9.107,-0.816,-3.869,-9.11,-0.799,-3.977,0.28,1.82,1.4,0.23188076923077006,0.22969615384615416,-2.268942307692308,0.3787653846153848,0.39581923076923087,0.5066923076923076,-0.7352384615384615,-0.8424288461538461,0.6594807692307691,0.8589572184034183,0.9587072271400494,0.8551977754379082,0.8485932653568627
H1_walk_slow_20251205_051431,,-9.079,-0.859,-3.857,-9.069,-0.804,-3.975,0.14,1.89,1.54,0.25988076923076875,0.27069615384615275,-2.4089423076923078,0.33576538461538474,0.39081923076923086,0.5766923076923074,-0.7232384615384615,-0.8404288461538463,0.7994807692307693,0.8386598118250415,0.9655758511342538,0.8585742459452358,0.850313805613988
H1_walk_slow_20251205_051431,33242.0,-9.105,-0.823,-4.056,-9.016,-0.759,-4.063,1.61,1.89,2.03,0.23388076923076895,0.3236961538461536,-0.9389423076923078,0.3717653846153848,0.4358192307692309,0.5766923076923074,-0.9222384615384613,-0.9284288461538459,1.289480769230769,1.021485925186945,1.0754988257983542,0.8606460855032928,0.8528992420955221
H1_walk_slow_20251205_051431,,-9.112,-0.883,-4.073,-9.064,-0.725,-4.011,1.89,1.68,2.1,0.22688076923076927,0.27569615384615354,-0.658942307692308,0.3117653846153847,0.46981923076923093,0.36669230769230743,-0.9392384615384617,-0.8764288461538463,1.3594807692307693,1.0153036127800692,1.0319234473626018,0.8621047149772155,0.8539701483015321
H1_walk_slow_20251205_051431,,-9.057,-0.859,-4.099,-9.112,-0.718,-3.953,2.24,1.54,2.17,0.281880769230769,0.2276961538461535,-0.3089423076923077,0.33576538461538474,0.47681923076923094,0.22669230769230753,-0.9652384615384615,-0.818428846153846,1.4294807692307692,1.0601322791053875,0.974180626744552,0.8650639344006803,0.8594403980626338
H1_walk_slow_20251205_051431,,-8.995,-0.759,-4.135,-9.1,-0.754,-3.917,2.52,1.12,2.1,0.34388076923077016,0.23969615384615395,-0.028942307692307878,0.4357653846153847,0.4408192307692309,-0.1933076923076924,-1.001238461538461,-0.782428846153846,1.3594807692307693,1.1448248384533088,0.9295002634094593,0.869682578601556,0.8660293178199067
H1_walk_slow_20251205_051431,33317.0,-9.11,-0.747,-3.877,-9.127,-0.785,-3.771,1.19,0.49,2.1,0.22888076923076994,0.21269615384615292,-1.358942307692308,0.44776538461538473,0.4098192307692309,-0.8233076923076925,-0.7432384615384611,-0.6364288461538461,1.3594807692307693,0.8973759841301142,0.7862780246108538,0.8744644543533482,0.8712508685682318
H1_walk_slow_20251205_051431,,-9.076,-0.833,-3.814,-9.117,-0.756,-3.762,1.19,0.49,2.1,0.26288076923076886,0.2226961538461527,-1.358942307692308,0.36176538461538477,0.4388192307692309,-0.8233076923076925,-0.6802384615384613,-0.6274288461538462,1.3594807692307693,0.8140668626676133,0.797385008146451,0.8798269169375738,0.8780127565271711
H1_walk_slow_20251205_051431,,-9.064,-0.876,-3.778,-9.153,-0.727,-3.807,1.19,0.63,2.1,0.2748807692307693,0.18669615384615312,-1.358942307692308,0.31876538461538473,0.46781923076923093,-0.6833076923076925,-0.6442384615384613,-0.6724288461538461,1.3594807692307693,0.7695544185093975,0.8401611986269386,0.8843626799818067,0.886166315056312
H1_walk_slow_20251205_051431,,-9.103,-0.838,-3.795,-9.124,-0.747,-3.778,1.05,0.56,2.31,0.23588076923076962,0.21569615384615304,-1.4989423076923079,0.35676538461538476,0.4478192307692309,-0.7533076923076925,-0.6612384615384612,-0.6434288461538462,1.5694807692307693,0.787500844425207,0.8130606215366963,0.8906586739303871,0.8957556000991261
H1_walk_slow_20251205_051431,33393.0,-9.069,-0.818,-3.841,-9.155,-0.665,-3.886,-0.91,1.19,2.24,0.26988076923076854,0.18469615384615423,-3.458942307692308,0.3767653846153848,0.5298192307692309,-0.12330769230769256,-0.7072384615384615,-0.7514288461538463,1.4994807692307695,0.8455613674502047,0.9377986976801378,0.899074631854925,0.9080266835157752
H1_walk_slow_20251205_051431,,-9.048,-0.828,-3.867,-9.107,-0.684,-3.812,-0.7,1.26,2.38,0.29088076923076933,0.23269615384615427,-3.2489423076923076,0.36676538461538477,0.5108192307692309,-0.0533076923076925,-0.7332384615384613,-0.677428846153846,1.6394807692307691,0.8699236235093543,0.8797690765989635,0.9089177475683987,0.9161007925632091
H1_walk_slow_20251205_051431,,-9.076,-0.845,-3.86,-9.134,-0.696,-3.814,-0.14,1.33,2.45,0.26288076923076886,0.20569615384615325,-2.688942307692308,0.34976538461538476,0.49881923076923096,0.016692307692307562,-0.7262384615384612,-0.6794288461538462,1.7094807692307694,0.8478587300513333,0.8676145974326702,0.9201770820227433,0.9233160250992978
H1_walk_slow_20251205_051431,,-9.079,-0.737,-3.908,-9.117,-0.73,-3.86,0.21,1.4,2.52,0.25988076923076875,0.2226961538461527,-2.338942307692308,0.45776538461538474,0.46481923076923093,0.0866923076923074,-0.7742384615384612,-0.7254288461538461,1.7794807692307693,0.9362330676137702,0.8898862315278675,0.9278263801615816,0.9236208088071417
H1_walk_slow_20251205_051431,33468.0,-9.098,-0.715,-3.869,-9.107,-0.739,-3.893,-1.96,1.33,2.52,0.24088076923076862,0.23269615384615427,-4.508942307692308,0.47976538461538476,0.4558192307692309,0.016692307692307562,-0.7352384615384615,-0.758428846153846,1.7794807692307693,0.9103702348966592,0.9149497176523421,0.9289410808276499,0.9257006663808708
H1_walk_slow_20251205_051431,,-9.124,-0.725,-3.869,-9.107,-0.768,-3.869,-2.31,1.19,2.52,0.21488076923076882,0.23269615384615427,-4.858942307692308,0.46976538461538475,0.4268192307692309,-0.12330769230769256,-0.7352384615384615,-0.7344288461538464,1.7794807692307693,0.8985704518252818,0.8807428034517802,0.9310195523703235,0.9309903182028414
H1_walk_slow_20251205_051431,,-9.074,-0.665,-3.903,-9.06,-0.754,-3.841,-2.59,1.19,2.59,0.26488076923076953,0.2796961538461531,-5.138942307692307,0.5297653846153847,0.4408192307692309,-0.12330769230769256,-0.7692384615384613,-0.7064288461538464,1.849480769230769,0.9708455053998187,0.8784038065551413,0.9246941916884309,0.9298216742653546
H1_walk_slow_20251205_051431,,-9.091,-0.713,-3.91,-9.045,-0.79,-3.91,-2.73,1.54,2.87,0.24788076923077007,0.29469615384615366,-5.278942307692308,0.48176538461538476,0.4048192307692309,0.22669230769230753,-0.7762384615384614,-0.7754288461538463,2.1294807692307693,0.9466197286871034,0.9230462221036351,0.9225974701260611,0.9284179730817215
H1_walk_slow_20251205_051431,33544.0,-9.141,-0.804,-3.903,-9.067,-0.739,-3.843,-2.8,1.4,3.36,0.19788076923076936,0.2726961538461534,-5.348942307692308,0.3907653846153847,0.4558192307692309,0.0866923076923074,-0.7692384615384613,-0.7084288461538462,2.619480769230769,0.8852017822818871,0.8854410164005326,0.9192256826528473,0.9228996324740609
H1_walk_slow_20251205_051431,,-9.095,-0.787,-3.841,-9.081,-0.73,-3.903,-2.8,1.47,3.43,0.24388076923076873,0.2586961538461541,-5.348942307692308,0.4077653846153847,0.46481923076923093,0.15669230769230746,-0.7072384615384615,-0.7684288461538462,2.6894807692307694,0.8520191781705468,0.9345926967984631,0.9123451568088059,0.9200235405757642
H1_walk_slow_20251205_051431,,-9.045,-0.72,-3.843,-9.117,-0.704,-3.927,-2.94,1.54,3.5,0.29388076923076945,0.2226961538461527,-5.488942307692308,0.47476538461538476,0.49081923076923095,0.22669230769230753,-0.7092384615384613,-0.7924288461538462,2.7594807692307692,0.9026556775859255,0.9583530510451171,0.9157136334575077,0.9266383843130629
H1_walk_slow_20251205_051431,,-9.052,-0.727,-3.865,-9.088,-0.706,-3.927,-3.01,1.47,3.64,0.28688076923076977,0.2516961538461544,-5.558942307692307,0.46776538461538475,0.48881923076923095,0.15669230769230746,-0.7312384615384615,-0.7924288461538462,2.8994807692307694,0.9142290295281337,0.964488813023503,0.9225724882721617,0.942430151071383
H1_walk_slow_20251205_051431,33620.0,-9.088,-0.658,-3.924,-9.052,-0.68,-3.975,-3.5,1.4,4.48,0.2508807692307702,0.287696153846154,-6.0489423076923075,0.5367653846153847,0.5148192307692309,0.0866923076923074,-0.7902384615384612,-0.8404288461538463,3.7394807692307697,0.9876917862297929,1.0267076325591322,0.9427650980795063,0.9377554375229955
H1_walk_slow_20251205_051431,,-9.112,-0.663,-4.003,-9.019,-0.725,-3.912,-3.71,1.26,4.48,0.22688076923076927,0.32069615384615346,-6.258942307692308,0.5317653846153847,0.46981923076923093,-0.0533076923076925,-0.8692384615384614,-0.7774288461538461,3.7394807692307697,1.0439467470803503,0.9633129001131502,0.9595503647369161,0.9349200575201321
H1_walk_slow_20251205_051431,,-9.031,-0.696,-4.058,-9.074,-0.581,-3.903,-4.13,1.12,4.62,0.3078807692307688,0.26569615384615375,-6.678942307692308,0.4987653846153848,0.613819230769231,-0.1933076923076924,-0.9242384615384611,-0.7684288461538462,3.8794807692307693,1.0944287143252611,1.018749913291825,0.9648449546847838,0.9466974247844042
H1_walk_slow_20251205_051431,,-9.026,-0.715,-3.965,-9.083,-0.625,-3.807,-4.2,0.98,4.83,0.3128807692307696,0.2566961538461534,-6.7489423076923085,0.47976538461538476,0.5698192307692309,-0.3333076923076925,-0.8312384615384611,-0.6724288461538461,4.08948076923077,1.0094684640791973,0.9180127582412125,0.9649559116930077,0.9735642525222027
H1_walk_slow_20251205_051431,33696.0,-9.05,-0.617,-3.743,-9.119,-0.555,-3.888,-5.74,0.7,5.18,0.28888076923076866,0.22069615384615382,-8.288942307692308,0.5777653846153847,0.6398192307692309,-0.6133076923076926,-0.6092384615384612,-0.7534288461538461,4.439480769230769,0.8879394357211955,1.0127835240570076,0.9973263944114183,1.0130950743290181
H1_walk_slow_20251205_051431,,-9.064,-0.72,-3.838,-9.081,-0.488,-3.941,-6.3,0.77,5.32,0.2748807692307693,0.2586961538461541,-8.848942307692308,0.47476538461538476,0.7068192307692309,-0.5433076923076925,-0.7042384615384614,-0.806428846153846,4.57948076923077,0.892700071934551,1.1031067985054863,1.0282695620830309,1.041412254527709
H1_walk_slow_20251205_051431,,-9.112,-0.699,-3.795,-9.048,-0.579,-3.927,-6.51,0.84,5.39,0.22688076923076927,0.29169615384615355,-9.058942307692307,0.4957653846153848,0.615819230769231,-0.47330769230769254,-0.6612384615384612,-0.7924288461538462,4.6494807692307685,0.8570265474577419,1.045114083423701,1.0671223647049812,1.0546675656561801
H1_walk_slow_20251205_051431,,-9.179,-0.601,-3.872,-9.045,-0.677,-3.932,-7.0,0.84,5.39,0.1598807692307691,0.29469615384615366,-9.548942307692307,0.5937653846153848,0.5178192307692309,-0.47330769230769254,-0.7382384615384612,-0.7974288461538461,4.6494807692307685,0.9607888521584501,0.9954272165881382,1.1113913281054801,1.0646570964259656
H1_walk_slow_20251205_051431,33772.0,-9.016,-0.706,-3.91,-8.988,-0.79,-3.769,-9.45,0.77,5.95,0.32288076923076936,0.35169615384615405,-11.998942307692307,0.48876538461538477,0.4048192307692309,-0.5433076923076925,-0.7762384615384614,-0.6344288461538463,5.209480769230769,0.9724658048018324,0.8307037709453776,1.1214208456591608,1.0989729420102905
H1_walk_slow_20251205_051431,,-9.038,-0.694,-3.903,-9.11,-0.694,-3.788,-8.54,0.84,6.23,0.3008807692307691,0.22969615384615416,-11.088942307692307,0.5007653846153848,0.500819230769231,-0.47330769230769254,-0.7692384615384613,-0.653428846153846,5.48948076923077,0.9659311665082313,0.8547218740537456,1.1458199083749943,1.13913581619383
H1_walk_slow_20251205_051431,,-9.021,-0.651,-3.891,-9.258,-0.522,-3.812,-8.26,0.7,6.37,0.3178807692307686,0.08169615384615447,-10.808942307692307,0.5437653846153847,0.6728192307692309,-0.6133076923076926,-0.7572384615384613,-0.677428846153846,5.629480769230769,0.9849563769963613,0.9582639617806178,1.1822570234285001,1.1930429089849615
H1_walk_slow_20251205_051431,,-8.966,-0.637,-3.865,-9.225,-0.232,-3.855,-9.1,0.63,6.37,0.37288076923077007,0.11469615384615395,-11.648942307692307,0.5577653846153847,0.9628192307692309,-0.6833076923076925,-0.7312384615384615,-0.7204288461538462,5.629480769230769,0.9923970878486167,1.2079709438627722,1.2211574138492325,1.2524393924995287
H1_walk_slow_20251205_051431,33847.0,-9.196,-0.156,-3.893,-8.993,-1.189,-3.764,-11.2,0.56,6.72,0.14288076923076964,0.34669615384615327,-13.748942307692307,1.0387653846153848,0.005819230769230854,-0.7533076923076925,-0.7592384615384611,-0.629428846153846,5.9794807692307685,1.2945622735003575,0.7186186463688672,1.2757234075966422,1.289108663234447
H1_walk_slow_20251205_051431,,-9.045,-0.323,-3.941,-9.253,-0.735,-3.707,-12.67,0.49,6.86,0.29388076923076945,0.08669615384615348,-15.218942307692307,0.8717653846153848,0.4598192307692309,-0.8233076923076925,-0.8072384615384611,-0.572428846153846,6.119480769230769,1.223917777517861,0.739340741462248,1.3181713840334057,1.334599485560812
H1_walk_slow_20251205_051431,,-8.815,-0.811,-3.872,-9.363,-0.11,-3.743,-12.88,0.77,7.28,0.5238807692307699,-0.023303846153845953,-15.428942307692308,0.3837653846153847,1.0848192307692308,-0.5433076923076925,-0.7382384615384612,-0.6084288461538461,6.539480769230769,0.9832207060947665,1.2440102465512124,1.3455093821561699,1.374691325486798
H1_walk_slow_20251205_051431,,-8.801,-1.096,-3.814,-9.208,0.239,-3.781,-11.34,1.12,8.4,0.5378807692307692,0.1316961538461534,-13.888942307692307,0.09876538461538464,1.433819230769231,-0.1933076923076924,-0.6802384615384613,-0.6464288461538463,7.65948076923077,0.872808505723175,1.5783065977817279,1.371758463036485,1.4105469546816756
H1_walk_slow_20251205_051431,33923.0,-9.028,0.39,-3.63,-9.237,0.689,-3.317,-10.01,1.61,7.98,0.3108807692307689,0.10269615384615349,-12.558942307692307,1.5847653846153849,1.8838192307692307,0.2966923076923076,-0.4962384615384612,-0.18242884615384636,7.23948076923077,1.6894912807300078,1.8954159644098687,1.3999218648177936,1.4378804351164416
H1_walk_slow_20251205_051431,,-9.165,0.488,-3.544,-9.052,0.395,-3.319,-12.74,1.54,7.0,0.17388076923077023,0.287696153846154,-15.288942307692308,1.6827653846153847,1.589819230769231,0.22669230769230753,-0.41023846153846133,-0.18442884615384614,6.25948076923077,1.7407554270756969,1.6261329166938285,1.4294548468071477,1.4700036768949407
H1_walk_slow_20251205_051431,,-9.275,0.704,-3.415,-9.052,0.005,-3.388,-15.89,1.33,6.02,0.06388076923076902,0.287696153846154,-18.438942307692308,1.8987653846153847,1.1998192307692308,0.016692307692307562,-0.2812384615384613,-0.2534288461538461,5.279480769230769,1.9205431030673707,1.2595878069925925,1.4597073541142338,1.493624265160892
H1_walk_slow_20251205_051431,,-9.227,0.847,-3.273,-9.086,-0.124,-3.434,-19.25,1.19,5.39,0.11188076923076906,0.2536961538461533,-21.798942307692307,2.0417653846153847,1.070819230769231,-0.12330769230769256,-0.13923846153846142,-0.29942884615384635,4.6494807692307685,2.049563500238252,1.1404706034662018,1.4869110141982227,1.5063269135673911
H1_walk_slow_20251205_051431,33999.0,-9.179,-0.06,-3.585,-8.964,-0.05,-4.432,-16.45,4.2,6.58,0.1598807692307691,0.3756961538461532,-18.998942307692307,1.1347653846153847,1.1448192307692309,2.8866923076923077,-0.45123846153846126,-1.2974288461538466,5.83948076923077,1.2316129617955154,1.7706157917475909,1.5191223134442151,1.5240592495623477
H1_walk_slow_20251205_051431,,-9.395,0.187,-3.9,-8.983,0.11,-4.563,-13.44,4.76,6.37,-0.0561192307692302,0.35669615384615305,-15.988942307692307,1.3817653846153848,1.304819230769231,3.4466923076923073,-0.7662384615384612,-1.428428846153846,5.629480769230769,1.5809953592987742,1.9672809508756632,1.5581927783715341,1.541095776805847
H1_walk_slow_20251205_051431,,-9.325,0.318,-4.168,-9.064,0.459,-4.69,-12.32,4.97,5.88,0.013880769230770085,0.27569615384615354,-14.868942307692308,1.5127653846153848,1.653819230769231,3.6566923076923072,-1.0342384615384614,-1.5554288461538466,5.139480769230769,1.83256677367304,2.287025428969949,1.6038144855468164,1.5715119526829089
H1_walk_slow_20251205_051431,,-9.237,0.227,-4.334,-9.031,0.699,-4.704,-12.32,5.32,5.39,0.10188076923076927,0.308696153846153,-14.868942307692308,1.4217653846153848,1.893819230769231,4.006692307692308,-1.200238461538461,-1.569428846153846,4.6494807692307685,1.863429329109585,2.4789012681772062,1.6400354981931593,1.6098874644247283
H1_walk_slow_20251205_051431,34075.0,-9.045,0.553,-4.633,-9.083,0.503,-3.975,-14.21,1.33,2.66,0.29388076923076945,0.2566961538461534,-16.75894230769231,1.7477653846153847,1.6978192307692308,0.016692307692307562,-1.4992384615384613,-0.8404288461538463,1.9194807692307694,2.321371515018577,1.9117540901529977,1.6751475142859389,1.6379127814553438
H1_walk_slow_20251205_051431,,-9.019,0.261,-4.494,-9.22,0.802,-3.915,-15.61,0.77,2.52,0.31988076923076925,0.11969615384615295,-18.158942307692307,1.4557653846153848,1.996819230769231,-0.5433076923076925,-1.360238461538461,-0.7804288461538462,1.7794807692307693,2.0178764168839893,2.1472501935089934,1.702203415539296,1.6656539249597395
H1_walk_slow_20251205_051431,,-8.871,-0.031,-4.279,-9.198,0.737,-3.862,-14.77,0.42,2.8,0.46788076923076893,0.1416961538461532,-17.318942307692307,1.1637653846153848,1.9318192307692308,-0.8933076923076926,-1.1452384615384612,-0.7274288461538463,2.059480769230769,1.6984797374216603,2.069095470634773,1.707911917364894,1.7013863584996902
H1_walk_slow_20251205_051431,,-8.899,0.206,-4.042,-9.198,0.584,-3.774,-12.18,0.21,3.22,0.43988076923077024,0.1416961538461532,-14.728942307692307,1.4007653846153847,1.7788192307692308,-1.1033076923076925,-0.9082384615384611,-0.6394288461538462,2.4794807692307694,1.7264228499685388,1.8955592591799575,1.713715172863401,1.7221573387519151
H1_walk_slow_20251205_051431,34150.0,-9.232,0.524,-3.743,-9.277,0.39,-3.824,-10.15,0.56,3.22,0.10688076923077006,0.06269615384615435,-12.698942307692308,1.7187653846153848,1.5848192307692308,-0.7533076923076925,-0.6092384615384612,-0.689428846153846,2.4794807692307694,1.8266771606392804,1.7294204045957422,1.7266165787133436,1.7654289207575975
H1_walk_slow_20251205_051431,,-9.194,0.474,-3.728,-9.17,0.428,-3.776,-8.75,1.19,3.15,0.14488076923076854,0.16969615384615366,-11.298942307692307,1.6687653846153847,1.6228192307692308,-0.12330769230769256,-0.5942384615384615,-0.641428846153846,2.409480769230769,1.7773259958024104,1.7532170444821913,1.7582249501640042,1.7867198858649205
H1_walk_slow_20251205_051431,,-9.16,0.378,-3.68,-9.131,0.263,-3.826,-7.42,1.82,3.36,0.17888076923076923,0.20869615384615336,-9.968942307692307,1.5727653846153848,1.457819230769231,0.5066923076923076,-0.5462384615384615,-0.6914288461538463,2.619480769230769,1.6745046257054284,1.6269188189717423,1.7687771916846005,1.784454694226181
H1_walk_slow_20251205_051431,,-9.222,0.299,-3.695,-9.064,0.086,-3.716,-5.32,2.31,3.29,0.11688076923076984,0.27569615384615354,-7.868942307692308,1.4937653846153847,1.280819230769231,0.9966923076923075,-0.5612384615384611,-0.5814288461538464,2.5494807692307693,1.5999952341182717,1.4333756570744598,1.789033089127988,1.7792164361878393
H1_walk_slow_20251205_051431,34226.0,-9.184,0.38,-3.74,-9.028,0.163,-3.707,9.94,6.09,4.13,0.1548807692307701,0.3116961538461531,7.391057692307692,1.5747653846153846,1.357819230769231,4.776692307692308,-0.6062384615384615,-0.572428846153846,3.389480769230769,1.6945203278535421,1.5061548192925767,1.7718826863424082,1.7720501917235318
H1_walk_slow_20251205_051431,,-9.289,0.663,-3.807,-9.105,0.091,-3.735,12.67,6.44,3.92,0.04988076923076967,0.23469615384615317,10.121057692307692,1.8577653846153848,1.2858192307692309,5.126692307692307,-0.6732384615384612,-0.6004288461538461,3.179480769230769,1.9766209402687394,1.4383769249191232,1.7626380284164602,1.7565007488742366
H1_walk_slow_20251205_051431,,-9.198,0.845,-3.826,-9.115,0.273,-3.786,12.04,6.79,3.43,0.14088076923076898,0.22469615384615338,9.491057692307692,2.039765384615385,1.4678192307692308,5.476692307692307,-0.6922384615384614,-0.6514288461538462,2.6894807692307694,2.1586301913591726,1.6215243437489806,1.7921875486808951,1.7319850175679636
H1_walk_slow_20251205_051431,,-9.062,0.591,-3.745,-9.11,0.512,-3.817,10.43,7.21,3.22,0.27688076923077,0.22969615384615416,7.881057692307692,1.7857653846153847,1.706819230769231,5.896692307692307,-0.6112384615384614,-0.6824288461538464,2.4794807692307694,1.907677495313152,1.8524851793410537,1.7985665786981957,1.7222985829341089
H1_walk_slow_20251205_051431,34301.0,-9.079,0.512,-3.922,-9.04,0.29,-3.877,11.9,8.75,3.22,0.25988076923076875,0.29969615384615444,9.351057692307693,1.7067653846153847,1.484819230769231,7.436692307692308,-0.7882384615384614,-0.742428846153846,2.4794807692307694,1.8978687954086286,1.6869222045766188,1.816809106013938,1.6878271456218998
H1_walk_slow_20251205_051431,,-8.971,0.261,-3.922,-9.06,0.57,-3.862,9.31,9.17,3.29,0.3678807692307693,0.2796961538461531,6.761057692307693,1.4557653846153848,1.764819230769231,7.856692307692308,-0.7882384615384614,-0.7274288461538463,2.5494807692307693,1.695850520435903,1.9292406749770612,1.8275355523872774,1.6596587599258563
H1_walk_slow_20251205_051431,,-8.94,-0.024,-3.877,-9.038,0.27,-3.826,9.03,9.66,3.71,0.39888076923076987,0.30169615384615334,6.481057692307692,1.1707653846153847,1.464819230769231,8.346692307692308,-0.7432384615384611,-0.6914288461538463,2.969480769230769,1.4429833209659073,1.6476619184075847,1.8015057616735293,1.6678784971319682
H1_walk_slow_20251205_051431,,-9.055,-0.067,-3.867,-9.009,-0.079,-3.666,11.27,10.15,3.99,0.28388076923076966,0.33069615384615325,8.721057692307692,1.1277653846153848,1.115819230769231,8.836692307692308,-0.7332384615384613,-0.5314288461538461,3.2494807692307695,1.374802420479041,1.2793862280200945,1.7738201042795714,1.6754768330935244
H1_walk_slow_20251205_051431,34377.0,-9.081,-0.024,-3.683,-8.916,0.991,-3.944,10.99,12.46,4.06,0.25788076923076986,0.4236961538461532,8.441057692307693,1.1707653846153847,2.185819230769231,11.146692307692309,-0.5492384615384611,-0.8094288461538461,3.319480769230769,1.3186572581932725,2.369071378698954,1.8063593456070257,1.7108363285454307
H1_walk_slow_20251205_051431,,-9.167,0.359,-3.788,-8.985,0.773,-3.874,12.39,12.81,4.2,0.17188076923076956,0.35469615384615416,9.841057692307693,1.5537653846153847,1.9678192307692308,11.496692307692308,-0.6542384615384611,-0.7394288461538463,3.4594807692307694,1.6946261634403523,2.1318716905721296,1.845425316312429,1.7491692548165962
H1_walk_slow_20251205_051431,,-9.213,0.617,-3.881,-9.036,0.514,-3.735,10.78,12.81,3.57,0.12588076923077018,0.303696153846154,8.231057692307692,1.8117653846153847,1.708819230769231,11.496692307692308,-0.7472384615384611,-0.6004288461538461,2.829480769230769,1.9638495602655082,1.8365209818026398,1.892983353773394,1.7885357108080495
H1_walk_slow_20251205_051431,,-9.057,0.938,-3.85,-9.036,0.156,-3.685,7.91,12.53,2.8,0.281880769230769,0.303696153846154,5.361057692307693,2.132765384615385,1.3508192307692308,11.216692307692307,-0.7162384615384614,-0.5504288461538462,2.059480769230769,2.26740876060377,1.4899382076969427,1.944320370991322,1.8235314688576567
H1_walk_slow_20251205_051431,34453.0,-9.067,0.158,-3.654,-8.988,-0.34,-3.68,6.3,15.33,1.96,0.2718807692307692,0.35169615384615405,3.751057692307692,1.3527653846153846,0.8548192307692308,14.016692307692308,-0.5202384615384612,-0.5454288461538463,1.2194807692307692,1.4746326306422997,1.0732654509205974,1.9872178780205187,1.8502675177175187
H1_walk_slow_20251205_051431,,-8.928,0.457,-3.747,-9.055,-0.617,-3.491,7.07,15.89,1.89,0.41088076923076855,0.2846961538461539,4.521057692307693,1.6517653846153848,0.5778192307692309,14.576692307692309,-0.6132384615384612,-0.3564288461538463,1.1494807692307691,1.8092023941636095,0.7361850893845249,2.015059768621489,1.850607274671916
H1_walk_slow_20251205_051431,,-9.021,0.646,-3.848,-9.186,-0.079,-3.259,5.6,16.52,1.61,0.3178807692307686,0.15369615384615365,3.0510576923076917,1.8407653846153846,1.115819230769231,15.206692307692308,-0.7142384615384612,-0.12442884615384608,0.8694807692307693,1.9999004886708232,1.1332067777844943,2.0620373848815348,1.8393648004791592
H1_walk_slow_20251205_051431,,-8.926,0.337,-3.865,-9.229,0.517,-3.123,2.24,17.43,1.19,0.4128807692307692,0.11069615384615439,-0.3089423076923077,1.5317653846153847,1.711819230769231,16.116692307692308,-0.7312384615384615,0.011571153846153592,0.4494807692307692,1.7468501397485834,1.71543365039544,2.109803816355657,1.8401200738164536
H1_walk_slow_20251205_051431,34529.0,-9.055,1.094,-3.185,-8.748,-0.28,-3.999,9.38,24.64,2.38,0.28388076923076966,0.5916961538461543,6.831057692307693,2.2887653846153846,0.9148192307692309,23.32669230769231,-0.051238461538461344,-0.8644288461538463,1.6394807692307691,2.306872483882343,1.3907680588525209,2.0920151441049457,1.822602852311784
H1_walk_slow_20251205_051431,,-8.945,0.907,-3.264,-8.799,0.0,-4.288,4.9,26.11,1.75,0.3938807692307691,0.5406961538461541,2.3510576923076925,2.1017653846153848,1.194819230769231,24.796692307692307,-0.13023846153846108,-1.1534288461538464,1.0094807692307692,2.142316934816411,1.7465232400800723,2.0872315007707885,1.800974947880008
H1_walk_slow_20251205_051431,,-8.839,0.342,-3.439,-8.997,0.309,-4.597,1.26,27.51,1.05,0.49988076923076896,0.3426961538461537,-1.2889423076923079,1.5367653846153848,1.5038192307692309,26.19669230769231,-0.30523846153846135,-1.4624288461538466,0.3094807692307693,1.6445969564611214,2.125467257511905,2.0733825620602024,1.7866166703980015
H1_walk_slow_20251205_051431,,-8.756,-0.206,-3.74,-9.007,0.467,-4.755,2.38,29.12,0.98,0.5828807692307691,0.3326961538461539,-0.168942307692308,0.9887653846153848,1.661819230769231,27.80669230769231,-0.6062384615384615,-1.620428846153846,0.23948076923076922,1.2980493246410876,2.3448069285094557,2.055582081125038,1.7614815604131193
H1_walk_slow_20251205_051431,34604.0,-8.93,0.438,-5.042,-9.095,-0.005,-5.865,2.31,32.06,-1.05,0.40888076923076966,0.24469615384615295,-0.23894230769230784,1.6327653846153847,1.189819230769231,30.74669230769231,-1.908238461538461,-2.7304288461538464,-1.7905192307692308,2.5445000119354773,2.9884423523843338,2.0494350149013902,1.7331001109135835
H1_walk_slow_20251205_051431,,-8.983,0.321,-5.391,-9.009,-0.16,-5.815,2.31,31.99,-1.26,0.35588076923076883,0.33069615384615325,-0.23894230769230784,1.5157653846153847,1.034819230769231,30.676692307692306,-2.2572384615384613,-2.6804288461538466,-2.000519230769231,2.7421380883090167,2.8922153422302603,2.0455656961677895,1.7143395681758025
H1_walk_slow_20251205_051431,,-8.938,0.318,-5.767,-9.086,-0.045,-5.623,3.71,31.71,-1.61,0.40088076923076876,0.2536961538461533,1.161057692307692,1.5127653846153848,1.149819230769231,30.39669230769231,-2.6332384615384616,-2.4884288461538464,-2.3505192307692306,3.063186134624377,2.7529482603735294,2.042485041089448,1.6520966856170698
H1_walk_slow_20251205_051431,,-8.942,0.144,-5.915,-9.229,0.191,-5.406,5.81,31.92,-1.4,0.3968807692307692,0.11069615384615439,3.2610576923076917,1.3387653846153846,1.385819230769231,30.60669230769231,-2.7812384615384613,-2.271428846153846,-2.1405192307692307,3.1120884434685356,2.663106753771982,2.0196984132420974,1.5898405779022076
H1_walk_slow_20251205_051431,34680.0,-9.639,0.469,-5.353,-9.947,0.191,-4.896,24.43,34.16,0.7,-0.30011923076922997,-0.6073038461538456,21.881057692307692,1.6637653846153846,1.385819230769231,32.8466923076923,-2.219238461538461,-1.761428846153846,-0.04051923076923081,2.789839808464545,2.322056089328151,1.9575993735090422,1.5718312043465086
H1_walk_slow_20251205_051431,,-9.275,0.246,-4.956,-9.536,-1.05,-4.556,24.92,33.6,0.42,0.06388076923076902,-0.196303846153846,22.371057692307694,1.4407653846153847,0.14481923076923087,32.286692307692306,-1.8222384615384617,-1.4214288461538462,-0.3205192307692308,2.323884389743494,1.442209337888796,1.894598411510289,1.5662458708959561
H1_walk_slow_20251205_051431,,-9.883,1.149,-4.781,-9.672,-1.184,-4.302,26.88,34.09,-0.14,-0.5441192307692297,-0.332303846153847,24.33105769230769,2.3437653846153848,0.01081923076923097,32.77669230769231,-1.647238461538461,-1.1674288461538458,-0.8805192307692308,2.9159383506147374,1.2138504902808982,1.874080688036162,1.5716644585096398
H1_walk_slow_20251205_051431,,-10.34,1.292,-4.915,-9.588,-0.345,-4.293,24.85,34.79,-3.01,-1.0011192307692305,-0.2483038461538456,22.301057692307694,2.486765384615385,0.8498192307692309,33.4766923076923,-1.7812384615384613,-1.1584288461538463,-3.7505192307692305,3.2185481585959197,1.4580140316887666,1.8515898174954193,1.5907866899175334
H1_walk_slow_20251205_051431,34756.0,-9.407,0.16,-4.152,-9.167,-0.45,-4.015,29.89,43.19,-4.69,-0.06811923076923065,0.17269615384615378,27.341057692307693,1.3547653846153846,0.744819230769231,41.8766923076923,-1.0182384615384614,-0.8804288461538459,-5.430519230769232,1.6961247128406791,1.1660765846275774,1.8383238941769244,1.751774715371878
H1_walk_slow_20251205_051431,,-9.416,0.287,-4.123,-8.99,-0.347,-4.042,25.2,44.73,-7.0,-0.077119230769231,0.3496961538461534,22.651057692307692,1.4817653846153847,0.8478192307692309,43.4166923076923,-0.9892384615384615,-0.907428846153846,-7.74051923076923,1.7833027686250584,1.2901596641148814,1.8644728486922113,1.9311934701706182
H1_walk_slow_20251205_051431,,-9.344,0.057,-4.027,-9.019,-0.261,-4.001,19.95,46.55,-9.38,-0.005119230769230043,0.32069615384615346,17.401057692307692,1.2517653846153847,0.9338192307692309,45.2366923076923,-0.8932384615384614,-0.8664288461538465,-10.120519230769231,1.5377963889333879,1.31360699004445,1.9130247222111312,2.1496759710751694
H1_walk_slow_20251205_051431,,-9.273,-0.34,-4.02,-9.05,-0.254,-3.946,17.01,48.44,-10.99,0.06588076923076969,0.2896961538461529,14.461057692307694,0.8547653846153846,0.9408192307692309,47.1266923076923,-0.8862384615384609,-0.8114288461538464,-11.73051923076923,1.233038016121637,1.275727815370122,2.000387658035598,2.373530904432493
H1_walk_slow_20251205_051431,34832.0,-9.055,-0.191,-3.881,-8.837,-0.835,-3.802,19.46,60.27,-10.15,0.28388076923076966,0.5026961538461538,16.911057692307693,1.0037653846153847,0.35981923076923095,58.95669230769231,-0.7472384615384611,-0.6674288461538462,-10.89051923076923,1.283159599151053,0.9097442314196511,2.234886137900553,2.5807200097534797
H1_walk_slow_20251205_051431,,-9.055,-0.182,-3.853,-8.882,-0.89,-3.704,19.95,62.79,-9.66,0.28388076923076966,0.4576961538461539,17.401057692307692,1.0127653846153848,0.3048192307692309,61.4766923076923,-0.7192384615384615,-0.5694288461538464,-10.40051923076923,1.2742001334054296,0.7916121168377912,2.4852965437818617,2.7569453076115376
H1_walk_slow_20251205_051431,,-8.978,-0.304,-3.915,-8.842,-0.871,-3.594,19.95,65.31,-9.03,0.3608807692307696,0.49769615384615307,17.401057692307692,0.8907653846153847,0.3238192307692309,63.99669230769231,-0.7812384615384613,-0.45942884615384605,-9.77051923076923,1.2385602261563902,0.7507564321719025,2.667986004503619,2.9294074531629866
H1_walk_slow_20251205_051431,,-8.882,-0.562,-3.912,-8.918,-0.916,-3.223,19.53,68.25,-7.91,0.4568807692307697,0.42169615384615433,16.981057692307694,0.6327653846153847,0.2788192307692309,66.93669230769231,-0.7782384615384612,-0.08842884615384605,-8.65051923076923,1.1021738394092406,0.5132128899857111,2.8489820976324327,3.112370532326975
H1_walk_slow_20251205_051431,34908.0,-9.05,-1.18,-2.938,-9.397,-2.402,-2.493,20.65,84.77,1.75,0.28888076923076866,-0.05730384615384665,18.10105769230769,0.014765384615384791,-1.2071807692307692,83.45669230769231,0.19576153846153854,0.6415711538461539,1.0094807692307692,0.349274527206078,1.3682772693544611,3.0161295161282657,3.2803872323385894
H1_walk_slow_20251205_051431,,-9.179,-1.572,-2.656,-9.844,-2.4,-2.816,21.0,89.18,5.18,0.1598807692307691,-0.5043038461538458,18.451057692307693,-0.37723461538461533,-1.205180769230769,87.86669230769232,0.47776153846153857,0.318571153846154,4.439480769230769,0.6293837486361856,1.344719537982586,3.1663272887281666,3.458755616954856
H1_walk_slow_20251205_051431,,-9.129,-1.874,-2.517,-9.988,-2.218,-3.218,22.82,93.87,8.89,0.20988076923076981,-0.648303846153846,20.271057692307693,-0.6792346153846154,-1.023180769230769,92.55669230769232,0.6167615384615388,-0.08342884615384616,8.14948076923077,0.9411718203149891,1.214148728876368,3.311473169233364,3.6471267457328165
H1_walk_slow_20251205_051431,,-9.222,-2.168,-2.4,-9.921,-2.082,-3.764,27.65,98.84,13.23,0.11688076923076984,-0.5813038461538458,25.10105769230769,-0.9732346153846154,-0.8871807692307689,97.52669230769231,0.7337615384615388,-0.629428846153846,12.48948076923077,1.224439760104294,1.2333631059897627,3.482325121436391,3.860424444821013
H1_walk_slow_20251205_051431,34983.0,-9.737,-1.792,-4.625,-8.849,0.711,-8.076,75.11,116.34,34.44,-0.3981192307692307,0.4906961538461534,72.56105769230768,-0.5972346153846153,1.905819230769231,115.02669230769231,-1.4912384615384613,-4.941428846153847,33.69948076923077,1.6549864823899592,5.318895439597451,3.6371686698917283,4.076175012754439
H1_walk_slow_20251205_051431,,-9.265,-1.153,-5.559,-8.976,1.285,-9.002,83.09,116.62,34.65,0.0738807692307688,0.3636961538461527,80.54105769230769,0.041765384615384704,2.479819230769231,115.30669230769232,-2.4252384615384615,-5.867428846153847,33.90948076923077,2.426722957146045,6.380321275162689,3.7824796396573266,4.270340986757794
H1_walk_slow_20251205_051431,,-8.928,-0.756,-6.652,-8.703,1.534,-9.627,87.22,115.36,33.32,0.41088076923076855,0.6366961538461542,84.67105769230768,0.4387653846153847,2.728819230769231,114.04669230769231,-3.5182384615384614,-6.492428846153847,32.57948076923077,3.569221195374262,7.071313082370843,3.9787634736975943,4.477578415530723
H1_walk_slow_20251205_051431,,-8.78,-0.302,-7.42,-8.184,1.469,-10.122,88.2,114.8,31.08,0.55888076923077,1.1556961538461543,85.65105769230769,0.8927653846153847,2.663819230769231,113.48669230769231,-4.286238461538462,-6.987428846153846,30.339480769230768,4.413753266252548,7.566751507370494,4.167880498468879,4.676732765583811
H1_walk_slow_20251205_051431,35059.0,-7.368,1.261,-10.206,-5.346,-1.271,-9.497,39.9,101.71,20.09,1.970880769230769,3.9936961538461535,37.35105769230769,2.4557653846153844,-0.076180769230769,100.3966923076923,-7.072238461538461,-6.362428846153846,19.34948076923077,7.741557432949956,7.512383995857554,4.353488749664853,4.852260906219854
H1_walk_slow_20251205_051431,,-6.71,0.742,-10.227,-6.403,-0.974,-9.404,32.41,95.48,20.02,2.6288807692307694,2.936696153846154,29.86105769230769,1.9367653846153847,0.22081923076923093,94.16669230769232,-7.093238461538462,-6.269428846153846,19.27948076923077,7.8087198775551085,6.926664672818965,4.547917143316912,5.026475033020821
H1_walk_slow_20251205_051431,,-6.09,-0.041,-9.562,-5.664,-0.732,-9.624,26.53,87.08,20.3,3.2488807692307695,3.675696153846154,23.981057692307694,1.1537653846153848,0.4628192307692309,85.76669230769231,-6.428238461538461,-6.489428846153847,19.55948076923077,7.294425990701158,7.472458136722004,4.741179770116577,5.192343850379722
H1_walk_slow_20251205_051431,,-6.389,-0.689,-9.954,-5.114,-0.512,-9.474,23.45,73.85,20.16,2.949880769230769,4.225696153846154,20.901057692307692,0.5057653846153848,0.6828192307692309,72.5366923076923,-6.820238461538462,-6.339428846153846,19.41948076923077,7.44803650965818,7.649255400493956,4.922245649903973,5.353501137735486
H1_walk_slow_20251205_051431,35134.0,-5.322,-0.73,-9.342,-5.166,-1.546,-8.894,20.44,6.3,32.62,4.016880769230769,4.173696153846153,17.891057692307694,0.46476538461538475,-0.35118076923076913,4.986692307692307,-6.208238461538462,-5.759428846153846,31.879480769230767,7.409019015516029,7.121382460675505,5.070615548880533,5.487787133064644
H1_walk_slow_20251205_051431,,-5.355,-1.065,-8.909,-4.824,-1.974,-8.818,14.84,-6.3,32.2,3.983880769230769,4.515696153846154,12.291057692307692,0.12976538461538478,-0.7791807692307691,-7.613307692307693,-5.775238461538462,-5.683428846153846,31.459480769230773,7.0172305310659615,7.300684753794923,5.220239766699583,5.6140473377957285
H1_walk_slow_20251205_051431,,-5.798,-1.259,-8.66,-4.618,-2.139,-8.514,9.59,-21.28,30.38,3.5408807692307693,4.721696153846153,7.041057692307692,-0.06423461538461517,-0.9441807692307689,-22.593307692307693,-5.526238461538462,-5.3794288461538455,29.63948076923077,6.563632701599692,7.219705437555112,5.393365395948548,5.7070593102473754
H1_walk_slow_20251205_051431,,-5.511,-1.374,-8.71,-4.86,-2.51,-8.334,5.67,-36.54,29.26,3.8278807692307693,4.479696153846153,3.121057692307692,-0.17923461538461538,-1.3151807692307689,-37.853307692307695,-5.576238461538463,-5.199428846153846,28.51948076923077,6.766035147022195,6.987949514181908,5.554198504810229,5.792373203894355
H1_walk_slow_20251205_051431,35210.0,-4.867,-2.611,-8.251,-4.872,-1.74,-8.263,-1.75,-92.96,29.12,4.471880769230769,4.467696153846154,-4.2989423076923075,-1.4162346153846155,-0.5451807692307691,-94.27330769230768,-5.117238461538461,-5.128428846153846,28.37948076923077,6.941870610453504,6.82336525655,5.646666600132059,5.807163832218536
H1_walk_slow_20251205_051431,,-4.678,-2.395,-8.212,-5.104,-1.898,-8.023,0.28,-103.95,30.31,4.660880769230769,4.2356961538461535,-2.268942307692308,-1.2002346153846153,-0.703180769230769,-105.26330769230769,-5.0782384615384615,-4.888428846153846,29.56948076923077,6.996633372501463,6.506329355775966,5.722591264659027,5.803545578005409
H1_walk_slow_20251205_051431,,-4.819,-2.008,-8.148,-5.19,-1.89,-8.16,-1.54,-113.75,30.1,4.519880769230769,4.149696153846153,-4.088942307692308,-0.8132346153846153,-0.695180769230769,-115.06330769230769,-5.014238461538461,-5.025428846153846,29.35948076923077,6.79950439788765,6.554249732723725,5.763658787695633,5.632529412732722
H1_walk_slow_20251205_051431,,-4.836,-1.656,-8.074,-5.219,-1.974,-8.059,-7.98,-124.18,29.26,4.502880769230769,4.120696153846153,-10.528942307692308,-0.4612346153846152,-0.7791807692307691,-125.4933076923077,-4.940238461538462,-4.9244288461538455,28.51948076923077,6.700345412678453,6.468172765495185,5.753760227978242,5.427216689217287
H1_walk_slow_20251205_051431,35286.0,-5.3,-2.012,-7.983,-5.76,-1.773,-7.76,-16.59,-163.59,27.86,4.0388807692307696,3.579696153846154,-19.138942307692307,-0.8172346153846153,-0.578180769230769,-164.9033076923077,-4.8492384615384605,-4.625428846153846,27.11948076923077,6.363610920028727,5.877338646581574,5.6708369897798825,5.276272420257393
H1_walk_slow_20251205_051431,,-5.489,-2.0,-8.04,-5.832,-1.749,-7.727,-13.3,-170.31,27.16,3.8498807692307695,3.5076961538461537,-15.848942307692308,-0.8052346153846153,-0.5541807692307692,-171.6233076923077,-4.906238461538461,-4.5924288461538465,26.41948076923077,6.288176251075171,5.805295112195267,5.5656263785099345,5.120090476140562
H1_walk_slow_20251205_051431,,-5.396,-2.008,-7.99,-6.164,-1.625,-7.258,-7.98,-176.05,26.88,3.9428807692307695,3.175696153846154,-10.528942307692308,-0.8132346153846153,-0.4301807692307691,-177.3633076923077,-4.856238461538462,-4.123428846153846,26.13948076923077,6.307987895942338,5.222333482751066,5.356708559982677,4.973749022141045
H1_walk_slow_20251205_051431,,-5.583,-1.931,-7.731,-6.58,-1.211,-7.282,-1.4,-181.09,26.95,3.755880769230769,2.7596961538461535,-3.948942307692308,-0.7362346153846153,-0.016180769230769165,-182.4033076923077,-4.597238461538462,-4.147428846153846,26.20948076923077,5.981913007877711,4.981701588087667,5.164706230433854,4.847092460031602
H1_walk_slow_20251205_051431,35362.0,-6.738,-0.806,-7.499,-6.77,-0.567,-6.451,12.18,-197.61,22.89,2.600880769230769,2.569696153846154,9.631057692307692,0.3887653846153847,0.627819230769231,-198.9233076923077,-4.3652384615384605,-3.316428846153846,22.14948076923077,5.096177599546963,4.2421923107299975,5.020543195680933,4.6544232905301
H1_walk_slow_20251205_051431,,-6.729,-0.766,-7.368,-7.389,-0.402,-6.293,6.51,-200.13,21.84,2.6098807692307693,1.9506961538461534,3.961057692307692,0.4287653846153847,0.7928192307692309,-201.44330769230768,-4.234238461538462,-3.1584288461538463,21.09948076923077,4.9924035027045415,3.795978212993906,4.870485933266609,4.45342893988019
H1_walk_slow_20251205_051431,,-6.674,-0.689,-7.155,-7.667,-0.067,-6.339,1.05,-201.39,20.72,2.664880769230769,1.6726961538461538,-1.4989423076923079,0.5057653846153848,1.127819230769231,-202.70330769230767,-4.021238461538461,-3.2044288461538466,19.97948076923077,4.85054088767916,3.786588553097298,4.713686553604371,4.424003284615032
H1_walk_slow_20251205_051431,,-6.58,-0.708,-7.045,-7.763,0.036,-6.083,-3.71,-202.37,18.9,2.7588807692307693,1.5766961538461537,-6.258942307692308,0.48676538461538477,1.230819230769231,-203.6833076923077,-3.911238461538461,-2.9484288461538464,18.15948076923077,4.811044579039865,3.5628807728040406,4.563255551509297,4.503699786769467
H1_walk_slow_20251205_051431,35437.0,-7.782,0.0,-5.843,-8.126,-0.637,-4.013,-37.1,-202.51,-0.07,1.5568807692307693,1.2136961538461541,-39.64894230769231,1.1947653846153847,0.5578192307692309,-203.82330769230768,-2.7092384615384613,-0.8784288461538461,-0.8105192307692308,3.3453422986826067,1.5987050653050743,4.585194427180832,4.3356484617947775
H1_walk_slow_20251205_051431,,-7.569,-0.01,-5.52,-8.248,-0.869,-3.139,-46.13,-201.11,-5.53,1.7698807692307694,1.0916961538461543,-48.67894230769231,1.1847653846153847,0.3258192307692309,-202.4233076923077,-2.386238461538461,-0.004428846153845978,-6.2705192307692315,3.1984810378054735,1.1392884964484606,4.483693675703933,4.118726018758126
H1_walk_slow_20251205_051431,,-7.552,-0.103,-4.874,-8.576,-1.228,-2.714,-52.5,-198.17,-10.5,1.7868807692307698,0.7636961538461531,-55.04894230769231,1.0917653846153847,-0.03318076923076907,-199.48330769230768,-1.740238461538461,0.42057115384615384,-11.24051923076923,2.7227420813416896,0.8724751425075891,4.374329389208907,3.9335023296105835
H1_walk_slow_20251205_051431,,-7.877,-0.328,-4.482,-8.971,-1.146,-2.161,-56.63,-193.76,-15.05,1.4618807692307696,0.3686961538461535,-59.17894230769231,0.8667653846153847,0.048819230769231,-195.07330769230768,-1.3482384615384615,0.9735711538461538,-15.790519230769231,2.1693604044938684,1.0421904637613881,4.231240355996503,3.7899168466700575
H1_walk_slow_20251205_051431,35513.0,-9.009,-0.983,-1.776,-8.78,-1.371,-0.043,-46.69,-154.7,-32.48,0.32988076923076903,0.5596961538461542,-49.238942307692305,0.21176538461538474,-0.17618076923076909,-156.01330769230768,1.3577615384615387,3.0915711538461537,-33.22051923076923,1.4132170022169384,3.1467620894135866,4.065205207961065,3.6453118277669585
H1_walk_slow_20251205_051431,,-9.234,-0.692,-1.536,-8.631,-1.737,0.256,-48.51,-143.71,-34.37,0.10488076923076939,0.7086961538461534,-51.058942307692305,0.5027653846153848,-0.5421807692307692,-145.0233076923077,1.5977615384615387,3.390571153846154,-35.11051923076923,1.6782773732338991,3.5060209603329016,3.91982250768883,3.495968503804171
H1_walk_slow_20251205_051431,,-8.806,-0.591,-0.969,-8.392,-1.819,0.395,-52.01,-130.69,-33.11,0.5328807692307702,0.9476961538461541,-54.558942307692305,0.6037653846153848,-0.624180769230769,-132.0033076923077,2.164761538461539,3.529571153846154,-33.85051923076923,2.309694151241265,3.7075061918701064,3.7944881603287053,3.3784888123657755
H1_walk_slow_20251205_051431,,-8.653,-0.797,-0.431,-8.323,-1.658,0.323,-54.32,-115.08,-29.68,0.6858807692307689,1.0166961538461532,-56.86894230769231,0.3977653846153847,-0.463180769230769,-116.39330769230769,2.7027615384615387,3.4575711538461538,-30.42051923076923,2.8166593092857006,3.633594057973426,3.667411574321283,3.2801683337797907
H1_walk_slow_20251205_051431,35589.0,-8.253,-1.218,0.242,-8.715,-0.677,-0.809,-38.78,-28.0,-8.33,1.0858807692307693,0.6246961538461537,-41.32894230769231,-0.023234615384615243,0.5178192307692309,-29.313307692307692,3.3757615384615387,2.3255711538461536,-9.07051923076923,3.5461870871251975,2.46305972968297,3.5506284889772357,3.187823777845513
H1_walk_slow_20251205_051431,,-8.229,-0.881,0.22,-9.911,-1.608,-0.816,-32.34,-9.73,-3.78,1.1098807692307702,-0.571303846153846,-34.88894230769231,0.3137653846153847,-0.4131807692307692,-11.043307692307692,3.353761538461539,2.318571153846154,-4.520519230769231,3.5465476868858024,2.4234022835963067,3.430326496162405,3.114966122242708
H1_walk_slow_20251205_051431,,-8.308,-0.651,-0.012,-13.269,-4.058,0.96,-29.54,8.19,-0.98,1.0308807692307695,-3.9293038461538465,-32.08894230769231,0.5437653846153847,-2.8631807692307687,6.876692307692307,3.1217615384615387,4.094571153846154,-1.7205192307692307,3.332235144297817,6.356315423781401,3.3246483096941715,3.0607006335398146
H1_walk_slow_20251205_051431,,-8.373,-0.371,-0.299,-15.231,-5.327,2.871,-31.01,24.92,0.98,0.96588076923077,-5.891303846153846,-33.55894230769231,0.8237653846153847,-4.132180769230769,23.60669230769231,2.8347615384615388,6.005571153846153,0.23948076923076922,3.106024476594025,9.372793809810217,3.2192453197664923,2.9896062647488355
H1_walk_slow_20251205_051431,35665.0,-13.845,-4.025,1.618,-12.02,-2.02,-2.625,-22.96,70.7,14.42,-4.506119230769231,-2.680303846153846,-25.50894230769231,-2.8302346153846156,-0.8251807692307691,69.38669230769231,4.751761538461539,0.5095711538461538,13.67948076923077,7.134043469059602,2.8503709882131982,3.0660712698580315,2.8535525872526883
H1_walk_slow_20251205_051431,,-9.954,-3.056,0.498,-10.232,-0.189,-3.039,-26.53,80.08,18.06,-0.6151192307692313,-0.8923038461538457,-29.07894230769231,-1.8612346153846153,1.0058192307692309,78.76669230769231,3.6317615384615385,0.09557115384615367,17.31948076923077,4.127015608622842,1.347965995228974,2.8984910737943963,2.7451855473491023
H1_walk_slow_20251205_051431,,-10.361,-3.166,0.311,-7.988,0.28,-2.967,-26.46,87.92,24.78,-1.0221192307692313,1.3516961538461532,-29.00894230769231,-1.9712346153846152,1.474819230769231,86.60669230769231,3.4447615384615387,0.16757115384615373,24.03948076923077,4.098399161582815,2.007549338713886,2.786162925071819,2.74500828008133
H1_walk_slow_20251205_051431,,-10.572,-3.25,-0.9,-7.018,0.316,-3.266,-16.24,91.0,22.54,-1.2331192307692298,2.321696153846154,-18.788942307692306,-2.0552346153846153,1.510819230769231,89.68669230769231,2.233761538461539,-0.1314288461538462,21.79948076923077,3.2763185089789584,2.7731067993222847,2.6706941264699315,2.784660764070608
H1_walk_slow_20251205_051431,35741.0,-7.53,0.12,-4.212,-8.179,0.175,-5.276,-14.91,88.27,13.3,1.8088807692307691,1.1606961538461533,-17.458942307692308,1.3147653846153848,1.369819230769231,86.95669230769231,-1.078238461538461,-2.141428846153846,12.55948076923077,2.4825905489662543,2.794519241243161,2.6617691452183485,2.853511105784607
H1_walk_slow_20251205_051431,,-7.911,0.141,-5.303,-8.844,0.596,-4.932,-16.87,82.6,15.54,1.4278807692307698,0.4956961538461542,-19.41894230769231,1.3357653846153847,1.7908192307692308,81.2866923076923,-2.1692384615384612,-1.7974288461538466,14.799480769230769,2.9203952056003466,2.5852463424626904,2.6666577686840887,2.9168568948730718
H1_walk_slow_20251205_051431,,-7.999,0.203,-5.561,-9.787,1.208,-4.547,-11.48,78.26,21.7,1.3398807692307697,-0.4473038461538472,-14.028942307692308,1.3977653846153848,2.402819230769231,76.94669230769232,-2.4272384615384612,-1.412428846153846,20.95948076923077,3.1049178886655007,2.8228666691832873,2.699218843980483,2.881681505010425
H1_walk_slow_20251205_051431,,-7.978,0.072,-5.468,-10.579,1.586,-4.269,-2.03,75.53,26.53,1.3608807692307696,-1.239303846153847,-4.578942307692308,1.2667653846153848,2.780819230769231,74.21669230769231,-2.3342384615384613,-1.1344288461538463,25.78948076923077,2.9841850148821765,3.2489626689596856,2.7247904621735177,2.8200470432356237
H1_walk_slow_20251205_051431,35816.0,-10.715,1.692,-3.824,-8.892,1.223,-4.518,-0.7,56.77,14.49,-1.3761192307692305,0.44769615384615413,-3.2489423076923076,2.8867653846153845,2.417819230769231,55.45669230769231,-0.6902384615384611,-1.383428846153846,13.74948076923077,3.2716276769971073,2.821375028459832,2.6979386669383243,2.753703240432218
H1_walk_slow_20251205_051431,,-10.201,1.472,-3.673,-9.117,1.464,-4.688,-14.7,55.65,11.41,-0.8621192307692311,0.2226961538461527,-17.248942307692307,2.6667653846153847,2.6588192307692307,54.3366923076923,-0.5392384615384613,-1.553428846153846,10.66948076923077,2.8540611946921075,3.0874025424147438,2.645349939869994,2.676373756167239
H1_walk_slow_20251205_051431,,-9.395,1.079,-3.719,-9.048,1.261,-4.513,-24.85,53.62,7.98,-0.0561192307692302,0.29169615384615355,-27.39894230769231,2.273765384615385,2.455819230769231,52.3066923076923,-0.5852384615384612,-1.378428846153846,7.23948076923077,2.348544751372897,2.8312896044547684,2.5774563267767068,2.640426056314842
H1_walk_slow_20251205_051431,,-9.04,0.794,-4.147,-8.976,0.51,-4.003,-30.45,49.84,3.5,0.2988807692307702,0.3636961538461527,-32.99894230769231,1.9887653846153848,1.704819230769231,48.52669230769231,-1.0132384615384615,-0.8684288461538463,2.7594807692307692,2.2519257645848776,1.9475246244284505,2.5249050765358083,2.599629285149912
H1_walk_slow_20251205_051431,35892.0,-9.189,-0.495,-3.625,-9.258,-1.134,-3.362,-61.95,33.81,-2.17,0.14988076923076932,0.08169615384615447,-64.49894230769232,0.6997653846153847,0.060819230769231014,32.49669230769231,-0.4912384615384613,-0.2274288461538463,-2.9105192307692307,0.8680155900591872,0.24919293819746458,2.457827708136799,2.396889686555726
H1_walk_slow_20251205_051431,,-9.55,-1.077,-3.518,-9.533,-0.627,-3.577,-55.09,33.32,-1.75,-0.21111923076923134,-0.19330384615384588,-57.63894230769231,0.11776538461538477,0.5678192307692309,32.006692307692305,-0.3842384615384611,-0.44242884615384614,-2.4905192307692308,0.45395948138533787,0.7453377353108149,2.411215459528703,2.0686081475612426
H1_walk_slow_20251205_051431,,-9.665,-1.218,-3.405,-9.538,0.17,-3.934,-45.36,33.32,0.35,-0.3261192307692298,-0.19830384615384666,-47.90894230769231,-0.023234615384615243,1.3648192307692308,32.006692307692305,-0.2712384615384611,-0.7994288461538464,-0.3905192307692308,0.42481043189561196,1.594096116342987,2.2059006194706674,1.9944105216979664
H1_walk_slow_20251205_051431,,-9.265,-1.256,-3.305,-9.404,0.677,-4.231,-34.51,34.02,4.62,0.0738807692307688,-0.06430384615384632,-37.058942307692305,-0.061234615384615276,1.871819230769231,32.70669230769231,-0.17123846153846145,-1.096428846153846,3.8794807692307693,0.1962922741563993,2.1702530801696716,2.105799593768465,1.9846183455437973
H1_walk_slow_20251205_051431,35967.0,-9.277,0.842,-4.566,-9.469,0.768,-4.929,-7.49,31.71,8.12,0.06188076923077013,-0.12930384615384583,-10.038942307692308,2.036765384615385,1.962819230769231,30.39669230769231,-1.4322384615384611,-1.7944288461538465,7.379480769230769,2.490692568800515,2.662584027071581,1.992189462502366,1.946187485958324
H1_walk_slow_20251205_051431,,-9.162,0.598,-4.558,-9.282,0.845,-4.886,-10.57,30.31,8.33,0.17688076923076856,0.057696153846153564,-13.118942307692308,1.7927653846153846,2.039819230769231,28.996692307692307,-1.4242384615384611,-1.7514288461538463,7.58948076923077,2.2964646146031207,2.6891809800614777,1.9043773343183164,1.8769679333224358
H1_walk_slow_20251205_051431,,-9.265,0.33,-4.8,-9.229,0.414,-4.678,-10.15,28.56,7.7,0.0738807692307688,0.11069615384615439,-12.698942307692308,1.5247653846153848,1.6088192307692308,27.246692307692307,-1.6662384615384611,-1.5434288461538461,6.959480769230769,2.259804959923199,2.2322019529847705,1.848256633598159,1.821134059798029
H1_walk_slow_20251205_051431,,-9.466,0.39,-4.855,-9.344,0.069,-4.558,-6.65,26.53,6.3,-0.12711923076922993,-0.004303846153845825,-9.198942307692308,1.5847653846153849,1.2638192307692309,25.21669230769231,-1.7212384615384617,-1.423428846153846,5.559480769230769,2.3431394462527835,1.9035249541880757,1.776616619424097,1.7901622286205503
H1_walk_slow_20251205_051431,36043.0,-9.32,-0.124,-4.338,-9.177,0.613,-3.932,0.14,17.64,4.62,0.01888076923076909,0.162696153846154,-2.4089423076923078,1.0707653846153846,1.807819230769231,16.32669230769231,-1.2042384615384614,-0.7974288461538461,3.8794807692307693,1.6115474751262522,1.982567318981537,1.738195796782018,1.7346056365064928
H1_walk_slow_20251205_051431,,-9.38,-0.141,-4.128,-9.055,0.321,-3.64,2.66,16.59,4.27,-0.04111923076923141,0.2846961538461539,0.11105769230769225,1.0537653846153847,1.5158192307692309,15.276692307692308,-0.9942384615384614,-0.5054288461538463,3.529480769230769,1.4493524055091052,1.6230274670839753,1.7128085479072725,1.665550909824107
H1_walk_slow_20251205_051431,,-9.533,0.309,-4.068,-9.251,0.297,-3.455,2.1,14.28,2.94,-0.1941192307692301,0.08869615384615415,-0.4489423076923078,1.5037653846153847,1.4918192307692308,12.966692307692307,-0.9342384615384609,-0.32042884615384626,2.199480769230769,1.7809531466997226,1.5284195335206514,1.6612484005875419,1.6213889421905623
H1_walk_slow_20251205_051431,,-9.287,0.735,-4.147,-9.466,0.151,-3.307,-1.05,12.32,2.59,0.051880769230768564,-0.1263038461538457,-3.598942307692308,1.9297653846153846,1.345819230769231,11.006692307692308,-1.0132384615384615,-0.17242884615384613,1.849480769230769,2.1802151806224463,1.3626862333081249,1.6072671962097886,1.5630628418032941
H1_walk_slow_20251205_051431,36119.0,-9.383,0.373,-3.384,-9.177,-0.122,-3.135,-9.8,10.29,1.96,-0.044119230769229745,0.162696153846154,-12.348942307692308,1.5677653846153847,1.0728192307692308,8.976692307692307,-0.2502384615384612,-0.00042884615384597424,1.2194807692307692,1.5882235659235855,1.0850858603325542,1.5733497985730442,1.51402848105151
H1_walk_slow_20251205_051431,,-9.014,0.656,-3.372,-9.21,-0.371,-3.058,-8.75,10.29,2.8,0.32488076923077003,0.12969615384615274,-11.298942307692307,1.8507653846153849,0.8238192307692309,8.976692307692307,-0.23823846153846118,0.07657115384615398,2.059480769230769,1.8941060127835303,0.8374737959536547,1.5370108003759997,1.5024892133590673
H1_walk_slow_20251205_051431,,-9.086,0.57,-3.35,-9.332,-0.275,-3.185,-8.4,11.2,3.43,0.2528807692307691,0.007696153846152853,-10.948942307692308,1.7647653846153846,0.9198192307692309,9.886692307692307,-0.21623846153846138,-0.05042884615384624,2.6894807692307694,1.7958576275506788,0.9212327157680255,1.5546209056937268,1.5707813644221191
H1_walk_slow_20251205_051431,,-9.241,0.316,-3.312,-9.296,-0.105,-3.211,-10.15,11.9,3.5,0.09788076923076972,0.04369615384615422,-12.698942307692308,1.5107653846153848,1.089819230769231,10.586692307692308,-0.17823846153846112,-0.07642884615384604,2.7594807692307692,1.5243889403655735,1.0933694152205802,1.5900442099051504,1.635043966385943
H1_walk_slow_20251205_051431,36195.0,-9.172,-0.074,-3.295,-9.038,-0.27,-3.4,-2.52,17.22,5.53,0.16688076923076878,0.30169615384615334,-5.068942307692308,1.1207653846153847,0.9248192307692309,15.906692307692307,-0.16123846153846122,-0.2654288461538461,4.789480769230769,1.1445357486642407,1.0083469894915718,1.682054226657533,1.671928273051686
H1_walk_slow_20251205_051431,,-9.232,-0.237,-3.374,-9.213,-0.232,-3.068,-3.57,17.85,5.32,0.10688076923077006,0.1266961538461544,-6.118942307692308,0.9577653846153847,0.9628192307692309,16.53669230769231,-0.2402384615384614,0.06657115384615375,4.57948076923077,0.9932031761936647,0.9733984307891965,1.7726486512269217,1.6839003953221492
H1_walk_slow_20251205_051431,,-9.143,-0.244,-3.458,-9.275,0.117,-2.855,-3.57,18.27,5.04,0.1958807692307687,0.06469615384615324,-6.118942307692308,0.9507653846153847,1.311819230769231,16.956692307692308,-0.3242384615384615,0.27957115384615383,4.299480769230769,1.0234523302421596,1.3428385296085794,1.7675754018816006,1.6724146470348846
H1_walk_slow_20251205_051431,,-9.1,-0.232,-3.501,-9.414,0.512,-2.635,-3.15,18.97,5.88,0.23888076923076973,-0.07430384615384611,-5.698942307692308,0.9627653846153847,1.706819230769231,17.656692307692307,-0.3672384615384612,0.499571153846154,5.139480769230769,1.0577548370747496,1.7799787318482492,1.7710306032282557,1.6769450879808607
H1_walk_slow_20251205_051431,36270.0,-9.418,0.83,-2.56,-9.1,0.16,-3.051,2.66,26.11,6.23,-0.07911923076922989,0.23969615384615395,0.11105769230769225,2.024765384615385,1.3548192307692308,24.796692307692307,0.5737615384615387,0.08357115384615366,5.48948076923077,2.105976499971439,1.3783952742177938,1.8224266032110314,1.6357969815979172
H1_walk_slow_20251205_051431,,-9.332,1.094,-2.73,-9.301,0.258,-3.159,0.77,27.58,5.25,0.006880769230768635,0.038696153846153436,-1.7789423076923079,2.2887653846153846,1.452819230769231,26.266692307692306,0.4037615384615387,-0.024428846153845996,4.50948076923077,2.3241165441387928,1.453539775217656,1.8481240796118976,1.6155157490843846
H1_walk_slow_20251205_051431,,-9.194,0.723,-2.96,-9.227,0.452,-3.408,-1.26,29.26,4.9,0.14488076923076854,0.11269615384615328,-3.808942307692308,1.9177653846153846,1.6468192307692309,27.94669230769231,0.17376153846153874,-0.2734288461538461,4.15948076923077,1.9310638466841052,1.6731638699876652,1.8487552738115078,1.5935307967229027
H1_walk_slow_20251205_051431,,-9.129,0.235,-3.008,-9.107,0.28,-3.623,-0.98,30.94,4.83,0.20988076923076981,0.23269615384615427,-3.528942307692308,1.4297653846153846,1.474819230769231,29.62669230769231,0.1257615384615387,-0.4884288461538464,4.08948076923077,1.450549880870524,1.5709239323457762,1.8327991806786825,1.5815217656227403
H1_walk_slow_20251205_051431,36346.0,-9.0,0.098,-3.738,-9.34,0.172,-3.879,0.91,35.91,4.2,0.3388807692307694,-0.00030384615384626557,-1.6389423076923078,1.2927653846153848,1.3668192307692308,34.5966923076923,-0.6042384615384613,-0.7444288461538462,3.4594807692307694,1.4666924128175505,1.5563962249083696,1.7996986786316853,1.543678413133372
H1_walk_slow_20251205_051431,,-9.014,-0.091,-3.754,-9.366,0.031,-4.235,2.24,37.31,4.41,0.32488076923077003,-0.026303846153846067,-0.3089423076923077,1.1037653846153848,1.2258192307692308,35.99669230769231,-0.6202384615384613,-1.1004288461538465,3.6694807692307694,1.3071118114617137,1.6475036644249506,1.7465437944012439,1.4957886937051024
H1_walk_slow_20251205_051431,,-9.045,-0.031,-3.697,-9.538,0.007,-4.752,4.41,38.71,4.9,0.29388076923076945,-0.19830384615384666,1.8610576923076922,1.1637653846153848,1.2018192307692308,37.396692307692305,-0.5632384615384614,-1.617428846153846,4.15948076923077,1.32587832832009,2.0247888658368103,1.7159872768783395,1.4673391426126703
H1_walk_slow_20251205_051431,,-9.127,0.05,-3.678,-9.584,-0.072,-5.26,7.28,40.11,5.32,0.2118807692307687,-0.24430384615384604,4.731057692307692,1.2447653846153848,1.1228192307692308,38.796692307692304,-0.5442384615384612,-2.125428846153846,4.57948076923077,1.3749653908823525,2.4161653863702375,1.6728319378149743,1.45661644825457
H1_walk_slow_20251205_051431,36421.0,-9.919,-0.124,-5.674,-9.653,0.763,-4.743,17.85,44.73,7.63,-0.5801192307692311,-0.3133038461538469,15.301057692307694,1.0707653846153846,1.957819230769231,43.4166923076923,-2.5402384615384617,-1.6084288461538465,6.889480769230769,2.8170708674575633,2.553088089652296,1.6338691075827478,1.5310757350207873
H1_walk_slow_20251205_051431,,-9.639,-0.342,-5.52,-9.471,0.928,-4.413,20.93,44.38,8.47,-0.30011923076922997,-0.1313038461538465,18.381057692307692,0.8527653846153846,2.122819230769231,43.06669230769231,-2.386238461538461,-1.2784288461538464,7.72948076923077,2.5517473129605093,2.48152825920172,1.618208517668379,1.5845674732653499
H1_walk_slow_20251205_051431,,-9.591,-0.263,-5.286,-9.524,0.94,-4.133,26.53,44.87,9.03,-0.25211923076922993,-0.18430384615384554,23.981057692307694,0.9317653846153847,2.1348192307692306,43.5566923076923,-2.152238461538461,-0.9984288461538462,8.289480769230769,2.358788085822159,2.3639545716027053,1.6425526586495134,1.6168814958313205
H1_walk_slow_20251205_051431,,-9.794,0.144,-5.056,-9.777,1.421,-4.054,31.22,45.92,7.77,-0.4551192307692311,-0.43730384615384565,28.67105769230769,1.3387653846153846,2.615819230769231,44.606692307692306,-1.9222384615384613,-0.9194288461538465,7.029480769230769,2.38629984961616,2.806972444656853,1.7104879811669944,1.6311026666087973
H1_walk_slow_20251205_051431,36497.0,-10.124,2.134,-4.245,-9.586,-0.292,-3.824,18.13,49.0,-0.63,-0.7851192307692312,-0.2463038461538467,15.581057692307692,3.3287653846153846,0.9028192307692309,47.686692307692304,-1.1112384615384614,-0.689428846153846,-1.3705192307692307,3.5961009594753657,1.162351187028235,1.7175081290287249,1.7910450457979994
H1_walk_slow_20251205_051431,,-10.103,1.469,-4.312,-9.615,-0.005,-3.769,12.04,50.33,-2.66,-0.7641192307692304,-0.2753038461538466,9.491057692307692,2.6637653846153846,1.189819230769231,49.0166923076923,-1.1782384615384616,-0.6344288461538463,-3.400519230769231,3.011273832675306,1.3762129088362332,1.7408759540066623,1.9682187300651452
H1_walk_slow_20251205_051431,,-9.746,0.038,-4.116,-9.524,0.041,-3.79,8.05,52.43,-4.06,-0.40711923076923107,-0.18430384615384554,5.501057692307693,1.2327653846153848,1.2358192307692308,51.116692307692304,-0.982238461538461,-0.6554288461538462,-4.800519230769231,1.6279585243161112,1.4109585575830057,1.7595072712296231,2.177439622192519
H1_walk_slow_20251205_051431,,-9.531,-0.577,-3.941,-9.517,-0.132,-3.881,11.62,54.46,-3.71,-0.1921192307692312,-0.17730384615384587,9.071057692307692,0.6177653846153848,1.062819230769231,53.146692307692305,-0.8072384615384611,-0.746428846153846,-4.450519230769231,1.0344939840556526,1.3107926584797491,1.82150421168551,2.407521649553791
H1_walk_slow_20251205_051431,36573.0,-9.562,-0.637,-3.831,-9.526,-0.775,-3.427,17.64,65.66,-5.67,-0.22311923076923001,-0.1863038461538462,15.091057692307693,0.5577653846153847,0.4198192307692309,64.34669230769231,-0.6972384615384613,-0.29242884615384623,-6.41051923076923,0.9203400934777977,0.5444923687970793,2.0478931966058123,2.685265535224739
H1_walk_slow_20251205_051431,,-9.703,-0.881,-3.771,-9.373,-1.117,-3.053,19.74,68.74,-5.18,-0.36411923076923003,-0.03330384615384574,17.19105769230769,0.3137653846153847,0.07781923076923092,67.4266923076923,-0.6372384615384612,0.08157115384615388,-5.92051923076923,0.798188190630957,0.11755352817311246,2.30154705662802,2.9597502753220835
H1_walk_slow_20251205_051431,,-9.619,-0.725,-3.709,-9.261,-1.271,-2.807,22.47,71.19,-3.85,-0.2801192307692304,0.07869615384615436,19.92105769230769,0.46976538461538475,-0.076180769230769,69.87669230769231,-0.5752384615384614,0.3275711538461539,-4.590519230769231,0.7937541103280799,0.34539753192932615,2.5605172069447835,3.222637261182396
H1_walk_slow_20251205_051431,,-9.509,-0.601,-3.597,-9.227,-1.237,-2.589,24.29,73.92,-2.45,-0.17011923076923097,0.11269615384615328,21.74105769230769,0.5937653846153848,-0.04218076923076919,72.60669230769231,-0.46323846153846127,0.5455711538461538,-3.190519230769231,0.7720671971360337,0.5586837426430439,2.859261271528074,3.4913083596518457
H1_walk_slow_20251205_051431,36649.0,-9.093,-1.469,-2.443,-10.22,-2.582,-0.797,28.28,92.82,7.14,0.2458807692307694,-0.880303846153847,25.731057692307694,-0.27423461538461535,-1.387180769230769,91.5066923076923,0.6907615384615386,2.3375711538461537,6.3994807692307685,0.7828240415127876,2.857174171689672,3.150878573392729,3.6759523966218373
H1_walk_slow_20251205_051431,,-9.026,-1.78,-2.235,-10.297,-2.101,-1.029,30.73,98.0,11.9,0.3128807692307696,-0.957303846153847,28.181057692307693,-0.5852346153846153,-0.9061807692307691,96.68669230769231,0.8987615384615388,2.105571153846154,11.15948076923077,1.117213602591988,2.4841546095792104,3.415800415151735,3.870418894564984
H1_walk_slow_20251205_051431,,-9.206,-2.187,-1.665,-10.225,-1.883,-1.665,36.68,104.3,16.66,0.13288076923076986,-0.885303846153846,34.13105769230769,-0.9922346153846151,-0.6881807692307691,102.98669230769231,1.4687615384615387,1.4695711538461538,15.91948076923077,1.7774834141737363,1.8485115762068036,3.5871602683409236,4.0751019220289475
H1_walk_slow_20251205_051431,,-9.636,-2.718,-0.852,-9.727,-2.027,-2.154,46.83,110.6,21.35,-0.29711923076922986,-0.3873038461538467,44.28105769230769,-1.5232346153846152,-0.8321807692307692,109.2866923076923,2.281761538461539,0.9805711538461539,20.60948076923077,2.7595215616481754,1.3431488710036037,3.7514492695019688,4.288230345050886
H1_walk_slow_20251205_051431,36725.0,-9.749,-2.3,-3.388,-9.476,0.723,-8.289,80.57,131.46,45.29,-0.4101192307692312,-0.13630384615384727,78.02105769230768,-1.105234615384615,1.917819230769231,130.14669230769232,-0.2542384615384612,-5.154428846153846,44.54948076923077,1.2059761746471476,5.501340388527825,3.981681726628573,4.4990350857088215
H1_walk_slow_20251205_051431,,-9.402,-2.173,-4.48,-9.923,1.079,-9.074,88.13,133.28,48.86,-0.06311923076922987,-0.5833038461538465,85.58105769230768,-0.9782346153846153,2.273819230769231,131.9666923076923,-1.3462384615384617,-5.939428846153846,48.11948076923077,1.6653182865011211,6.386494522794038,4.2064532240987385,4.697925925613071
H1_walk_slow_20251205_051431,,-8.6,-1.307,-5.614,-10.292,1.218,-9.44,97.58,135.17,47.53,0.7388807692307697,-0.9523038461538462,95.03105769230768,-0.11223461538461521,2.412819230769231,133.8566923076923,-2.480238461538461,-6.305428846153846,46.78948076923077,2.5903907477684247,6.818138469529513,4.380093900074916,4.961896867903145
H1_walk_slow_20251205_051431,,-8.823,-0.103,-6.88,-10.062,1.414,-10.06,103.95,136.99,43.12,0.515880769230769,-0.7223038461538458,101.40105769230769,1.0917653846153847,2.608819230769231,135.67669230769232,-3.746238461538461,-6.925428846153847,42.37948076923077,3.936036995991852,7.43567248661073,4.564538521003258,5.197145529276076
H1_walk_slow_20251205_051431,36800.0,-8.952,1.644,-10.407,-6.011,-0.428,-11.347,54.88,116.9,23.52,0.3868807692307694,3.3286961538461535,52.331057692307695,2.8387653846153844,0.766819230769231,115.58669230769232,-7.273238461538462,-8.212428846153845,22.77948076923077,7.817177454611958,8.894504897432316,4.7883291121218345,5.426368289806292
H1_walk_slow_20251205_051431,,-8.155,1.634,-10.572,-5.575,-1.419,-10.983,41.09,104.58,19.53,1.18388076923077,3.7646961538461534,38.541057692307696,2.8287653846153846,-0.22418076923076913,103.26669230769231,-7.438238461538461,-7.848428846153847,18.78948076923077,8.045550241447922,8.707527174876729,5.037823451948579,5.652718629802204
H1_walk_slow_20251205_051431,,-7.715,1.426,-10.732,-5.427,-1.697,-10.541,27.09,89.95,17.57,1.6238807692307695,3.912696153846154,24.541057692307692,2.6207653846153844,-0.5021807692307692,88.63669230769231,-7.598238461538461,-7.406428846153847,16.82948076923077,8.199916321053411,8.3914578572765,5.288104192437054,5.8933643196741
H1_walk_slow_20251205_051431,,-7.188,0.933,-11.689,-4.697,-1.627,-10.4,15.12,73.29,17.43,2.1508807692307697,4.6426961538461535,12.571057692307692,2.127765384615385,-0.4321807692307691,71.97669230769232,-8.555238461538462,-7.2654288461538465,16.68948076923077,9.07445749062726,8.632952224630644,5.537359369261219,6.154818587325784
H1_walk_slow_20251205_051431,36876.0,-4.348,-1.62,-10.5,-4.999,-0.797,-8.387,21.84,13.93,25.69,4.9908807692307695,4.340696153846154,19.291057692307692,-0.4252346153846154,0.39781923076923087,12.616692307692308,-7.366238461538462,-5.252428846153847,24.94948076923077,8.907928176801121,6.82553382705658,5.773095483068496,6.322522848046393
H1_walk_slow_20251205_051431,,-4.451,-1.424,-9.792,-4.532,-1.098,-8.854,26.88,3.85,27.09,4.88788076923077,4.807696153846154,24.33105769230769,-0.2292346153846152,0.09681923076923082,2.5366923076923076,-6.6582384615384616,-5.719428846153845,26.34948076923077,8.262933276616517,7.4722943328920435,5.996985865805422,6.470170019869199
H1_walk_slow_20251205_051431,,-5.243,-1.163,-9.143,-3.932,-1.436,-8.854,28.35,-11.48,24.92,4.095880769230769,5.407696153846153,25.801057692307694,0.031765384615384695,-0.24118076923076903,-12.793307692307692,-6.009238461538462,-5.719428846153845,24.17948076923077,7.272427050376466,7.8748468037153545,6.221140996257698,6.503133566637905
H1_walk_slow_20251205_051431,,-5.592,-0.976,-8.832,-3.721,-1.486,-8.854,22.33,-32.34,20.65,3.7468807692307697,5.6186961538461535,19.78105769230769,0.21876538461538475,-0.2911807692307691,-33.6533076923077,-5.6982384615384625,-5.719428846153845,19.90948076923077,6.823261343147681,8.022867257772129,6.399706056661662,6.5203792317436235
H1_walk_slow_20251205_051431,36952.0,-3.369,-1.728,-8.94,-3.766,-2.084,-8.583,-8.12,-113.05,20.72,5.96988076923077,5.573696153846154,-10.668942307692307,-0.5332346153846153,-0.8891807692307692,-114.36330769230769,-5.806238461538461,-5.448428846153846,19.97948076923077,8.344831971113873,7.844877828709033,6.415842786438433,6.478356314551723
H1_walk_slow_20251205_051431,,-3.242,-2.056,-8.595,-3.721,-1.711,-8.775,-12.25,-125.02,22.4,6.096880769230769,5.6186961538461535,-14.798942307692307,-0.8612346153846153,-0.5161807692307692,-126.33330769230768,-5.461238461538462,-5.6404288461538465,21.65948076923077,8.230358783840451,7.978134282167331,6.359683640010402,6.4713266175780495
H1_walk_slow_20251205_051431,,-3.396,-2.383,-8.524,-3.795,-1.048,-8.935,-11.41,-137.27,20.86,5.9428807692307695,5.544696153846154,-13.958942307692308,-1.1882346153846153,0.14681923076923087,-138.5833076923077,-5.390238461538461,-5.800428846153847,20.11948076923077,8.11075853485601,8.025595686570165,6.365408868552939,6.317909003252597
H1_walk_slow_20251205_051431,,-3.752,-2.412,-8.449,-4.31,-0.488,-8.643,-7.7,-150.29,17.85,5.58688076923077,5.029696153846154,-10.248942307692309,-1.2172346153846152,0.7068192307692309,-151.60330769230768,-5.315238461538462,-5.508428846153847,17.10948076923077,7.806833976812167,7.4926781045324375,6.32847285559355,6.161606874957267
H1_walk_slow_20251205_051431,37028.0,-4.566,-0.287,-8.777,-4.714,-1.039,-8.871,-13.65,-196.14,15.19,4.7728807692307695,4.625696153846153,-16.19894230769231,0.9077653846153848,0.155819230769231,-197.45330769230767,-5.643238461538461,-5.736428846153847,14.44948076923077,7.446513893399098,7.370750331368616,6.331350252537645,6.041572697452137
H1_walk_slow_20251205_051431,,-4.413,-0.476,-8.772,-4.855,-1.043,-8.76,-24.36,-203.77,14.56,4.925880769230769,4.484696153846153,-26.908942307692307,0.7187653846153848,0.15181923076923098,-205.0833076923077,-5.638238461538462,-5.625428846153846,13.81948076923077,7.521346819551032,7.195901498373476,6.290641085827937,5.905524520948602
H1_walk_slow_20251205_051431,,-4.424,-0.763,-8.686,-5.224,-0.981,-8.545,-30.87,-210.42,12.53,4.914880769230769,4.115696153846153,-33.41894230769231,0.4317653846153847,0.21381923076923093,-211.73330769230768,-5.552238461538462,-5.410428846153846,11.789480769230769,7.427639346178131,6.801280305466347,6.124645870966034,5.702605896641727
H1_walk_slow_20251205_051431,,-4.664,-1.015,-8.71,-5.532,-0.749,-8.89,-33.18,-217.07,9.94,4.67488076923077,3.8076961538461536,-35.72894230769231,0.17976538461538483,0.4458192307692309,-218.38330769230768,-5.576238461538463,-5.755428846153847,9.19948076923077,7.278822788059236,6.915364487116949,5.952457628480098,5.500223220833793
H1_walk_slow_20251205_051431,37103.0,-5.296,-0.538,-8.715,-7.169,-0.244,-7.2,-16.94,-238.91,0.07,4.042880769230769,2.170696153846154,-19.48894230769231,0.6567653846153847,0.9508192307692309,-240.22330769230769,-5.581238461538462,-4.065428846153846,-0.6705192307692307,6.922893069317277,4.7057083106651305,5.759993271223735,5.63159064093207
H1_walk_slow_20251205_051431,,-5.657,-0.366,-8.54,-7.53,-0.273,-7.035,-15.89,-240.59,-1.96,3.6818807692307693,1.8096961538461533,-18.438942307692308,0.8287653846153847,0.9218192307692309,-241.9033076923077,-5.406238461538461,-3.9004288461538463,-2.7005192307692307,6.593217148296103,4.397510210035966,5.509695232793007,5.517992512094772
H1_walk_slow_20251205_051431,,-5.894,0.01,-8.646,-7.576,-0.479,-6.324,-17.78,-243.25,-4.2,3.4448807692307692,1.763696153846154,-20.32894230769231,1.2047653846153847,0.7158192307692309,-244.5633076923077,-5.5122384615384625,-3.189428846153846,-4.940519230769231,6.610857433271977,3.714226387676043,5.269467048188836,5.403816167094184
H1_walk_slow_20251205_051431,,-6.145,0.067,-7.758,-7.865,-0.859,-5.647,-17.36,-241.43,-3.99,3.19388076923077,1.4746961538461534,-19.908942307692307,1.2617653846153847,0.3358192307692309,-242.7433076923077,-4.624238461538461,-2.5124288461538464,-4.7305192307692305,5.75990517309507,2.9325419023279142,5.366654087618043,5.268956581323768
H1_walk_slow_20251205_051431,37179.0,-8.284,-0.814,-5.023,-9.354,-0.854,-2.46,-38.08,-225.96,-6.23,1.0548807692307687,-0.014303846153845612,-40.628942307692306,0.3807653846153848,0.34081923076923093,-227.2733076923077,-1.889238461538461,0.6745711538461538,-6.970519230769231,2.1970383883697644,0.7559157292173874,5.262153291859709,5.061232073251913
H1_walk_slow_20251205_051431,,-8.279,-1.113,-3.881,-9.495,-0.529,-2.197,-41.37,-216.93,-6.23,1.0598807692307695,-0.15530384615384563,-43.918942307692305,0.08176538461538474,0.6658192307692309,-218.2433076923077,-0.7472384615384611,0.9375711538461537,-6.970519230769231,1.299383754519378,1.1603767496880986,5.157390335825022,4.867652373216583
H1_walk_slow_20251205_051431,,-8.033,-1.173,-3.494,-9.129,-0.263,-1.962,-38.85,-205.73,-8.33,1.30588076923077,0.21069615384615403,-41.39894230769231,0.021765384615384686,0.9318192307692309,-207.04330769230768,-0.3602384615384615,1.1725711538461538,-9.07051923076923,1.3548321167531423,1.5124824160660593,4.961792833756637,4.70124290293616
H1_walk_slow_20251205_051431,,-8.811,-1.106,-2.675,-8.684,-0.05,-1.223,-29.68,-193.13,-12.39,0.5278807692307694,0.6556961538461543,-32.22894230769231,0.08876538461538463,1.1448192307692309,-194.44330769230768,0.4587615384615389,1.9115711538461537,-13.13051923076923,0.7049819495569969,2.3226391871154695,4.744217666390421,4.519654362808414
H1_walk_slow_20251205_051431,37254.0,-8.538,-0.481,-0.694,-7.727,-1.292,0.191,-41.86,-118.09,-16.59,0.8008807692307691,1.6126961538461533,-44.40894230769231,0.7137653846153847,-0.09718076923076913,-119.40330769230769,2.4397615384615388,3.3255711538461536,-17.33051923076923,2.665203068314876,3.6972498543961154,4.53789228930881,4.272939939623668
H1_walk_slow_20251205_051431,,-8.488,-1.165,-0.385,-7.542,-0.981,0.318,-49.0,-99.82,-14.91,0.8508807692307698,1.7976961538461538,-51.54894230769231,0.029765384615384693,0.21381923076923093,-101.13330769230768,2.7487615384615385,3.452571153846154,-15.65051923076923,2.8775986615394253,3.898419897518809,4.322800694158887,4.038187471030643
H1_walk_slow_20251205_051431,,-8.224,-1.704,0.146,-7.712,-1.103,0.096,-50.26,-80.01,-11.83,1.1148807692307692,1.6276961538461538,-52.808942307692305,-0.5092346153846152,0.09181923076923093,-81.3233076923077,3.2797615384615386,3.230571153846154,-12.57051923076923,3.50130186820247,3.6186206654535487,4.115076733945369,3.8086895483286685
H1_walk_slow_20251205_051431,,-8.038,-1.771,0.139,-7.727,-0.89,-0.105,-48.44,-59.78,-9.03,1.3008807692307691,1.6126961538461533,-50.988942307692305,-0.5762346153846152,0.3048192307692309,-61.0933076923077,3.2727615384615385,3.029571153846154,-9.77051923076923,3.5686559368136104,3.4455776038704506,3.8920219603205486,3.5911534404489043
H1_walk_slow_20251205_051431,37330.0,-7.7,-0.723,-0.431,-17.485,-6.961,3.175,-47.32,40.95,3.85,1.6388807692307692,-8.145303846153846,-49.86894230769231,0.47176538461538475,-5.766180769230769,39.63669230769231,2.7027615384615387,6.309571153846154,3.1094807692307693,3.195843032387968,11.807010779831739,3.6867154812855776,3.379706121374769
H1_walk_slow_20251205_051431,,-8.253,-0.771,-0.847,-12.682,-3.116,1.036,-49.98,56.63,7.35,1.0858807692307693,-3.342303846153847,-52.528942307692304,0.4237653846153847,-1.9211807692307692,55.31669230769231,2.2867615384615387,4.170571153846154,6.609480769230769,2.5667084914283538,5.6794008748608835,3.5066378382411587,3.124676549800723
H1_walk_slow_20251205_051431,,-10.945,-1.893,-1.129,-8.047,-0.981,0.493,-56.14,64.82,10.29,-1.606119230769231,1.292696153846153,-58.68894230769231,-0.6982346153846153,0.21381923076923093,63.5066923076923,2.0047615384615387,3.6275711538461537,9.549480769230769,2.6619953770926656,3.856948857041288,3.3464214549936364,2.9660720472636553
H1_walk_slow_20251205_051431,,-16.614,-6.236,3.037,-8.11,-1.742,0.596,-60.41,55.86,16.03,-7.275119230769231,1.2296961538461542,-62.958942307692304,-5.0412346153846155,-0.5471807692307691,54.546692307692304,6.170761538461539,3.730571153846154,15.28948076923077,10.789796301775887,3.9659451028612365,3.1831863204310986,2.824573286714527
H1_walk_slow_20251205_051431,37406.0,-10.299,-3.707,0.543,-8.107,0.763,-4.011,-57.4,71.33,15.68,-0.9601192307692301,1.2326961538461543,-59.948942307692306,-2.512234615384615,1.957819230769231,70.01669230769231,3.676761538461539,-0.8764288461538463,14.93948076923077,4.555406360659787,2.4740095938470987,2.978668402322557,2.7734673665553355
H1_walk_slow_20251205_051431,,-12.386,-1.969,-0.503,-7.392,0.555,-4.578,-38.01,80.15,16.52,-3.04711923076923,1.9476961538461532,-40.558942307692305,-0.7742346153846154,1.7498192307692308,78.83669230769232,2.6307615384615386,-1.4434288461538465,15.77948076923077,4.099424486245837,2.989795056853554,2.843623748944277,2.7336002109649593
H1_walk_slow_20251205_051431,,-11.63,0.821,-1.989,-7.239,0.4,-5.463,-24.5,88.55,17.36,-2.2911192307692314,2.1006961538461537,-27.048942307692307,2.015765384615385,1.594819230769231,87.23669230769231,1.1447615384615386,-2.3284288461538463,16.61948076923077,3.2592969173358592,3.5182316014180643,2.8723022953758295,2.780947265238476
H1_walk_slow_20251205_051431,,-9.923,1.309,-3.245,-7.676,-0.275,-5.779,-27.58,93.87,18.62,-0.5841192307692307,1.6636961538461534,-30.128942307692306,2.5037653846153844,0.9198192307692309,92.55669230769232,-0.1112384615384614,-2.644428846153846,17.87948076923077,2.573404432318812,3.256832238845892,2.9348883747843924,2.8217496804456323
H1_walk_slow_20251205_051431,37482.0,-8.21,-0.957,-5.626,-10.026,-0.163,-4.164,-19.46,70.14,20.86,1.1288807692307685,-0.6863038461538462,-22.00894230769231,0.23776538461538477,1.0318192307692309,68.82669230769231,-2.4922384615384616,-1.0294288461538459,20.11948076923077,2.7462987307341407,1.6110206837667878,2.975928205402602,2.848621690175661
H1_walk_slow_20251205_051431,,-8.614,-1.165,-5.226,-9.916,-0.005,-3.561,-1.33,67.69,25.48,0.7248807692307686,-0.5763038461538468,-3.878942307692308,0.029765384615384693,1.189819230769231,66.37669230769231,-2.0922384615384613,-0.42642884615384613,24.73948076923077,2.2144525029141446,1.3891139211137802,3.049183135329982,2.8383018133628783
H1_walk_slow_20251205_051431,,-9.383,-0.993,-5.169,-9.663,0.146,-3.396,13.23,63.91,26.81,-0.044119230769229745,-0.32330384615384666,10.681057692307693,0.20176538461538474,1.3408192307692308,62.5966923076923,-2.035238461538461,-0.2614288461538461,26.06948076923077,2.0456909278476316,1.403804341117306,3.04542045114931,2.771817846699034
H1_walk_slow_20251205_051431,,-9.835,-0.701,-4.707,-9.074,0.299,-3.398,21.42,59.22,26.74,-0.4961192307692315,0.26569615384615375,18.871057692307694,0.4937653846153848,1.4938192307692308,57.9066923076923,-1.5732384615384611,-0.2634288461538463,25.999480769230768,1.7219227053057105,1.5399626934996065,3.031629668952972,2.695988509504586
H1_walk_slow_20251205_051431,37557.0,-8.914,0.802,-3.58,-9.244,0.072,-3.427,-9.17,50.12,11.48,0.4248807692307697,0.09569615384615382,-11.718942307692307,1.9967653846153848,1.266819230769231,48.8066923076923,-0.44623846153846136,-0.29242884615384623,10.73948076923077,2.0896708912689026,1.303650009538819,2.9767519362559898,2.6313432390396154
H1_walk_slow_20251205_051431,,-9.146,1.34,-3.664,-9.146,-1.024,-3.015,-18.2,46.9,9.87,0.19288076923076858,0.1936961538461528,-20.748942307692307,2.534765384615385,0.1708192307692309,45.5866923076923,-0.5302384615384614,0.11957115384615369,9.129480769230769,2.5968040689043344,0.2845956261917685,2.9285441124249556,2.570823726609489
H1_walk_slow_20251205_051431,,-9.627,1.474,-3.764,-9.373,-1.474,-2.625,-30.1,43.33,8.75,-0.2881192307692313,-0.03330384615384574,-32.64894230769231,2.6687653846153845,-0.27918076923076907,42.0166923076923,-0.6302384615384611,0.5095711538461538,8.00948076923077,2.7572671048817017,0.5819912447013472,2.893692660047746,2.189485269297923
H1_walk_slow_20251205_051431,,-9.564,1.106,-3.551,-9.6,-1.18,-2.465,-40.11,40.25,8.4,-0.22511923076923068,-0.26030384615384605,-42.65894230769231,2.300765384615385,0.014819230769230973,38.936692307692304,-0.41723846153846145,0.669571153846154,7.65948076923077,2.3491036496701234,0.7185424357586313,2.8785103983821476,2.0422789021794467
H1_walk_slow_20251205_051431,37633.0,-9.761,-0.084,-2.623,-9.44,0.948,-4.178,14.35,38.36,18.55,-0.42211923076922986,-0.10030384615384591,11.801057692307692,1.1107653846153847,2.1428192307692306,37.046692307692304,0.5107615384615385,-1.0434288461538461,17.80948076923077,1.2933915624498897,2.3854724635370745,2.8444188396458054,1.9544825269303803
H1_walk_slow_20251205_051431,,-9.794,0.995,-2.9,-9.359,0.354,-4.228,21.0,38.29,17.29,-0.4551192307692311,-0.019303846153846393,18.451057692307693,2.189765384615385,1.5488192307692308,36.9766923076923,0.2337615384615388,-1.093428846153846,16.54948076923077,2.248744185259774,1.8959958569781354,2.4917749734193553,1.8698753827328856
H1_walk_slow_20251205_051431,,-9.677,1.716,-3.403,-9.258,0.352,-4.379,16.52,37.52,15.54,-0.33811923076923023,0.08169615384615447,13.971057692307692,2.9107653846153845,1.546819230769231,36.20669230769231,-0.2692384615384613,-1.2444288461538457,14.799480769230769,2.9426805955901365,1.9869391403288028,2.3745202193748236,1.8416711439137425
H1_walk_slow_20251205_051431,,-9.519,1.646,-3.814,-9.239,0.572,-4.477,5.04,36.4,14.28,-0.18011923076923075,0.10069615384615282,2.491057692307692,2.8407653846153846,1.7668192307692308,35.0866923076923,-0.6802384615384613,-1.3424288461538465,13.539480769230769,2.9266218191420132,2.221239545074176,2.2739280745156387,1.783249736830661
H1_walk_slow_20251205_051431,37708.0,-9.323,0.811,-4.491,-9.27,0.426,-4.637,5.11,28.0,9.38,0.015880769230768976,0.06969615384615402,2.5610576923076924,2.0057653846153847,1.6208192307692308,26.686692307692308,-1.357238461538461,-1.5024288461538458,8.63948076923077,2.4218677128266006,2.2111546690468047,2.189326878308779,1.6927972301687928
H1_walk_slow_20251205_051431,,-9.435,1.029,-4.496,-9.249,0.187,-4.652,7.7,25.97,9.45,-0.09611923076923112,0.09069615384615304,5.151057692307692,2.2237653846153846,1.381819230769231,24.656692307692307,-1.3622384615384617,-1.5174288461538463,8.709480769230769,2.6096101276688732,2.0543223899831173,2.1263342399116474,1.6027079344714823
H1_walk_slow_20251205_051431,,-9.481,0.957,-4.527,-9.368,0.115,-4.604,8.75,23.87,9.03,-0.1421192307692305,-0.028303846153846735,6.2010576923076925,2.1517653846153846,1.309819230769231,22.55669230769231,-1.3932384615384614,-1.4694288461538463,8.289480769230769,2.5673732796174167,1.9686667211361664,2.0596263824141463,1.5743876843350297
H1_walk_slow_20251205_051431,,-9.488,0.806,-4.657,-9.418,0.323,-4.319,7.28,21.84,8.26,-0.14911923076923017,-0.07830384615384567,4.731057692307692,2.000765384615385,1.5178192307692309,20.526692307692308,-1.5232384615384613,-1.1844288461538461,7.5194807692307695,2.519038324434627,1.926857130463158,2.0212876814332654,1.5507518131306395
H1_walk_slow_20251205_051431,37784.0,-9.421,0.637,-4.104,-9.409,0.732,-3.329,10.29,14.56,5.53,-0.08211923076923,-0.0693038461538471,7.741057692307692,1.8317653846153847,1.926819230769231,13.246692307692308,-0.9702384615384614,-0.19442884615384637,4.789480769230769,2.0744808180809478,1.937843633364303,1.977615847827032,1.572333496141712
H1_walk_slow_20251205_051431,,-9.411,0.993,-3.888,-9.342,0.677,-3.104,7.63,13.23,4.48,-0.07211923076923021,-0.0023038461538469335,5.0810576923076916,2.1877653846153846,1.871819230769231,11.916692307692308,-0.7542384615384612,0.03057115384615372,3.7394807692307697,2.315252517206698,1.8720702806871596,1.959789699842627,1.586715589969921
H1_walk_slow_20251205_051431,,-9.318,1.027,-3.687,-9.273,0.696,-3.106,4.34,12.18,3.5,0.020880769230769758,0.0666961538461539,1.791057692307692,2.2217653846153844,1.8908192307692309,10.866692307692308,-0.5532384615384611,0.02857115384615394,2.7594807692307692,2.28970527058053,1.8922108897310352,1.9360437544200406,1.6052667953248103
H1_walk_slow_20251205_051431,,-9.378,0.936,-3.553,-9.222,0.651,-3.039,2.31,11.06,3.08,-0.03911923076923074,0.11769615384615406,-0.23894230769230784,2.1307653846153847,1.845819230769231,9.746692307692308,-0.4192384615384612,0.09557115384615367,2.3394807692307693,2.1719696881228017,1.8520353297805034,1.9062048190314491,1.6636776702339882
H1_walk_slow_20251205_051431,37860.0,-9.234,0.562,-2.898,-9.301,0.251,-2.513,-0.84,10.57,1.61,0.10488076923076939,0.038696153846153436,-3.3889423076923078,1.7567653846153848,1.445819230769231,9.256692307692308,0.23576153846153858,0.6215711538461539,0.8694807692307693,1.7756148499477669,1.5742431005655562,1.8736260762599681,1.7095424344987626
H1_walk_slow_20251205_051431,,-9.294,0.385,-2.773,-9.627,0.409,-2.453,-1.89,11.2,1.54,0.04488076923076889,-0.2873038461538471,-4.438942307692308,1.5797653846153847,1.603819230769231,9.886692307692307,0.3607615384615386,0.681571153846154,0.7994807692307693,1.6210557798881802,1.7661593537263784,1.848140161874966,1.7507989429366688
H1_walk_slow_20251205_051431,,-9.371,0.256,-2.728,-9.55,0.419,-2.517,-3.78,11.69,0.98,-0.032119230769231066,-0.21030384615384712,-6.328942307692308,1.4507653846153847,1.613819230769231,10.376692307692307,0.4057615384615385,0.6175711538461539,0.23948076923076922,1.506782755501969,1.7406993845493723,1.8575577540128263,1.7302730166017264
H1_walk_slow_20251205_051431,,-9.244,0.189,-2.606,-9.363,0.112,-2.46,-6.3,12.39,0.63,0.0948807692307696,-0.023303846153845953,-8.848942307692308,1.3837653846153848,1.306819230769231,11.076692307692309,0.5277615384615388,0.6745711538461538,-0.11051923076923076,1.4840287199070228,1.4708384726934423,1.8269884985398797,1.7319073239768414
H1_walk_slow_20251205_051431,37936.0,-9.292,-0.359,-2.484,-9.241,-0.038,-3.022,-19.11,18.41,-0.14,0.04688076923076956,0.09869615384615393,-21.658942307692307,0.8357653846153847,1.1568192307692309,17.096692307692308,0.6497615384615387,0.11257115384615402,-0.8805192307692308,1.059665815957501,1.1664664282094848,1.793586285351111,1.7160751784175585
H1_walk_slow_20251205_051431,,-9.196,-0.481,-2.546,-9.194,-0.292,-3.139,-15.47,20.37,0.91,0.14288076923076964,0.14569615384615275,-18.01894230769231,0.7137653846153847,0.9028192307692309,19.05669230769231,0.5877615384615389,-0.004428846153845978,0.16948076923076927,0.9355958339933967,0.9145105507158252,1.7670968433617875,1.6972888360670502
H1_walk_slow_20251205_051431,,-9.215,-0.318,-2.644,-9.048,-0.388,-3.305,-10.57,22.26,1.75,0.12388076923076952,0.29169615384615355,-13.118942307692308,0.8767653846153847,0.8068192307692309,20.94669230769231,0.4897615384615386,-0.17042884615384635,1.0094807692307692,1.0118944357991024,0.8746941802190202,1.759270930682869,1.6946993000108668
H1_walk_slow_20251205_051431,,-9.256,-0.017,-2.836,-9.095,-0.5,-3.374,-7.91,23.73,2.1,0.08288076923076915,0.24469615384615295,-10.458942307692308,1.1777653846153848,0.6948192307692309,22.41669230769231,0.29776153846153885,-0.2394288461538463,1.3594807692307693,1.217646277411257,0.7745812697996306,1.7340465782445706,1.7075653933448325
H1_walk_slow_20251205_051431,38012.0,-9.179,-0.347,-3.424,-9.139,0.742,-3.398,4.69,30.24,4.83,0.1598807692307691,0.20069615384615425,2.1410576923076925,0.8477653846153848,1.936819230769231,28.926692307692306,-0.2902384615384612,-0.2634288461538463,4.08948076923077,0.9102232540855604,1.9649280994051923,1.7572298607673558,1.6736434057263443
H1_walk_slow_20251205_051431,,-9.308,0.031,-3.417,-9.088,0.67,-3.484,8.54,31.29,5.32,0.030880769230769545,0.2516961538461544,5.991057692307692,1.2257653846153846,1.864819230769231,29.976692307692307,-0.2832384615384611,-0.3494288461538462,4.57948076923077,1.2584428577111715,1.9138971330330432,1.8126292146634186,1.660154860720444
H1_walk_slow_20251205_051431,,-9.392,0.263,-3.333,-9.048,0.479,-3.685,9.8,32.2,5.25,-0.053119230769230086,0.29169615384615355,7.251057692307693,1.4577653846153846,1.6738192307692308,30.88669230769231,-0.19923846153846148,-0.5504288461538462,4.50948076923077,1.4722763102816563,1.7859813487659362,1.8283321224330809,1.6499687820071265
H1_walk_slow_20251205_051431,,-9.229,0.61,-3.35,-9.182,0.371,-4.015,9.52,32.62,5.32,0.10988076923077017,0.1576961538461532,6.971057692307692,1.8047653846153846,1.565819230769231,31.306692307692305,-0.21623846153846138,-0.8804288461538459,4.57948076923077,1.8209917488009613,1.803278373830399,1.80152601796085,1.6146210047306135
H1_walk_slow_20251205_051431,38087.0,-9.237,0.278,-4.346,-9.325,0.313,-4.07,3.71,36.05,4.69,0.10188076923076927,0.014696153846154303,1.161057692307692,1.4727653846153848,1.5078192307692309,34.7366923076923,-1.2122384615384614,-0.9354288461538465,3.9494807692307696,1.9102197928231952,1.7744751155854797,1.7428679402218796,1.590493289322715
H1_walk_slow_20251205_051431,,-9.22,-0.077,-4.391,-9.442,0.419,-3.905,3.85,36.82,4.69,0.11888076923076873,-0.10230384615384658,1.3010576923076922,1.1177653846153848,1.613819230769231,35.506692307692305,-1.2572384615384613,-0.770428846153846,3.9494807692307696,1.6864698756600651,1.7912116551441957,1.6988394054144225,1.5481894107362684
H1_walk_slow_20251205_051431,,-9.191,-0.318,-4.389,-9.485,0.512,-3.838,5.88,37.73,5.04,0.14788076923076865,-0.14530384615384584,3.331057692307692,0.8767653846153847,1.706819230769231,36.4166923076923,-1.2552384615384615,-0.7034288461538463,4.299480769230769,1.5382489580342613,1.851798378828565,1.691158489705113,1.5036651211433922
H1_walk_slow_20251205_051431,,-9.268,-0.211,-4.202,-9.459,0.586,-3.891,9.73,38.36,5.04,0.07088076923076869,-0.11930384615384604,7.181057692307693,0.9837653846153848,1.780819230769231,37.046692307692304,-1.0682384615384612,-0.7564288461538462,4.299480769230769,1.4539435429631578,1.9384878487311328,1.6905408321858397,1.4482958392594372
H1_walk_slow_20251205_051431,38163.0,-9.665,0.744,-3.795,-9.395,-0.067,-4.233,6.65,40.6,3.36,-0.3261192307692298,-0.05530384615384598,4.101057692307693,1.9387653846153847,1.127819230769231,39.286692307692306,-0.6612384615384612,-1.0984288461538458,2.619480769230769,2.0742230526821617,1.5753033557874423,1.6435004728282432,1.4542450351946046
H1_walk_slow_20251205_051431,,-9.619,0.921,-3.807,-9.335,0.115,-4.269,6.37,41.23,3.01,-0.2801192307692304,0.00469615384615274,3.821057692307692,2.1157653846153845,1.309819230769231,39.9166923076923,-0.6732384615384612,-1.1344288461538463,2.269480769230769,2.2378963274195938,1.732794643960961,1.5993286552494133,1.4810116671749964
H1_walk_slow_20251205_051431,,-9.507,0.835,-4.013,-9.392,0.383,-4.585,5.04,42.42,2.45,-0.1681192307692303,-0.05230384615384587,2.491057692307692,2.0297653846153847,1.577819230769231,41.106692307692306,-0.8792384615384612,-1.4504288461538462,1.7094807692307694,2.2183939831747197,2.143826731586037,1.58561863544337,1.5097025313567478
H1_walk_slow_20251205_051431,,-9.483,0.464,-4.156,-9.517,0.593,-4.709,4.27,44.17,2.03,-0.14411923076923117,-0.17730384615384587,1.7210576923076917,1.6587653846153847,1.7878192307692309,42.856692307692306,-1.022238461538461,-1.5744288461538458,1.289480769230769,1.9537769642731126,2.388840816666226,1.5981405548240746,1.523508860258608
H1_walk_slow_20251205_051431,38239.0,-9.957,1.424,-4.81,-9.454,-1.328,-4.207,20.51,51.38,1.75,-0.6181192307692314,-0.11430384615384703,17.961057692307694,2.6187653846153847,-0.13318076923076916,50.06669230769231,-1.676238461538461,-1.072428846153846,1.0094807692307692,3.1701386252098405,1.0866950430554707,1.5977525773973509,1.6524322210232065
H1_walk_slow_20251205_051431,,-10.613,2.005,-5.087,-9.636,0.031,-4.08,18.69,51.87,-0.35,-1.2741192307692302,-0.29630384615384564,16.141057692307694,3.1997653846153846,1.2258192307692308,50.5566923076923,-1.953238461538461,-0.9454288461538463,-1.0905192307692309,3.9594215257322567,1.5761549603097482,1.6019130737231644,1.8179693858172439
H1_walk_slow_20251205_051431,,-10.318,0.129,-4.992,-9.627,0.23,-3.963,12.18,53.27,-3.15,-0.9791192307692302,-0.2873038461538471,9.631057692307692,1.3237653846153847,1.424819230769231,51.95669230769231,-1.8582384615384613,-0.8284288461538463,-3.8905192307692307,2.482756420092167,1.6730055868180504,1.6499676935845295,1.9565449252266762
H1_walk_slow_20251205_051431,,-9.677,-1.826,-4.585,-9.201,-0.517,-3.79,13.72,55.65,-3.29,-0.33811923076923023,0.13869615384615308,11.171057692307693,-0.6312346153846153,0.6778192307692309,54.3366923076923,-1.4512384615384613,-0.6554288461538462,-4.030519230769231,1.6182938009287,0.9530280714978284,1.717720423290654,2.121541516586983
H1_walk_slow_20251205_051431,38315.0,-9.052,-0.706,-3.647,-9.241,-0.007,-3.558,24.92,65.52,-3.78,0.28688076923076977,0.09869615384615393,22.371057692307694,0.48876538461538477,1.187819230769231,64.20669230769231,-0.5132384615384611,-0.423428846153846,-4.520519230769231,0.7645952493672907,1.2648902891256653,1.9191089404372113,2.3904805736925745
H1_walk_slow_20251205_051431,,-9.229,-0.282,-3.592,-9.373,-0.519,-3.463,24.85,67.27,-4.34,0.10988076923077017,-0.03330384615384574,22.301057692307694,0.9127653846153847,0.6758192307692309,65.95669230769231,-0.4582384615384614,-0.32842884615384627,-5.08051923076923,1.0272277831289187,0.7521344865328945,2.121402959521271,2.6630644967451027
H1_walk_slow_20251205_051431,,-9.284,0.285,-3.673,-9.49,-0.816,-3.221,22.33,68.81,-5.46,0.05488076923076868,-0.15030384615384662,19.78105769230769,1.4797653846153846,0.37881923076923096,67.49669230769231,-0.5392384615384613,-0.08642884615384627,-6.200519230769231,1.5759110415057205,0.41661157115077385,2.3437260798516935,2.9162632285581127
H1_walk_slow_20251205_051431,,-9.361,0.321,-3.661,-9.502,-0.916,-3.084,16.31,70.56,-6.86,-0.02211923076923128,-0.16230384615384708,13.761057692307691,1.5157653846153847,0.2788192307692309,69.24669230769231,-0.5272384615384613,0.05057115384615374,-7.6005192307692315,1.6049966843870709,0.3265580247435494,2.597753849330902,3.1406582160392773
H1_walk_slow_20251205_051431,38390.0,-9.45,-0.986,-2.977,-9.562,-2.371,-1.665,8.19,85.12,-0.77,-0.11111923076922992,-0.2223038461538458,5.641057692307692,0.20876538461538474,-1.176180769230769,83.80669230769232,0.15676153846153884,1.4695711538461538,-1.5105192307692308,0.2837334122044554,1.8953784788637313,2.8341101500821915,3.3535837105688437
H1_walk_slow_20251205_051431,,-9.244,-1.158,-2.814,-9.811,-2.62,-1.572,9.24,89.04,3.01,0.0948807692307696,-0.47130384615384635,6.691057692307693,0.03676538461538481,-1.4251807692307692,87.72669230769232,0.31976153846153865,1.5625711538461537,2.269480769230769,0.33556146285744703,2.166770904183623,3.064003948301123,3.5759294177158476
H1_walk_slow_20251205_051431,,-9.119,-1.299,-2.474,-9.931,-2.414,-1.785,12.81,94.08,7.49,0.2198807692307696,-0.5913038461538456,10.261057692307693,-0.1042346153846152,-1.2191807692307692,92.76669230769231,0.6597615384615385,1.349571153846154,6.74948076923077,0.7032053010003763,1.9124288969350207,3.26410757552682,3.8073285118022286
H1_walk_slow_20251205_051431,,-9.296,-1.84,-2.051,-9.703,-2.235,-2.496,20.02,99.4,12.67,0.04288076923077,-0.3633038461538458,17.471057692307692,-0.6452346153846154,-1.040180769230769,98.08669230769232,1.0827615384615386,0.6385711538461538,11.92948076923077,1.2611657378917145,1.2734751021641924,3.4522037512102988,4.034192916733415
H1_walk_slow_20251205_051431,38466.0,-9.296,-2.19,-3.24,-8.77,0.361,-7.023,72.31,122.22,40.11,0.04288076923077,0.569696153846154,69.76105769230769,-0.9952346153846152,1.555819230769231,120.90669230769231,-0.1062384615384615,-3.888428846153846,39.36948076923077,1.0018070227042954,4.226701560098583,3.664578444883567,4.2433639094905455
H1_walk_slow_20251205_051431,,-8.703,-1.826,-4.111,-9.474,0.596,-7.885,82.46,125.37,43.4,0.63588076923077,-0.1343038461538466,79.91105769230768,-0.6312346153846153,1.7908192307692308,124.05669230769232,-0.9772384615384611,-4.750428846153846,42.65948076923077,1.3258191818824079,5.0785475544445955,3.8907117033157537,4.438007253261384
H1_walk_slow_20251205_051431,,-8.222,-1.333,-4.977,-9.825,0.5,-8.416,90.65,128.31,44.1,1.1168807692307698,-0.4853038461538457,88.10105769230769,-0.13823461538461523,1.694819230769231,126.99669230769231,-1.8432384615384616,-5.281428846153847,43.35948076923077,2.159643370481044,5.567892124050435,4.074689346443559,4.677733840749012
H1_walk_slow_20251205_051431,,-8.397,-0.462,-5.908,-10.033,0.395,-9.091,94.78,131.32,42.63,0.9418807692307691,-0.6933038461538459,92.23105769230769,0.7327653846153848,1.589819230769231,130.0066923076923,-2.7742384615384617,-5.9564288461538455,41.88948076923077,3.0200138300704134,6.20380850840103,4.209643366508454,4.899351604583355
H1_walk_slow_20251205_051431,38541.0,-9.258,0.845,-9.524,-6.358,1.0,-11.094,74.34,122.22,31.36,0.08088076923077026,2.981696153846154,71.79105769230769,2.039765384615385,2.194819230769231,120.90669230769231,-6.390238461538461,-7.959428846153846,30.61948076923077,6.70837775609215,8.778396833511307,4.38907256590501,5.0853739491599095
H1_walk_slow_20251205_051431,,-8.61,1.11,-9.789,-5.528,-0.73,-11.153,67.9,111.44,26.95,0.7288807692307699,3.811696153846154,65.35105769230769,2.3047653846153846,0.46481923076923093,110.12669230769231,-6.655238461538461,-8.018428846153846,26.20948076923077,7.080636244986503,8.890460373196124,4.595631529167628,5.298491258397229
H1_walk_slow_20251205_051431,,-8.052,1.476,-10.23,-5.571,-1.855,-10.565,56.84,97.65,23.52,1.2868807692307698,3.768696153846154,54.291057692307696,2.6707653846153847,-0.6601807692307691,96.33669230769232,-7.096238461538462,-7.430428846153846,22.77948076923077,7.6906209214141805,8.357642142723753,4.82086393214933,5.490740599225121
H1_walk_slow_20251205_051431,,-7.301,1.878,-10.56,-5.937,-2.096,-9.899,41.79,83.79,22.75,2.037880769230769,3.4026961538461533,39.24105769230769,3.0727653846153844,-0.9011807692307692,82.47669230769232,-7.426238461538462,-6.764428846153845,22.00948076923077,8.291191882119499,7.625481329654477,5.027158986190769,5.707832577592146
H1_walk_slow_20251205_051431,38617.0,-5.877,-1.651,-9.978,-5.047,0.055,-9.016,35.7,27.79,32.2,3.4618807692307696,4.292696153846154,33.151057692307695,-0.4562346153846153,1.2498192307692308,26.476692307692307,-6.8442384615384615,-5.881428846153846,31.459480769230773,7.683512777567779,7.387861236597282,5.213942635042443,5.901558438088723
H1_walk_slow_20251205_051431,,-5.599,-0.637,-9.531,-4.362,-0.378,-8.978,43.54,12.32,32.62,3.739880769230769,4.9776961538461535,40.99105769230769,0.5577653846153847,0.8168192307692309,11.006692307692308,-6.397238461538462,-5.843428846153846,31.879480769230767,7.4311822966553756,7.719476234553229,5.385045947347669,6.091007032406515
H1_walk_slow_20251205_051431,,-5.678,0.081,-9.292,-4.267,-0.9,-8.775,40.81,-5.04,28.98,3.6608807692307694,5.072696153846153,38.261057692307695,1.2757653846153847,0.2948192307692309,-6.353307692307693,-6.1582384615384616,-5.6404288461538465,28.23948076923077,7.276917360550283,7.591679802033363,5.58718357076035,6.20700652175773
H1_walk_slow_20251205_051431,,-5.494,0.196,-8.973,-4.228,-1.34,-8.799,28.7,-24.78,23.94,3.8448807692307696,5.111696153846154,26.151057692307692,1.3907653846153847,-0.14518076923076917,-26.093307692307693,-5.8392384615384625,-5.664428846153846,23.19948076923077,7.128396895190043,7.631269172171808,5.787882764923361,6.274223185406729
H1_walk_slow_20251205_051431,38693.0,-3.649,-1.687,-8.358,-4.02,-1.981,-8.48,-10.15,-102.2,19.88,5.689880769230769,5.319696153846154,-12.698942307692308,-0.4922346153846153,-0.7861807692307692,-103.51330769230769,-5.224238461538462,-5.345428846153847,19.13948076923077,7.740136018679693,7.58227254327141,5.876888127814505,6.207797724200139
H1_walk_slow_20251205_051431,,-3.632,-1.811,-8.464,-4.233,-1.603,-8.543,-9.17,-115.43,19.32,5.70688076923077,5.106696153846154,-11.718942307692307,-0.6162346153846152,-0.40818076923076907,-116.7433076923077,-5.330238461538462,-5.4084288461538454,18.57948076923077,7.8332416835099705,7.44956775470805,5.917610703246113,6.2023277091432565
H1_walk_slow_20251205_051431,,-3.379,-2.151,-8.313,-4.704,-1.225,-8.799,-7.49,-127.68,17.85,5.95988076923077,4.635696153846154,-10.038942307692308,-0.9562346153846151,-0.030180769230769178,-128.9933076923077,-5.179238461538462,-5.664428846153846,17.10948076923077,7.953557346532796,7.319586317733754,5.943304771144695,6.091659383518533
H1_walk_slow_20251205_051431,,-3.944,-2.106,-8.217,-4.716,-1.094,-8.832,-4.13,-140.35,15.68,5.394880769230769,4.623696153846153,-6.678942307692308,-0.9112346153846151,0.10081923076923083,-141.66330769230768,-5.083238461538462,-5.697428846153847,14.93948076923077,7.468226047419496,7.338216820002702,5.929424264039493,5.960172059446853
H1_walk_slow_20251205_051431,38769.0,-4.805,-1.424,-8.655,-5.611,-1.764,-8.44,-12.11,-189.84,17.36,4.53388076923077,3.728696153846154,-14.658942307692307,-0.2292346153846152,-0.5691807692307691,-191.1533076923077,-5.521238461538461,-5.305428846153846,16.61948076923077,7.1479156044026375,6.509586545808463,5.924403109653795,5.904392112010831
H1_walk_slow_20251205_051431,,-4.826,-1.67,-8.449,-5.676,-1.766,-8.466,-14.98,-195.86,17.99,4.51288076923077,3.6636961538461534,-17.528942307692308,-0.4752346153846152,-0.5711807692307691,-197.1733076923077,-5.315238461538462,-5.3314288461538455,17.249480769230768,6.988826845756763,6.494078111668158,5.925513243095011,5.849159576897449
H1_walk_slow_20251205_051431,,-5.106,-1.91,-8.174,-5.918,-1.649,-8.361,-14.84,-201.81,17.5,4.2328807692307695,3.4216961538461534,-17.388942307692307,-0.7152346153846152,-0.4541807692307691,-203.1233076923077,-5.040238461538461,-5.226428846153847,16.75948076923077,6.620637726891545,6.263373150650826,5.813427910811759,5.693972746857214
H1_walk_slow_20251205_051431,,-5.396,-1.912,-8.112,-5.918,-1.374,-8.536,-12.81,-208.04,16.31,3.9428807692307695,3.4216961538461534,-15.358942307692308,-0.7172346153846152,-0.1791807692307692,-209.35330769230768,-4.978238461538462,-5.401428846153846,15.569480769230768,6.390899188206348,6.396525924075549,5.6977767609324035,5.522728430780952
H1_walk_slow_20251205_051431,38845.0,-5.86,-1.086,-8.543,-6.743,-0.012,-7.782,-4.48,-227.5,11.76,3.478880769230769,2.5966961538461533,-7.028942307692308,0.10876538461538465,1.182819230769231,-228.8133076923077,-5.409238461538461,-4.647428846153846,11.01948076923077,6.432285911649231,5.453483944061795,5.565239005986351,5.298126924564093
H1_walk_slow_20251205_051431,,-6.19,-0.828,-8.291,-7.105,-0.043,-7.746,-3.99,-228.48,10.5,3.148880769230769,2.234696153846153,-6.538942307692308,0.36676538461538477,1.151819230769231,-229.79330769230768,-5.157238461538462,-4.611428846153847,9.75948076923077,6.053682804322921,5.252221477006126,5.393524028796337,5.39494736923443
H1_walk_slow_20251205_051431,,-6.671,-0.491,-7.937,-6.954,0.017,-7.253,-7.77,-230.23,8.61,2.667880769230769,2.385696153846154,-10.318942307692307,0.7037653846153847,1.2118192307692308,-231.54330769230768,-4.803238461538461,-4.118428846153846,7.869480769230769,5.53931162093419,4.911365201995324,5.22129252666671,5.549766190887975
H1_walk_slow_20251205_051431,,-6.817,-0.153,-7.971,-7.277,-0.29,-6.336,-15.4,-232.54,6.09,2.521880769230769,2.0626961538461535,-17.94894230769231,1.0417653846153847,0.9048192307692309,-233.85330769230768,-4.837238461538462,-3.2014288461538465,5.3494807692307695,5.553740511095724,3.9144041590576064,5.026268396823704,5.457092640607853
H1_walk_slow_20251205_051431,38920.0,-7.696,-0.701,-5.616,-9.229,-1.189,-2.986,-47.39,-227.78,-11.34,1.6428807692307696,0.11069615384615439,-49.93894230769231,0.4937653846153848,0.005819230769230854,-229.0933076923077,-2.482238461538461,0.1485711538461536,-12.08051923076923,3.0173447361701133,0.1853669055636806,4.883069808213229,5.251601046866933
H1_walk_slow_20251205_051431,,-7.834,-0.962,-4.884,-9.505,-1.074,-2.022,-50.4,-222.67,-15.61,1.5048807692307697,-0.1653038461538472,-52.948942307692306,0.23276538461538476,0.12081923076923085,-223.98330769230768,-1.7502384615384616,1.112571153846154,-16.35051923076923,2.3199526991135535,1.1312547106852133,4.723039680136164,5.075184922374143
H1_walk_slow_20251205_051431,,-7.999,-1.22,-4.13,-9.605,-0.969,-1.831,-49.63,-215.95,-18.97,1.3398807692307697,-0.26530384615384683,-52.17894230769231,-0.025234615384615244,0.22581923076923094,-217.26330769230768,-0.9962384615384612,1.3035711538461539,-19.71051923076923,1.6698527880674299,1.3493250938558226,4.593850302157345,4.912302380147813
H1_walk_slow_20251205_051431,,-8.442,-1.371,-3.443,-9.251,-0.945,-1.496,-44.59,-207.69,-23.52,0.8968807692307692,0.08869615384615415,-47.13894230769231,-0.17623461538461527,0.24981923076923096,-209.0033076923077,-0.30923846153846135,1.6385711538461538,-24.26051923076923,0.964925997147146,1.659877128580892,4.444309266341279,4.769121892127477
H1_walk_slow_20251205_051431,38996.0,-9.184,-1.096,-1.113,-7.751,-1.673,0.634,-42.91,-148.89,-30.31,0.1548807692307701,1.5886961538461533,-45.458942307692304,0.09876538461538464,-0.47818076923076913,-150.20330769230767,2.0207615384615387,3.7685711538461537,-31.05051923076923,2.0290933564528726,4.1176134907138895,4.284576709898274,4.56958903774887
H1_walk_slow_20251205_051431,,-8.794,-1.816,-0.199,-7.432,-0.988,1.23,-47.04,-133.49,-27.58,0.5448807692307689,1.9076961538461532,-49.58894230769231,-0.6212346153846153,0.20681923076923092,-134.8033076923077,2.934761538461539,4.364571153846153,-28.32051923076923,3.0488772995420335,4.767762595453063,4.137307579662771,4.3837753664164385
H1_walk_slow_20251205_051431,,-8.514,-2.328,0.392,-7.7,-0.778,1.297,-46.55,-115.57,-23.94,0.82488076923077,1.6396961538461534,-49.098942307692305,-1.1332346153846151,0.4168192307692309,-116.88330769230768,3.5257615384615386,4.4315711538461535,-24.68051923076923,3.794159116727623,4.743539252465215,3.971335459067019,4.2351804380597535
H1_walk_slow_20251205_051431,,-8.244,-2.273,0.639,-8.117,-0.495,1.074,-41.93,-95.76,-20.79,1.0948807692307696,1.2226961538461527,-44.47894230769231,-1.0782346153846154,0.6998192307692309,-97.0733076923077,3.7727615384615385,4.208571153846154,-21.53051923076923,4.073706348123248,4.438108155213273,3.785109181871707,4.0914752258009335
H1_walk_slow_20251205_051431,39072.0,-8.052,0.002,0.73,-10.684,-2.398,-1.378,-28.7,14.7,-4.97,1.2868807692307698,-1.3443038461538457,-31.248942307692307,1.1967653846153847,-1.2031807692307692,13.386692307692307,3.8637615384615387,1.756571153846154,-5.710519230769231,4.244639292816795,2.5180029810854427,3.6291093076302303,3.888276239823625
H1_walk_slow_20251205_051431,,-7.966,0.175,0.165,-15.879,-6.525,2.496,-33.81,34.44,-3.92,1.3728807692307692,-6.539303846153846,-36.35894230769231,1.3697653846153848,-5.330180769230769,33.1266923076923,3.2987615384615387,5.630571153846153,-4.66051923076923,3.8266024751791687,10.142812891083242,3.4594032052902386,3.6699951907826005
H1_walk_slow_20251205_051431,,-7.983,-0.079,-0.452,-17.052,-6.949,3.003,-43.19,52.22,-2.87,1.3558807692307697,-7.712303846153846,-45.738942307692305,1.1157653846153848,-5.754180769230769,50.9066923076923,2.6817615384615388,6.137571153846154,-3.610519230769231,3.205493722197462,11.41315059958945,3.258336990382027,3.481305826605877
H1_walk_slow_20251205_051431,,-8.387,-0.828,-1.005,-12.371,-2.769,0.931,-51.17,67.9,0.7,0.9518807692307689,-3.031303846153847,-53.71894230769231,0.36676538461538477,-1.5741807692307692,66.58669230769232,2.128761538461539,4.065571153846154,-0.04051923076923081,2.360554920737192,5.3099639272700365,3.0604924166097245,3.3043990953934963
H1_walk_slow_20251205_051431,39148.0,-8.267,-0.069,0.062,-11.122,-0.282,-2.111,6.86,63.35,14.49,1.07188076923077,-1.7823038461538463,4.311057692307692,1.1257653846153848,0.9128192307692309,62.036692307692306,3.1957615384615385,1.0235711538461536,13.74948076923077,3.553754056677956,2.2488983647694867,2.8825075516820626,3.1588785388358676
H1_walk_slow_20251205_051431,,-8.387,-1.912,-0.416,-10.191,1.725,-3.271,-15.89,70.98,22.47,0.9518807692307689,-0.8513038461538471,-18.438942307692308,-0.7172346153846152,2.9198192307692308,69.66669230769232,2.717761538461539,-0.1364288461538461,21.72948076923077,2.9676135651863618,3.0444499353592636,2.7101779235374672,3.0554127611146167
H1_walk_slow_20251205_051431,,-10.646,-3.996,-0.029,-8.777,2.017,-3.891,-19.46,80.29,25.76,-1.3071192307692314,0.5626961538461543,-22.00894230769231,-2.8012346153846153,3.2118192307692306,78.97669230769232,3.104761538461539,-0.7564288461538462,25.01948076923077,4.38121219123039,3.347326445386817,2.6413659827159015,3.1089643455454024
H1_walk_slow_20251205_051431,,-11.273,-3.216,-0.352,-7.873,1.871,-4.664,0.91,87.78,25.62,-1.9341192307692303,1.4666961538461534,-1.6389423076923078,-2.0212346153846155,3.0658192307692307,86.46669230769231,2.781761538461539,-1.5294288461538459,24.87948076923077,3.945174752292256,3.7268750661793075,2.60416453112461,3.1400742905234678
H1_walk_slow_20251205_051431,39223.0,-7.497,1.369,-5.25,-9.189,0.163,-4.771,-4.2,84.91,19.95,1.8418807692307695,0.15069615384615354,-6.7489423076923085,2.563765384615385,1.357819230769231,83.59669230769231,-2.1162384615384613,-1.636428846153846,19.20948076923077,3.8005108790146727,2.131732103889975,2.6315006232946376,3.1585730699729613
H1_walk_slow_20251205_051431,,-7.593,0.689,-5.712,-9.72,0.459,-4.98,-11.41,77.84,21.35,1.7458807692307694,-0.38030384615384705,-13.958942307692308,1.8837653846153848,1.653819230769231,76.52669230769231,-2.578238461538461,-1.8454288461538466,20.60948076923077,3.639228661296399,2.5070613653595033,2.7009148607527274,3.157351436172064
H1_walk_slow_20251205_051431,,-8.256,-0.153,-5.535,-10.081,0.828,-4.671,-8.54,73.36,24.01,1.0828807692307691,-0.7413038461538459,-11.088942307692307,1.0417653846153847,2.022819230769231,72.04669230769231,-2.4012384615384614,-1.5364288461538465,23.26948076923077,2.8326404689131057,2.6461184085346496,2.7205431449145077,3.064528275468343
H1_walk_slow_20251205_051431,,-8.777,-0.337,-5.02,-10.158,1.247,-4.121,1.4,69.93,24.71,0.5618807692307701,-0.8183038461538459,-1.148942307692308,0.8577653846153848,2.441819230769231,68.61669230769232,-1.8862384615384609,-0.9864288461538466,23.96948076923077,2.14694363867865,2.757742592938838,2.6861364633574074,2.9461773897360697
H1_walk_slow_20251205_051431,39299.0,-10.096,1.211,-3.599,-8.844,-0.744,-3.85,-3.85,49.91,14.7,-0.7571192307692307,0.4956961538461542,-6.398942307692308,2.4057653846153846,0.4508192307692309,48.5966923076923,-0.4652384615384615,-0.7154288461538463,13.959480769230769,2.564640996613147,0.9801995152407774,2.605228431788021,2.8274360783291685
H1_walk_slow_20251205_051431,,-9.794,0.694,-3.508,-8.995,-0.861,-3.673,-14.7,47.95,11.83,-0.4551192307692311,0.3446961538461544,-17.248942307692307,1.8887653846153847,0.3338192307692309,46.63669230769231,-0.3742384615384613,-0.5384288461538462,11.08948076923077,1.978540527366562,0.7212186490089222,2.505753248544615,2.7194115122588363
H1_walk_slow_20251205_051431,,-9.359,-0.034,-3.455,-9.38,-0.806,-3.518,-21.14,46.27,9.17,-0.02011923076923061,-0.04030384615384719,-23.688942307692308,1.1607653846153847,0.38881923076923086,44.95669230769231,-0.32123846153846136,-0.383428846153846,8.42948076923077,1.2045643240357258,0.5475604754669926,2.3902004360067024,2.6796599121299605
H1_walk_slow_20251205_051431,,-9.036,-0.579,-3.731,-9.459,-0.555,-3.183,-24.01,43.82,7.07,0.3028807692307698,-0.11930384615384604,-26.55894230769231,0.6157653846153848,0.6398192307692309,42.506692307692305,-0.5972384615384612,-0.04842884615384602,6.32948076923077,0.9097238862430642,0.6526464654842036,2.2975171473933154,2.3457398227239903
H1_walk_slow_20251205_051431,39375.0,-9.612,-0.364,-2.876,-9.596,-0.098,-3.192,-15.47,35.7,10.29,-0.2731192307692307,-0.2563038461538465,-18.01894230769231,0.8307653846153847,1.0968192307692308,34.38669230769231,0.2577615384615388,-0.05742884615384636,9.549480769230769,0.9117051328149819,1.1278307314969849,2.231722227011047,1.9731827422163701
H1_walk_slow_20251205_051431,,-9.615,-0.189,-2.881,-9.428,0.026,-3.161,-12.53,34.93,11.06,-0.27611923076923084,-0.08830384615384723,-15.078942307692307,1.0057653846153847,1.220819230769231,33.616692307692304,0.2527615384615389,-0.02642884615384622,10.31948076923077,1.0731701793362358,1.2242939383050797,2.201501398592417,1.8294537383221345
H1_walk_slow_20251205_051431,,-9.799,-0.069,-2.962,-9.533,0.371,-3.132,-8.19,34.51,11.9,-0.4601192307692301,-0.19330384615384588,-10.738942307692307,1.1257653846153848,1.565819230769231,33.1966923076923,0.17176153846153852,0.0025711538461536954,11.15948076923077,1.228234274809398,1.5777081007641167,2.1351600898787977,1.8012164224930862
H1_walk_slow_20251205_051431,,-9.734,0.098,-3.084,-9.651,0.72,-3.159,-2.73,34.37,12.81,-0.3951192307692306,-0.3113038461538462,-5.278942307692308,1.2927653846153848,1.9148192307692309,33.0566923076923,0.049761538461538635,-0.024428846153845996,12.06948076923077,1.3527149577399857,1.940113280114915,2.094209175333572,1.7543803629271757
H1_walk_slow_20251205_051431,39451.0,-9.667,1.163,-3.156,-9.531,0.526,-3.728,11.27,32.69,9.45,-0.32811923076923044,-0.191303846153847,8.721057692307692,2.3577653846153845,1.720819230769231,31.376692307692306,-0.02223846153846143,-0.5934288461538464,8.709480769230769,2.3805911844881558,1.8302933595426576,2.003790383560109,1.705957063552294
H1_walk_slow_20251205_051431,,-9.569,1.565,-3.178,-9.485,0.201,-3.96,6.37,31.78,8.4,-0.23011923076923146,-0.14530384615384584,3.821057692307692,2.7597653846153847,1.395819230769231,30.46669230769231,-0.04423846153846123,-0.8254288461538462,7.65948076923077,2.769696171057471,1.6281146497575587,1.9435957701000843,1.6394389373319802
H1_walk_slow_20251205_051431,,-9.505,1.328,-3.372,-9.371,0.172,-4.152,-0.7,30.59,7.49,-0.1661192307692314,-0.03130384615384685,-3.2489423076923076,2.5227653846153846,1.3668192307692308,29.276692307692308,-0.23823846153846118,-1.0174288461538463,6.74948076923077,2.539428744659157,1.7042113124171434,1.9031215738724983,1.6383860653677331
H1_walk_slow_20251205_051431,,-9.531,0.909,-3.556,-9.428,0.151,-4.154,-5.53,29.54,6.86,-0.1921192307692312,-0.08830384615384723,-8.078942307692309,2.103765384615385,1.345819230769231,28.226692307692307,-0.42223846153846134,-1.019428846153846,6.119480769230769,2.1543035790574283,1.6906395664139677,1.855321870891133,1.628827687127939
H1_walk_slow_20251205_051431,39526.0,-9.521,0.266,-3.965,-9.428,0.445,-3.35,6.93,23.73,6.58,-0.18211923076923142,-0.08830384615384723,4.381057692307692,1.4607653846153847,1.639819230769231,22.41669230769231,-0.8312384615384611,-0.21542884615384628,5.83948076923077,1.6905502959235896,1.6562651558857755,1.8259234656156074,1.5680951376315204
H1_walk_slow_20251205_051431,,-9.44,0.203,-3.632,-9.258,0.426,-3.281,7.28,23.03,6.3,-0.10111923076923013,0.08169615384615447,4.731057692307692,1.3977653846153848,1.6208192307692308,21.71669230769231,-0.4982384615384614,-0.14642884615384633,5.559480769230769,1.4873515837946885,1.629469437384624,1.8044308727264573,1.5330635733232194
H1_walk_slow_20251205_051431,,-9.442,0.019,-3.367,-9.177,0.28,-3.18,8.4,22.26,5.53,-0.1031192307692308,0.162696153846154,5.851057692307693,1.2137653846153846,1.474819230769231,20.94669230769231,-0.23323846153846128,-0.04542884615384635,4.789480769230769,1.240266166831055,1.484461377734681,1.7405096051174593,1.5825770059699475
H1_walk_slow_20251205_051431,,-9.44,0.206,-3.321,-9.189,0.258,-3.163,9.59,21.77,4.83,-0.10111923076923013,0.15069615384615354,7.041057692307692,1.4007653846153847,1.452819230769231,20.456692307692308,-0.18723846153846146,-0.028428846153846,4.08948076923077,1.4168369712311073,1.4608905665280212,1.6861935942139576,1.642076671497807
H1_walk_slow_20251205_051431,39602.0,-9.237,0.294,-3.046,-9.119,0.517,-3.183,3.64,21.7,4.06,0.10188076923076927,0.22069615384615382,1.0910576923076922,1.4887653846153848,1.711819230769231,20.386692307692307,0.08776153846153889,-0.04842884615384602,3.319480769230769,1.4948257922584773,1.7266665063913298,1.7172194153420126,1.6862208111339678
H1_walk_slow_20251205_051431,,-9.203,0.371,-3.034,-9.115,0.361,-3.192,3.99,21.63,3.85,0.13588076923076997,0.22469615384615338,1.4410576923076923,1.5657653846153847,1.555819230769231,20.316692307692307,0.0997615384615389,-0.05742884615384636,3.1094807692307693,1.574813381852822,1.5730098260199068,1.7429120891172234,1.7356361837847478
H1_walk_slow_20251205_051431,,-9.21,0.627,-3.037,-9.239,0.304,-3.329,3.57,21.91,3.43,0.12888076923076852,0.10069615384615282,1.021057692307692,1.8217653846153847,1.498819230769231,20.596692307692308,0.09676153846153879,-0.19442884615384637,2.6894807692307694,1.828880030123846,1.5147281532142307,1.7559289846817145,1.7604192917690353
H1_walk_slow_20251205_051431,,-9.232,0.704,-3.199,-9.21,0.572,-3.58,1.26,22.05,2.59,0.10688076923077006,0.12969615384615274,-1.2889423076923079,1.8987653846153847,1.7668192307692308,20.73669230769231,-0.06523846153846113,-0.44542884615384626,1.849480769230769,1.9028897870105028,1.8267123866455848,1.764100161710905,1.7742015477639679
H1_walk_slow_20251205_051431,39677.0,-9.265,0.715,-3.819,-9.033,0.034,-4.795,-8.54,21.91,-0.07,0.0738807692307688,0.3066961538461541,-11.088942307692307,1.9097653846153846,1.228819230769231,20.596692307692308,-0.6852384615384612,-1.6604288461538461,-0.8105192307692308,2.030323605120345,2.088320661639898,1.7878326758306382,1.824239678230898
H1_walk_slow_20251205_051431,,-9.409,0.936,-4.192,-9.086,-0.23,-4.865,-13.44,20.44,-1.82,-0.07011923076923132,0.2536961538461533,-15.988942307692307,2.1307653846153847,0.9648192307692309,19.12669230769231,-1.0582384615384615,-1.7304288461538464,-2.5605192307692306,2.380114802331624,1.9974037844511545,1.8270309582747297,1.848960626269316
H1_walk_slow_20251205_051431,,-8.957,1.175,-4.472,-9.186,0.0,-4.86,-19.53,18.69,-2.94,0.38188076923076864,0.15369615384615365,-22.07894230769231,2.369765384615385,1.194819230769231,17.37669230769231,-1.3382384615384617,-1.7254288461538465,-3.6805192307692307,2.748181777097435,2.1043574328195462,1.844970712450433,1.868902129831196
