Timestamp,AccX,AccY,AccZ,GyroX,GyroY,GyroZ,MagnX,MagnY,MagnZ
0.0,-9.311,-0.558,-3.307,-9.308,-0.507,-3.486,1.89,1.82,0.7
,-9.282,-0.562,-3.36,-9.265,-0.491,-3.494,1.89,2.17,0.91
,-9.306,-0.526,-3.412,-9.246,-0.493,-3.467,2.03,1.89,0.77
,-9.311,-0.526,-3.501,-9.27,-0.543,-3.415,2.17,1.89,0.91
75.0,-9.325,-0.586,-3.398,-9.328,-0.524,-3.434,2.1,1.82,0.98
,-9.325,-0.522,-3.34,-9.289,-0.507,-3.443,2.45,1.82,0.91
,-9.373,-0.512,-3.319,-9.273,-0.553,-3.408,2.38,1.82,0.91
,-9.373,-0.519,-3.357,-9.299,-0.538,-3.427,2.1,1.75,0.84
151.0,-9.308,-0.469,-3.408,-9.308,-0.562,-3.46,2.87,1.61,1.12
,-9.351,-0.459,-3.396,-9.292,-0.581,-3.374,2.45,1.4,1.05
,-9.349,-0.462,-3.398,-9.318,-0.519,-3.4,2.17,1.33,0.98
,-9.33,-0.476,-3.427,-9.311,-0.462,-3.35,2.03,1.33,0.77
227.0,-9.354,-0.495,-3.34,-9.304,-0.543,-3.36,2.03,1.61,0.77
,-9.287,-0.519,-3.321,-9.299,-0.514,-3.321,1.75,1.61,0.77
,-9.33,-0.481,-3.372,-9.392,-0.5,-3.273,1.82,1.61,0.84
,-9.28,-0.581,-3.362,-9.421,-0.426,-3.305,2.1,1.89,1.05
302.0,-9.392,-0.433,-3.374,-9.268,-0.5,-3.51,1.61,1.75,0.7
,-9.318,-0.457,-3.434,-9.313,-0.491,-3.587,0.7,1.61,0.42
,-9.287,-0.522,-3.436,-9.325,-0.476,-3.549,0.42,1.82,0.42
,-9.244,-0.56,-3.527,-9.304,-0.447,-3.498,0.84,1.89,0.63
378.0,-9.265,-0.488,-3.463,-9.28,-0.503,-3.345,2.87,1.33,0.84
,-9.246,-0.488,-3.482,-9.292,-0.486,-3.329,2.73,1.19,0.91
,-9.32,-0.51,-3.446,-9.332,-0.438,-3.329,2.52,1.12,0.91
,-9.342,-0.505,-3.386,-9.282,-0.428,-3.374,2.73,1.05,0.84
453.0,-9.28,-0.457,-3.441,-9.237,-0.503,-3.424,1.96,1.12,0.63
,-9.308,-0.469,-3.463,-9.27,-0.495,-3.467,1.89,1.12,0.49
,-9.308,-0.522,-3.46,-9.265,-0.419,-3.441,1.96,0.98,0.42
,-9.258,-0.536,-3.482,-9.323,-0.445,-3.381,2.31,0.84,0.49
529.0,-9.313,-0.548,-3.34,-9.354,-0.529,-3.199,2.31,0.7,0.35
,-9.296,-0.55,-3.285,-9.356,-0.517,-3.254,2.73,0.91,0.56
,-9.351,-0.577,-3.216,-9.385,-0.495,-3.331,2.87,0.98,0.56
,-9.356,-0.469,-3.214,-9.289,-0.579,-3.4,2.59,1.19,0.63
605.0,-9.301,-0.584,-3.467,-9.261,-0.503,-3.47,1.75,1.82,0.7
,-9.316,-0.541,-3.51,-9.366,-0.438,-3.546,2.17,1.82,0.77
,-9.313,-0.459,-3.587,-9.306,-0.457,-3.484,2.24,1.4,0.56
,-9.28,-0.51,-3.551,-9.325,-0.421,-3.549,2.1,1.26,0.63
681.0,-9.27,-0.567,-3.46,-9.287,-0.507,-3.218,1.82,0.63,0.63
,-9.249,-0.534,-3.458,-9.318,-0.45,-3.233,2.1,0.56,0.63
,-9.273,-0.615,-3.475,-9.337,-0.412,-3.07,2.38,0.35,0.7
,-9.351,-0.711,-3.355,-9.318,-0.462,-3.185,2.94,0.35,0.84
757.0,-9.344,-0.584,-3.273,-9.292,-0.543,-3.577,-0.28,0.84,0.49
,-9.294,-0.56,-3.254,-9.258,-0.567,-3.628,-0.07,0.91,0.56
,-9.273,-0.548,-3.398,-9.28,-0.479,-3.764,0.84,1.19,0.56
,-9.275,-0.531,-3.518,-9.289,-0.452,-3.831,1.47,0.98,0.7
832.0,-9.253,-0.567,-3.812,-9.32,-0.498,-3.362,3.01,-0.84,1.12
,-9.232,-0.687,-3.774,-9.39,-0.302,-3.4,3.08,-1.26,1.26
,-9.277,-0.763,-3.62,-9.354,-0.282,-3.283,4.41,-1.82,1.47
,-9.296,-0.672,-3.534,-9.32,-0.38,-3.161,5.88,-1.96,1.75
908.0,-9.342,-0.462,-3.096,-9.395,-0.337,-2.91,1.96,-2.45,0.84
,-9.323,-0.507,-2.965,-9.361,-0.426,-2.895,2.1,-2.03,1.05
,-9.356,-0.414,-2.948,-9.21,-0.503,-2.84,2.24,-1.61,0.98
,-9.397,-0.33,-2.895,-9.294,-0.644,-2.714,1.47,-1.19,0.98
984.0,-9.423,-0.715,-2.568,-9.43,-0.392,-2.781,-3.29,1.61,0.91
,-9.438,-0.696,-2.429,-9.507,-0.443,-3.25,-2.87,2.94,1.12
,-9.514,-0.486,-2.558,-9.452,-0.529,-3.69,-2.94,3.64,0.98
,-9.483,-0.424,-2.761,-9.203,-0.333,-3.874,-3.99,4.13,0.84
1060.0,-9.179,-0.22,-3.934,-9.5,-0.491,-3.41,-7.63,3.22,-0.14
,-9.112,-0.419,-3.922,-9.502,-0.285,-3.324,-8.33,2.87,0.07
,-9.103,-0.637,-3.565,-9.529,-0.141,-3.661,-7.42,2.8,0.42
,-9.337,-0.701,-3.307,-9.284,-0.215,-3.697,-4.69,2.87,0.98
1135.0,-9.165,-0.321,-3.585,-9.615,-0.447,-3.211,-7.28,0.42,0.42
,-9.232,-0.543,-3.556,-9.466,-0.105,-3.305,-7.42,0.42,0.56
,-9.16,-0.797,-3.206,-9.402,0.091,-3.575,-5.53,0.84,0.98
,-9.304,-0.701,-3.02,-9.222,-0.101,-3.606,-2.59,1.26,1.4
1211.0,-9.177,-0.416,-3.661,-9.383,-0.854,-2.697,-11.83,-1.33,-0.35
,-9.203,-0.577,-3.692,-9.552,-0.589,-2.369,-11.41,-1.61,-0.42
,-9.146,-0.732,-3.455,-9.785,-0.189,-3.003,-9.52,-1.47,-0.28
,-9.208,-0.818,-3.192,-9.581,-0.031,-3.573,-6.79,-0.7,0.49
1286.0,-9.402,-0.261,-3.719,-9.325,-0.742,-3.613,-7.77,-0.84,1.68
,-9.107,-1.019,-4.034,-9.399,0.168,-3.324,-9.8,-0.42,2.73
,-8.835,-1.563,-3.898,-9.5,0.687,-3.175,-5.11,0.21,3.99
,-9.083,-1.596,-3.647,-9.512,0.651,-2.484,4.41,0.56,5.74
1362.0,-9.608,0.459,-2.596,-8.971,-0.859,-3.305,-2.73,1.33,2.38
,-9.418,0.38,-2.57,-8.894,-1.295,-2.656,-4.97,1.82,1.75
,-9.435,0.33,-3.458,-9.567,-0.972,-2.529,-7.98,1.05,0.98
,-9.045,-0.153,-3.367,-9.524,-0.369,-2.8,-11.55,0.56,0.84
1438.0,-9.557,0.151,-2.704,-8.995,0.041,-2.553,11.83,4.69,4.2
,-9.718,0.388,-3.185,-9.107,0.589,-2.819,8.89,4.76,3.85
,-9.423,-0.012,-3.24,-9.34,0.94,-3.295,5.74,6.02,3.71
,-9.213,-0.22,-3.183,-9.512,0.402,-3.321,5.88,8.12,3.92
1514.0,-9.344,-0.771,-3.278,-9.483,0.151,-3.137,-5.67,8.12,0.35
,-9.098,-1.254,-2.544,-9.323,-0.311,-3.561,-2.03,9.94,0.84
,-9.581,-0.83,-2.379,-8.796,-1.199,-3.319,7.35,11.13,0.7
,-9.713,0.017,-3.197,-9.165,-1.704,-3.061,8.05,10.08,0.14
1589.0,-9.244,-1.192,-3.661,-9.086,-1.95,-3.07,10.15,12.39,5.04
,-9.213,-0.548,-3.994,-9.222,-1.646,-3.271,13.58,11.13,5.53
,-9.103,-0.617,-4.133,-9.543,-1.249,-3.525,10.22,11.9,6.09
,-8.562,-1.484,-3.333,-9.368,-1.184,-3.747,8.19,13.72,7.98
1665.0,-8.918,-1.33,-3.549,-9.261,0.775,-3.661,15.05,14.91,15.75
,-8.808,-1.091,-3.506,-9.306,1.201,-3.819,18.97,15.75,16.94
,-9.146,-0.615,-3.458,-8.854,1.479,-3.716,22.89,15.05,16.59
,-9.354,0.22,-3.616,-8.938,1.424,-3.759,24.36,13.58,15.33
1741.0,-9.091,0.988,-3.673,-8.981,1.266,-3.814,5.81,11.83,9.52
,-9.627,0.972,-3.695,-8.77,0.759,-3.8,7.14,11.69,7.77
,-9.531,1.409,-3.8,-9.246,-0.024,-3.733,7.91,11.62,5.6
,-9.253,1.445,-3.676,-9.509,-0.34,-3.786,6.58,12.11,3.64
1817.0,-9.249,-0.029,-3.888,-8.832,-0.278,-3.731,4.27,11.76,-0.42
,-9.131,0.191,-4.042,-9.005,-0.541,-3.573,4.9,10.78,-1.19
,-8.897,0.455,-4.305,-9.167,-0.297,-3.637,1.75,9.59,-1.82
,-8.679,0.175,-4.209,-8.938,-0.299,-3.616,-2.1,10.64,-1.54
1893.0,-9.079,-0.627,-3.446,-8.973,0.416,-4.099,-1.54,14.0,1.19
,-9.031,-0.754,-3.436,-8.887,0.45,-4.14,-0.7,14.56,2.31
,-9.072,-0.546,-3.582,-8.997,0.258,-3.97,3.15,15.47,3.29
,-9.057,-0.031,-3.814,-8.935,-0.026,-3.96,8.05,15.54,3.36
1968.0,-8.938,-0.055,-3.845,-9.134,0.112,-4.465,3.64,14.84,0.77
,-8.961,0.01,-4.147,-9.148,0.175,-4.365,4.76,14.7,0.28
,-8.971,0.136,-4.362,-8.531,0.148,-4.384,5.39,14.7,-0.28
,-9.007,0.213,-4.487,-8.442,-0.129,-4.204,5.88,14.14,-0.98
2044.0,-8.804,-0.436,-4.235,-8.906,-0.357,-4.568,1.26,11.48,-2.17
,-8.976,-0.517,-4.245,-8.492,-0.179,-4.836,3.64,11.27,-2.17
,-9.119,-0.541,-4.2,-8.6,-0.06,-4.853,6.02,11.69,-1.61
,-9.189,-0.447,-4.288,-8.741,-0.23,-5.066,7.0,12.32,-1.12
2119.0,-8.947,-0.593,-4.841,-8.904,-0.244,-4.779,3.29,9.17,2.59
,-8.885,-0.543,-4.836,-9.143,0.144,-5.032,3.01,8.4,2.8
,-8.959,-0.455,-4.829,-8.708,0.459,-5.41,3.57,8.12,2.1
,-9.098,-0.349,-4.757,-8.54,0.361,-5.202,5.04,7.91,0.98
2195.0,-8.289,0.091,-5.272,-8.904,-0.799,-4.929,4.76,4.2,0.56
,-8.294,-0.395,-5.195,-8.985,-0.682,-4.922,1.75,4.2,1.47
,-8.83,-0.797,-5.018,-8.928,-0.409,-4.915,1.47,4.48,2.24
,-9.462,-0.55,-4.862,-9.11,0.395,-4.867,4.13,4.48,2.38
2271.0,-8.763,1.074,-5.133,-8.835,-0.979,-4.736,3.71,1.61,0.91
,-8.492,1.036,-5.233,-9.069,-0.639,-4.759,-2.8,1.05,0.0
,-8.605,0.428,-5.202,-9.079,-0.069,-4.795,-7.14,1.4,0.07
,-8.519,-0.601,-4.819,-8.871,0.194,-4.7,-6.16,2.59,0.56
2347.0,-9.045,0.282,-4.544,-8.442,0.101,-5.047,9.24,3.85,-1.19
,-9.076,0.39,-4.59,-8.725,-0.031,-4.81,7.14,1.61,-1.19
,-8.677,0.543,-5.032,-9.143,0.158,-4.736,5.18,-0.63,-0.98
,-8.332,0.495,-5.109,-9.1,-0.141,-4.379,3.08,-0.91,-0.91
2422.0,-8.985,-0.426,-4.405,-8.658,-0.476,-4.692,-2.94,1.12,-2.45
,-9.055,-0.763,-4.384,-8.765,-0.366,-4.494,-3.15,1.19,-1.89
,-8.918,-0.802,-4.499,-8.588,-0.069,-4.834,-0.07,1.19,-1.54
,-8.729,-0.553,-4.625,-8.729,-0.132,-4.659,2.8,0.98,-1.33
2498.0,-8.622,-0.258,-4.53,-9.115,-0.014,-4.338,1.19,0.21,-0.21
,-8.473,-0.529,-4.374,-8.756,0.124,-4.48,2.1,1.26,0.0
,-8.756,-0.447,-4.379,-8.557,-0.026,-4.563,4.2,1.89,0.21
,-9.11,-0.196,-4.41,-8.681,-0.072,-4.609,5.67,2.03,0.42
2573.0,-8.827,0.17,-4.728,-8.859,-0.608,-4.803,7.14,2.03,-0.63
,-8.866,0.172,-4.85,-8.823,-0.505,-4.824,7.56,2.52,-0.91
,-8.973,-0.053,-4.776,-8.804,-0.352,-4.755,6.58,3.29,-1.19
,-8.985,-0.416,-4.714,-8.469,-0.61,-4.97,6.16,3.57,-1.33
2649.0,-8.545,-0.715,-5.047,-8.78,-0.861,-4.489,3.99,3.29,0.91
,-8.988,-0.828,-4.891,-8.411,-0.488,-4.704,3.29,3.29,1.54
,-8.964,-0.979,-4.87,-8.337,-0.144,-4.963,3.01,3.15,2.31
,-8.854,-1.003,-4.704,-8.815,0.139,-5.011,3.29,3.99,3.29
2725.0,-8.993,0.33,-4.98,-8.926,0.792,-4.86,3.5,4.41,4.97
,-9.024,0.302,-4.903,-8.648,0.503,-4.92,3.71,5.04,4.2
,-8.933,0.342,-4.853,-9.088,0.227,-4.87,4.76,5.6,2.94
,-9.1,0.641,-4.637,-9.256,0.134,-5.001,5.39,4.48,1.54
2801.0,-8.928,0.084,-5.145,-8.935,-0.644,-5.085,1.26,2.24,-3.08
,-8.691,0.129,-5.24,-9.0,-0.589,-5.202,1.54,2.1,-3.43
,-8.737,-0.026,-5.317,-8.892,-0.543,-5.272,0.91,1.96,-3.64
,-8.782,-0.333,-5.346,-8.598,-0.574,-5.209,0.77,1.96,-3.78
2877.0,-8.392,-0.603,-5.31,-8.588,-0.687,-5.114,-1.96,-1.19,-0.14
,-8.483,-0.861,-5.133,-8.734,-0.629,-5.039,-3.5,-1.05,0.7
,-8.815,-1.079,-5.018,-8.839,-0.481,-5.011,-3.71,-0.98,1.89
,-8.799,-0.933,-5.083,-8.839,-0.512,-4.862,-1.68,-1.05,3.01
2952.0,-9.0,-0.546,-4.506,-8.861,0.041,-4.527,6.09,0.07,4.55
,-8.885,-0.29,-4.518,-8.993,-0.036,-4.549,6.86,-1.75,4.69
,-8.476,-0.077,-4.736,-8.961,-0.007,-4.551,6.58,-2.66,5.04
,-8.514,0.096,-4.692,-8.662,0.053,-4.537,4.83,-3.08,5.32
3028.0,-8.725,-0.129,-4.482,-8.871,-0.065,-4.458,-1.82,-7.14,3.08
,-8.792,-0.232,-4.535,-8.71,-0.122,-4.539,-0.07,-7.35,2.59
,-8.808,-0.196,-4.424,-8.698,-0.254,-4.537,2.59,-6.93,2.31
,-8.823,-0.093,-4.472,-9.103,-0.483,-4.317,5.46,-6.72,2.24
3104.0,-9.308,-0.17,-4.307,-8.815,-0.218,-4.645,9.94,-4.27,1.26
,-8.631,0.139,-4.494,-8.959,-0.196,-4.716,7.28,-5.81,1.4
,-8.488,0.043,-4.48,-9.05,-0.218,-4.824,4.06,-5.81,1.75
,-8.763,-0.172,-4.594,-8.825,-0.404,-4.81,2.17,-6.16,2.1
3180.0,-8.65,-0.495,-4.774,-8.794,0.268,-4.774,2.73,-4.48,2.38
,-8.717,-0.665,-4.855,-8.646,0.524,-4.874,5.88,-3.78,2.8
,-8.894,-0.558,-4.759,-8.93,0.292,-4.748,9.24,-3.85,2.73
,-8.863,0.012,-4.736,-8.945,0.132,-4.666,10.5,-5.32,2.45
3255.0,-8.911,-0.227,-4.558,-8.756,0.096,-4.621,2.17,-9.94,1.54
,-9.15,-0.404,-4.475,-8.741,-0.148,-4.362,1.68,-11.76,1.61
,-9.079,-0.172,-4.592,-8.942,-0.199,-4.214,2.03,-13.93,1.12
,-8.772,0.098,-4.647,-9.127,-0.017,-4.104,2.17,-14.84,0.77
3331.0,-9.22,0.093,-3.912,-9.005,0.199,-3.888,4.55,-13.37,-0.7
,-8.978,0.316,-4.08,-9.024,0.409,-3.75,3.22,-13.58,-1.19
,-8.957,0.184,-3.977,-9.27,0.383,-3.561,0.77,-13.23,-1.26
,-9.026,0.06,-3.848,-9.139,0.335,-3.649,-0.42,-13.65,-1.82
3406.0,-9.028,0.325,-3.695,-9.215,-0.122,-3.424,-8.26,-14.77,-5.74
,-9.17,0.108,-3.431,-9.208,-0.376,-3.609,-8.96,-14.42,-6.93
,-9.103,0.031,-3.472,-9.028,-0.392,-3.412,-9.52,-14.49,-7.77
,-9.057,-0.048,-3.506,-8.978,-0.306,-3.376,-10.01,-14.63,-8.12
3482.0,-8.978,-0.383,-3.185,-9.253,-0.45,-3.187,-7.0,-11.55,-8.47
,-9.167,-0.615,-2.982,-9.296,-0.51,-3.175,-5.74,-10.36,-8.05
,-9.206,-0.467,-3.214,-9.316,-0.507,-3.206,-4.62,-9.94,-7.63
,-9.153,-0.419,-3.187,-9.196,-0.747,-3.518,-3.5,-9.45,-6.86
3558.0,-8.997,-0.924,-3.508,-9.387,-0.469,-2.974,3.5,-6.02,-4.83
,-8.997,-0.969,-3.381,-9.28,-0.311,-3.001,6.3,-5.81,-3.92
,-9.076,-0.854,-3.558,-9.167,-0.457,-2.752,9.31,-5.6,-2.8
,-9.203,-0.83,-3.343,-9.275,-0.347,-3.319,11.55,-4.9,-1.75
3634.0,-9.191,-0.278,-3.537,-9.49,0.28,-2.886,11.76,-2.73,-1.12
,-9.069,-0.337,-3.376,-9.261,0.584,-3.307,12.46,-2.1,-0.63
,-9.273,-0.342,-2.907,-9.325,0.28,-3.63,16.38,-0.49,-0.07
,-9.402,-0.172,-2.826,-9.371,-0.026,-3.948,20.16,0.63,-0.07
3710.0,-9.127,-0.323,-3.944,-9.488,-0.821,-3.965,4.69,-0.35,-3.99
,-9.095,-0.593,-3.776,-9.361,-0.526,-4.061,4.69,0.0,-3.78
,-9.129,-0.952,-3.618,-9.261,-0.445,-3.79,5.67,0.63,-3.43
,-9.115,-1.029,-3.467,-9.373,-0.498,-3.754,8.26,0.91,-2.66
3785.0,-9.139,-0.445,-3.872,-9.313,-0.357,-3.171,10.5,-2.24,-1.75
,-8.947,-0.438,-3.831,-9.416,-0.246,-3.168,10.36,-3.01,-2.24
,-8.94,-0.34,-3.582,-9.347,-0.263,-3.061,9.73,-3.36,-2.38
,-9.158,-0.457,-3.343,-9.258,-0.486,-2.824,9.45,-3.15,-2.38
3861.0,-9.292,-0.73,-2.95,-9.294,-0.601,-2.994,4.2,-1.96,-2.73
,-9.198,-0.96,-2.785,-9.292,-0.663,-2.888,5.6,-0.84,-1.96
,-9.232,-0.849,-2.965,-9.38,-0.593,-3.087,7.0,-0.28,-1.75
,-9.287,-0.778,-2.974,-9.332,-0.548,-2.888,7.98,0.21,-1.61
3937.0,-9.445,-0.646,-3.082,-9.344,-0.742,-3.649,2.66,3.15,-1.82
,-9.409,-0.782,-3.338,-9.253,-0.577,-3.9,0.77,3.22,-1.89
,-9.354,-0.962,-3.276,-9.165,-0.577,-3.896,-0.14,3.36,-1.75
,-9.289,-0.83,-3.396,-9.244,-0.711,-3.778,0.07,3.43,-1.61
4013.0,-9.177,-0.797,-3.786,-9.177,-0.699,-3.683,-0.63,2.31,-1.33
,-9.155,-0.773,-3.759,-9.189,-0.861,-3.52,1.68,1.96,-0.98
,-9.249,-0.581,-3.903,-9.229,-0.9,-3.216,2.66,1.33,-1.12
,-9.174,-0.579,-3.824,-9.407,-0.828,-3.003,2.1,0.77,-1.12
4088.0,-9.395,-0.723,-2.809,-9.284,-0.926,-2.783,1.19,1.47,-0.56
,-9.526,-0.672,-2.678,-9.273,-0.785,-3.068,-0.7,1.82,-0.84
,-9.373,-0.675,-2.714,-9.277,-0.84,-3.199,-2.87,2.45,-0.98
,-9.354,-0.79,-2.826,-9.261,-0.744,-3.527,-4.41,3.36,-0.84
4164.0,-9.179,-0.84,-3.92,-9.124,-0.438,-4.262,-1.96,5.11,0.28
,-8.988,-1.022,-4.133,-9.139,-0.579,-4.003,-0.35,4.9,0.7
,-8.88,-0.785,-4.31,-9.332,-0.565,-3.903,2.73,4.2,1.12
,-8.997,-0.507,-4.405,-9.356,-0.605,-3.723,4.9,3.5,1.19
4239.0,-9.28,-0.675,-3.506,-9.15,-0.591,-3.786,1.89,0.42,0.91
,-9.275,-0.646,-3.709,-9.189,-0.684,-3.723,2.03,0.0,0.91
,-9.208,-0.639,-3.786,-9.148,-0.763,-3.537,1.47,-0.35,0.7
,-9.117,-0.572,-3.776,-9.306,-0.696,-3.324,0.7,-0.56,0.56
4315.0,-9.392,-0.766,-3.139,-9.265,-0.761,-3.393,3.5,-0.49,1.4
,-9.493,-0.622,-3.161,-9.177,-0.668,-3.47,3.57,-0.35,1.47
,-9.373,-0.711,-3.118,-9.139,-0.608,-3.436,3.01,0.0,1.47
,-9.354,-0.761,-3.29,-9.239,-0.615,-3.422,2.8,0.35,1.54
4391.0,-9.323,-0.546,-3.271,-9.203,-0.605,-3.486,4.13,1.26,1.61
,-9.354,-0.555,-3.25,-9.246,-0.739,-3.671,3.64,1.19,1.26
,-9.409,-0.524,-3.345,-9.165,-0.708,-3.685,3.15,1.54,1.05
,-9.249,-0.522,-3.537,-9.11,-0.644,-3.592,2.66,1.4,0.98
4467.0,-9.217,-0.632,-3.501,-9.249,-0.62,-3.719,5.04,1.26,1.61
,-9.308,-0.625,-3.388,-9.16,-0.72,-3.652,4.9,1.4,1.54
,-9.399,-0.493,-3.525,-9.172,-0.802,-3.735,3.99,1.12,1.33
,-9.387,-0.507,-3.64,-9.263,-0.806,-3.74,2.1,0.7,0.91
4542.0,-9.277,-0.723,-3.661,-9.261,-0.567,-3.807,3.08,-0.35,1.47
,-9.275,-0.665,-3.745,-9.174,-0.622,-3.69,3.64,-0.7,1.61
,-9.323,-0.677,-3.764,-9.196,-0.771,-3.597,4.06,-0.91,1.89
,-9.287,-0.574,-3.711,-9.217,-0.895,-3.489,4.55,-1.47,1.89
4618.0,-9.217,-0.797,-3.369,-9.366,-0.397,-2.958,4.13,-2.45,2.1
,-9.287,-0.677,-3.216,-9.447,-0.409,-3.25,4.62,-2.45,2.31
,-9.256,-0.486,-2.958,-9.356,-0.421,-3.443,3.78,-2.03,2.38
,-9.385,-0.404,-2.912,-9.253,-0.498,-3.561,2.17,-1.54,2.1
4694.0,-9.16,-0.727,-3.539,-9.481,-0.61,-2.903,-7.91,-1.68,0.28
,-9.17,-0.95,-3.465,-9.397,-0.22,-2.668,-6.23,-1.61,0.7
,-9.265,-1.031,-3.338,-9.371,-0.311,-2.745,-3.71,-1.19,1.19
,-9.474,-0.94,-3.159,-9.213,-0.739,-2.496,-2.03,-1.26,1.12
4770.0,-9.203,-0.895,-2.364,-9.603,0.12,-2.34,-10.99,1.33,0.28
,-9.237,-0.792,-2.142,-9.56,0.062,-2.419,-8.68,3.29,0.7
,-9.485,-0.45,-2.19,-9.375,-0.096,-2.41,-7.14,5.11,0.56
,-9.531,-0.101,-2.292,-9.325,-0.409,-2.871,-7.7,6.3,0.07
4846.0,-9.229,-0.617,-3.163,-8.993,-0.354,-4.683,-19.67,10.43,-1.19
,-9.275,-0.62,-3.802,-9.04,-0.467,-4.563,-17.29,10.36,-0.63
,-9.246,-0.541,-3.888,-8.985,-0.735,-4.19,-13.93,10.15,-0.21
,-9.402,-0.316,-4.86,-9.127,-0.823,-4.544,-12.39,8.68,-0.49
4921.0,-9.139,-0.727,-4.381,-9.383,-0.823,-2.4,-8.4,3.64,-0.56
,-9.1,-0.653,-3.831,-9.663,-0.23,-2.615,-7.56,3.36,0.0
,-9.229,-0.78,-3.343,-9.617,0.158,-3.364,-7.84,4.2,0.35
,-9.217,-1.017,-2.678,-9.318,-0.11,-3.352,-6.86,5.74,1.05
4997.0,-8.988,-0.914,-2.948,-9.024,0.727,-4.037,-12.6,7.07,2.17
,-8.909,-1.57,-2.647,-9.284,0.529,-4.508,-8.54,10.15,4.06
,-9.165,-1.07,-2.465,-9.095,-0.462,-4.281,2.38,12.11,5.11
,-9.139,0.175,-3.506,-9.273,-1.031,-4.018,7.77,10.29,3.78
5072.0,-9.294,-1.041,-3.386,-9.021,-0.804,-3.915,-2.66,11.41,5.11
,-9.239,-0.55,-3.376,-8.739,-1.572,-3.671,0.14,11.13,4.76
,-9.225,-0.323,-3.285,-8.923,-1.177,-4.099,-1.26,10.22,4.13
,-9.395,-0.139,-3.458,-8.988,-0.196,-3.489,-2.45,10.5,4.34
5148.0,-9.49,1.079,-3.888,-9.361,-1.275,-3.46,17.29,9.87,4.9
,-9.06,1.476,-4.049,-9.392,-1.323,-3.556,9.94,8.96,2.87
,-8.856,0.481,-3.829,-9.541,-0.921,-3.687,0.35,10.15,2.45
,-9.072,-0.694,-3.439,-9.131,-0.156,-3.642,-2.52,11.83,3.36
5224.0,-9.002,0.651,-3.903,-9.028,0.447,-4.2,18.13,12.74,5.53
,-8.526,0.962,-3.948,-9.249,-0.17,-4.03,10.01,12.67,3.99
,-8.777,1.134,-4.037,-9.131,-0.668,-3.486,2.87,11.41,2.38
,-8.973,0.991,-4.46,-9.232,-0.699,-3.173,-4.76,9.87,0.84
5300.0,-9.095,-0.493,-3.245,-8.617,-1.421,-3.941,3.92,13.3,-1.89
,-9.131,-0.785,-3.451,-8.839,-0.696,-4.011,4.2,13.3,-0.98
,-9.072,-1.417,-3.527,-8.952,0.371,-4.31,4.2,13.86,0.77
,-8.993,-1.706,-3.719,-8.926,0.828,-4.453,7.77,14.98,2.8
5375.0,-8.732,0.302,-4.317,-9.399,-1.613,-4.171,-1.61,15.26,2.17
,-8.552,-0.692,-3.865,-9.141,-1.522,-4.262,-7.84,16.1,2.8
,-8.746,-1.302,-3.833,-8.717,-0.806,-4.444,-5.88,16.03,3.43
,-9.134,-1.529,-4.068,-8.588,0.05,-4.48,0.0,15.33,4.06
5451.0,-8.643,0.39,-4.48,-8.909,0.026,-4.427,12.88,14.28,7.7
,-8.457,0.402,-4.53,-8.78,0.043,-4.396,6.02,13.86,7.28
,-8.713,0.251,-4.298,-8.949,-0.254,-4.338,0.49,14.14,7.28
,-8.875,0.096,-4.434,-8.904,-0.699,-4.326,-1.82,14.98,7.07
5527.0,-9.021,-0.711,-4.408,-8.849,-0.656,-4.681,5.67,15.4,7.56
,-8.741,-0.751,-4.625,-9.009,-0.306,-4.731,7.42,15.19,8.26
,-8.516,-0.802,-4.518,-8.693,0.263,-5.257,9.45,15.26,8.26
,-8.777,-0.723,-4.614,-8.528,0.871,-5.363,11.34,14.91,8.19
5603.0,-8.413,1.543,-5.585,-9.311,1.036,-4.805,8.33,9.24,4.69
,-8.373,1.828,-5.408,-8.866,0.215,-4.874,6.09,9.24,1.4
,-8.782,1.922,-5.348,-8.521,-0.589,-5.102,3.99,9.1,-1.05
,-9.222,1.68,-4.915,-8.593,-1.201,-5.212,1.68,8.61,-2.94
5679.0,-8.425,-1.436,-5.257,-8.976,-0.491,-5.176,6.86,6.65,-0.42
,-8.385,-1.378,-5.365,-8.859,-0.062,-5.334,11.27,5.81,0.49
,-8.547,-1.07,-5.418,-8.521,0.483,-5.532,13.37,5.46,0.91
,-8.722,-0.761,-5.269,-8.284,0.189,-5.272,12.53,5.39,0.28
5754.0,-8.239,-0.424,-5.248,-8.545,-1.476,-5.049,-9.87,4.69,-0.14
,-8.72,-0.928,-5.276,-8.837,-1.132,-4.98,-8.82,4.76,0.91
,-8.966,-1.381,-5.102,-9.21,-0.311,-5.159,-4.76,3.99,2.1
,-8.789,-1.759,-5.095,-8.959,0.593,-5.501,1.26,3.36,2.87
5830.0,-8.416,0.878,-5.31,-9.06,-0.031,-4.81,12.95,0.14,2.59
,-8.038,0.991,-5.31,-9.05,-0.007,-4.697,8.12,-0.28,2.17
,-8.177,0.572,-5.19,-8.626,0.101,-4.752,4.41,0.42,1.82
,-8.725,0.203,-5.011,-8.306,-0.124,-4.922,3.43,0.84,0.98
5905.0,-8.411,-0.342,-4.92,-8.713,-0.56,-4.92,4.83,-1.54,1.54
,-8.641,-0.428,-4.956,-8.619,-0.431,-4.877,4.62,-1.75,1.89
,-8.801,-0.483,-5.006,-8.622,-0.337,-5.14,4.34,-2.1,2.17
,-8.825,-0.438,-5.001,-8.756,-0.431,-4.949,3.08,-1.61,2.8
5981.0,-8.775,-0.66,-4.917,-8.433,-0.354,-5.039,7.14,0.91,4.06
,-8.897,-0.644,-4.982,-8.899,-0.641,-4.874,9.45,1.19,4.62
,-8.758,-0.328,-5.097,-9.155,-0.701,-4.817,11.9,1.47,5.25
,-8.514,-0.112,-5.039,-8.756,-0.531,-4.712,12.39,1.33,5.32
6057.0,-8.366,-0.345,-4.937,-8.954,-0.256,-4.805,11.9,0.84,5.11
,-8.301,-0.479,-4.898,-8.847,-0.103,-4.791,9.1,0.7,5.88
,-8.464,-0.421,-4.704,-8.686,0.05,-4.716,7.49,0.28,6.65
,-8.626,-0.306,-4.836,-8.665,0.536,-4.75,6.44,0.0,7.28
6133.0,-8.559,0.548,-4.719,-8.78,0.397,-4.97,2.52,3.5,5.25
,-8.641,0.376,-4.664,-8.643,0.534,-4.853,2.1,5.39,4.13
,-9.048,0.294,-4.621,-8.332,0.608,-4.994,3.36,6.72,3.43
,-9.064,0.409,-4.81,-8.289,0.144,-4.913,4.34,7.0,3.15
6208.0,-8.614,-0.168,-4.949,-8.54,0.093,-5.138,-3.5,5.95,1.4
,-8.945,-0.208,-5.083,-8.581,0.251,-5.25,-3.29,5.67,0.98
,-9.031,-0.11,-5.063,-8.679,0.12,-5.341,-3.29,5.53,0.98
,-8.748,0.05,-5.097,-8.784,-0.117,-5.212,-3.64,5.67,0.91
6284.0,-8.737,-0.455,-5.219,-8.849,-0.871,-5.36,-3.36,4.48,0.07
,-8.679,-0.72,-5.164,-8.871,-0.976,-5.305,-2.38,3.92,0.77
,-8.528,-0.759,-5.363,-8.748,-0.806,-5.446,-1.68,3.57,1.61
,-8.643,-0.78,-5.482,-8.837,-0.73,-5.358,-1.19,3.5,2.73
6360.0,-8.598,-0.708,-5.274,-8.323,0.22,-5.403,-3.57,0.49,7.56
,-8.399,-0.715,-5.303,-8.43,0.151,-5.157,-3.29,0.42,8.4
,-8.698,-0.639,-5.085,-8.679,-0.026,-5.095,-1.82,0.0,9.17
,-8.665,-0.17,-5.238,-8.835,-0.062,-5.035,-0.42,-0.91,9.8
6436.0,-8.825,0.034,-4.97,-8.875,0.648,-5.229,-2.66,-2.87,9.87
,-8.478,0.184,-5.267,-8.952,0.833,-5.322,-1.82,-3.43,9.87
,-8.38,0.297,-5.341,-8.727,0.926,-5.154,-1.4,-3.15,9.45
,-8.533,0.392,-5.331,-8.67,0.675,-4.975,-0.21,-2.94,8.61
6511.0,-8.643,0.637,-5.025,-8.579,0.395,-4.984,-3.99,-5.25,3.36
,-8.428,0.821,-5.087,-8.949,0.146,-4.941,-2.8,-5.74,2.8
,-8.375,0.926,-4.872,-9.225,0.134,-4.889,-1.96,-6.09,2.31
,-8.538,0.558,-4.867,-8.815,0.191,-5.018,-2.66,-6.23,1.68
6587.0,-8.698,0.007,-4.826,-8.768,-0.014,-4.582,-1.61,-6.93,-0.91
,-8.729,-0.309,-4.678,-8.916,0.321,-4.781,-2.24,-8.12,-0.77
,-8.464,-0.311,-4.759,-8.859,0.67,-4.755,-1.82,-8.75,-0.07
,-8.413,-0.251,-4.75,-8.825,0.782,-4.63,-0.63,-7.91,0.98
6663.0,-8.545,0.675,-4.53,-8.926,0.725,-4.671,-0.98,-6.86,-1.19
,-8.653,0.352,-4.424,-8.947,1.043,-4.841,-2.73,-7.42,-1.47
,-8.617,0.424,-4.515,-8.804,1.017,-4.75,-2.8,-9.17,-1.68
,-8.648,0.725,-4.611,-8.847,0.835,-4.614,-1.89,-9.59,-2.03
6739.0,-8.782,0.488,-4.657,-9.105,-0.397,-4.566,-1.68,-6.79,-5.18
,-8.744,0.132,-4.678,-8.794,0.256,-4.81,0.7,-4.9,-5.32
,-8.67,-0.237,-4.616,-8.385,0.481,-4.915,4.2,-3.64,-5.39
,-8.873,-0.328,-4.568,-8.538,0.223,-4.695,8.33,-3.5,-5.25
6815.0,-8.976,-0.014,-4.606,-8.823,-0.574,-4.269,-4.27,-12.46,-5.18
,-8.799,-0.184,-4.685,-8.933,-0.182,-4.276,-5.11,-12.32,-5.04
,-8.65,-0.445,-4.556,-9.643,-0.287,-4.2,-3.99,-11.13,-4.41
,-8.705,-0.73,-4.3,-9.316,0.412,-4.403,0.21,-9.31,-3.22
6890.0,-8.772,0.704,-4.247,-9.1,0.249,-3.881,-0.28,-16.31,-2.8
,-8.662,0.29,-4.25,-9.155,0.17,-3.57,-5.18,-16.45,-2.73
,-8.665,-0.144,-4.073,-9.239,0.108,-3.539,-6.79,-16.45,-2.94
,-8.765,0.086,-3.944,-9.189,0.103,-3.721,-4.62,-16.52,-3.15
6966.0,-9.079,0.112,-3.582,-8.701,-0.438,-3.29,-0.07,-12.18,-4.76
,-9.16,0.342,-3.637,-8.973,-0.701,-3.099,0.21,-12.53,-5.32
,-9.076,0.495,-3.664,-9.174,-0.677,-2.965,-1.68,-12.67,-5.88
,-8.684,0.268,-3.597,-9.304,-0.249,-2.656,-5.04,-12.11,-6.02
7041.0,-9.404,0.148,-2.704,-8.973,0.148,-3.81,4.97,-5.88,-3.78
,-9.342,0.273,-2.824,-9.045,-0.093,-3.757,3.64,-4.76,-4.06
,-9.239,0.376,-3.324,-9.11,0.278,-3.656,1.89,-4.27,-4.34
,-9.014,0.426,-3.738,-8.971,0.378,-3.611,0.49,-4.13,-4.27
7117.0,-9.002,0.098,-3.551,-9.213,-0.61,-3.939,3.78,-0.98,-5.46
,-9.146,-0.163,-3.546,-9.012,-0.73,-3.891,3.29,-0.7,-5.11
,-9.342,-0.242,-3.74,-8.93,-0.792,-4.082,3.92,-0.77,-4.76
,-9.196,-0.33,-3.774,-8.868,-0.787,-4.24,4.13,-0.42,-4.13
7193.0,-8.973,-0.586,-4.113,-9.1,0.06,-4.216,16.24,0.0,0.0
,-9.282,-0.287,-4.441,-8.918,-0.074,-3.908,18.06,-0.84,0.84
,-9.179,-0.048,-4.106,-9.167,-0.057,-3.704,17.57,-1.47,1.05
,-9.229,-0.012,-3.929,-9.134,0.096,-3.599,16.24,-1.54,1.05
7269.0,-9.244,0.168,-3.408,-9.414,-0.124,-3.137,9.52,-3.5,-1.26
,-9.222,0.175,-3.319,-9.328,0.206,-3.597,7.84,-3.29,-1.75
,-9.261,0.069,-3.163,-9.074,0.278,-3.659,6.58,-2.45,-1.89
,-9.241,-0.223,-2.867,-9.064,0.017,-3.752,5.88,-1.82,-2.03
7344.0,-9.062,-0.436,-3.611,-9.332,-0.447,-3.527,2.24,-1.54,-3.5
,-9.038,-0.462,-3.62,-9.299,-0.388,-3.522,3.5,-1.05,-3.71
,-9.062,-0.371,-3.506,-9.165,-0.361,-3.711,3.43,-1.12,-4.13
,-9.284,-0.402,-3.513,-9.048,-0.526,-3.692,2.59,-1.47,-4.55
7420.0,-9.112,-0.696,-3.585,-9.308,-0.404,-3.518,-1.26,-0.42,-3.43
,-9.146,-0.864,-3.585,-9.253,-0.156,-3.616,-0.84,-0.14,-2.87
,-9.074,-0.809,-3.431,-9.368,-0.124,-3.948,2.03,0.28,-2.1
,-9.244,-0.625,-3.429,-9.215,-0.148,-4.116,3.22,0.63,-1.75
7495.0,-9.031,-0.141,-4.101,-9.122,-0.45,-4.348,-2.52,-0.91,-2.45
,-9.043,-0.278,-4.156,-9.0,-0.759,-4.085,-1.96,-1.4,-2.38
,-9.086,-0.397,-4.3,-9.057,-0.766,-3.817,-0.56,-1.96,-2.38
,-9.095,-0.352,-4.348,-9.402,-0.613,-3.671,1.54,-2.66,-2.1
7571.0,-9.564,-0.503,-3.769,-9.232,-0.737,-3.36,10.85,-4.48,0.07
,-9.308,-0.639,-3.654,-9.158,-0.302,-3.144,8.68,-4.76,0.14
,-9.122,-0.995,-3.676,-9.117,-0.036,-2.599,6.79,-5.04,0.21
,-9.024,-0.986,-3.364,-9.292,-0.117,-2.627,7.42,-4.83,0.7
7647.0,-9.411,-0.302,-2.769,-9.342,-0.531,-3.656,2.17,-1.68,0.49
,-9.459,-0.38,-3.072,-9.263,-0.266,-3.994,2.87,-1.19,0.77
,-9.323,-0.675,-3.211,-9.217,0.043,-4.288,3.5,-0.56,1.26
,-9.241,-0.763,-3.326,-9.318,-0.129,-4.357,6.65,-0.07,2.03
7723.0,-8.976,-0.022,-4.097,-9.603,-0.546,-2.819,-1.05,-3.43,-0.91
,-8.952,-0.034,-3.561,-9.627,-0.498,-2.986,-3.57,-3.78,-0.98
,-9.086,-0.546,-3.053,-9.402,-0.345,-3.166,-3.15,-3.01,-0.63
,-9.392,-0.79,-2.828,-9.158,-0.512,-3.297,0.28,-2.1,0.07
7799.0,-9.086,-0.735,-3.355,-9.366,-0.349,-3.506,4.48,0.42,1.26
,-9.15,-0.847,-3.422,-9.289,-0.134,-3.604,6.44,1.12,1.96
,-9.227,-0.699,-3.475,-9.294,-0.019,-3.683,8.33,1.33,2.24
,-9.318,-0.491,-3.441,-9.206,-0.101,-3.683,9.17,1.47,2.52
7874.0,-9.134,-0.491,-3.515,-9.304,-0.428,-3.089,-0.7,0.07,1.05
,-9.263,-0.605,-3.477,-9.332,-0.261,-3.029,0.21,0.28,1.26
,-9.277,-0.723,-3.319,-9.399,-0.235,-2.998,2.1,0.63,1.61
,-9.239,-0.584,-3.142,-9.543,-0.124,-3.175,3.85,1.26,1.96
7950.0,-9.423,-0.347,-3.285,-9.222,-0.201,-3.805,2.94,3.01,1.89
,-9.328,-0.469,-3.386,-9.244,-0.172,-3.951,2.94,2.87,1.82
,-9.215,-0.5,-3.498,-9.191,-0.148,-3.936,4.34,3.15,1.89
,-9.129,-0.371,-3.604,-9.34,-0.39,-3.836,6.65,3.36,2.1
8026.0,-9.521,-0.366,-3.819,-9.239,-0.675,-2.967,2.17,0.28,-1.19
,-9.129,0.366,-3.647,-9.306,-0.787,-2.804,-1.61,-1.05,-2.1
,-9.007,0.359,-3.412,-9.371,-0.833,-2.819,-8.12,-1.19,-2.59
,-9.122,-0.395,-3.166,-9.44,-0.644,-2.903,-10.85,-0.56,-2.73
8102.0,-9.378,-0.27,-3.166,-9.191,-0.584,-3.532,-4.27,2.8,-0.98
,-9.21,-0.062,-3.312,-9.198,-0.586,-3.436,-6.58,3.01,-1.19
,-9.088,-0.194,-3.518,-9.368,-0.696,-3.293,-8.47,3.5,-1.19
,-9.095,-0.433,-3.542,-9.33,-0.617,-3.029,-8.82,4.2,-1.05
8177.0,-9.428,-0.608,-2.864,-9.081,-0.158,-3.738,-0.49,6.44,1.4
,-9.454,-0.45,-2.778,-9.091,-0.455,-3.628,0.07,6.65,1.68
,-9.512,-0.017,-3.295,-8.954,-0.749,-3.242,-1.19,6.3,1.19
,-9.217,0.048,-3.616,-9.1,-0.811,-3.051,-4.48,5.88,0.77
8253.0,-9.304,-0.723,-2.702,-9.253,0.017,-3.848,-0.14,9.59,2.31
,-9.55,-0.349,-3.072,-9.043,-0.179,-3.752,1.05,9.59,2.45
,-9.385,-0.077,-3.08,-8.966,-0.538,-3.577,0.35,9.59,2.66
,-9.435,0.05,-3.635,-8.969,-0.983,-3.173,-1.47,8.96,2.38
8328.0,-9.452,-0.675,-3.709,-9.019,0.187,-4.628,-2.94,10.01,2.66
,-9.172,-0.089,-3.778,-8.945,-0.139,-4.681,-1.47,9.1,2.03
,-9.414,0.404,-4.319,-9.1,-0.136,-4.451,-1.96,7.77,1.75
,-9.222,0.617,-4.692,-9.182,0.558,-4.724,-6.3,6.37,1.33
8404.0,-8.906,0.656,-4.262,-9.423,-1.539,-2.544,-5.46,3.29,-1.89
,-8.885,-0.091,-3.884,-9.387,-0.833,-1.831,-10.22,4.06,-2.31
,-8.911,-1.177,-3.161,-9.753,0.488,-2.982,-11.83,5.32,-1.61
,-9.057,-1.814,-2.254,-9.292,0.689,-3.506,-6.72,7.49,0.35
8480.0,-9.076,-0.158,-3.446,-8.679,-1.079,-4.915,-13.93,8.26,1.26
,-9.162,-0.852,-3.795,-9.184,-0.632,-4.874,-15.68,9.1,2.17
,-8.648,-1.187,-4.226,-9.38,-0.129,-5.001,-12.11,8.96,2.94
,-8.459,-1.115,-4.865,-9.15,0.601,-4.594,-6.79,8.68,4.2
8556.0,-9.007,0.919,-4.544,-9.665,0.057,-3.206,14.35,6.44,5.04
,-8.806,0.869,-3.649,-9.383,0.565,-3.455,14.21,6.86,4.97
,-9.263,0.605,-3.173,-9.28,0.782,-4.276,12.6,7.84,3.78
,-9.311,0.33,-3.022,-8.756,0.445,-4.925,7.98,8.4,2.17
8632.0,-8.509,-0.589,-5.138,-9.072,-0.443,-4.037,-13.79,3.36,-0.56
,-8.696,-1.448,-4.695,-9.213,-0.304,-3.723,-11.27,5.6,0.84
,-8.861,-1.314,-4.685,-9.201,-0.05,-3.149,-2.31,5.88,0.98
,-8.818,-0.715,-4.633,-9.45,0.148,-3.008,6.79,5.81,0.49
8707.0,-9.402,0.134,-3.441,-9.103,-0.328,-3.975,7.49,5.11,0.77
,-9.134,-0.438,-3.458,-8.44,0.725,-3.766,1.33,5.88,0.77
,-9.103,-1.029,-3.735,-8.631,1.34,-3.936,-0.63,6.79,1.26
,-9.103,-1.055,-3.884,-8.94,1.053,-4.003,3.29,7.63,1.89
8783.0,-9.34,0.156,-4.128,-8.756,-1.017,-3.678,-3.36,5.95,0.56
,-9.292,-0.859,-4.238,-8.933,-0.581,-3.396,-4.48,5.18,1.54
,-9.045,-1.371,-4.137,-8.983,-0.096,-3.431,0.63,4.97,1.96
,-8.847,-1.254,-3.908,-9.294,0.663,-3.252,9.31,6.3,2.66
8859.0,-9.206,1.493,-3.912,-8.768,-0.022,-4.233,15.75,11.55,0.63
,-8.902,1.855,-4.166,-8.844,-1.125,-3.915,7.63,10.99,-0.98
,-8.887,1.675,-4.379,-8.83,-1.91,-3.927,0.0,11.13,-2.66
,-8.839,0.838,-4.31,-8.995,-2.577,-3.924,-5.46,11.06,-4.2
8935.0,-9.129,-2.917,-4.015,-8.492,-0.792,-4.681,14.63,12.04,4.2
,-9.222,-2.618,-4.401,-8.533,-0.55,-4.757,21.91,11.2,6.93
,-8.861,-1.862,-4.745,-8.823,-0.203,-4.707,26.04,10.08,9.03
,-8.579,-1.314,-4.8,-9.014,0.036,-4.726,25.9,10.15,10.71
9010.0,-9.002,0.309,-4.697,-9.136,-0.625,-4.305,-0.77,8.26,9.73
,-8.667,-0.067,-4.573,-9.332,-0.529,-4.317,-4.9,7.77,9.52
,-8.78,-0.447,-4.228,-9.196,-0.33,-4.58,-4.83,8.4,10.15
,-8.854,-0.622,-4.212,-8.909,0.182,-4.848,-0.77,8.33,10.57
9086.0,-8.54,0.804,-5.114,-9.045,2.185,-4.637,19.6,3.92,9.38
,-8.425,1.096,-4.951,-8.99,1.594,-4.357,17.71,4.97,6.86
,-8.586,1.579,-4.719,-8.921,0.814,-4.343,15.12,6.09,3.99
,-8.914,2.168,-4.551,-9.261,-0.062,-4.142,11.13,6.23,1.33
9161.0,-8.983,-0.122,-4.386,-8.76,-0.704,-4.645,-1.33,3.78,-4.76
,-8.868,-0.093,-4.556,-9.165,-0.708,-4.714,4.48,2.87,-5.04
,-8.722,-0.201,-4.63,-8.603,-0.62,-4.965,7.84,1.96,-5.32
,-8.516,-0.426,-4.614,-8.148,-0.943,-4.781,9.8,2.59,-5.46
9237.0,-8.145,-1.263,-4.661,-8.815,-0.318,-4.659,5.88,3.29,-1.26
,-8.765,-1.555,-4.506,-8.789,0.254,-4.944,5.32,3.71,0.14
,-9.316,-1.328,-4.513,-8.851,0.428,-4.858,5.6,1.61,0.84
,-8.947,-0.878,-4.695,-8.868,0.321,-4.826,6.65,1.26,1.12
9313.0,-9.033,-0.093,-4.635,-8.665,-0.273,-4.654,4.9,1.47,0.49
,-9.174,-0.325,-4.767,-8.653,-0.132,-4.855,6.86,-0.63,1.12
,-8.705,-0.493,-4.879,-8.964,0.01,-4.798,8.89,0.07,1.12
,-8.619,-0.529,-4.594,-8.866,-0.163,-4.862,10.57,1.05,0.91
9389.0,-8.71,-0.498,-4.81,-8.536,-1.316,-4.657,8.54,-0.28,1.12
,-8.837,-0.806,-4.941,-8.473,-0.94,-4.74,8.68,-1.05,1.26
,-9.031,-1.156,-4.968,-8.739,-0.483,-4.633,10.85,-1.19,1.33
,-8.866,-1.563,-4.544,-8.593,-0.206,-4.853,13.51,-0.21,2.38
9464.0,-8.844,-0.148,-4.846,-8.756,0.139,-4.448,11.48,-1.47,7.14
,-9.141,0.103,-4.874,-8.875,-0.275,-4.274,11.06,-1.4,6.65
,-9.17,0.318,-4.568,-9.06,-0.531,-4.216,10.36,-1.89,5.88
,-8.863,0.591,-4.764,-9.055,-0.517,-4.343,7.63,-2.45,5.39
9540.0,-8.93,-0.261,-4.513,-9.256,0.687,-4.659,2.38,1.61,5.46
,-8.567,0.022,-4.649,-9.206,0.821,-4.544,2.17,1.47,5.81
,-8.421,0.541,-4.893,-8.99,0.797,-4.599,2.8,1.89,5.53
,-8.875,0.723,-4.812,-9.019,0.275,-4.444,2.24,2.94,4.41
9616.0,-9.112,-0.115,-4.092,-8.691,0.33,-4.704,-3.01,7.21,-0.21
,-8.638,-0.328,-4.453,-8.758,0.273,-4.685,-4.13,7.07,0.14
,-8.634,-0.153,-4.48,-8.904,0.144,-4.769,-4.13,7.07,0.77
,-8.715,0.218,-4.645,-8.839,0.124,-4.748,-4.9,6.72,0.91
9692.0,-8.899,0.246,-4.877,-8.693,-0.376,-4.975,-11.9,8.26,-1.61
,-9.213,0.163,-4.707,-8.552,-0.586,-5.245,-10.64,8.75,-2.73
,-9.359,0.203,-4.858,-8.469,-0.715,-5.214,-10.01,7.98,-4.2
,-8.995,0.072,-5.018,-8.804,-0.828,-5.039,-10.08,7.42,-5.04
9768.0,-8.971,-1.022,-5.061,-8.76,-2.115,-5.181,-3.5,4.97,-1.4
,-8.94,-1.218,-5.111,-8.758,-1.924,-4.963,-4.69,4.69,-0.35
,-8.914,-1.496,-5.214,-8.394,-1.366,-5.14,-6.09,3.99,1.33
,-8.746,-1.912,-5.173,-8.311,-0.598,-5.329,-7.14,3.5,3.43
9843.0,-8.469,-0.124,-5.437,-9.105,-0.615,-4.731,-3.01,-0.21,13.37
,-8.533,-0.069,-5.477,-9.014,-0.132,-4.783,-5.18,-0.49,13.65
,-8.756,-0.316,-5.214,-9.076,0.553,-4.757,-5.95,-0.07,13.58
,-8.918,-0.579,-4.886,-9.184,0.893,-4.757,-4.76,0.49,13.72
9919.0,-8.794,1.079,-4.917,-8.677,0.56,-5.142,-2.1,-1.75,9.73
,-8.581,0.718,-4.951,-8.48,0.546,-4.767,-6.51,-2.1,9.52
,-8.727,0.457,-4.977,-8.873,0.268,-4.776,-8.26,-2.94,9.52
,-8.617,0.483,-5.14,-8.581,0.203,-4.889,-8.12,-3.22,8.4
9994.0,-8.464,0.115,-4.812,-9.552,0.416,-4.59,-9.73,-4.27,3.36
,-8.739,0.206,-4.743,-9.148,0.488,-4.788,-6.86,-3.92,3.15
,-8.842,0.325,-4.824,-8.725,0.424,-4.733,-3.64,-3.92,3.36
,-9.069,0.412,-4.733,-8.863,0.28,-4.47,-0.35,-3.22,3.78
10070.0,-8.514,0.905,-4.74,-8.959,0.9,-4.427,2.1,-11.76,2.03
,-8.055,1.067,-4.783,-8.758,0.811,-4.503,0.21,-11.34,1.68
,-8.61,0.797,-4.508,-8.78,0.45,-4.367,-1.89,-10.5,1.33
,-9.184,0.687,-4.446,-9.093,0.457,-4.154,-3.01,-11.41,0.35
10146.0,-8.815,0.708,-4.408,-9.026,0.507,-4.228,0.84,-9.8,-3.36
,-8.725,0.849,-4.389,-9.186,0.467,-4.121,2.66,-9.1,-3.85
,-8.995,0.596,-4.317,-8.758,0.598,-4.233,2.24,-8.96,-4.06
,-8.902,0.625,-4.465,-8.526,0.503,-4.293,1.61,-10.08,-4.62
10222.0,-8.789,0.294,-4.2,-9.153,-0.211,-4.176,-9.17,-12.88,-7.35
,-8.875,0.34,-4.458,-9.474,-0.424,-3.951,-8.26,-12.74,-7.56
,-8.892,0.268,-4.415,-8.976,-0.134,-4.279,-6.3,-11.55,-7.56
,-8.959,0.122,-4.326,-8.54,-0.225,-4.312,-3.71,-10.08,-7.35
10297.0,-8.849,-0.311,-4.257,-8.859,-0.168,-3.999,0.63,-12.67,-4.83
,-9.244,-0.031,-4.228,-9.024,-0.333,-3.805,1.05,-13.09,-5.39
,-9.028,0.335,-4.298,-9.112,-0.163,-3.75,-0.77,-13.79,-5.6
,-8.765,0.218,-4.245,-9.462,-0.105,-3.673,-4.27,-14.0,-5.53
10373.0,-9.201,0.373,-3.8,-9.0,-1.129,-3.072,2.38,-14.42,-4.55
,-8.839,0.369,-3.743,-9.17,-0.974,-2.989,-0.35,-14.63,-4.34
,-8.801,-0.371,-3.546,-9.442,-0.565,-3.135,-1.61,-13.65,-4.06
,-8.921,-0.998,-3.25,-9.354,-0.093,-2.979,0.77,-12.74,-3.36
10449.0,-9.239,0.4,-3.061,-9.067,0.718,-3.101,14.14,-8.89,0.84
,-9.349,0.23,-2.927,-9.136,0.593,-3.075,12.04,-8.33,0.07
,-9.426,0.627,-3.228,-9.294,0.723,-3.039,9.31,-9.52,-0.98
,-8.961,0.864,-3.214,-9.318,0.778,-3.032,5.11,-9.8,-1.82
10525.0,-9.22,0.605,-3.307,-9.206,-0.653,-2.86,2.45,-5.6,-6.02
,-9.165,0.445,-3.518,-9.442,-0.278,-2.883,0.77,-5.88,-6.51
,-9.074,0.055,-3.412,-9.543,0.242,-2.958,0.84,-5.25,-6.37
,-9.119,-0.337,-3.321,-9.354,0.445,-3.532,2.24,-3.43,-6.16
10601.0,-9.174,0.055,-3.527,-9.28,-0.335,-3.307,-0.77,-3.08,-5.88
,-9.095,-0.115,-3.831,-9.273,-0.103,-3.216,-0.28,-3.08,-5.95
,-9.031,-0.33,-3.506,-9.182,-0.191,-3.065,2.87,-2.17,-5.53
,-9.191,-0.38,-3.628,-9.263,-0.505,-2.869,6.65,-1.4,-5.11
10676.0,-9.397,-0.474,-2.881,-9.323,-0.33,-3.676,4.62,0.07,-3.92
,-9.342,-0.522,-2.998,-9.069,-0.223,-3.972,5.04,0.91,-3.5
,-9.438,-0.416,-3.226,-8.94,-0.254,-3.896,5.39,1.33,-2.94
,-9.624,-0.402,-3.666,-9.287,-0.156,-3.898,5.46,0.84,-2.87
10752.0,-9.296,0.077,-3.814,-9.373,-0.268,-2.828,8.54,-1.05,-2.66
,-9.158,0.077,-3.503,-9.361,-0.237,-3.089,4.55,-2.24,-3.57
,-9.141,0.005,-2.936,-9.198,-0.433,-2.979,1.19,-2.03,-3.85
,-9.442,-0.235,-2.967,-9.177,-0.627,-2.927,0.56,-1.54,-3.99
10827.0,-9.194,-0.493,-2.737,-9.512,-0.407,-3.144,6.79,2.17,-1.75
,-9.335,-0.603,-2.465,-9.261,-0.536,-3.546,8.61,3.71,-1.19
,-9.624,-0.522,-2.639,-9.024,-0.455,-3.702,9.59,4.34,-0.91
,-9.552,-0.443,-2.711,-8.947,-0.402,-3.676,9.03,4.97,-0.63
10903.0,-9.06,-0.505,-3.527,-9.296,-0.29,-3.728,11.34,6.37,0.77
,-9.301,-0.529,-3.374,-9.201,-0.361,-3.929,13.44,6.65,1.26
,-9.447,-0.39,-3.405,-9.246,-0.33,-4.054,14.63,6.65,1.54
,-9.378,-0.302,-3.606,-9.239,-0.101,-4.109,14.63,6.23,1.54
10979.0,-9.277,-0.062,-4.092,-9.476,-0.345,-3.41,13.23,4.2,1.54
,-9.206,-0.129,-3.79,-9.545,-0.235,-3.788,11.48,3.71,1.26
,-9.246,-0.242,-3.553,-9.261,-0.165,-3.96,10.43,3.5,1.19
,-9.263,-0.419,-3.396,-8.935,-0.335,-3.915,10.22,3.78,1.12
11055.0,-8.923,-0.61,-3.989,-9.349,-0.625,-3.228,-0.14,0.98,-1.19
,-9.002,-0.797,-3.872,-9.404,-0.302,-3.228,2.38,0.77,-0.77
,-9.196,-0.739,-3.848,-9.442,-0.175,-3.362,5.11,0.56,-0.42
,-9.234,-0.689,-3.482,-9.354,-0.297,-3.489,7.35,0.7,0.21
11130.0,-9.182,-0.536,-3.463,-9.21,-0.378,-3.903,1.89,0.84,0.0
,-9.148,-0.608,-3.589,-9.158,-0.383,-3.836,2.73,0.98,0.21
,-9.165,-0.488,-3.764,-9.177,-0.397,-3.726,4.2,0.84,0.42
,-9.174,-0.459,-3.776,-9.275,-0.519,-3.75,5.11,0.7,0.56
11206.0,-9.217,-0.665,-3.522,-9.308,-0.38,-3.269,5.67,-0.84,0.77
,-9.304,-0.761,-3.455,-9.316,-0.294,-3.458,6.23,-0.63,0.98
,-9.342,-0.742,-3.381,-9.356,-0.189,-3.609,6.79,-0.49,1.05
,-9.246,-0.586,-3.183,-9.196,-0.299,-3.654,7.21,-0.28,1.33
11281.0,-9.115,-0.581,-3.647,-9.466,-0.115,-3.829,2.45,-0.49,0.77
,-9.107,-0.682,-3.553,-9.323,-0.091,-3.836,4.13,-0.49,1.26
,-9.201,-0.538,-3.455,-9.112,-0.357,-3.668,6.3,-0.28,1.75
,-9.435,-0.304,-3.58,-9.069,-0.598,-3.604,7.49,-0.49,1.82
11357.0,-9.182,-0.651,-3.443,-9.294,-0.57,-2.907,1.89,-1.75,0.63
,-9.294,-0.534,-3.329,-9.284,-0.543,-2.91,3.36,-1.4,0.98
,-9.337,-0.51,-3.135,-9.253,-0.524,-2.852,3.71,-0.98,1.26
,-9.316,-0.541,-2.953,-9.416,-0.5,-2.888,3.85,-0.63,1.61
11433.0,-9.409,-0.39,-3.01,-9.275,-0.479,-3.47,3.78,2.24,1.68
,-9.361,-0.053,-3.175,-9.244,-0.199,-3.68,2.1,2.45,1.19
,-9.282,-0.074,-3.374,-9.246,-0.098,-3.711,-0.98,2.8,0.7
,-9.227,-0.455,-3.329,-9.251,-0.4,-3.618,-2.8,2.87,0.49
11509.0,-9.232,-0.431,-3.565,-9.182,-0.565,-3.431,-1.33,2.31,-0.14
,-9.294,-0.354,-3.63,-9.182,-0.433,-3.204,-0.91,2.24,-0.07
,-9.316,-0.488,-3.623,-9.38,-0.22,-3.242,-1.68,2.03,-0.28
,-9.229,-0.711,-3.484,-9.366,-0.108,-3.297,-1.33,2.38,0.07
11585.0,-9.399,-0.151,-3.393,-9.162,-0.206,-3.049,-2.38,3.01,0.14
,-9.457,-0.199,-3.441,-9.313,-0.438,-2.917,-4.69,2.87,-0.84
,-9.182,0.081,-3.369,-9.459,-0.596,-2.938,-7.0,2.38,-1.4
,-9.115,0.129,-3.295,-9.514,-0.546,-3.092,-10.08,2.38,-1.89
11660.0,-9.433,-0.593,-3.281,-9.356,-0.383,-2.596,-4.9,5.88,-0.63
,-9.28,-0.469,-3.173,-9.488,-0.074,-2.905,-4.62,6.3,-0.49
,-9.062,-0.486,-2.891,-9.402,-0.089,-3.142,-4.55,7.14,0.0
,-9.143,-0.519,-2.63,-9.246,-0.345,-3.673,-3.5,8.61,0.49
11736.0,-8.942,-0.775,-3.709,-9.359,-0.285,-3.606,-13.86,9.31,-0.28
,-9.045,-0.809,-3.948,-9.409,-0.074,-3.702,-10.85,9.31,0.07
,-8.789,-0.68,-3.96,-9.287,-0.196,-3.53,-7.91,9.31,0.49
,-8.942,-0.622,-3.539,-9.433,-0.163,-3.774,-5.18,10.01,1.33
11812.0,-9.182,-0.28,-4.432,-8.988,-0.993,-4.011,-13.3,7.07,0.28
,-8.813,-0.38,-4.549,-9.203,-0.787,-3.994,-13.16,6.02,0.77
,-8.851,-0.517,-4.685,-9.091,-0.536,-4.099,-12.39,5.6,1.19
,-8.839,-0.842,-4.271,-9.105,-0.534,-3.735,-9.59,5.6,1.89
11888.0,-9.17,-0.811,-3.692,-9.241,0.534,-4.389,-1.96,6.16,5.18
,-9.038,-1.201,-2.953,-9.012,0.055,-4.547,1.4,7.98,7.07
,-9.397,-0.701,-3.364,-8.646,-0.416,-3.587,7.14,7.35,7.49
,-9.225,0.189,-3.869,-9.287,0.12,-3.793,6.44,4.62,5.88
11963.0,-8.964,1.232,-3.996,-8.945,-1.847,-2.871,5.67,5.04,2.87
,-9.409,1.572,-4.188,-9.258,-1.318,-3.417,0.7,3.92,1.75
,-9.153,0.538,-4.221,-9.842,-0.213,-3.738,-9.94,4.27,1.54
,-8.626,-1.134,-3.592,-9.823,0.684,-4.456,-12.74,6.09,3.15
12039.0,-9.069,0.687,-4.429,-9.22,0.955,-4.154,9.03,4.34,4.76
,-8.792,0.78,-4.085,-9.206,0.16,-4.59,7.0,6.02,4.06
,-8.856,1.433,-4.267,-8.969,-0.897,-4.415,7.91,6.09,1.61
,-8.78,1.531,-4.436,-8.815,-1.857,-3.676,1.54,4.48,-1.05
12114.0,-8.811,-2.204,-3.192,-9.227,-0.179,-3.477,-0.49,6.51,-0.21
,-9.213,-2.161,-2.795,-8.729,-0.026,-3.369,10.64,8.05,2.66
,-9.543,-1.634,-3.022,-9.155,0.404,-3.259,18.83,7.35,4.83
,-9.624,-0.771,-3.19,-9.28,0.964,-4.197,20.58,6.23,5.95
12190.0,-9.301,1.441,-4.676,-8.825,-1.299,-3.743,8.26,4.2,4.48
,-8.813,1.309,-4.75,-9.241,-1.457,-3.439,1.47,4.69,2.94
,-8.452,0.438,-4.475,-9.605,-1.173,-3.69,-3.64,6.65,1.61
,-8.646,-0.658,-3.912,-9.172,-0.811,-4.063,-3.01,8.68,1.05
12266.0,-8.935,-0.385,-4.008,-9.028,0.558,-3.898,16.03,8.19,5.88
,-8.885,-0.112,-3.972,-8.878,0.416,-3.941,15.61,8.54,6.09
,-9.026,0.194,-3.774,-8.775,-0.168,-3.838,14.28,8.96,5.53
,-9.251,0.352,-3.654,-8.971,-0.605,-3.654,11.41,8.96,4.55
12342.0,-8.959,-0.663,-3.848,-8.698,0.845,-4.408,6.09,9.45,5.32
,-9.033,-0.598,-3.891,-8.792,1.149,-4.152,11.41,9.17,5.81
,-9.22,-0.285,-4.068,-9.014,1.354,-4.106,15.61,9.45,6.23
,-8.923,0.309,-4.221,-9.404,1.302,-3.905,18.83,10.29,6.09
12417.0,-9.552,1.251,-3.915,-9.167,-0.012,-3.518,6.51,8.82,-4.2
,-9.002,1.019,-3.924,-9.261,0.28,-3.542,1.05,8.05,-5.39
,-8.32,0.639,-3.793,-9.122,0.519,-3.714,-2.38,9.31,-5.74
,-8.581,0.055,-3.656,-8.837,0.591,-4.176,-2.38,11.2,-5.81
12493.0,-8.667,0.373,-4.568,-8.964,-1.362,-4.331,2.52,11.48,-8.82
,-8.559,-0.072,-4.597,-9.052,-1.766,-4.257,1.26,12.18,-8.82
,-8.751,-0.668,-4.348,-9.057,-1.706,-4.527,0.84,11.76,-8.26
,-8.82,-1.048,-4.357,-8.897,-1.357,-4.712,1.12,10.92,-7.84
12569.0,-8.492,-1.01,-4.944,-8.854,-1.0,-5.511,13.09,10.29,-5.39
,-8.193,-0.933,-4.994,-8.658,-0.895,-5.396,12.18,10.78,-3.85
,-8.562,-1.141,-4.822,-8.394,-0.859,-5.351,10.64,11.55,-1.96
,-8.966,-1.28,-4.939,-8.677,-1.079,-5.08,10.5,10.78,-0.56
12645.0,-9.15,-1.347,-4.52,-9.045,-0.775,-4.75,17.43,11.41,3.64
,-9.127,-1.194,-4.59,-9.055,-0.562,-5.159,19.04,9.94,3.78
,-8.727,-1.05,-4.623,-8.705,-0.536,-5.492,19.32,9.52,4.41
,-8.875,-1.0,-4.654,-8.459,-0.94,-5.394,18.97,9.52,5.67
12721.0,-8.679,-1.302,-5.382,-8.799,0.266,-5.171,14.84,6.23,5.95
,-9.103,-1.34,-5.305,-8.306,0.364,-5.532,18.69,5.6,5.95
,-9.17,-1.005,-5.355,-8.074,0.218,-5.501,23.1,5.46,5.67
,-9.095,-0.397,-5.056,-8.22,0.038,-5.142,26.11,5.74,5.81
12796.0,-8.634,-0.067,-5.19,-8.911,-0.158,-4.477,12.46,-0.14,5.81
,-8.811,-0.081,-5.135,-8.727,-0.103,-4.714,12.53,-1.19,4.83
,-9.012,-0.165,-4.728,-8.89,-0.014,-4.779,11.62,-2.03,4.55
,-8.902,-0.235,-4.647,-8.947,-0.101,-4.999,9.87,-2.66,4.27
12872.0,-8.935,-0.27,-4.817,-8.871,-0.718,-4.491,6.37,-3.92,1.4
,-8.457,-0.639,-4.625,-8.885,-0.337,-4.64,6.51,-3.78,2.24
,-8.397,-0.763,-4.683,-8.993,-0.108,-4.53,7.14,-3.01,3.29
,-8.729,-0.881,-4.587,-9.028,0.029,-4.338,8.12,-2.59,3.78
12947.0,-8.631,0.27,-4.451,-8.918,-0.689,-4.664,3.15,-1.05,2.52
,-8.658,0.134,-4.369,-8.409,-0.773,-4.903,-0.77,-1.12,2.03
,-8.787,-0.153,-4.657,-8.44,-0.747,-4.803,-3.22,-1.33,1.68
,-8.997,-0.534,-4.757,-8.892,-0.55,-4.901,-3.36,-1.26,1.61
13023.0,-9.024,-0.581,-4.886,-8.512,-0.306,-4.489,1.54,2.87,3.57
,-8.964,-0.627,-4.85,-8.483,-0.373,-4.764,1.05,3.78,3.99
,-8.995,-0.677,-4.702,-8.878,-0.359,-4.817,-0.14,3.71,4.48
,-8.703,-0.558,-4.511,-9.038,-0.23,-4.807,-1.75,3.43,5.11
13099.0,-8.851,-0.172,-4.838,-9.177,0.723,-4.657,-8.82,3.64,5.32
,-8.88,0.158,-4.783,-9.083,0.833,-4.657,-8.47,3.71,4.83
,-8.859,0.249,-4.728,-8.866,0.627,-4.676,-8.75,4.2,3.78
,-8.961,0.505,-4.635,-8.641,0.562,-4.927,-8.54,4.48,2.38
13175.0,-8.555,0.447,-5.106,-9.162,-0.292,-4.977,-14.14,2.94,-2.17
,-8.765,0.132,-5.162,-8.837,-0.601,-4.956,-13.58,3.36,-3.01
,-8.954,0.057,-5.145,-8.502,-0.905,-4.893,-11.27,3.64,-3.92
,-9.131,-0.06,-5.066,-8.512,-1.122,-4.982,-9.8,3.29,-4.76
13250.0,-8.684,-1.189,-5.004,-8.559,-1.275,-4.64,-11.69,3.15,-2.87
,-8.997,-1.283,-4.683,-8.423,-1.24,-4.582,-10.01,2.17,-1.82
,-8.806,-1.393,-4.64,-8.66,-1.388,-4.446,-10.57,1.33,-0.63
,-8.787,-1.275,-4.542,-8.894,-1.359,-4.451,-11.55,0.28,0.98
13326.0,-8.777,-0.857,-4.657,-8.737,0.232,-4.702,-4.97,0.35,7.63
,-8.737,-0.558,-4.573,-8.811,0.235,-4.824,-2.24,0.56,8.33
,-8.811,-0.266,-4.456,-9.005,0.273,-4.805,-0.35,0.35,8.54
,-8.715,0.103,-4.611,-9.055,0.479,-4.898,1.05,0.14,8.82
13402.0,-9.055,0.675,-4.956,-8.617,0.672,-5.154,2.45,1.47,6.02
,-8.588,0.725,-4.659,-8.701,0.723,-5.238,1.54,0.63,4.9
,-8.65,0.787,-4.958,-8.605,0.565,-5.14,0.28,-0.63,3.85
,-8.413,0.809,-5.145,-8.794,0.223,-4.937,-1.61,-0.91,3.08
13478.0,-8.921,-0.055,-5.004,-9.014,-0.017,-4.764,0.84,-1.12,-0.49
,-9.299,-0.215,-4.819,-8.564,-0.038,-5.078,1.05,-1.96,-0.7
,-9.012,-0.012,-5.109,-8.507,-0.254,-4.879,2.31,-3.36,-1.33
,-8.658,0.086,-5.085,-8.698,-0.395,-4.896,3.01,-2.87,-2.03
13554.0,-8.758,-0.285,-4.941,-8.882,-0.524,-4.257,-1.05,-7.0,-1.68
,-8.655,-0.373,-4.858,-8.851,-0.022,-4.48,-1.54,-7.7,-1.4
,-8.775,-0.471,-4.712,-8.978,0.014,-4.506,-1.26,-7.98,-0.77
,-8.878,-0.371,-4.592,-8.655,0.002,-4.939,-0.21,-8.54,-0.35
13629.0,-8.674,-0.065,-4.645,-8.342,0.352,-4.448,-0.28,-8.96,0.42
,-8.923,-0.309,-4.427,-8.607,0.101,-4.379,-0.35,-8.4,0.42
,-9.22,-0.199,-4.223,-8.88,-0.112,-4.276,0.28,-10.43,0.07
,-8.607,0.275,-4.436,-9.086,-0.232,-4.176,0.7,-11.55,-0.07
13705.0,-9.28,-0.194,-4.075,-8.756,0.266,-4.477,4.76,-8.19,-0.35
,-9.17,0.17,-4.168,-8.526,0.34,-4.554,6.72,-8.4,-1.05
,-9.012,0.299,-4.233,-8.612,0.062,-4.31,6.44,-8.4,-1.54
,-8.911,0.335,-4.46,-8.93,-0.239,-4.204,3.99,-9.45,-1.61
13780.0,-9.141,-0.206,-4.027,-8.854,-0.548,-3.867,2.66,-9.73,-2.52
,-9.119,-0.218,-4.008,-8.882,-0.421,-3.707,2.17,-9.73,-2.45
,-9.016,-0.428,-3.905,-8.981,-0.4,-3.415,2.87,-9.73,-2.24
,-8.792,-0.586,-3.838,-9.273,-0.354,-3.264,5.11,-9.24,-1.89
13856.0,-9.653,-0.292,-3.266,-8.815,0.983,-3.546,14.42,-6.44,0.84
,-9.452,0.158,-3.221,-8.698,0.919,-3.702,13.02,-7.49,-0.14
,-9.11,0.804,-3.429,-8.89,0.44,-3.637,9.03,-7.77,-1.89
,-8.959,0.897,-3.53,-9.028,0.268,-3.652,2.45,-7.91,-3.78
13932.0,-9.182,0.302,-3.781,-8.717,-1.275,-3.788,-6.23,-6.58,-7.7
,-9.117,0.141,-4.097,-9.074,-1.307,-3.525,-6.23,-6.65,-7.91
,-8.945,-0.352,-4.212,-9.502,-0.931,-3.369,-7.14,-6.51,-7.14
,-8.789,-0.986,-4.015,-9.457,-0.361,-3.489,-5.46,-5.6,-5.6
14008.0,-9.105,-0.333,-3.853,-9.194,-0.555,-3.759,-0.49,-4.97,-1.47
,-9.083,-0.467,-3.826,-9.05,-0.093,-3.979,-2.38,-4.41,-1.12
,-8.966,-0.517,-3.877,-9.031,0.012,-4.02,-2.17,-4.13,-1.54
,-8.959,-0.622,-3.74,-8.988,-0.254,-3.888,0.14,-3.01,-1.61
14083.0,-9.055,-0.692,-3.647,-9.332,0.749,-3.451,6.51,-4.06,0.21
,-9.098,-0.677,-3.247,-9.225,0.617,-3.709,10.22,-2.59,0.56
,-9.273,-0.203,-2.936,-9.007,0.067,-3.644,13.86,-1.19,0.91
,-9.49,0.352,-3.044,-9.019,-0.105,-3.819,12.46,-1.12,-0.14
14159.0,-8.928,0.165,-3.912,-9.162,-0.45,-3.214,4.34,-1.05,-2.87
,-9.067,0.278,-3.884,-9.275,-0.677,-3.216,4.41,-1.33,-3.5
,-9.251,0.237,-3.788,-9.215,-0.761,-3.333,2.52,-1.54,-3.64
,-9.191,-0.108,-3.625,-9.234,-0.902,-3.506,0.7,-1.47,-3.5
14235.0,-9.354,-1.055,-3.79,-9.021,-0.493,-3.953,5.04,1.89,-0.63
,-9.107,-0.945,-3.946,-9.155,-0.337,-3.848,7.56,1.12,0.07
,-9.052,-0.735,-4.183,-9.162,-0.342,-3.855,10.01,0.98,0.91
,-9.103,-0.641,-4.178,-9.052,-0.613,-3.52,11.34,0.7,1.26
14311.0,-9.201,-0.668,-3.326,-9.093,0.266,-3.546,10.64,0.98,2.45
,-9.268,-0.316,-3.293,-9.072,-0.242,-3.412,14.21,1.4,2.87
,-9.284,0.268,-3.561,-9.134,-0.488,-3.151,15.26,1.33,2.45
,-9.143,0.471,-3.613,-9.347,-0.421,-3.226,12.11,1.4,1.75
14386.0,-9.421,-0.235,-3.419,-8.856,-0.632,-4.475,10.15,3.99,0.77
,-9.366,-0.041,-4.03,-8.847,-0.981,-4.085,7.35,3.08,0.28
,-9.146,-0.065,-4.314,-9.165,-0.986,-3.623,3.43,1.75,-0.7
,-9.002,-0.182,-4.489,-9.385,-0.641,-3.53,1.05,0.84,-0.98
14462.0,-9.505,-0.215,-3.604,-8.99,-0.866,-3.63,11.69,-0.07,0.28
,-9.318,0.237,-4.121,-9.095,-0.823,-3.19,6.65,-1.4,-0.84
,-8.945,0.057,-4.128,-9.301,-0.804,-2.831,0.77,-1.96,-1.26
,-8.801,-0.529,-3.869,-9.5,-0.644,-2.807,-1.33,-1.61,-1.12
14538.0,-9.55,-0.299,-3.293,-8.899,-0.732,-4.558,5.18,1.19,0.56
,-9.33,-0.148,-3.69,-9.069,-0.651,-4.35,2.24,0.98,0.56
,-9.217,-0.227,-4.348,-9.198,-0.558,-4.171,-0.42,0.7,0.42
,-8.916,-0.553,-4.587,-9.517,-0.158,-4.35,-0.42,0.21,0.63
14614.0,-9.246,0.079,-4.403,-9.28,-0.345,-3.47,6.51,-4.2,0.7
,-9.043,-0.065,-4.204,-9.301,-0.359,-3.166,2.45,-5.04,0.07
,-8.993,-0.455,-3.855,-9.325,-0.395,-2.972,1.33,-4.83,-0.14
,-9.057,-0.577,-3.553,-9.22,-0.392,-2.831,4.06,-4.48,0.21
14690.0,-9.203,-0.361,-2.802,-9.222,-0.536,-3.206,4.76,-1.96,0.21
,-9.296,-0.464,-2.958,-9.282,-0.464,-3.338,3.15,-1.19,-0.07
,-9.222,-0.548,-3.01,-9.222,-0.433,-3.518,1.61,-0.56,-0.28
,-9.304,-0.522,-3.094,-9.206,-0.438,-3.781,0.07,-0.07,-0.42
14765.0,-9.167,-0.5,-4.063,-9.184,-0.251,-3.721,-0.91,0.84,0.14
,-9.072,-0.591,-3.977,-9.265,-0.357,-3.599,-0.42,0.63,0.56
,-9.194,-0.663,-3.948,-9.313,-0.558,-3.369,1.05,0.63,0.7
,-9.127,-0.462,-3.888,-9.311,-0.505,-3.345,2.52,0.21,0.98
14841.0,-9.167,-0.445,-3.3,-9.342,-0.031,-3.611,0.63,0.42,0.56
,-9.182,-0.407,-3.269,-9.284,-0.22,-3.652,0.91,1.05,0.7
,-9.227,-0.536,-3.228,-9.332,-0.438,-3.845,1.89,1.82,1.05
,-9.368,-0.235,-3.295,-9.208,-0.593,-3.987,3.22,2.17,1.05
14916.0,-9.107,-0.677,-3.965,-9.282,-0.412,-3.515,3.43,1.75,0.84
,-9.213,-0.67,-3.929,-9.318,-0.189,-3.496,5.39,1.54,1.12
,-9.217,-0.653,-3.819,-9.222,0.036,-3.451,6.72,1.47,1.26
,-9.249,-0.385,-3.743,-9.244,-0.089,-3.561,6.93,1.26,1.54
14992.0,-9.206,-0.218,-3.592,-9.232,-0.629,-3.218,-3.15,-0.35,-0.7
,-9.17,-0.443,-3.546,-9.414,-0.445,-3.398,-3.64,-0.21,-0.77
,-9.119,-0.593,-3.479,-9.39,-0.278,-3.74,-2.59,0.21,-0.7
,-9.134,-0.708,-3.348,-9.201,-0.179,-3.932,-0.35,0.84,-0.35
15068.0,-9.174,-0.258,-4.149,-9.28,-0.565,-3.896,-1.96,0.49,-0.28
,-9.04,-0.321,-4.226,-9.273,-0.541,-3.654,-2.8,-0.28,-0.49
,-9.04,-0.361,-4.204,-9.258,-0.471,-3.362,-3.15,-0.84,-0.49
,-9.227,-0.51,-4.154,-9.251,-0.392,-3.154,-2.45,-1.26,-0.49
15144.0,-9.342,-0.273,-3.039,-9.308,-0.565,-3.252,-1.12,-1.68,-0.49
,-9.347,-0.196,-3.003,-9.234,-0.546,-3.364,-2.66,-1.33,-0.49
,-9.244,-0.292,-3.099,-9.162,-0.57,-3.405,-3.92,-0.77,-0.42
,-9.277,-0.479,-3.187,-9.246,-0.455,-3.477,-4.41,-0.42,-0.49
15219.0,-9.284,-0.447,-3.405,-9.335,-0.27,-3.75,1.12,2.03,0.98
,-9.332,-0.479,-3.455,-9.158,-0.471,-3.611,1.47,2.1,1.12
,-9.323,-0.378,-3.484,-9.167,-0.68,-3.379,1.89,1.96,1.19
,-9.38,-0.268,-3.575,-9.079,-0.828,-3.053,2.1,1.82,1.26
15295.0,-9.162,-0.955,-2.893,-9.359,-0.433,-3.613,-0.84,3.08,1.82
,-9.342,-0.835,-3.18,-9.148,-0.44,-3.427,1.33,3.57,2.66
,-9.308,-0.718,-3.233,-9.17,-0.22,-3.563,2.73,3.5,3.22
,-9.411,-0.481,-3.424,-9.172,0.048,-3.544,3.43,3.64,3.5
15370.0,-9.397,0.263,-3.85,-8.945,-1.098,-3.288,2.24,3.36,3.22
,-9.299,0.337,-4.058,-9.287,-1.031,-3.077,-1.68,2.73,2.31
,-9.119,-0.026,-4.137,-9.342,-0.641,-2.776,-5.74,2.38,1.89
,-8.875,-0.713,-3.903,-9.603,-0.069,-2.821,-5.81,2.73,2.24
15446.0,-9.478,0.503,-3.455,-9.072,-0.522,-3.211,7.98,4.13,2.59
,-9.21,0.476,-3.369,-9.282,0.103,-3.678,-0.42,4.13,2.03
,-9.213,-0.144,-3.472,-9.122,0.447,-3.771,-6.09,4.83,2.24
,-9.012,-0.782,-3.46,-9.04,0.266,-3.616,-6.79,5.81,2.59
15522.0,-8.792,-0.034,-2.95,-9.344,0.761,-5.051,-1.05,9.73,0.28
,-9.182,-0.014,-3.319,-8.849,-0.029,-4.867,1.89,8.89,-0.07
,-9.44,0.27,-3.838,-8.89,-0.787,-4.453,1.12,6.44,-1.75
,-9.636,0.84,-4.317,-9.055,-0.756,-3.862,-0.49,3.85,-3.29
15598.0,-9.165,-0.349,-3.676,-9.328,-1.115,-2.9,-0.91,4.2,-4.13
,-9.21,-0.019,-3.19,-9.143,-0.914,-3.384,-0.7,4.69,-4.48
,-9.404,-0.148,-3.321,-9.043,-0.514,-3.585,-3.92,4.76,-4.48
,-9.395,-0.799,-3.23,-8.971,-0.488,-4.018,-7.0,4.83,-4.34
15674.0,-8.811,-0.919,-3.687,-9.481,0.282,-3.491,5.53,7.84,0.21
,-8.914,-1.072,-3.3,-9.399,-0.045,-3.496,10.5,9.24,1.19
,-8.983,-0.737,-2.788,-9.194,-0.536,-3.64,14.98,9.87,0.77
,-9.418,-0.034,-2.955,-8.861,-0.969,-3.467,16.59,9.66,0.07
15749.0,-8.873,-1.048,-3.317,-8.72,-1.385,-4.025,7.21,11.55,0.84
,-9.033,-0.826,-3.699,-8.921,-1.871,-3.508,10.01,10.92,0.7
,-9.036,-0.392,-4.18,-9.091,-1.419,-3.096,8.89,9.59,0.98
,-8.823,-0.613,-4.334,-9.474,-0.481,-3.369,4.55,9.66,2.03
15825.0,-9.332,0.251,-3.766,-9.198,-0.036,-3.802,12.46,11.48,4.27
,-9.079,0.309,-3.848,-9.292,0.55,-4.458,4.69,11.62,3.71
,-8.849,-0.182,-3.723,-9.237,0.838,-4.862,-0.7,13.51,3.85
,-8.954,-0.464,-3.36,-8.758,0.062,-4.716,1.26,14.91,4.06
15901.0,-8.224,-1.027,-4.073,-9.241,0.227,-4.197,-5.25,10.99,1.68
,-8.562,-1.527,-3.451,-8.832,0.462,-4.523,1.12,13.16,1.4
,-9.33,-1.058,-3.357,-8.516,0.495,-4.468,9.73,13.3,1.68
,-9.572,-0.366,-3.79,-8.794,0.486,-4.508,12.46,11.69,2.45
15977.0,-9.289,0.304,-4.664,-8.966,-1.189,-4.121,-3.29,11.34,0.56
,-9.091,0.184,-4.913,-9.16,-1.194,-3.996,-4.83,10.08,-0.77
,-8.784,-0.179,-4.793,-9.038,-0.902,-4.168,-5.32,10.57,-1.61
,-8.643,-0.713,-4.434,-8.772,-0.792,-4.322,-3.5,12.04,-2.17
16052.0,-8.871,-0.443,-4.362,-9.124,0.73,-4.496,6.51,9.73,3.08
,-8.961,0.213,-4.52,-9.11,0.227,-4.489,7.07,8.47,2.45
,-8.72,0.816,-4.697,-8.662,-0.715,-4.439,6.23,8.26,0.63
,-8.748,0.926,-4.657,-8.595,-1.5,-4.161,2.38,8.19,-1.4
16128.0,-8.564,-1.929,-4.322,-9.043,-0.562,-4.269,-1.82,6.72,-0.07
,-8.741,-2.039,-4.293,-8.473,0.108,-4.702,5.46,7.91,1.54
,-9.311,-1.905,-4.061,-8.212,0.445,-4.774,12.39,8.19,2.73
,-9.275,-1.249,-4.338,-8.354,0.39,-4.726,17.22,7.14,3.22
16203.0,-8.483,0.139,-5.042,-9.021,-2.4,-4.326,3.99,7.7,2.94
,-8.54,-0.529,-5.02,-9.342,-2.022,-4.145,0.84,8.19,4.27
,-8.866,-1.426,-4.831,-9.268,-1.433,-4.104,0.7,8.54,5.81
,-8.966,-2.137,-4.645,-8.918,-0.22,-4.606,4.41,8.96,7.56
16279.0,-8.603,0.89,-4.999,-8.603,1.285,-5.15,26.95,4.9,7.28
,-8.66,1.385,-5.08,-8.579,0.589,-4.889,22.96,5.6,5.53
,-8.756,1.572,-5.188,-8.799,-0.383,-4.642,18.48,5.88,3.64
,-8.806,1.689,-5.193,-9.0,-1.151,-4.336,14.28,4.62,1.89
16355.0,-9.265,-1.357,-4.338,-8.138,0.191,-4.999,12.88,5.18,-1.4
,-9.057,-0.852,-4.606,-8.232,-0.414,-4.965,17.57,4.69,-1.33
,-8.837,-0.108,-4.91,-8.794,-1.058,-4.7,19.18,3.57,-1.12
,-8.425,0.404,-4.826,-9.048,-1.266,-4.558,16.73,3.01,-0.42
16431.0,-9.227,-1.259,-4.657,-8.576,-0.05,-4.929,9.52,2.8,2.03
,-9.007,-0.94,-4.826,-8.78,0.347,-5.087,10.5,2.87,2.03
,-8.818,-0.629,-4.702,-9.007,0.258,-4.846,9.87,3.29,2.03
,-8.504,-0.541,-4.838,-9.17,-0.258,-4.606,8.54,4.2,2.45
16506.0,-8.938,-0.706,-4.872,-9.179,-0.337,-5.458,1.4,4.34,1.68
,-8.677,-0.936,-4.893,-9.129,-0.73,-5.233,2.45,5.04,2.17
,-8.533,-0.541,-5.166,-8.624,-1.067,-4.903,4.9,5.67,2.24
,-8.806,-0.378,-5.31,-8.294,-0.957,-5.025,6.09,6.37,1.68
16582.0,-8.373,-0.668,-4.992,-8.815,0.208,-5.085,3.15,7.07,3.5
,-8.536,-0.256,-4.939,-8.629,0.172,-5.114,3.01,7.49,3.99
,-8.827,0.139,-5.013,-8.686,0.194,-5.08,1.4,7.28,3.78
,-9.072,0.237,-5.051,-8.859,0.069,-4.872,-2.1,6.72,3.64
16658.0,-8.942,0.005,-4.972,-8.825,-0.816,-5.14,-4.48,8.61,-0.35
,-8.926,-0.024,-5.059,-8.567,-0.878,-5.307,-5.46,8.4,-1.05
,-8.906,-0.232,-5.097,-8.512,-0.648,-5.559,-6.44,8.19,-1.4
,-8.921,-0.5,-5.047,-8.538,-0.5,-5.597,-7.35,7.84,-1.75
16734.0,-8.763,-0.543,-5.518,-8.708,-0.916,-5.403,-7.35,4.27,1.68
,-8.799,-0.629,-5.374,-8.856,-1.065,-5.453,-7.42,3.5,2.31
,-8.715,-0.771,-5.255,-8.827,-1.043,-5.379,-7.21,2.8,2.87
,-8.574,-0.759,-5.489,-8.787,-0.962,-5.355,-7.07,1.82,3.5
16810.0,-8.715,-0.78,-5.372,-8.768,-0.462,-5.26,-2.87,-1.61,5.39
,-8.667,-0.598,-5.252,-8.842,-0.651,-5.396,-3.29,-1.82,5.25
,-8.545,-0.361,-5.13,-8.763,-0.763,-5.3,-5.25,-1.26,5.39
,-8.562,-0.469,-5.097,-8.536,-0.759,-5.193,-7.63,-0.49,5.74
16885.0,-8.562,-0.562,-5.054,-8.636,0.349,-5.083,-1.96,-3.85,4.27
,-8.579,0.112,-5.205,-8.763,-0.12,-5.042,1.19,-5.88,3.57
,-8.591,0.584,-5.281,-8.775,-0.294,-4.927,0.63,-6.93,2.8
,-8.72,0.637,-5.118,-8.966,-0.117,-4.748,-3.01,-7.28,2.45
16961.0,-8.894,0.115,-4.917,-8.423,-0.263,-4.893,0.91,-10.22,-0.14
,-8.643,0.275,-4.922,-8.667,-0.199,-4.946,0.63,-10.64,-0.07
,-8.411,0.328,-4.97,-9.057,-0.223,-4.922,-0.28,-10.71,0.49
,-8.748,-0.591,-4.501,-8.914,-0.203,-4.724,-1.12,-10.85,0.35
17036.0,-8.624,-0.103,-4.666,-8.772,-0.144,-4.448,0.84,-12.88,1.05
,-8.746,-0.091,-4.446,-8.94,-0.223,-4.403,-1.26,-14.14,1.19
,-8.514,0.223,-4.621,-8.818,-0.22,-4.367,-4.2,-15.19,1.54
,-8.413,0.062,-4.558,-9.0,-0.266,-4.379,-7.49,-14.35,2.1
17112.0,-9.316,-0.275,-4.075,-8.641,0.141,-4.006,3.36,-10.36,1.89
,-9.158,0.079,-4.247,-8.77,0.11,-3.74,4.34,-12.67,1.47
,-8.717,0.201,-4.073,-8.981,0.022,-3.757,2.59,-13.09,1.26
,-8.55,0.115,-4.032,-9.148,-0.12,-3.862,1.26,-13.09,1.05
17188.0,-9.129,0.038,-3.977,-8.837,0.505,-4.027,0.0,-12.53,0.21
,-8.918,0.124,-3.967,-8.909,0.373,-4.001,0.84,-11.76,-0.14
,-8.894,0.038,-3.833,-9.174,0.158,-3.939,2.17,-10.57,-0.91
,-8.93,0.263,-3.896,-9.182,0.299,-4.027,3.5,-10.22,-0.98
17264.0,-9.048,0.404,-4.319,-8.818,-0.385,-3.869,-0.98,-10.5,-2.94
,-9.17,-0.022,-4.202,-9.172,-0.201,-3.812,-3.29,-10.57,-2.87
,-8.916,0.005,-4.013,-9.304,0.139,-3.944,-4.27,-11.06,-2.8
,-8.624,-0.081,-4.075,-9.39,0.218,-4.133,-4.13,-10.78,-2.59
17339.0,-9.072,0.141,-4.123,-9.016,-0.584,-3.69,0.63,-10.5,-3.22
,-8.906,-0.057,-3.972,-8.949,-0.627,-3.692,0.42,-9.73,-3.36
,-9.019,-0.254,-3.939,-9.052,-0.826,-3.575,1.54,-9.1,-3.71
,-9.119,-0.419,-3.802,-9.141,-0.534,-3.472,1.68,-9.66,-3.92
17415.0,-9.284,-0.325,-3.199,-9.105,0.105,-3.577,6.65,-8.96,-1.19
,-9.316,-0.034,-3.384,-8.914,-0.048,-3.652,6.23,-8.75,-1.47
,-9.213,0.163,-3.355,-8.926,0.053,-3.754,5.18,-8.33,-1.4
,-9.359,0.184,-3.431,-8.973,0.057,-3.357,4.34,-7.91,-1.33
17490.0,-9.206,0.043,-3.159,-9.268,-0.034,-2.996,6.23,-6.23,-3.29
,-9.21,-0.014,-3.041,-9.258,-0.175,-3.214,5.39,-5.46,-3.78
,-9.517,-0.218,-2.979,-9.249,-0.158,-3.338,4.97,-5.18,-3.85
,-9.385,-0.105,-2.95,-9.418,-0.175,-3.649,4.97,-4.83,-3.85
17566.0,-9.28,0.05,-3.599,-9.347,-0.223,-3.295,2.73,-4.2,-5.6
,-8.94,0.057,-3.628,-9.225,-0.445,-3.072,-1.12,-4.55,-6.23
,-8.839,-0.273,-3.527,-9.284,-0.945,-2.855,-3.15,-4.48,-6.23
,-9.1,-0.409,-3.288,-9.375,-1.206,-3.053,-1.54,-4.13,-5.88
17642.0,-9.263,-1.256,-3.092,-9.22,0.017,-3.374,3.57,-0.49,-2.73
,-9.167,-1.098,-2.807,-9.174,-0.12,-3.305,7.42,0.63,-1.4
,-9.39,-0.849,-3.068,-9.275,-0.184,-3.613,10.29,1.19,-0.84
,-9.306,-0.426,-3.101,-9.091,-0.105,-3.898,11.34,1.47,-0.49
17718.0,-9.028,-0.345,-3.86,-9.213,-0.495,-3.295,4.06,0.91,-0.63
,-9.17,-0.438,-3.805,-9.265,-0.385,-3.082,5.11,0.77,-0.7
,-9.217,-0.536,-3.613,-9.256,-0.103,-2.946,7.0,1.05,-0.7
,-9.373,-0.392,-3.628,-9.414,0.026,-2.812,7.91,1.19,-0.77
17794.0,-9.619,0.014,-3.41,-9.256,-0.857,-3.314,3.22,2.73,-2.1
,-9.16,-0.038,-3.62,-9.361,-0.467,-3.384,-2.38,1.89,-2.87
,-8.973,-0.452,-3.467,-9.335,-0.433,-3.408,-5.6,2.17,-3.01
,-9.057,-0.893,-3.503,-9.349,-0.603,-3.508,-4.69,3.22,-2.45
17869.0,-9.15,-0.591,-3.556,-9.275,-1.077,-3.357,-3.71,3.5,-1.75
,-9.093,-0.603,-3.594,-9.507,-0.711,-3.635,-2.94,3.85,-1.19
,-9.002,-0.861,-3.357,-9.368,-0.177,-4.061,-2.17,4.62,-0.42
,-9.246,-1.074,-3.467,-9.16,0.077,-4.389,0.98,5.11,0.42
17945.0,-8.954,-0.041,-4.551,-9.39,-0.589,-2.929,0.42,1.96,1.05
,-8.906,-0.507,-4.185,-9.6,-0.414,-3.128,-0.49,1.96,1.05
,-9.04,-0.792,-3.819,-9.502,-0.38,-3.333,1.68,2.17,1.05
,-9.277,-0.62,-3.357,-9.308,-0.34,-3.752,3.92,2.66,1.05
18021.0,-9.052,-0.4,-4.149,-9.17,-0.706,-3.666,1.89,1.89,1.61
,-8.959,-0.534,-4.322,-9.395,-0.538,-3.525,2.38,1.26,1.54
,-8.928,-0.503,-4.231,-9.311,-0.593,-3.422,3.22,1.12,1.61
,-9.122,-0.593,-4.078,-9.337,-0.438,-3.491,4.13,1.33,1.96
18097.0,-9.292,-0.316,-3.642,-9.139,-0.268,-3.628,6.23,1.12,2.66
,-9.215,-0.251,-3.652,-9.263,-0.254,-3.484,6.09,1.4,2.73
,-9.172,-0.287,-3.754,-9.363,-0.184,-3.486,6.09,1.47,2.66
,-9.117,-0.318,-3.702,-9.395,-0.045,-3.532,6.16,1.4,2.59
18172.0,-9.313,-0.117,-3.676,-9.1,-0.627,-3.515,3.64,1.26,1.12
,-9.296,-0.251,-3.778,-9.311,-0.591,-3.381,2.17,0.7,0.63
,-9.091,-0.084,-3.86,-9.328,-0.498,-3.319,0.7,-0.21,0.0
,-9.036,-0.249,-3.702,-9.265,-0.581,-3.123,-1.54,-0.21,-0.49
18248.0,-9.275,-0.648,-3.027,-9.261,-0.785,-3.762,1.61,2.03,0.98
,-9.294,-0.565,-3.259,-9.32,-0.555,-3.967,2.66,2.59,1.12
,-9.184,-0.507,-3.324,-9.134,-0.172,-4.168,2.66,3.15,1.26
,-9.225,-0.637,-3.518,-9.095,-0.199,-4.233,2.03,3.57,1.4
18323.0,-9.088,-0.232,-4.171,-9.268,-0.309,-3.601,1.75,1.26,1.54
,-9.139,-0.211,-4.058,-9.227,-0.457,-3.393,2.1,1.19,1.61
,-9.191,-0.421,-3.915,-9.27,-0.447,-3.376,2.59,0.91,1.61
,-9.194,-0.505,-3.714,-9.222,-0.404,-3.281,3.92,0.28,1.75
18399.0,-9.335,-0.404,-3.269,-9.244,-0.261,-3.458,3.5,1.96,1.47
,-9.287,-0.33,-3.211,-9.287,-0.285,-3.845,2.8,2.03,1.19
,-9.232,-0.218,-3.221,-9.141,-0.266,-4.008,1.96,2.31,1.19
,-9.217,-0.203,-3.345,-9.15,-0.373,-4.161,1.61,2.8,1.12
18475.0,-9.079,-0.361,-4.118,-9.351,-0.175,-3.666,3.5,1.68,0.91
,-9.107,-0.452,-3.967,-9.136,-0.357,-3.486,3.78,1.47,0.98
,-9.246,-0.462,-3.793,-9.191,-0.462,-3.482,4.13,1.12,0.84
,-9.371,-0.282,-3.821,-9.206,-0.4,-3.441,4.27,0.77,0.63
18551.0,-9.244,-0.235,-3.513,-9.27,-0.333,-3.62,1.33,0.77,-0.21
,-9.215,-0.294,-3.599,-9.294,-0.316,-3.754,0.56,0.91,-0.14
,-9.182,-0.426,-3.534,-9.359,-0.345,-4.092,0.7,1.19,-0.07
,-9.229,-0.33,-3.525,-9.265,-0.424,-4.123,1.19,1.4,0.07
18627.0,-9.131,-0.474,-4.156,-9.277,-0.431,-3.384,-1.89,-0.7,-0.49
,-9.067,-0.601,-4.061,-9.313,-0.268,-3.228,-1.33,-0.84,-0.28
,-9.06,-0.562,-3.927,-9.32,-0.225,-2.989,0.42,-1.19,-0.07
,-9.174,-0.479,-3.695,-9.423,-0.261,-3.099,1.82,-1.12,0.28
18702.0,-9.452,-0.096,-3.355,-9.081,-0.488,-3.594,0.07,-0.63,0.21
,-9.299,-0.012,-3.546,-9.189,-0.514,-3.388,-1.4,-0.84,0.07
,-9.136,-0.11,-3.709,-9.27,-0.562,-3.192,-2.87,-0.77,-0.07
,-9.1,-0.34,-3.743,-9.311,-0.519,-3.135,-2.94,-0.77,0.21
18778.0,-9.337,-0.692,-3.072,-9.502,-0.79,-3.027,3.43,1.89,1.89
,-9.332,-0.936,-2.857,-9.445,-0.33,-3.721,1.82,2.31,2.24
,-9.179,-1.228,-2.541,-9.1,-0.069,-4.582,1.05,3.29,2.8
,-9.294,-1.235,-2.316,-8.686,-0.282,-4.58,2.17,4.76,3.64
18854.0,-8.667,-0.771,-4.293,-9.71,0.397,-3.661,-7.98,1.4,4.2
,-8.851,-0.842,-3.707,-9.493,0.486,-4.295,-1.4,3.43,4.9
,-9.146,-0.38,-3.297,-9.076,-0.096,-4.034,6.44,5.18,5.18
,-9.454,0.11,-3.482,-8.906,-0.773,-3.766,9.45,5.67,4.76
18930.0,-9.086,-1.043,-3.223,-9.344,0.072,-3.259,-0.42,3.15,4.27
,-9.119,-0.51,-3.192,-9.304,-0.419,-2.706,4.97,4.06,3.92
,-9.196,0.065,-3.01,-9.234,-0.565,-2.065,5.53,4.34,3.08
,-9.428,0.352,-3.195,-9.21,-0.148,-3.553,1.12,4.2,2.31
19005.0,-8.938,0.426,-3.877,-8.897,-2.35,-3.845,-1.82,2.03,1.4
,-9.203,0.629,-4.838,-9.107,-1.51,-3.163,-7.77,-0.14,1.19
,-8.954,-0.505,-5.207,-9.497,-0.44,-2.857,-14.56,-0.84,1.82
,-8.622,-1.991,-4.724,-9.861,0.747,-2.864,-10.64,0.63,3.71
19081.0,-9.856,1.548,-3.295,-8.559,0.191,-4.054,22.75,5.18,4.34
,-9.646,1.637,-3.872,-8.423,-0.634,-3.716,10.29,3.64,2.52
,-9.335,1.582,-4.214,-8.88,-1.019,-3.506,-2.17,2.03,0.14
,-8.866,1.268,-4.216,-9.184,-1.249,-3.104,-11.97,2.52,-1.96
19156.0,-9.495,-1.484,-2.821,-9.122,-1.158,-2.778,-5.46,6.79,1.12
,-9.794,-1.46,-2.587,-9.088,-0.507,-3.738,-1.61,6.93,2.73
,-9.703,-1.531,-2.649,-9.155,0.237,-4.286,1.61,7.84,4.27
,-9.361,-1.496,-2.481,-8.957,1.012,-4.762,5.11,9.73,5.6
19232.0,-8.545,1.029,-4.819,-9.715,-0.495,-4.037,10.78,9.66,7.07
,-8.722,0.751,-4.061,-9.488,-1.101,-3.869,10.99,11.69,5.88
,-8.971,0.404,-4.08,-9.055,-1.137,-3.537,11.41,12.53,4.76
,-9.222,-0.053,-3.994,-8.871,-0.646,-3.422,12.39,12.18,4.76
19308.0,-8.935,-0.045,-3.692,-8.703,0.522,-4.123,18.76,10.22,5.74
,-9.256,0.596,-3.979,-8.681,0.213,-3.716,15.12,8.75,5.18
,-9.289,1.082,-4.424,-8.928,0.407,-3.419,6.79,6.93,3.85
,-8.887,0.998,-4.558,-9.306,0.735,-3.443,-2.24,6.09,2.24
19384.0,-9.651,0.55,-3.63,-8.686,-0.902,-4.025,4.06,7.91,-2.1
,-9.663,0.115,-3.649,-9.093,-0.471,-4.125,1.89,8.12,-2.1
,-9.172,-0.369,-3.982,-8.952,0.402,-4.305,1.82,7.7,-1.82
,-8.614,-0.823,-4.116,-8.801,0.914,-4.223,3.92,8.19,-1.33
19459.0,-8.933,0.845,-3.965,-9.39,-0.706,-3.575,-4.2,6.02,-4.41
,-8.737,0.302,-3.869,-9.572,-0.689,-3.333,-11.13,6.65,-5.11
,-8.794,-0.397,-3.719,-8.945,-0.397,-3.599,-12.74,7.56,-5.25
,-9.155,-0.541,-3.62,-8.643,-0.239,-3.604,-8.4,8.05,-5.11
19535.0,-8.624,-0.256,-3.896,-8.976,0.361,-4.094,2.1,8.4,-2.1
,-8.772,-0.215,-3.912,-8.665,0.278,-4.027,3.92,9.24,-2.45
,-9.124,-0.096,-3.939,-8.653,-0.014,-4.022,6.02,9.8,-3.64
,-9.356,0.285,-4.011,-8.555,-0.522,-4.128,8.4,10.15,-4.69
19611.0,-8.921,-0.883,-3.886,-8.875,-1.311,-4.673,4.13,11.34,-3.64
,-9.191,-0.948,-4.07,-8.564,-1.323,-5.061,8.19,11.9,-3.15
,-9.162,-1.005,-4.257,-8.294,-1.163,-5.224,11.13,12.32,-2.8
,-9.129,-1.18,-4.489,-8.308,-0.802,-5.236,12.04,11.27,-2.17
19687.0,-8.61,-0.467,-5.075,-8.916,0.151,-4.58,15.47,9.1,1.19
,-9.083,-0.122,-4.692,-8.825,-0.572,-4.539,15.33,10.29,-0.42
,-9.325,0.452,-4.774,-9.019,-1.206,-4.544,12.95,9.87,-2.8
,-8.926,0.632,-4.707,-9.098,-1.297,-4.654,8.61,10.08,-4.34
19763.0,-8.792,-1.098,-4.75,-8.442,0.199,-5.073,11.13,7.28,-0.49
,-8.856,-0.483,-5.181,-8.997,0.002,-4.795,15.26,7.35,-0.63
,-8.638,-0.048,-5.044,-9.32,-0.275,-4.604,15.82,6.86,-0.63
,-8.33,0.163,-4.953,-9.28,-0.632,-4.597,14.0,6.3,-0.42
19838.0,-8.964,-0.943,-4.75,-8.691,-1.115,-4.855,3.85,3.71,-2.59
,-8.837,-1.412,-4.57,-8.892,-0.156,-4.893,4.41,2.45,-2.1
,-8.181,-1.608,-4.793,-8.782,0.151,-4.97,6.51,2.73,-1.05
,-8.2,-1.656,-4.879,-8.672,-0.385,-4.602,10.5,4.27,0.28
19914.0,-8.636,-0.713,-4.441,-8.947,-1.345,-4.389,5.25,3.57,1.61
,-8.847,-0.993,-4.377,-9.05,-1.295,-4.314,6.09,4.06,2.17
,-9.086,-0.96,-4.357,-8.945,-1.122,-4.439,8.26,3.92,2.52
,-9.079,-0.972,-4.336,-8.978,-0.665,-4.695,9.94,4.2,2.73
19989.0,-8.753,-0.261,-4.769,-8.945,-0.065,-5.025,13.02,3.57,5.39
,-8.433,-0.069,-4.901,-8.926,-0.029,-5.056,8.75,4.13,5.88
,-8.543,-0.244,-4.934,-8.763,-0.144,-5.054,5.18,4.83,6.23
,-8.765,-0.177,-4.984,-8.725,-0.474,-4.865,4.55,5.18,5.88
20065.0,-8.679,-0.543,-4.731,-8.777,-0.019,-4.908,2.66,3.99,5.67
,-8.677,-0.302,-4.848,-8.892,-0.144,-4.982,4.13,4.62,5.53
,-8.949,0.127,-4.862,-8.973,-0.139,-4.97,4.41,5.74,4.9
,-8.942,0.306,-4.925,-8.911,-0.136,-4.81,3.15,6.58,4.2
20141.0,-8.696,-0.148,-4.826,-8.808,-1.046,-4.748,-0.98,8.82,1.96
,-8.476,-0.385,-4.992,-9.174,-0.536,-4.953,-5.74,7.56,2.03
,-8.26,-0.861,-4.901,-9.227,0.254,-5.147,-8.4,7.98,2.38
,-8.373,-1.086,-4.793,-9.024,0.677,-5.2,-8.61,9.03,3.15
20217.0,-8.871,0.471,-5.166,-8.985,-0.297,-5.284,-10.99,8.19,-0.7
,-8.717,0.179,-5.305,-8.847,-0.474,-5.269,-12.25,7.35,-1.12
,-8.495,-0.11,-5.372,-8.679,-0.613,-5.41,-11.2,7.77,-1.4
,-8.708,-0.105,-5.327,-8.567,-0.756,-5.676,-8.75,7.91,-1.33
20292.0,-8.703,-0.916,-5.788,-8.232,-1.084,-5.226,-9.24,5.39,0.35
,-8.973,-0.909,-5.559,-8.492,-1.194,-5.3,-9.59,3.99,0.63
,-8.646,-0.811,-5.444,-8.832,-1.053,-5.257,-9.66,1.54,0.77
,-8.236,-0.936,-5.262,-8.88,-0.833,-5.221,-10.64,0.7,1.12
20368.0,-8.849,-0.493,-5.434,-8.6,-0.548,-5.205,-9.31,-0.63,5.18
,-8.502,-0.213,-5.638,-9.009,-0.514,-5.025,-8.33,-0.91,5.39
,-8.258,-0.103,-5.559,-9.55,-0.323,-4.671,-7.42,-0.49,5.53
,-8.339,-0.369,-5.401,-8.849,0.112,-5.135,-6.02,0.63,5.67
20444.0,-8.162,0.208,-5.185,-8.406,0.163,-5.027,-0.42,-5.74,4.83
,-8.435,-0.182,-5.147,-8.643,0.124,-4.946,-2.38,-6.09,4.97
,-8.78,-0.048,-5.035,-8.71,0.002,-4.996,-1.89,-7.98,4.34
,-8.617,0.115,-5.056,-8.622,0.041,-4.977,-1.05,-8.54,3.85
20520.0,-9.323,-0.112,-4.429,-8.765,-0.036,-4.468,5.74,-5.46,0.77
,-8.906,0.371,-4.683,-8.978,-0.072,-4.429,5.95,-8.82,0.21
,-8.229,0.816,-4.791,-8.643,-0.036,-4.415,3.64,-9.24,0.14
,-8.258,0.536,-4.685,-8.751,-0.132,-4.264,-0.63,-8.54,0.07
20596.0,-8.811,0.132,-4.35,-9.028,-0.972,-4.075,-1.89,-10.36,-1.82
,-8.667,0.421,-4.307,-8.83,-0.84,-4.386,-1.89,-9.52,-2.1
,-8.6,-0.258,-4.037,-8.969,-0.687,-4.556,-6.44,-8.47,-2.03
,-8.76,-0.708,-4.066,-8.765,-0.404,-4.647,-4.83,-7.91,-1.12
20671.0,-8.77,-0.254,-4.582,-8.662,-0.438,-4.523,6.23,-7.21,1.33
,-8.868,-0.325,-4.527,-8.88,-0.56,-4.549,4.62,-7.14,1.54
,-8.878,-0.316,-4.527,-8.832,-0.321,-4.554,2.31,-8.19,1.61
,-8.619,-0.337,-4.57,-8.818,-0.026,-4.451,-0.21,-8.4,1.96
20747.0,-8.818,-0.036,-4.331,-9.172,0.282,-4.312,1.61,-9.45,2.73
,-8.777,0.072,-4.307,-9.024,0.701,-4.585,2.59,-9.1,2.73
,-8.82,0.268,-4.319,-8.765,0.687,-4.604,3.85,-8.61,2.8
,-8.947,0.321,-4.219,-8.808,0.524,-4.525,5.11,-7.77,2.52
20822.0,-8.911,0.333,-4.458,-8.729,-0.179,-4.154,2.17,-8.47,-1.68
,-9.088,0.227,-4.238,-8.892,-0.352,-4.111,1.96,-8.89,-2.38
,-9.064,0.263,-4.161,-9.033,-0.311,-4.219,0.28,-9.38,-3.01
,-8.952,0.043,-4.058,-9.057,-0.168,-4.197,-1.05,-9.24,-3.36
20898.0,-9.134,-0.136,-4.113,-8.904,-0.761,-3.752,4.97,-8.05,-2.38
,-9.036,0.01,-4.147,-9.093,-0.83,-3.654,3.15,-9.94,-3.01
,-8.83,0.029,-4.202,-9.184,-0.543,-3.594,-0.63,-11.27,-3.15
,-8.746,-0.369,-4.051,-9.273,-0.093,-3.644,-2.66,-11.27,-2.73
20974.0,-9.091,0.048,-3.654,-9.019,-0.23,-3.685,5.39,-6.65,-1.12
,-9.038,-0.01,-3.91,-9.277,0.139,-3.695,5.25,-5.67,-0.84
,-8.926,-0.263,-3.879,-9.05,0.452,-3.498,7.28,-4.83,-0.49
,-8.926,-0.27,-3.898,-9.153,0.629,-3.546,10.71,-4.48,-0.42
21050.0,-9.234,0.471,-3.843,-9.072,-0.426,-3.489,-0.07,-7.21,-3.43
,-9.117,0.187,-3.903,-9.237,-0.644,-3.52,-2.17,-6.93,-3.78
,-9.095,-0.014,-3.798,-9.103,-0.663,-3.606,-2.1,-5.81,-4.06
,-9.002,-0.244,-3.599,-9.002,-0.821,-3.465,-0.84,-4.62,-4.76
21125.0,-9.04,-0.876,-3.52,-9.435,-0.524,-3.058,6.86,-2.52,-1.75
,-9.06,-0.692,-3.422,-9.249,-0.189,-3.056,9.1,-1.75,-1.47
,-9.05,-0.467,-3.398,-9.158,0.127,-3.381,9.1,-1.19,-1.05
,-9.119,-0.591,-3.116,-9.06,0.103,-3.893,8.47,-0.56,-0.56
21201.0,-8.993,-0.096,-4.197,-9.366,0.101,-3.561,1.75,-0.98,-2.24
,-8.961,-0.459,-4.116,-9.304,0.122,-3.589,3.22,-0.42,-1.47
,-8.949,-0.689,-3.965,-9.179,0.043,-3.946,7.84,0.42,-0.84
,-9.057,-0.321,-3.486,-9.019,-0.304,-3.86,12.95,1.4,-0.7
21277.0,-8.942,-0.706,-3.793,-9.318,-0.409,-3.685,0.77,0.98,-2.1
,-8.978,-0.842,-3.577,-9.086,-0.483,-3.534,4.34,1.75,-1.75
,-9.292,-0.646,-3.582,-9.062,-0.529,-3.544,6.37,2.03,-1.82
,-9.344,-0.541,-3.412,-9.072,-0.467,-3.62,6.72,2.17,-1.54
21353.0,-9.237,-0.431,-3.757,-9.16,-0.309,-4.235,7.91,3.57,0.28
,-9.172,-0.304,-3.912,-9.014,-0.239,-3.999,7.42,3.22,0.0
,-9.16,-0.318,-3.908,-8.983,-0.361,-3.955,7.21,3.15,0.21
,-9.196,-0.29,-4.14,-8.94,-0.634,-3.558,7.14,2.52,0.21
21428.0,-9.229,-0.613,-3.448,-9.174,-0.68,-3.257,3.5,1.75,-0.98
,-9.229,-0.591,-3.355,-9.174,-0.773,-3.412,3.29,2.24,-0.91
,-9.203,-0.574,-3.281,-9.196,-0.651,-3.618,2.59,2.94,-0.49
,-9.143,-0.646,-3.144,-9.189,-0.45,-4.262,2.38,3.78,0.0
21504.0,-9.119,-0.22,-4.743,-9.1,-0.507,-4.408,4.48,3.85,1.12
,-8.935,-0.141,-4.903,-9.22,-0.337,-4.171,2.03,2.31,0.49
,-8.806,-0.165,-4.944,-9.299,-0.431,-3.888,0.98,1.54,0.35
,-8.806,-0.431,-4.757,-9.249,-0.359,-3.769,1.82,1.26,0.77
21580.0,-9.186,-0.242,-3.865,-9.299,-0.479,-3.747,7.56,-0.49,0.77
,-9.074,-0.302,-4.015,-9.253,-0.302,-3.654,6.3,-0.63,0.56
,-8.969,-0.447,-3.934,-9.182,0.17,-3.85,5.25,-0.49,0.56
,-9.002,-0.608,-3.829,-8.949,0.079,-3.577,6.02,-0.28,0.7
21655.0,-9.093,-0.302,-3.486,-9.368,-0.663,-3.264,-2.8,-0.56,-1.54
,-9.045,-0.641,-3.192,-9.282,-0.352,-3.778,-2.45,0.63,-1.61
,-9.093,-1.003,-2.986,-9.079,-0.323,-3.991,-1.54,2.03,-1.19
,-9.165,-1.106,-2.831,-9.005,-0.419,-4.216,0.84,3.15,-0.56
21731.0,-9.009,-0.469,-4.219,-9.213,-0.366,-3.793,-1.4,3.5,-0.21
,-9.043,-0.517,-4.037,-9.069,-0.316,-3.989,-1.05,3.85,-0.21
,-9.232,-0.687,-3.776,-8.959,-0.534,-4.006,-0.63,3.85,0.07
,-9.373,-0.687,-3.75,-8.976,-0.675,-3.888,-0.14,3.29,-0.07
21807.0,-9.0,-0.701,-3.585,-9.287,-0.11,-4.614,-0.21,4.06,0.7
,-9.179,-0.723,-3.422,-8.94,-0.194,-4.803,1.33,4.55,0.98
,-9.399,-0.479,-3.685,-8.806,-0.397,-4.831,2.38,4.62,1.12
,-9.33,-0.275,-3.977,-8.847,-0.617,-4.788,1.96,4.13,1.33
21883.0,-8.964,-0.713,-4.429,-9.184,-0.12,-3.778,4.34,1.54,1.61
,-9.191,-0.548,-4.006,-8.933,-0.11,-3.778,5.81,1.05,1.82
,-9.34,-0.428,-3.81,-8.875,-0.498,-3.735,5.67,0.63,1.68
,-9.335,-0.424,-3.824,-9.016,-0.751,-3.577,3.85,0.14,1.26
21958.0,-9.131,-0.756,-3.355,-9.141,-0.23,-4.133,-0.28,1.19,1.12
,-9.203,-0.62,-3.233,-9.086,-0.223,-4.216,1.89,2.03,1.54
,-9.201,-0.438,-3.379,-9.079,-0.33,-4.329,3.15,2.31,1.82
,-9.194,-0.287,-3.829,-9.107,-0.302,-4.314,3.36,2.17,1.82
22034.0,-9.064,-0.297,-4.259,-9.091,-0.581,-3.908,1.19,0.7,0.77
,-9.019,-0.352,-4.216,-9.129,-0.639,-3.934,1.05,0.35,0.77
,-9.048,-0.347,-4.223,-9.103,-0.67,-3.879,1.61,-0.07,0.91
,-9.112,-0.436,-4.121,-9.086,-0.529,-3.831,2.31,-0.14,1.19
22110.0,-9.225,-0.4,-3.898,-9.005,-0.495,-3.877,4.97,-0.49,1.47
,-9.174,-0.278,-4.07,-9.141,-0.378,-3.848,3.92,-0.7,1.54
,-9.005,-0.278,-4.063,-9.263,-0.139,-3.79,2.52,-0.91,1.54
,-9.05,-0.369,-4.011,-9.172,0.053,-3.807,1.82,-1.05,1.4
22186.0,-9.091,-0.043,-3.745,-9.366,-0.656,-3.695,-1.26,-1.75,-0.35
,-9.148,-0.179,-3.867,-9.292,-0.431,-3.601,-2.66,-1.26,-0.7
,-9.093,-0.347,-3.8,-9.182,-0.258,-3.532,-3.92,-1.05,-0.91
,-9.088,-0.524,-3.74,-9.225,-0.215,-3.68,-3.64,-0.56,-0.84
22261.0,-9.134,-0.055,-3.769,-9.0,-1.053,-3.936,-8.12,-1.4,-2.1
,-9.048,-0.103,-3.999,-9.184,-0.83,-4.006,-10.08,-1.4,-2.24
,-9.009,-0.505,-4.056,-9.165,-0.524,-3.963,-10.78,-1.05,-1.89
,-8.918,-0.89,-4.03,-9.141,-0.373,-3.915,-8.61,-0.91,-1.33
22337.0,-9.11,-0.189,-3.932,-9.179,-0.421,-3.573,-0.14,-1.33,0.28
,-9.143,-0.072,-3.908,-9.253,-0.275,-3.424,-2.17,-1.68,-0.35
,-9.217,0.002,-3.96,-9.34,-0.187,-3.393,-4.2,-1.96,-0.84
,-9.158,-0.246,-3.766,-9.316,0.024,-3.467,-5.74,-1.96,-0.91
22412.0,-9.186,0.062,-3.556,-9.105,-0.656,-4.075,-4.9,-0.77,-1.47
,-9.081,-0.287,-3.644,-9.036,-0.462,-4.133,-7.42,-0.49,-1.89
,-8.981,-0.826,-3.771,-9.045,-0.603,-4.003,-7.56,-0.28,-1.61
,-9.139,-0.883,-3.924,-9.139,-0.787,-3.955,-4.2,-0.56,-1.05
22488.0,-9.122,-0.849,-3.771,-9.15,0.065,-3.139,5.88,-0.35,2.38
,-9.234,-0.828,-3.678,-9.222,0.024,-2.8,8.54,-0.21,3.15
,-9.433,-0.675,-3.515,-9.361,0.412,-2.23,10.29,-0.42,3.36
,-9.208,-0.175,-3.412,-9.627,1.103,-2.742,11.27,-0.49,3.85
22564.0,-9.55,1.237,-3.525,-8.77,-1.922,-4.245,-0.63,1.96,-1.47
,-9.083,0.074,-4.099,-8.957,-1.613,-3.965,-15.19,1.47,-2.8
,-8.725,-1.376,-4.159,-9.225,-1.11,-4.034,-19.95,1.68,-1.96
,-8.617,-2.046,-4.195,-9.289,-0.653,-3.345,-12.88,2.31,-0.42
22640.0,-9.478,-0.158,-2.965,-9.179,1.046,-3.982,16.31,3.78,5.11
,-9.256,0.0,-2.024,-8.715,-0.285,-4.183,15.75,5.46,5.6
,-9.586,0.57,-1.945,-8.646,-1.539,-3.979,17.29,6.65,5.32
,-9.734,1.307,-3.396,-8.815,-1.074,-3.027,10.71,5.46,2.52
22716.0,-9.335,0.402,-3.23,-8.918,-1.034,-4.3,11.27,8.47,-0.07
,-9.399,1.455,-4.161,-9.057,-0.634,-4.044,3.92,5.74,-3.29
,-9.083,1.165,-4.281,-9.32,0.215,-4.822,-11.13,4.83,-4.41
,-9.028,-0.194,-4.369,-8.99,0.457,-5.071,-19.32,5.53,-3.5
22791.0,-8.997,-0.474,-5.008,-9.079,-0.246,-3.429,-8.05,0.63,-3.64
,-8.988,-1.888,-4.709,-9.474,-0.175,-3.62,-6.93,2.1,-1.68
,-8.94,-1.965,-3.58,-9.354,-0.957,-3.594,4.34,3.92,0.21
,-9.074,-0.998,-3.391,-9.026,-1.553,-3.216,14.56,4.55,0.21
22867.0,-8.863,-1.228,-2.625,-8.729,-0.127,-4.85,-0.7,7.42,1.4
,-9.016,-0.261,-2.989,-8.497,-1.352,-4.212,6.3,7.07,1.47
,-9.342,0.687,-3.989,-8.93,-1.529,-3.357,7.07,3.99,0.7
,-9.332,0.878,-4.81,-9.048,-0.821,-3.558,0.0,0.98,-0.14
22943.0,-9.265,-0.175,-3.573,-8.701,-0.503,-2.845,20.23,6.37,2.31
,-9.622,-0.031,-3.391,-8.947,0.091,-3.01,14.28,7.49,2.45
,-9.186,-0.366,-3.549,-9.404,0.237,-3.297,7.28,8.4,2.52
,-8.71,-0.663,-3.345,-9.844,-0.062,-3.599,4.9,10.57,2.8
23019.0,-9.395,-0.713,-3.558,-9.521,-0.194,-3.084,-6.58,9.1,1.75
,-8.562,-1.249,-3.142,-9.43,0.792,-3.446,-3.57,11.9,2.87
,-8.459,-1.328,-2.745,-8.787,1.216,-3.807,4.48,13.44,3.22
,-9.024,-0.857,-2.977,-8.514,1.187,-3.745,12.81,13.65,3.22
23094.0,-8.882,1.06,-4.156,-8.538,-1.567,-4.338,0.56,17.64,-1.75
,-8.935,0.893,-4.57,-8.66,-2.091,-4.207,-1.96,16.24,-2.52
,-9.194,0.117,-4.515,-9.124,-1.697,-4.212,-5.74,14.77,-2.73
,-8.629,-0.725,-4.666,-9.206,-1.034,-4.558,-7.77,14.63,-1.89
23170.0,-9.115,-0.634,-4.704,-8.504,0.189,-4.915,15.4,14.84,2.17
,-9.036,-0.459,-4.448,-8.325,-0.132,-5.087,11.55,15.26,2.45
,-8.617,-0.263,-4.42,-8.665,-0.919,-5.011,6.65,16.66,2.1
,-8.734,-0.146,-4.408,-9.21,-1.417,-4.692,2.66,16.24,1.54
23245.0,-9.064,-1.268,-4.822,-9.335,1.117,-4.836,0.0,16.45,1.82
,-8.737,-0.873,-5.095,-9.512,1.74,-4.925,7.14,15.96,2.03
,-8.619,-0.457,-4.896,-8.636,1.457,-5.135,12.6,16.73,1.82
,-8.854,0.177,-4.666,-8.423,0.306,-4.645,15.96,17.15,0.84
23321.0,-8.454,-0.617,-4.602,-8.796,0.172,-4.958,-11.9,12.6,-5.88
,-8.392,-0.885,-4.707,-8.598,0.278,-5.123,-7.35,12.39,-5.04
,-8.373,-0.763,-4.599,-8.332,0.077,-5.284,-1.61,12.46,-4.41
,-8.792,-0.256,-4.824,-8.354,-0.194,-5.193,2.1,9.59,-4.27
23397.0,-8.658,-0.519,-5.044,-8.629,-2.048,-5.157,-2.52,9.8,-6.23
,-8.933,-0.859,-4.97,-8.301,-2.726,-4.8,0.14,10.64,-7.42
,-9.198,-1.161,-4.87,-8.327,-2.52,-4.805,2.87,9.73,-7.63
,-8.918,-1.326,-5.171,-8.502,-1.582,-5.343,5.39,8.33,-6.44
23473.0,-8.799,-0.428,-5.47,-8.732,-0.39,-5.26,22.19,6.02,2.31
,-8.76,0.175,-5.434,-8.428,-0.579,-5.317,18.9,4.27,2.8
,-8.588,0.239,-5.336,-8.193,-0.845,-5.264,13.58,3.08,2.87
,-8.653,-0.055,-5.36,-8.708,-0.864,-4.996,10.08,2.17,2.66
23549.0,-8.504,-0.78,-5.288,-9.143,-0.069,-5.118,11.13,-3.36,4.34
,-8.236,-0.998,-5.231,-9.165,0.108,-5.08,13.23,-2.17,5.18
,-8.334,-0.881,-4.992,-8.796,-0.144,-4.984,15.54,-0.21,5.25
,-8.897,-0.498,-4.891,-8.399,-0.469,-5.185,17.15,0.42,4.27
23624.0,-8.437,-0.684,-5.104,-8.631,-1.548,-4.963,11.76,1.47,1.12
,-8.397,-0.905,-5.257,-9.115,-1.385,-4.803,12.04,0.56,2.66
,-8.251,-1.297,-5.087,-9.012,-1.101,-4.882,11.62,1.05,4.62
,-8.277,-1.598,-5.03,-8.854,-1.072,-4.724,13.3,2.59,6.58
23700.0,-8.306,-0.838,-4.817,-8.933,-0.172,-4.551,9.17,-0.21,7.84
,-7.983,-0.486,-5.006,-8.753,-0.395,-4.506,9.03,0.56,7.84
,-8.538,-0.144,-4.908,-8.662,-0.586,-4.573,8.61,1.47,7.56
,-9.048,-0.038,-4.669,-8.789,-0.514,-4.401,7.14,1.26,7.56
23776.0,-8.574,-0.101,-4.413,-8.88,0.596,-5.063,8.4,6.09,6.23
,-8.447,0.694,-4.817,-9.069,-0.067,-4.621,9.45,6.37,5.74
,-8.593,1.366,-5.181,-8.538,-0.536,-4.858,7.84,6.65,4.2
,-8.94,1.194,-5.027,-8.098,-1.082,-4.838,2.73,7.14,2.1
23852.0,-8.287,-1.096,-4.867,-8.622,-0.196,-5.329,-4.34,8.54,0.56
,-8.667,-0.732,-4.984,-8.674,-0.412,-5.288,-2.52,9.38,0.56
,-8.689,-0.392,-5.279,-8.626,-0.309,-5.231,-2.17,9.8,0.28
,-8.636,-0.057,-5.463,-8.737,-0.074,-5.279,-3.64,9.59,-0.21
23927.0,-8.847,0.077,-5.212,-8.698,-0.225,-5.564,-9.24,9.59,-3.01
,-8.581,0.177,-5.516,-8.624,-0.436,-5.52,-11.83,8.47,-2.94
,-8.437,0.144,-5.652,-8.495,-0.543,-5.518,-13.72,7.77,-2.87
,-8.49,-0.136,-5.657,-8.437,-0.675,-5.53,-14.56,7.14,-3.08
24003.0,-8.461,-0.969,-5.363,-8.878,-1.287,-5.858,-12.11,5.67,-3.92
,-8.703,-0.893,-5.456,-8.825,-1.496,-5.786,-10.57,4.34,-3.22
,-8.717,-0.907,-5.731,-8.308,-1.572,-5.879,-10.57,2.94,-2.38
,-8.796,-1.129,-5.788,-7.973,-1.577,-5.774,-11.2,2.24,-2.03
24078.0,-8.155,-1.637,-5.681,-8.39,-0.744,-5.508,-11.2,-1.61,4.69
,-8.459,-1.474,-5.473,-8.212,-0.653,-5.516,-10.36,-2.52,5.88
,-8.648,-1.11,-5.53,-8.33,-0.68,-5.475,-9.17,-3.22,7.07
,-8.543,-0.969,-5.475,-8.55,-0.273,-5.523,-10.64,-3.92,8.26
24154.0,-8.555,0.249,-5.508,-8.725,0.648,-5.14,-6.09,-6.02,10.64
,-8.543,0.579,-5.298,-8.65,0.759,-5.231,-4.97,-6.09,9.66
,-8.696,0.653,-5.351,-8.679,0.84,-5.051,-6.65,-6.37,8.05
,-8.768,0.744,-5.296,-8.737,1.024,-5.039,-8.26,-6.44,6.58
24230.0,-8.33,1.266,-5.257,-8.727,-0.067,-4.867,-11.13,-8.82,-0.42
,-8.519,1.039,-5.19,-8.593,-0.467,-4.865,-12.6,-8.68,-1.89
,-8.906,0.61,-5.044,-8.569,-0.849,-5.059,-13.23,-8.96,-3.78
,-8.997,0.302,-4.877,-8.765,-1.108,-4.949,-13.16,-9.1,-5.25
24306.0,-8.514,-0.96,-5.063,-8.746,-1.041,-4.704,-2.66,-7.28,-3.08
,-8.346,-0.964,-5.08,-9.057,-0.857,-4.59,-1.4,-7.77,-1.96
,-8.344,-0.897,-4.999,-8.921,-0.378,-4.642,-0.56,-8.26,-0.35
,-8.349,-1.015,-4.815,-8.469,-0.034,-4.8,0.7,-7.56,1.54
24381.0,-8.215,-0.112,-4.74,-8.641,-0.014,-4.554,8.26,-7.7,5.25
,-8.363,-0.278,-4.882,-8.856,0.165,-4.642,9.73,-6.79,5.95
,-8.564,-0.577,-4.247,-8.966,0.191,-4.647,10.43,-7.0,6.16
,-8.665,-0.158,-4.451,-8.684,-0.026,-4.499,13.3,-7.63,6.58
24457.0,-8.557,-0.036,-4.535,-9.112,0.012,-4.515,13.72,-7.91,6.65
,-8.559,0.045,-4.654,-8.859,0.129,-4.58,14.49,-7.91,7.14
,-8.82,0.053,-4.707,-8.815,0.175,-4.59,14.7,-8.4,6.93
,-9.045,0.141,-4.57,-8.576,0.022,-4.554,14.07,-8.61,6.65
24533.0,-8.497,-0.17,-4.432,-8.849,0.778,-4.341,7.77,-10.36,5.39
,-8.648,-0.304,-4.271,-8.894,0.799,-4.312,10.85,-9.59,5.81
,-8.815,-0.17,-4.252,-8.897,0.66,-4.255,14.28,-9.45,5.53
,-8.789,0.325,-4.36,-9.021,0.663,-4.168,15.47,-9.45,5.04
24609.0,-9.105,0.55,-4.049,-8.808,0.117,-4.113,7.98,-7.07,1.82
,-9.17,0.242,-3.802,-8.681,0.261,-4.161,7.28,-7.0,0.56
,-9.021,0.227,-3.841,-8.842,0.349,-4.204,6.72,-7.28,-0.07
,-8.882,0.182,-4.046,-8.985,0.388,-4.001,5.6,-7.84,-0.35
24685.0,-9.098,0.378,-3.996,-9.019,-0.383,-3.855,4.55,-6.02,-1.82
,-8.942,0.122,-3.896,-9.055,-0.316,-3.843,3.85,-5.18,-1.89
,-9.026,-0.227,-3.704,-8.988,-0.299,-4.192,3.71,-4.62,-1.68
,-9.122,-0.519,-3.826,-8.734,-0.404,-4.386,4.83,-4.97,-1.4
24760.0,-8.614,-0.443,-4.367,-9.265,-0.337,-3.498,5.67,-5.32,-0.42
,-8.579,-0.682,-4.111,-9.186,-0.294,-3.288,6.65,-4.76,-0.14
,-8.945,-0.699,-3.936,-9.311,-0.28,-3.446,8.75,-4.41,0.21
,-9.081,-0.479,-3.587,-9.253,-0.146,-3.831,10.71,-3.85,1.12
24836.0,-9.055,0.093,-4.013,-8.945,0.555,-4.207,9.03,-2.8,1.26
,-8.935,0.263,-4.214,-8.973,0.328,-4.207,8.75,-2.38,0.56
,-8.89,0.397,-4.204,-9.146,0.132,-4.159,8.61,-2.03,-0.21
,-8.899,0.555,-4.283,-9.067,-0.177,-4.073,7.63,-2.1,-0.98
24911.0,-9.134,-0.263,-3.915,-9.052,-0.304,-3.757,3.78,-2.45,-3.15
,-9.098,-0.184,-3.91,-9.007,-0.433,-3.869,4.27,-2.66,-3.64
,-8.981,0.048,-3.92,-8.842,-0.369,-3.927,3.15,-2.73,-4.06
,-8.971,-0.014,-3.814,-8.851,-0.151,-3.948,0.07,-2.52,-4.48
24987.0,-8.899,0.081,-4.161,-9.21,-0.345,-3.221,2.17,-1.54,-3.5
,-8.973,0.031,-3.738,-9.366,-0.4,-3.321,1.96,-0.77,-3.29
,-9.005,-0.043,-3.58,-9.273,-0.256,-3.527,1.54,-0.28,-3.36
,-9.143,-0.148,-3.494,-9.148,-0.139,-3.747,1.26,0.07,-3.5
25063.0,-9.005,-0.479,-3.929,-8.897,0.175,-4.413,-4.41,2.1,-3.43
,-8.957,-0.78,-3.915,-8.777,0.065,-4.491,-3.78,2.73,-2.8
,-9.028,-0.763,-3.917,-8.777,-0.416,-4.379,-1.47,2.87,-2.45
,-9.069,-0.17,-4.214,-8.959,-0.637,-4.094,1.19,2.31,-2.66
25139.0,-9.162,-0.548,-4.049,-9.186,-0.481,-4.3,2.03,1.4,-2.03
,-9.198,-0.369,-4.044,-9.079,-0.531,-4.192,2.59,1.33,-1.96
,-9.06,-0.309,-4.094,-9.033,-0.632,-4.078,1.89,0.98,-1.96
,-9.158,-0.39,-4.202,-8.933,-0.476,-3.841,1.82,0.56,-1.82
25214.0,-9.069,-0.445,-3.565,-8.921,-0.313,-4.109,4.06,0.84,-1.19
,-9.141,-0.153,-3.69,-9.019,-0.558,-4.037,3.92,1.19,-1.26
,-9.143,0.041,-3.893,-9.093,-0.412,-4.051,2.52,1.12,-1.26
,-9.081,0.026,-4.168,-9.284,-0.124,-4.219,0.21,1.05,-1.33
25290.0,-9.076,0.0,-4.322,-8.976,-0.603,-3.862,2.1,0.49,-1.75
,-8.985,-0.187,-4.379,-9.153,-0.704,-3.778,-0.35,0.35,-1.89
,-8.882,-0.5,-4.31,-9.103,-0.756,-3.494,-0.91,0.35,-1.61
,-8.897,-0.617,-4.202,-9.256,-0.491,-3.731,1.26,0.28,-1.19
25365.0,-9.098,-0.263,-4.075,-8.882,-0.479,-4.326,4.76,0.98,-0.28
,-8.952,-0.232,-4.334,-8.909,-0.287,-4.228,3.36,0.91,-0.35
,-8.911,-0.409,-4.343,-8.923,-0.34,-3.85,2.94,0.77,-0.14
,-8.916,-0.507,-4.427,-9.072,-0.242,-3.776,5.04,0.35,0.21
25441.0,-9.031,-0.462,-3.434,-9.146,-0.268,-4.247,7.0,0.56,0.84
,-9.194,-0.66,-3.494,-9.043,-0.428,-4.357,5.53,0.91,0.84
,-9.249,-0.601,-3.68,-8.918,-0.524,-4.444,5.46,0.84,0.77
,-9.292,-0.34,-3.977,-8.935,-0.548,-4.465,5.04,0.91,0.63
25517.0,-9.024,-0.388,-4.346,-8.99,-0.605,-4.058,6.58,-0.56,1.47
,-9.091,-0.275,-4.3,-9.05,-0.577,-4.006,7.0,-0.91,1.61
,-9.031,-0.333,-4.2,-9.081,-0.548,-3.979,6.16,-1.12,1.68
,-8.983,-0.455,-4.121,-9.093,-0.689,-3.855,5.67,-1.47,1.82
25593.0,-9.091,-0.598,-3.833,-9.107,-0.158,-3.587,8.75,-1.12,2.87
,-9.122,-0.493,-3.57,-9.165,-0.29,-3.668,9.17,-0.84,2.87
,-9.127,-0.261,-3.542,-9.141,-0.433,-3.79,8.54,-0.28,2.66
,-9.124,-0.163,-3.577,-9.155,-0.529,-3.865,6.65,-0.14,2.17
25669.0,-9.162,-0.311,-4.089,-9.026,-0.421,-4.039,5.39,0.84,2.17
,-9.031,-0.292,-4.18,-9.153,-0.28,-4.042,4.83,0.56,1.96
,-8.88,-0.438,-4.176,-9.172,-0.132,-3.972,3.99,0.56,2.1
,-8.952,-0.438,-4.159,-9.057,-0.017,-3.972,4.27,0.35,2.03
25744.0,-8.978,-0.177,-3.881,-9.215,-0.589,-3.723,1.68,-0.07,1.05
,-9.069,-0.352,-3.762,-9.139,-0.522,-3.841,2.38,0.21,1.05
,-9.155,-0.476,-3.75,-9.074,-0.342,-4.056,2.8,0.28,0.98
,-9.186,-0.605,-3.664,-9.05,-0.225,-4.118,3.15,0.7,1.26
25820.0,-9.04,-0.261,-4.231,-9.105,-0.558,-3.754,1.26,0.0,0.63
,-9.009,-0.38,-4.267,-9.139,-0.462,-3.63,0.84,-0.42,0.49
,-9.007,-0.412,-4.078,-9.229,-0.27,-3.666,1.33,-0.49,0.7
,-9.007,-0.498,-3.939,-9.081,-0.242,-3.654,2.1,-0.56,0.77
25896.0,-9.069,-0.299,-3.666,-9.172,-0.323,-3.994,1.19,0.35,0.77
,-9.06,-0.452,-3.695,-9.172,-0.199,-4.221,0.77,0.7,0.7
,-9.076,-0.526,-3.824,-9.194,-0.302,-4.372,1.89,1.19,0.98
,-9.143,-0.457,-3.826,-9.055,-0.462,-4.336,3.36,1.33,1.26
25972.0,-9.009,-0.546,-4.286,-9.203,-0.115,-3.494,2.38,-0.7,1.26
,-9.048,-0.692,-4.018,-9.294,0.038,-3.611,3.43,-0.42,1.75
,-9.196,-0.543,-3.848,-9.191,0.11,-3.716,4.76,-0.49,1.89
,-9.134,-0.29,-3.585,-9.167,-0.062,-3.872,5.67,-0.35,2.03
26047.0,-9.055,-0.345,-4.018,-9.031,-0.567,-4.154,-2.59,-0.7,-0.21
,-9.088,-0.354,-4.221,-9.048,-0.56,-3.996,-2.87,-0.91,-0.42
,-9.026,-0.373,-4.329,-9.122,-0.546,-3.79,-2.8,-1.4,-0.56
,-8.964,-0.483,-4.235,-9.194,-0.467,-3.716,-2.94,-1.82,-0.56
26123.0,-9.107,-0.412,-3.434,-9.129,-0.364,-3.542,4.55,-1.47,1.96
,-9.184,-0.378,-3.3,-8.983,-0.62,-3.398,5.67,-0.49,2.38
,-9.227,-0.347,-3.4,-9.081,-0.842,-3.3,4.83,-0.28,2.17
,-9.167,-0.414,-3.386,-9.186,-0.854,-3.049,4.2,0.14,2.45
26198.0,-9.464,-0.426,-2.941,-8.799,-0.426,-2.852,4.97,3.29,3.01
,-9.418,0.313,-3.285,-8.947,-0.955,-2.584,2.38,2.73,1.82
,-9.239,0.431,-3.288,-9.351,-0.838,-2.601,-4.41,2.17,0.91
,-8.997,0.349,-3.254,-9.378,-0.057,-2.958,-11.97,2.31,0.63
26274.0,-9.368,0.349,-3.525,-8.715,-1.084,-4.008,-10.08,6.58,1.19
,-9.239,0.132,-4.31,-8.851,-0.852,-3.549,-14.77,6.37,1.12
,-8.784,-0.436,-4.312,-9.282,0.148,-3.869,-17.15,7.14,1.68
,-8.614,-1.0,-4.042,-9.222,0.713,-3.783,-13.58,8.68,2.45
26350.0,-9.366,0.735,-3.771,-8.528,-0.806,-4.834,-3.15,8.05,1.19
,-9.407,0.402,-3.699,-8.519,-1.764,-4.451,-8.05,9.31,1.12
,-9.246,0.184,-4.106,-8.928,-2.144,-3.81,-9.94,9.17,0.35
,-8.844,-0.136,-4.36,-9.146,-1.534,-3.049,-9.94,8.26,-0.42
26426.0,-9.206,-0.112,-3.283,-8.88,0.704,-4.848,20.51,9.94,5.67
,-9.445,1.127,-4.2,-8.564,0.426,-4.403,18.55,8.19,4.2
,-9.27,1.56,-4.468,-8.636,0.282,-4.288,7.91,6.58,2.66
,-9.354,1.254,-4.788,-8.48,-0.005,-3.982,-2.24,6.37,2.17
26502.0,-8.911,-0.462,-3.479,-9.572,-1.223,-4.511,-12.32,10.71,-3.5
,-9.155,-0.991,-3.534,-9.227,-0.905,-4.97,-11.2,10.64,-2.38
,-9.34,-1.342,-3.295,-8.751,-0.574,-5.205,-7.77,9.94,-0.56
,-9.734,-1.338,-3.963,-8.267,0.002,-4.81,-4.34,7.77,1.05
26577.0,-8.418,0.593,-4.465,-8.978,0.232,-4.405,14.0,8.47,2.87
,-8.77,1.046,-4.444,-8.83,-0.019,-4.104,11.27,7.35,1.54
,-8.878,0.823,-4.25,-8.701,-0.333,-3.699,5.25,6.3,0.49
,-9.174,0.507,-4.381,-9.031,-0.718,-3.46,-0.56,4.97,0.07
26653.0,-9.256,-0.773,-3.34,-8.528,-0.567,-4.913,5.74,9.24,1.75
,-9.497,-0.708,-3.898,-8.418,-0.562,-4.843,6.93,8.05,2.87
,-9.261,-0.723,-4.456,-8.512,-0.175,-4.501,6.02,5.81,3.5
,-8.861,-0.519,-4.748,-8.559,0.488,-4.453,5.74,4.69,4.2
26729.0,-8.835,0.584,-4.058,-8.995,-0.168,-4.508,10.5,8.54,1.54
,-9.177,0.153,-3.924,-8.799,0.122,-4.547,4.97,8.19,1.68
,-9.318,-0.232,-3.953,-8.509,0.239,-4.877,1.82,7.77,2.24
,-9.256,-0.325,-4.159,-8.337,-0.187,-4.767,2.73,7.42,2.73
26805.0,-8.708,-0.627,-4.322,-8.885,-0.041,-4.312,8.47,9.94,3.64
,-9.069,-0.57,-4.288,-8.878,-0.132,-4.094,10.22,8.33,3.92
,-9.038,-0.227,-4.195,-9.143,-0.357,-4.13,11.69,7.98,3.78
,-8.918,-0.072,-4.322,-9.421,-0.694,-3.853,10.92,8.19,3.71
26880.0,-9.162,-0.608,-4.034,-8.492,-0.39,-4.243,4.2,8.68,1.96
,-8.607,-0.318,-4.362,-8.701,-0.06,-4.223,4.48,8.68,1.89
,-8.354,-0.409,-4.47,-8.739,0.603,-4.554,4.06,10.15,2.66
,-8.48,-0.452,-4.444,-8.794,1.031,-4.599,4.62,10.78,3.71
26956.0,-8.741,1.086,-4.74,-8.665,1.675,-4.611,2.73,7.0,1.89
,-8.691,1.07,-4.759,-8.459,0.833,-4.276,1.12,7.77,0.21
,-8.947,1.369,-4.508,-8.696,-0.45,-4.027,3.08,8.05,-2.31
,-8.859,1.709,-4.771,-9.112,-1.409,-4.039,3.43,6.72,-5.32
27031.0,-8.978,-1.996,-4.168,-8.447,-0.38,-5.276,3.08,11.2,-5.6
,-8.875,-2.123,-4.491,-8.43,0.072,-5.418,9.45,11.06,-3.78
,-8.758,-1.472,-5.056,-8.614,0.184,-5.205,15.05,9.59,-2.1
,-8.358,-0.881,-5.343,-8.806,-0.177,-4.925,18.76,9.66,-0.91
27107.0,-8.808,-0.397,-4.671,-8.763,0.637,-5.396,4.13,8.89,-2.59
,-8.598,-0.5,-4.817,-8.741,0.605,-5.525,3.64,8.54,-2.31
,-8.825,-0.522,-4.616,-8.667,0.27,-5.882,4.27,8.61,-2.31
,-9.052,-0.005,-4.987,-8.397,-0.782,-5.772,6.58,7.63,-3.36
27183.0,-8.452,-2.163,-5.116,-8.492,-0.285,-4.843,6.86,8.4,-2.66
,-8.684,-2.474,-4.788,-8.734,0.318,-4.843,13.09,6.16,0.42
,-8.562,-1.747,-4.937,-8.942,0.529,-5.047,19.6,4.06,2.59
,-8.507,-0.859,-4.829,-8.832,0.818,-5.518,21.77,3.78,3.08
27259.0,-8.392,0.907,-5.75,-8.89,-2.13,-5.051,12.25,0.84,-4.06
,-7.772,-0.098,-5.58,-9.127,-1.637,-5.008,8.68,2.03,-3.01
,-7.777,-1.634,-5.293,-9.036,-1.445,-4.843,7.49,3.71,-1.61
,-8.406,-2.503,-4.905,-8.894,-1.342,-4.977,11.9,4.48,-0.14
27334.0,-8.899,-1.089,-4.932,-8.363,-0.294,-5.37,11.76,2.73,5.74
,-8.686,-0.689,-5.226,-8.416,-0.246,-5.257,11.48,2.17,6.72
,-8.435,-0.342,-5.284,-8.404,-0.012,-5.178,9.94,1.96,7.14
,-8.461,-0.27,-5.389,-8.758,0.311,-5.13,7.84,1.96,7.28
27410.0,-8.988,0.431,-5.111,-8.545,-0.421,-4.903,6.44,-0.56,5.67
,-8.859,0.11,-4.958,-8.777,-0.763,-4.779,3.57,-0.49,4.97
,-8.653,-0.328,-4.64,-8.737,-0.847,-4.702,2.59,0.77,3.99
,-8.473,-0.414,-4.748,-8.519,-0.883,-4.702,3.36,1.82,2.87
27486.0,-8.509,-0.505,-4.915,-8.739,0.115,-4.958,5.88,3.08,4.48
,-8.567,0.093,-4.903,-8.459,-0.122,-5.183,6.16,3.71,3.71
,-8.471,0.579,-5.102,-8.33,-0.232,-5.154,3.99,4.34,2.66
,-8.512,0.601,-5.173,-8.497,-0.282,-5.166,0.42,5.18,1.61
27562.0,-8.815,-0.103,-5.276,-8.526,-0.526,-5.233,-4.9,6.79,1.54
,-9.04,-0.002,-5.226,-8.277,-0.775,-5.226,-5.46,6.79,1.33
,-8.899,-0.134,-5.286,-8.332,-0.529,-5.274,-6.72,7.0,0.63
,-8.808,-0.282,-5.245,-8.605,-0.251,-5.262,-8.54,6.86,0.21
27638.0,-8.813,-0.06,-5.248,-8.452,-0.022,-5.269,-8.89,6.37,1.19
,-8.861,-0.053,-5.353,-8.198,-0.196,-5.279,-10.36,6.44,0.84
,-8.815,-0.232,-5.245,-8.476,-0.455,-5.276,-11.06,6.72,0.63
,-8.856,-0.134,-5.288,-8.679,-0.555,-5.358,-10.08,5.39,0.77
27713.0,-8.835,-0.646,-5.377,-8.531,-0.838,-5.561,-8.12,3.92,1.05
,-8.799,-0.861,-5.3,-8.382,-0.787,-5.564,-7.0,3.99,1.05
,-8.823,-0.821,-5.379,-8.129,-0.787,-5.721,-6.65,3.43,1.54
,-8.54,-0.976,-5.587,-8.282,-0.83,-5.614,-7.28,3.01,2.1
27789.0,-8.591,-0.603,-5.638,-8.787,-0.756,-5.36,-9.38,-0.49,7.0
,-8.478,-0.536,-5.729,-8.751,-0.392,-5.37,-9.66,-1.05,7.63
,-8.473,-0.543,-5.568,-8.519,0.007,-5.367,-9.8,-1.05,7.98
,-8.655,-0.615,-5.319,-8.244,0.242,-5.372,-9.03,-0.56,8.12
27864.0,-8.279,0.27,-5.315,-8.916,-0.098,-5.322,-2.1,-3.99,7.42
,-8.672,0.304,-5.236,-9.115,-0.108,-5.293,-1.68,-3.71,6.86
,-8.679,0.345,-5.355,-8.655,-0.017,-5.477,-1.89,-3.57,6.51
,-8.732,0.122,-5.394,-8.545,0.067,-4.996,-2.24,-2.73,6.37
27940.0,-8.22,0.249,-5.185,-9.076,0.493,-5.03,3.36,-6.86,4.06
,-7.624,0.56,-5.202,-8.904,0.481,-5.066,2.31,-7.0,3.92
,-8.019,0.498,-5.025,-8.6,0.249,-5.068,0.35,-5.81,3.92
,-8.78,0.471,-4.877,-8.402,-0.074,-4.996,-0.84,-6.09,3.43
28016.0,-8.562,-0.141,-4.953,-8.37,0.39,-4.8,5.88,-1.54,0.84
,-8.921,0.05,-4.805,-8.102,0.349,-4.671,7.98,-2.38,0.35
,-8.887,0.364,-4.824,-8.375,-0.026,-4.329,7.28,-5.18,0.42
,-8.703,0.378,-4.791,-8.591,0.378,-4.625,4.27,-7.42,0.7
28092.0,-8.758,0.438,-4.81,-8.787,0.065,-4.759,-2.94,-8.05,-0.07
,-8.789,0.342,-4.932,-8.957,0.297,-4.81,-3.78,-7.77,-0.28
,-8.784,0.206,-4.838,-8.782,0.665,-4.865,-3.5,-7.07,-0.84
,-8.76,-0.079,-4.822,-8.543,0.593,-4.85,-1.33,-5.95,-1.33
28167.0,-8.275,0.141,-4.886,-9.189,-0.053,-4.8,-5.11,-9.52,-3.01
,-8.313,-0.364,-4.743,-8.918,0.187,-4.843,-6.37,-9.38,-2.66
,-8.531,-0.524,-4.683,-8.485,-0.065,-4.901,-4.2,-9.17,-2.24
,-9.167,-0.373,-4.688,-8.447,-0.294,-4.614,-0.63,-9.45,-1.96
28243.0,-8.643,-0.22,-4.59,-8.631,0.55,-4.824,4.62,-6.37,-0.42
,-8.88,-0.034,-4.444,-8.808,0.376,-4.817,6.37,-6.79,-0.28
,-8.969,0.129,-4.472,-8.681,0.294,-4.757,6.37,-7.91,-0.63
,-8.76,0.471,-4.654,-8.691,0.115,-4.436,4.55,-9.45,-1.19
28319.0,-8.959,-0.072,-4.133,-8.626,-0.579,-3.996,3.15,-10.29,-2.87
,-9.074,0.014,-3.963,-8.906,-0.553,-4.089,3.43,-11.06,-3.29
,-8.83,0.211,-4.147,-8.942,-0.316,-4.013,1.61,-11.76,-3.29
,-8.536,-0.12,-4.14,-9.103,0.002,-3.996,-0.49,-11.34,-2.59
28395.0,-8.926,0.12,-3.984,-8.787,0.407,-3.932,9.52,-7.98,0.0
,-8.839,0.139,-3.955,-8.868,0.132,-3.75,8.4,-7.42,0.0
,-8.938,0.366,-3.86,-9.062,-0.103,-4.032,8.4,-7.14,-0.42
,-8.961,0.488,-3.903,-8.887,-0.034,-4.231,6.09,-7.28,-1.05
28471.0,-8.918,0.041,-4.197,-8.94,-0.646,-4.133,0.7,-7.84,-2.66
,-8.811,-0.105,-4.121,-9.081,-0.646,-4.037,-0.21,-7.35,-2.73
,-8.954,-0.459,-4.145,-9.095,-0.39,-3.965,0.28,-6.65,-2.73
,-8.93,-0.541,-4.137,-9.1,0.043,-4.003,1.12,-6.37,-2.38
28546.0,-8.916,0.443,-3.905,-8.909,0.28,-4.101,4.97,-6.58,-1.82
,-9.04,0.38,-3.776,-8.981,0.218,-3.977,2.73,-6.23,-2.38
,-9.098,0.309,-3.774,-9.06,0.019,-3.9,1.4,-6.09,-3.01
,-8.916,0.373,-3.953,-9.091,-0.268,-3.836,0.77,-6.16,-3.43
28622.0,-9.06,-0.426,-3.599,-9.148,-0.371,-3.991,3.08,-4.06,-3.92
,-9.115,-0.38,-3.795,-9.026,-0.371,-3.979,4.2,-4.06,-3.85
,-9.081,-0.23,-3.719,-9.139,-0.462,-3.776,3.57,-4.13,-3.36
,-9.131,-0.151,-3.838,-9.153,-0.402,-3.853,2.59,-3.71,-2.66
28697.0,-9.043,-0.223,-3.687,-9.191,-0.27,-3.944,5.95,-2.17,-2.24
,-9.201,-0.112,-3.877,-9.05,-0.201,-3.975,4.34,-2.1,-2.38
,-8.99,-0.158,-3.853,-9.06,-0.22,-3.656,2.94,-1.82,-1.89
,-9.036,-0.206,-3.836,-9.194,-0.172,-3.544,2.94,-1.61,-1.47
28773.0,-9.15,0.012,-3.611,-9.012,-0.23,-3.697,4.34,-1.05,-2.1
,-9.117,0.019,-3.448,-9.019,-0.323,-3.896,3.15,-0.7,-2.17
,-9.182,-0.024,-3.582,-8.945,-0.34,-3.984,1.12,-0.42,-2.52
,-9.127,-0.081,-3.709,-8.973,-0.306,-3.991,0.42,-0.35,-2.52
28849.0,-8.969,-0.208,-3.915,-9.024,-0.395,-3.999,7.42,0.0,-0.91
,-9.043,-0.206,-4.066,-9.115,-0.529,-4.027,7.14,-0.21,-1.19
,-8.928,-0.256,-4.109,-9.043,-0.481,-3.869,6.3,-0.28,-1.47
,-8.954,-0.249,-4.094,-9.012,-0.223,-3.829,5.18,-0.56,-1.75
28925.0,-9.11,-0.156,-3.972,-9.359,-1.11,-3.448,6.51,-0.56,-0.56
,-9.095,-0.309,-3.932,-9.363,-0.718,-3.34,5.18,-0.84,-0.28
,-9.103,-0.668,-3.776,-9.402,-0.196,-3.599,5.11,-0.98,-0.07
,-9.167,-0.938,-3.625,-9.141,0.077,-4.013,6.72,-0.35,0.56
29000.0,-8.882,-0.022,-4.264,-9.107,0.002,-4.274,6.72,0.42,1.12
,-8.863,-0.285,-4.353,-9.069,0.199,-4.025,6.86,0.35,1.33
,-8.947,-0.385,-4.338,-9.069,-0.05,-3.745,9.59,0.21,1.54
,-9.136,-0.335,-4.312,-9.191,-0.462,-3.642,12.95,0.0,1.68
29076.0,-9.162,-0.524,-3.659,-8.976,-0.567,-4.013,9.17,-1.12,0.28
,-9.213,-0.122,-3.776,-9.016,-0.644,-3.637,8.75,-1.33,-0.14
,-9.251,-0.055,-4.027,-9.217,-0.55,-3.386,5.74,-1.61,-0.63
,-9.019,-0.278,-4.078,-9.335,-0.251,-3.369,2.94,-1.96,-0.91
29152.0,-9.397,0.062,-3.623,-9.043,-0.751,-3.709,3.92,-0.56,-0.49
,-9.167,-0.026,-3.922,-9.229,-0.608,-3.434,-0.35,-0.84,-1.05
,-8.892,-0.45,-4.039,-9.426,-0.471,-3.412,-2.24,-0.63,-1.05
,-8.83,-0.723,-3.879,-9.409,-0.543,-3.506,-0.14,-0.14,-0.49
29228.0,-9.249,-0.476,-3.728,-9.038,-0.596,-3.984,2.45,0.35,0.49
,-9.064,-0.443,-3.939,-9.174,-0.493,-3.874,0.98,0.42,0.49
,-8.938,-0.464,-4.133,-9.237,-0.299,-4.075,0.77,0.35,0.49
,-8.892,-0.512,-4.056,-9.105,-0.175,-4.039,1.54,0.49,0.84
29303.0,-9.069,-0.285,-3.977,-9.184,-0.445,-3.628,3.71,-0.7,1.54
,-9.136,-0.436,-3.927,-9.165,-0.304,-3.676,4.2,-0.63,1.61
,-9.191,-0.431,-3.948,-9.206,-0.251,-3.743,4.97,-0.84,1.68
,-9.146,-0.45,-3.776,-9.162,-0.297,-3.86,5.18,-0.7,1.68
29379.0,-9.057,-0.316,-3.898,-9.361,-0.445,-3.273,1.96,-0.91,0.98
,-9.026,-0.572,-3.781,-9.332,-0.373,-3.221,1.68,-0.56,1.12
,-9.146,-0.689,-3.573,-9.311,-0.129,-3.393,2.66,-0.42,1.12
,-9.222,-0.572,-3.417,-9.148,-0.057,-3.601,3.78,0.21,1.4
29455.0,-9.007,-0.258,-3.508,-9.323,-0.141,-3.848,0.42,1.75,1.54
,-9.069,-0.534,-3.415,-9.184,-0.263,-3.999,1.54,2.73,1.75
,-9.21,-0.321,-3.441,-9.072,-0.352,-4.039,3.57,3.22,1.61
,-9.371,-0.122,-3.668,-9.079,-0.409,-4.113,3.15,3.08,1.26
29530.0,-9.115,-0.316,-4.109,-9.215,0.081,-3.709,1.82,1.89,1.12
,-9.143,-0.263,-3.877,-9.191,-0.101,-3.625,2.24,1.75,1.12
,-9.22,-0.273,-3.8,-9.194,0.036,-3.642,1.82,1.61,1.19
,-9.268,-0.156,-3.778,-9.079,0.187,-3.551,1.54,1.33,0.84
29606.0,-9.174,0.258,-3.673,-9.225,-1.244,-3.877,-5.04,0.56,-0.28
,-9.048,-0.239,-3.611,-9.198,-1.007,-3.903,-8.19,0.63,-0.91
,-9.21,-0.744,-3.805,-9.098,-0.601,-3.929,-8.4,1.12,-1.19
,-9.117,-1.184,-3.829,-9.282,-0.256,-4.183,-5.46,1.47,-0.98
29682.0,-9.251,-0.055,-4.36,-9.134,-0.057,-4.013,3.57,0.7,0.84
,-9.119,-0.103,-4.432,-9.246,0.048,-3.769,2.1,0.0,0.77
,-9.055,-0.33,-4.379,-9.28,0.0,-3.606,2.1,-0.7,0.7
,-9.091,-0.325,-4.219,-9.306,0.144,-3.496,3.71,-1.19,0.49
29758.0,-9.198,0.055,-3.369,-9.155,-0.546,-4.092,-2.38,-2.1,-1.96
,-9.234,-0.227,-3.434,-9.069,-0.644,-4.152,-4.97,-1.89,-2.45
,-9.182,-0.447,-3.592,-9.055,-0.692,-4.113,-6.09,-1.75,-2.45
,-9.122,-0.581,-3.764,-8.961,-0.637,-3.86,-5.67,-1.82,-2.45
29833.0,-8.981,-0.723,-3.34,-9.354,-0.443,-2.362,-2.24,-2.03,-0.7
,-9.194,-0.668,-2.924,-9.217,-0.457,-2.393,-0.56,-1.19,-0.07
,-9.423,-0.581,-2.687,-9.227,-0.641,-2.529,0.35,-0.07,0.35
,-9.375,-0.55,-2.45,-9.127,-0.897,-2.809,0.63,1.26,0.84
29909.0,-9.076,-1.007,-2.982,-8.863,-0.101,-3.848,-1.19,8.4,3.57
,-9.342,-0.548,-3.903,-9.088,-0.306,-3.58,0.98,7.91,3.5
,-9.115,-0.053,-4.097,-9.072,-0.065,-3.324,0.63,7.07,3.08
,-8.961,0.333,-4.192,-9.385,0.593,-3.506,-1.68,6.86,3.08
29985.0,-9.241,0.613,-3.687,-9.32,-1.113,-3.197,-4.06,6.58,0.91
,-9.014,-0.215,-3.4,-9.067,-0.495,-3.697,-7.35,7.49,1.61
,-9.055,-0.816,-3.372,-9.067,0.086,-3.654,-6.93,8.61,2.52
,-9.086,-1.194,-2.855,-8.909,0.105,-3.573,-1.26,10.36,3.78
30061.0,-9.026,0.187,-3.556,-8.851,-0.313,-5.303,0.98,10.43,3.71
,-9.261,0.342,-4.369,-8.612,-0.782,-4.551,-2.45,9.73,2.52
,-8.938,0.397,-4.779,-8.873,-0.809,-4.305,-7.56,8.54,1.12
,-9.122,0.136,-5.035,-8.789,-0.632,-4.111,-10.22,7.49,1.12
30136.0,-9.411,-0.304,-3.769,-8.854,-0.318,-4.228,12.46,6.02,2.52
,-9.718,0.129,-4.271,-8.698,-0.632,-3.711,11.48,4.62,1.89
,-9.469,0.251,-4.513,-8.811,-0.565,-4.271,6.44,4.06,1.75
,-9.206,0.074,-4.31,-9.038,-0.692,-4.384,1.96,4.13,1.54
30212.0,-9.107,-0.663,-4.547,-9.344,0.22,-3.967,-3.78,3.29,3.01
,-8.914,-0.73,-4.29,-9.316,0.581,-3.912,-0.98,3.71,3.5
,-9.079,-0.555,-4.274,-8.954,0.888,-3.788,4.13,3.36,3.85
,-9.263,-0.28,-4.147,-8.851,0.751,-3.659,9.8,3.36,4.2
30287.0,-8.902,0.337,-3.534,-9.414,-0.572,-3.903,0.63,5.53,1.05
,-9.06,-0.158,-3.391,-9.005,-0.081,-3.912,-0.35,5.88,0.77
,-9.249,-0.507,-3.539,-8.734,0.158,-3.81,1.89,5.95,0.63
,-9.33,-0.823,-3.637,-8.667,0.311,-3.687,4.48,6.09,1.05
30363.0,-9.002,0.428,-3.819,-8.428,-0.414,-3.589,8.05,6.37,-0.14
,-9.294,0.792,-3.972,-8.76,-0.826,-3.403,5.81,6.16,-1.19
,-9.179,0.66,-4.214,-9.328,-0.905,-3.53,1.33,6.3,-1.96
,-8.643,0.22,-3.898,-9.433,-1.031,-3.96,-1.54,8.19,-2.38
30439.0,-9.404,-1.074,-4.276,-8.672,-1.175,-4.298,10.43,9.52,3.01
,-8.942,-1.098,-4.329,-9.282,-1.129,-4.29,11.34,10.15,4.48
,-8.466,-1.137,-4.341,-9.521,-0.814,-4.145,12.88,10.85,5.46
,-8.291,-1.096,-4.255,-8.868,-0.208,-4.322,14.84,11.76,6.58
30515.0,-8.392,0.153,-4.14,-9.172,0.402,-4.054,6.65,10.5,7.56
,-8.485,0.359,-4.24,-9.067,0.249,-3.754,5.39,10.36,6.93
,-8.902,0.438,-4.255,-8.765,0.306,-3.79,4.06,9.24,6.16
,-9.119,0.543,-4.279,-8.725,0.421,-4.011,3.08,9.03,5.46
30591.0,-9.174,0.297,-4.106,-8.296,-0.01,-4.405,7.56,12.04,2.66
,-9.311,0.05,-4.243,-8.555,0.316,-4.544,5.46,10.99,2.31
,-8.99,-0.007,-4.346,-9.241,0.883,-4.355,4.62,11.62,2.24
,-8.681,-0.05,-4.286,-9.308,1.46,-4.726,4.97,12.18,2.1
30666.0,-8.854,1.426,-5.226,-8.342,-0.883,-4.369,-1.26,5.39,-4.9
,-8.43,0.677,-5.296,-8.799,-1.079,-4.039,-7.21,5.53,-5.74
,-8.325,-0.22,-5.03,-9.217,-1.244,-4.183,-7.42,6.86,-6.37
,-8.301,-0.706,-4.724,-8.988,-1.467,-4.506,-2.66,7.7,-6.37
30742.0,-8.859,-1.311,-5.085,-8.256,-0.596,-5.135,8.96,7.84,1.4
,-8.629,-0.991,-5.221,-8.832,-1.11,-4.786,13.16,7.98,1.26
,-8.555,-0.447,-5.317,-9.009,-1.493,-4.755,16.24,7.7,0.42
,-8.32,-0.069,-5.461,-9.052,-1.819,-4.688,16.03,8.19,0.07
30818.0,-9.136,-1.364,-4.652,-8.789,0.672,-5.217,14.91,5.95,4.34
,-8.935,-0.768,-4.92,-8.808,0.593,-5.25,19.25,5.6,3.43
,-8.93,0.012,-5.004,-8.811,0.299,-5.054,21.91,5.53,2.94
,-8.753,0.55,-5.19,-8.653,0.139,-5.465,20.93,5.74,2.59
30894.0,-8.571,-0.17,-5.451,-9.062,-0.103,-4.929,7.28,2.17,0.49
,-8.406,-0.235,-5.207,-9.39,-0.469,-4.465,7.63,2.31,0.14
,-8.265,-0.11,-5.233,-9.457,-0.416,-4.372,8.68,2.87,-0.56
,-8.557,0.034,-5.31,-8.839,-0.809,-4.391,8.61,3.29,-1.05
30969.0,-8.543,-0.524,-4.676,-8.634,-0.156,-5.382,3.85,-2.17,1.61
,-8.504,-0.857,-4.745,-8.323,0.244,-5.47,3.08,-1.61,2.1
,-8.768,-1.096,-4.903,-8.078,0.215,-5.415,4.41,-1.05,2.17
,-8.995,-0.646,-5.176,-8.315,0.124,-5.202,6.79,-2.1,2.45
31045.0,-8.746,-0.127,-4.893,-8.677,-1.646,-4.57,2.24,-3.08,3.36
,-9.012,-0.179,-4.901,-8.823,-1.766,-4.64,1.33,-5.39,3.92
,-8.768,-0.708,-4.965,-8.914,-1.474,-4.573,-1.26,-5.53,4.27
,-8.756,-1.328,-4.594,-8.954,-0.833,-4.877,-2.17,-3.71,4.48
31120.0,-8.66,-0.522,-5.001,-9.318,0.792,-4.728,4.9,-1.4,9.17
,-8.603,-0.105,-4.685,-9.229,0.72,-4.7,5.53,0.21,8.96
,-8.763,0.354,-4.738,-9.112,0.567,-4.848,5.95,1.19,7.77
,-9.244,0.732,-4.824,-8.794,0.112,-4.348,5.39,1.54,6.02
31196.0,-8.222,-0.203,-4.46,-8.938,-0.392,-4.704,-1.26,3.92,4.48
,-8.002,0.031,-4.721,-8.772,-0.562,-4.977,0.35,5.11,4.83
,-8.571,0.235,-4.803,-8.892,-0.294,-4.898,0.49,5.46,4.69
,-8.99,0.11,-4.728,-9.009,0.079,-4.925,-2.24,5.6,4.76
31272.0,-8.885,0.177,-4.884,-8.775,1.01,-5.083,-2.38,7.07,1.75
,-8.677,0.129,-4.798,-9.009,0.782,-4.896,-3.57,7.42,2.52
,-8.533,0.462,-4.781,-8.935,0.436,-4.963,-3.22,7.42,2.94
,-8.526,0.902,-4.929,-8.89,0.091,-4.826,-3.43,6.51,1.96
31348.0,-8.734,0.014,-4.941,-8.976,-0.732,-5.221,-13.37,3.85,-3.15
,-8.564,-0.084,-5.087,-8.882,-0.905,-5.059,-13.86,3.85,-3.08
,-8.777,-0.39,-4.965,-8.536,-0.881,-5.159,-14.84,3.99,-2.94
,-8.911,-0.584,-5.173,-8.356,-0.756,-5.197,-15.33,3.15,-2.59
31424.0,-8.569,-0.761,-4.937,-8.612,-0.665,-4.908,-8.47,1.89,1.4
,-8.878,-0.56,-4.972,-8.641,-0.665,-5.016,-8.33,1.4,2.59
,-8.854,-0.486,-5.016,-8.76,-0.57,-5.049,-8.82,1.12,3.36
,-8.626,-0.617,-5.001,-8.825,-0.196,-5.214,-9.24,1.75,3.71
31499.0,-8.559,0.002,-5.276,-9.04,0.462,-5.044,-0.63,-1.75,6.51
,-8.337,0.091,-5.288,-9.088,0.572,-5.104,-0.21,-1.89,5.95
,-8.435,0.318,-5.243,-8.789,0.304,-5.087,0.56,-2.03,4.97
,-8.725,0.507,-5.066,-8.976,-0.067,-4.791,0.77,-1.75,3.85
31575.0,-8.894,-0.184,-4.891,-8.399,0.189,-5.106,0.91,-0.91,0.84
,-8.978,-0.163,-4.692,-8.662,0.014,-5.018,3.71,-2.1,1.19
,-8.516,0.12,-4.91,-8.612,-0.163,-5.035,4.62,-3.71,0.77
,-8.27,0.311,-5.011,-8.636,-0.493,-4.831,4.06,-4.34,0.07
31651.0,-8.76,-0.584,-4.786,-8.914,0.342,-4.57,-1.33,-5.18,0.98
,-8.607,-0.404,-4.759,-8.653,0.706,-4.673,1.05,-5.39,1.54
,-8.581,0.014,-4.707,-8.847,0.306,-4.606,3.08,-4.97,2.03
,-8.665,0.208,-4.7,-9.103,0.057,-4.221,3.5,-4.76,2.59
31727.0,-8.904,0.357,-4.372,-8.823,0.115,-4.413,-0.14,-5.46,0.91
,-8.536,0.62,-4.527,-8.796,0.246,-4.384,0.28,-5.6,1.05
,-8.457,0.452,-4.501,-8.94,0.486,-4.31,0.0,-5.04,0.77
,-8.825,0.165,-4.212,-9.222,0.538,-4.341,0.77,-5.25,0.28
31802.0,-9.15,0.61,-4.448,-8.746,-0.491,-4.764,0.63,-6.02,-2.8
,-8.837,0.378,-4.451,-8.775,-0.218,-4.8,-4.06,-6.16,-3.22
,-8.593,-0.218,-4.398,-8.624,-0.156,-4.714,-6.23,-5.46,-2.94
,-8.662,-0.491,-4.707,-8.679,-0.007,-4.704,-5.25,-5.88,-2.38
31878.0,-9.002,0.098,-4.671,-8.49,0.098,-4.958,1.82,-5.88,-0.91
,-9.007,0.122,-4.623,-8.502,-0.057,-4.578,1.05,-5.32,-0.42
,-9.127,0.005,-4.716,-8.679,-0.27,-4.295,-0.7,-6.58,-0.84
,-8.593,0.069,-4.836,-8.933,-0.292,-4.142,-2.03,-7.77,-1.19
31953.0,-9.284,-0.184,-4.046,-8.947,0.115,-4.535,9.45,-5.18,1.05
,-9.548,0.194,-4.039,-8.67,0.495,-4.678,11.13,-5.11,1.12
,-9.6,0.239,-4.231,-8.002,0.663,-4.692,10.71,-5.32,1.12
,-9.189,0.28,-4.614,-8.167,0.235,-4.458,8.96,-5.81,0.77
32029.0,-8.753,-0.242,-4.106,-8.961,-0.055,-3.833,-0.84,-8.68,-1.4
,-9.244,-0.23,-4.034,-8.904,-0.258,-3.467,2.38,-9.52,-1.19
,-9.306,-0.115,-3.972,-9.002,-0.072,-3.75,4.13,-9.66,-1.05
,-9.241,-0.077,-3.886,-8.926,0.022,-4.068,4.69,-9.24,-1.05
32105.0,-9.103,-0.108,-4.006,-9.17,0.849,-3.582,6.72,-6.72,0.56
,-8.978,-0.148,-3.936,-9.019,1.065,-3.692,8.96,-5.88,1.4
,-8.964,-0.163,-3.74,-8.909,0.866,-4.039,12.53,-4.62,1.54
,-9.062,0.268,-3.537,-8.835,0.215,-4.152,14.98,-4.13,0.98
32181.0,-8.813,-0.306,-4.046,-9.258,-0.115,-3.156,-4.13,-6.37,-3.36
,-8.952,-0.534,-3.714,-9.177,-0.019,-3.616,-0.28,-4.97,-3.22
,-9.131,-0.546,-3.252,-8.966,-0.397,-3.671,3.78,-3.36,-2.87
,-9.21,-0.361,-3.089,-9.016,-0.641,-3.606,5.74,-2.73,-2.59
32256.0,-9.038,-0.864,-3.623,-8.856,0.132,-3.563,4.62,-1.89,-0.98
,-8.729,-0.189,-3.498,-9.179,-0.136,-4.171,6.44,-2.17,-1.05
,-8.961,0.072,-3.451,-8.875,0.136,-4.243,5.25,-1.96,-0.84
,-8.969,0.057,-3.64,-8.715,0.177,-4.133,3.01,-1.75,-0.84
32332.0,-8.897,-0.124,-3.946,-9.117,0.136,-4.556,-2.03,-0.07,-1.12
,-9.258,-0.364,-3.735,-8.875,-0.065,-4.592,0.7,0.91,-0.84
,-9.739,0.029,-4.056,-8.808,-0.278,-4.506,3.57,0.56,-0.77
,-9.471,0.218,-4.338,-8.928,-0.12,-4.252,3.01,-0.63,-0.98
32408.0,-9.139,0.053,-4.238,-9.081,-0.246,-3.888,3.85,-1.68,-1.47
,-9.184,-0.002,-4.075,-9.0,0.043,-3.845,1.89,-2.03,-1.4
,-9.165,-0.258,-3.795,-9.0,-0.124,-3.568,1.05,-1.82,-0.91
,-9.222,-0.416,-4.042,-9.22,0.098,-3.537,2.17,-2.17,-0.7
32484.0,-9.265,0.266,-3.565,-8.849,-0.424,-3.498,7.42,-1.4,-1.12
,-9.206,0.445,-3.62,-8.916,-0.766,-3.293,4.9,-1.54,-1.82
,-9.162,0.392,-3.769,-9.217,-0.799,-3.171,1.33,-1.75,-2.38
,-8.995,0.005,-3.807,-9.273,-0.304,-3.106,-1.68,-1.75,-3.01
32560.0,-9.418,-0.053,-3.206,-8.897,-0.589,-4.152,4.97,2.66,-1.33
,-9.311,-0.12,-3.448,-8.981,-0.5,-4.274,2.94,2.94,-1.12
,-9.249,-0.227,-3.924,-9.129,-0.101,-4.446,2.03,3.01,-0.84
,-9.012,-0.38,-4.092,-9.177,0.148,-4.582,2.1,3.15,-0.63
32635.0,-9.019,-0.014,-4.436,-9.148,0.737,-4.106,7.35,1.68,0.49
,-8.969,-0.239,-4.288,-9.067,0.366,-4.142,7.77,1.26,0.63
,-9.148,-0.081,-4.18,-9.1,-0.213,-3.948,9.45,0.77,0.21
,-9.251,0.486,-4.226,-9.045,-0.369,-3.953,9.1,-0.35,-0.91
32711.0,-9.007,-0.275,-3.821,-9.323,-0.754,-3.348,2.66,-1.61,-3.15
,-9.083,-0.191,-3.824,-9.213,-0.558,-3.412,2.59,-1.54,-3.15
,-9.105,-0.447,-3.618,-9.289,-0.22,-3.687,1.47,-1.33,-3.08
,-9.131,-0.723,-3.29,-9.136,-0.141,-3.936,1.26,-0.42,-2.45
32786.0,-9.043,-0.294,-4.156,-9.356,-0.115,-3.635,0.28,-0.28,-1.82
,-9.0,-0.56,-4.226,-9.258,0.292,-3.599,1.54,-0.21,-1.4
,-8.851,-0.558,-4.006,-9.179,0.191,-3.745,4.55,0.14,-0.56
,-9.134,-0.364,-3.855,-9.146,-0.246,-3.819,7.49,0.56,-0.14
32862.0,-9.048,-0.45,-3.898,-9.055,-0.225,-3.781,-0.28,0.07,-1.61
,-9.028,-0.615,-3.776,-8.971,-0.371,-3.711,1.05,0.42,-1.47
,-9.165,-0.565,-3.754,-9.019,-0.637,-3.64,3.01,0.28,-1.33
,-9.258,-0.364,-3.774,-9.143,-0.715,-3.575,3.36,0.14,-1.33
32938.0,-9.284,-0.543,-3.654,-9.012,-0.512,-3.996,2.59,1.54,-0.21
,-9.261,-0.414,-3.714,-9.045,-0.486,-4.101,3.01,1.75,0.07
,-9.232,-0.467,-3.807,-9.086,-0.481,-4.037,2.8,1.75,0.56
,-9.11,-0.507,-3.941,-9.146,-0.34,-3.979,3.57,1.75,1.12
33014.0,-9.055,-0.136,-3.922,-9.273,-0.392,-3.436,7.63,1.54,2.38
,-9.009,-0.225,-3.719,-9.251,-0.304,-3.687,7.0,1.61,2.31
,-9.122,-0.282,-3.568,-9.119,-0.306,-3.759,7.35,2.1,2.31
,-9.222,-0.328,-3.527,-9.136,-0.345,-3.841,7.63,2.38,2.45
33089.0,-9.1,-0.39,-3.912,-9.191,-0.05,-4.056,6.3,3.36,2.8
,-9.095,-0.4,-3.903,-9.139,0.103,-4.24,7.14,3.43,2.94
,-9.136,-0.39,-3.829,-8.995,0.022,-4.209,8.05,3.57,2.94
,-9.246,-0.22,-3.912,-8.99,-0.232,-4.111,8.61,3.36,2.66
33165.0,-9.012,-0.45,-4.039,-9.112,-0.072,-3.599,4.2,1.75,2.1
,-9.1,-0.483,-3.896,-9.048,-0.23,-3.532,6.3,1.89,2.31
,-9.253,-0.376,-3.74,-9.091,-0.45,-3.446,7.21,1.75,2.1
,-9.234,-0.172,-3.656,-9.131,-0.548,-3.537,6.02,1.4,1.54
33240.0,-9.227,-0.543,-3.592,-9.026,-0.103,-4.324,3.15,3.36,1.33
,-9.351,-0.313,-3.8,-8.897,-0.146,-4.367,4.13,3.36,1.4
,-9.273,-0.141,-3.936,-8.947,-0.01,-4.338,3.57,3.08,1.4
,-9.112,-0.074,-4.125,-9.045,-0.323,-4.223,2.1,2.66,1.12
33316.0,-9.103,-0.622,-4.063,-8.995,-0.244,-3.92,-0.56,1.4,0.63
,-9.15,-0.613,-3.929,-8.954,-0.328,-3.92,2.31,1.54,1.19
,-9.261,-0.373,-3.96,-9.064,-0.486,-3.881,4.13,1.26,1.4
,-9.155,-0.146,-3.999,-9.148,-0.414,-3.778,3.43,0.98,1.26
33392.0,-9.103,-0.337,-3.841,-9.213,-0.153,-3.891,1.19,0.63,1.26
,-9.067,-0.366,-3.798,-9.198,-0.014,-3.953,1.19,0.56,1.4
,-9.055,-0.45,-3.795,-9.15,0.079,-4.02,2.1,0.91,1.61
,-9.083,-0.352,-3.774,-9.141,-0.053,-4.078,3.22,0.91,1.75
33468.0,-9.072,-0.196,-4.116,-9.196,-0.577,-3.664,-3.57,-0.84,0.07
,-8.983,-0.369,-4.078,-9.265,-0.223,-3.604,-3.85,-0.91,0.07
,-9.036,-0.581,-3.884,-9.311,0.081,-3.697,-2.45,-0.56,0.56
,-9.088,-0.67,-3.743,-9.308,0.345,-3.939,0.07,0.0,1.19
33544.0,-9.079,0.213,-4.039,-9.174,-0.127,-3.984,-3.08,-0.56,0.42
,-9.021,-0.141,-4.039,-9.124,-0.115,-3.85,-4.41,-0.63,0.14
,-9.069,-0.409,-4.101,-9.141,-0.232,-3.707,-4.06,-0.91,0.0
,-9.095,-0.304,-4.082,-9.194,-0.187,-3.821,-2.73,-1.05,-0.49
33619.0,-9.186,-0.237,-3.412,-9.069,-0.505,-4.293,2.1,-0.07,0.63
,-9.359,0.141,-3.719,-8.969,-0.507,-4.341,5.88,-0.21,0.42
,-9.191,0.407,-4.015,-8.945,-0.684,-4.121,3.36,-0.35,-0.42
,-9.127,0.093,-4.267,-9.086,-0.639,-3.728,-2.38,-1.19,-1.19
33695.0,-9.328,-0.443,-3.436,-9.189,-0.625,-2.156,-3.78,-1.82,-1.4
,-9.373,-0.414,-3.106,-9.428,0.084,-2.527,-4.13,-0.98,-0.98
,-9.258,-0.555,-2.819,-9.359,0.689,-3.271,-4.34,-0.42,-0.07
,-9.217,-0.646,-2.577,-9.143,0.534,-3.625,-1.68,1.26,1.26
33771.0,-8.993,-0.062,-4.202,-9.16,-0.876,-3.666,-11.48,4.27,-0.49
,-8.631,-0.601,-4.207,-9.313,-0.895,-3.108,-12.11,3.92,-0.07
,-8.76,-0.653,-4.032,-9.474,-0.974,-2.123,-7.84,4.48,0.84
,-8.949,-0.644,-3.975,-9.732,-0.223,-2.149,-5.18,4.76,1.26
33847.0,-9.351,0.799,-2.769,-8.308,-1.457,-5.001,14.28,8.05,3.64
,-9.32,1.713,-4.683,-8.638,-1.527,-3.948,3.43,4.97,0.63
,-8.681,1.326,-5.288,-9.088,-0.617,-4.121,-13.93,3.92,-0.98
,-8.385,-0.077,-5.449,-9.608,-0.246,-3.632,-23.73,4.83,-1.19
33922.0,-9.78,-0.208,-3.23,-9.048,1.862,-3.946,-9.52,5.74,0.91
,-9.402,-0.553,-2.972,-9.026,2.304,-5.535,-11.13,7.28,2.45
,-9.11,-0.675,-1.962,-8.504,1.101,-5.968,-2.52,9.8,3.92
,-9.404,0.469,-3.058,-8.469,-0.457,-5.339,8.75,8.68,3.22
33998.0,-8.995,-0.574,-4.788,-9.28,-0.299,-2.931,0.98,5.6,-2.45
,-9.107,0.079,-4.223,-9.459,-0.704,-2.414,8.33,5.39,-4.69
,-9.055,0.675,-3.625,-9.356,-0.66,-2.915,5.04,5.39,-5.67
,-9.237,0.459,-3.288,-9.019,-0.854,-3.266,-3.78,6.3,-5.04
34073.0,-9.016,-1.117,-4.101,-8.902,-1.175,-4.391,-2.38,7.98,-1.89
,-8.607,-1.429,-4.549,-8.93,-0.211,-3.999,-2.1,8.05,0.0
,-8.428,-1.919,-4.726,-9.048,0.526,-3.661,2.17,8.68,1.96
,-8.526,-1.977,-4.489,-9.15,0.766,-3.568,9.73,9.38,2.8
34149.0,-9.529,0.605,-3.814,-8.739,-2.067,-4.212,7.0,10.71,1.82
,-9.45,-0.249,-4.133,-9.007,-1.074,-3.944,1.4,8.68,2.38
,-9.052,-1.46,-4.379,-8.952,0.29,-4.106,-0.28,8.96,4.76
,-8.6,-2.108,-4.566,-9.253,1.201,-4.133,6.37,9.73,7.77
34225.0,-9.158,1.208,-4.401,-8.863,-1.328,-3.661,5.6,6.3,4.62
,-8.567,0.287,-4.53,-9.139,-0.878,-3.585,-7.63,7.28,5.67
,-8.502,-0.689,-4.475,-9.194,-0.383,-3.771,-11.76,9.1,6.44
,-8.5,-1.261,-4.207,-9.067,0.261,-3.927,-6.93,11.27,6.79
34301.0,-8.756,0.797,-4.365,-9.177,1.965,-4.563,18.83,13.02,10.15
,-8.918,1.132,-4.413,-8.626,1.33,-4.645,18.27,13.79,9.59
,-9.564,1.515,-4.568,-8.179,0.328,-4.544,16.52,12.04,6.65
,-9.435,2.008,-4.58,-8.413,-0.347,-4.575,11.2,9.52,3.43
34377.0,-8.976,-0.658,-4.621,-8.447,-0.517,-4.714,-7.91,9.03,-2.24
,-9.177,-0.684,-4.625,-8.607,-0.213,-4.781,-3.78,8.75,-1.82
,-8.961,-0.658,-4.762,-8.82,-0.007,-4.582,-0.98,8.89,-1.26
,-8.629,-0.672,-4.704,-9.06,0.644,-4.673,0.77,9.24,-0.7
34452.0,-8.696,0.866,-4.872,-8.882,-0.261,-3.927,0.7,6.86,-0.84
,-8.593,0.522,-4.53,-8.935,-0.086,-4.092,-3.43,7.84,-2.59
,-8.653,0.139,-4.02,-9.27,0.275,-4.212,-5.32,9.45,-3.71
,-8.813,-0.187,-3.884,-9.222,0.785,-4.535,-4.97,10.71,-3.99
34528.0,-8.758,1.11,-4.649,-8.76,-0.366,-4.941,5.32,6.79,-7.42
,-8.351,0.936,-4.987,-8.89,-0.861,-4.647,3.57,6.44,-7.56
,-8.301,0.787,-5.2,-8.681,-1.254,-4.496,3.01,6.86,-7.56
,-8.473,0.294,-5.185,-8.679,-1.383,-4.463,3.43,7.77,-7.84
34604.0,-8.825,-1.019,-4.925,-8.569,-1.974,-4.896,16.17,8.54,-7.42
,-8.562,-1.213,-5.063,-9.057,-1.773,-4.817,14.28,7.63,-5.39
,-8.174,-1.546,-5.087,-9.134,-1.474,-4.841,11.48,7.7,-2.94
,-8.098,-1.783,-5.14,-8.813,-1.196,-4.807,9.66,8.82,-0.7
34680.0,-8.717,-0.814,-4.929,-8.093,0.285,-5.575,15.96,9.45,3.5
,-8.763,-0.481,-5.085,-8.076,0.699,-5.477,16.17,7.77,4.06
,-8.746,-0.06,-5.25,-8.643,0.254,-5.327,16.17,5.95,4.76
,-8.449,0.28,-5.41,-9.088,-0.287,-5.097,15.19,5.04,5.11
34755.0,-9.191,-0.581,-4.855,-8.528,-0.029,-5.013,0.07,7.63,3.64
,-8.904,-0.708,-4.755,-8.756,-0.06,-5.329,2.8,4.9,4.62
,-8.588,-0.242,-4.874,-8.679,0.127,-5.552,4.76,2.45,4.48
,-8.397,0.01,-4.982,-8.138,0.232,-5.508,2.1,1.96,3.64
34831.0,-7.973,-0.242,-5.367,-9.289,-0.584,-4.503,-3.29,-1.82,4.48
,-8.162,-0.943,-5.307,-9.014,-0.471,-4.692,-3.85,-1.12,5.32
,-8.768,-1.228,-4.812,-8.856,-0.5,-4.86,-0.91,-0.21,5.95
,-9.234,-0.936,-4.616,-8.418,-0.275,-5.264,0.56,-0.42,6.3
34906.0,-8.277,-0.526,-5.298,-8.406,-0.136,-5.25,-6.79,-0.28,6.44
,-8.655,-0.787,-5.233,-8.61,-0.682,-5.19,-3.71,0.98,7.21
,-8.854,-0.452,-5.427,-8.765,-0.931,-5.272,0.42,1.33,7.7
,-8.705,-0.074,-5.327,-8.957,-0.175,-5.073,2.87,1.47,7.77
34982.0,-8.538,0.828,-5.384,-8.82,0.079,-5.291,12.11,3.78,7.0
,-8.102,0.675,-5.583,-8.524,0.213,-5.147,7.07,4.83,6.23
,-8.612,0.144,-5.272,-8.349,0.108,-5.087,6.16,6.58,5.46
,-8.875,-0.06,-5.293,-8.442,0.208,-5.142,8.12,7.28,4.69
35058.0,-8.622,0.067,-5.011,-8.871,0.835,-5.15,4.62,5.6,3.78
,-8.784,0.177,-5.016,-8.971,1.003,-5.121,3.71,5.46,3.57
,-8.847,0.407,-5.054,-8.854,1.043,-5.293,3.15,5.6,3.15
,-8.909,0.503,-5.027,-8.751,0.883,-5.054,3.08,6.37,1.96
35134.0,-8.478,0.838,-5.236,-8.729,-0.302,-5.499,-2.52,4.76,-2.66
,-8.392,0.644,-5.181,-8.949,-0.397,-5.614,-2.24,4.76,-3.15
,-8.512,0.254,-5.162,-8.973,-0.586,-5.523,-2.87,4.76,-3.71
,-8.571,-0.084,-5.291,-8.681,-0.739,-5.729,-3.64,5.39,-3.92
35209.0,-8.313,-0.955,-5.607,-8.839,-1.199,-5.59,-4.83,1.89,-3.15
,-8.181,-1.115,-5.721,-8.88,-1.017,-5.19,-3.92,1.82,-2.1
,-8.433,-1.256,-5.686,-8.497,-0.581,-5.188,-2.03,1.68,-1.26
,-8.777,-1.261,-5.721,-8.021,-0.316,-5.497,0.49,1.05,-0.35
35285.0,-8.059,-0.211,-5.532,-8.392,-0.512,-5.126,-5.25,-3.29,5.11
,-8.607,-0.349,-5.36,-8.765,-0.445,-5.138,-8.19,-3.57,5.53
,-8.794,-0.325,-5.248,-8.832,-0.464,-5.336,-8.89,-3.78,5.81
,-8.44,-0.364,-5.181,-8.693,-0.445,-5.135,-7.98,-2.8,6.02
35361.0,-8.713,-0.287,-5.154,-8.421,0.57,-5.116,4.69,-4.76,7.07
,-8.643,-0.055,-5.176,-8.43,0.199,-5.068,7.35,-5.18,6.51
,-8.543,0.457,-5.13,-8.413,0.156,-5.19,7.77,-6.16,6.09
,-8.416,0.706,-5.154,-8.643,-0.012,-4.977,6.02,-6.86,6.09
35437.0,-8.497,0.151,-5.054,-8.547,0.409,-4.824,2.66,-6.02,3.36
,-8.6,0.237,-4.889,-8.753,0.074,-4.637,4.9,-4.97,2.66
,-8.835,0.328,-4.783,-8.758,0.029,-4.74,5.67,-5.39,1.75
,-8.629,0.464,-4.843,-8.713,0.136,-4.769,5.39,-5.74,1.05
35513.0,-8.784,0.141,-4.597,-8.399,0.498,-4.968,4.62,-6.3,1.61
,-8.808,0.474,-4.774,-8.48,0.392,-4.762,4.48,-7.98,1.33
,-8.593,0.852,-5.018,-8.775,0.584,-4.618,2.52,-9.31,0.84
,-8.334,0.727,-5.19,-8.938,0.668,-4.523,-0.07,-9.87,0.07
35588.0,-8.758,0.835,-4.623,-8.588,-0.057,-4.547,4.41,-6.72,-5.18
,-8.926,0.433,-4.702,-8.892,-0.232,-4.369,4.27,-5.67,-5.25
,-8.969,0.158,-4.786,-8.631,-0.072,-4.585,4.41,-6.3,-5.18
,-8.861,-0.048,-4.707,-8.349,-0.148,-4.561,4.55,-7.56,-5.25
35664.0,-8.607,-0.546,-4.623,-8.746,-1.144,-4.274,-5.67,-10.99,-3.01
,-8.954,-0.864,-4.602,-8.356,-0.905,-4.178,-5.32,-11.13,-2.66
,-8.897,-0.842,-4.618,-8.662,-0.61,-4.058,-3.43,-10.78,-2.73
,-8.837,-1.027,-4.415,-9.1,-0.227,-4.13,-1.54,-9.45,-2.24
35739.0,-9.294,0.299,-4.31,-8.693,0.574,-4.377,5.39,-10.43,2.31
,-9.141,0.412,-4.233,-8.988,0.459,-4.322,3.43,-9.24,1.61
,-8.995,0.409,-4.427,-9.043,0.555,-4.027,1.96,-8.68,0.56
,-8.648,0.428,-4.482,-8.653,0.677,-3.989,2.66,-7.98,-0.42
35815.0,-8.641,0.282,-3.9,-8.882,-0.189,-3.951,-11.06,-12.88,-4.62
,-8.827,-0.019,-3.946,-8.885,0.005,-3.872,-10.57,-12.32,-4.9
,-9.043,0.12,-4.044,-9.103,0.366,-3.766,-9.31,-11.55,-4.83
,-8.918,0.038,-3.915,-9.234,0.323,-3.831,-8.54,-9.73,-4.62
35891.0,-9.115,0.151,-3.922,-8.89,0.117,-4.255,-2.66,-3.92,-5.53
,-9.012,-0.263,-3.738,-8.902,0.227,-4.441,-1.75,-2.38,-5.39
,-9.009,-0.412,-3.903,-8.818,-0.026,-4.518,0.42,-2.52,-4.97
,-8.83,-0.239,-4.039,-8.973,-0.323,-4.223,1.33,-3.92,-4.76
35967.0,-8.928,-0.567,-3.982,-9.198,-0.785,-3.711,-5.11,-4.27,-4.62
,-8.993,-0.974,-3.814,-9.11,-0.579,-3.855,-3.99,-4.06,-4.13
,-9.04,-0.995,-3.685,-9.076,-0.302,-4.025,-1.33,-3.5,-2.73
,-9.11,-0.991,-3.558,-8.899,-0.237,-4.188,2.66,-2.87,-1.05
36042.0,-8.954,-0.002,-4.439,-9.088,0.175,-3.597,16.24,-1.4,2.24
,-8.78,0.048,-4.247,-9.27,0.278,-3.532,18.48,-0.91,2.8
,-8.811,-0.057,-3.946,-9.153,-0.065,-3.436,21.07,-0.14,3.36
,-9.036,-0.069,-3.831,-9.177,-0.522,-3.625,23.45,-0.49,3.22
36118.0,-9.016,-0.692,-3.676,-9.217,0.067,-4.044,14.21,-0.77,2.03
,-8.887,-0.581,-3.702,-9.28,0.06,-4.121,14.0,-0.49,2.1
,-8.961,-0.409,-3.86,-9.241,0.201,-4.346,13.37,-0.49,2.17
,-9.069,-0.242,-4.034,-9.005,0.447,-4.41,12.67,-0.42,1.75
36194.0,-8.914,0.459,-4.401,-9.048,0.254,-4.429,6.93,-1.26,-1.05
,-8.988,0.371,-4.305,-9.06,-0.074,-4.422,6.65,-1.47,-1.68
,-9.074,0.345,-4.109,-8.926,-0.546,-4.448,7.07,-1.89,-2.66
,-9.208,0.412,-4.362,-8.818,-1.072,-4.166,5.74,-2.8,-4.06
36270.0,-9.036,-1.278,-4.078,-9.036,-0.682,-3.4,3.71,-4.27,-3.71
,-9.15,-1.029,-4.221,-9.04,-0.754,-3.209,7.63,-4.9,-3.08
,-9.021,-0.718,-3.924,-9.244,-0.826,-3.013,10.08,-5.04,-2.1
,-9.081,-0.639,-3.783,-9.268,-0.383,-3.221,10.64,-4.69,-1.12
36346.0,-9.079,-0.079,-3.419,-9.213,-0.871,-3.558,7.21,-2.45,0.14
,-8.997,-0.055,-3.46,-9.22,-0.617,-3.719,4.13,-2.03,0.14
,-8.926,-0.294,-3.599,-9.22,-0.433,-3.63,1.26,-1.61,0.07
,-8.942,-0.737,-3.513,-9.239,-0.318,-3.738,1.33,-0.49,0.63
36421.0,-9.117,-0.421,-3.683,-9.174,-0.246,-4.231,5.46,1.26,2.1
,-9.17,-0.452,-3.601,-9.052,-0.412,-4.357,6.09,1.61,2.38
,-9.253,-0.414,-3.814,-8.966,-0.409,-4.231,6.86,1.61,2.38
,-9.182,-0.414,-4.018,-9.038,-0.136,-4.436,8.26,1.4,2.52
36497.0,-9.095,-0.084,-4.391,-8.993,-0.392,-3.819,10.71,-1.68,1.26
,-9.189,-0.117,-4.264,-9.024,-0.581,-3.534,8.47,-2.38,0.42
,-9.055,-0.285,-4.228,-9.076,-0.854,-3.25,6.93,-2.94,0.14
,-9.064,-0.392,-4.056,-9.062,-0.907,-2.967,7.49,-2.8,0.21
36572.0,-9.263,-0.651,-2.998,-9.222,-0.304,-3.355,12.53,0.56,2.24
,-9.371,-0.275,-3.178,-9.17,-0.474,-3.441,13.16,0.98,2.59
,-9.383,-0.093,-3.319,-9.194,-0.127,-3.676,11.69,0.84,2.8
,-9.316,-0.129,-3.372,-9.107,0.086,-3.786,8.19,1.05,2.59
36648.0,-9.201,-0.139,-3.941,-9.215,-0.742,-3.857,-0.91,2.17,0.28
,-9.036,-0.404,-3.951,-9.21,-0.467,-3.845,-2.38,2.24,0.07
,-9.028,-0.613,-3.781,-9.34,-0.311,-3.939,-1.82,2.52,0.35
,-9.06,-0.826,-3.668,-9.162,-0.254,-4.037,0.07,2.87,0.56
36724.0,-9.057,-0.359,-4.116,-9.091,-0.459,-3.865,1.26,2.03,1.26
,-9.064,-0.519,-4.113,-9.076,-0.292,-3.709,1.54,1.68,1.12
,-9.074,-0.479,-4.044,-9.131,-0.321,-3.589,2.38,1.61,1.33
,-9.129,-0.514,-3.979,-9.208,-0.392,-3.455,2.59,1.47,1.26
36800.0,-9.263,-0.309,-3.453,-9.055,-0.543,-3.85,-0.98,2.31,1.05
,-9.251,-0.175,-3.714,-9.141,-0.491,-3.821,-2.1,2.17,0.77
,-9.134,-0.235,-3.833,-9.196,-0.431,-3.802,-3.71,2.24,0.56
,-9.091,-0.488,-3.877,-9.258,-0.325,-3.872,-3.78,2.38,0.7
36875.0,-9.239,-0.251,-3.994,-9.076,-0.584,-3.893,0.0,2.31,0.77
,-9.057,-0.335,-4.113,-9.189,-0.373,-3.819,-0.42,2.03,0.7
,-8.964,-0.464,-4.142,-9.237,-0.201,-3.685,-0.35,2.03,0.84
,-8.997,-0.553,-4.044,-9.227,0.031,-3.74,1.05,2.17,1.19
36951.0,-9.119,0.041,-3.764,-9.191,-0.651,-3.91,2.24,1.96,0.49
,-9.067,-0.165,-3.826,-9.143,-0.512,-3.821,-0.21,2.31,0.07
,-9.081,-0.457,-3.845,-9.021,-0.299,-3.735,-0.91,2.38,0.07
,-9.172,-0.641,-3.934,-9.112,-0.251,-3.632,0.42,2.38,0.21
37027.0,-9.155,-0.388,-3.735,-9.028,-0.443,-3.917,-0.28,2.73,0.84
,-9.134,-0.409,-3.759,-9.048,-0.357,-3.86,-0.84,2.73,0.7
,-9.15,-0.431,-3.865,-9.083,-0.373,-3.841,-0.7,2.45,0.7
,-9.079,-0.517,-3.948,-9.115,-0.416,-3.924,-0.07,2.52,1.05
37103.0,-9.141,-0.309,-4.101,-8.997,-0.471,-4.334,0.7,2.17,1.12
,-9.091,-0.28,-4.212,-9.06,-0.45,-4.226,0.28,1.75,1.05
,-9.012,-0.313,-4.374,-9.136,-0.335,-4.046,0.07,1.33,1.19
,-8.966,-0.361,-4.444,-9.076,-0.23,-3.893,0.35,0.7,1.4
37178.0,-9.122,-0.208,-3.735,-9.165,-0.524,-3.802,3.64,0.0,1.89
,-9.225,-0.084,-3.764,-9.031,-0.56,-3.649,2.38,-0.07,1.54
,-9.172,-0.266,-3.781,-9.06,-0.414,-3.515,0.28,-0.28,1.26
,-9.15,-0.452,-3.79,-9.229,-0.132,-3.522,-0.63,-0.56,1.05
37254.0,-9.215,0.012,-3.553,-9.04,-0.474,-3.738,1.68,1.26,1.05
,-9.313,0.115,-3.597,-9.11,-0.505,-3.46,0.07,1.54,0.84
,-9.215,-0.034,-3.807,-9.237,-0.445,-3.463,-2.24,1.26,0.28
,-8.976,-0.194,-3.845,-9.229,-0.397,-3.498,-3.36,1.47,0.14
37330.0,-9.131,-0.369,-3.589,-9.253,-0.558,-3.396,-5.11,3.15,-0.35
,-8.971,-0.598,-3.57,-9.349,-0.309,-3.283,-6.72,3.57,0.21
,-8.969,-0.821,-3.666,-9.488,-0.069,-3.841,-6.37,4.48,1.12
,-9.026,-0.907,-3.36,-9.012,0.01,-4.188,-3.5,5.46,1.89
37405.0,-8.957,-0.426,-4.338,-9.093,0.103,-3.12,-7.63,3.57,2.1
,-8.837,-0.646,-4.221,-9.251,0.615,-3.037,-7.91,3.22,2.66
,-8.715,-0.558,-4.001,-9.433,1.108,-3.123,-2.8,4.13,3.57
,-8.732,-0.369,-3.348,-9.483,1.218,-4.087,3.15,5.88,3.71
37481.0,-9.038,0.313,-4.767,-8.952,-0.275,-4.271,-14.7,3.99,-1.19
,-8.662,-0.905,-4.3,-9.069,0.091,-4.427,-18.06,5.67,-0.21
,-8.799,-1.429,-4.154,-9.146,-0.017,-4.042,-11.55,7.0,0.49
,-8.713,-0.981,-4.255,-9.191,-0.239,-4.13,-3.29,6.93,-0.14
37557.0,-8.827,-0.706,-3.75,-9.462,-0.067,-3.403,0.35,6.09,2.59
,-8.868,-0.622,-3.455,-9.222,0.292,-3.125,7.07,7.56,3.5
,-8.856,-0.421,-3.506,-9.206,0.347,-3.561,10.15,7.77,2.59
,-9.294,-0.366,-3.484,-9.11,0.488,-4.348,11.13,8.05,1.89
37633.0,-9.072,0.586,-5.109,-8.971,-0.761,-4.037,-8.4,2.59,-1.05
,-8.794,0.163,-5.31,-9.268,-0.335,-3.946,-12.74,2.66,-0.98
,-8.349,-0.426,-5.116,-9.229,-0.065,-3.798,-13.09,4.34,-0.91
,-8.469,-0.928,-4.444,-9.072,0.002,-3.824,-7.77,6.3,-0.91
37708.0,-9.117,-0.39,-3.242,-8.581,-0.347,-4.994,4.13,7.84,0.49
,-9.421,-0.366,-3.372,-7.985,-1.548,-4.8,5.04,7.91,0.49
,-9.174,-0.036,-4.202,-8.256,-2.498,-4.19,5.18,6.51,-0.21
,-9.194,0.139,-4.573,-8.832,-2.472,-3.927,3.36,4.62,-0.56
37784.0,-9.237,-1.771,-4.066,-8.6,0.019,-3.989,19.25,7.63,8.4
,-9.71,-0.861,-4.164,-8.502,0.452,-4.049,23.87,6.23,8.26
,-9.438,-0.242,-4.369,-8.892,0.821,-3.867,21.84,5.39,8.26
,-8.832,-0.134,-4.18,-9.311,1.015,-3.857,16.94,5.95,8.82
37860.0,-9.356,0.5,-3.877,-8.775,-0.01,-4.243,3.92,7.7,5.81
,-9.158,0.122,-4.08,-8.966,0.074,-4.267,2.1,7.63,6.23
,-8.775,-0.124,-4.341,-9.261,0.433,-4.381,3.57,8.26,6.93
,-8.717,-0.093,-4.336,-9.201,0.629,-4.511,8.26,9.03,7.07
37936.0,-8.942,0.878,-4.212,-8.813,-0.445,-3.764,11.9,10.29,-0.14
,-8.722,1.175,-4.36,-9.282,-1.156,-3.728,7.7,9.66,-1.68
,-8.55,1.187,-4.247,-9.371,-1.208,-3.972,1.12,9.03,-3.22
,-8.509,0.62,-4.142,-9.241,-1.0,-4.35,-6.37,9.31,-3.85
38011.0,-8.861,-0.409,-4.659,-8.614,0.452,-4.819,3.78,8.54,0.07
,-8.504,0.129,-5.068,-8.99,0.426,-4.35,5.04,7.07,0.42
,-8.411,0.459,-5.262,-9.045,0.345,-4.03,3.36,5.95,-0.14
,-8.605,0.505,-5.085,-8.997,0.045,-3.848,0.91,6.09,-1.33
38087.0,-8.815,-0.342,-4.07,-8.638,0.428,-4.898,-6.23,6.51,-5.46
,-8.593,-0.835,-4.235,-8.251,0.988,-4.882,-5.11,7.42,-4.48
