session_id,Timestamp,AccX,AccY,AccZ,GyroX,GyroY,GyroZ,MagnX,MagnY,MagnZ,AccX_corr,GyroX_corr,MagnX_corr,AccY_corr,GyroY_corr,MagnY_corr,AccZ_corr,GyroZ_corr,MagnZ_corr,AccNorm,GyroNorm,AccNorm_filt,GyroNorm_filt
H2_walk_slow_20251205_052416,234646.0,-9.397,1.244,-3.118,-9.311,1.285,-3.154,2.94,1.26,0.91,0.0898192307692316,0.1792788461538457,0.3393653846153848,0.027203846153845967,0.07215961538461535,-0.12357692307692303,-0.528026923076923,-0.5677999999999996,0.13057692307692303,0.5363021302918919,0.5997872579262663,0.52032616007483,0.5311897549252408
H2_walk_slow_20251205_052416,,-9.359,1.11,-3.118,-9.34,1.259,-3.111,2.73,1.19,0.91,0.12781923076923185,0.1502788461538458,0.12936538461538483,-0.10679615384615393,0.04615961538461533,-0.1935769230769231,-0.528026923076923,-0.5247999999999999,0.13057692307692303,0.5536746388673156,0.5478407448280812,0.5230055837586663,0.5323440188421887
H2_walk_slow_20251205_052416,,-9.344,1.211,-3.084,-9.354,1.17,-3.111,2.94,1.33,0.77,0.14281923076923242,0.13627884615384644,0.3393653846153848,-0.005796153846153951,-0.04284038461538464,-0.053576923076922967,-0.4940269230769232,-0.5247999999999999,-0.009423076923076978,0.5142893434651118,0.5438954517763664,0.5234427208827432,0.5337008330005096
H2_walk_slow_20251205_052416,,-9.366,1.242,-3.139,-9.375,1.043,-3.075,2.94,1.19,0.77,0.12081923076923218,0.11527884615384565,0.3393653846153848,0.025203846153845966,-0.16984038461538464,-0.1935769230769231,-0.5490269230769229,-0.4887999999999999,-0.009423076923076978,0.5627282493779117,0.5301513072858198,0.5220107849555665,0.5433715667981162
H2_walk_slow_20251205_052416,234721.0,-9.356,1.082,-3.01,-9.347,1.082,-3.063,1.96,1.26,0.77,0.13081923076923196,0.14327884615384612,-0.6406346153846152,-0.13479615384615395,-0.1308403846153845,-0.12357692307692303,-0.4200269230769229,-0.4767999999999999,-0.009423076923076978,0.4601155184736077,0.5147681750084003,0.5322509647658127,0.5464647826489513
H2_walk_slow_20251205_052416,,-9.375,1.115,-3.108,-9.323,1.196,-3.075,2.38,1.26,0.77,0.11181923076923184,0.16727884615384525,-0.22063461538461526,-0.10179615384615404,-0.016840384615384618,-0.12357692307692303,-0.5180269230769232,-0.4887999999999999,-0.009423076923076978,0.5396460787777829,0.5169054564662244,0.5396910897577768,0.5503119585264842
H2_walk_slow_20251205_052416,,-9.39,1.144,-3.063,-9.354,1.225,-3.101,2.45,1.33,0.77,0.09681923076923127,0.13627884615384644,-0.15063461538461498,-0.07279615384615412,0.012159615384615519,-0.053576923076922967,-0.4730269230769233,-0.5147999999999997,-0.009423076923076978,0.48829060344958525,0.5326713997910205,0.5475172896059753,0.5487764548487084
H2_walk_slow_20251205_052416,,-9.387,1.125,-3.041,-9.311,1.189,-3.144,2.38,1.61,0.91,0.09981923076923138,0.1792788461538457,-0.22063461538461526,-0.09179615384615403,-0.023840384615384513,0.22642307692307706,-0.45102692307692305,-0.5577999999999999,0.13057692307692303,0.4709731393960217,0.5863873366784651,0.5515238089470522,0.5473975793139177
H2_walk_slow_20251205_052416,234796.0,-9.349,1.18,-3.118,-9.296,1.156,-3.053,2.73,1.47,1.05,0.13781923076923164,0.19427884615384627,0.12936538461538483,-0.03679615384615409,-0.056840384615384654,0.08642307692307694,-0.528026923076923,-0.46679999999999966,0.27057692307692305,0.5469556918085553,0.5087999011262624,0.5483098219903295,0.549492364029155
H2_walk_slow_20251205_052416,,-9.354,1.137,-3.135,-9.351,1.141,-3.034,2.73,1.61,1.12,0.13281923076923263,0.13927884615384478,0.12936538461538483,-0.07979615384615402,-0.07184038461538456,0.22642307692307706,-0.5450269230769229,-0.44779999999999953,0.3405769230769231,0.5666239679977081,0.47443068813856504,0.5479127597639171,0.5493899692566454
H2_walk_slow_20251205_052416,,-9.273,1.153,-3.075,-9.387,1.163,-3.053,2.8,1.68,1.12,0.21381923076923215,0.1032788461538452,0.19936538461538467,-0.063796153846154,-0.049840384615384536,0.2964230769230769,-0.4850269230769233,-0.46679999999999966,0.3405769230769231,0.5338911207369682,0.48067954398068446,0.5482565420866475,0.5498079557131976
H2_walk_slow_20251205_052416,,-9.371,1.18,-3.104,-9.328,1.158,-3.063,2.87,1.96,1.12,0.1158192307692314,0.16227884615384625,0.26936538461538495,-0.03679615384615409,-0.05484038461538465,0.5764230769230769,-0.5140269230769232,-0.4767999999999999,0.3405769230769231,0.5281966762502159,0.5066360939508622,0.548350872509132,0.5487137757524632
H2_walk_slow_20251205_052416,234872.0,-9.39,1.108,-3.029,-9.32,1.163,-3.12,2.8,1.89,1.26,0.09681923076923127,0.17027884615384536,0.19936538461538467,-0.10879615384615393,-0.049840384615384536,0.5064230769230769,-0.43902692307692304,-0.5337999999999998,0.480576923076923,0.46255292208011417,0.5625134570711124,0.5449601270835168,0.5513794107809253
H2_walk_slow_20251205_052416,,-9.316,1.184,-3.12,-9.313,1.206,-3.104,3.15,2.03,1.26,0.1708192307692311,0.17727884615384504,0.5493653846153848,-0.032796153846154086,-0.006840384615384609,0.6464230769230768,-0.5300269230769232,-0.5177999999999998,0.480576923076923,0.5578380916485384,0.5473494497625122,0.541879985006432,0.5539831740021056
H2_walk_slow_20251205_052416,,-9.328,1.251,-3.094,-9.34,1.204,-3.118,2.8,2.1,1.19,0.15881923076923243,0.1502788461538458,0.19936538461538467,0.03420384615384586,-0.008840384615384611,0.716423076923077,-0.504026923076923,-0.5317999999999996,0.41057692307692295,0.5295626406198204,0.552696231217003,0.5409994452977902,0.5558083313097268
H2_walk_slow_20251205_052416,,-9.385,1.223,-3.08,-9.258,1.316,-3.226,2.24,1.96,1.12,0.10181923076923205,0.23227884615384653,-0.36063461538461494,0.00620384615384606,0.10315961538461549,0.5764230769230769,-0.4900269230769232,-0.6397999999999997,0.3405769230769231,0.5005317460479161,0.6884325737622122,0.5409793780821301,0.5602611876681869
H2_walk_slow_20251205_052416,234948.0,-9.268,1.304,-3.245,-9.347,1.132,-3.159,2.38,1.75,1.05,0.21881923076923115,0.14327884615384612,-0.22063461538461526,0.08720384615384602,-0.08084038461538468,0.36642307692307696,-0.6550269230769232,-0.5727999999999995,0.27057692307692305,0.6960938417297506,0.5959562362623118,0.5461026079069174,0.5611150912464491
H2_walk_slow_20251205_052416,,-9.38,1.316,-3.24,-9.332,1.151,-3.178,2.17,1.68,1.05,0.10681923076923105,0.1582788461538449,-0.4306346153846152,0.09920384615384603,-0.06184038461538455,0.2964230769230769,-0.6500269230769233,-0.5917999999999997,0.27057692307692305,0.6661732146211664,0.6157139484445442,0.5520684115418197,0.5599775469176471
H2_walk_slow_20251205_052416,,-9.284,1.304,-3.242,-9.373,1.129,-3.087,1.89,1.54,1.05,0.20281923076923114,0.11727884615384632,-0.7106346153846153,0.08720384615384602,-0.08384038461538457,0.156423076923077,-0.6520269230769231,-0.5007999999999999,0.27057692307692305,0.6883888868735506,0.5211373886487449,0.5574029973988953,0.5603063683436172
H2_walk_slow_20251205_052416,,-9.313,1.156,-3.19,-9.371,1.173,-3.092,1.61,1.61,0.91,0.17381923076923123,0.11927884615384521,-0.9906346153846151,-0.06079615384615411,-0.03984038461538453,0.22642307692307706,-0.6000269230769231,-0.5057999999999998,0.13057692307692303,0.62764767642751,0.5211989441528966,0.558802962399625,0.5620542562352919
H2_walk_slow_20251205_052416,235024.0,-9.347,1.17,-3.051,-9.34,1.163,-3.156,2.31,1.47,1.05,0.1398192307692323,0.1502788461538458,-0.2906346153846151,-0.0467961538461541,-0.049840384615384536,0.08642307692307694,-0.4610269230769233,-0.5697999999999999,0.27057692307692305,0.48403008285587795,0.5913880583339002,0.5605397583931148,0.5671966678418591
H2_walk_slow_20251205_052416,,-9.332,1.187,-3.106,-9.27,1.225,-3.087,2.52,1.61,1.12,0.1548192307692311,0.22027884615384608,-0.08063461538461514,-0.029796153846153972,0.012159615384615519,0.22642307692307706,-0.516026923076923,-0.5007999999999999,0.3405769230769231,0.539574453009255,0.5472396790339417,0.5636034276917381,0.5647844797214382
H2_walk_slow_20251205_052416,,-9.306,1.165,-3.113,-9.311,1.266,-3.113,2.38,1.61,1.19,0.18081923076923268,0.1792788461538457,-0.22063461538461526,-0.05179615384615399,0.053159615384615444,0.22642307692307706,-0.5230269230769231,-0.5267999999999997,0.41057692307692295,0.555819753186719,0.559003657757348,0.5619148185242478,0.5649124819732196
H2_walk_slow_20251205_052416,,-9.344,1.175,-3.12,-9.318,1.237,-3.08,2.52,1.54,1.33,0.14281923076923242,0.17227884615384603,-0.08063461538461514,-0.04179615384615398,0.02415961538461553,0.156423076923077,-0.5300269230769232,-0.4937999999999998,0.5505769230769231,0.5505204722262719,0.5235476366555701,0.5640134645902172,0.5690160403902994
H2_walk_slow_20251205_052416,235099.0,-9.361,1.173,-3.034,-9.349,1.201,-3.185,1.75,1.61,1.12,0.12581923076923118,0.14127884615384545,-0.8506346153846152,-0.043796153846153985,-0.011840384615384503,0.22642307692307706,-0.44402692307692293,-0.5987999999999998,0.3405769230769231,0.46358223686875305,0.615354651464017,0.5664052641826012,0.5778198548184335
H2_walk_slow_20251205_052416,,-9.387,1.122,-3.034,-9.335,1.237,-3.185,1.96,1.61,1.12,0.09981923076923138,0.1552788461538448,-0.6406346153846152,-0.09479615384615392,0.02415961538461553,0.22642307692307706,-0.44402692307692293,-0.5987999999999998,0.3405769230769231,0.46487643307931237,0.6190772545316148,0.5700519074324165,0.5818274078129951
H2_walk_slow_20251205_052416,,-9.328,1.161,-3.075,-9.359,1.263,-3.218,2.38,1.68,1.19,0.15881923076923243,0.13127884615384566,-0.22063461538461526,-0.055796153846153995,0.05015961538461533,0.2964230769230769,-0.4850269230769233,-0.6317999999999997,0.41057692307692295,0.5134080978672055,0.6472413479244178,0.5759126795303604,0.5821188547152872
H2_walk_slow_20251205_052416,,-9.342,1.187,-3.123,-9.316,1.187,-3.226,2.45,1.75,1.26,0.1448192307692313,0.17427884615384492,-0.15063461538461498,-0.029796153846153972,-0.025840384615384515,0.36642307692307696,-0.5330269230769233,-0.6397999999999997,0.480576923076923,0.5531528912601541,0.6636150101480423,0.578272425280774,0.5818141898467468
H2_walk_slow_20251205_052416,235175.0,-9.308,1.318,-3.204,-9.354,1.003,-3.094,2.03,1.26,0.98,0.178819230769232,0.13627884615384644,-0.5706346153846154,0.10120384615384603,-0.20984038461538468,-0.12357692307692303,-0.6140269230769233,-0.5077999999999996,0.20057692307692299,0.6474933189095815,0.5660969448111833,0.5765809442841093,0.582628854950791
H2_walk_slow_20251205_052416,,-9.232,1.402,-3.235,-9.387,1.031,-3.041,1.82,1.4,0.91,0.2548192307692325,0.1032788461538452,-0.7806346153846151,0.18520384615384589,-0.18184038461538465,0.016423076923076874,-0.645026923076923,-0.45479999999999965,0.13057692307692303,0.7178391438853718,0.5005751547369689,0.57673606757294,0.5816374805155721
H2_walk_slow_20251205_052416,,-9.363,1.292,-3.171,-9.33,1.232,-3.084,0.56,1.33,0.84,0.12381923076923229,0.16027884615384558,-2.040634615384615,0.07520384615384601,0.019159615384615414,-0.053576923076922967,-0.5810269230769229,-0.4977999999999998,0.06057692307692297,0.5988147507575714,0.5233175320836235,0.5688179456257555,0.5836335406861622
H2_walk_slow_20251205_052416,,-9.421,1.12,-3.154,-9.304,1.242,-3.116,0.21,1.12,0.98,0.06581923076923246,0.18627884615384538,-2.390634615384615,-0.09679615384615392,0.029159615384615423,-0.26357692307692293,-0.564026923076923,-0.5297999999999998,0.20057692307692299,0.5760451687967559,0.5623505416497672,0.564334295296778,0.5785563847909017
H2_walk_slow_20251205_052416,235250.0,-9.366,1.141,-3.104,-9.253,1.464,-3.156,0.35,1.26,1.33,0.12081923076923218,0.23727884615384554,-2.250634615384615,-0.07579615384615401,0.2511596153846154,-0.12357692307692303,-0.5140269230769232,-0.5697999999999999,0.5505769230769231,0.5334472992803206,0.6663741015617639,0.5569859128554946,0.5832243121375799
H2_walk_slow_20251205_052416,,-9.43,1.039,-3.108,-9.383,1.266,-3.096,0.49,1.12,1.54,0.05681923076923212,0.10727884615384653,-2.1106346153846154,-0.1777961538461541,0.053159615384615444,-0.26357692307692293,-0.5180269230769232,-0.5097999999999998,0.760576923076923,0.5506285411602245,0.5236704455475225,0.553138647813823,0.5865366858707793
H2_walk_slow_20251205_052416,,-9.347,1.072,-3.051,-9.404,0.976,-3.032,1.82,1.12,1.61,0.1398192307692323,0.08627884615384573,-0.7806346153846151,-0.14479615384615396,-0.2368403846153846,-0.26357692307692293,-0.4610269230769233,-0.44579999999999975,0.8305769230769231,0.5030518534538108,0.5121279596725823,0.5531174814159306,0.5862612909959115
H2_walk_slow_20251205_052416,,-9.268,1.393,-3.144,-9.402,0.847,-3.029,2.87,1.12,1.47,0.21881923076923115,0.0882788461538464,0.26936538461538495,0.176203846153846,-0.3658403846153846,-0.26357692307692293,-0.5540269230769233,-0.44279999999999964,0.690576923076923,0.6211887657129106,0.5811232069826386,0.5533097457029016,0.5874935106042007
H2_walk_slow_20251205_052416,235326.0,-9.395,0.924,-3.101,-9.27,1.261,-3.259,4.06,0.84,2.31,0.09181923076923226,0.22027884615384608,1.4593653846153845,-0.292796153846154,0.04815961538461533,-0.5435769230769231,-0.5110269230769231,-0.6727999999999996,1.530576923076923,0.596077910138953,0.7095787191121667,0.5532176253136923,0.5847301894792056
H2_walk_slow_20251205_052416,,-9.354,1.127,-3.192,-9.335,1.261,-3.175,4.41,0.91,2.45,0.13281923076923263,0.1552788461538448,1.809365384615385,-0.08979615384615403,0.04815961538461533,-0.473576923076923,-0.6020269230769233,-0.5887999999999995,1.6705769230769232,0.6230094007454146,0.6108324718094668,0.5514525194855762,0.5836978873560053
H2_walk_slow_20251205_052416,,-9.332,1.206,-3.185,-9.371,1.256,-3.142,3.22,0.98,2.38,0.1548192307692311,0.11927884615384521,0.619365384615385,-0.010796153846154066,0.043159615384615435,-0.40357692307692306,-0.5950269230769232,-0.5557999999999996,1.600576923076923,0.6149329966266543,0.5700910765307068,0.5501782966462655,0.5819749123993515
H2_walk_slow_20251205_052416,,-9.335,1.199,-3.19,-9.313,1.254,-3.094,2.1,0.98,2.38,0.15181923076923098,0.17727884615384504,-0.5006346153846151,-0.01779615384615396,0.04115961538461543,-0.40357692307692306,-0.6000269230769231,-0.5077999999999996,1.600576923076923,0.6191914811592911,0.5394281631804625,0.5511694284366352,0.5802134696054952
H2_walk_slow_20251205_052416,235402.0,-9.361,1.247,-3.058,-9.313,1.216,-3.132,1.54,1.05,2.73,0.12581923076923118,0.17727884615384504,-1.0606346153846151,0.03020384615384608,0.0031596153846153996,-0.333576923076923,-0.46802692307692295,-0.5457999999999998,1.950576923076923,0.485584134706539,0.5738775239221494,0.5526220008610045,0.580615090258372
H2_walk_slow_20251205_052416,,-9.351,1.187,-3.075,-9.253,1.409,-3.173,1.75,0.98,2.87,0.13581923076923097,0.23727884615384554,-0.8506346153846152,-0.029796153846153972,0.19615961538461546,-0.40357692307692306,-0.4850269230769233,-0.5867999999999998,2.090576923076923,0.5045649515575146,0.6626568384465222,0.552911943177643,0.575667101144158
H2_walk_slow_20251205_052416,,-9.402,1.12,-3.063,-9.268,1.374,-3.173,1.75,0.91,2.87,0.08481923076923259,0.22227884615384497,-0.8506346153846152,-0.09679615384615392,0.16115961538461554,-0.473576923076923,-0.4730269230769233,-0.5867999999999998,2.090576923076923,0.49022267110295314,0.6478538006976586,0.550217251407102,0.5734432015199759
H2_walk_slow_20251205_052416,,-9.361,1.144,-3.12,-9.385,1.23,-3.058,2.1,0.63,2.94,0.12581923076923118,0.10527884615384586,-0.5006346153846151,-0.07279615384615412,0.017159615384615412,-0.753576923076923,-0.5300269230769232,-0.47179999999999955,2.160576923076923,0.5495983060677541,0.48370789516776824,0.546315175879807,0.5713808422872743
H2_walk_slow_20251205_052416,235478.0,-9.366,1.122,-3.063,-9.301,1.369,-3.18,-0.63,0.98,3.01,0.12081923076923218,0.1892788461538455,-3.230634615384615,-0.09479615384615392,0.15615961538461542,-0.40357692307692306,-0.4730269230769233,-0.5937999999999999,2.2305769230769226,0.49733094340018114,0.642503499662377,0.5397846009200674,0.5689980246648678
H2_walk_slow_20251205_052416,,-9.363,1.079,-3.084,-9.318,1.318,-3.159,0.35,0.84,3.29,0.12381923076923229,0.17227884615384603,-2.250634615384615,-0.13779615384615407,0.10515961538461549,-0.5435769230769231,-0.4940269230769232,-0.5727999999999995,2.510576923076923,0.5276187853440489,0.6073206612160831,0.5359240611638929,0.5585737596614849
H2_walk_slow_20251205_052416,,-9.375,1.134,-3.053,-9.328,1.235,-3.147,1.4,0.7,3.43,0.11181923076923184,0.16227884615384625,-1.2006346153846152,-0.08279615384615413,0.022159615384615527,-0.6835769230769231,-0.46302692307692306,-0.5607999999999995,2.6505769230769234,0.483479756510675,0.5842277915873373,0.5324918515546814,0.5431646928138221
H2_walk_slow_20251205_052416,,-9.287,1.304,-3.089,-9.318,1.23,-3.139,1.82,0.77,3.64,0.19981923076923103,0.17227884615384603,-0.7806346153846151,0.08720384615384602,0.017159615384615412,-0.613576923076923,-0.4990269230769231,-0.5527999999999995,2.8605769230769234,0.5445733244704997,0.5792773888494595,0.5284978649096908,0.5304000318215969
H2_walk_slow_20251205_052416,235554.0,-9.287,1.225,-3.106,-9.301,1.244,-3.034,-0.63,0.91,3.99,0.19981923076923103,0.1892788461538455,-3.230634615384615,0.008203846153846062,0.031159615384615424,-0.473576923076923,-0.516026923076923,-0.44779999999999953,3.210576923076923,0.5534246230672789,0.48715730850747574,0.5175064838346473,0.5217437078543312
H2_walk_slow_20251205_052416,,-9.32,1.251,-3.065,-9.402,1.213,-3.075,-0.63,1.12,4.13,0.16681923076923155,0.0882788461538464,-3.230634615384615,0.03420384615384586,0.00015961538461550795,-0.26357692307692293,-0.47502692307692307,-0.4887999999999999,3.3505769230769227,0.5046277206952499,0.49670778145235994,0.5043353532376236,0.5106370261590706
H2_walk_slow_20251205_052416,,-9.375,1.24,-3.005,-9.313,1.29,-3.123,-0.84,1.19,4.2,0.11181923076923184,0.17727884615384504,-3.440634615384615,0.023203846153845964,0.07715961538461547,-0.1935769230769231,-0.415026923076923,-0.5367999999999999,3.420576923076923,0.43045244304667646,0.5705573025910197,0.4922957787318113,0.4926367276626053
H2_walk_slow_20251205_052416,,-9.402,1.161,-3.07,-9.301,1.323,-3.116,-0.49,0.84,4.41,0.08481923076923259,0.1892788461538455,-3.090634615384615,-0.055796153846153995,0.11015961538461538,-0.5435769230769231,-0.48002692307692296,-0.5297999999999998,3.630576923076923,0.4906458596289243,0.5732797418913539,0.47926698349686236,0.47943453110646456
H2_walk_slow_20251205_052416,235629.0,-9.354,1.314,-3.116,-9.299,1.39,-3.19,-0.14,0.84,5.11,0.13281923076923263,0.19127884615384616,-2.7406346153846153,0.09720384615384603,0.17715961538461533,-0.5435769230769231,-0.5260269230769232,-0.6037999999999997,4.330576923076923,0.5511749809008084,0.6576834848992114,0.4618780029471385,0.47313258746513803
H2_walk_slow_20251205_052416,,-9.375,1.318,-3.13,-9.318,1.397,-3.058,-0.28,0.91,5.18,0.11181923076923184,0.17227884615384603,-2.880634615384615,0.10120384615384603,0.18415961538461545,-0.473576923076923,-0.540026923076923,-0.47179999999999955,4.4005769230769225,0.560691391492756,0.5349672931784798,0.443299865597437,0.47388293568605266
H2_walk_slow_20251205_052416,,-9.347,1.383,-3.125,-9.332,1.29,-3.063,-0.35,0.77,5.32,0.1398192307692323,0.1582788461538449,-2.9506346153846152,0.16620384615384598,0.07715961538461547,-0.613576923076923,-0.5350269230769231,-0.4767999999999999,4.540576923076923,0.5774313328755125,0.5082755545824471,0.4324512377576268,0.47936844766461467
H2_walk_slow_20251205_052416,,-9.304,1.395,-3.151,-9.351,1.304,-3.001,-0.77,0.98,5.39,0.18281923076923157,0.13927884615384478,-3.370634615384615,0.178203846153846,0.09115961538461548,-0.40357692307692306,-0.5610269230769229,-0.4147999999999996,4.6105769230769225,0.6163851801757053,0.44695381468672696,0.423690884068486,0.4879079763244402
H2_walk_slow_20251205_052416,235705.0,-9.299,1.307,-2.965,-9.222,1.436,-2.888,-1.47,1.05,5.81,0.18781923076923235,0.2682788461538461,-4.070634615384615,0.09020384615384591,0.22315961538461537,-0.333576923076923,-0.375026923076923,-0.3017999999999996,5.030576923076922,0.42901980180434235,0.4613642739010556,0.4400765186972937,0.4979157306144335
H2_walk_slow_20251205_052416,,-9.265,1.359,-2.986,-9.296,1.364,-2.742,-1.12,0.98,6.02,0.22181923076923127,0.19427884615384627,-3.7206346153846153,0.14220384615384596,0.15115961538461553,-0.40357692307692306,-0.39602692307692333,-0.15579999999999972,5.240576923076922,0.47567113513621523,0.2913196515618105,0.4572704545072279,0.5102450876485017
H2_walk_slow_20251205_052416,,-9.277,1.4,-2.936,-9.385,1.347,-2.79,-1.19,1.19,6.09,0.2098192307692326,0.10527884615384586,-3.790634615384615,0.18320384615384588,0.1341596153846154,-0.1935769230769231,-0.34602692307692307,-0.20379999999999976,5.310576923076923,0.44420984944082154,0.2657383635225313,0.4739565332722251,0.5112576449475376
H2_walk_slow_20251205_052416,,-9.33,1.412,-2.96,-9.399,1.23,-2.754,-1.12,1.33,6.16,0.15681923076923177,0.09127884615384652,-3.7206346153846153,0.1952038461538459,0.017159615384615412,-0.053576923076922967,-0.3700269230769231,-0.16779999999999973,5.380576923076923,0.4467848883904681,0.19178925974966748,0.4905057342299783,0.5104467929376374
H2_walk_slow_20251205_052416,235781.0,-9.349,1.199,-2.757,-9.344,1.333,-2.802,-0.49,2.45,7.35,0.13781923076923164,0.14627884615384623,-3.090634615384615,-0.01779615384615396,0.12015961538461539,1.0664230769230771,-0.16702692307692324,-0.21579999999999977,6.570576923076922,0.217275945502679,0.2870635365236749,0.4891516882748894,0.5304193890620551
H2_walk_slow_20251205_052416,,-9.284,1.261,-2.776,-9.292,1.299,-2.783,0.7,3.01,7.77,0.20281923076923114,0.19827884615384583,-1.9006346153846152,0.04420384615384587,0.08615961538461536,1.6264230769230767,-0.18602692307692292,-0.19679999999999964,6.990576923076922,0.27873937019029604,0.2923494829058625,0.48242060293299693,0.5616250046456173
H2_walk_slow_20251205_052416,,-9.306,1.33,-2.776,-9.349,1.278,-2.771,1.19,3.29,7.98,0.18081923076923268,0.14127884615384545,-1.4106346153846152,0.11320384615384604,0.06515961538461545,1.906423076923077,-0.18602692307692292,-0.18479999999999963,7.200576923076923,0.2830489729878348,0.24157095820407057,0.48234992682041666,0.6024009510919207
H2_walk_slow_20251205_052416,,-9.402,1.347,-2.828,-9.306,1.297,-2.761,1.4,3.36,8.19,0.08481923076923259,0.1842788461538465,-1.2006346153846152,0.13020384615384595,0.08415961538461536,1.9764230769230768,-0.23802692307692297,-0.17479999999999984,7.410576923076922,0.2842607246367428,0.2675753613498062,0.4926506512744261,0.6425369081897637
H2_walk_slow_20251205_052416,235857.0,-9.347,1.225,-2.673,-9.208,1.362,-2.335,3.71,5.11,9.8,0.1398192307692323,0.28227884615384546,1.1093653846153848,0.008203846153846062,0.14915961538461553,3.7264230769230773,-0.08302692307692316,0.2512000000000003,9.020576923076923,0.16281950233383324,0.40624054185621716,0.5310077057284242,0.6710172758540804
H2_walk_slow_20251205_052416,,-9.359,1.23,-2.635,-9.208,1.421,-2.151,4.62,5.74,10.29,0.12781923076923185,0.28227884615384546,2.019365384615385,0.013203846153845955,0.20815961538461547,4.356423076923077,-0.04502692307692291,0.4352000000000005,9.510576923076922,0.13615991006705208,0.5589372169242426,0.5614604164843996,0.703402893854457
H2_walk_slow_20251205_052416,,-9.289,1.23,-2.544,-9.22,1.464,-1.972,5.67,6.44,10.64,0.19781923076923214,0.270278846153845,3.0693653846153848,0.013203846153845955,0.2511596153846154,5.056423076923077,0.04597307692307684,0.6142000000000003,9.860576923076923,0.20351981087147336,0.7165008353647623,0.5822365615851702,0.7373859917255582
H2_walk_slow_20251205_052416,,-9.256,1.278,-2.45,-9.225,1.472,-1.783,6.58,7.21,10.92,0.2308192307692316,0.265278846153846,3.979365384615385,0.061203846153846,0.2591596153846154,5.826423076923077,0.1399730769230767,0.8032000000000004,10.140576923076923,0.2767957556398526,0.8846845836019854,0.6116811845318615,0.7720428678240171
H2_walk_slow_20251205_052416,235932.0,-9.268,1.445,-1.73,-9.258,1.754,-1.895,9.38,14.42,12.6,0.21881923076923115,0.23227884615384653,6.779365384615385,0.22820384615384603,0.5411596153846154,13.036423076923077,0.8599730769230769,0.6912000000000003,11.820576923076922,0.9162491714519532,0.9080554122374843,0.654176776055339,0.8134037272977134
H2_walk_slow_20251205_052416,,-9.363,1.481,-1.637,-9.239,1.728,-2.022,10.43,15.82,12.74,0.12381923076923229,0.2512788461538449,7.829365384615384,0.26420384615384607,0.5151596153846154,14.436423076923077,0.9529730769230769,0.5642000000000005,11.960576923076923,0.9966406371260437,0.8042711780535425,0.6995483266362079,0.8464948672012571
H2_walk_slow_20251205_052416,,-9.45,1.536,-1.716,-9.299,1.665,-2.132,11.48,17.43,13.02,0.03681923076923255,0.19127884615384616,8.879365384615385,0.319203846153846,0.45215961538461547,16.046423076923077,0.8739730769230769,0.45420000000000016,12.240576923076922,0.9311689912901077,0.6688299894373085,0.7454825755491874,0.8833706133960393
H2_walk_slow_20251205_052416,,-9.323,1.651,-1.752,-9.261,1.61,-2.221,12.11,19.11,13.16,0.16381923076923144,0.22927884615384642,9.509365384615384,0.434203846153846,0.3971596153846155,17.726423076923076,0.8379730769230769,0.3652000000000002,12.380576923076923,0.9578980102456338,0.5862385089586789,0.7909238461853925,0.9273102168518446
H2_walk_slow_20251205_052416,236008.0,-9.273,1.46,-2.28,-9.777,1.744,-3.51,10.08,27.93,14.84,0.21381923076923215,-0.2867211538461536,7.4793653846153845,0.24320384615384594,0.5311596153846154,26.546423076923077,0.3099730769230771,-0.9237999999999995,14.060576923076923,0.4482745616783642,1.1035152908221986,0.8583669130724416,1.076145052371953
H2_walk_slow_20251205_052416,,-9.22,1.472,-2.606,-9.785,1.993,-3.699,10.92,28.98,15.54,0.2668192307692312,-0.2947211538461545,8.319365384615384,0.25520384615384595,0.7801596153846155,27.596423076923077,-0.016026923076922994,-1.1127999999999996,14.760576923076922,0.369565105581295,1.3906233940220762,0.9623223213057535,1.2331686179768027
H2_walk_slow_20251205_052416,,-9.404,1.567,-3.008,-9.797,2.036,-3.86,11.62,30.03,16.03,0.08281923076923192,-0.30672115384615495,9.019365384615384,0.3502038461538459,0.8231596153846155,28.646423076923078,-0.41802692307692313,-1.2737999999999996,15.250576923076924,0.5515870441401916,1.5473319161113634,1.0916826425226096,1.381185613454694
H2_walk_slow_20251205_052416,,-9.576,1.596,-3.257,-9.842,2.156,-3.752,11.2,31.01,16.45,-0.08918076923076868,-0.3517211538461549,8.599365384615384,0.37920384615384606,0.9431596153846156,29.62642307692308,-0.6670269230769232,-1.1657999999999995,15.670576923076922,0.772446556499496,1.5402426659962791,1.2243411591331665,1.5003770187933863
H2_walk_slow_20251205_052416,236083.0,-9.801,2.249,-3.525,-10.345,2.204,-2.663,0.21,40.11,18.2,-0.3141807692307683,-0.854721153846155,-2.390634615384615,1.032203846153846,0.9911596153846156,38.726423076923076,-0.935026923076923,-0.07679999999999954,17.420576923076922,1.4277358588506237,1.3110468618632523,1.317792267306108,1.56397960225355
H2_walk_slow_20251205_052416,,-9.768,2.312,-3.195,-10.361,2.328,-2.623,-2.24,41.86,17.78,-0.28118076923076885,-0.870721153846155,-4.840634615384616,1.0952038461538458,1.1151596153846153,40.476423076923076,-0.605026923076923,-0.036799999999999944,17.000576923076924,1.2824163392842873,1.4153058099011475,1.3985724756235338,1.6258101616389027
H2_walk_slow_20251205_052416,,-9.859,2.221,-2.8,-10.684,2.175,-2.429,-4.2,44.03,17.43,-0.37218076923076815,-1.1937211538461536,-6.800634615384615,1.004203846153846,0.9621596153846153,42.64642307692308,-0.21002692307692294,0.15720000000000045,16.650576923076922,1.0913547535208445,1.54124402954784,1.4816527879883923,1.6839285963887956
H2_walk_slow_20251205_052416,,-10.507,2.063,-2.544,-10.536,2.197,-2.575,-3.08,45.43,17.64,-1.0201807692307678,-1.045721153846154,-5.680634615384616,0.8462038461538461,0.9841596153846155,44.04642307692308,0.04597307692307684,0.011200000000000099,16.860576923076923,1.326251588106728,1.4360460717384125,1.5573881909978686,1.736221860699783
H2_walk_slow_20251205_052416,236159.0,-10.577,2.496,-2.663,-10.368,2.178,-3.484,3.29,54.46,18.76,-1.0901807692307681,-0.8777211538461547,0.6893653846153849,1.279203846153846,0.9651596153846154,53.07642307692308,-0.07302692307692293,-0.8977999999999997,17.980576923076924,1.6823167124859293,1.5836579008985505,1.625470068869006,1.7784056390348668
H2_walk_slow_20251205_052416,,-10.534,2.642,-2.903,-10.407,1.747,-3.35,3.43,55.72,19.25,-1.0471807692307689,-0.9167211538461544,0.829365384615385,1.4252038461538459,0.5341596153846155,54.336423076923076,-0.31302692307692315,-0.7637999999999998,18.470576923076923,1.7960454952782978,1.3073234521788648,1.6936372866928744,1.8067380994090745
H2_walk_slow_20251205_052416,,-10.352,2.532,-2.986,-10.055,1.359,-3.881,2.66,56.14,18.34,-0.8651807692307685,-0.5647211538461541,0.059365384615384986,1.315203846153846,0.14615961538461542,54.75642307692308,-0.39602692307692333,-1.2947999999999995,17.560576923076923,1.623310273541811,1.4201336749653917,1.7390574163663557,1.8326516666274044
H2_walk_slow_20251205_052416,,-10.368,2.458,-3.245,-9.397,0.79,-3.953,3.01,56.14,17.71,-0.8811807692307685,0.09327884615384541,0.40936538461538463,1.2412038461538462,-0.42284038461538453,54.75642307692308,-0.6550269230769232,-1.3667999999999996,16.930576923076924,1.6571441716775432,1.4337493414127442,1.7765962122052388,1.8584569964957274
H2_walk_slow_20251205_052416,236235.0,-8.667,0.651,-4.549,-7.82,2.529,-6.133,22.19,35.28,10.22,0.819819230769232,1.6702788461538454,19.589365384615387,-0.565796153846154,1.3161596153846153,33.89642307692308,-1.9590269230769235,-3.5467999999999997,9.440576923076923,2.1977295885040986,4.1354440870453555,1.7942737719165867,1.8701321894608351
H2_walk_slow_20251205_052416,,-8.038,0.677,-5.334,-7.918,3.18,-6.04,31.15,33.81,8.68,1.4488192307692316,1.5722788461538455,28.549365384615385,-0.539796153846154,1.9671596153846156,32.42642307692308,-2.7440269230769228,-3.4537999999999998,7.9005769230769225,3.149625502456578,4.274401965475757,1.8045225218436054,1.886519245277659
H2_walk_slow_20251205_052416,,-7.901,1.173,-5.8,-8.16,3.714,-5.599,36.82,34.09,7.14,1.585819230769232,1.3302788461538455,34.21936538461539,-0.043796153846153985,2.5011596153846156,32.70642307692308,-3.210026923076923,-3.0128,6.3605769230769225,3.5806442971409393,4.135505418948853,1.8289548138416198,1.8876444573032223
H2_walk_slow_20251205_052416,,-7.918,1.914,-5.899,-8.768,3.568,-4.917,37.73,32.69,5.32,1.5688192307692317,0.722278846153845,35.12936538461538,0.6972038461538459,2.3551596153846157,31.306423076923075,-3.309026923076923,-2.3307999999999995,4.540576923076923,3.7278608020647725,3.391326021711852,1.8534040700463448,1.8809759979136702
H2_walk_slow_20251205_052416,236311.0,-8.954,3.044,-4.523,-8.545,1.577,-4.188,-11.27,4.55,-7.28,0.5328192307692312,0.9452788461538457,-13.870634615384615,1.827203846153846,0.3641596153846154,3.166423076923077,-1.9330269230769228,-1.6017999999999994,-8.059423076923077,2.7127777854843105,1.8952381281683353,1.8769819831151981,1.8472934081442924
H2_walk_slow_20251205_052416,,-8.607,2.257,-4.547,-8.641,1.642,-4.202,-18.06,-3.57,-8.61,0.8798192307692325,0.8492788461538456,-20.660634615384613,1.040203846153846,0.42915961538461533,-4.953576923076923,-1.9570269230769228,-1.6157999999999997,-9.389423076923077,2.3845461408898228,1.8751699053689714,1.886620743875504,1.81417006906623
H2_walk_slow_20251205_052416,,-8.344,1.711,-4.551,-8.569,1.718,-4.19,-19.11,-11.13,-11.13,1.1428192307692324,0.9212788461538448,-21.710634615384613,0.49420384615384605,0.5051596153846154,-12.513576923076924,-1.9610269230769233,-1.6038000000000001,-11.909423076923078,2.322907623820151,1.917319845353428,1.8639496973549181,1.7962020492165693
H2_walk_slow_20251205_052416,,-8.368,1.472,-4.355,-8.543,1.874,-4.118,-15.82,-18.48,-14.63,1.1188192307692315,0.9472788461538464,-18.420634615384614,0.25520384615384595,0.6611596153846155,-19.863576923076923,-1.7650269230769235,-1.5318,-15.409423076923078,2.105280388313434,1.9185620890099166,1.8448452945087215,1.7779203453005268
H2_walk_slow_20251205_052416,236387.0,-8.641,2.077,-4.152,-8.981,2.481,-3.778,5.95,-58.52,-24.57,0.8458192307692318,0.5092788461538458,3.349365384615385,0.8602038461538459,1.2681596153846153,-59.903576923076926,-1.5620269230769233,-1.1917999999999997,-25.349423076923078,1.9736486355210456,1.8132790720769507,1.8406994704682744,1.7951280699446939
H2_walk_slow_20251205_052416,,-8.725,2.285,-4.164,-8.966,2.326,-3.642,7.0,-65.38,-25.62,0.7618192307692322,0.5242788461538463,4.399365384615384,1.0682038461538461,1.1131596153846155,-66.76357692307693,-1.5740269230769228,-1.0557999999999996,-26.399423076923078,2.0491434190604374,1.6213285533313821,1.839449804048144,1.8239626965575577
H2_walk_slow_20251205_052416,,-8.942,2.424,-4.216,-8.921,2.221,-3.664,6.58,-72.45,-26.46,0.5448192307692317,0.5692788461538463,3.979365384615385,1.207203846153846,1.0081596153846155,-73.83357692307692,-1.6260269230769233,-1.0777999999999999,-27.239423076923078,2.097172542962458,1.5818081599140617,1.8375274487929913,1.85758197955208
H2_walk_slow_20251205_052416,,-8.938,2.513,-3.972,-8.873,2.07,-3.616,5.04,-79.59,-27.3,0.5488192307692312,0.6172788461538463,2.439365384615385,1.2962038461538459,0.8571596153846153,-80.97357692307693,-1.382026923076923,-1.0297999999999998,-28.079423076923078,1.9726493289370062,1.4752097546299392,1.8424697267005579,1.9027531679869698
H2_walk_slow_20251205_052416,236462.0,-8.957,2.005,-3.606,-9.232,1.924,-3.197,1.12,-107.24,-28.7,0.5298192307692311,0.25827884615384633,-1.480634615384615,0.7882038461538459,0.7111596153846154,-108.62357692307691,-1.016026923076923,-0.6107999999999998,-29.479423076923077,1.390785543785157,0.972385006530107,1.880335712987708,1.9799737628518712
H2_walk_slow_20251205_052416,,-9.095,1.984,-3.46,-9.189,2.032,-3.099,2.59,-110.25,-28.0,0.3918192307692312,0.3012788461538456,-0.010634615384615298,0.767203846153846,0.8191596153846155,-111.63357692307693,-0.8700269230769231,-0.5127999999999999,-28.779423076923077,1.2243655083481175,1.0123019601960985,1.9278329694208156,2.0514407922024223
H2_walk_slow_20251205_052416,,-9.246,1.917,-3.381,-9.143,2.213,-2.989,4.06,-113.19,-27.16,0.2408192307692314,0.34727884615384497,1.4593653846153845,0.700203846153846,1.0001596153846155,-114.57357692307693,-0.7910269230769229,-0.4027999999999996,-27.939423076923077,1.0835141536267383,1.1327708034868516,1.9620276906421397,2.007737122503543
H2_walk_slow_20251205_052416,,-9.215,1.869,-3.305,-9.194,2.362,-2.857,5.88,-115.64,-26.11,0.271819230769232,0.2962788461538448,3.2793653846153847,0.652203846153846,1.1491596153846155,-117.02357692307692,-0.7150269230769233,-0.27079999999999993,-26.889423076923077,1.0052457669041432,1.2172434498937226,1.9613367700767061,1.9540219097964135
H2_walk_slow_20251205_052416,236538.0,-9.328,2.362,-2.73,-9.227,1.74,-2.264,5.39,-121.24,-20.93,0.15881923076923243,0.26327884615384534,2.7893653846153845,1.145203846153846,0.5271596153846154,-122.62357692307691,-0.1400269230769231,0.3222000000000005,-21.709423076923077,1.1646127839303857,0.6715845821075378,1.934751449343838,1.8807861774443815
H2_walk_slow_20251205_052416,,-9.402,2.235,-2.642,-8.985,1.541,-2.273,3.01,-122.08,-19.95,0.08481923076923259,0.5052788461538462,0.40936538461538463,1.0182038461538458,0.32815961538461536,-123.46357692307691,-0.052026923076923026,0.31320000000000014,-20.729423076923077,1.0230543362674442,0.6790358499666574,1.8974580549671454,1.8343321834137225
H2_walk_slow_20251205_052416,,-9.318,2.036,-2.534,-8.787,1.393,-2.156,0.49,-122.85,-19.04,0.16881923076923222,0.7032788461538448,-2.1106346153846154,0.819203846153846,0.18015961538461545,-124.23357692307692,0.05597307692307707,0.43020000000000014,-19.819423076923076,0.8382886493153812,0.8438783457720763,1.8963133944214685,1.844509777350625
H2_walk_slow_20251205_052416,,-9.105,1.886,-2.436,-8.818,1.261,-1.931,-0.84,-122.43,-18.2,0.3818192307692314,0.672278846153846,-3.440634615384615,0.6692038461538459,0.04815961538461533,-123.81357692307694,0.15397307692307693,0.6552000000000002,-18.979423076923077,0.7857018652831794,0.9399815080840372,1.8982155506319875,1.9262539384320503
H2_walk_slow_20251205_052416,236614.0,-8.995,1.39,-1.756,-8.971,1.792,-0.756,5.67,-113.54,-14.77,0.4918192307692326,0.5192788461538456,3.0693653846153848,0.17320384615384588,0.5791596153846155,-114.92357692307692,0.8339730769230769,1.8302000000000003,-15.549423076923077,0.9835633284692293,1.9886448702961839,2.111673715450414,2.0047347789001217
H2_walk_slow_20251205_052416,,-9.028,1.843,-1.555,-8.909,1.572,-0.51,7.98,-109.06,-14.14,0.45881923076923137,0.581278846153845,5.379365384615385,0.6262038461538459,0.3591596153846155,-110.44357692307693,1.034973076923077,2.0762,-14.919423076923078,1.2937602611833308,2.185746363672869,2.3678376748241923,2.063273280666841
H2_walk_slow_20251205_052416,,-9.072,2.022,-1.232,-8.911,1.412,-0.206,6.51,-103.88,-13.58,0.41481923076923266,0.5792788461538461,3.9093653846153846,0.8052038461538458,0.19915961538461535,-105.26357692307693,1.357973076923077,2.3802000000000003,-14.359423076923077,1.6323354758519626,2.45775925875613,2.5241260602457896,2.0874690206233115
H2_walk_slow_20251205_052416,,-9.095,1.984,-0.869,-8.938,1.34,-0.17,2.66,-99.75,-13.09,0.3918192307692312,0.552278846153845,0.059365384615384986,0.767203846153846,0.1271596153846155,-101.13357692307693,1.7209730769230769,2.4162000000000003,-13.869423076923077,1.9245447208750253,2.4817743514860062,2.6099513472583213,2.113627860039014
H2_walk_slow_20251205_052416,236690.0,-8.827,1.218,-0.067,-8.399,0.816,0.639,10.15,-70.7,-6.23,0.6598192307692319,1.0912788461538465,7.549365384615385,0.0012038461538459444,-0.3968403846153846,-72.08357692307692,2.5229730769230767,3.2252,-7.009423076923078,2.607825917007721,3.4278691414528293,2.6239530897209047,2.105777600679812
H2_walk_slow_20251205_052416,,-8.732,1.036,0.196,-8.67,1.139,0.601,15.82,-64.54,-4.13,0.7548192307692325,0.8202788461538457,13.219365384615385,-0.180796153846154,-0.07384038461538456,-65.92357692307692,2.785973076923077,3.1872000000000003,-4.909423076923077,2.8920728389383377,3.291892104527066,2.6113000321088506,2.094805821755683
H2_walk_slow_20251205_052416,,-8.813,0.763,0.388,-8.945,1.618,0.335,22.96,-58.38,-1.89,0.6738192307692312,0.5452788461538454,20.359365384615387,-0.453796153846154,0.40515961538461553,-59.763576923076926,2.977973076923077,2.9212000000000002,-2.669423076923077,3.0867923402585244,2.999148674874502,2.6070261402041477,2.076452074133342
H2_walk_slow_20251205_052416,,-8.648,0.663,0.376,-9.043,1.881,0.177,32.62,-52.01,0.91,0.8388192307692321,0.4472788461538464,30.019365384615384,-0.553796153846154,0.6681596153846154,-53.39357692307692,2.9659730769230768,2.7632000000000003,0.13057692307692303,3.1316615677553066,2.877806435090386,2.6074777903369455,2.0629253447879523
H2_walk_slow_20251205_052416,236765.0,-8.71,1.938,0.098,-8.354,1.086,-0.67,46.41,-2.45,9.1,0.776819230769231,1.1362788461538464,43.80936538461538,0.7212038461538459,-0.1268403846153845,-3.833576923076923,2.6879730769230767,1.9162000000000003,8.320576923076922,2.8894259580863655,2.2313763777960225,2.5956915155151603,2.0539868832051122
H2_walk_slow_20251205_052416,,-8.524,1.809,-0.074,-8.256,1.211,-0.785,42.28,7.91,8.47,0.9628192307692327,1.2342788461538454,39.67936538461539,0.5922038461538459,-0.0018403846153844938,6.526423076923077,2.515973076923077,1.8012000000000001,7.690576923076923,2.7582325482707657,2.183522176914721,2.599755057630333,2.0519521731191155
H2_walk_slow_20251205_052416,,-8.385,1.524,-0.163,-8.646,1.668,-0.651,37.31,18.41,7.49,1.101819230769232,0.8442788461538449,34.70936538461539,0.307203846153846,0.45515961538461536,17.026423076923077,2.426973076923077,1.9352000000000003,6.710576923076923,2.683016611296711,2.1598555705277933,2.5797240943915165,2.067956913160539
H2_walk_slow_20251205_052416,,-8.421,1.251,-0.402,-10.191,3.585,0.558,33.32,28.21,6.37,1.0658192307692325,-0.7007211538461551,30.719365384615386,0.03420384615384586,2.372159615384615,26.826423076923078,2.1879730769230767,3.1442000000000005,5.590576923076923,2.4340022023633154,4.00051809348604,2.561488620583463,2.0978216281442172
H2_walk_slow_20251205_052416,236841.0,-12.881,5.932,2.723,-9.421,0.426,1.292,5.88,56.0,-14.0,-3.3941807692307684,0.06927884615384627,3.2793653846153847,4.715203846153846,-0.7868403846153846,54.61642307692308,5.312973076923077,3.8782000000000005,-14.779423076923077,7.872819909099246,3.957821697523285,2.601873829764092,2.1334340327208854
H2_walk_slow_20251205_052416,,-14.771,4.659,3.498,-10.316,1.426,0.747,-20.79,51.45,-14.21,-5.284180769230769,-0.8257211538461551,-23.390634615384613,3.442203846153846,0.21315961538461536,50.06642307692308,6.0879730769230775,3.3332,-14.989423076923078,8.765543332031669,3.4405631349446186,2.6447144625057133,2.1533752730790447
H2_walk_slow_20251205_052416,,-13.187,1.273,2.18,-9.564,1.041,-0.151,-25.76,45.78,-5.88,-3.7001807692307676,-0.07372115384615441,-28.360634615384615,0.05620384615384588,-0.17184038461538464,44.39642307692308,4.769973076923077,2.4352000000000005,-6.659423076923077,6.037146656482571,2.4423683109451724,2.6739501876771774,2.1257785413775836
H2_walk_slow_20251205_052416,,-9.749,-0.407,1.362,-7.904,0.663,-1.012,-9.31,46.13,-2.38,-0.2621807692307687,1.5862788461538457,-11.910634615384616,-1.623796153846154,-0.5498403846153845,44.74642307692308,3.951973076923077,1.5742000000000003,-3.159423076923077,4.280600881386263,2.301458378139646,2.692245311521743,2.091300860973742
H2_walk_slow_20251205_052416,236916.0,-7.478,1.232,-1.168,-9.284,-0.146,-2.491,36.12,63.91,-10.64,2.008819230769232,0.20627884615384495,33.519365384615384,0.015203846153845957,-1.3588403846153845,62.52642307692307,1.421973076923077,0.09520000000000017,-11.419423076923078,2.4612178469896246,1.3777014165748134,2.676719697007421,2.0188192977151056
H2_walk_slow_20251205_052416,,-8.978,1.943,-1.206,-8.976,0.144,-2.491,30.24,70.63,-9.94,0.5088192307692321,0.5142788461538448,27.639365384615385,0.726203846153846,-1.0688403846153847,69.24642307692307,1.383973076923077,0.09520000000000017,-10.719423076923077,1.6436698310236035,1.1899435026025789,2.6487920394143765,1.943237667677009
H2_walk_slow_20251205_052416,,-10.093,1.359,-1.472,-9.725,0.794,-2.465,21.07,72.87,-8.33,-0.6061807692307681,-0.234721153846154,18.469365384615386,0.14220384615384596,-0.41884038461538453,71.48642307692307,1.117973076923077,0.12120000000000042,-9.109423076923077,1.2796643542628685,0.49518756834924005,2.585358971519498,1.828820780593618
H2_walk_slow_20251205_052416,,-9.861,0.22,-1.962,-10.069,1.05,-2.86,16.8,73.57,-8.12,-0.3741807692307688,-0.5787211538461552,14.199365384615385,-0.996796153846154,-0.16284038461538453,72.18642307692306,0.6279730769230769,-0.2737999999999996,-8.899423076923076,1.2361084118008632,0.6606069972159782,2.5010853037001204,1.7219945187343055
H2_walk_slow_20251205_052416,236992.0,-9.792,0.507,-2.673,-9.191,1.462,-3.398,23.03,67.76,-13.02,-0.305180769230768,0.2992788461538449,20.429365384615387,-0.709796153846154,0.2491596153846154,66.37642307692309,-0.08302692307692316,-0.8117999999999999,-13.799423076923077,0.777071008260312,0.9003708023330088,2.4137897865253284,1.6736483609331703
H2_walk_slow_20251205_052416,,-9.416,0.134,-2.352,-9.409,1.292,-3.745,20.93,66.99,-14.63,0.07081923076923147,0.08127884615384495,18.329365384615386,-1.0827961538461541,0.07915961538461547,65.60642307692308,0.237973076923077,-1.1587999999999998,-15.409423076923078,1.1108978618986565,1.1643409876577997,2.3418999908178617,1.6019227714507642
H2_walk_slow_20251205_052416,,-9.56,0.581,-2.52,-9.813,0.823,-3.549,22.75,65.45,-15.19,-0.07318076923076866,-0.32272115384615496,20.149365384615386,-0.6357961538461541,-0.3898403846153846,64.06642307692309,0.06997307692307686,-0.9627999999999997,-15.969423076923077,0.643807739721147,1.087707823184546,2.3071644892073415,1.5507271417306032
H2_walk_slow_20251205_052416,,-9.325,1.177,-3.113,-9.907,0.144,-3.482,23.1,62.93,-13.93,0.16181923076923255,-0.4167211538461544,20.499365384615388,-0.03979615384615398,-1.0688403846153847,61.54642307692308,-0.5230269230769231,-0.8957999999999999,-14.709423076923077,0.5489320172580632,1.4555184395422938,2.28516268016534,1.5126221980439178
H2_walk_slow_20251205_052416,237068.0,-9.481,-0.318,-3.69,-9.378,0.828,-4.31,34.09,42.07,-6.58,0.0058192307692319645,0.11227884615384554,31.48936538461539,-1.534796153846154,-0.3848403846153846,40.68642307692308,-1.100026923076923,-1.7237999999999993,-7.359423076923077,1.8883040880117206,1.7698008647654555,2.2482648099403777,1.5042920973346194
H2_walk_slow_20251205_052416,,-9.253,-0.103,-3.936,-9.658,1.12,-4.032,43.26,38.64,-6.86,0.23381923076923172,-0.16772115384615383,40.659365384615384,-1.319796153846154,-0.09284038461538446,37.25642307692308,-1.346026923076923,-1.4457999999999998,-7.6394230769230775,1.8995583165653391,1.4584537573961736,2.230777589315938,1.4198411222541312
H2_walk_slow_20251205_052416,,-9.576,0.206,-4.008,-9.792,0.842,-3.764,48.3,35.98,-6.51,-0.08918076923076868,-0.30172115384615417,45.69936538461538,-1.010796153846154,-0.3708403846153846,34.596423076923074,-1.4180269230769231,-1.1777999999999995,-7.289423076923077,1.7436921829273009,1.2711298460581988,2.0084706717296164,1.3297592948670258
H2_walk_slow_20251205_052416,,-9.593,0.495,-4.202,-9.526,0.22,-3.408,49.49,33.53,-5.95,-0.10618076923076814,-0.03572115384615415,46.88936538461539,-0.721796153846154,-0.9928403846153846,32.14642307692308,-1.612026923076923,-0.8217999999999996,-6.729423076923077,1.7694334811420267,1.289326673172988,1.7440320627203585,1.2638605751553569
H2_walk_slow_20251205_052416,237144.0,-9.514,0.05,-2.974,-9.284,0.9,-3.02,29.96,25.41,-5.04,-0.02718076923076751,0.20627884615384495,27.359365384615387,-1.166796153846154,-0.31284038461538455,24.026423076923077,-0.3840269230769233,-0.43379999999999974,-5.819423076923077,1.2286694984795883,0.5732386140315943,1.5814456223237132,1.2293695203283033
H2_walk_slow_20251205_052416,,-9.466,0.069,-2.934,-9.373,1.232,-3.089,32.83,24.57,-5.11,0.020819230769232533,0.11727884615384632,30.229365384615384,-1.147796153846154,0.019159615384615414,23.186423076923077,-0.3440269230769233,-0.5027999999999997,-5.8894230769230775,1.198425623455883,0.5166519704954813,1.4772404772438859,1.2008007422636209
H2_walk_slow_20251205_052416,,-9.344,0.318,-2.891,-9.373,1.086,-3.005,36.54,24.71,-5.11,0.14281923076923242,0.11727884615384632,33.939365384615385,-0.898796153846154,-0.1268403846153845,23.326423076923078,-0.30102692307692314,-0.4187999999999996,-5.8894230769230775,0.9585661517408772,0.453030077284672,1.4408449878838236,1.2102578823715116
H2_walk_slow_20251205_052416,,-9.428,0.605,-2.927,-9.438,0.926,-3.01,38.57,25.06,-4.97,0.05881923076923101,0.05227884615384504,35.96936538461539,-0.611796153846154,-0.2868403846153845,23.676423076923076,-0.33702692307692317,-0.4237999999999995,-5.749423076923077,0.7009574756345275,0.5144092961849336,1.4352511486701451,1.2371178403256684
H2_walk_slow_20251205_052416,237219.0,-9.677,0.483,-2.895,-9.399,-0.443,-3.12,10.99,29.82,-8.05,-0.19018076923076777,0.09127884615384652,8.389365384615385,-0.733796153846154,-1.6558403846153846,28.436423076923077,-0.30502692307692314,-0.5337999999999998,-8.829423076923078,0.8171088937139225,1.7421485720449914,1.4617513170309855,1.2964719714585757
H2_walk_slow_20251205_052416,,-9.679,-0.012,-2.807,-9.519,0.33,-3.082,5.32,29.75,-7.42,-0.19218076923076843,-0.02872115384615448,2.719365384615385,-1.228796153846154,-0.8828403846153845,28.366423076923077,-0.21702692307692306,-0.4957999999999996,-8.199423076923077,1.2625268793611752,1.0129411085478237,1.4938210806824368,1.3557842926807664
H2_walk_slow_20251205_052416,,-9.679,-0.749,-2.8,-9.751,0.605,-3.197,3.71,28.98,-6.44,-0.19218076923076843,-0.2607211538461538,1.1093653846153848,-1.9657961538461541,-0.6078403846153846,27.596423076923077,-0.21002692307692294,-0.6107999999999998,-7.219423076923078,1.9863029162128374,0.9002900050718369,1.5442155506984139,1.4167145568276356
H2_walk_slow_20251205_052416,,-9.567,-0.943,-2.919,-9.675,0.407,-3.446,7.56,28.56,-5.39,-0.08018076923076833,-0.18472115384615506,4.959365384615385,-2.159796153846154,-0.8058403846153845,27.176423076923076,-0.32902692307692316,-0.8597999999999999,-6.169423076923077,2.1861855131787298,1.1927936410609028,1.5784736925454779,1.4645023358561695
H2_walk_slow_20251205_052416,237295.0,-9.497,0.129,-3.927,-9.055,1.074,-4.475,12.11,26.11,-2.31,-0.01018076923076805,0.43527884615384593,9.509365384615384,-1.087796153846154,-0.1388403846153845,24.726423076923076,-1.3370269230769232,-1.8887999999999994,-3.089423076923077,1.7236719854476839,1.943272952086034,1.6411845060548922,1.4521884844420447
H2_walk_slow_20251205_052416,,-9.316,-0.026,-4.121,-9.112,1.046,-4.343,12.74,25.34,-1.82,0.1708192307692311,0.37827884615384555,10.139365384615385,-1.242796153846154,-0.16684038461538453,23.956423076923077,-1.5310269230769236,-1.7567999999999997,-2.599423076923077,1.9793344661278895,1.8047927413933416,1.699484886015212,1.441912022188995
H2_walk_slow_20251205_052416,,-8.971,0.239,-4.367,-9.378,0.62,-4.085,14.14,24.85,-1.75,0.5158192307692318,0.11227884615384554,11.539365384615385,-0.977796153846154,-0.5928403846153846,23.46642307692308,-1.7770269230769231,-1.4987999999999997,-2.529423076923077,2.0928400518548784,1.6156941854585463,1.6924593840203905,1.4236496099630442
H2_walk_slow_20251205_052416,,-8.969,0.694,-4.331,-9.43,0.177,-3.967,13.02,24.85,-2.24,0.5178192307692324,0.06027884615384593,10.419365384615384,-0.5227961538461541,-1.0358403846153845,23.46642307692308,-1.7410269230769235,-1.3807999999999998,-3.0194230769230774,1.8901394977909622,1.7271964224412308,1.65796471566014,1.4014384612686352
H2_walk_slow_20251205_052416,237371.0,-9.246,-0.101,-3.807,-9.552,-0.153,-3.307,-3.22,21.84,-3.64,0.2408192307692314,-0.06172115384615395,-5.820634615384615,-1.317796153846154,-1.3658403846153846,20.456423076923077,-1.217026923076923,-0.7207999999999997,-4.419423076923077,1.8098992061698032,1.545600885441776,1.6030321225572632,1.3916355675617424
H2_walk_slow_20251205_052416,,-9.134,0.074,-3.609,-9.667,-0.191,-3.24,-0.98,21.84,-3.85,0.3528192307692315,-0.17672115384615417,-3.580634615384615,-1.142796153846154,-1.4038403846153846,20.456423076923077,-1.019026923076923,-0.6537999999999999,-4.629423076923077,1.5712671093107549,1.5586701484579049,1.5499038406359587,1.385070435753063
H2_walk_slow_20251205_052416,,-9.081,0.203,-3.64,-9.514,-0.27,-3.247,0.28,21.77,-3.71,0.4058192307692323,-0.023721153846153697,-2.3206346153846154,-1.013796153846154,-1.4828403846153846,20.386423076923077,-1.0500269230769232,-0.6607999999999996,-4.489423076923077,1.5149351236279978,1.6235870593799688,1.5364778560765275,1.4042430962787031
H2_walk_slow_20251205_052416,,-9.263,0.098,-3.561,-9.083,-0.38,-3.515,0.56,22.12,-3.5,0.22381923076923194,0.40727884615384546,-2.040634615384615,-1.118796153846154,-1.5928403846153847,20.736423076923078,-0.9710269230769231,-0.9287999999999998,-4.279423076923077,1.4982300114679703,1.8883024094106575,1.5284755349243955,1.4414736647434112
H2_walk_slow_20251205_052416,237447.0,-9.153,-0.38,-3.692,-9.241,0.177,-4.324,7.91,19.74,-2.66,0.33381923076923137,0.249278846153846,5.3093653846153845,-1.596796153846154,-1.0358403846153845,18.356423076923075,-1.1020269230769233,-1.7377999999999996,-3.4394230769230774,1.9686687316447178,2.0383949778048267,1.5612244304058434,1.5180898359936623
H2_walk_slow_20251205_052416,,-9.189,-0.306,-3.96,-9.371,-0.172,-4.295,10.29,19.32,-2.45,0.2978192307692318,0.11927884615384521,7.6893653846153835,-1.522796153846154,-1.3848403846153845,17.936423076923077,-1.370026923076923,-1.7087999999999997,-3.2294230769230774,2.069922266738594,2.202727348992943,1.606184795671596,1.5928105017546448
H2_walk_slow_20251205_052416,,-9.325,-0.156,-4.154,-9.268,-0.38,-4.48,11.97,19.18,-2.17,0.16181923076923255,0.22227884615384497,9.369365384615385,-1.372796153846154,-1.5928403846153847,17.796423076923077,-1.564026923076923,-1.8938000000000001,-2.949423076923077,2.087327228675707,2.484557670151605,1.6542281711675113,1.622495792578081
H2_walk_slow_20251205_052416,,-9.299,0.069,-4.219,-9.256,-0.187,-4.53,11.27,19.32,-1.68,0.18781923076923235,0.23427884615384542,8.669365384615384,-1.147796153846154,-1.3998403846153846,17.936423076923077,-1.6290269230769234,-1.9438,-2.459423076923077,2.0016095499223217,2.4068232423996836,1.6960807207074848,1.682798810999382
H2_walk_slow_20251205_052416,237523.0,-9.301,0.464,-4.728,-9.756,0.675,-3.065,7.35,17.99,0.0,0.18581923076923168,-0.2657211538461546,4.749365384615384,-0.7527961538461541,-0.5378403846153845,16.606423076923075,-2.138026923076923,-0.47879999999999967,-0.779423076923077,2.2742888909659227,0.7675476864173041,1.718091473324982,1.7203616382703741
H2_walk_slow_20251205_052416,,-9.194,1.158,-4.633,-9.71,0.045,-2.587,3.29,19.39,-0.77,0.292819230769231,-0.2197211538461552,0.6893653846153849,-0.05879615384615411,-1.1678403846153846,18.006423076923078,-2.043026923076923,-0.0007999999999999119,-1.549423076923077,2.064741896226389,1.1883304209629977,1.7507856813828702,1.733422672806534
H2_walk_slow_20251205_052416,,-9.39,1.529,-4.264,-9.718,-0.05,-2.412,-4.97,21.0,-2.31,0.09681923076923127,-0.22772115384615432,-7.5706346153846145,0.3122038461538459,-1.2628403846153846,19.616423076923077,-1.6740269230769234,0.17420000000000035,-3.089423076923077,1.7056410361463492,1.2949781468907329,1.8428496078923982,1.7226931143515931
H2_walk_slow_20251205_052416,,-9.557,1.266,-3.589,-9.641,0.373,-2.367,-14.7,22.33,-3.99,-0.07018076923076855,-0.15072115384615437,-17.300634615384613,0.04920384615384599,-0.8398403846153846,20.946423076923075,-0.9990269230769231,0.21920000000000028,-4.769423076923077,1.0026969391988279,0.8809638913415425,1.9051107997332333,1.7376289371032057
H2_walk_slow_20251205_052416,237598.0,-9.462,0.967,-2.781,-9.189,0.663,-3.386,-10.78,29.26,-5.53,0.024819230769232092,0.3012788461538456,-13.380634615384615,-0.24979615384615406,-0.5498403846153845,27.87642307692308,-0.19102692307692326,-0.7997999999999998,-6.3094230769230775,0.3154447622525133,1.016254609678985,1.8985552091239744,1.7126432593287613
H2_walk_slow_20251205_052416,,-9.464,0.885,-2.79,-9.062,0.766,-3.518,-11.62,30.45,-4.83,0.022819230769231424,0.42827884615384626,-14.220634615384615,-0.331796153846154,-0.44684038461538456,29.066423076923076,-0.20002692307692316,-0.9317999999999995,-5.609423076923077,0.3880981511881002,1.1186332461473214,1.8794370185152547,1.676566552654428
H2_walk_slow_20251205_052416,,-9.342,0.402,-2.888,-9.277,0.538,-3.391,-10.78,31.64,-3.99,0.1448192307692313,0.2132788461538464,-13.380634615384615,-0.814796153846154,-0.6748403846153845,30.256423076923078,-0.298026923076923,-0.8047999999999997,-4.769423076923077,0.879593899934382,1.0717277876982363,1.8524685134257135,1.6425000483826306
H2_walk_slow_20251205_052416,,-9.289,0.342,-3.01,-9.273,-0.05,-3.336,-6.58,32.83,-3.01,0.19781923076923214,0.21727884615384596,-9.180634615384616,-0.874796153846154,-1.2628403846153846,31.446423076923075,-0.4200269230769229,-0.7497999999999996,-3.789423076923077,0.9903652735004503,1.484646750577887,1.8308220463093603,1.6225258351021106
H2_walk_slow_20251205_052416,237674.0,-9.351,-0.483,-3.197,-8.827,-0.191,-4.475,-1.68,39.41,-2.24,0.13581923076923097,0.6632788461538457,-4.280634615384615,-1.6997961538461541,-1.4038403846153846,38.02642307692307,-0.6070269230769232,-1.8887999999999994,-3.0194230769230774,1.8100374342585186,2.4450505297912035,1.822501147031178,1.5798119874618162
H2_walk_slow_20251205_052416,,-9.275,-0.507,-3.283,-8.856,0.117,-4.692,0.56,40.46,-1.05,0.21181923076923148,0.6342788461538458,-2.040634615384615,-1.7237961538461541,-1.0958403846153846,39.07642307692308,-0.693026923076923,-2.1058,-1.829423076923077,1.8699269725440966,2.45714660597048,1.803128972081883,1.5685612109407687
H2_walk_slow_20251205_052416,,-9.33,-0.534,-3.676,-8.815,-0.002,-4.681,3.22,40.32,0.14,0.15681923076923177,0.6752788461538461,0.619365384615385,-1.750796153846154,-1.2148403846153846,38.93642307692308,-1.0860269230769233,-2.0947999999999998,-0.639423076923077,2.066236656607725,2.513966133454332,1.7551441964103973,1.5744633632321232
H2_walk_slow_20251205_052416,,-9.079,-0.555,-4.08,-8.89,-0.223,-4.645,5.53,40.53,1.12,0.4078192307692312,0.6002788461538451,2.929365384615385,-1.7717961538461542,-1.4358403846153847,39.14642307692308,-1.4900269230769232,-2.0587999999999993,0.3405769230769231,2.350693167400483,2.580819587501661,1.6927638610501552,1.6041529884339345
H2_walk_slow_20251205_052416,237750.0,-9.16,-0.419,-4.53,-9.809,0.019,-3.999,-4.06,46.69,3.01,0.3268192307692317,-0.3187211538461536,-6.660634615384614,-1.635796153846154,-1.1938403846153847,45.306423076923075,-1.9400269230769234,-1.4127999999999998,2.2305769230769226,2.558582484267759,1.876923514117619,1.7224945739388622,1.689517396874643
H2_walk_slow_20251205_052416,,-9.689,-1.249,-4.35,-9.359,0.907,-4.082,-7.49,47.95,4.41,-0.20218076923076822,0.13127884615384566,-10.090634615384616,-2.465796153846154,-0.30584038461538454,46.56642307692308,-1.7600269230769228,-1.4957999999999996,3.630576923076923,3.0362349226838248,1.532380539001057,1.7921971417003644,1.7884664573088853
H2_walk_slow_20251205_052416,,-10.761,-2.522,-3.752,-9.567,0.17,-3.881,-7.21,47.88,7.42,-1.2741807692307674,-0.07672115384615452,-9.810634615384615,-3.738796153846154,-1.0428403846153846,46.49642307692308,-1.162026923076923,-1.2947999999999995,6.640576923076923,4.117334074695412,1.6643044322575864,1.8844864609438081,1.9646822952221301
H2_walk_slow_20251205_052416,,-10.692,-1.9,-3.924,-9.971,-0.567,-3.774,1.96,48.65,10.78,-1.2051807692307683,-0.48072115384615444,-0.6406346153846152,-3.116796153846154,-1.7798403846153845,47.266423076923076,-1.334026923076923,-1.1877999999999997,10.000576923076922,3.5981254539896086,2.1931241329352558,1.9729261776296168,2.1379689285510417
H2_walk_slow_20251205_052416,237826.0,-9.907,-0.215,-3.802,-9.536,0.699,-3.403,-3.08,60.13,13.09,-0.4201807692307682,-0.04572115384615394,-5.680634615384616,-1.431796153846154,-0.5138403846153846,58.74642307692308,-1.2120269230769232,-0.8167999999999997,12.310576923076923,1.9223946960141443,0.9660665633229989,2.1315207619543974,2.3604065939491625
H2_walk_slow_20251205_052416,,-9.631,0.577,-3.819,-9.562,0.895,-3.305,-0.63,62.86,14.14,-0.1441807692307684,-0.07172115384615374,-3.230634615384615,-0.6397961538461541,-0.31784038461538455,61.476423076923076,-1.229026923076923,-0.7187999999999999,13.360576923076923,1.3930665419642512,0.7892020489085664,2.3277006122819333,2.620876546697496
H2_walk_slow_20251205_052416,,-9.634,0.95,-3.656,-9.471,1.5,-3.18,-2.17,65.52,14.35,-0.1471807692307685,0.019278846153845564,-4.7706346153846155,-0.26679615384615407,0.28715961538461543,64.13642307692308,-1.0660269230769233,-0.5937999999999999,13.570576923076922,1.108718073841729,0.6598717743750401,2.5708657807226873,2.844373095204731
H2_walk_slow_20251205_052416,,-9.514,0.84,-3.525,-9.383,2.158,-3.005,-6.02,68.67,13.72,-0.02718076923076751,0.10727884615384653,-8.620634615384615,-0.37679615384615406,0.9451596153846153,67.28642307692309,-0.935026923076923,-0.4187999999999996,12.940576923076923,1.0084589642855721,1.0393406031643786,2.8108216077668535,3.0152574512898402
H2_walk_slow_20251205_052416,237901.0,-9.375,2.501,-2.747,-9.555,1.589,-2.929,-30.73,92.4,0.91,0.11181923076923184,-0.06472115384615407,-33.33063461538462,1.2842038461538459,0.3761596153846154,91.01642307692308,-0.157026923076923,-0.34279999999999955,0.13057692307692303,1.2985917423952609,0.5130270207323188,2.9549147078875957,3.2559032164980843
H2_walk_slow_20251205_052416,,-9.526,2.209,-2.534,-9.289,2.235,-3.795,-44.52,98.56,-3.43,-0.039180769230767964,0.20127884615384595,-47.12063461538462,0.992203846153846,1.0221596153846153,97.17642307692307,0.05597307692307707,-1.2087999999999997,-4.209423076923077,0.9945534627863081,1.595782219863427,3.097539662464913,3.4821945995744525
H2_walk_slow_20251205_052416,,-9.694,1.732,-2.13,-9.208,2.462,-4.365,-57.33,103.81,-6.93,-0.207180769230769,0.28227884615384546,-59.93063461538461,0.515203846153846,1.2491596153846156,102.42642307692307,0.459973076923077,-1.7788,-7.709423076923077,0.7210645641860732,2.191850937380046,3.2230623874374063,3.6624731896732245
H2_walk_slow_20251205_052416,,-9.749,1.541,-2.426,-8.928,2.596,-5.159,-66.78,108.5,-9.03,-0.2621807692307687,0.5622788461538448,-69.38063461538462,0.3242038461538459,1.3831596153846155,107.11642307692307,0.16397307692307672,-2.5727999999999995,-9.809423076923077,0.4480335473722983,2.9746576042400266,3.3936000247247504,3.800564270544199
H2_walk_slow_20251205_052416,237977.0,-8.959,1.761,-5.348,-9.88,1.189,-7.274,-92.54,126.07,-6.09,0.5278192307692322,-0.38972115384615513,-95.14063461538463,0.5442038461538459,-0.023840384615384513,124.68642307692306,-2.758026923076923,-4.687799999999999,-6.869423076923077,2.8603257637820945,4.70403228961003,3.5465703079030106,3.956351579455512
H2_walk_slow_20251205_052416,,-9.194,0.72,-6.36,-9.651,1.108,-7.562,-84.91,128.59,-5.11,0.292819230769231,-0.16072115384615415,-87.51063461538462,-0.49679615384615405,-0.10484038461538447,127.20642307692307,-3.7700269230769234,-4.9758,-5.8894230769230775,3.813876311721379,4.979498813689982,3.6986098056592978,4.101004813562738
H2_walk_slow_20251205_052416,,-9.476,-0.158,-7.057,-8.686,0.627,-7.842,-70.21,132.79,-6.02,0.01081923076923097,0.8042788461538457,-72.81063461538461,-1.374796153846154,-0.5858403846153846,131.40642307692306,-4.467026923076924,-5.255799999999999,-6.799423076923077,4.673811191295462,5.349159472161664,3.8637116424085245,4.272291096667699
H2_walk_slow_20251205_052416,,-9.457,1.007,-6.949,-7.753,0.179,-7.909,-57.75,133.91,-6.65,0.029819230769231098,1.7372788461538455,-60.350634615384614,-0.20979615384615413,-1.0338403846153845,132.52642307692307,-4.359026923076923,-5.322799999999999,-7.429423076923078,4.364174530057406,5.693782887514707,4.006498924025147,4.467993427609732
H2_walk_slow_20251205_052416,238052.0,-7.746,-0.16,-7.98,-6.856,2.453,-9.038,-45.15,93.52,-4.62,1.7408192307692314,2.6342788461538458,-47.75063461538461,-1.376796153846154,1.2401596153846153,92.13642307692308,-5.390026923076924,-6.4518,-5.399423076923077,5.829100228590655,7.078357447241879,4.107870110949872,4.624972878780224
H2_walk_slow_20251205_052416,,-7.71,-0.44,-8.189,-6.296,3.166,-9.261,-33.67,84.0,-5.04,1.7768192307692319,3.1942788461538454,-36.270634615384616,-1.656796153846154,1.9531596153846154,82.61642307692307,-5.599026923076924,-6.674799999999999,-5.819423076923077,6.103373047714765,7.653182662798224,4.211486024731958,4.749908352941708
H2_walk_slow_20251205_052416,,-7.631,0.428,-8.914,-6.552,3.175,-8.428,-22.12,74.2,-5.95,1.8558192307692316,2.938278846153846,-24.720634615384615,-0.7887961538461541,1.9621596153846153,72.81642307692309,-6.324026923076923,-5.841800000000001,-6.729423076923077,6.637739141712122,6.827164870867078,4.365894081145817,4.911058683053797
H2_walk_slow_20251205_052416,,-7.425,1.33,-8.887,-7.485,3.166,-7.392,-19.04,64.26,-8.33,2.061819230769232,2.0052788461538453,-21.640634615384613,0.11320384615384604,1.9531596153846154,62.87642307692308,-6.297026923076924,-4.8058,-9.109423076923077,6.6269496543364115,5.561626504360166,4.527671662716406,5.0611344031427885
H2_walk_slow_20251205_052416,238128.0,-8.196,2.589,-6.815,-4.85,0.074,-8.143,-55.37,8.33,-23.94,1.290819230769232,4.640278846153846,-57.97063461538461,1.372203846153846,-1.1388403846153845,6.946423076923077,-4.225026923076923,-5.556800000000001,-24.71942307692308,4.6260145030736695,7.328517683112581,4.650422966622257,5.1867831273509015
H2_walk_slow_20251205_052416,,-7.825,2.106,-6.894,-4.779,0.12,-8.145,-55.44,-14.28,-21.49,1.6618192307692317,4.711278846153846,-58.04063461538461,0.8892038461538458,-1.0928403846153847,-15.663576923076922,-4.304026923076924,-5.5588,-22.269423076923076,4.69861409251071,7.368222710563451,4.780677072205316,5.300967811873813
H2_walk_slow_20251205_052416,,-7.121,1.653,-7.057,-4.901,0.838,-8.033,-51.31,-34.79,-19.32,2.3658192307692314,4.589278846153846,-53.910634615384616,0.436203846153846,-0.3748403846153846,-36.17357692307692,-4.467026923076924,-5.4468,-20.099423076923078,5.073628283543347,7.132293872359283,4.897818792447778,5.398809622140589
H2_walk_slow_20251205_052416,,-5.865,0.816,-7.734,-5.784,1.577,-7.351,-44.31,-50.75,-21.35,3.6218192307692316,3.706278846153846,-46.910634615384616,-0.4007961538461541,0.3641596153846154,-52.13357692307692,-5.1440269230769236,-4.764799999999999,-22.12942307692308,6.30390554201504,6.047514708615809,5.014217109547787,5.435969952487061
H2_walk_slow_20251205_052416,238204.0,-5.992,1.764,-7.49,-5.578,1.823,-7.822,10.5,-108.29,-34.02,3.494819230769232,3.9122788461538454,7.899365384615384,0.547203846153846,0.6101596153846154,-109.67357692307692,-4.900026923076924,-5.235799999999999,-34.79942307692308,6.0434640192425,6.564436165148471,5.0790860612995825,5.392940295795479
H2_walk_slow_20251205_052416,,-5.69,1.5,-7.614,-6.054,2.371,-7.789,11.13,-122.85,-34.72,3.7968192307692314,3.4362788461538454,8.529365384615385,0.283203846153846,1.1581596153846154,-124.23357692307692,-5.024026923076923,-5.2028,-35.49942307692307,6.303720109063946,6.341803674289535,5.143989244852213,5.304260730654249
H2_walk_slow_20251205_052416,,-5.212,1.362,-7.942,-6.482,2.814,-7.921,15.61,-133.21,-35.63,4.274819230769232,3.0082788461538454,13.009365384615384,0.14520384615384607,1.6011596153846155,-134.59357692307694,-5.352026923076924,-5.3347999999999995,-36.409423076923076,6.851230239747644,6.330366874846616,5.096598330948952,5.143001273608336
H2_walk_slow_20251205_052416,,-5.269,1.429,-7.854,-6.401,3.116,-8.124,23.31,-141.26,-35.84,4.217819230769232,3.089278846153846,20.709365384615385,0.21220384615384602,1.9031596153846155,-142.64357692307692,-5.264026923076923,-5.537800000000001,-36.61942307692308,6.748704244716013,6.620641143493926,4.998289126102788,4.9927328919813245
H2_walk_slow_20251205_052416,238280.0,-6.42,3.254,-8.251,-6.793,1.053,-7.657,11.06,-182.42,-37.03,3.066819230769232,2.6972788461538455,8.459365384615385,2.037203846153846,-0.15984038461538463,-183.80357692307692,-5.661026923076923,-5.0708,-37.809423076923075,6.752984934738251,5.745770162690379,4.864899648280282,4.847920668823283
H2_walk_slow_20251205_052416,,-6.695,3.034,-7.928,-6.985,0.45,-7.356,-1.47,-187.74,-38.64,2.7918192307692316,2.5052788461538453,-4.070634615384615,1.8172038461538458,-0.7628403846153846,-189.12357692307694,-5.338026923076923,-4.7698,-39.419423076923074,6.292139212323843,5.441446461133849,4.741322116343187,4.693538286731964
H2_walk_slow_20251205_052416,,-6.741,2.625,-7.662,-7.368,0.404,-7.215,-12.88,-194.32,-40.11,2.745819230769232,2.1222788461538453,-15.480634615384616,1.408203846153846,-0.8088403846153845,-195.70357692307692,-5.072026923076923,-4.6288,-40.88942307692307,5.937004162774503,5.155975146237311,4.560668714216944,4.488158625702328
H2_walk_slow_20251205_052416,,-6.832,1.895,-7.473,-7.373,0.866,-6.758,-19.88,-200.69,-40.67,2.654819230769232,2.1172788461538454,-22.480634615384613,0.678203846153846,-0.3468403846153846,-202.07357692307693,-4.8830269230769225,-4.171799999999999,-41.449423076923075,5.599283662799563,4.691170771222329,4.379640392347278,4.274447419839186
H2_walk_slow_20251205_052416,238356.0,-7.595,1.687,-6.423,-7.93,1.838,-6.135,26.04,-206.64,-42.77,1.891819230769232,1.560278846153846,23.439365384615385,0.47020384615384603,0.6251596153846155,-208.02357692307692,-3.833026923076923,-3.5487999999999995,-43.54942307692308,4.3002519753938495,3.926738603785973,4.204246651780054,4.0695607139609
H2_walk_slow_20251205_052416,,-7.504,2.402,-6.329,-7.746,1.699,-6.162,29.12,-206.99,-40.32,1.9828192307692323,1.7442788461538452,26.519365384615387,1.185203846153846,0.4861596153846155,-208.37357692307694,-3.739026923076923,-3.5757999999999996,-41.099423076923074,4.395065709445109,4.008142400760071,4.025956194285888,3.913044039647384
H2_walk_slow_20251205_052416,,-7.53,2.635,-6.2,-8.112,1.608,-5.286,27.3,-205.66,-38.43,1.9568192307692316,1.3782788461538455,24.699365384615387,1.4182038461538458,0.3951596153846155,-207.04357692307693,-3.6100269230769233,-2.6997999999999993,-39.20942307692307,4.344276468699257,3.0569140876684924,3.9202167362674754,3.6875126812357575
H2_walk_slow_20251205_052416,,-7.691,2.223,-6.044,-8.22,1.402,-4.803,24.43,-203.35,-37.03,1.795819230769232,1.270278846153845,21.829365384615386,1.0062038461538458,0.18915961538461534,-204.73357692307692,-3.4540269230769227,-2.2167999999999997,-37.809423076923075,4.020909707386578,2.561950808871708,3.8047237657857775,3.5737746142743987
H2_walk_slow_20251205_052416,238431.0,-8.107,1.208,-4.563,-8.969,0.885,-3.465,22.4,-186.2,-26.25,1.3798192307692325,0.5212788461538462,19.799365384615385,-0.008796153846154064,-0.32784038461538456,-187.58357692307692,-1.9730269230769228,-0.8787999999999996,-27.029423076923077,2.407657309732735,1.0730798633989214,3.874142314571011,3.4398354664569912
H2_walk_slow_20251205_052416,,-8.287,1.043,-4.348,-8.935,1.031,-2.912,25.13,-181.93,-22.54,1.199819230769231,0.5552788461538452,22.529365384615385,-0.1737961538461541,-0.18184038461538465,-183.31357692307694,-1.758026923076923,-0.32579999999999965,-23.319423076923076,2.1355163197406615,0.6689889105680425,3.901379217442425,3.3109695350826938
H2_walk_slow_20251205_052416,,-8.653,0.883,-3.948,-9.007,1.316,-2.455,28.84,-176.89,-18.48,0.8338192307692314,0.483278846153846,26.239365384615386,-0.333796153846154,0.10315961538461549,-178.27357692307692,-1.358026923076923,0.1312000000000002,-19.259423076923078,1.6281620022973309,0.5112864064163007,3.872617034574513,3.111594018749355
H2_walk_slow_20251205_052416,,-8.906,0.826,-3.635,-8.588,1.732,-2.328,34.72,-170.73,-14.14,0.5808192307692313,0.9022788461538465,32.119365384615385,-0.39079615384615407,0.5191596153846154,-172.11357692307692,-1.045026923076923,0.25820000000000043,-14.919423076923078,1.2578369857210947,1.0725208913876776,3.8018208078591758,2.961706618971218
H2_walk_slow_20251205_052416,238507.0,-8.581,1.871,-2.137,-8.528,1.201,-1.328,54.25,-127.61,2.17,0.9058192307692323,0.9622788461538452,51.649365384615386,0.654203846153846,-0.011840384615384503,-128.99357692307692,0.45297307692307687,1.2582000000000002,1.390576923076923,1.2056847679103393,1.5840416700525957,3.640628552662834,2.7745834172435684
H2_walk_slow_20251205_052416,,-8.914,1.821,-1.795,-8.689,0.988,-1.127,52.57,-116.9,3.57,0.5728192307692321,0.8012788461538456,49.96936538461539,0.6042038461538459,-0.22484038461538458,-118.28357692307694,0.794973076923077,1.4592000000000003,2.790576923076923,1.1511586996929222,1.6798409531403957,3.4481398722861525,2.5722364400510314
H2_walk_slow_20251205_052416,,-8.928,1.625,-1.694,-8.77,1.01,-1.017,52.08,-106.12,4.9,0.558819230769231,0.7202788461538461,49.479365384615384,0.408203846153846,-0.20284038461538456,-107.50357692307693,0.8959730769230769,1.5692000000000004,4.120576923076923,1.1321117733083221,1.738486260471343,3.224727380993149,2.405152992922684
H2_walk_slow_20251205_052416,,-8.655,1.452,-1.493,-8.452,0.871,-0.797,51.45,-94.43,5.67,0.8318192307692325,1.0382788461538457,48.84936538461539,0.23520384615384593,-0.3418403846153846,-95.81357692307694,1.0969730769230768,1.7892000000000001,4.890576923076923,1.3966366791034674,2.0966913103565235,3.0136054432649857,2.242369971845879
H2_walk_slow_20251205_052416,238583.0,-8.342,0.519,-1.003,-8.196,0.785,-1.96,50.89,-34.37,7.35,1.1448192307692313,1.294278846153846,48.28936538461539,-0.697796153846154,-0.42784038461538454,-35.75357692307692,1.586973076923077,0.6262000000000003,6.570576923076922,2.0775018869643027,1.5001105180316452,2.8285892887476365,2.14663198259538
H2_walk_slow_20251205_052416,,-8.088,0.558,-1.335,-8.279,0.644,-1.926,50.89,-20.09,6.93,1.3988192307692326,1.2112788461538457,48.28936538461539,-0.658796153846154,-0.5688403846153846,-21.473576923076923,1.254973076923077,0.6602000000000003,6.1505769230769225,1.9913977594880659,1.4921929722087457,2.6660250465540267,2.068816894169462
H2_walk_slow_20251205_052416,,-8.002,0.948,-1.474,-9.411,1.661,-1.194,47.74,-3.78,6.02,1.4848192307692312,0.07927884615384606,45.13936538461539,-0.2687961538461541,0.44815961538461546,-5.163576923076922,1.115973076923077,1.3922000000000003,5.240576923076922,1.8767885945949736,1.464702364410317,2.5765900907423993,2.0107393232629853
H2_walk_slow_20251205_052416,,-8.11,1.091,-1.608,-11.381,3.668,0.553,40.39,11.48,4.76,1.3768192307692324,-1.8907211538461546,37.78936538461539,-0.12579615384615406,2.4551596153846154,10.096423076923077,0.9819730769230768,3.1392,3.9805769230769226,1.6957968599865496,4.411032969568111,2.498349809386388,1.9112265807673219
H2_walk_slow_20251205_052416,238659.0,-13.867,3.594,2.151,-10.464,3.245,0.285,5.32,58.52,-13.44,-4.380180769230769,-0.9737211538461548,2.719365384615385,2.377203846153846,2.0321596153846153,57.13642307692308,4.740973076923076,2.8712000000000004,-14.219423076923077,6.878510551959424,3.6498760291066925,2.3487872762144026,1.826928276230477
H2_walk_slow_20251205_052416,,-14.135,1.84,2.623,-9.715,2.934,-0.522,-6.86,59.15,-9.1,-4.648180769230768,-0.2247211538461542,-9.460634615384615,0.623203846153846,1.7211596153846156,57.766423076923076,5.2129730769230775,2.0642000000000005,-9.879423076923077,7.012065016671803,2.6970004928840607,2.2219490972691105,1.7673425109942142
H2_walk_slow_20251205_052416,,-11.35,0.771,2.347,-9.206,1.098,-1.24,0.7,61.04,-2.59,-1.8631807692307678,0.28427884615384613,-1.9006346153846152,-0.445796153846154,-0.11484038461538448,59.656423076923076,4.936973076923077,1.3462000000000003,-3.369423076923077,5.295647264676783,1.3806727404816728,2.1607247585819582,1.7635976201909571
H2_walk_slow_20251205_052416,,-10.878,1.488,1.642,-8.062,-0.586,-1.749,19.39,62.86,-0.21,-1.3911807692307683,1.4282788461538463,16.789365384615387,0.27120384615384596,-1.7988403846153846,61.476423076923076,4.231973076923077,0.8372000000000002,-0.989423076923077,4.463018214465175,2.444731280057951,2.106031842332183,1.7853009005309417
H2_walk_slow_20251205_052416,238734.0,-8.471,-1.072,-1.692,-8.684,1.292,-3.807,30.87,66.57,-5.74,1.0158192307692318,0.8062788461538464,28.269365384615387,-2.288796153846154,0.07915961538461547,65.18642307692306,0.8979730769230769,-1.2207999999999997,-6.519423076923077,2.6602316046427688,1.465163629927735,2.100459036278601,1.805111932088521
H2_walk_slow_20251205_052416,,-9.325,-0.44,-2.07,-9.129,1.06,-3.888,39.41,70.56,-3.43,0.16181923076923255,0.3612788461538461,36.80936538461538,-1.656796153846154,-0.15284038461538452,69.17642307692307,0.519973076923077,-1.3017999999999996,-4.209423076923077,1.7439985549222818,1.3596197364879756,2.115386114553603,1.8038020813244853
H2_walk_slow_20251205_052416,,-9.639,0.285,-2.575,-9.773,0.706,-3.862,44.45,71.89,-1.33,-0.1521807692307675,-0.28272115384615404,41.84936538461539,-0.9317961538461541,-0.5068403846153846,70.50642307692308,0.0149730769230767,-1.2757999999999998,-2.1094230769230773,0.9442601611201746,1.40160053735334,2.1267272138094118,1.7795437207662312
H2_walk_slow_20251205_052416,,-9.521,0.861,-3.309,-10.043,0.742,-3.553,46.97,70.07,-1.47,-0.03418076923076896,-0.5527211538461536,44.369365384615385,-0.35579615384615404,-0.4708403846153846,68.68642307692306,-0.7190269230769233,-0.9667999999999997,-2.249423076923077,0.8029688313915995,1.2090879131369174,2.127287915108142,1.7377634483535145
H2_walk_slow_20251205_052416,238810.0,-10.084,0.751,-3.424,-10.172,-1.357,-2.379,4.97,61.95,-8.12,-0.5971807692307678,-0.681721153846155,2.3693653846153846,-0.465796153846154,-2.5698403846153846,60.56642307692308,-0.834026923076923,0.20720000000000027,-8.899423076923076,1.1265841453234113,2.6667874257243454,2.1092607563867927,1.714015035000159
H2_walk_slow_20251205_052416,,-9.959,0.093,-3.221,-9.653,-1.45,-2.556,0.56,59.08,-9.94,-0.4721807692307678,-0.16272115384615482,-2.040634615384615,-1.123796153846154,-2.6628403846153845,57.696423076923075,-0.6310269230769232,0.030200000000000227,-10.719423076923077,1.3726133657657198,2.6679784721484605,2.0692601599194194,1.6746108944666156
H2_walk_slow_20251205_052416,,-10.091,-0.66,-2.704,-9.28,-1.189,-2.752,0.49,55.3,-11.83,-0.6041807692307675,0.2102788461538463,-2.1106346153846154,-1.8767961538461542,-2.401840384615385,53.916423076923074,-0.1140269230769233,-0.1657999999999995,-12.609423076923077,1.9749431242915299,2.416721760217583,2.016401159856456,1.6602768561084746
H2_walk_slow_20251205_052416,,-10.189,-1.027,-2.376,-9.395,-0.199,-2.714,3.5,50.47,-11.83,-0.7021807692307682,0.09527884615384608,0.8993653846153848,-2.243796153846154,-1.4118403846153846,49.086423076923076,0.213973076923077,-0.1277999999999997,-12.609423076923077,2.360818394188811,1.4208110958728206,1.9923476514137706,1.641243581638957
H2_walk_slow_20251205_052416,238885.0,-9.722,0.924,-2.848,-9.727,0.526,-3.056,62.65,34.58,-2.03,-0.2351807692307677,-0.23672115384615466,60.049365384615385,-0.292796153846154,-0.6868403846153845,33.196423076923075,-0.258026923076923,-0.4697999999999998,-2.8094230769230766,0.45565060622764525,0.8651581697105241,1.9694078536818709,1.6390915269848416
H2_walk_slow_20251205_052416,,-9.648,1.531,-3.221,-9.438,0.246,-2.883,59.36,32.13,-1.96,-0.16118076923076785,0.05227884615384504,56.759365384615386,0.3142038461538459,-0.9668403846153846,30.74642307692308,-0.6310269230769232,-0.29679999999999973,-2.739423076923077,0.7231170548089851,1.0127209127288732,1.9637329140301765,1.5250248182121855
H2_walk_slow_20251205_052416,,-9.658,1.529,-3.324,-9.758,0.282,-2.704,47.25,31.85,-2.31,-0.17118076923076764,-0.26772115384615347,44.649365384615386,0.3122038461538459,-0.9308403846153845,30.46642307692308,-0.734026923076923,-0.1177999999999999,-3.089423076923077,0.8158245038667732,0.9757127025142354,1.7602929227119495,1.4334023055784546
H2_walk_slow_20251205_052416,,-9.974,1.039,-3.08,-9.859,0.048,-2.754,34.23,31.5,-2.94,-0.48718076923076836,-0.36872115384615434,31.629365384615383,-0.1777961538461541,-1.1648403846153845,30.116423076923077,-0.4900269230769232,-0.16779999999999973,-3.7194230769230767,0.7135004972465018,1.2332741994076404,1.5431165792527501,1.375051056159956
H2_walk_slow_20251205_052416,238961.0,-9.629,-0.239,-2.836,-9.82,0.412,-3.137,9.52,28.84,-4.41,-0.14218076923076772,-0.32972115384615464,6.919365384615384,-1.455796153846154,-0.8008403846153846,27.456423076923077,-0.24602692307692298,-0.5507999999999997,-5.189423076923077,1.4832690449041959,1.0263732269133663,1.382964294604276,1.365174598219382
H2_walk_slow_20251205_052416,,-9.564,-0.412,-2.814,-9.789,0.474,-3.252,12.04,28.21,-3.85,-0.07718076923076822,-0.29872115384615405,9.439365384615384,-1.628796153846154,-0.7388403846153846,26.826423076923078,-0.22402692307692318,-0.6657999999999995,-4.629423076923077,1.6459410208711582,1.0384647715227446,1.2605686694102143,1.311118857433376
H2_walk_slow_20251205_052416,,-9.622,-0.218,-3.008,-9.5,0.581,-3.3,16.17,27.37,-3.57,-0.13518076923076805,-0.009721153846154351,13.569365384615386,-1.434796153846154,-0.6318403846153846,25.986423076923078,-0.41802692307692313,-0.7137999999999995,-4.349423076923077,1.500553348561356,0.9533242955379964,1.2104522057534308,1.293140953995197
H2_walk_slow_20251205_052416,,-9.648,0.199,-3.135,-9.414,1.019,-3.142,18.97,27.3,-3.15,-0.16118076923076785,0.07627884615384595,16.369365384615385,-1.017796153846154,-0.19384038461538466,25.916423076923078,-0.5450269230769229,-0.5557999999999996,-3.9294230769230767,1.1657369334599226,0.5935538704097565,1.1919918830875582,1.2831746094766139
H2_walk_slow_20251205_052416,239037.0,-9.414,1.582,-3.139,-9.493,0.101,-2.443,7.98,25.62,-4.34,0.07281923076923214,-0.002721153846154678,5.379365384615385,0.36520384615384605,-1.1118403846153846,24.236423076923078,-0.5490269230769229,0.14320000000000022,-5.119423076923077,0.6634056465532218,1.1210275132841034,1.2008842162004387,1.3015297063727411
H2_walk_slow_20251205_052416,,-9.49,1.359,-2.917,-9.73,0.256,-2.166,0.7,25.13,-4.41,-0.0031807692307683766,-0.23972115384615478,-1.9006346153846152,0.14220384615384596,-0.9568403846153846,23.746423076923076,-0.32702692307692294,0.42020000000000035,-5.189423076923077,0.3566211709517619,1.0721836564843958,1.2147018447911049,1.326966662244986
H2_walk_slow_20251205_052416,,-9.715,0.57,-2.745,-9.789,0.184,-2.235,-5.11,24.5,-3.85,-0.22818076923076802,-0.29872115384615405,-7.710634615384615,-0.6467961538461541,-1.0288403846153846,23.116423076923077,-0.15502692307692323,0.3512000000000004,-4.629423076923077,0.7031678853272674,1.1274255207199768,1.2088314028708733,1.295542201131513
H2_walk_slow_20251205_052416,,-9.66,-0.136,-2.513,-9.631,0.246,-2.386,-5.95,24.71,-3.15,-0.1731807692307683,-0.14072115384615458,-8.550634615384615,-1.3527961538461541,-0.9668403846153846,23.326423076923078,0.07697307692307698,0.20020000000000016,-3.9294230769230767,1.3660065399782368,0.9973278360012909,1.211182311020651,1.2623845927310549
H2_walk_slow_20251205_052416,239113.0,-9.505,0.0,-2.192,-9.409,-0.177,-2.371,-0.21,25.13,-2.45,-0.018180769230768945,0.08127884615384495,-2.810634615384615,-1.216796153846154,-1.3898403846153846,23.746423076923076,0.3979730769230767,0.21520000000000028,-3.2294230769230774,1.2803538535655825,1.4087489434033094,1.1973171360087465,1.2195254932305986
H2_walk_slow_20251205_052416,,-9.576,-0.237,-2.065,-9.404,-0.203,-2.309,-0.35,25.27,-2.45,-0.08918076923076868,0.08627884615384573,-2.9506346153846152,-1.4537961538461541,-1.4158403846153846,23.886423076923077,0.5249730769230769,0.2772000000000001,-3.2294230769230774,1.5482484290424923,1.4452985414790536,1.1671535763751655,1.2138358896035704
H2_walk_slow_20251205_052416,,-9.584,-0.299,-2.123,-9.526,-0.043,-2.417,2.94,24.57,-2.45,-0.0971807692307678,-0.03572115384615415,0.3393653846153848,-1.515796153846154,-1.2558403846153845,23.186423076923077,0.46697307692307666,0.16920000000000046,-3.2294230769230774,1.5890707776855262,1.2676907006296994,1.2084340105942282,1.2277282061938906
H2_walk_slow_20251205_052416,,-9.548,-0.117,-2.304,-9.435,0.043,-2.443,6.65,24.15,-2.38,-0.061180769230768206,0.05527884615384515,4.049365384615385,-1.333796153846154,-1.1698403846153846,22.766423076923076,0.28597307692307705,0.14320000000000022,-3.159423076923077,1.3654800867326164,1.1798680080030866,1.234182316805393,1.2444601358031089
H2_walk_slow_20251205_052416,239189.0,-9.371,0.115,-2.359,-9.148,0.373,-3.25,15.05,28.0,-0.49,0.1158192307692314,0.34227884615384596,12.449365384615385,-1.101796153846154,-0.8398403846153846,26.616423076923077,0.2309730769230769,-0.6637999999999997,-1.269423076923077,1.1316878638164625,1.1238848340267453,1.2590601464517286,1.2686276559412373
H2_walk_slow_20251205_052416,,-9.61,-0.043,-2.395,-9.227,1.031,-3.575,14.35,28.49,-0.07,-0.1231807692307676,0.26327884615384534,11.749365384615384,-1.259796153846154,-0.18184038461538465,27.106423076923075,0.19497307692307686,-0.9887999999999999,-0.8494230769230771,1.2807319594195727,1.0392820196218018,1.29764839822761,1.2878021450647934
H2_walk_slow_20251205_052416,,-9.426,-0.132,-2.728,-9.328,1.177,-3.57,15.05,28.63,0.21,0.06081923076923168,0.16227884615384625,12.449365384615385,-1.3487961538461541,-0.035840384615384524,27.246423076923076,-0.13802692307692332,-0.9837999999999996,-0.569423076923077,1.357203549566395,0.9977381405350813,1.3016592301361218,1.3250489684933282
H2_walk_slow_20251205_052416,,-9.258,0.053,-3.027,-9.213,0.83,-3.58,16.66,29.19,0.0,0.22881923076923272,0.27727884615384646,14.059365384615385,-1.163796153846154,-0.3828403846153846,27.80642307692308,-0.43702692307692326,-0.9937999999999998,-0.779423076923077,1.26403016560959,1.1004947790048183,1.2985157693947338,1.3990189000130306
H2_walk_slow_20251205_052416,239264.0,-9.165,0.414,-3.386,-9.88,-0.622,-2.479,1.05,30.52,-3.85,0.3218192307692327,-0.38972115384615513,-1.5506346153846151,-0.8027961538461541,-1.8348403846153847,29.136423076923077,-0.7960269230769232,0.10720000000000018,-4.629423076923077,1.1754608220550748,1.8788330566526423,1.4198739899326245,1.4075122340335275
H2_walk_slow_20251205_052416,,-9.048,0.445,-3.34,-9.407,-0.651,-2.453,2.66,31.15,-4.9,0.4388192307692318,0.08327884615384562,0.059365384615384986,-0.771796153846154,-1.8638403846153846,29.766423076923076,-0.750026923076923,0.13320000000000043,-5.679423076923078,1.1622271747489186,1.8704487658152897,1.4982220271064663,1.4363173401049987
H2_walk_slow_20251205_052416,,-9.273,0.447,-3.147,-9.392,-0.634,-2.553,3.71,32.2,-5.53,0.21381923076923215,0.09827884615384619,1.1093653846153848,-0.769796153846154,-1.8468403846153847,30.81642307692308,-0.5570269230769229,0.03320000000000034,-6.3094230769230775,0.9739526553973873,1.8497514367740422,1.5210202995934783,1.437304607846419
H2_walk_slow_20251205_052416,,-9.689,-0.182,-2.831,-9.239,-0.57,-2.726,1.33,32.34,-4.27,-0.20218076923076822,0.2512788461538449,-1.270634615384615,-1.398796153846154,-1.7828403846153846,30.95642307692308,-0.24102692307692308,-0.1397999999999997,-5.049423076923077,1.433736977659943,1.8058806537365475,1.5478743550414644,1.4448768277383872
H2_walk_slow_20251205_052416,239340.0,-9.11,-0.342,-2.776,-9.27,0.194,-3.367,4.34,36.4,0.35,0.3768192307692324,0.22027884615384608,1.7393653846153847,-1.558796153846154,-1.0188403846153846,35.016423076923076,-0.18602692307692292,-0.7807999999999997,-0.429423076923077,1.6144485739820102,1.3023851732057206,1.5632341687845905,1.4162200216910108
H2_walk_slow_20251205_052416,,-9.237,-0.294,-2.965,-9.478,0.294,-3.467,3.64,37.52,0.98,0.24981923076923174,0.01227884615384589,1.039365384615385,-1.510796153846154,-0.9188403846153845,36.13642307692308,-0.375026923076923,-0.8807999999999998,0.20057692307692299,1.5765658437157033,1.2728814015700824,1.538925435854884,1.394647435002059
H2_walk_slow_20251205_052416,,-9.399,-0.256,-2.991,-9.667,0.412,-3.498,2.45,39.13,1.89,0.0878192307692327,-0.17672115384615417,-0.15063461538461498,-1.472796153846154,-0.8008403846153846,37.74642307692308,-0.4010269230769232,-0.9117999999999999,1.110576923076923,1.5289418959232781,1.2263584010588557,1.5003230614544274,1.3774162535732477
H2_walk_slow_20251205_052416,,-9.359,-0.029,-3.199,-9.878,0.227,-3.573,0.98,40.88,2.59,0.12781923076923185,-0.38772115384615446,-1.6206346153846152,-1.245796153846154,-0.9858403846153846,39.49642307692308,-0.609026923076923,-0.9867999999999997,1.8105769230769229,1.392573016299272,1.4477510825685478,1.4479258386199956,1.386979747088295
H2_walk_slow_20251205_052416,239416.0,-9.785,0.189,-3.587,-9.737,0.9,-4.14,-5.67,45.78,5.46,-0.2981807692307683,-0.24672115384615445,-8.270634615384616,-1.027796153846154,-0.31284038461538455,44.39642307692308,-0.9970269230769233,-1.5537999999999994,4.680576923076923,1.462648074671497,1.6040682261055723,1.464502466555589,1.4124988361272481
H2_walk_slow_20251205_052416,,-10.093,0.053,-3.697,-9.813,0.586,-4.168,-2.52,44.59,5.67,-0.6061807692307681,-0.32272115384615496,-5.120634615384615,-1.163796153846154,-0.6268403846153846,43.20642307692308,-1.1070269230769232,-1.5817999999999999,4.890576923076923,1.716795043419414,1.7318109166201014,1.4962273545242415,1.4411077311684304
H2_walk_slow_20251205_052416,,-9.84,0.258,-3.805,-9.945,0.11,-4.185,0.14,45.01,5.46,-0.353180769230768,-0.45472115384615464,-2.460634615384615,-0.958796153846154,-1.1028403846153845,43.626423076923075,-1.2150269230769233,-1.5987999999999993,4.680576923076923,1.5875506745255064,1.994790636055269,1.528408624721215,1.4928185397203382
H2_walk_slow_20251205_052416,,-9.655,0.684,-4.051,-10.385,-1.089,-4.221,1.75,45.99,4.69,-0.16818076923076752,-0.8947211538461541,-0.8506346153846152,-0.532796153846154,-2.3018403846153843,44.60642307692308,-1.4610269230769233,-1.6347999999999998,3.910576923076923,1.5642110415950685,2.9616829910350115,1.5505998216185861,1.5738733270977268
H2_walk_slow_20251205_052416,239492.0,-11.694,-2.737,-3.673,-9.95,0.33,-3.209,-8.82,50.4,10.01,-2.207180769230769,-0.45972115384615364,-11.420634615384616,-3.953796153846154,-0.8828403846153845,49.016423076923076,-1.0830269230769232,-0.6227999999999998,9.230576923076923,4.65586708254652,1.17415098007091,1.639436814571918,1.761280793837206
H2_walk_slow_20251205_052416,,-10.835,-1.481,-3.668,-9.943,0.019,-3.001,2.59,52.01,14.49,-1.348180769230769,-0.45272115384615397,-0.010634615384615298,-2.697796153846154,-1.1938403846153847,50.626423076923075,-1.0780269230769233,-0.4147999999999996,13.710576923076923,3.202785899979808,1.342486628268007,1.7773572664636392,1.9386178661711289
H2_walk_slow_20251205_052416,,-9.452,1.039,-3.833,-9.837,0.146,-2.824,7.35,57.12,15.4,0.03481923076923188,-0.3467211538461541,4.749365384615384,-0.1777961538461541,-1.0668403846153847,55.736423076923074,-1.2430269230769233,-0.23779999999999957,14.620576923076923,1.2561607312155278,1.1466964745610366,1.9561485133651542,2.130766052185704
H2_walk_slow_20251205_052416,,-9.631,1.448,-3.609,-9.998,0.05,-2.563,-2.59,60.13,13.58,-0.1441807692307684,-0.5077211538461537,-5.1906346153846155,0.23120384615384593,-1.1628403846153845,58.74642307692308,-1.019026923076923,0.02320000000000011,12.800576923076923,1.054826612599402,1.2690613736755703,2.1345297391279967,2.3750820829491492
H2_walk_slow_20251205_052416,239567.0,-9.775,0.156,-2.505,-9.83,1.192,-2.412,-9.38,70.49,18.48,-0.2881807692307685,-0.3397211538461544,-11.980634615384616,-1.060796153846154,-0.02084038461538462,69.10642307692308,0.08497307692307698,0.17420000000000035,17.700576923076923,1.1025230426485453,0.3823485634881865,2.424099359507883,2.557294876560955
H2_walk_slow_20251205_052416,,-9.672,0.538,-2.381,-9.77,1.275,-2.257,-4.83,73.5,19.46,-0.18518076923076876,-0.2797211538461539,-7.430634615384616,-0.678796153846154,0.06215961538461534,72.11642307692307,0.2089730769230771,0.32920000000000016,18.680576923076924,0.7339794838058684,0.436440582088544,2.667429177226259,2.7217444849764494
H2_walk_slow_20251205_052416,,-9.502,0.981,-2.446,-9.823,1.697,-1.826,-2.24,76.93,19.18,-0.015180769230768831,-0.33272115384615475,-4.840634615384616,-0.23579615384615404,0.4841596153846155,75.54642307692308,0.1439730769230767,0.7602000000000002,18.400576923076922,0.2766921191537178,0.9607382262542152,2.8799383766761824,2.8963469379851414
H2_walk_slow_20251205_052416,,-9.605,1.12,-2.484,-9.847,2.005,-1.132,-3.22,81.13,18.55,-0.11818076923076859,-0.3567211538461539,-5.820634615384615,-0.09679615384615392,0.7921596153846153,79.74642307692307,0.10597307692307689,1.4542000000000004,17.770576923076923,0.18592063534726008,1.6939493728702857,3.0902560292943972,3.072149546616843
H2_walk_slow_20251205_052416,239643.0,-10.132,2.443,-1.12,-11.024,2.297,-2.137,-29.96,109.97,8.96,-0.6451807692307678,-1.5337211538461535,-32.560634615384615,1.226203846153846,1.0841596153846156,108.58642307692307,1.4699730769230768,0.44920000000000027,8.180576923076924,2.0200631040109585,1.9311870156424764,3.267928898572613,3.300108006352495
H2_walk_slow_20251205_052416,,-10.309,2.204,-0.816,-10.821,2.381,-3.338,-39.97,116.55,5.04,-0.8221807692307674,-1.330721153846154,-42.57063461538461,0.9872038461538462,1.1681596153846152,115.16642307692308,1.773973076923077,-0.7517999999999998,4.260576923076923,2.19032717391758,1.9236992790738296,3.4497043753370082,3.517608084293353
H2_walk_slow_20251205_052416,,-10.287,2.139,-1.046,-10.002,2.414,-4.681,-49.42,123.48,0.49,-0.800180769230769,-0.511721153846155,-52.020634615384616,0.9222038461538458,1.2011596153846156,122.09642307692309,1.5439730769230768,-2.0947999999999998,-0.289423076923077,1.9684008889377704,2.468365856376351,3.6422308451087417,3.720946163902497
H2_walk_slow_20251205_052416,,-10.648,2.113,-1.45,-9.619,1.756,-5.683,-58.94,130.41,-3.57,-1.1611807692307679,-0.12872115384615412,-61.54063461538461,0.896203846153846,0.5431596153846154,129.02642307692307,1.139973076923077,-3.0967999999999996,-4.349423076923077,1.8577030787512228,3.1467064914339002,3.8517164947497116,3.8893264915067087
H2_walk_slow_20251205_052416,239718.0,-9.966,0.424,-6.138,-10.912,-0.663,-7.964,-85.12,140.56,-1.54,-0.47918076923076747,-1.4217211538461552,-87.72063461538463,-0.7927961538461541,-1.8758403846153846,139.17642307692307,-3.548026923076923,-5.377800000000001,-2.3194230769230773,3.6669653663530206,5.870332275761538,4.000431764048967,4.085136907158407
H2_walk_slow_20251205_052416,,-9.954,0.041,-7.272,-10.062,-0.938,-7.846,-75.11,137.76,-0.84,-0.4671807692307688,-0.5717211538461537,-77.71063461538462,-1.175796153846154,-2.1508403846153845,136.37642307692306,-4.682026923076924,-5.2598,-1.619423076923077,4.849961914794345,5.711258659686815,4.157240863517956,4.230720616957954
H2_walk_slow_20251205_052416,,-9.964,0.065,-8.279,-8.27,-1.543,-8.765,-62.86,137.13,-1.61,-0.4771807692307686,1.220278846153846,-65.46063461538462,-1.151796153846154,-2.7558403846153845,135.74642307692307,-5.6890269230769235,-6.178800000000001,-2.389423076923077,5.824033241494467,6.874685893031597,4.2228186853093,4.418884582545096
H2_walk_slow_20251205_052416,,-10.536,-0.371,-8.069,-6.444,-1.141,-9.852,-50.54,134.96,-3.5,-1.0491807692307678,3.0462788461538457,-53.14063461538461,-1.587796153846154,-2.353840384615385,133.57642307692308,-5.479026923076924,-7.2658000000000005,-4.279423076923077,5.800139044582819,8.222665565664865,4.364022585217573,4.586427056837263
H2_walk_slow_20251205_052416,239794.0,-5.721,0.191,-10.144,-7.253,3.908,-8.165,10.71,77.77,0.28,3.7658192307692318,2.2372788461538455,8.109365384615385,-1.025796153846154,2.6951596153846156,76.38642307692308,-7.554026923076924,-5.578799999999999,-0.49942307692307697,8.50276278527444,6.587284070680998,4.547764101203844,4.759193668089438
H2_walk_slow_20251205_052416,,-6.277,2.19,-9.588,-7.526,3.759,-7.748,10.78,71.54,-4.97,3.2098192307692317,1.9642788461538458,8.179365384615384,0.9732038461538459,2.5461596153846155,70.15642307692309,-6.998026923076923,-5.1617999999999995,-5.749423076923077,7.760312238337713,6.081570472539393,4.725597584636248,4.925810040300716
H2_walk_slow_20251205_052416,,-7.164,3.372,-8.988,-7.234,3.223,-7.586,-2.66,56.42,-13.16,2.322819230769232,2.2562788461538457,-5.260634615384616,2.155203846153846,2.010159615384615,55.03642307692308,-6.398026923076923,-4.9998000000000005,-13.939423076923077,7.13968775968003,5.842048951431728,4.896193450586188,5.098461534355205
H2_walk_slow_20251205_052416,,-7.157,3.826,-8.705,-6.703,2.637,-7.521,-23.8,38.36,-20.86,2.329819230769232,2.7872788461538454,-26.400634615384615,2.609203846153846,1.4241596153846154,36.976423076923076,-6.115026923076924,-4.934799999999999,-21.639423076923077,7.044824811789274,5.843749225994316,5.094237382680631,5.268562866915923
H2_walk_slow_20251205_052416,239870.0,-5.913,2.063,-7.521,-5.095,1.874,-8.191,-55.3,-47.18,-26.81,3.5738192307692316,4.395278846153846,-57.90063461538461,0.8462038461538461,0.6611596153846155,-48.56357692307692,-4.931026923076923,-5.604800000000001,-27.589423076923076,6.1484364971569,7.153278354185795,5.258798330370374,5.309902716713787
H2_walk_slow_20251205_052416,,-5.836,1.603,-7.485,-5.207,2.268,-8.153,-43.61,-61.6,-33.88,3.6508192307692315,4.283278846153846,-46.21063461538461,0.38620384615384595,1.0551596153846152,-62.983576923076924,-4.895026923076923,-5.566800000000001,-34.659423076923076,6.118735412173532,7.102753109030866,5.40549596363698,5.29230421880834
H2_walk_slow_20251205_052416,,-5.583,1.431,-7.743,-5.274,2.46,-7.892,-31.29,-77.21,-41.16,3.9038192307692317,4.216278846153846,-33.89063461538461,0.21420384615384602,1.2471596153846154,-78.59357692307691,-5.153026923076924,-5.3058,-41.93942307692307,6.468336288736571,6.890858295943307,5.4691195069922145,5.252545570744839
H2_walk_slow_20251205_052416,,-5.073,1.455,-8.227,-5.8,2.422,-7.303,-22.05,-91.35,-45.57,4.413819230769231,3.690278846153846,-24.650634615384615,0.23820384615384604,1.2091596153846156,-92.73357692307692,-5.637026923076924,-4.716799999999999,-46.349423076923074,7.163421934084636,6.109699434329616,5.50143389616087,5.212114113515778
H2_walk_slow_20251205_052416,239946.0,-6.317,2.137,-6.932,-5.305,2.898,-8.05,-17.43,-149.1,-51.87,3.1698192307692317,4.185278846153846,-20.030634615384614,0.920203846153846,1.6851596153846156,-150.48357692307692,-4.342026923076924,-5.463800000000001,-52.64942307692307,5.454147676306137,7.085861442999439,5.467899775868539,5.206102260551744
H2_walk_slow_20251205_052416,,-6.379,2.008,-7.231,-5.566,3.223,-7.693,-10.57,-162.19,-53.48,3.1078192307692323,3.924278846153846,-13.170634615384616,0.791203846153846,2.010159615384615,-163.57357692307693,-4.641026923076923,-5.1068,-54.25942307692307,5.641247627788782,6.746859445823203,5.4393863180678625,5.206794800026363
H2_walk_slow_20251205_052416,,-5.922,2.036,-7.794,-6.222,3.276,-7.262,-2.24,-173.88,-53.69,3.564819230769232,3.2682788461538452,-4.840634615384616,0.819203846153846,2.063159615384615,-175.26357692307693,-5.204026923076922,-4.675799999999999,-54.46942307692307,6.360890449121479,6.066414085336633,5.3583789340779315,5.110990576032889
H2_walk_slow_20251205_052416,,-5.413,2.386,-8.002,-6.734,3.209,-7.157,4.13,-181.09,-53.06,4.073819230769232,2.7562788461538457,1.5293653846153847,1.169203846153846,1.9961596153846155,-182.47357692307693,-5.412026923076924,-4.5708,-53.839423076923076,6.874087297594906,5.698590959864344,5.242763816455859,5.024143089159439
H2_walk_slow_20251205_052416,240021.0,-6.267,2.414,-7.55,-6.547,0.653,-7.363,-20.16,-213.36,-49.0,3.2198192307692315,2.943278846153846,-22.760634615384614,1.1972038461538461,-0.5598403846153845,-214.74357692307694,-4.9600269230769225,-4.7768,-49.779423076923074,6.033440146858577,5.638628367117575,5.158910010282325,4.861458696784487
H2_walk_slow_20251205_052416,,-6.291,1.347,-7.282,-6.303,1.309,-7.191,-21.07,-216.86,-47.6,3.1958192307692315,3.1872788461538457,-23.670634615384614,0.13020384615384595,0.09615961538461537,-218.24357692307694,-4.692026923076924,-4.604799999999999,-48.379423076923075,5.6784971818419,5.601087051168791,5.077624325772182,4.635043602965168
H2_walk_slow_20251205_052416,,-6.499,0.586,-7.21,-6.782,1.673,-6.609,-10.99,-220.15,-46.97,2.987819230769232,2.7082788461538456,-13.590634615384616,-0.6307961538461541,0.4601596153846155,-221.53357692307694,-4.620026923076923,-4.0228,-47.74942307692307,5.538015557346979,4.871287408904891,4.881162920864158,4.501995473192367
H2_walk_slow_20251205_052416,,-6.356,0.447,-7.511,-6.815,1.905,-6.583,3.78,-223.58,-46.55,3.130819230769232,2.6752788461538453,1.1793653846153846,-0.769796153846154,0.6921596153846155,-224.96357692307694,-4.921026923076923,-3.9968,-47.32942307692307,5.8831217182613775,4.859075228667244,4.69696367444356,4.566269551875243
H2_walk_slow_20251205_052416,240097.0,-7.021,1.876,-6.363,-8.464,1.108,-4.341,24.01,-228.76,-29.75,2.465819230769232,1.0262788461538452,21.409365384615388,0.6592038461538459,-0.10484038461538447,-230.14357692307692,-3.7730269230769236,-1.7548,-30.529423076923077,4.55527675908706,2.0355743209986636,4.764687767430652,4.518117298114826
H2_walk_slow_20251205_052416,,-7.542,1.699,-6.052,-9.069,1.354,-3.74,21.91,-228.06,-26.53,1.944819230769232,0.4212788461538448,19.309365384615386,0.48220384615384604,0.14115961538461552,-229.44357692307693,-3.4620269230769227,-1.1538,-27.30942307692308,4.000059100279001,1.236388427328664,4.818554345340585,4.462683502748188
H2_walk_slow_20251205_052416,,-8.026,1.481,-5.951,-9.122,1.622,-3.295,22.12,-226.45,-23.17,1.460819230769232,0.36827884615384576,19.519365384615387,0.26420384615384607,0.40915961538461554,-227.83357692307692,-3.3610269230769227,-0.7087999999999997,-23.94942307692308,3.674275231247058,0.8974621659914662,4.783284352015945,4.262746829595857
H2_walk_slow_20251205_052416,,-8.129,1.134,-5.298,-9.148,1.962,-2.874,23.94,-221.83,-19.74,1.3578192307692323,0.34227884615384596,21.339365384615387,-0.08279615384615413,0.7491596153846154,-223.21357692307694,-2.708026923076923,-0.28779999999999983,-20.519423076923076,3.0305012923026338,0.8724813911182479,4.697574891214534,4.083271569145098
H2_walk_slow_20251205_052416,240173.0,-8.933,2.163,-2.608,-8.492,0.859,-0.531,39.62,-181.93,-9.17,0.553819230769232,0.9982788461538448,37.019365384615384,0.9462038461538458,-0.3538403846153846,-183.31357692307694,-0.018026923076923218,2.0552,-9.949423076923077,1.0965137613371643,2.312057679311443,4.540067064756306,3.9159754986931103
H2_walk_slow_20251205_052416,,-9.033,2.158,-2.197,-8.205,0.144,0.101,35.56,-170.52,-8.19,0.45381923076923236,1.2852788461538456,32.95936538461539,0.9412038461538459,-1.0688403846153847,-171.90357692307694,0.3929730769230768,2.6872000000000003,-8.969423076923077,1.1163531759336562,3.16471251777398,4.324181073529197,3.781270957842412
H2_walk_slow_20251205_052416,,-9.107,1.773,-1.182,-8.014,-0.05,0.179,29.33,-157.36,-6.79,0.3798192307692325,1.4762788461538463,26.729365384615384,0.5562038461538459,-1.2628403846153846,-158.74357692307694,1.407973076923077,2.7652,-7.569423076923077,1.5607733826147534,3.3794224519312266,4.170641735850291,3.602920678266204
H2_walk_slow_20251205_052416,,-9.167,1.338,-0.778,-7.653,-0.005,0.072,29.54,-143.36,-4.48,0.319819230769232,1.837278846153846,26.939365384615385,0.12120384615384605,-1.2178403846153845,-144.74357692307694,1.8119730769230769,2.6582000000000003,-5.259423076923078,1.843968856620521,3.4532240009771384,4.039539516858579,3.4028648749048567
H2_walk_slow_20251205_052416,240249.0,-7.516,-0.211,0.122,-7.892,0.481,-0.61,55.02,-56.14,4.55,1.9708192307692318,1.5982788461538453,52.41936538461539,-1.427796153846154,-0.7318403846153846,-57.523576923076924,2.7119730769230768,1.9762000000000004,3.7705769230769226,3.643834280982509,2.6448916912828135,3.860270002975499,3.223368034833795
H2_walk_slow_20251205_052416,,-7.473,-0.273,0.115,-8.27,0.57,-0.701,58.1,-37.8,6.3,2.013819230769232,1.220278846153846,55.49936538461539,-1.4897961538461542,-0.6428403846153846,-39.18357692307692,2.704973076923077,1.8852000000000002,5.520576923076923,3.6867112473191432,2.335873126362607,3.69573155177171,3.04817432281313
H2_walk_slow_20251205_052416,,-7.327,0.175,-0.187,-9.926,1.991,0.412,61.46,-19.6,7.42,2.159819230769232,-0.4357211538461545,58.85936538461539,-1.041796153846154,0.7781596153846155,-20.983576923076924,2.402973076923077,2.9982,6.640576923076923,3.39476625766582,3.128032696588154,3.5650085741344095,2.861672178361087
H2_walk_slow_20251205_052416,,-7.406,0.514,-0.589,-13.908,5.989,1.63,61.04,-0.91,7.49,2.080819230769232,-4.417721153846154,58.439365384615385,-0.702796153846154,4.776159615384615,-2.293576923076923,2.000973076923077,4.216200000000001,6.710576923076923,2.971131831402136,7.75269651829418,3.419521424785705,2.665354620986022
H2_walk_slow_20251205_052416,240325.0,-16.408,3.439,2.546,-10.397,5.037,-0.215,22.26,57.4,-11.55,-6.921180769230769,-0.9067211538461546,19.659365384615388,2.222203846153846,3.824159615384615,56.016423076923076,5.135973076923077,2.3712000000000004,-12.329423076923078,8.900514177344444,4.5900903536608855,3.223197958616725,2.5310180703677707
H2_walk_slow_20251205_052416,,-15.518,-0.443,3.084,-12.359,4.348,-1.436,10.57,56.56,-2.17,-6.031180769230769,-2.8687211538461543,7.969365384615385,-1.659796153846154,3.135159615384615,55.17642307692308,5.673973076923077,1.1502000000000003,-2.949423076923077,8.445355837447552,4.4024705464617275,3.0089141636575913,2.4174960149079503
H2_walk_slow_20251205_052416,,-9.622,-1.23,2.032,-9.251,1.907,-4.398,36.68,57.82,6.37,-0.13518076923076805,0.2392788461538462,34.079365384615386,-2.446796153846154,0.6941596153846155,56.43642307692308,4.6219730769230765,-1.8117999999999994,5.590576923076923,5.231416670716253,1.9549248522251774,2.848345032186335,2.417896090264151
H2_walk_slow_20251205_052416,,-8.421,1.419,1.146,-7.892,0.203,-4.123,73.08,70.35,5.46,1.0658192307692325,1.5982788461538453,70.47936538461538,0.202203846153846,-1.0098403846153845,68.96642307692306,3.735973076923077,-1.5368,4.680576923076923,3.8902894313368264,2.4363963373111144,2.7199501479789583,2.4494301896295068
H2_walk_slow_20251205_052416,240400.0,-8.04,0.761,-4.415,-8.61,1.223,-4.97,33.46,86.73,-10.29,1.4468192307692327,0.8802788461538462,30.859365384615387,-0.455796153846154,0.010159615384615517,85.34642307692309,-1.8250269230769232,-2.3837999999999995,-11.069423076923076,2.3731328008226265,2.541160464191647,2.6463716927879166,2.4387524048958977
H2_walk_slow_20251205_052416,,-9.014,1.041,-4.056,-9.005,2.57,-4.759,32.34,82.04,-6.09,0.4728192307692325,0.48527884615384487,29.73936538461539,-0.1757961538461541,1.3571596153846153,80.65642307692309,-1.4660269230769232,-2.1728,-6.869423076923077,1.5503861621798294,2.6073813722114614,2.5755585465710458,2.4431848078522886
H2_walk_slow_20251205_052416,,-9.098,0.756,-3.922,-9.82,3.163,-4.03,30.45,74.83,-3.71,0.3888192307692311,-0.32972115384615464,27.849365384615385,-0.460796153846154,1.9501596153846152,73.44642307692308,-1.3320269230769233,-1.4438,-4.489423076923077,1.4621248966545781,2.448754174018027,2.557670540426831,2.4020309843136634
H2_walk_slow_20251205_052416,,-8.88,0.723,-4.681,-10.591,2.034,-3.295,33.32,70.56,-5.39,0.606819230769231,-1.1007211538461537,30.719365384615386,-0.49379615384615405,0.8211596153846152,69.17642307692307,-2.091026923076923,-0.7087999999999997,-6.169423076923077,2.232589934004263,1.545408558428164,2.5316325691217894,2.3294624562177457
H2_walk_slow_20251205_052416,240476.0,-10.589,-0.048,-2.864,-9.648,-0.019,-1.941,-11.06,61.6,-9.1,-1.1021807692307686,-0.15772115384615404,-13.660634615384616,-1.264796153846154,-1.2318403846153845,60.21642307692308,-0.274026923076923,0.6452000000000002,-9.879423076923077,1.6998830881614062,1.3994962434890423,2.5210779818542215,2.2459573160616775
H2_walk_slow_20251205_052416,,-10.141,-1.295,-2.539,-9.55,0.105,-2.309,-7.21,57.05,-7.35,-0.6541807692307682,-0.05972115384615506,-9.810634615384615,-2.511796153846154,-1.1078403846153846,55.666423076923074,0.05097307692307673,0.2772000000000001,-8.129423076923077,2.596087566296387,1.143554447327052,2.499646704030342,2.167438808571163
H2_walk_slow_20251205_052416,,-9.919,-1.285,-1.886,-9.399,0.517,-2.948,4.83,55.44,-8.4,-0.43218076923076865,0.09127884615384652,2.229365384615385,-2.501796153846154,-0.6958403846153846,54.056423076923075,0.703973076923077,-0.3617999999999997,-9.179423076923078,2.634642728288762,0.7895726113644417,2.407739760262538,2.128050693150772
H2_walk_slow_20251205_052416,,-9.665,-0.51,-1.828,-9.418,0.969,-3.013,17.57,52.15,-9.66,-0.1781807692307673,0.07227884615384639,14.969365384615385,-1.726796153846154,-0.2438403846153846,50.766423076923076,0.7619730769230768,-0.4267999999999996,-10.439423076923077,1.895831298775595,0.4968305594171012,2.3104695006919953,2.103570806129528
H2_walk_slow_20251205_052416,240551.0,-9.593,1.199,-3.01,-10.136,0.17,-1.957,26.95,42.77,-6.3,-0.10618076923076814,-0.6457211538461536,24.349365384615385,-0.01779615384615396,-1.0428403846153846,41.38642307692308,-0.4200269230769229,0.6292000000000002,-7.079423076923077,0.43360543695348297,1.3785370928303566,2.23296887653569,2.0444483011020655
H2_walk_slow_20251205_052416,,-9.586,1.086,-2.855,-10.287,-0.404,-1.962,21.0,39.9,-6.65,-0.09918076923076846,-0.7967211538461552,18.399365384615386,-0.13079615384615395,-1.6168403846153847,38.516423076923076,-0.2650269230769231,0.6242000000000003,-7.429423076923078,0.31174304932391844,1.907501786711922,2.1590966185869136,1.8160087549387045
H2_walk_slow_20251205_052416,,-9.447,0.842,-2.642,-9.797,-0.773,-2.201,16.1,38.08,-7.91,0.03981923076923266,-0.30672115384615495,13.499365384615386,-0.37479615384615406,-1.9858403846153845,36.696423076923075,-0.052026923076923026,0.3852000000000002,-8.689423076923077,0.38047934083439466,2.0459762802598895,1.855601614384002,1.7053020901838447
H2_walk_slow_20251205_052416,,-9.402,0.632,-2.292,-9.686,-0.821,-2.355,11.83,38.22,-9.38,0.08481923076923259,-0.1957211538461543,9.229365384615384,-0.584796153846154,-2.0338403846153845,36.836423076923076,0.29797307692307706,0.2312000000000003,-10.159423076923078,0.6617921108872068,2.056275010827911,1.5810032615734477,1.5946316286701148
H2_walk_slow_20251205_052416,240627.0,-9.655,-0.536,-2.627,-9.868,0.854,-2.922,24.29,31.64,-7.28,-0.16818076923076752,-0.3777211538461547,21.689365384615385,-1.752796153846154,-0.3588403846153846,30.256423076923078,-0.0370269230769229,-0.3357999999999999,-8.059423076923077,1.7612353962799714,0.619839762917633,1.4309258001269276,1.5617436591242646
H2_walk_slow_20251205_052416,,-9.67,0.05,-2.73,-9.895,0.431,-3.034,25.2,31.08,-7.0,-0.1831807692307681,-0.4047211538461539,22.599365384615385,-1.166796153846154,-0.7818403846153845,29.696423076923075,-0.1400269230769231,-0.44779999999999953,-7.779423076923077,1.1893594906640061,0.987723867984415,1.32838515737001,1.5027079247923267
H2_walk_slow_20251205_052416,,-9.605,0.656,-2.855,-9.701,0.187,-3.254,23.31,30.94,-6.72,-0.11818076923076859,-0.21072115384615486,20.709365384615385,-0.560796153846154,-1.0258403846153845,29.55642307692308,-0.2650269230769231,-0.6677999999999997,-7.499423076923077,0.6314256015875795,1.242058267307172,1.283275697211206,1.4383976517633243
H2_walk_slow_20251205_052416,,-9.703,0.986,-2.895,-9.497,0.254,-3.431,17.92,30.66,-7.35,-0.21618076923076757,-0.0067211538461542375,15.319365384615386,-0.23079615384615404,-0.9588403846153846,29.276423076923077,-0.30502692307692314,-0.8447999999999998,-8.129423076923077,0.4393659220025595,1.2779307872801258,1.2687674615078801,1.3785761376046028
H2_walk_slow_20251205_052416,240703.0,-9.524,0.596,-3.716,-9.615,0.366,-3.439,5.95,26.39,-6.51,-0.0371807692307673,-0.12472115384615456,3.349365384615385,-0.620796153846154,-0.8468403846153846,25.006423076923078,-1.1260269230769233,-0.8527999999999998,-7.289423076923077,1.2863541136579977,1.2082888078734522,1.2539505701986473,1.3297046249279847
H2_walk_slow_20251205_052416,,-9.579,1.07,-3.865,-9.686,-0.081,-3.116,4.13,25.9,-6.79,-0.09218076923076879,-0.1957211538461543,1.5293653846153847,-0.14679615384615397,-1.2938403846153845,24.516423076923076,-1.2750269230769233,-0.5297999999999998,-7.569423076923077,1.28675563319964,1.411742806223767,1.2039008250442262,1.3156457383373523
H2_walk_slow_20251205_052416,,-9.612,1.328,-3.833,-9.679,-0.371,-2.874,-0.42,25.13,-6.72,-0.12518076923076826,-0.18872115384615462,-3.020634615384615,0.11120384615384604,-1.5838403846153846,23.746423076923076,-1.2430269230769233,-0.28779999999999983,-7.499423076923077,1.2542537430196086,1.6208006903526522,1.1734411832176337,1.3138409741942796
H2_walk_slow_20251205_052416,,-9.519,1.036,-3.733,-9.6,-0.483,-2.592,-6.58,24.36,-6.86,-0.03218076923076829,-0.109721153846154,-9.180634615384616,-0.180796153846154,-1.6958403846153844,22.976423076923076,-1.1430269230769232,-0.005799999999999805,-7.6394230769230775,1.157684498485034,1.6993960638102543,1.1167991905858747,1.3331549761804948
H2_walk_slow_20251205_052416,240779.0,-9.596,-0.156,-2.505,-9.651,-0.273,-2.041,0.77,20.3,-6.02,-0.10918076923076825,-0.16072115384615415,-1.8306346153846151,-1.372796153846154,-1.4858403846153845,18.916423076923078,0.08497307692307698,0.5452000000000004,-6.799423076923077,1.3797500296018808,1.5908475658741266,1.0933227688819414,1.3481185990389644
H2_walk_slow_20251205_052416,,-9.596,0.182,-2.446,-9.66,-0.474,-1.943,1.19,20.72,-5.67,-0.10918076923076825,-0.1697211538461545,-1.4106346153846152,-1.034796153846154,-1.6868403846153845,19.336423076923076,0.1439730769230767,0.6432000000000002,-6.449423076923077,1.0504531247339473,1.813268318046794,1.1050384250723586,1.3736271151005826
H2_walk_slow_20251205_052416,,-9.572,0.261,-2.276,-9.569,-0.402,-2.024,-0.84,21.28,-5.46,-0.08518076923076734,-0.07872115384615519,-3.440634615384615,-0.955796153846154,-1.6148403846153845,19.896423076923078,0.3139730769230771,0.5622000000000003,-6.239423076923077,1.0096440680687382,1.7117170700345408,1.16098834295089,1.3693532698553053
H2_walk_slow_20251205_052416,,-9.624,0.026,-2.072,-9.543,-0.223,-2.075,-2.73,21.63,-5.39,-0.13718076923076872,-0.05272115384615361,-5.330634615384615,-1.190796153846154,-1.4358403846153847,20.246423076923076,0.5179730769230768,0.5112000000000001,-6.169423076923077,1.3057986643731485,1.5250385471047367,1.2075342966519875,1.350758599080044
H2_walk_slow_20251205_052416,240854.0,-9.689,-0.014,-2.13,-9.347,0.134,-2.745,8.75,23.87,-3.29,-0.20218076923076822,0.14327884615384612,6.149365384615384,-1.230796153846154,-1.0788403846153845,22.486423076923078,0.459973076923077,-0.15879999999999983,-4.069423076923077,1.329402673106728,1.0998376440330855,1.2435677675770853,1.3432081907387405
H2_walk_slow_20251205_052416,,-9.643,0.036,-2.307,-9.313,0.357,-2.807,8.68,24.22,-3.08,-0.15618076923076885,0.17727884615384504,6.079365384615384,-1.180796153846154,-0.8558403846153846,22.836423076923076,0.28297307692307694,-0.22079999999999966,-3.8594230769230773,1.224232719656969,0.9014672446807194,1.258524199101296,1.3344584913961153
H2_walk_slow_20251205_052416,,-9.588,0.022,-2.536,-9.423,0.369,-2.783,7.63,24.5,-2.87,-0.10118076923076735,0.0672788461538456,5.029365384615385,-1.194796153846154,-0.8438403846153846,23.116423076923077,0.053973076923076846,-0.19679999999999964,-3.6494230769230773,1.2002868366937283,0.869093365437588,1.2390796216082072,1.3816131381361676
H2_walk_slow_20251205_052416,,-9.529,0.048,-2.682,-9.524,0.179,-2.778,8.12,24.78,-2.59,-0.04218076923076808,-0.033721153846153484,5.519365384615384,-1.168796153846154,-1.0338403846153845,23.396423076923078,-0.09202692307692306,-0.19179999999999975,-3.369423076923077,1.1731720338933533,1.0520220040847066,1.2572190280819073,1.419679076608224
H2_walk_slow_20251205_052416,240930.0,-9.438,0.17,-2.838,-9.263,0.065,-2.723,4.41,28.14,-2.38,0.048819230769231226,0.22727884615384575,1.809365384615385,-1.046796153846154,-1.1478403846153846,26.756423076923078,-0.2480269230769232,-0.1367999999999996,-3.159423076923077,1.0768857226145245,1.178094844425956,1.312166786091971,1.5227919974169224
H2_walk_slow_20251205_052416,,-9.27,0.364,-2.895,-9.289,0.053,-2.666,4.83,28.84,-2.52,0.21681923076923226,0.20127884615384595,2.229365384615385,-0.852796153846154,-1.1598403846153846,27.456423076923077,-0.30502692307692314,-0.07979999999999965,-3.299423076923077,0.931296559989314,1.1798775070717245,1.3753160849760553,1.5675923677780643
H2_walk_slow_20251205_052416,,-9.375,0.378,-2.919,-9.311,-0.115,-2.771,4.06,29.26,-2.8,0.11181923076923184,0.1792788461538457,1.4593653846153845,-0.838796153846154,-1.3278403846153846,27.87642307692308,-0.32902692307692316,-0.18479999999999963,-3.579423076923077,0.9079324006700009,1.3525723757691441,1.4118185226366282,1.5524865681631492
H2_walk_slow_20251205_052416,,-9.234,0.165,-2.893,-9.34,-0.426,-2.589,2.38,29.54,-3.15,0.25281923076923185,0.1502788461538458,-0.22063461538461526,-1.051796153846154,-1.6388403846153845,28.156423076923076,-0.3030269230769229,-0.0027999999999996916,-3.9294230769230767,1.1233957578706517,1.6457184989686517,1.4777737220871652,1.5174525074477665
H2_walk_slow_20251205_052416,241005.0,-9.39,-0.804,-2.522,-9.136,0.302,-3.245,3.99,32.06,-2.66,0.09681923076923127,0.3542788461538464,1.389365384615385,-2.0207961538461543,-0.9108403846153845,30.67642307692308,0.06797307692307708,-0.6587999999999998,-3.4394230769230774,2.024255763986494,1.17862680568465,1.5055366742337655,1.4753814724080603
H2_walk_slow_20251205_052416,,-9.313,-0.976,-2.532,-9.208,0.359,-3.319,8.4,32.34,-1.4,0.17381923076923123,0.28227884615384546,5.799365384615385,-2.192796153846154,-0.8538403846153846,30.95642307692308,0.05797307692307685,-0.7327999999999997,-2.1794230769230767,2.2004383597264483,1.1600519770191737,1.5612820916367238,1.424363940794738
H2_walk_slow_20251205_052416,,-9.129,-0.632,-2.73,-9.428,0.086,-3.163,13.09,33.18,-0.84,0.3578192307692323,0.062278846153844825,10.489365384615384,-1.8487961538461541,-1.1268403846153845,31.796423076923077,-0.1400269230769231,-0.5767999999999995,-1.619423076923077,1.8883033017952937,1.2674171164531436,1.5937742285808143,1.3754875688187045
H2_walk_slow_20251205_052416,,-8.988,-0.115,-3.132,-9.612,-0.144,-3.001,15.89,34.23,-0.91,0.4988192307692323,-0.12172115384615445,13.289365384615385,-1.331796153846154,-1.3568403846153845,32.846423076923074,-0.5420269230769232,-0.4147999999999996,-1.689423076923077,1.521937845552457,1.424040346555133,1.6034068614795498,1.3294825563906523
H2_walk_slow_20251205_052416,241081.0,-9.459,0.0,-3.094,-9.639,-0.06,-3.92,-0.21,39.9,-0.21,0.027819230769232206,-0.1487211538461537,-2.810634615384615,-1.216796153846154,-1.2728403846153846,38.516423076923076,-0.504026923076923,-1.3337999999999997,-0.989423076923077,1.3173495848869334,1.8496656633859996,1.591311221962677,1.3710414101524746
H2_walk_slow_20251205_052416,,-9.569,0.34,-3.163,-9.603,0.345,-4.192,0.0,41.44,0.56,-0.082180769230769,-0.11272115384615411,-2.600634615384615,-0.876796153846154,-0.8678403846153846,40.056423076923075,-0.5730269230769229,-1.6058,-0.21942307692307694,1.050659330516688,1.8287828279196485,1.5807108835555317,1.4305095846579452
H2_walk_slow_20251205_052416,,-9.789,0.282,-3.372,-9.794,0.447,-4.238,-1.12,42.0,0.28,-0.30218076923076786,-0.30372115384615483,-3.7206346153846153,-0.934796153846154,-0.7658403846153845,40.61642307692308,-0.782026923076923,-1.6518000000000002,-0.49942307692307697,1.255676381459658,1.8458605781590007,1.5910677029168265,1.502276691897688
H2_walk_slow_20251205_052416,,-9.969,-0.053,-3.546,-9.902,0.263,-4.271,-1.82,42.0,0.07,-0.4821807692307676,-0.4117211538461536,-4.420634615384615,-1.269796153846154,-0.9498403846153846,40.61642307692308,-0.9560269230769229,-1.6847999999999996,-0.7094230769230769,1.6609840589802145,1.9774382682578762,1.6283530287736814,1.577268707341457
H2_walk_slow_20251205_052416,241157.0,-9.916,0.148,-4.298,-11.397,-2.082,-3.534,-8.89,46.76,3.08,-0.42918076923076853,-1.9067211538461546,-11.490634615384616,-1.0687961538461541,-3.2948403846153846,45.376423076923075,-1.7080269230769232,-0.9477999999999995,2.300576923076923,2.0600673098492357,3.922994208333332,1.6714365001117588,1.7057413444182523
H2_walk_slow_20251205_052416,,-9.866,0.057,-4.276,-10.677,-0.79,-3.326,-10.01,48.09,4.27,-0.3791807692307678,-1.186721153846154,-12.610634615384615,-1.159796153846154,-2.002840384615385,46.70642307692308,-1.686026923076923,-0.7397999999999998,3.4905769230769224,2.0812476929887525,2.4427404166698206,1.710752829622971,1.8610993529388304
H2_walk_slow_20251205_052416,,-10.041,-0.168,-4.255,-9.483,1.094,-3.393,-11.76,49.35,5.32,-0.5541807692307685,0.007278846153845109,-14.360634615384615,-1.384796153846154,-0.11884038461538449,47.96642307692308,-1.665026923076923,-0.8067999999999995,4.540576923076923,2.2354174928328963,0.8155380178856552,1.7747363623042232,2.0314596302909136
H2_walk_slow_20251205_052416,,-10.541,-1.187,-4.046,-9.622,0.96,-2.998,-15.4,50.68,7.28,-1.0541807692307685,-0.13172115384615424,-18.000634615384616,-2.4037961538461543,-0.2528403846153846,49.29642307692308,-1.4560269230769234,-0.41179999999999994,6.500576923076923,3.0015908189135962,0.5008572276238188,1.871658394117924,2.186729063266382
H2_walk_slow_20251205_052416,241233.0,-10.033,-0.677,-2.448,-9.325,0.845,-2.247,-16.66,59.01,12.18,-0.5461807692307676,0.16527884615384636,-19.260634615384614,-1.893796153846154,-0.3678403846153846,57.626423076923075,0.14197307692307692,0.3392000000000004,11.400576923076922,1.9760904988312162,0.5269537793202941,2.025745440739274,2.416258995921797
H2_walk_slow_20251205_052416,,-9.986,-1.307,-2.168,-9.167,1.283,-2.414,-11.55,60.13,13.86,-0.4991807692307688,0.32327884615384583,-14.150634615384616,-2.523796153846154,0.07015961538461535,58.74642307692308,0.42197307692307673,0.17220000000000013,13.080576923076922,2.607065350961957,0.3729402418638664,2.185744567153382,2.642326764026569
H2_walk_slow_20251205_052416,,-9.789,-0.936,-2.118,-9.524,1.22,-2.268,-1.47,62.44,16.1,-0.30218076923076786,-0.033721153846153484,-4.070634615384615,-2.152796153846154,0.007159615384615403,61.056423076923075,0.471973076923077,0.3182000000000005,15.320576923076924,2.224545590148228,0.3200618944972548,2.349457422540383,2.8658811572972187
H2_walk_slow_20251205_052416,,-9.567,-0.022,-2.201,-9.933,0.876,-2.319,6.3,66.15,17.5,-0.08018076923076833,-0.4427211538461542,3.6993653846153847,-1.238796153846154,-0.33684038461538457,64.76642307692308,0.3889730769230768,0.2672000000000003,16.720576923076923,1.3009015801010728,0.6171379949174338,2.530016062475089,3.047113368072988
H2_walk_slow_20251205_052416,241309.0,-10.062,1.05,-2.237,-10.237,3.582,-1.311,-3.36,85.05,15.33,-0.5751807692307676,-0.7467211538461545,-5.960634615384615,-0.16679615384615398,2.369159615384615,83.66642307692308,0.3529730769230768,1.2752000000000003,14.550576923076923,0.6951574406300429,2.792247267841928,2.657809761704806,3.251427140101185
